trial_type,trial_index,time_elapsed,internal_node_id,subject,hitId,assignmentId,structure_condition,match_condition,noise_type,success,timeout,failed_images,failed_audio,failed_video,view_history,rt,start_time,end_time,stimuli,image1,image2,image3,image4,choiceLocation,choiceImage,choiceEmotion,choiceModel,choice_index,reward_score,reward,reward_score_unadjusted,reward_image,score_after_trial,emotions,models,rewards,rewards_unadjusted,stimulus,response,question_order,file_name,n
pavlovia,0,9,0.0-0.0,p333790,emogo,test_session,model,match,uniform,NA,NA,NA,NA,NA,NA,NA,NA,NA,NA,NA,NA,NA,NA,NA,NA,NA,NA,NA,NA,NA,NA,NA,NA,NA,NA,NA,NA,NA,NA,NA,/Users/martinzettersten/GitHub/emogo/data-analysis/data/pilot-v1/raw/emogo-v1_PARTICIPANT_SESSION_2022-08-23_12h09.43.369.csv,206
preload,1,7643,0.0-1.0,p333790,emogo,test_session,model,match,uniform,TRUE,FALSE,[],[],[],NA,NA,NA,NA,NA,NA,NA,NA,NA,NA,NA,NA,NA,NA,NA,NA,NA,NA,NA,NA,NA,NA,NA,NA,NA,NA,/Users/martinzettersten/GitHub/emogo/data-analysis/data/pilot-v1/raw/emogo-v1_PARTICIPANT_SESSION_2022-08-23_12h09.43.369.csv,206
instructions,2,11275,0.0-2.0,p333790,emogo,test_session,model,match,uniform,NA,NA,NA,NA,NA,"[{""page_index"":0,""viewing_time"":3631}]",3631,NA,NA,NA,NA,NA,NA,NA,NA,NA,NA,NA,NA,NA,NA,NA,NA,NA,NA,NA,NA,NA,NA,NA,NA,/Users/martinzettersten/GitHub/emogo/data-analysis/data/pilot-v1/raw/emogo-v1_PARTICIPANT_SESSION_2022-08-23_12h09.43.369.csv,206
explore-choice,3,13605,0.0-3.0,p333790,emogo,test_session,model,match,uniform,NA,NA,NA,NA,NA,NA,1828,12609,14437,"[""stimuli/sheep.jpg"",""stimuli/hammer.jpg"",""stimuli/basketball.jpg"",""stimuli/horse.jpg""]",stimuli/sheep.jpg,stimuli/hammer.jpg,stimuli/basketball.jpg,stimuli/horse.jpg,pos4,stimuli/horse.jpg,NA,NA,3,64,64,64,stimuli/stars_8.png,65,NA,NA,NA,NA,NA,NA,NA,/Users/martinzettersten/GitHub/emogo/data-analysis/data/pilot-v1/raw/emogo-v1_PARTICIPANT_SESSION_2022-08-23_12h09.43.369.csv,206
explore-choice,4,15466,0.0-4.0,p333790,emogo,test_session,model,match,uniform,NA,NA,NA,NA,NA,NA,1359,14939,16298,"[""stimuli/hammer.jpg"",""stimuli/basketball.jpg"",""stimuli/horse.jpg"",""stimuli/sheep.jpg""]",stimuli/hammer.jpg,stimuli/basketball.jpg,stimuli/horse.jpg,stimuli/sheep.jpg,pos1,stimuli/hammer.jpg,NA,NA,0,8,8,8,stimuli/stars_2.png,9,NA,NA,NA,NA,NA,NA,NA,/Users/martinzettersten/GitHub/emogo/data-analysis/data/pilot-v1/raw/emogo-v1_PARTICIPANT_SESSION_2022-08-23_12h09.43.369.csv,206
instructions,5,28132,0.0-5.0,p333790,emogo,test_session,model,match,uniform,NA,NA,NA,NA,NA,"[{""page_index"":0,""viewing_time"":12666}]",12666,NA,NA,NA,NA,NA,NA,NA,NA,NA,NA,NA,NA,NA,NA,NA,NA,NA,NA,NA,NA,NA,NA,NA,NA,/Users/martinzettersten/GitHub/emogo/data-analysis/data/pilot-v1/raw/emogo-v1_PARTICIPANT_SESSION_2022-08-23_12h09.43.369.csv,206
explore-choice,6,31074,0.0-6.0,p333790,emogo,test_session,model,match,uniform,NA,NA,NA,NA,NA,NA,2441,29466,31907,"[""stimuli/AF10_HO.jpg"",""stimuli/HF09_SUR.jpg"",""stimuli/HM07_CC.jpg"",""stimuli/BF04_AO.jpg""]",stimuli/AF10_HO.jpg,stimuli/HF09_SUR.jpg,stimuli/HM07_CC.jpg,stimuli/BF04_AO.jpg,pos2,stimuli/HF09_SUR.jpg,SUR,HF09,1,3,6,6,stimuli/stars_6.png,4,"[""HO"",""SUR"",""CC"",""AO""]","[""AF10"",""HF09"",""HM07"",""BF04""]","[3,6,6,3]","[2,6,8,4]",NA,NA,NA,/Users/martinzettersten/GitHub/emogo/data-analysis/data/pilot-v1/raw/emogo-v1_PARTICIPANT_SESSION_2022-08-23_12h09.43.369.csv,206
show-reward,7,33080,0.0-7.0,p333790,emogo,test_session,model,match,uniform,NA,NA,NA,NA,NA,NA,NA,32409,34413,NA,NA,NA,NA,NA,NA,NA,NA,NA,NA,NA,6,NA,stimuli/stars_6.png,4,NA,NA,NA,NA,stimuli/HF09_SUR.jpg,NA,NA,/Users/martinzettersten/GitHub/emogo/data-analysis/data/pilot-v1/raw/emogo-v1_PARTICIPANT_SESSION_2022-08-23_12h09.43.369.csv,206
explore-choice,8,35604,0.0-8.0,p333790,emogo,test_session,model,match,uniform,NA,NA,NA,NA,NA,NA,2021,34414,36435,"[""stimuli/BF04_AO.jpg"",""stimuli/AF10_HO.jpg"",""stimuli/HM07_SUR.jpg"",""stimuli/HF09_CC.jpg""]",stimuli/BF04_AO.jpg,stimuli/AF10_HO.jpg,stimuli/HM07_SUR.jpg,stimuli/HF09_CC.jpg,pos4,stimuli/HF09_CC.jpg,CC,HF09,3,2,4,6,stimuli/stars_4.png,6,"[""AO"",""HO"",""SUR"",""CC""]","[""BF04"",""AF10"",""HM07"",""HF09""]","[3,3,6,4]","[4,2,8,6]",NA,NA,NA,/Users/martinzettersten/GitHub/emogo/data-analysis/data/pilot-v1/raw/emogo-v1_PARTICIPANT_SESSION_2022-08-23_12h09.43.369.csv,206
show-reward,9,37607,0.0-9.0,p333790,emogo,test_session,model,match,uniform,NA,NA,NA,NA,NA,NA,NA,36939,38941,NA,NA,NA,NA,NA,NA,NA,NA,NA,NA,NA,4,NA,stimuli/stars_4.png,6,NA,NA,NA,NA,stimuli/HF09_CC.jpg,NA,NA,/Users/martinzettersten/GitHub/emogo/data-analysis/data/pilot-v1/raw/emogo-v1_PARTICIPANT_SESSION_2022-08-23_12h09.43.369.csv,206
explore-choice,10,39303,0.0-10.0,p333790,emogo,test_session,model,match,uniform,NA,NA,NA,NA,NA,NA,1195,38941,40136,"[""stimuli/HM07_SUR.jpg"",""stimuli/BF04_AO.jpg"",""stimuli/HF09_HO.jpg"",""stimuli/AF10_CC.jpg""]",stimuli/HM07_SUR.jpg,stimuli/BF04_AO.jpg,stimuli/HF09_HO.jpg,stimuli/AF10_CC.jpg,pos3,stimuli/HF09_HO.jpg,HO,HF09,2,2.5,5,6,stimuli/stars_5.png,8.5,"[""SUR"",""AO"",""HO"",""CC""]","[""HM07"",""BF04"",""HF09"",""AF10""]","[9,6,5,0]","[8,4,6,2]",NA,NA,NA,/Users/martinzettersten/GitHub/emogo/data-analysis/data/pilot-v1/raw/emogo-v1_PARTICIPANT_SESSION_2022-08-23_12h09.43.369.csv,206
show-reward,11,41306,0.0-11.0,p333790,emogo,test_session,model,match,uniform,NA,NA,NA,NA,NA,NA,NA,40637,42639,NA,NA,NA,NA,NA,NA,NA,NA,NA,NA,NA,5,NA,stimuli/stars_5.png,8.5,NA,NA,NA,NA,stimuli/HF09_HO.jpg,NA,NA,/Users/martinzettersten/GitHub/emogo/data-analysis/data/pilot-v1/raw/emogo-v1_PARTICIPANT_SESSION_2022-08-23_12h09.43.369.csv,206
explore-choice,12,42552,0.0-12.0,p333790,emogo,test_session,model,match,uniform,NA,NA,NA,NA,NA,NA,743,42640,43383,"[""stimuli/HM07_CC.jpg"",""stimuli/BF04_SUR.jpg"",""stimuli/HF09_AO.jpg"",""stimuli/AF10_HO.jpg""]",stimuli/HM07_CC.jpg,stimuli/BF04_SUR.jpg,stimuli/HF09_AO.jpg,stimuli/AF10_HO.jpg,pos2,stimuli/BF04_SUR.jpg,SUR,BF04,1,1,2,4,stimuli/stars_2.png,9.5,"[""CC"",""SUR"",""AO"",""HO""]","[""HM07"",""BF04"",""HF09"",""AF10""]","[6,2,5,1]","[8,4,6,2]",NA,NA,NA,/Users/martinzettersten/GitHub/emogo/data-analysis/data/pilot-v1/raw/emogo-v1_PARTICIPANT_SESSION_2022-08-23_12h09.43.369.csv,206
show-reward,13,44554,0.0-13.0,p333790,emogo,test_session,model,match,uniform,NA,NA,NA,NA,NA,NA,NA,43886,45888,NA,NA,NA,NA,NA,NA,NA,NA,NA,NA,NA,2,NA,stimuli/stars_2.png,9.5,NA,NA,NA,NA,stimuli/BF04_SUR.jpg,NA,NA,/Users/martinzettersten/GitHub/emogo/data-analysis/data/pilot-v1/raw/emogo-v1_PARTICIPANT_SESSION_2022-08-23_12h09.43.369.csv,206
explore-choice,14,45714,0.0-14.0,p333790,emogo,test_session,model,match,uniform,NA,NA,NA,NA,NA,NA,659,45888,46547,"[""stimuli/HM07_AO.jpg"",""stimuli/AF10_CC.jpg"",""stimuli/HF09_SUR.jpg"",""stimuli/BF04_HO.jpg""]",stimuli/HM07_AO.jpg,stimuli/AF10_CC.jpg,stimuli/HF09_SUR.jpg,stimuli/BF04_HO.jpg,pos2,stimuli/AF10_CC.jpg,CC,AF10,1,1.5,3,2,stimuli/stars_3.png,11,"[""AO"",""CC"",""SUR"",""HO""]","[""HM07"",""AF10"",""HF09"",""BF04""]","[9,3,7,5]","[8,2,6,4]",NA,NA,NA,/Users/martinzettersten/GitHub/emogo/data-analysis/data/pilot-v1/raw/emogo-v1_PARTICIPANT_SESSION_2022-08-23_12h09.43.369.csv,206
show-reward,15,47716,0.0-15.0,p333790,emogo,test_session,model,match,uniform,NA,NA,NA,NA,NA,NA,NA,47048,49050,NA,NA,NA,NA,NA,NA,NA,NA,NA,NA,NA,3,NA,stimuli/stars_3.png,11,NA,NA,NA,NA,stimuli/AF10_CC.jpg,NA,NA,/Users/martinzettersten/GitHub/emogo/data-analysis/data/pilot-v1/raw/emogo-v1_PARTICIPANT_SESSION_2022-08-23_12h09.43.369.csv,206
explore-choice,16,48981,0.0-16.0,p333790,emogo,test_session,model,match,uniform,NA,NA,NA,NA,NA,NA,761,49051,49812,"[""stimuli/AF10_AO.jpg"",""stimuli/HF09_SUR.jpg"",""stimuli/BF04_CC.jpg"",""stimuli/HM07_HO.jpg""]",stimuli/AF10_AO.jpg,stimuli/HF09_SUR.jpg,stimuli/BF04_CC.jpg,stimuli/HM07_HO.jpg,pos1,stimuli/AF10_AO.jpg,AO,AF10,0,0,0,2,stimuli/stars_0.png,11,"[""AO"",""SUR"",""CC"",""HO""]","[""AF10"",""HF09"",""BF04"",""HM07""]","[0,6,5,9]","[2,6,4,8]",NA,NA,NA,/Users/martinzettersten/GitHub/emogo/data-analysis/data/pilot-v1/raw/emogo-v1_PARTICIPANT_SESSION_2022-08-23_12h09.43.369.csv,206
show-reward,17,50984,0.0-17.0,p333790,emogo,test_session,model,match,uniform,NA,NA,NA,NA,NA,NA,NA,50315,52317,NA,NA,NA,NA,NA,NA,NA,NA,NA,NA,NA,0,NA,stimuli/stars_0.png,11,NA,NA,NA,NA,stimuli/AF10_AO.jpg,NA,NA,/Users/martinzettersten/GitHub/emogo/data-analysis/data/pilot-v1/raw/emogo-v1_PARTICIPANT_SESSION_2022-08-23_12h09.43.369.csv,206
explore-choice,18,52349,0.0-18.0,p333790,emogo,test_session,model,match,uniform,NA,NA,NA,NA,NA,NA,862,52318,53180,"[""stimuli/BF04_AO.jpg"",""stimuli/HM07_CC.jpg"",""stimuli/HF09_HO.jpg"",""stimuli/AF10_SUR.jpg""]",stimuli/BF04_AO.jpg,stimuli/HM07_CC.jpg,stimuli/HF09_HO.jpg,stimuli/AF10_SUR.jpg,pos4,stimuli/AF10_SUR.jpg,SUR,AF10,3,2,4,2,stimuli/stars_4.png,13,"[""AO"",""CC"",""HO"",""SUR""]","[""BF04"",""HM07"",""HF09"",""AF10""]","[2,10,6,4]","[4,8,6,2]",NA,NA,NA,/Users/martinzettersten/GitHub/emogo/data-analysis/data/pilot-v1/raw/emogo-v1_PARTICIPANT_SESSION_2022-08-23_12h09.43.369.csv,206
show-reward,19,54351,0.0-19.0,p333790,emogo,test_session,model,match,uniform,NA,NA,NA,NA,NA,NA,NA,53683,55684,NA,NA,NA,NA,NA,NA,NA,NA,NA,NA,NA,4,NA,stimuli/stars_4.png,13,NA,NA,NA,NA,stimuli/AF10_SUR.jpg,NA,NA,/Users/martinzettersten/GitHub/emogo/data-analysis/data/pilot-v1/raw/emogo-v1_PARTICIPANT_SESSION_2022-08-23_12h09.43.369.csv,206
explore-choice,20,56572,0.0-20.0,p333790,emogo,test_session,model,match,uniform,NA,NA,NA,NA,NA,NA,1718,55685,57403,"[""stimuli/HM07_AO.jpg"",""stimuli/AF10_HO.jpg"",""stimuli/HF09_CC.jpg"",""stimuli/BF04_SUR.jpg""]",stimuli/HM07_AO.jpg,stimuli/AF10_HO.jpg,stimuli/HF09_CC.jpg,stimuli/BF04_SUR.jpg,pos1,stimuli/HM07_AO.jpg,AO,HM07,0,5,10,8,stimuli/stars_10.png,18,"[""AO"",""HO"",""CC"",""SUR""]","[""HM07"",""AF10"",""HF09"",""BF04""]","[10,3,5,6]","[8,2,6,4]",NA,NA,NA,/Users/martinzettersten/GitHub/emogo/data-analysis/data/pilot-v1/raw/emogo-v1_PARTICIPANT_SESSION_2022-08-23_12h09.43.369.csv,206
show-reward,21,58575,0.0-21.0,p333790,emogo,test_session,model,match,uniform,NA,NA,NA,NA,NA,NA,NA,57908,59910,NA,NA,NA,NA,NA,NA,NA,NA,NA,NA,NA,10,NA,stimuli/stars_10.png,18,NA,NA,NA,NA,stimuli/HM07_AO.jpg,NA,NA,/Users/martinzettersten/GitHub/emogo/data-analysis/data/pilot-v1/raw/emogo-v1_PARTICIPANT_SESSION_2022-08-23_12h09.43.369.csv,206
explore-choice,22,59802,0.0-22.0,p333790,emogo,test_session,model,match,uniform,NA,NA,NA,NA,NA,NA,723,59910,60633,"[""stimuli/HM07_HO.jpg"",""stimuli/HF09_AO.jpg"",""stimuli/BF04_CC.jpg"",""stimuli/AF10_SUR.jpg""]",stimuli/HM07_HO.jpg,stimuli/HF09_AO.jpg,stimuli/BF04_CC.jpg,stimuli/AF10_SUR.jpg,pos1,stimuli/HM07_HO.jpg,HO,HM07,0,3,6,8,stimuli/stars_6.png,21,"[""HO"",""AO"",""CC"",""SUR""]","[""HM07"",""HF09"",""BF04"",""AF10""]","[6,6,4,1]","[8,6,4,2]",NA,NA,NA,/Users/martinzettersten/GitHub/emogo/data-analysis/data/pilot-v1/raw/emogo-v1_PARTICIPANT_SESSION_2022-08-23_12h09.43.369.csv,206
show-reward,23,61805,0.0-23.0,p333790,emogo,test_session,model,match,uniform,NA,NA,NA,NA,NA,NA,NA,61136,63139,NA,NA,NA,NA,NA,NA,NA,NA,NA,NA,NA,6,NA,stimuli/stars_6.png,21,NA,NA,NA,NA,stimuli/HM07_HO.jpg,NA,NA,/Users/martinzettersten/GitHub/emogo/data-analysis/data/pilot-v1/raw/emogo-v1_PARTICIPANT_SESSION_2022-08-23_12h09.43.369.csv,206
explore-choice,24,64293,0.0-24.0,p333790,emogo,test_session,model,match,uniform,NA,NA,NA,NA,NA,NA,1986,63139,65125,"[""stimuli/HM07_SUR.jpg"",""stimuli/HF09_HO.jpg"",""stimuli/AF10_AO.jpg"",""stimuli/BF04_CC.jpg""]",stimuli/HM07_SUR.jpg,stimuli/HF09_HO.jpg,stimuli/AF10_AO.jpg,stimuli/BF04_CC.jpg,pos1,stimuli/HM07_SUR.jpg,SUR,HM07,0,5,10,8,stimuli/stars_10.png,26,"[""SUR"",""HO"",""AO"",""CC""]","[""HM07"",""HF09"",""AF10"",""BF04""]","[10,6,1,4]","[8,6,2,4]",NA,NA,NA,/Users/martinzettersten/GitHub/emogo/data-analysis/data/pilot-v1/raw/emogo-v1_PARTICIPANT_SESSION_2022-08-23_12h09.43.369.csv,206
show-reward,25,66298,0.0-25.0,p333790,emogo,test_session,model,match,uniform,NA,NA,NA,NA,NA,NA,NA,65627,67631,NA,NA,NA,NA,NA,NA,NA,NA,NA,NA,NA,10,NA,stimuli/stars_10.png,26,NA,NA,NA,NA,stimuli/HM07_SUR.jpg,NA,NA,/Users/martinzettersten/GitHub/emogo/data-analysis/data/pilot-v1/raw/emogo-v1_PARTICIPANT_SESSION_2022-08-23_12h09.43.369.csv,206
explore-choice,26,68594,0.0-26.0,p333790,emogo,test_session,model,match,uniform,NA,NA,NA,NA,NA,NA,1794,67632,69426,"[""stimuli/BF04_AO.jpg"",""stimuli/HM07_HO.jpg"",""stimuli/AF10_CC.jpg"",""stimuli/HF09_SUR.jpg""]",stimuli/BF04_AO.jpg,stimuli/HM07_HO.jpg,stimuli/AF10_CC.jpg,stimuli/HF09_SUR.jpg,pos4,stimuli/HF09_SUR.jpg,SUR,HF09,3,2.5,5,6,stimuli/stars_5.png,28.5,"[""AO"",""HO"",""CC"",""SUR""]","[""BF04"",""HM07"",""AF10"",""HF09""]","[5,8,4,5]","[4,8,2,6]",NA,NA,NA,/Users/martinzettersten/GitHub/emogo/data-analysis/data/pilot-v1/raw/emogo-v1_PARTICIPANT_SESSION_2022-08-23_12h09.43.369.csv,206
show-reward,27,70597,0.0-27.0,p333790,emogo,test_session,model,match,uniform,NA,NA,NA,NA,NA,NA,NA,69929,71931,NA,NA,NA,NA,NA,NA,NA,NA,NA,NA,NA,5,NA,stimuli/stars_5.png,28.5,NA,NA,NA,NA,stimuli/HF09_SUR.jpg,NA,NA,/Users/martinzettersten/GitHub/emogo/data-analysis/data/pilot-v1/raw/emogo-v1_PARTICIPANT_SESSION_2022-08-23_12h09.43.369.csv,206
explore-choice,28,72787,0.0-28.0,p333790,emogo,test_session,model,match,uniform,NA,NA,NA,NA,NA,NA,1687,71931,73618,"[""stimuli/HM07_CC.jpg"",""stimuli/HF09_HO.jpg"",""stimuli/BF04_SUR.jpg"",""stimuli/AF10_AO.jpg""]",stimuli/HM07_CC.jpg,stimuli/HF09_HO.jpg,stimuli/BF04_SUR.jpg,stimuli/AF10_AO.jpg,pos4,stimuli/AF10_AO.jpg,AO,AF10,3,0.5,1,2,stimuli/stars_1.png,29,"[""CC"",""HO"",""SUR"",""AO""]","[""HM07"",""HF09"",""BF04"",""AF10""]","[9,5,4,1]","[8,6,4,2]",NA,NA,NA,/Users/martinzettersten/GitHub/emogo/data-analysis/data/pilot-v1/raw/emogo-v1_PARTICIPANT_SESSION_2022-08-23_12h09.43.369.csv,206
show-reward,29,74792,0.0-29.0,p333790,emogo,test_session,model,match,uniform,NA,NA,NA,NA,NA,NA,NA,74122,76125,NA,NA,NA,NA,NA,NA,NA,NA,NA,NA,NA,1,NA,stimuli/stars_1.png,29,NA,NA,NA,NA,stimuli/AF10_AO.jpg,NA,NA,/Users/martinzettersten/GitHub/emogo/data-analysis/data/pilot-v1/raw/emogo-v1_PARTICIPANT_SESSION_2022-08-23_12h09.43.369.csv,206
explore-choice,30,76592,0.0-30.0,p333790,emogo,test_session,model,match,uniform,NA,NA,NA,NA,NA,NA,1296,76126,77422,"[""stimuli/HF09_AO.jpg"",""stimuli/BF04_CC.jpg"",""stimuli/AF10_HO.jpg"",""stimuli/HM07_SUR.jpg""]",stimuli/HF09_AO.jpg,stimuli/BF04_CC.jpg,stimuli/AF10_HO.jpg,stimuli/HM07_SUR.jpg,pos4,stimuli/HM07_SUR.jpg,SUR,HM07,3,5,10,8,stimuli/stars_10.png,34,"[""AO"",""CC"",""HO"",""SUR""]","[""HF09"",""BF04"",""AF10"",""HM07""]","[6,5,2,10]","[6,4,2,8]",NA,NA,NA,/Users/martinzettersten/GitHub/emogo/data-analysis/data/pilot-v1/raw/emogo-v1_PARTICIPANT_SESSION_2022-08-23_12h09.43.369.csv,206
show-reward,31,78597,0.0-31.0,p333790,emogo,test_session,model,match,uniform,NA,NA,NA,NA,NA,NA,NA,77926,79930,NA,NA,NA,NA,NA,NA,NA,NA,NA,NA,NA,10,NA,stimuli/stars_10.png,34,NA,NA,NA,NA,stimuli/HM07_SUR.jpg,NA,NA,/Users/martinzettersten/GitHub/emogo/data-analysis/data/pilot-v1/raw/emogo-v1_PARTICIPANT_SESSION_2022-08-23_12h09.43.369.csv,206
explore-choice,32,80146,0.0-32.0,p333790,emogo,test_session,model,match,uniform,NA,NA,NA,NA,NA,NA,1045,79932,80977,"[""stimuli/HF09_HO.jpg"",""stimuli/BF04_CC.jpg"",""stimuli/HM07_AO.jpg"",""stimuli/AF10_SUR.jpg""]",stimuli/HF09_HO.jpg,stimuli/BF04_CC.jpg,stimuli/HM07_AO.jpg,stimuli/AF10_SUR.jpg,pos3,stimuli/HM07_AO.jpg,AO,HM07,2,4,8,8,stimuli/stars_8.png,38,"[""HO"",""CC"",""AO"",""SUR""]","[""HF09"",""BF04"",""HM07"",""AF10""]","[7,3,8,2]","[6,4,8,2]",NA,NA,NA,/Users/martinzettersten/GitHub/emogo/data-analysis/data/pilot-v1/raw/emogo-v1_PARTICIPANT_SESSION_2022-08-23_12h09.43.369.csv,206
show-reward,33,82149,0.0-33.0,p333790,emogo,test_session,model,match,uniform,NA,NA,NA,NA,NA,NA,NA,81481,83483,NA,NA,NA,NA,NA,NA,NA,NA,NA,NA,NA,8,NA,stimuli/stars_8.png,38,NA,NA,NA,NA,stimuli/HM07_AO.jpg,NA,NA,/Users/martinzettersten/GitHub/emogo/data-analysis/data/pilot-v1/raw/emogo-v1_PARTICIPANT_SESSION_2022-08-23_12h09.43.369.csv,206
explore-choice,34,83642,0.0-34.0,p333790,emogo,test_session,model,match,uniform,NA,NA,NA,NA,NA,NA,991,83484,84475,"[""stimuli/BF04_HO.jpg"",""stimuli/HF09_CC.jpg"",""stimuli/AF10_SUR.jpg"",""stimuli/HM07_AO.jpg""]",stimuli/BF04_HO.jpg,stimuli/HF09_CC.jpg,stimuli/AF10_SUR.jpg,stimuli/HM07_AO.jpg,pos4,stimuli/HM07_AO.jpg,AO,HM07,3,3,6,8,stimuli/stars_6.png,41,"[""HO"",""CC"",""SUR"",""AO""]","[""BF04"",""HF09"",""AF10"",""HM07""]","[6,6,1,6]","[4,6,2,8]",NA,NA,NA,/Users/martinzettersten/GitHub/emogo/data-analysis/data/pilot-v1/raw/emogo-v1_PARTICIPANT_SESSION_2022-08-23_12h09.43.369.csv,206
show-reward,35,85647,0.0-35.0,p333790,emogo,test_session,model,match,uniform,NA,NA,NA,NA,NA,NA,NA,84977,86981,NA,NA,NA,NA,NA,NA,NA,NA,NA,NA,NA,6,NA,stimuli/stars_6.png,41,NA,NA,NA,NA,stimuli/HM07_AO.jpg,NA,NA,/Users/martinzettersten/GitHub/emogo/data-analysis/data/pilot-v1/raw/emogo-v1_PARTICIPANT_SESSION_2022-08-23_12h09.43.369.csv,206
explore-choice,36,87280,0.0-36.0,p333790,emogo,test_session,model,match,uniform,NA,NA,NA,NA,NA,NA,1130,86982,88112,"[""stimuli/HF09_CC.jpg"",""stimuli/AF10_SUR.jpg"",""stimuli/HM07_HO.jpg"",""stimuli/BF04_AO.jpg""]",stimuli/HF09_CC.jpg,stimuli/AF10_SUR.jpg,stimuli/HM07_HO.jpg,stimuli/BF04_AO.jpg,pos3,stimuli/HM07_HO.jpg,HO,HM07,2,4,8,8,stimuli/stars_8.png,45,"[""CC"",""SUR"",""HO"",""AO""]","[""HF09"",""AF10"",""HM07"",""BF04""]","[6,1,8,6]","[6,2,8,4]",NA,NA,NA,/Users/martinzettersten/GitHub/emogo/data-analysis/data/pilot-v1/raw/emogo-v1_PARTICIPANT_SESSION_2022-08-23_12h09.43.369.csv,206
show-reward,37,89287,0.0-37.0,p333790,emogo,test_session,model,match,uniform,NA,NA,NA,NA,NA,NA,NA,88614,90620,NA,NA,NA,NA,NA,NA,NA,NA,NA,NA,NA,8,NA,stimuli/stars_8.png,45,NA,NA,NA,NA,stimuli/HM07_HO.jpg,NA,NA,/Users/martinzettersten/GitHub/emogo/data-analysis/data/pilot-v1/raw/emogo-v1_PARTICIPANT_SESSION_2022-08-23_12h09.43.369.csv,206
explore-choice,38,91067,0.0-38.0,p333790,emogo,test_session,model,match,uniform,NA,NA,NA,NA,NA,NA,1279,90621,91900,"[""stimuli/AF10_AO.jpg"",""stimuli/HM07_SUR.jpg"",""stimuli/HF09_CC.jpg"",""stimuli/BF04_HO.jpg""]",stimuli/AF10_AO.jpg,stimuli/HM07_SUR.jpg,stimuli/HF09_CC.jpg,stimuli/BF04_HO.jpg,pos3,stimuli/HF09_CC.jpg,CC,HF09,2,3.5,7,6,stimuli/stars_7.png,48.5,"[""AO"",""SUR"",""CC"",""HO""]","[""AF10"",""HM07"",""HF09"",""BF04""]","[2,7,7,5]","[2,8,6,4]",NA,NA,NA,/Users/martinzettersten/GitHub/emogo/data-analysis/data/pilot-v1/raw/emogo-v1_PARTICIPANT_SESSION_2022-08-23_12h09.43.369.csv,206
show-reward,39,93069,0.0-39.0,p333790,emogo,test_session,model,match,uniform,NA,NA,NA,NA,NA,NA,NA,92402,94403,NA,NA,NA,NA,NA,NA,NA,NA,NA,NA,NA,7,NA,stimuli/stars_7.png,48.5,NA,NA,NA,NA,stimuli/HF09_CC.jpg,NA,NA,/Users/martinzettersten/GitHub/emogo/data-analysis/data/pilot-v1/raw/emogo-v1_PARTICIPANT_SESSION_2022-08-23_12h09.43.369.csv,206
explore-choice,40,94789,0.0-40.0,p333790,emogo,test_session,model,match,uniform,NA,NA,NA,NA,NA,NA,1218,94403,95621,"[""stimuli/HM07_AO.jpg"",""stimuli/HF09_SUR.jpg"",""stimuli/BF04_CC.jpg"",""stimuli/AF10_HO.jpg""]",stimuli/HM07_AO.jpg,stimuli/HF09_SUR.jpg,stimuli/BF04_CC.jpg,stimuli/AF10_HO.jpg,pos1,stimuli/HM07_AO.jpg,AO,HM07,0,4,8,8,stimuli/stars_8.png,52.5,"[""AO"",""SUR"",""CC"",""HO""]","[""HM07"",""HF09"",""BF04"",""AF10""]","[8,4,3,3]","[8,6,4,2]",NA,NA,NA,/Users/martinzettersten/GitHub/emogo/data-analysis/data/pilot-v1/raw/emogo-v1_PARTICIPANT_SESSION_2022-08-23_12h09.43.369.csv,206
show-reward,41,96792,0.0-41.0,p333790,emogo,test_session,model,match,uniform,NA,NA,NA,NA,NA,NA,NA,96124,98125,NA,NA,NA,NA,NA,NA,NA,NA,NA,NA,NA,8,NA,stimuli/stars_8.png,52.5,NA,NA,NA,NA,stimuli/HM07_AO.jpg,NA,NA,/Users/martinzettersten/GitHub/emogo/data-analysis/data/pilot-v1/raw/emogo-v1_PARTICIPANT_SESSION_2022-08-23_12h09.43.369.csv,206
explore-choice,42,98333,0.0-42.0,p333790,emogo,test_session,model,match,uniform,NA,NA,NA,NA,NA,NA,1037,98126,99163,"[""stimuli/HM07_HO.jpg"",""stimuli/BF04_SUR.jpg"",""stimuli/HF09_AO.jpg"",""stimuli/AF10_CC.jpg""]",stimuli/HM07_HO.jpg,stimuli/BF04_SUR.jpg,stimuli/HF09_AO.jpg,stimuli/AF10_CC.jpg,pos2,stimuli/BF04_SUR.jpg,SUR,BF04,1,2,4,4,stimuli/stars_4.png,54.5,"[""HO"",""SUR"",""AO"",""CC""]","[""HM07"",""BF04"",""HF09"",""AF10""]","[7,4,6,2]","[8,4,6,2]",NA,NA,NA,/Users/martinzettersten/GitHub/emogo/data-analysis/data/pilot-v1/raw/emogo-v1_PARTICIPANT_SESSION_2022-08-23_12h09.43.369.csv,206
show-reward,43,100336,0.0-43.0,p333790,emogo,test_session,model,match,uniform,NA,NA,NA,NA,NA,NA,NA,99667,101669,NA,NA,NA,NA,NA,NA,NA,NA,NA,NA,NA,4,NA,stimuli/stars_4.png,54.5,NA,NA,NA,NA,stimuli/BF04_SUR.jpg,NA,NA,/Users/martinzettersten/GitHub/emogo/data-analysis/data/pilot-v1/raw/emogo-v1_PARTICIPANT_SESSION_2022-08-23_12h09.43.369.csv,206
explore-choice,44,102264,0.0-44.0,p333790,emogo,test_session,model,match,uniform,NA,NA,NA,NA,NA,NA,1426,101670,103096,"[""stimuli/BF04_SUR.jpg"",""stimuli/HF09_HO.jpg"",""stimuli/HM07_AO.jpg"",""stimuli/AF10_CC.jpg""]",stimuli/BF04_SUR.jpg,stimuli/HF09_HO.jpg,stimuli/HM07_AO.jpg,stimuli/AF10_CC.jpg,pos3,stimuli/HM07_AO.jpg,AO,HM07,2,4,8,8,stimuli/stars_8.png,58.5,"[""SUR"",""HO"",""AO"",""CC""]","[""BF04"",""HF09"",""HM07"",""AF10""]","[6,6,8,3]","[4,6,8,2]",NA,NA,NA,/Users/martinzettersten/GitHub/emogo/data-analysis/data/pilot-v1/raw/emogo-v1_PARTICIPANT_SESSION_2022-08-23_12h09.43.369.csv,206
show-reward,45,104270,0.0-45.0,p333790,emogo,test_session,model,match,uniform,NA,NA,NA,NA,NA,NA,NA,103599,105603,NA,NA,NA,NA,NA,NA,NA,NA,NA,NA,NA,8,NA,stimuli/stars_8.png,58.5,NA,NA,NA,NA,stimuli/HM07_AO.jpg,NA,NA,/Users/martinzettersten/GitHub/emogo/data-analysis/data/pilot-v1/raw/emogo-v1_PARTICIPANT_SESSION_2022-08-23_12h09.43.369.csv,206
explore-choice,46,106221,0.0-46.0,p333790,emogo,test_session,model,match,uniform,NA,NA,NA,NA,NA,NA,1449,105604,107053,"[""stimuli/AF10_SUR.jpg"",""stimuli/HF09_AO.jpg"",""stimuli/BF04_HO.jpg"",""stimuli/HM07_CC.jpg""]",stimuli/AF10_SUR.jpg,stimuli/HF09_AO.jpg,stimuli/BF04_HO.jpg,stimuli/HM07_CC.jpg,pos4,stimuli/HM07_CC.jpg,CC,HM07,3,3.5,7,8,stimuli/stars_7.png,62,"[""SUR"",""AO"",""HO"",""CC""]","[""AF10"",""HF09"",""BF04"",""HM07""]","[3,4,2,7]","[2,6,4,8]",NA,NA,NA,/Users/martinzettersten/GitHub/emogo/data-analysis/data/pilot-v1/raw/emogo-v1_PARTICIPANT_SESSION_2022-08-23_12h09.43.369.csv,206
show-reward,47,108226,0.0-47.0,p333790,emogo,test_session,model,match,uniform,NA,NA,NA,NA,NA,NA,NA,107557,109560,NA,NA,NA,NA,NA,NA,NA,NA,NA,NA,NA,7,NA,stimuli/stars_7.png,62,NA,NA,NA,NA,stimuli/HM07_CC.jpg,NA,NA,/Users/martinzettersten/GitHub/emogo/data-analysis/data/pilot-v1/raw/emogo-v1_PARTICIPANT_SESSION_2022-08-23_12h09.43.369.csv,206
explore-choice,48,109457,0.0-48.0,p333790,emogo,test_session,model,match,uniform,NA,NA,NA,NA,NA,NA,729,109561,110290,"[""stimuli/AF10_AO.jpg"",""stimuli/HF09_CC.jpg"",""stimuli/BF04_SUR.jpg"",""stimuli/HM07_HO.jpg""]",stimuli/AF10_AO.jpg,stimuli/HF09_CC.jpg,stimuli/BF04_SUR.jpg,stimuli/HM07_HO.jpg,pos4,stimuli/HM07_HO.jpg,HO,HM07,3,3.5,7,8,stimuli/stars_7.png,65.5,"[""AO"",""CC"",""SUR"",""HO""]","[""AF10"",""HF09"",""BF04"",""HM07""]","[1,6,6,7]","[2,6,4,8]",NA,NA,NA,/Users/martinzettersten/GitHub/emogo/data-analysis/data/pilot-v1/raw/emogo-v1_PARTICIPANT_SESSION_2022-08-23_12h09.43.369.csv,206
show-reward,49,111459,0.0-49.0,p333790,emogo,test_session,model,match,uniform,NA,NA,NA,NA,NA,NA,NA,110791,112793,NA,NA,NA,NA,NA,NA,NA,NA,NA,NA,NA,7,NA,stimuli/stars_7.png,65.5,NA,NA,NA,NA,stimuli/HM07_HO.jpg,NA,NA,/Users/martinzettersten/GitHub/emogo/data-analysis/data/pilot-v1/raw/emogo-v1_PARTICIPANT_SESSION_2022-08-23_12h09.43.369.csv,206
explore-choice,50,113102,0.0-50.0,p333790,emogo,test_session,model,match,uniform,NA,NA,NA,NA,NA,NA,1141,112793,113934,"[""stimuli/AF10_AO.jpg"",""stimuli/HF09_SUR.jpg"",""stimuli/HM07_CC.jpg"",""stimuli/BF04_HO.jpg""]",stimuli/AF10_AO.jpg,stimuli/HF09_SUR.jpg,stimuli/HM07_CC.jpg,stimuli/BF04_HO.jpg,pos2,stimuli/HF09_SUR.jpg,SUR,HF09,1,2,4,6,stimuli/stars_4.png,67.5,"[""AO"",""SUR"",""CC"",""HO""]","[""AF10"",""HF09"",""HM07"",""BF04""]","[4,4,7,2]","[2,6,8,4]",NA,NA,NA,/Users/martinzettersten/GitHub/emogo/data-analysis/data/pilot-v1/raw/emogo-v1_PARTICIPANT_SESSION_2022-08-23_12h09.43.369.csv,206
show-reward,51,115107,0.0-51.0,p333790,emogo,test_session,model,match,uniform,NA,NA,NA,NA,NA,NA,NA,114436,116440,NA,NA,NA,NA,NA,NA,NA,NA,NA,NA,NA,4,NA,stimuli/stars_4.png,67.5,NA,NA,NA,NA,stimuli/HF09_SUR.jpg,NA,NA,/Users/martinzettersten/GitHub/emogo/data-analysis/data/pilot-v1/raw/emogo-v1_PARTICIPANT_SESSION_2022-08-23_12h09.43.369.csv,206
explore-choice,52,118489,0.0-52.0,p333790,emogo,test_session,model,match,uniform,NA,NA,NA,NA,NA,NA,2880,116441,119321,"[""stimuli/HM07_SUR.jpg"",""stimuli/AF10_CC.jpg"",""stimuli/HF09_AO.jpg"",""stimuli/BF04_HO.jpg""]",stimuli/HM07_SUR.jpg,stimuli/AF10_CC.jpg,stimuli/HF09_AO.jpg,stimuli/BF04_HO.jpg,pos1,stimuli/HM07_SUR.jpg,SUR,HM07,0,3,6,8,stimuli/stars_6.png,70.5,"[""SUR"",""CC"",""AO"",""HO""]","[""HM07"",""AF10"",""HF09"",""BF04""]","[6,0,8,5]","[8,2,6,4]",NA,NA,NA,/Users/martinzettersten/GitHub/emogo/data-analysis/data/pilot-v1/raw/emogo-v1_PARTICIPANT_SESSION_2022-08-23_12h09.43.369.csv,206
show-reward,53,120494,0.0-53.0,p333790,emogo,test_session,model,match,uniform,NA,NA,NA,NA,NA,NA,NA,119823,121827,NA,NA,NA,NA,NA,NA,NA,NA,NA,NA,NA,6,NA,stimuli/stars_6.png,70.5,NA,NA,NA,NA,stimuli/HM07_SUR.jpg,NA,NA,/Users/martinzettersten/GitHub/emogo/data-analysis/data/pilot-v1/raw/emogo-v1_PARTICIPANT_SESSION_2022-08-23_12h09.43.369.csv,206
explore-choice,54,121808,0.0-54.0,p333790,emogo,test_session,model,match,uniform,NA,NA,NA,NA,NA,NA,810,121828,122638,"[""stimuli/HM07_CC.jpg"",""stimuli/BF04_SUR.jpg"",""stimuli/HF09_HO.jpg"",""stimuli/AF10_AO.jpg""]",stimuli/HM07_CC.jpg,stimuli/BF04_SUR.jpg,stimuli/HF09_HO.jpg,stimuli/AF10_AO.jpg,pos1,stimuli/HM07_CC.jpg,CC,HM07,0,4.5,9,8,stimuli/stars_9.png,75,"[""CC"",""SUR"",""HO"",""AO""]","[""HM07"",""BF04"",""HF09"",""AF10""]","[9,4,5,1]","[8,4,6,2]",NA,NA,NA,/Users/martinzettersten/GitHub/emogo/data-analysis/data/pilot-v1/raw/emogo-v1_PARTICIPANT_SESSION_2022-08-23_12h09.43.369.csv,206
show-reward,55,123811,0.0-55.0,p333790,emogo,test_session,model,match,uniform,NA,NA,NA,NA,NA,NA,NA,123143,125145,NA,NA,NA,NA,NA,NA,NA,NA,NA,NA,NA,9,NA,stimuli/stars_9.png,75,NA,NA,NA,NA,stimuli/HM07_CC.jpg,NA,NA,/Users/martinzettersten/GitHub/emogo/data-analysis/data/pilot-v1/raw/emogo-v1_PARTICIPANT_SESSION_2022-08-23_12h09.43.369.csv,206
explore-choice,56,125291,0.0-56.0,p333790,emogo,test_session,model,match,uniform,NA,NA,NA,NA,NA,NA,977,125146,126123,"[""stimuli/BF04_CC.jpg"",""stimuli/HM07_SUR.jpg"",""stimuli/AF10_HO.jpg"",""stimuli/HF09_AO.jpg""]",stimuli/BF04_CC.jpg,stimuli/HM07_SUR.jpg,stimuli/AF10_HO.jpg,stimuli/HF09_AO.jpg,pos2,stimuli/HM07_SUR.jpg,SUR,HM07,1,5,10,8,stimuli/stars_10.png,80,"[""CC"",""SUR"",""HO"",""AO""]","[""BF04"",""HM07"",""AF10"",""HF09""]","[5,10,2,6]","[4,8,2,6]",NA,NA,NA,/Users/martinzettersten/GitHub/emogo/data-analysis/data/pilot-v1/raw/emogo-v1_PARTICIPANT_SESSION_2022-08-23_12h09.43.369.csv,206
show-reward,57,127294,0.0-57.0,p333790,emogo,test_session,model,match,uniform,NA,NA,NA,NA,NA,NA,NA,126626,128627,NA,NA,NA,NA,NA,NA,NA,NA,NA,NA,NA,10,NA,stimuli/stars_10.png,80,NA,NA,NA,NA,stimuli/HM07_SUR.jpg,NA,NA,/Users/martinzettersten/GitHub/emogo/data-analysis/data/pilot-v1/raw/emogo-v1_PARTICIPANT_SESSION_2022-08-23_12h09.43.369.csv,206
explore-choice,58,129597,0.0-58.0,p333790,emogo,test_session,model,match,uniform,NA,NA,NA,NA,NA,NA,1801,128628,130429,"[""stimuli/HM07_CC.jpg"",""stimuli/AF10_AO.jpg"",""stimuli/HF09_SUR.jpg"",""stimuli/BF04_HO.jpg""]",stimuli/HM07_CC.jpg,stimuli/AF10_AO.jpg,stimuli/HF09_SUR.jpg,stimuli/BF04_HO.jpg,pos1,stimuli/HM07_CC.jpg,CC,HM07,0,3.5,7,8,stimuli/stars_7.png,83.5,"[""CC"",""AO"",""SUR"",""HO""]","[""HM07"",""AF10"",""HF09"",""BF04""]","[7,4,4,2]","[8,2,6,4]",NA,NA,NA,/Users/martinzettersten/GitHub/emogo/data-analysis/data/pilot-v1/raw/emogo-v1_PARTICIPANT_SESSION_2022-08-23_12h09.43.369.csv,206
show-reward,59,131599,0.0-59.0,p333790,emogo,test_session,model,match,uniform,NA,NA,NA,NA,NA,NA,NA,130932,132933,NA,NA,NA,NA,NA,NA,NA,NA,NA,NA,NA,7,NA,stimuli/stars_7.png,83.5,NA,NA,NA,NA,stimuli/HM07_CC.jpg,NA,NA,/Users/martinzettersten/GitHub/emogo/data-analysis/data/pilot-v1/raw/emogo-v1_PARTICIPANT_SESSION_2022-08-23_12h09.43.369.csv,206
explore-choice,60,133016,0.0-60.0,p333790,emogo,test_session,model,match,uniform,NA,NA,NA,NA,NA,NA,916,132934,133850,"[""stimuli/HF09_AO.jpg"",""stimuli/HM07_HO.jpg"",""stimuli/AF10_SUR.jpg"",""stimuli/BF04_CC.jpg""]",stimuli/HF09_AO.jpg,stimuli/HM07_HO.jpg,stimuli/AF10_SUR.jpg,stimuli/BF04_CC.jpg,pos2,stimuli/HM07_HO.jpg,HO,HM07,1,3,6,8,stimuli/stars_6.png,86.5,"[""AO"",""HO"",""SUR"",""CC""]","[""HF09"",""HM07"",""AF10"",""BF04""]","[6,6,1,4]","[6,8,2,4]",NA,NA,NA,/Users/martinzettersten/GitHub/emogo/data-analysis/data/pilot-v1/raw/emogo-v1_PARTICIPANT_SESSION_2022-08-23_12h09.43.369.csv,206
show-reward,61,135019,0.0-61.0,p333790,emogo,test_session,model,match,uniform,NA,NA,NA,NA,NA,NA,NA,134351,136353,NA,NA,NA,NA,NA,NA,NA,NA,NA,NA,NA,6,NA,stimuli/stars_6.png,86.5,NA,NA,NA,NA,stimuli/HM07_HO.jpg,NA,NA,/Users/martinzettersten/GitHub/emogo/data-analysis/data/pilot-v1/raw/emogo-v1_PARTICIPANT_SESSION_2022-08-23_12h09.43.369.csv,206
explore-choice,62,136568,0.0-62.0,p333790,emogo,test_session,model,match,uniform,NA,NA,NA,NA,NA,NA,1047,136353,137400,"[""stimuli/BF04_AO.jpg"",""stimuli/HF09_SUR.jpg"",""stimuli/AF10_HO.jpg"",""stimuli/HM07_CC.jpg""]",stimuli/BF04_AO.jpg,stimuli/HF09_SUR.jpg,stimuli/AF10_HO.jpg,stimuli/HM07_CC.jpg,pos4,stimuli/HM07_CC.jpg,CC,HM07,3,3,6,8,stimuli/stars_6.png,89.5,"[""AO"",""SUR"",""HO"",""CC""]","[""BF04"",""HF09"",""AF10"",""HM07""]","[3,6,3,6]","[4,6,2,8]",NA,NA,NA,/Users/martinzettersten/GitHub/emogo/data-analysis/data/pilot-v1/raw/emogo-v1_PARTICIPANT_SESSION_2022-08-23_12h09.43.369.csv,206
show-reward,63,138573,0.0-63.0,p333790,emogo,test_session,model,match,uniform,NA,NA,NA,NA,NA,NA,NA,137903,139907,NA,NA,NA,NA,NA,NA,NA,NA,NA,NA,NA,6,NA,stimuli/stars_6.png,89.5,NA,NA,NA,NA,stimuli/HM07_CC.jpg,NA,NA,/Users/martinzettersten/GitHub/emogo/data-analysis/data/pilot-v1/raw/emogo-v1_PARTICIPANT_SESSION_2022-08-23_12h09.43.369.csv,206
explore-choice,64,140035,0.0-64.0,p333790,emogo,test_session,model,match,uniform,NA,NA,NA,NA,NA,NA,960,139908,140868,"[""stimuli/HM07_SUR.jpg"",""stimuli/BF04_HO.jpg"",""stimuli/AF10_CC.jpg"",""stimuli/HF09_AO.jpg""]",stimuli/HM07_SUR.jpg,stimuli/BF04_HO.jpg,stimuli/AF10_CC.jpg,stimuli/HF09_AO.jpg,pos1,stimuli/HM07_SUR.jpg,SUR,HM07,0,3,6,8,stimuli/stars_6.png,92.5,"[""SUR"",""HO"",""CC"",""AO""]","[""HM07"",""BF04"",""AF10"",""HF09""]","[6,5,0,8]","[8,4,2,6]",NA,NA,NA,/Users/martinzettersten/GitHub/emogo/data-analysis/data/pilot-v1/raw/emogo-v1_PARTICIPANT_SESSION_2022-08-23_12h09.43.369.csv,206
show-reward,65,142037,0.0-65.0,p333790,emogo,test_session,model,match,uniform,NA,NA,NA,NA,NA,NA,NA,141369,143371,NA,NA,NA,NA,NA,NA,NA,NA,NA,NA,NA,6,NA,stimuli/stars_6.png,92.5,NA,NA,NA,NA,stimuli/HM07_SUR.jpg,NA,NA,/Users/martinzettersten/GitHub/emogo/data-analysis/data/pilot-v1/raw/emogo-v1_PARTICIPANT_SESSION_2022-08-23_12h09.43.369.csv,206
explore-choice,66,143754,0.0-66.0,p333790,emogo,test_session,model,match,uniform,NA,NA,NA,NA,NA,NA,1214,143372,144586,"[""stimuli/HF09_SUR.jpg"",""stimuli/AF10_CC.jpg"",""stimuli/HM07_AO.jpg"",""stimuli/BF04_HO.jpg""]",stimuli/HF09_SUR.jpg,stimuli/AF10_CC.jpg,stimuli/HM07_AO.jpg,stimuli/BF04_HO.jpg,pos3,stimuli/HM07_AO.jpg,AO,HM07,2,4.5,9,8,stimuli/stars_9.png,97,"[""SUR"",""CC"",""AO"",""HO""]","[""HF09"",""AF10"",""HM07"",""BF04""]","[7,3,9,5]","[6,2,8,4]",NA,NA,NA,/Users/martinzettersten/GitHub/emogo/data-analysis/data/pilot-v1/raw/emogo-v1_PARTICIPANT_SESSION_2022-08-23_12h09.43.369.csv,206
show-reward,67,145758,0.0-67.0,p333790,emogo,test_session,model,match,uniform,NA,NA,NA,NA,NA,NA,NA,145089,147092,NA,NA,NA,NA,NA,NA,NA,NA,NA,NA,NA,9,NA,stimuli/stars_9.png,97,NA,NA,NA,NA,stimuli/HM07_AO.jpg,NA,NA,/Users/martinzettersten/GitHub/emogo/data-analysis/data/pilot-v1/raw/emogo-v1_PARTICIPANT_SESSION_2022-08-23_12h09.43.369.csv,206
explore-choice,68,147142,0.0-68.0,p333790,emogo,test_session,model,match,uniform,NA,NA,NA,NA,NA,NA,881,147092,147973,"[""stimuli/BF04_AO.jpg"",""stimuli/HM07_CC.jpg"",""stimuli/AF10_SUR.jpg"",""stimuli/HF09_HO.jpg""]",stimuli/BF04_AO.jpg,stimuli/HM07_CC.jpg,stimuli/AF10_SUR.jpg,stimuli/HF09_HO.jpg,pos2,stimuli/HM07_CC.jpg,CC,HM07,1,5,10,8,stimuli/stars_10.png,102,"[""AO"",""CC"",""SUR"",""HO""]","[""BF04"",""HM07"",""AF10"",""HF09""]","[2,10,4,6]","[4,8,2,6]",NA,NA,NA,/Users/martinzettersten/GitHub/emogo/data-analysis/data/pilot-v1/raw/emogo-v1_PARTICIPANT_SESSION_2022-08-23_12h09.43.369.csv,206
show-reward,69,149144,0.0-69.0,p333790,emogo,test_session,model,match,uniform,NA,NA,NA,NA,NA,NA,NA,148477,150478,NA,NA,NA,NA,NA,NA,NA,NA,NA,NA,NA,10,NA,stimuli/stars_10.png,102,NA,NA,NA,NA,stimuli/HM07_CC.jpg,NA,NA,/Users/martinzettersten/GitHub/emogo/data-analysis/data/pilot-v1/raw/emogo-v1_PARTICIPANT_SESSION_2022-08-23_12h09.43.369.csv,206
explore-choice,70,150712,0.0-70.0,p333790,emogo,test_session,model,match,uniform,NA,NA,NA,NA,NA,NA,1062,150479,151541,"[""stimuli/HM07_SUR.jpg"",""stimuli/HF09_CC.jpg"",""stimuli/AF10_AO.jpg"",""stimuli/BF04_HO.jpg""]",stimuli/HM07_SUR.jpg,stimuli/HF09_CC.jpg,stimuli/AF10_AO.jpg,stimuli/BF04_HO.jpg,pos1,stimuli/HM07_SUR.jpg,SUR,HM07,0,3.5,7,8,stimuli/stars_7.png,105.5,"[""SUR"",""CC"",""AO"",""HO""]","[""HM07"",""HF09"",""AF10"",""BF04""]","[7,7,2,5]","[8,6,2,4]",NA,NA,NA,/Users/martinzettersten/GitHub/emogo/data-analysis/data/pilot-v1/raw/emogo-v1_PARTICIPANT_SESSION_2022-08-23_12h09.43.369.csv,206
show-reward,71,152719,0.0-71.0,p333790,emogo,test_session,model,match,uniform,NA,NA,NA,NA,NA,NA,NA,152047,154053,NA,NA,NA,NA,NA,NA,NA,NA,NA,NA,NA,7,NA,stimuli/stars_7.png,105.5,NA,NA,NA,NA,stimuli/HM07_SUR.jpg,NA,NA,/Users/martinzettersten/GitHub/emogo/data-analysis/data/pilot-v1/raw/emogo-v1_PARTICIPANT_SESSION_2022-08-23_12h09.43.369.csv,206
explore-choice,72,154376,0.0-72.0,p333790,emogo,test_session,model,match,uniform,NA,NA,NA,NA,NA,NA,1156,154054,155210,"[""stimuli/HF09_AO.jpg"",""stimuli/HM07_CC.jpg"",""stimuli/BF04_HO.jpg"",""stimuli/AF10_SUR.jpg""]",stimuli/HF09_AO.jpg,stimuli/HM07_CC.jpg,stimuli/BF04_HO.jpg,stimuli/AF10_SUR.jpg,pos2,stimuli/HM07_CC.jpg,CC,HM07,1,3.5,7,8,stimuli/stars_7.png,109,"[""AO"",""CC"",""HO"",""SUR""]","[""HF09"",""HM07"",""BF04"",""AF10""]","[4,7,2,3]","[6,8,4,2]",NA,NA,NA,/Users/martinzettersten/GitHub/emogo/data-analysis/data/pilot-v1/raw/emogo-v1_PARTICIPANT_SESSION_2022-08-23_12h09.43.369.csv,206
show-reward,73,156379,0.0-73.0,p333790,emogo,test_session,model,match,uniform,NA,NA,NA,NA,NA,NA,NA,155711,157713,NA,NA,NA,NA,NA,NA,NA,NA,NA,NA,NA,7,NA,stimuli/stars_7.png,109,NA,NA,NA,NA,stimuli/HM07_CC.jpg,NA,NA,/Users/martinzettersten/GitHub/emogo/data-analysis/data/pilot-v1/raw/emogo-v1_PARTICIPANT_SESSION_2022-08-23_12h09.43.369.csv,206
explore-choice,74,157785,0.0-74.0,p333790,emogo,test_session,model,match,uniform,NA,NA,NA,NA,NA,NA,902,157713,158615,"[""stimuli/HF09_CC.jpg"",""stimuli/HM07_AO.jpg"",""stimuli/BF04_HO.jpg"",""stimuli/AF10_SUR.jpg""]",stimuli/HF09_CC.jpg,stimuli/HM07_AO.jpg,stimuli/BF04_HO.jpg,stimuli/AF10_SUR.jpg,pos2,stimuli/HM07_AO.jpg,AO,HM07,1,3,6,8,stimuli/stars_6.png,112,"[""CC"",""AO"",""HO"",""SUR""]","[""HF09"",""HM07"",""BF04"",""AF10""]","[6,6,6,1]","[6,8,4,2]",NA,NA,NA,/Users/martinzettersten/GitHub/emogo/data-analysis/data/pilot-v1/raw/emogo-v1_PARTICIPANT_SESSION_2022-08-23_12h09.43.369.csv,206
show-reward,75,159787,0.0-75.0,p333790,emogo,test_session,model,match,uniform,NA,NA,NA,NA,NA,NA,NA,159120,161121,NA,NA,NA,NA,NA,NA,NA,NA,NA,NA,NA,6,NA,stimuli/stars_6.png,112,NA,NA,NA,NA,stimuli/HM07_AO.jpg,NA,NA,/Users/martinzettersten/GitHub/emogo/data-analysis/data/pilot-v1/raw/emogo-v1_PARTICIPANT_SESSION_2022-08-23_12h09.43.369.csv,206
explore-choice,76,161560,0.0-76.0,p333790,emogo,test_session,model,match,uniform,NA,NA,NA,NA,NA,NA,1269,161121,162390,"[""stimuli/AF10_HO.jpg"",""stimuli/BF04_SUR.jpg"",""stimuli/HF09_AO.jpg"",""stimuli/HM07_CC.jpg""]",stimuli/AF10_HO.jpg,stimuli/BF04_SUR.jpg,stimuli/HF09_AO.jpg,stimuli/HM07_CC.jpg,pos4,stimuli/HM07_CC.jpg,CC,HM07,3,3,6,8,stimuli/stars_6.png,115,"[""HO"",""SUR"",""AO"",""CC""]","[""AF10"",""BF04"",""HF09"",""HM07""]","[1,2,5,6]","[2,4,6,8]",NA,NA,NA,/Users/martinzettersten/GitHub/emogo/data-analysis/data/pilot-v1/raw/emogo-v1_PARTICIPANT_SESSION_2022-08-23_12h09.43.369.csv,206
show-reward,77,163566,0.0-77.0,p333790,emogo,test_session,model,match,uniform,NA,NA,NA,NA,NA,NA,NA,162895,164900,NA,NA,NA,NA,NA,NA,NA,NA,NA,NA,NA,6,NA,stimuli/stars_6.png,115,NA,NA,NA,NA,stimuli/HM07_CC.jpg,NA,NA,/Users/martinzettersten/GitHub/emogo/data-analysis/data/pilot-v1/raw/emogo-v1_PARTICIPANT_SESSION_2022-08-23_12h09.43.369.csv,206
explore-choice,78,165270,0.0-78.0,p333790,emogo,test_session,model,match,uniform,NA,NA,NA,NA,NA,NA,1203,164901,166104,"[""stimuli/HM07_AO.jpg"",""stimuli/HF09_CC.jpg"",""stimuli/BF04_SUR.jpg"",""stimuli/AF10_HO.jpg""]",stimuli/HM07_AO.jpg,stimuli/HF09_CC.jpg,stimuli/BF04_SUR.jpg,stimuli/AF10_HO.jpg,pos1,stimuli/HM07_AO.jpg,AO,HM07,0,5,10,8,stimuli/stars_10.png,120,"[""AO"",""CC"",""SUR"",""HO""]","[""HM07"",""HF09"",""BF04"",""AF10""]","[10,5,6,3]","[8,6,4,2]",NA,NA,NA,/Users/martinzettersten/GitHub/emogo/data-analysis/data/pilot-v1/raw/emogo-v1_PARTICIPANT_SESSION_2022-08-23_12h09.43.369.csv,206
show-reward,79,167273,0.0-79.0,p333790,emogo,test_session,model,match,uniform,NA,NA,NA,NA,NA,NA,NA,166604,168607,NA,NA,NA,NA,NA,NA,NA,NA,NA,NA,NA,10,NA,stimuli/stars_10.png,120,NA,NA,NA,NA,stimuli/HM07_AO.jpg,NA,NA,/Users/martinzettersten/GitHub/emogo/data-analysis/data/pilot-v1/raw/emogo-v1_PARTICIPANT_SESSION_2022-08-23_12h09.43.369.csv,206
explore-choice,80,168862,0.0-80.0,p333790,emogo,test_session,model,match,uniform,NA,NA,NA,NA,NA,NA,1089,168607,169696,"[""stimuli/HM07_HO.jpg"",""stimuli/BF04_AO.jpg"",""stimuli/AF10_SUR.jpg"",""stimuli/HF09_CC.jpg""]",stimuli/HM07_HO.jpg,stimuli/BF04_AO.jpg,stimuli/AF10_SUR.jpg,stimuli/HF09_CC.jpg,pos1,stimuli/HM07_HO.jpg,HO,HM07,0,4,8,8,stimuli/stars_8.png,124,"[""HO"",""AO"",""SUR"",""CC""]","[""HM07"",""BF04"",""AF10"",""HF09""]","[8,6,1,6]","[8,4,2,6]",NA,NA,NA,/Users/martinzettersten/GitHub/emogo/data-analysis/data/pilot-v1/raw/emogo-v1_PARTICIPANT_SESSION_2022-08-23_12h09.43.369.csv,206
show-reward,81,170864,0.0-81.0,p333790,emogo,test_session,model,match,uniform,NA,NA,NA,NA,NA,NA,NA,170197,172199,NA,NA,NA,NA,NA,NA,NA,NA,NA,NA,NA,8,NA,stimuli/stars_8.png,124,NA,NA,NA,NA,stimuli/HM07_HO.jpg,NA,NA,/Users/martinzettersten/GitHub/emogo/data-analysis/data/pilot-v1/raw/emogo-v1_PARTICIPANT_SESSION_2022-08-23_12h09.43.369.csv,206
explore-choice,82,172844,0.0-82.0,p333790,emogo,test_session,model,match,uniform,NA,NA,NA,NA,NA,NA,1477,172199,173676,"[""stimuli/HF09_CC.jpg"",""stimuli/AF10_HO.jpg"",""stimuli/BF04_AO.jpg"",""stimuli/HM07_SUR.jpg""]",stimuli/HF09_CC.jpg,stimuli/AF10_HO.jpg,stimuli/BF04_AO.jpg,stimuli/HM07_SUR.jpg,pos4,stimuli/HM07_SUR.jpg,SUR,HM07,3,3,6,8,stimuli/stars_6.png,127,"[""CC"",""HO"",""AO"",""SUR""]","[""HF09"",""AF10"",""BF04"",""HM07""]","[4,3,3,6]","[6,2,4,8]",NA,NA,NA,/Users/martinzettersten/GitHub/emogo/data-analysis/data/pilot-v1/raw/emogo-v1_PARTICIPANT_SESSION_2022-08-23_12h09.43.369.csv,206
show-reward,83,174845,0.0-83.0,p333790,emogo,test_session,model,match,uniform,NA,NA,NA,NA,NA,NA,NA,174179,176180,NA,NA,NA,NA,NA,NA,NA,NA,NA,NA,NA,6,NA,stimuli/stars_6.png,127,NA,NA,NA,NA,stimuli/HM07_SUR.jpg,NA,NA,/Users/martinzettersten/GitHub/emogo/data-analysis/data/pilot-v1/raw/emogo-v1_PARTICIPANT_SESSION_2022-08-23_12h09.43.369.csv,206
explore-choice,84,176588,0.0-84.0,p333790,emogo,test_session,model,match,uniform,NA,NA,NA,NA,NA,NA,1242,176180,177422,"[""stimuli/AF10_CC.jpg"",""stimuli/BF04_AO.jpg"",""stimuli/HM07_HO.jpg"",""stimuli/HF09_SUR.jpg""]",stimuli/AF10_CC.jpg,stimuli/BF04_AO.jpg,stimuli/HM07_HO.jpg,stimuli/HF09_SUR.jpg,pos3,stimuli/HM07_HO.jpg,HO,HM07,2,4,8,8,stimuli/stars_8.png,131,"[""CC"",""AO"",""HO"",""SUR""]","[""AF10"",""BF04"",""HM07"",""HF09""]","[4,5,8,5]","[2,4,8,6]",NA,NA,NA,/Users/martinzettersten/GitHub/emogo/data-analysis/data/pilot-v1/raw/emogo-v1_PARTICIPANT_SESSION_2022-08-23_12h09.43.369.csv,206
show-reward,85,178590,0.0-85.0,p333790,emogo,test_session,model,match,uniform,NA,NA,NA,NA,NA,NA,NA,177922,179924,NA,NA,NA,NA,NA,NA,NA,NA,NA,NA,NA,8,NA,stimuli/stars_8.png,131,NA,NA,NA,NA,stimuli/HM07_HO.jpg,NA,NA,/Users/martinzettersten/GitHub/emogo/data-analysis/data/pilot-v1/raw/emogo-v1_PARTICIPANT_SESSION_2022-08-23_12h09.43.369.csv,206
explore-choice,86,180382,0.0-86.0,p333790,emogo,test_session,model,match,uniform,NA,NA,NA,NA,NA,NA,1290,179924,181214,"[""stimuli/AF10_SUR.jpg"",""stimuli/HM07_AO.jpg"",""stimuli/BF04_CC.jpg"",""stimuli/HF09_HO.jpg""]",stimuli/AF10_SUR.jpg,stimuli/HM07_AO.jpg,stimuli/BF04_CC.jpg,stimuli/HF09_HO.jpg,pos2,stimuli/HM07_AO.jpg,AO,HM07,1,4,8,8,stimuli/stars_8.png,135,"[""SUR"",""AO"",""CC"",""HO""]","[""AF10"",""HM07"",""BF04"",""HF09""]","[2,8,3,7]","[2,8,4,6]",NA,NA,NA,/Users/martinzettersten/GitHub/emogo/data-analysis/data/pilot-v1/raw/emogo-v1_PARTICIPANT_SESSION_2022-08-23_12h09.43.369.csv,206
show-reward,87,182387,0.0-87.0,p333790,emogo,test_session,model,match,uniform,NA,NA,NA,NA,NA,NA,NA,181717,183722,NA,NA,NA,NA,NA,NA,NA,NA,NA,NA,NA,8,NA,stimuli/stars_8.png,135,NA,NA,NA,NA,stimuli/HM07_AO.jpg,NA,NA,/Users/martinzettersten/GitHub/emogo/data-analysis/data/pilot-v1/raw/emogo-v1_PARTICIPANT_SESSION_2022-08-23_12h09.43.369.csv,206
explore-choice,88,183753,0.0-88.0,p333790,emogo,test_session,model,match,uniform,NA,NA,NA,NA,NA,NA,860,183722,184582,"[""stimuli/HM07_HO.jpg"",""stimuli/HF09_CC.jpg"",""stimuli/AF10_AO.jpg"",""stimuli/BF04_SUR.jpg""]",stimuli/HM07_HO.jpg,stimuli/HF09_CC.jpg,stimuli/AF10_AO.jpg,stimuli/BF04_SUR.jpg,pos1,stimuli/HM07_HO.jpg,HO,HM07,0,3.5,7,8,stimuli/stars_7.png,138.5,"[""HO"",""CC"",""AO"",""SUR""]","[""HM07"",""HF09"",""AF10"",""BF04""]","[7,6,1,6]","[8,6,2,4]",NA,NA,NA,/Users/martinzettersten/GitHub/emogo/data-analysis/data/pilot-v1/raw/emogo-v1_PARTICIPANT_SESSION_2022-08-23_12h09.43.369.csv,206
show-reward,89,185755,0.0-89.0,p333790,emogo,test_session,model,match,uniform,NA,NA,NA,NA,NA,NA,NA,185087,187090,NA,NA,NA,NA,NA,NA,NA,NA,NA,NA,NA,7,NA,stimuli/stars_7.png,138.5,NA,NA,NA,NA,stimuli/HM07_HO.jpg,NA,NA,/Users/martinzettersten/GitHub/emogo/data-analysis/data/pilot-v1/raw/emogo-v1_PARTICIPANT_SESSION_2022-08-23_12h09.43.369.csv,206
explore-choice,90,187081,0.0-90.0,p333790,emogo,test_session,model,match,uniform,NA,NA,NA,NA,NA,NA,822,187090,187912,"[""stimuli/HM07_HO.jpg"",""stimuli/HF09_AO.jpg"",""stimuli/AF10_CC.jpg"",""stimuli/BF04_SUR.jpg""]",stimuli/HM07_HO.jpg,stimuli/HF09_AO.jpg,stimuli/AF10_CC.jpg,stimuli/BF04_SUR.jpg,pos1,stimuli/HM07_HO.jpg,HO,HM07,0,3.5,7,8,stimuli/stars_7.png,142,"[""HO"",""AO"",""CC"",""SUR""]","[""HM07"",""HF09"",""AF10"",""BF04""]","[7,6,2,4]","[8,6,2,4]",NA,NA,NA,/Users/martinzettersten/GitHub/emogo/data-analysis/data/pilot-v1/raw/emogo-v1_PARTICIPANT_SESSION_2022-08-23_12h09.43.369.csv,206
show-reward,91,189086,0.0-91.0,p333790,emogo,test_session,model,match,uniform,NA,NA,NA,NA,NA,NA,NA,188416,190420,NA,NA,NA,NA,NA,NA,NA,NA,NA,NA,NA,7,NA,stimuli/stars_7.png,142,NA,NA,NA,NA,stimuli/HM07_HO.jpg,NA,NA,/Users/martinzettersten/GitHub/emogo/data-analysis/data/pilot-v1/raw/emogo-v1_PARTICIPANT_SESSION_2022-08-23_12h09.43.369.csv,206
explore-choice,92,190215,0.0-92.0,p333790,emogo,test_session,model,match,uniform,NA,NA,NA,NA,NA,NA,624,190420,191044,"[""stimuli/HM07_AO.jpg"",""stimuli/BF04_SUR.jpg"",""stimuli/HF09_HO.jpg"",""stimuli/AF10_CC.jpg""]",stimuli/HM07_AO.jpg,stimuli/BF04_SUR.jpg,stimuli/HF09_HO.jpg,stimuli/AF10_CC.jpg,pos1,stimuli/HM07_AO.jpg,AO,HM07,0,4,8,8,stimuli/stars_8.png,146,"[""AO"",""SUR"",""HO"",""CC""]","[""HM07"",""BF04"",""HF09"",""AF10""]","[8,6,6,3]","[8,4,6,2]",NA,NA,NA,/Users/martinzettersten/GitHub/emogo/data-analysis/data/pilot-v1/raw/emogo-v1_PARTICIPANT_SESSION_2022-08-23_12h09.43.369.csv,206
show-reward,93,192217,0.0-93.0,p333790,emogo,test_session,model,match,uniform,NA,NA,NA,NA,NA,NA,NA,191549,193551,NA,NA,NA,NA,NA,NA,NA,NA,NA,NA,NA,8,NA,stimuli/stars_8.png,146,NA,NA,NA,NA,stimuli/HM07_AO.jpg,NA,NA,/Users/martinzettersten/GitHub/emogo/data-analysis/data/pilot-v1/raw/emogo-v1_PARTICIPANT_SESSION_2022-08-23_12h09.43.369.csv,206
explore-choice,94,193337,0.0-94.0,p333790,emogo,test_session,model,match,uniform,NA,NA,NA,NA,NA,NA,619,193552,194171,"[""stimuli/HM07_HO.jpg"",""stimuli/BF04_CC.jpg"",""stimuli/HF09_SUR.jpg"",""stimuli/AF10_AO.jpg""]",stimuli/HM07_HO.jpg,stimuli/BF04_CC.jpg,stimuli/HF09_SUR.jpg,stimuli/AF10_AO.jpg,pos1,stimuli/HM07_HO.jpg,HO,HM07,0,4.5,9,8,stimuli/stars_9.png,150.5,"[""HO"",""CC"",""SUR"",""AO""]","[""HM07"",""BF04"",""HF09"",""AF10""]","[9,5,6,0]","[8,4,6,2]",NA,NA,NA,/Users/martinzettersten/GitHub/emogo/data-analysis/data/pilot-v1/raw/emogo-v1_PARTICIPANT_SESSION_2022-08-23_12h09.43.369.csv,206
show-reward,95,195342,0.0-95.0,p333790,emogo,test_session,model,match,uniform,NA,NA,NA,NA,NA,NA,NA,194671,196676,NA,NA,NA,NA,NA,NA,NA,NA,NA,NA,NA,9,NA,stimuli/stars_9.png,150.5,NA,NA,NA,NA,stimuli/HM07_HO.jpg,NA,NA,/Users/martinzettersten/GitHub/emogo/data-analysis/data/pilot-v1/raw/emogo-v1_PARTICIPANT_SESSION_2022-08-23_12h09.43.369.csv,206
explore-choice,96,197075,0.0-96.0,p333790,emogo,test_session,model,match,uniform,NA,NA,NA,NA,NA,NA,1228,196677,197905,"[""stimuli/HF09_SUR.jpg"",""stimuli/HM07_AO.jpg"",""stimuli/AF10_HO.jpg"",""stimuli/BF04_CC.jpg""]",stimuli/HF09_SUR.jpg,stimuli/HM07_AO.jpg,stimuli/AF10_HO.jpg,stimuli/BF04_CC.jpg,pos2,stimuli/HM07_AO.jpg,AO,HM07,1,4,8,8,stimuli/stars_8.png,154.5,"[""SUR"",""AO"",""HO"",""CC""]","[""HF09"",""HM07"",""AF10"",""BF04""]","[4,8,3,3]","[6,8,2,4]",NA,NA,NA,/Users/martinzettersten/GitHub/emogo/data-analysis/data/pilot-v1/raw/emogo-v1_PARTICIPANT_SESSION_2022-08-23_12h09.43.369.csv,206
show-reward,97,199081,0.0-97.0,p333790,emogo,test_session,model,match,uniform,NA,NA,NA,NA,NA,NA,NA,198410,200416,NA,NA,NA,NA,NA,NA,NA,NA,NA,NA,NA,8,NA,stimuli/stars_8.png,154.5,NA,NA,NA,NA,stimuli/HM07_AO.jpg,NA,NA,/Users/martinzettersten/GitHub/emogo/data-analysis/data/pilot-v1/raw/emogo-v1_PARTICIPANT_SESSION_2022-08-23_12h09.43.369.csv,206
explore-choice,98,201393,0.0-98.0,p333790,emogo,test_session,model,match,uniform,NA,NA,NA,NA,NA,NA,1806,200416,202222,"[""stimuli/HF09_HO.jpg"",""stimuli/AF10_AO.jpg"",""stimuli/HM07_SUR.jpg"",""stimuli/BF04_CC.jpg""]",stimuli/HF09_HO.jpg,stimuli/AF10_AO.jpg,stimuli/HM07_SUR.jpg,stimuli/BF04_CC.jpg,pos3,stimuli/HM07_SUR.jpg,SUR,HM07,2,5,10,8,stimuli/stars_10.png,159.5,"[""HO"",""AO"",""SUR"",""CC""]","[""HF09"",""AF10"",""HM07"",""BF04""]","[6,1,10,4]","[6,2,8,4]",NA,NA,NA,/Users/martinzettersten/GitHub/emogo/data-analysis/data/pilot-v1/raw/emogo-v1_PARTICIPANT_SESSION_2022-08-23_12h09.43.369.csv,206
show-reward,99,203398,0.0-99.0,p333790,emogo,test_session,model,match,uniform,NA,NA,NA,NA,NA,NA,NA,202728,204732,NA,NA,NA,NA,NA,NA,NA,NA,NA,NA,NA,10,NA,stimuli/stars_10.png,159.5,NA,NA,NA,NA,stimuli/HM07_SUR.jpg,NA,NA,/Users/martinzettersten/GitHub/emogo/data-analysis/data/pilot-v1/raw/emogo-v1_PARTICIPANT_SESSION_2022-08-23_12h09.43.369.csv,206
explore-choice,100,204947,0.0-100.0,p333790,emogo,test_session,model,match,uniform,NA,NA,NA,NA,NA,NA,1044,204733,205777,"[""stimuli/BF04_AO.jpg"",""stimuli/HM07_SUR.jpg"",""stimuli/AF10_CC.jpg"",""stimuli/HF09_HO.jpg""]",stimuli/BF04_AO.jpg,stimuli/HM07_SUR.jpg,stimuli/AF10_CC.jpg,stimuli/HF09_HO.jpg,pos2,stimuli/HM07_SUR.jpg,SUR,HM07,1,4.5,9,8,stimuli/stars_9.png,164,"[""AO"",""SUR"",""CC"",""HO""]","[""BF04"",""HM07"",""AF10"",""HF09""]","[6,9,0,5]","[4,8,2,6]",NA,NA,NA,/Users/martinzettersten/GitHub/emogo/data-analysis/data/pilot-v1/raw/emogo-v1_PARTICIPANT_SESSION_2022-08-23_12h09.43.369.csv,206
show-reward,101,206953,0.0-101.0,p333790,emogo,test_session,model,match,uniform,NA,NA,NA,NA,NA,NA,NA,206282,208287,NA,NA,NA,NA,NA,NA,NA,NA,NA,NA,NA,9,NA,stimuli/stars_9.png,164,NA,NA,NA,NA,stimuli/HM07_SUR.jpg,NA,NA,/Users/martinzettersten/GitHub/emogo/data-analysis/data/pilot-v1/raw/emogo-v1_PARTICIPANT_SESSION_2022-08-23_12h09.43.369.csv,206
explore-choice,102,210284,0.0-102.0,p333790,emogo,test_session,model,match,uniform,NA,NA,NA,NA,NA,NA,2829,208287,211116,"[""stimuli/HF10_DO.jpg"",""stimuli/AM06_FO.jpg"",""stimuli/WF04_HE.jpg"",""stimuli/AF11_SC.jpg""]",stimuli/HF10_DO.jpg,stimuli/AM06_FO.jpg,stimuli/WF04_HE.jpg,stimuli/AF11_SC.jpg,pos1,stimuli/HF10_DO.jpg,DO,HF10,0,1,2,4,stimuli/stars_2.png,165,"[""DO"",""FO"",""HE"",""SC""]","[""HF10"",""AM06"",""WF04"",""AF11""]","[2,3,4,10]","[4,2,6,8]",NA,NA,NA,/Users/martinzettersten/GitHub/emogo/data-analysis/data/pilot-v1/raw/emogo-v1_PARTICIPANT_SESSION_2022-08-23_12h09.43.369.csv,206
show-reward,103,212286,0.0-103.0,p333790,emogo,test_session,model,match,uniform,NA,NA,NA,NA,NA,NA,NA,211619,213620,NA,NA,NA,NA,NA,NA,NA,NA,NA,NA,NA,2,NA,stimuli/stars_2.png,165,NA,NA,NA,NA,stimuli/HF10_DO.jpg,NA,NA,/Users/martinzettersten/GitHub/emogo/data-analysis/data/pilot-v1/raw/emogo-v1_PARTICIPANT_SESSION_2022-08-23_12h09.43.369.csv,206
explore-choice,104,214313,0.0-104.0,p333790,emogo,test_session,model,match,uniform,NA,NA,NA,NA,NA,NA,1525,213621,215146,"[""stimuli/AM06_HE.jpg"",""stimuli/HF10_SC.jpg"",""stimuli/AF11_DO.jpg"",""stimuli/WF04_FO.jpg""]",stimuli/AM06_HE.jpg,stimuli/HF10_SC.jpg,stimuli/AF11_DO.jpg,stimuli/WF04_FO.jpg,pos1,stimuli/AM06_HE.jpg,HE,AM06,0,1.5,3,2,stimuli/stars_3.png,166.5,"[""HE"",""SC"",""DO"",""FO""]","[""AM06"",""HF10"",""AF11"",""WF04""]","[3,3,8,5]","[2,4,8,6]",NA,NA,NA,/Users/martinzettersten/GitHub/emogo/data-analysis/data/pilot-v1/raw/emogo-v1_PARTICIPANT_SESSION_2022-08-23_12h09.43.369.csv,206
show-reward,105,216319,0.0-105.0,p333790,emogo,test_session,model,match,uniform,NA,NA,NA,NA,NA,NA,NA,215649,217652,NA,NA,NA,NA,NA,NA,NA,NA,NA,NA,NA,3,NA,stimuli/stars_3.png,166.5,NA,NA,NA,NA,stimuli/AM06_HE.jpg,NA,NA,/Users/martinzettersten/GitHub/emogo/data-analysis/data/pilot-v1/raw/emogo-v1_PARTICIPANT_SESSION_2022-08-23_12h09.43.369.csv,206
explore-choice,106,218199,0.0-106.0,p333790,emogo,test_session,model,match,uniform,NA,NA,NA,NA,NA,NA,1378,217653,219031,"[""stimuli/WF04_DO.jpg"",""stimuli/AF11_FO.jpg"",""stimuli/AM06_HE.jpg"",""stimuli/HF10_SC.jpg""]",stimuli/WF04_DO.jpg,stimuli/AF11_FO.jpg,stimuli/AM06_HE.jpg,stimuli/HF10_SC.jpg,pos1,stimuli/WF04_DO.jpg,DO,WF04,0,2,4,6,stimuli/stars_4.png,168.5,"[""DO"",""FO"",""HE"",""SC""]","[""WF04"",""AF11"",""AM06"",""HF10""]","[4,7,0,6]","[6,8,2,4]",NA,NA,NA,/Users/martinzettersten/GitHub/emogo/data-analysis/data/pilot-v1/raw/emogo-v1_PARTICIPANT_SESSION_2022-08-23_12h09.43.369.csv,206
show-reward,107,220201,0.0-107.0,p333790,emogo,test_session,model,match,uniform,NA,NA,NA,NA,NA,NA,NA,219533,221536,NA,NA,NA,NA,NA,NA,NA,NA,NA,NA,NA,4,NA,stimuli/stars_4.png,168.5,NA,NA,NA,NA,stimuli/WF04_DO.jpg,NA,NA,/Users/martinzettersten/GitHub/emogo/data-analysis/data/pilot-v1/raw/emogo-v1_PARTICIPANT_SESSION_2022-08-23_12h09.43.369.csv,206
explore-choice,108,222836,0.0-108.0,p333790,emogo,test_session,model,match,uniform,NA,NA,NA,NA,NA,NA,2133,221536,223669,"[""stimuli/WF04_FO.jpg"",""stimuli/HF10_HE.jpg"",""stimuli/AM06_DO.jpg"",""stimuli/AF11_SC.jpg""]",stimuli/WF04_FO.jpg,stimuli/HF10_HE.jpg,stimuli/AM06_DO.jpg,stimuli/AF11_SC.jpg,pos4,stimuli/AF11_SC.jpg,SC,AF11,3,3.5,7,8,stimuli/stars_7.png,172,"[""FO"",""HE"",""DO"",""SC""]","[""WF04"",""HF10"",""AM06"",""AF11""]","[8,3,3,7]","[6,4,2,8]",NA,NA,NA,/Users/martinzettersten/GitHub/emogo/data-analysis/data/pilot-v1/raw/emogo-v1_PARTICIPANT_SESSION_2022-08-23_12h09.43.369.csv,206
show-reward,109,224841,0.0-109.0,p333790,emogo,test_session,model,match,uniform,NA,NA,NA,NA,NA,NA,NA,224171,226175,NA,NA,NA,NA,NA,NA,NA,NA,NA,NA,NA,7,NA,stimuli/stars_7.png,172,NA,NA,NA,NA,stimuli/AF11_SC.jpg,NA,NA,/Users/martinzettersten/GitHub/emogo/data-analysis/data/pilot-v1/raw/emogo-v1_PARTICIPANT_SESSION_2022-08-23_12h09.43.369.csv,206
explore-choice,110,226732,0.0-110.0,p333790,emogo,test_session,model,match,uniform,NA,NA,NA,NA,NA,NA,1389,226176,227565,"[""stimuli/AF11_FO.jpg"",""stimuli/AM06_SC.jpg"",""stimuli/WF04_HE.jpg"",""stimuli/HF10_DO.jpg""]",stimuli/AF11_FO.jpg,stimuli/AM06_SC.jpg,stimuli/WF04_HE.jpg,stimuli/HF10_DO.jpg,pos1,stimuli/AF11_FO.jpg,FO,AF11,0,4.5,9,8,stimuli/stars_9.png,176.5,"[""FO"",""SC"",""HE"",""DO""]","[""AF11"",""AM06"",""WF04"",""HF10""]","[9,1,8,5]","[8,2,6,4]",NA,NA,NA,/Users/martinzettersten/GitHub/emogo/data-analysis/data/pilot-v1/raw/emogo-v1_PARTICIPANT_SESSION_2022-08-23_12h09.43.369.csv,206
show-reward,111,228735,0.0-111.0,p333790,emogo,test_session,model,match,uniform,NA,NA,NA,NA,NA,NA,NA,228067,230069,NA,NA,NA,NA,NA,NA,NA,NA,NA,NA,NA,9,NA,stimuli/stars_9.png,176.5,NA,NA,NA,NA,stimuli/AF11_FO.jpg,NA,NA,/Users/martinzettersten/GitHub/emogo/data-analysis/data/pilot-v1/raw/emogo-v1_PARTICIPANT_SESSION_2022-08-23_12h09.43.369.csv,206
explore-choice,112,229911,0.0-112.0,p333790,emogo,test_session,model,match,uniform,NA,NA,NA,NA,NA,NA,672,230070,230742,"[""stimuli/HF10_FO.jpg"",""stimuli/WF04_DO.jpg"",""stimuli/AM06_HE.jpg"",""stimuli/AF11_SC.jpg""]",stimuli/HF10_FO.jpg,stimuli/WF04_DO.jpg,stimuli/AM06_HE.jpg,stimuli/AF11_SC.jpg,pos1,stimuli/HF10_FO.jpg,FO,HF10,0,3,6,4,stimuli/stars_6.png,179.5,"[""FO"",""DO"",""HE"",""SC""]","[""HF10"",""WF04"",""AM06"",""AF11""]","[6,4,4,8]","[4,6,2,8]",NA,NA,NA,/Users/martinzettersten/GitHub/emogo/data-analysis/data/pilot-v1/raw/emogo-v1_PARTICIPANT_SESSION_2022-08-23_12h09.43.369.csv,206
show-reward,113,231916,0.0-113.0,p333790,emogo,test_session,model,match,uniform,NA,NA,NA,NA,NA,NA,NA,231246,233250,NA,NA,NA,NA,NA,NA,NA,NA,NA,NA,NA,6,NA,stimuli/stars_6.png,179.5,NA,NA,NA,NA,stimuli/HF10_FO.jpg,NA,NA,/Users/martinzettersten/GitHub/emogo/data-analysis/data/pilot-v1/raw/emogo-v1_PARTICIPANT_SESSION_2022-08-23_12h09.43.369.csv,206
explore-choice,114,233687,0.0-114.0,p333790,emogo,test_session,model,match,uniform,NA,NA,NA,NA,NA,NA,1266,233251,234517,"[""stimuli/AM06_HE.jpg"",""stimuli/HF10_DO.jpg"",""stimuli/WF04_FO.jpg"",""stimuli/AF11_SC.jpg""]",stimuli/AM06_HE.jpg,stimuli/HF10_DO.jpg,stimuli/WF04_FO.jpg,stimuli/AF11_SC.jpg,pos4,stimuli/AF11_SC.jpg,SC,AF11,3,3,6,8,stimuli/stars_6.png,182.5,"[""HE"",""DO"",""FO"",""SC""]","[""AM06"",""HF10"",""WF04"",""AF11""]","[1,5,4,6]","[2,4,6,8]",NA,NA,NA,/Users/martinzettersten/GitHub/emogo/data-analysis/data/pilot-v1/raw/emogo-v1_PARTICIPANT_SESSION_2022-08-23_12h09.43.369.csv,206
show-reward,115,235689,0.0-115.0,p333790,emogo,test_session,model,match,uniform,NA,NA,NA,NA,NA,NA,NA,235021,237024,NA,NA,NA,NA,NA,NA,NA,NA,NA,NA,NA,6,NA,stimuli/stars_6.png,182.5,NA,NA,NA,NA,stimuli/AF11_SC.jpg,NA,NA,/Users/martinzettersten/GitHub/emogo/data-analysis/data/pilot-v1/raw/emogo-v1_PARTICIPANT_SESSION_2022-08-23_12h09.43.369.csv,206
explore-choice,116,237954,0.0-116.0,p333790,emogo,test_session,model,match,uniform,NA,NA,NA,NA,NA,NA,1760,237024,238784,"[""stimuli/AF11_DO.jpg"",""stimuli/WF04_FO.jpg"",""stimuli/AM06_SC.jpg"",""stimuli/HF10_HE.jpg""]",stimuli/AF11_DO.jpg,stimuli/WF04_FO.jpg,stimuli/AM06_SC.jpg,stimuli/HF10_HE.jpg,pos1,stimuli/AF11_DO.jpg,DO,AF11,0,3.5,7,8,stimuli/stars_7.png,186,"[""DO"",""FO"",""SC"",""HE""]","[""AF11"",""WF04"",""AM06"",""HF10""]","[7,4,3,5]","[8,6,2,4]",NA,NA,NA,/Users/martinzettersten/GitHub/emogo/data-analysis/data/pilot-v1/raw/emogo-v1_PARTICIPANT_SESSION_2022-08-23_12h09.43.369.csv,206
show-reward,117,239956,0.0-117.0,p333790,emogo,test_session,model,match,uniform,NA,NA,NA,NA,NA,NA,NA,239289,241291,NA,NA,NA,NA,NA,NA,NA,NA,NA,NA,NA,7,NA,stimuli/stars_7.png,186,NA,NA,NA,NA,stimuli/AF11_DO.jpg,NA,NA,/Users/martinzettersten/GitHub/emogo/data-analysis/data/pilot-v1/raw/emogo-v1_PARTICIPANT_SESSION_2022-08-23_12h09.43.369.csv,206
explore-choice,118,241765,0.0-118.0,p333790,emogo,test_session,model,match,uniform,NA,NA,NA,NA,NA,NA,1306,241291,242597,"[""stimuli/AF11_HE.jpg"",""stimuli/AM06_FO.jpg"",""stimuli/HF10_DO.jpg"",""stimuli/WF04_SC.jpg""]",stimuli/AF11_HE.jpg,stimuli/AM06_FO.jpg,stimuli/HF10_DO.jpg,stimuli/WF04_SC.jpg,pos1,stimuli/AF11_HE.jpg,HE,AF11,0,5,10,8,stimuli/stars_10.png,191,"[""HE"",""FO"",""DO"",""SC""]","[""AF11"",""AM06"",""HF10"",""WF04""]","[10,3,3,7]","[8,2,4,6]",NA,NA,NA,/Users/martinzettersten/GitHub/emogo/data-analysis/data/pilot-v1/raw/emogo-v1_PARTICIPANT_SESSION_2022-08-23_12h09.43.369.csv,206
show-reward,119,243767,0.0-119.0,p333790,emogo,test_session,model,match,uniform,NA,NA,NA,NA,NA,NA,NA,243099,245101,NA,NA,NA,NA,NA,NA,NA,NA,NA,NA,NA,10,NA,stimuli/stars_10.png,191,NA,NA,NA,NA,stimuli/AF11_HE.jpg,NA,NA,/Users/martinzettersten/GitHub/emogo/data-analysis/data/pilot-v1/raw/emogo-v1_PARTICIPANT_SESSION_2022-08-23_12h09.43.369.csv,206
explore-choice,120,246356,0.0-120.0,p333790,emogo,test_session,model,match,uniform,NA,NA,NA,NA,NA,NA,2085,245102,247187,"[""stimuli/AM06_FO.jpg"",""stimuli/AF11_SC.jpg"",""stimuli/HF10_HE.jpg"",""stimuli/WF04_DO.jpg""]",stimuli/AM06_FO.jpg,stimuli/AF11_SC.jpg,stimuli/HF10_HE.jpg,stimuli/WF04_DO.jpg,pos3,stimuli/HF10_HE.jpg,HE,HF10,2,3,6,4,stimuli/stars_6.png,194,"[""FO"",""SC"",""HE"",""DO""]","[""AM06"",""AF11"",""HF10"",""WF04""]","[3,8,6,7]","[2,8,4,6]",NA,NA,NA,/Users/martinzettersten/GitHub/emogo/data-analysis/data/pilot-v1/raw/emogo-v1_PARTICIPANT_SESSION_2022-08-23_12h09.43.369.csv,206
show-reward,121,248359,0.0-121.0,p333790,emogo,test_session,model,match,uniform,NA,NA,NA,NA,NA,NA,NA,247692,249693,NA,NA,NA,NA,NA,NA,NA,NA,NA,NA,NA,6,NA,stimuli/stars_6.png,194,NA,NA,NA,NA,stimuli/HF10_HE.jpg,NA,NA,/Users/martinzettersten/GitHub/emogo/data-analysis/data/pilot-v1/raw/emogo-v1_PARTICIPANT_SESSION_2022-08-23_12h09.43.369.csv,206
explore-choice,122,251199,0.0-122.0,p333790,emogo,test_session,model,match,uniform,NA,NA,NA,NA,NA,NA,2337,249694,252031,"[""stimuli/HF10_DO.jpg"",""stimuli/WF04_SC.jpg"",""stimuli/AF11_FO.jpg"",""stimuli/AM06_HE.jpg""]",stimuli/HF10_DO.jpg,stimuli/WF04_SC.jpg,stimuli/AF11_FO.jpg,stimuli/AM06_HE.jpg,pos4,stimuli/AM06_HE.jpg,HE,AM06,3,0,0,2,stimuli/stars_0.png,194,"[""DO"",""SC"",""FO"",""HE""]","[""HF10"",""WF04"",""AF11"",""AM06""]","[6,8,6,0]","[4,6,8,2]",NA,NA,NA,/Users/martinzettersten/GitHub/emogo/data-analysis/data/pilot-v1/raw/emogo-v1_PARTICIPANT_SESSION_2022-08-23_12h09.43.369.csv,206
show-reward,123,253204,0.0-123.0,p333790,emogo,test_session,model,match,uniform,NA,NA,NA,NA,NA,NA,NA,252534,254538,NA,NA,NA,NA,NA,NA,NA,NA,NA,NA,NA,0,NA,stimuli/stars_0.png,194,NA,NA,NA,NA,stimuli/AM06_HE.jpg,NA,NA,/Users/martinzettersten/GitHub/emogo/data-analysis/data/pilot-v1/raw/emogo-v1_PARTICIPANT_SESSION_2022-08-23_12h09.43.369.csv,206
explore-choice,124,254951,0.0-124.0,p333790,emogo,test_session,model,match,uniform,NA,NA,NA,NA,NA,NA,1244,254539,255783,"[""stimuli/AM06_DO.jpg"",""stimuli/HF10_FO.jpg"",""stimuli/AF11_HE.jpg"",""stimuli/WF04_SC.jpg""]",stimuli/AM06_DO.jpg,stimuli/HF10_FO.jpg,stimuli/AF11_HE.jpg,stimuli/WF04_SC.jpg,pos3,stimuli/AF11_HE.jpg,HE,AF11,2,3.5,7,8,stimuli/stars_7.png,197.5,"[""DO"",""FO"",""HE"",""SC""]","[""AM06"",""HF10"",""AF11"",""WF04""]","[4,5,7,8]","[2,4,8,6]",NA,NA,NA,/Users/martinzettersten/GitHub/emogo/data-analysis/data/pilot-v1/raw/emogo-v1_PARTICIPANT_SESSION_2022-08-23_12h09.43.369.csv,206
show-reward,125,256956,0.0-125.0,p333790,emogo,test_session,model,match,uniform,NA,NA,NA,NA,NA,NA,NA,256286,258291,NA,NA,NA,NA,NA,NA,NA,NA,NA,NA,NA,7,NA,stimuli/stars_7.png,197.5,NA,NA,NA,NA,stimuli/AF11_HE.jpg,NA,NA,/Users/martinzettersten/GitHub/emogo/data-analysis/data/pilot-v1/raw/emogo-v1_PARTICIPANT_SESSION_2022-08-23_12h09.43.369.csv,206
explore-choice,126,259631,0.0-126.0,p333790,emogo,test_session,model,match,uniform,NA,NA,NA,NA,NA,NA,2173,258291,260464,"[""stimuli/AM06_FO.jpg"",""stimuli/AF11_DO.jpg"",""stimuli/WF04_SC.jpg"",""stimuli/HF10_HE.jpg""]",stimuli/AM06_FO.jpg,stimuli/AF11_DO.jpg,stimuli/WF04_SC.jpg,stimuli/HF10_HE.jpg,pos2,stimuli/AF11_DO.jpg,DO,AF11,1,3.5,7,8,stimuli/stars_7.png,201,"[""FO"",""DO"",""SC"",""HE""]","[""AM06"",""AF11"",""WF04"",""HF10""]","[2,7,4,6]","[2,8,6,4]",NA,NA,NA,/Users/martinzettersten/GitHub/emogo/data-analysis/data/pilot-v1/raw/emogo-v1_PARTICIPANT_SESSION_2022-08-23_12h09.43.369.csv,206
show-reward,127,261637,0.0-127.0,p333790,emogo,test_session,model,match,uniform,NA,NA,NA,NA,NA,NA,NA,260966,262970,NA,NA,NA,NA,NA,NA,NA,NA,NA,NA,NA,7,NA,stimuli/stars_7.png,201,NA,NA,NA,NA,stimuli/AF11_DO.jpg,NA,NA,/Users/martinzettersten/GitHub/emogo/data-analysis/data/pilot-v1/raw/emogo-v1_PARTICIPANT_SESSION_2022-08-23_12h09.43.369.csv,206
explore-choice,128,263495,0.0-128.0,p333790,emogo,test_session,model,match,uniform,NA,NA,NA,NA,NA,NA,1357,262972,264329,"[""stimuli/WF04_SC.jpg"",""stimuli/AM06_DO.jpg"",""stimuli/AF11_FO.jpg"",""stimuli/HF10_HE.jpg""]",stimuli/WF04_SC.jpg,stimuli/AM06_DO.jpg,stimuli/AF11_FO.jpg,stimuli/HF10_HE.jpg,pos3,stimuli/AF11_FO.jpg,FO,AF11,2,5,10,8,stimuli/stars_10.png,206,"[""SC"",""DO"",""FO"",""HE""]","[""WF04"",""AM06"",""AF11"",""HF10""]","[6,1,10,2]","[6,2,8,4]",NA,NA,NA,/Users/martinzettersten/GitHub/emogo/data-analysis/data/pilot-v1/raw/emogo-v1_PARTICIPANT_SESSION_2022-08-23_12h09.43.369.csv,206
show-reward,129,265498,0.0-129.0,p333790,emogo,test_session,model,match,uniform,NA,NA,NA,NA,NA,NA,NA,264830,266832,NA,NA,NA,NA,NA,NA,NA,NA,NA,NA,NA,10,NA,stimuli/stars_10.png,206,NA,NA,NA,NA,stimuli/AF11_FO.jpg,NA,NA,/Users/martinzettersten/GitHub/emogo/data-analysis/data/pilot-v1/raw/emogo-v1_PARTICIPANT_SESSION_2022-08-23_12h09.43.369.csv,206
explore-choice,130,267412,0.0-130.0,p333790,emogo,test_session,model,match,uniform,NA,NA,NA,NA,NA,NA,1411,266833,268244,"[""stimuli/AM06_SC.jpg"",""stimuli/WF04_DO.jpg"",""stimuli/HF10_HE.jpg"",""stimuli/AF11_FO.jpg""]",stimuli/AM06_SC.jpg,stimuli/WF04_DO.jpg,stimuli/HF10_HE.jpg,stimuli/AF11_FO.jpg,pos4,stimuli/AF11_FO.jpg,FO,AF11,3,4,8,8,stimuli/stars_8.png,210,"[""SC"",""DO"",""HE"",""FO""]","[""AM06"",""WF04"",""HF10"",""AF11""]","[1,6,4,8]","[2,6,4,8]",NA,NA,NA,/Users/martinzettersten/GitHub/emogo/data-analysis/data/pilot-v1/raw/emogo-v1_PARTICIPANT_SESSION_2022-08-23_12h09.43.369.csv,206
show-reward,131,269415,0.0-131.0,p333790,emogo,test_session,model,match,uniform,NA,NA,NA,NA,NA,NA,NA,268748,270749,NA,NA,NA,NA,NA,NA,NA,NA,NA,NA,NA,8,NA,stimuli/stars_8.png,210,NA,NA,NA,NA,stimuli/AF11_FO.jpg,NA,NA,/Users/martinzettersten/GitHub/emogo/data-analysis/data/pilot-v1/raw/emogo-v1_PARTICIPANT_SESSION_2022-08-23_12h09.43.369.csv,206
explore-choice,132,272196,0.0-132.0,p333790,emogo,test_session,model,match,uniform,NA,NA,NA,NA,NA,NA,2278,270750,273028,"[""stimuli/AF11_SC.jpg"",""stimuli/HF10_FO.jpg"",""stimuli/AM06_DO.jpg"",""stimuli/WF04_HE.jpg""]",stimuli/AF11_SC.jpg,stimuli/HF10_FO.jpg,stimuli/AM06_DO.jpg,stimuli/WF04_HE.jpg,pos1,stimuli/AF11_SC.jpg,SC,AF11,0,3,6,8,stimuli/stars_6.png,213,"[""SC"",""FO"",""DO"",""HE""]","[""AF11"",""HF10"",""AM06"",""WF04""]","[6,2,0,6]","[8,4,2,6]",NA,NA,NA,/Users/martinzettersten/GitHub/emogo/data-analysis/data/pilot-v1/raw/emogo-v1_PARTICIPANT_SESSION_2022-08-23_12h09.43.369.csv,206
show-reward,133,274202,0.0-133.0,p333790,emogo,test_session,model,match,uniform,NA,NA,NA,NA,NA,NA,NA,273531,275536,NA,NA,NA,NA,NA,NA,NA,NA,NA,NA,NA,6,NA,stimuli/stars_6.png,213,NA,NA,NA,NA,stimuli/AF11_SC.jpg,NA,NA,/Users/martinzettersten/GitHub/emogo/data-analysis/data/pilot-v1/raw/emogo-v1_PARTICIPANT_SESSION_2022-08-23_12h09.43.369.csv,206
explore-choice,134,276255,0.0-134.0,p333790,emogo,test_session,model,match,uniform,NA,NA,NA,NA,NA,NA,1552,275537,277089,"[""stimuli/AF11_DO.jpg"",""stimuli/HF10_SC.jpg"",""stimuli/AM06_FO.jpg"",""stimuli/WF04_HE.jpg""]",stimuli/AF11_DO.jpg,stimuli/HF10_SC.jpg,stimuli/AM06_FO.jpg,stimuli/WF04_HE.jpg,pos1,stimuli/AF11_DO.jpg,DO,AF11,0,5,10,8,stimuli/stars_10.png,218,"[""DO"",""SC"",""FO"",""HE""]","[""AF11"",""HF10"",""AM06"",""WF04""]","[10,6,0,4]","[8,4,2,6]",NA,NA,NA,/Users/martinzettersten/GitHub/emogo/data-analysis/data/pilot-v1/raw/emogo-v1_PARTICIPANT_SESSION_2022-08-23_12h09.43.369.csv,206
show-reward,135,278258,0.0-135.0,p333790,emogo,test_session,model,match,uniform,NA,NA,NA,NA,NA,NA,NA,277591,279592,NA,NA,NA,NA,NA,NA,NA,NA,NA,NA,NA,10,NA,stimuli/stars_10.png,218,NA,NA,NA,NA,stimuli/AF11_DO.jpg,NA,NA,/Users/martinzettersten/GitHub/emogo/data-analysis/data/pilot-v1/raw/emogo-v1_PARTICIPANT_SESSION_2022-08-23_12h09.43.369.csv,206
explore-choice,136,280141,0.0-136.0,p333790,emogo,test_session,model,match,uniform,NA,NA,NA,NA,NA,NA,1378,279593,280971,"[""stimuli/AM06_DO.jpg"",""stimuli/AF11_HE.jpg"",""stimuli/HF10_SC.jpg"",""stimuli/WF04_FO.jpg""]",stimuli/AM06_DO.jpg,stimuli/AF11_HE.jpg,stimuli/HF10_SC.jpg,stimuli/WF04_FO.jpg,pos2,stimuli/AF11_HE.jpg,HE,AF11,1,4.5,9,8,stimuli/stars_9.png,222.5,"[""DO"",""HE"",""SC"",""FO""]","[""AM06"",""AF11"",""HF10"",""WF04""]","[3,9,4,5]","[2,8,4,6]",NA,NA,NA,/Users/martinzettersten/GitHub/emogo/data-analysis/data/pilot-v1/raw/emogo-v1_PARTICIPANT_SESSION_2022-08-23_12h09.43.369.csv,206
show-reward,137,282143,0.0-137.0,p333790,emogo,test_session,model,match,uniform,NA,NA,NA,NA,NA,NA,NA,281475,283477,NA,NA,NA,NA,NA,NA,NA,NA,NA,NA,NA,9,NA,stimuli/stars_9.png,222.5,NA,NA,NA,NA,stimuli/AF11_HE.jpg,NA,NA,/Users/martinzettersten/GitHub/emogo/data-analysis/data/pilot-v1/raw/emogo-v1_PARTICIPANT_SESSION_2022-08-23_12h09.43.369.csv,206
explore-choice,138,283574,0.0-138.0,p333790,emogo,test_session,model,match,uniform,NA,NA,NA,NA,NA,NA,924,283479,284403,"[""stimuli/HF10_DO.jpg"",""stimuli/AF11_HE.jpg"",""stimuli/WF04_FO.jpg"",""stimuli/AM06_SC.jpg""]",stimuli/HF10_DO.jpg,stimuli/AF11_HE.jpg,stimuli/WF04_FO.jpg,stimuli/AM06_SC.jpg,pos2,stimuli/AF11_HE.jpg,HE,AF11,1,5,10,8,stimuli/stars_10.png,227.5,"[""DO"",""HE"",""FO"",""SC""]","[""HF10"",""AF11"",""WF04"",""AM06""]","[2,10,7,2]","[4,8,6,2]",NA,NA,NA,/Users/martinzettersten/GitHub/emogo/data-analysis/data/pilot-v1/raw/emogo-v1_PARTICIPANT_SESSION_2022-08-23_12h09.43.369.csv,206
show-reward,139,285575,0.0-139.0,p333790,emogo,test_session,model,match,uniform,NA,NA,NA,NA,NA,NA,NA,284908,286909,NA,NA,NA,NA,NA,NA,NA,NA,NA,NA,NA,10,NA,stimuli/stars_10.png,227.5,NA,NA,NA,NA,stimuli/AF11_HE.jpg,NA,NA,/Users/martinzettersten/GitHub/emogo/data-analysis/data/pilot-v1/raw/emogo-v1_PARTICIPANT_SESSION_2022-08-23_12h09.43.369.csv,206
explore-choice,140,288079,0.0-140.0,p333790,emogo,test_session,model,match,uniform,NA,NA,NA,NA,NA,NA,2001,286911,288912,"[""stimuli/AF11_DO.jpg"",""stimuli/AM06_HE.jpg"",""stimuli/HF10_FO.jpg"",""stimuli/WF04_SC.jpg""]",stimuli/AF11_DO.jpg,stimuli/AM06_HE.jpg,stimuli/HF10_FO.jpg,stimuli/WF04_SC.jpg,pos1,stimuli/AF11_DO.jpg,DO,AF11,0,3.5,7,8,stimuli/stars_7.png,231,"[""DO"",""HE"",""FO"",""SC""]","[""AF11"",""AM06"",""HF10"",""WF04""]","[7,3,4,8]","[8,2,4,6]",NA,NA,NA,/Users/martinzettersten/GitHub/emogo/data-analysis/data/pilot-v1/raw/emogo-v1_PARTICIPANT_SESSION_2022-08-23_12h09.43.369.csv,206
show-reward,141,290086,0.0-141.0,p333790,emogo,test_session,model,match,uniform,NA,NA,NA,NA,NA,NA,NA,289414,291420,NA,NA,NA,NA,NA,NA,NA,NA,NA,NA,NA,7,NA,stimuli/stars_7.png,231,NA,NA,NA,NA,stimuli/AF11_DO.jpg,NA,NA,/Users/martinzettersten/GitHub/emogo/data-analysis/data/pilot-v1/raw/emogo-v1_PARTICIPANT_SESSION_2022-08-23_12h09.43.369.csv,206
explore-choice,142,292018,0.0-142.0,p333790,emogo,test_session,model,match,uniform,NA,NA,NA,NA,NA,NA,1431,291421,292852,"[""stimuli/HF10_FO.jpg"",""stimuli/AF11_DO.jpg"",""stimuli/AM06_SC.jpg"",""stimuli/WF04_HE.jpg""]",stimuli/HF10_FO.jpg,stimuli/AF11_DO.jpg,stimuli/AM06_SC.jpg,stimuli/WF04_HE.jpg,pos2,stimuli/AF11_DO.jpg,DO,AF11,1,4.5,9,8,stimuli/stars_9.png,235.5,"[""FO"",""DO"",""SC"",""HE""]","[""HF10"",""AF11"",""AM06"",""WF04""]","[5,9,1,4]","[4,8,2,6]",NA,NA,NA,/Users/martinzettersten/GitHub/emogo/data-analysis/data/pilot-v1/raw/emogo-v1_PARTICIPANT_SESSION_2022-08-23_12h09.43.369.csv,206
show-reward,143,294023,0.0-143.0,p333790,emogo,test_session,model,match,uniform,NA,NA,NA,NA,NA,NA,NA,293354,295358,NA,NA,NA,NA,NA,NA,NA,NA,NA,NA,NA,9,NA,stimuli/stars_9.png,235.5,NA,NA,NA,NA,stimuli/AF11_DO.jpg,NA,NA,/Users/martinzettersten/GitHub/emogo/data-analysis/data/pilot-v1/raw/emogo-v1_PARTICIPANT_SESSION_2022-08-23_12h09.43.369.csv,206
explore-choice,144,295852,0.0-144.0,p333790,emogo,test_session,model,match,uniform,NA,NA,NA,NA,NA,NA,1326,295358,296684,"[""stimuli/AF11_HE.jpg"",""stimuli/AM06_FO.jpg"",""stimuli/HF10_SC.jpg"",""stimuli/WF04_DO.jpg""]",stimuli/AF11_HE.jpg,stimuli/AM06_FO.jpg,stimuli/HF10_SC.jpg,stimuli/WF04_DO.jpg,pos1,stimuli/AF11_HE.jpg,HE,AF11,0,3,6,8,stimuli/stars_6.png,238.5,"[""HE"",""FO"",""SC"",""DO""]","[""AF11"",""AM06"",""HF10"",""WF04""]","[6,2,4,4]","[8,2,4,6]",NA,NA,NA,/Users/martinzettersten/GitHub/emogo/data-analysis/data/pilot-v1/raw/emogo-v1_PARTICIPANT_SESSION_2022-08-23_12h09.43.369.csv,206
show-reward,145,297852,0.0-145.0,p333790,emogo,test_session,model,match,uniform,NA,NA,NA,NA,NA,NA,NA,297190,299193,NA,NA,NA,NA,NA,NA,NA,NA,NA,NA,NA,6,NA,stimuli/stars_6.png,238.5,NA,NA,NA,NA,stimuli/AF11_HE.jpg,NA,NA,/Users/martinzettersten/GitHub/emogo/data-analysis/data/pilot-v1/raw/emogo-v1_PARTICIPANT_SESSION_2022-08-23_12h09.43.369.csv,206
explore-choice,146,299503,0.0-146.0,p333790,emogo,test_session,model,match,uniform,NA,NA,NA,NA,NA,NA,1152,299193,300345,"[""stimuli/WF04_HE.jpg"",""stimuli/HF10_SC.jpg"",""stimuli/AF11_FO.jpg"",""stimuli/AM06_DO.jpg""]",stimuli/WF04_HE.jpg,stimuli/HF10_SC.jpg,stimuli/AF11_FO.jpg,stimuli/AM06_DO.jpg,pos3,stimuli/AF11_FO.jpg,FO,AF11,2,3,6,8,stimuli/stars_6.png,241.5,"[""HE"",""SC"",""FO"",""DO""]","[""WF04"",""HF10"",""AF11"",""AM06""]","[5,2,6,4]","[6,4,8,2]",NA,NA,NA,/Users/martinzettersten/GitHub/emogo/data-analysis/data/pilot-v1/raw/emogo-v1_PARTICIPANT_SESSION_2022-08-23_12h09.43.369.csv,206
show-reward,147,301503,0.0-147.0,p333790,emogo,test_session,model,match,uniform,NA,NA,NA,NA,NA,NA,NA,300847,302848,NA,NA,NA,NA,NA,NA,NA,NA,NA,NA,NA,6,NA,stimuli/stars_6.png,241.5,NA,NA,NA,NA,stimuli/AF11_FO.jpg,NA,NA,/Users/martinzettersten/GitHub/emogo/data-analysis/data/pilot-v1/raw/emogo-v1_PARTICIPANT_SESSION_2022-08-23_12h09.43.369.csv,206
explore-choice,148,303317,0.0-148.0,p333790,emogo,test_session,model,match,uniform,NA,NA,NA,NA,NA,NA,1313,302850,304163,"[""stimuli/HF10_FO.jpg"",""stimuli/AM06_SC.jpg"",""stimuli/WF04_DO.jpg"",""stimuli/AF11_HE.jpg""]",stimuli/HF10_FO.jpg,stimuli/AM06_SC.jpg,stimuli/WF04_DO.jpg,stimuli/AF11_HE.jpg,pos4,stimuli/AF11_HE.jpg,HE,AF11,3,3.5,7,8,stimuli/stars_7.png,245,"[""FO"",""SC"",""DO"",""HE""]","[""HF10"",""AM06"",""WF04"",""AF11""]","[2,2,4,7]","[4,2,6,8]",NA,NA,NA,/Users/martinzettersten/GitHub/emogo/data-analysis/data/pilot-v1/raw/emogo-v1_PARTICIPANT_SESSION_2022-08-23_12h09.43.369.csv,206
show-reward,149,305317,0.0-149.0,p333790,emogo,test_session,model,match,uniform,NA,NA,NA,NA,NA,NA,NA,304665,306668,NA,NA,NA,NA,NA,NA,NA,NA,NA,NA,NA,7,NA,stimuli/stars_7.png,245,NA,NA,NA,NA,stimuli/AF11_HE.jpg,NA,NA,/Users/martinzettersten/GitHub/emogo/data-analysis/data/pilot-v1/raw/emogo-v1_PARTICIPANT_SESSION_2022-08-23_12h09.43.369.csv,206
explore-choice,150,307078,0.0-150.0,p333790,emogo,test_session,model,match,uniform,NA,NA,NA,NA,NA,NA,1262,306668,307930,"[""stimuli/WF04_FO.jpg"",""stimuli/HF10_SC.jpg"",""stimuli/AM06_DO.jpg"",""stimuli/AF11_HE.jpg""]",stimuli/WF04_FO.jpg,stimuli/HF10_SC.jpg,stimuli/AM06_DO.jpg,stimuli/AF11_HE.jpg,pos4,stimuli/AF11_HE.jpg,HE,AF11,3,4.5,9,8,stimuli/stars_9.png,249.5,"[""FO"",""SC"",""DO"",""HE""]","[""WF04"",""HF10"",""AM06"",""AF11""]","[5,4,3,9]","[6,4,2,8]",NA,NA,NA,/Users/martinzettersten/GitHub/emogo/data-analysis/data/pilot-v1/raw/emogo-v1_PARTICIPANT_SESSION_2022-08-23_12h09.43.369.csv,206
show-reward,151,309082,0.0-151.0,p333790,emogo,test_session,model,match,uniform,NA,NA,NA,NA,NA,NA,NA,308431,310435,NA,NA,NA,NA,NA,NA,NA,NA,NA,NA,NA,9,NA,stimuli/stars_9.png,249.5,NA,NA,NA,NA,stimuli/AF11_HE.jpg,NA,NA,/Users/martinzettersten/GitHub/emogo/data-analysis/data/pilot-v1/raw/emogo-v1_PARTICIPANT_SESSION_2022-08-23_12h09.43.369.csv,206
explore-choice,152,310993,0.0-152.0,p333790,emogo,test_session,model,match,uniform,NA,NA,NA,NA,NA,NA,1411,310435,311846,"[""stimuli/WF04_SC.jpg"",""stimuli/AM06_DO.jpg"",""stimuli/AF11_HE.jpg"",""stimuli/HF10_FO.jpg""]",stimuli/WF04_SC.jpg,stimuli/AM06_DO.jpg,stimuli/AF11_HE.jpg,stimuli/HF10_FO.jpg,pos3,stimuli/AF11_HE.jpg,HE,AF11,2,3.5,7,8,stimuli/stars_7.png,253,"[""SC"",""DO"",""HE"",""FO""]","[""WF04"",""AM06"",""AF11"",""HF10""]","[8,4,7,5]","[6,2,8,4]",NA,NA,NA,/Users/martinzettersten/GitHub/emogo/data-analysis/data/pilot-v1/raw/emogo-v1_PARTICIPANT_SESSION_2022-08-23_12h09.43.369.csv,206
show-reward,153,312998,0.0-153.0,p333790,emogo,test_session,model,match,uniform,NA,NA,NA,NA,NA,NA,NA,312348,314354,NA,NA,NA,NA,NA,NA,NA,NA,NA,NA,NA,7,NA,stimuli/stars_7.png,253,NA,NA,NA,NA,stimuli/AF11_HE.jpg,NA,NA,/Users/martinzettersten/GitHub/emogo/data-analysis/data/pilot-v1/raw/emogo-v1_PARTICIPANT_SESSION_2022-08-23_12h09.43.369.csv,206
explore-choice,154,314697,0.0-154.0,p333790,emogo,test_session,model,match,uniform,NA,NA,NA,NA,NA,NA,1195,314355,315550,"[""stimuli/AF11_SC.jpg"",""stimuli/AM06_FO.jpg"",""stimuli/WF04_HE.jpg"",""stimuli/HF10_DO.jpg""]",stimuli/AF11_SC.jpg,stimuli/AM06_FO.jpg,stimuli/WF04_HE.jpg,stimuli/HF10_DO.jpg,pos1,stimuli/AF11_SC.jpg,SC,AF11,0,5,10,8,stimuli/stars_10.png,258,"[""SC"",""FO"",""HE"",""DO""]","[""AF11"",""AM06"",""WF04"",""HF10""]","[10,3,4,2]","[8,2,6,4]",NA,NA,NA,/Users/martinzettersten/GitHub/emogo/data-analysis/data/pilot-v1/raw/emogo-v1_PARTICIPANT_SESSION_2022-08-23_12h09.43.369.csv,206
show-reward,155,316703,0.0-155.0,p333790,emogo,test_session,model,match,uniform,NA,NA,NA,NA,NA,NA,NA,316055,318061,NA,NA,NA,NA,NA,NA,NA,NA,NA,NA,NA,10,NA,stimuli/stars_10.png,258,NA,NA,NA,NA,stimuli/AF11_SC.jpg,NA,NA,/Users/martinzettersten/GitHub/emogo/data-analysis/data/pilot-v1/raw/emogo-v1_PARTICIPANT_SESSION_2022-08-23_12h09.43.369.csv,206
explore-choice,156,318494,0.0-156.0,p333790,emogo,test_session,model,match,uniform,NA,NA,NA,NA,NA,NA,1288,318061,319349,"[""stimuli/AF11_FO.jpg"",""stimuli/HF10_HE.jpg"",""stimuli/WF04_DO.jpg"",""stimuli/AM06_SC.jpg""]",stimuli/AF11_FO.jpg,stimuli/HF10_HE.jpg,stimuli/WF04_DO.jpg,stimuli/AM06_SC.jpg,pos1,stimuli/AF11_FO.jpg,FO,AF11,0,4,8,8,stimuli/stars_8.png,262,"[""FO"",""HE"",""DO"",""SC""]","[""AF11"",""HF10"",""WF04"",""AM06""]","[8,4,6,1]","[8,4,6,2]",NA,NA,NA,/Users/martinzettersten/GitHub/emogo/data-analysis/data/pilot-v1/raw/emogo-v1_PARTICIPANT_SESSION_2022-08-23_12h09.43.369.csv,206
show-reward,157,320498,0.0-157.0,p333790,emogo,test_session,model,match,uniform,NA,NA,NA,NA,NA,NA,NA,319853,321858,NA,NA,NA,NA,NA,NA,NA,NA,NA,NA,NA,8,NA,stimuli/stars_8.png,262,NA,NA,NA,NA,stimuli/AF11_FO.jpg,NA,NA,/Users/martinzettersten/GitHub/emogo/data-analysis/data/pilot-v1/raw/emogo-v1_PARTICIPANT_SESSION_2022-08-23_12h09.43.369.csv,206
explore-choice,158,322483,0.0-158.0,p333790,emogo,test_session,model,match,uniform,NA,NA,NA,NA,NA,NA,1484,321859,323343,"[""stimuli/AM06_DO.jpg"",""stimuli/WF04_SC.jpg"",""stimuli/AF11_FO.jpg"",""stimuli/HF10_HE.jpg""]",stimuli/AM06_DO.jpg,stimuli/WF04_SC.jpg,stimuli/AF11_FO.jpg,stimuli/HF10_HE.jpg,pos3,stimuli/AF11_FO.jpg,FO,AF11,2,5,10,8,stimuli/stars_10.png,267,"[""DO"",""SC"",""FO"",""HE""]","[""AM06"",""WF04"",""AF11"",""HF10""]","[1,6,10,2]","[2,6,8,4]",NA,NA,NA,/Users/martinzettersten/GitHub/emogo/data-analysis/data/pilot-v1/raw/emogo-v1_PARTICIPANT_SESSION_2022-08-23_12h09.43.369.csv,206
show-reward,159,324488,0.0-159.0,p333790,emogo,test_session,model,match,uniform,NA,NA,NA,NA,NA,NA,NA,323844,325849,NA,NA,NA,NA,NA,NA,NA,NA,NA,NA,NA,10,NA,stimuli/stars_10.png,267,NA,NA,NA,NA,stimuli/AF11_FO.jpg,NA,NA,/Users/martinzettersten/GitHub/emogo/data-analysis/data/pilot-v1/raw/emogo-v1_PARTICIPANT_SESSION_2022-08-23_12h09.43.369.csv,206
explore-choice,160,327096,0.0-160.0,p333790,emogo,test_session,model,match,uniform,NA,NA,NA,NA,NA,NA,2103,325850,327953,"[""stimuli/HF10_FO.jpg"",""stimuli/WF04_DO.jpg"",""stimuli/AM06_HE.jpg"",""stimuli/AF11_SC.jpg""]",stimuli/HF10_FO.jpg,stimuli/WF04_DO.jpg,stimuli/AM06_HE.jpg,stimuli/AF11_SC.jpg,pos4,stimuli/AF11_SC.jpg,SC,AF11,3,4,8,8,stimuli/stars_8.png,271,"[""FO"",""DO"",""HE"",""SC""]","[""HF10"",""WF04"",""AM06"",""AF11""]","[6,4,4,8]","[4,6,2,8]",NA,NA,NA,/Users/martinzettersten/GitHub/emogo/data-analysis/data/pilot-v1/raw/emogo-v1_PARTICIPANT_SESSION_2022-08-23_12h09.43.369.csv,206
show-reward,161,329100,0.0-161.0,p333790,emogo,test_session,model,match,uniform,NA,NA,NA,NA,NA,NA,NA,328458,330462,NA,NA,NA,NA,NA,NA,NA,NA,NA,NA,NA,8,NA,stimuli/stars_8.png,271,NA,NA,NA,NA,stimuli/AF11_SC.jpg,NA,NA,/Users/martinzettersten/GitHub/emogo/data-analysis/data/pilot-v1/raw/emogo-v1_PARTICIPANT_SESSION_2022-08-23_12h09.43.369.csv,206
explore-choice,162,330989,0.0-162.0,p333790,emogo,test_session,model,match,uniform,NA,NA,NA,NA,NA,NA,1386,330463,331849,"[""stimuli/AM06_HE.jpg"",""stimuli/WF04_SC.jpg"",""stimuli/AF11_FO.jpg"",""stimuli/HF10_DO.jpg""]",stimuli/AM06_HE.jpg,stimuli/WF04_SC.jpg,stimuli/AF11_FO.jpg,stimuli/HF10_DO.jpg,pos3,stimuli/AF11_FO.jpg,FO,AF11,2,3,6,8,stimuli/stars_6.png,274,"[""HE"",""SC"",""FO"",""DO""]","[""AM06"",""WF04"",""AF11"",""HF10""]","[0,8,6,6]","[2,6,8,4]",NA,NA,NA,/Users/martinzettersten/GitHub/emogo/data-analysis/data/pilot-v1/raw/emogo-v1_PARTICIPANT_SESSION_2022-08-23_12h09.43.369.csv,206
show-reward,163,332993,0.0-163.0,p333790,emogo,test_session,model,match,uniform,NA,NA,NA,NA,NA,NA,NA,332351,334356,NA,NA,NA,NA,NA,NA,NA,NA,NA,NA,NA,6,NA,stimuli/stars_6.png,274,NA,NA,NA,NA,stimuli/AF11_FO.jpg,NA,NA,/Users/martinzettersten/GitHub/emogo/data-analysis/data/pilot-v1/raw/emogo-v1_PARTICIPANT_SESSION_2022-08-23_12h09.43.369.csv,206
explore-choice,164,335222,0.0-164.0,p333790,emogo,test_session,model,match,uniform,NA,NA,NA,NA,NA,NA,1729,334356,336085,"[""stimuli/AM06_SC.jpg"",""stimuli/WF04_HE.jpg"",""stimuli/AF11_FO.jpg"",""stimuli/HF10_DO.jpg""]",stimuli/AM06_SC.jpg,stimuli/WF04_HE.jpg,stimuli/AF11_FO.jpg,stimuli/HF10_DO.jpg,pos3,stimuli/AF11_FO.jpg,FO,AF11,2,4.5,9,8,stimuli/stars_9.png,278.5,"[""SC"",""HE"",""FO"",""DO""]","[""AM06"",""WF04"",""AF11"",""HF10""]","[1,8,9,5]","[2,6,8,4]",NA,NA,NA,/Users/martinzettersten/GitHub/emogo/data-analysis/data/pilot-v1/raw/emogo-v1_PARTICIPANT_SESSION_2022-08-23_12h09.43.369.csv,206
show-reward,165,337227,0.0-165.0,p333790,emogo,test_session,model,match,uniform,NA,NA,NA,NA,NA,NA,NA,336586,338590,NA,NA,NA,NA,NA,NA,NA,NA,NA,NA,NA,9,NA,stimuli/stars_9.png,278.5,NA,NA,NA,NA,stimuli/AF11_FO.jpg,NA,NA,/Users/martinzettersten/GitHub/emogo/data-analysis/data/pilot-v1/raw/emogo-v1_PARTICIPANT_SESSION_2022-08-23_12h09.43.369.csv,206
explore-choice,166,338880,0.0-166.0,p333790,emogo,test_session,model,match,uniform,NA,NA,NA,NA,NA,NA,1151,338591,339742,"[""stimuli/HF10_FO.jpg"",""stimuli/WF04_HE.jpg"",""stimuli/AF11_DO.jpg"",""stimuli/AM06_SC.jpg""]",stimuli/HF10_FO.jpg,stimuli/WF04_HE.jpg,stimuli/AF11_DO.jpg,stimuli/AM06_SC.jpg,pos3,stimuli/AF11_DO.jpg,DO,AF11,2,4.5,9,8,stimuli/stars_9.png,283,"[""FO"",""HE"",""DO"",""SC""]","[""HF10"",""WF04"",""AF11"",""AM06""]","[5,4,9,1]","[4,6,8,2]",NA,NA,NA,/Users/martinzettersten/GitHub/emogo/data-analysis/data/pilot-v1/raw/emogo-v1_PARTICIPANT_SESSION_2022-08-23_12h09.43.369.csv,206
show-reward,167,340882,0.0-167.0,p333790,emogo,test_session,model,match,uniform,NA,NA,NA,NA,NA,NA,NA,340244,342246,NA,NA,NA,NA,NA,NA,NA,NA,NA,NA,NA,9,NA,stimuli/stars_9.png,283,NA,NA,NA,NA,stimuli/AF11_DO.jpg,NA,NA,/Users/martinzettersten/GitHub/emogo/data-analysis/data/pilot-v1/raw/emogo-v1_PARTICIPANT_SESSION_2022-08-23_12h09.43.369.csv,206
explore-choice,168,342600,0.0-168.0,p333790,emogo,test_session,model,match,uniform,NA,NA,NA,NA,NA,NA,1214,342247,343461,"[""stimuli/AF11_HE.jpg"",""stimuli/AM06_SC.jpg"",""stimuli/WF04_DO.jpg"",""stimuli/HF10_FO.jpg""]",stimuli/AF11_HE.jpg,stimuli/AM06_SC.jpg,stimuli/WF04_DO.jpg,stimuli/HF10_FO.jpg,pos1,stimuli/AF11_HE.jpg,HE,AF11,0,3.5,7,8,stimuli/stars_7.png,286.5,"[""HE"",""SC"",""DO"",""FO""]","[""AF11"",""AM06"",""WF04"",""HF10""]","[7,2,4,2]","[8,2,6,4]",NA,NA,NA,/Users/martinzettersten/GitHub/emogo/data-analysis/data/pilot-v1/raw/emogo-v1_PARTICIPANT_SESSION_2022-08-23_12h09.43.369.csv,206
show-reward,169,344602,0.0-169.0,p333790,emogo,test_session,model,match,uniform,NA,NA,NA,NA,NA,NA,NA,343965,345966,NA,NA,NA,NA,NA,NA,NA,NA,NA,NA,NA,7,NA,stimuli/stars_7.png,286.5,NA,NA,NA,NA,stimuli/AF11_HE.jpg,NA,NA,/Users/martinzettersten/GitHub/emogo/data-analysis/data/pilot-v1/raw/emogo-v1_PARTICIPANT_SESSION_2022-08-23_12h09.43.369.csv,206
explore-choice,170,345871,0.0-170.0,p333790,emogo,test_session,model,match,uniform,NA,NA,NA,NA,NA,NA,767,345967,346734,"[""stimuli/AF11_FO.jpg"",""stimuli/AM06_DO.jpg"",""stimuli/HF10_SC.jpg"",""stimuli/WF04_HE.jpg""]",stimuli/AF11_FO.jpg,stimuli/AM06_DO.jpg,stimuli/HF10_SC.jpg,stimuli/WF04_HE.jpg,pos1,stimuli/AF11_FO.jpg,FO,AF11,0,3,6,8,stimuli/stars_6.png,289.5,"[""FO"",""DO"",""SC"",""HE""]","[""AF11"",""AM06"",""HF10"",""WF04""]","[6,4,2,5]","[8,2,4,6]",NA,NA,NA,/Users/martinzettersten/GitHub/emogo/data-analysis/data/pilot-v1/raw/emogo-v1_PARTICIPANT_SESSION_2022-08-23_12h09.43.369.csv,206
show-reward,171,347874,0.0-171.0,p333790,emogo,test_session,model,match,uniform,NA,NA,NA,NA,NA,NA,NA,347236,349239,NA,NA,NA,NA,NA,NA,NA,NA,NA,NA,NA,6,NA,stimuli/stars_6.png,289.5,NA,NA,NA,NA,stimuli/AF11_FO.jpg,NA,NA,/Users/martinzettersten/GitHub/emogo/data-analysis/data/pilot-v1/raw/emogo-v1_PARTICIPANT_SESSION_2022-08-23_12h09.43.369.csv,206
explore-choice,172,349801,0.0-172.0,p333790,emogo,test_session,model,match,uniform,NA,NA,NA,NA,NA,NA,1426,349239,350665,"[""stimuli/WF04_DO.jpg"",""stimuli/AM06_FO.jpg"",""stimuli/HF10_HE.jpg"",""stimuli/AF11_SC.jpg""]",stimuli/WF04_DO.jpg,stimuli/AM06_FO.jpg,stimuli/HF10_HE.jpg,stimuli/AF11_SC.jpg,pos4,stimuli/AF11_SC.jpg,SC,AF11,3,4,8,8,stimuli/stars_8.png,293.5,"[""DO"",""FO"",""HE"",""SC""]","[""WF04"",""AM06"",""HF10"",""AF11""]","[7,3,6,8]","[6,2,4,8]",NA,NA,NA,/Users/martinzettersten/GitHub/emogo/data-analysis/data/pilot-v1/raw/emogo-v1_PARTICIPANT_SESSION_2022-08-23_12h09.43.369.csv,206
show-reward,173,351805,0.0-173.0,p333790,emogo,test_session,model,match,uniform,NA,NA,NA,NA,NA,NA,NA,351165,353170,NA,NA,NA,NA,NA,NA,NA,NA,NA,NA,NA,8,NA,stimuli/stars_8.png,293.5,NA,NA,NA,NA,stimuli/AF11_SC.jpg,NA,NA,/Users/martinzettersten/GitHub/emogo/data-analysis/data/pilot-v1/raw/emogo-v1_PARTICIPANT_SESSION_2022-08-23_12h09.43.369.csv,206
explore-choice,174,353504,0.0-174.0,p333790,emogo,test_session,model,match,uniform,NA,NA,NA,NA,NA,NA,1196,353171,354367,"[""stimuli/AM06_FO.jpg"",""stimuli/HF10_SC.jpg"",""stimuli/AF11_DO.jpg"",""stimuli/WF04_HE.jpg""]",stimuli/AM06_FO.jpg,stimuli/HF10_SC.jpg,stimuli/AF11_DO.jpg,stimuli/WF04_HE.jpg,pos3,stimuli/AF11_DO.jpg,DO,AF11,2,5,10,8,stimuli/stars_10.png,298.5,"[""FO"",""SC"",""DO"",""HE""]","[""AM06"",""HF10"",""AF11"",""WF04""]","[0,6,10,4]","[2,4,8,6]",NA,NA,NA,/Users/martinzettersten/GitHub/emogo/data-analysis/data/pilot-v1/raw/emogo-v1_PARTICIPANT_SESSION_2022-08-23_12h09.43.369.csv,206
show-reward,175,355506,0.0-175.0,p333790,emogo,test_session,model,match,uniform,NA,NA,NA,NA,NA,NA,NA,354869,356871,NA,NA,NA,NA,NA,NA,NA,NA,NA,NA,NA,10,NA,stimuli/stars_10.png,298.5,NA,NA,NA,NA,stimuli/AF11_DO.jpg,NA,NA,/Users/martinzettersten/GitHub/emogo/data-analysis/data/pilot-v1/raw/emogo-v1_PARTICIPANT_SESSION_2022-08-23_12h09.43.369.csv,206
explore-choice,176,357016,0.0-176.0,p333790,emogo,test_session,model,match,uniform,NA,NA,NA,NA,NA,NA,1007,356872,357879,"[""stimuli/AF11_HE.jpg"",""stimuli/AM06_SC.jpg"",""stimuli/HF10_DO.jpg"",""stimuli/WF04_FO.jpg""]",stimuli/AF11_HE.jpg,stimuli/AM06_SC.jpg,stimuli/HF10_DO.jpg,stimuli/WF04_FO.jpg,pos1,stimuli/AF11_HE.jpg,HE,AF11,0,5,10,8,stimuli/stars_10.png,303.5,"[""HE"",""SC"",""DO"",""FO""]","[""AF11"",""AM06"",""HF10"",""WF04""]","[10,2,2,7]","[8,2,4,6]",NA,NA,NA,/Users/martinzettersten/GitHub/emogo/data-analysis/data/pilot-v1/raw/emogo-v1_PARTICIPANT_SESSION_2022-08-23_12h09.43.369.csv,206
show-reward,177,359018,0.0-177.0,p333790,emogo,test_session,model,match,uniform,NA,NA,NA,NA,NA,NA,NA,358381,360383,NA,NA,NA,NA,NA,NA,NA,NA,NA,NA,NA,10,NA,stimuli/stars_10.png,303.5,NA,NA,NA,NA,stimuli/AF11_HE.jpg,NA,NA,/Users/martinzettersten/GitHub/emogo/data-analysis/data/pilot-v1/raw/emogo-v1_PARTICIPANT_SESSION_2022-08-23_12h09.43.369.csv,206
explore-choice,178,360768,0.0-178.0,p333790,emogo,test_session,model,match,uniform,NA,NA,NA,NA,NA,NA,1245,360383,361628,"[""stimuli/HF10_SC.jpg"",""stimuli/AM06_HE.jpg"",""stimuli/AF11_DO.jpg"",""stimuli/WF04_FO.jpg""]",stimuli/HF10_SC.jpg,stimuli/AM06_HE.jpg,stimuli/AF11_DO.jpg,stimuli/WF04_FO.jpg,pos3,stimuli/AF11_DO.jpg,DO,AF11,2,4,8,8,stimuli/stars_8.png,307.5,"[""SC"",""HE"",""DO"",""FO""]","[""HF10"",""AM06"",""AF11"",""WF04""]","[3,3,8,5]","[4,2,8,6]",NA,NA,NA,/Users/martinzettersten/GitHub/emogo/data-analysis/data/pilot-v1/raw/emogo-v1_PARTICIPANT_SESSION_2022-08-23_12h09.43.369.csv,206
show-reward,179,362770,0.0-179.0,p333790,emogo,test_session,model,match,uniform,NA,NA,NA,NA,NA,NA,NA,362133,364135,NA,NA,NA,NA,NA,NA,NA,NA,NA,NA,NA,8,NA,stimuli/stars_8.png,307.5,NA,NA,NA,NA,stimuli/AF11_DO.jpg,NA,NA,/Users/martinzettersten/GitHub/emogo/data-analysis/data/pilot-v1/raw/emogo-v1_PARTICIPANT_SESSION_2022-08-23_12h09.43.369.csv,206
explore-choice,180,364085,0.0-180.0,p333790,emogo,test_session,model,match,uniform,NA,NA,NA,NA,NA,NA,812,364135,364947,"[""stimuli/WF04_SC.jpg"",""stimuli/HF10_DO.jpg"",""stimuli/AF11_HE.jpg"",""stimuli/AM06_FO.jpg""]",stimuli/WF04_SC.jpg,stimuli/HF10_DO.jpg,stimuli/AF11_HE.jpg,stimuli/AM06_FO.jpg,pos3,stimuli/AF11_HE.jpg,HE,AF11,2,5,10,8,stimuli/stars_10.png,312.5,"[""SC"",""DO"",""HE"",""FO""]","[""WF04"",""HF10"",""AF11"",""AM06""]","[7,3,10,3]","[6,4,8,2]",NA,NA,NA,/Users/martinzettersten/GitHub/emogo/data-analysis/data/pilot-v1/raw/emogo-v1_PARTICIPANT_SESSION_2022-08-23_12h09.43.369.csv,206
show-reward,181,366089,0.0-181.0,p333790,emogo,test_session,model,match,uniform,NA,NA,NA,NA,NA,NA,NA,365450,367455,NA,NA,NA,NA,NA,NA,NA,NA,NA,NA,NA,10,NA,stimuli/stars_10.png,312.5,NA,NA,NA,NA,stimuli/AF11_HE.jpg,NA,NA,/Users/martinzettersten/GitHub/emogo/data-analysis/data/pilot-v1/raw/emogo-v1_PARTICIPANT_SESSION_2022-08-23_12h09.43.369.csv,206
explore-choice,182,367724,0.0-182.0,p333790,emogo,test_session,model,match,uniform,NA,NA,NA,NA,NA,NA,1133,367456,368589,"[""stimuli/AM06_FO.jpg"",""stimuli/HF10_HE.jpg"",""stimuli/AF11_DO.jpg"",""stimuli/WF04_SC.jpg""]",stimuli/AM06_FO.jpg,stimuli/HF10_HE.jpg,stimuli/AF11_DO.jpg,stimuli/WF04_SC.jpg,pos3,stimuli/AF11_DO.jpg,DO,AF11,2,3.5,7,8,stimuli/stars_7.png,316,"[""FO"",""HE"",""DO"",""SC""]","[""AM06"",""HF10"",""AF11"",""WF04""]","[2,6,7,4]","[2,4,8,6]",NA,NA,NA,/Users/martinzettersten/GitHub/emogo/data-analysis/data/pilot-v1/raw/emogo-v1_PARTICIPANT_SESSION_2022-08-23_12h09.43.369.csv,206
show-reward,183,369730,0.0-183.0,p333790,emogo,test_session,model,match,uniform,NA,NA,NA,NA,NA,NA,NA,369090,371096,NA,NA,NA,NA,NA,NA,NA,NA,NA,NA,NA,7,NA,stimuli/stars_7.png,316,NA,NA,NA,NA,stimuli/AF11_DO.jpg,NA,NA,/Users/martinzettersten/GitHub/emogo/data-analysis/data/pilot-v1/raw/emogo-v1_PARTICIPANT_SESSION_2022-08-23_12h09.43.369.csv,206
explore-choice,184,371218,0.0-184.0,p333790,emogo,test_session,model,match,uniform,NA,NA,NA,NA,NA,NA,985,371096,372081,"[""stimuli/WF04_FO.jpg"",""stimuli/AM06_SC.jpg"",""stimuli/AF11_DO.jpg"",""stimuli/HF10_HE.jpg""]",stimuli/WF04_FO.jpg,stimuli/AM06_SC.jpg,stimuli/AF11_DO.jpg,stimuli/HF10_HE.jpg,pos3,stimuli/AF11_DO.jpg,DO,AF11,2,3.5,7,8,stimuli/stars_7.png,319.5,"[""FO"",""SC"",""DO"",""HE""]","[""WF04"",""AM06"",""AF11"",""HF10""]","[4,3,7,5]","[6,2,8,4]",NA,NA,NA,/Users/martinzettersten/GitHub/emogo/data-analysis/data/pilot-v1/raw/emogo-v1_PARTICIPANT_SESSION_2022-08-23_12h09.43.369.csv,206
show-reward,185,373224,0.0-185.0,p333790,emogo,test_session,model,match,uniform,NA,NA,NA,NA,NA,NA,NA,372584,374589,NA,NA,NA,NA,NA,NA,NA,NA,NA,NA,NA,7,NA,stimuli/stars_7.png,319.5,NA,NA,NA,NA,stimuli/AF11_DO.jpg,NA,NA,/Users/martinzettersten/GitHub/emogo/data-analysis/data/pilot-v1/raw/emogo-v1_PARTICIPANT_SESSION_2022-08-23_12h09.43.369.csv,206
explore-choice,186,375026,0.0-186.0,p333790,emogo,test_session,model,match,uniform,NA,NA,NA,NA,NA,NA,1298,374590,375888,"[""stimuli/AM06_FO.jpg"",""stimuli/AF11_HE.jpg"",""stimuli/WF04_DO.jpg"",""stimuli/HF10_SC.jpg""]",stimuli/AM06_FO.jpg,stimuli/AF11_HE.jpg,stimuli/WF04_DO.jpg,stimuli/HF10_SC.jpg,pos2,stimuli/AF11_HE.jpg,HE,AF11,1,3,6,8,stimuli/stars_6.png,322.5,"[""FO"",""HE"",""DO"",""SC""]","[""AM06"",""AF11"",""WF04"",""HF10""]","[2,6,4,4]","[2,8,6,4]",NA,NA,NA,/Users/martinzettersten/GitHub/emogo/data-analysis/data/pilot-v1/raw/emogo-v1_PARTICIPANT_SESSION_2022-08-23_12h09.43.369.csv,206
show-reward,187,377028,0.0-187.0,p333790,emogo,test_session,model,match,uniform,NA,NA,NA,NA,NA,NA,NA,376392,378394,NA,NA,NA,NA,NA,NA,NA,NA,NA,NA,NA,6,NA,stimuli/stars_6.png,322.5,NA,NA,NA,NA,stimuli/AF11_HE.jpg,NA,NA,/Users/martinzettersten/GitHub/emogo/data-analysis/data/pilot-v1/raw/emogo-v1_PARTICIPANT_SESSION_2022-08-23_12h09.43.369.csv,206
explore-choice,188,378866,0.0-188.0,p333790,emogo,test_session,model,match,uniform,NA,NA,NA,NA,NA,NA,1334,378395,379729,"[""stimuli/AF11_FO.jpg"",""stimuli/HF10_SC.jpg"",""stimuli/WF04_DO.jpg"",""stimuli/AM06_HE.jpg""]",stimuli/AF11_FO.jpg,stimuli/HF10_SC.jpg,stimuli/WF04_DO.jpg,stimuli/AM06_HE.jpg,pos1,stimuli/AF11_FO.jpg,FO,AF11,0,3.5,7,8,stimuli/stars_7.png,326,"[""FO"",""SC"",""DO"",""HE""]","[""AF11"",""HF10"",""WF04"",""AM06""]","[7,6,4,0]","[8,4,6,2]",NA,NA,NA,/Users/martinzettersten/GitHub/emogo/data-analysis/data/pilot-v1/raw/emogo-v1_PARTICIPANT_SESSION_2022-08-23_12h09.43.369.csv,206
show-reward,189,380869,0.0-189.0,p333790,emogo,test_session,model,match,uniform,NA,NA,NA,NA,NA,NA,NA,380232,382234,NA,NA,NA,NA,NA,NA,NA,NA,NA,NA,NA,7,NA,stimuli/stars_7.png,326,NA,NA,NA,NA,stimuli/AF11_FO.jpg,NA,NA,/Users/martinzettersten/GitHub/emogo/data-analysis/data/pilot-v1/raw/emogo-v1_PARTICIPANT_SESSION_2022-08-23_12h09.43.369.csv,206
explore-choice,190,382280,0.0-190.0,p333790,emogo,test_session,model,match,uniform,NA,NA,NA,NA,NA,NA,906,382235,383141,"[""stimuli/AF11_DO.jpg"",""stimuli/HF10_FO.jpg"",""stimuli/WF04_SC.jpg"",""stimuli/AM06_HE.jpg""]",stimuli/AF11_DO.jpg,stimuli/HF10_FO.jpg,stimuli/WF04_SC.jpg,stimuli/AM06_HE.jpg,pos1,stimuli/AF11_DO.jpg,DO,AF11,0,3.5,7,8,stimuli/stars_7.png,329.5,"[""DO"",""FO"",""SC"",""HE""]","[""AF11"",""HF10"",""WF04"",""AM06""]","[7,4,8,3]","[8,4,6,2]",NA,NA,NA,/Users/martinzettersten/GitHub/emogo/data-analysis/data/pilot-v1/raw/emogo-v1_PARTICIPANT_SESSION_2022-08-23_12h09.43.369.csv,206
show-reward,191,384285,0.0-191.0,p333790,emogo,test_session,model,match,uniform,NA,NA,NA,NA,NA,NA,NA,383646,385650,NA,NA,NA,NA,NA,NA,NA,NA,NA,NA,NA,7,NA,stimuli/stars_7.png,329.5,NA,NA,NA,NA,stimuli/AF11_DO.jpg,NA,NA,/Users/martinzettersten/GitHub/emogo/data-analysis/data/pilot-v1/raw/emogo-v1_PARTICIPANT_SESSION_2022-08-23_12h09.43.369.csv,206
explore-choice,192,385938,0.0-192.0,p333790,emogo,test_session,model,match,uniform,NA,NA,NA,NA,NA,NA,1150,385651,386801,"[""stimuli/AF11_SC.jpg"",""stimuli/WF04_FO.jpg"",""stimuli/AM06_DO.jpg"",""stimuli/HF10_HE.jpg""]",stimuli/AF11_SC.jpg,stimuli/WF04_FO.jpg,stimuli/AM06_DO.jpg,stimuli/HF10_HE.jpg,pos1,stimuli/AF11_SC.jpg,SC,AF11,0,3.5,7,8,stimuli/stars_7.png,333,"[""SC"",""FO"",""DO"",""HE""]","[""AF11"",""WF04"",""AM06"",""HF10""]","[7,8,3,3]","[8,6,2,4]",NA,NA,NA,/Users/martinzettersten/GitHub/emogo/data-analysis/data/pilot-v1/raw/emogo-v1_PARTICIPANT_SESSION_2022-08-23_12h09.43.369.csv,206
show-reward,193,387943,0.0-193.0,p333790,emogo,test_session,model,match,uniform,NA,NA,NA,NA,NA,NA,NA,387304,389309,NA,NA,NA,NA,NA,NA,NA,NA,NA,NA,NA,7,NA,stimuli/stars_7.png,333,NA,NA,NA,NA,stimuli/AF11_SC.jpg,NA,NA,/Users/martinzettersten/GitHub/emogo/data-analysis/data/pilot-v1/raw/emogo-v1_PARTICIPANT_SESSION_2022-08-23_12h09.43.369.csv,206
explore-choice,194,390274,0.0-194.0,p333790,emogo,test_session,model,match,uniform,NA,NA,NA,NA,NA,NA,1830,389309,391139,"[""stimuli/AM06_HE.jpg"",""stimuli/HF10_DO.jpg"",""stimuli/WF04_FO.jpg"",""stimuli/AF11_SC.jpg""]",stimuli/AM06_HE.jpg,stimuli/HF10_DO.jpg,stimuli/WF04_FO.jpg,stimuli/AF11_SC.jpg,pos4,stimuli/AF11_SC.jpg,SC,AF11,3,3,6,8,stimuli/stars_6.png,336,"[""HE"",""DO"",""FO"",""SC""]","[""AM06"",""HF10"",""WF04"",""AF11""]","[1,5,4,6]","[2,4,6,8]",NA,NA,NA,/Users/martinzettersten/GitHub/emogo/data-analysis/data/pilot-v1/raw/emogo-v1_PARTICIPANT_SESSION_2022-08-23_12h09.43.369.csv,206
show-reward,195,392280,0.0-195.0,p333790,emogo,test_session,model,match,uniform,NA,NA,NA,NA,NA,NA,NA,391640,393645,NA,NA,NA,NA,NA,NA,NA,NA,NA,NA,NA,6,NA,stimuli/stars_6.png,336,NA,NA,NA,NA,stimuli/AF11_SC.jpg,NA,NA,/Users/martinzettersten/GitHub/emogo/data-analysis/data/pilot-v1/raw/emogo-v1_PARTICIPANT_SESSION_2022-08-23_12h09.43.369.csv,206
explore-choice,196,394250,0.0-196.0,p333790,emogo,test_session,model,match,uniform,NA,NA,NA,NA,NA,NA,1468,393646,395114,"[""stimuli/AM06_DO.jpg"",""stimuli/HF10_FO.jpg"",""stimuli/WF04_HE.jpg"",""stimuli/AF11_SC.jpg""]",stimuli/AM06_DO.jpg,stimuli/HF10_FO.jpg,stimuli/WF04_HE.jpg,stimuli/AF11_SC.jpg,pos4,stimuli/AF11_SC.jpg,SC,AF11,3,3,6,8,stimuli/stars_6.png,339,"[""DO"",""FO"",""HE"",""SC""]","[""AM06"",""HF10"",""WF04"",""AF11""]","[0,2,6,6]","[2,4,6,8]",NA,NA,NA,/Users/martinzettersten/GitHub/emogo/data-analysis/data/pilot-v1/raw/emogo-v1_PARTICIPANT_SESSION_2022-08-23_12h09.43.369.csv,206
show-reward,197,396252,0.0-197.0,p333790,emogo,test_session,model,match,uniform,NA,NA,NA,NA,NA,NA,NA,395617,397618,NA,NA,NA,NA,NA,NA,NA,NA,NA,NA,NA,6,NA,stimuli/stars_6.png,339,NA,NA,NA,NA,stimuli/AF11_SC.jpg,NA,NA,/Users/martinzettersten/GitHub/emogo/data-analysis/data/pilot-v1/raw/emogo-v1_PARTICIPANT_SESSION_2022-08-23_12h09.43.369.csv,206
instructions,198,399819,0.0-198.0,p333790,emogo,test_session,model,match,uniform,NA,NA,NA,NA,NA,"[{""page_index"":0,""viewing_time"":3565}]",3565,NA,NA,NA,NA,NA,NA,NA,NA,NA,NA,NA,NA,NA,NA,NA,NA,NA,NA,NA,NA,NA,NA,NA,NA,/Users/martinzettersten/GitHub/emogo/data-analysis/data/pilot-v1/raw/emogo-v1_PARTICIPANT_SESSION_2022-08-23_12h09.43.369.csv,206
survey-text,199,411368,0.0-199.0-0.0,p333790,emogo,test_session,model,match,uniform,NA,NA,NA,NA,NA,NA,11545,NA,NA,NA,NA,NA,NA,NA,NA,NA,NA,NA,NA,NA,NA,NA,NA,NA,NA,NA,NA,NA,NA,"{""age"":""35""}",NA,/Users/martinzettersten/GitHub/emogo/data-analysis/data/pilot-v1/raw/emogo-v1_PARTICIPANT_SESSION_2022-08-23_12h09.43.369.csv,206
survey-text,200,413659,0.0-199.0-1.0,p333790,emogo,test_session,model,match,uniform,NA,NA,NA,NA,NA,NA,2289,NA,NA,NA,NA,NA,NA,NA,NA,NA,NA,NA,NA,NA,NA,NA,NA,NA,NA,NA,NA,NA,NA,"{""gender"":""f""}",NA,/Users/martinzettersten/GitHub/emogo/data-analysis/data/pilot-v1/raw/emogo-v1_PARTICIPANT_SESSION_2022-08-23_12h09.43.369.csv,206
survey-text,201,415936,0.0-199.0-2.0,p333790,emogo,test_session,model,match,uniform,NA,NA,NA,NA,NA,NA,2276,NA,NA,NA,NA,NA,NA,NA,NA,NA,NA,NA,NA,NA,NA,NA,NA,NA,NA,NA,NA,NA,NA,"{""country"":""us""}",NA,/Users/martinzettersten/GitHub/emogo/data-analysis/data/pilot-v1/raw/emogo-v1_PARTICIPANT_SESSION_2022-08-23_12h09.43.369.csv,206
survey-text,202,419404,0.0-199.0-3.0,p333790,emogo,test_session,model,match,uniform,NA,NA,NA,NA,NA,NA,3466,NA,NA,NA,NA,NA,NA,NA,NA,NA,NA,NA,NA,NA,NA,NA,NA,NA,NA,NA,NA,NA,NA,"{""language"":""eng"",""other_languages"":""""}",NA,/Users/martinzettersten/GitHub/emogo/data-analysis/data/pilot-v1/raw/emogo-v1_PARTICIPANT_SESSION_2022-08-23_12h09.43.369.csv,206
survey-multi-select,203,440678,0.0-200.0,p333790,emogo,test_session,model,match,uniform,NA,NA,NA,NA,NA,NA,21270,NA,NA,NA,NA,NA,NA,NA,NA,NA,NA,NA,NA,NA,NA,NA,NA,NA,NA,NA,NA,NA,NA,"{""race"":[""Other""]}",[0],/Users/martinzettersten/GitHub/emogo/data-analysis/data/pilot-v1/raw/emogo-v1_PARTICIPANT_SESSION_2022-08-23_12h09.43.369.csv,206
survey-multi-choice,204,443877,0.0-201.0,p333790,emogo,test_session,model,match,uniform,NA,NA,NA,NA,NA,NA,3199,NA,NA,NA,NA,NA,NA,NA,NA,NA,NA,NA,NA,NA,NA,NA,NA,NA,NA,NA,NA,NA,NA,"{""education"":""Doctoral degree""}",[0],/Users/martinzettersten/GitHub/emogo/data-analysis/data/pilot-v1/raw/emogo-v1_PARTICIPANT_SESSION_2022-08-23_12h09.43.369.csv,206
survey-text,205,456966,0.0-202.0,p333790,emogo,test_session,model,match,uniform,NA,NA,NA,NA,NA,NA,13084,NA,NA,NA,NA,NA,NA,NA,NA,NA,NA,NA,NA,NA,NA,NA,NA,NA,NA,NA,NA,NA,NA,"{""patterns"":""patterns"",""strategy"":""strategy"",""comments"":""rista""}",NA,/Users/martinzettersten/GitHub/emogo/data-analysis/data/pilot-v1/raw/emogo-v1_PARTICIPANT_SESSION_2022-08-23_12h09.43.369.csv,206
pavlovia,0,8,0.0-0.0,p502299,emogo,test_session,model,mismatch,uniform,NA,NA,NA,NA,NA,NA,NA,NA,NA,NA,NA,NA,NA,NA,NA,NA,NA,NA,NA,NA,NA,NA,NA,NA,NA,NA,NA,NA,NA,NA,NA,/Users/martinzettersten/GitHub/emogo/data-analysis/data/pilot-v1/raw/emogo-v1_PARTICIPANT_SESSION_2022-08-23_14h20.00.17.csv,206
preload,1,10094,0.0-1.0,p502299,emogo,test_session,model,mismatch,uniform,TRUE,FALSE,[],[],[],NA,NA,NA,NA,NA,NA,NA,NA,NA,NA,NA,NA,NA,NA,NA,NA,NA,NA,NA,NA,NA,NA,NA,NA,NA,NA,/Users/martinzettersten/GitHub/emogo/data-analysis/data/pilot-v1/raw/emogo-v1_PARTICIPANT_SESSION_2022-08-23_14h20.00.17.csv,206
instructions,2,15519,0.0-2.0,p502299,emogo,test_session,model,mismatch,uniform,NA,NA,NA,NA,NA,"[{""page_index"":0,""viewing_time"":5423.999999999998}]",5423.999999999998,NA,NA,NA,NA,NA,NA,NA,NA,NA,NA,NA,NA,NA,NA,NA,NA,NA,NA,NA,NA,NA,NA,NA,NA,/Users/martinzettersten/GitHub/emogo/data-analysis/data/pilot-v1/raw/emogo-v1_PARTICIPANT_SESSION_2022-08-23_14h20.00.17.csv,206
explore-choice,3,18801,0.0-3.0,p502299,emogo,test_session,model,mismatch,uniform,NA,NA,NA,NA,NA,NA,2780,16622,19402,"[""stimuli/sheep.jpg"",""stimuli/hammer.jpg"",""stimuli/basketball.jpg"",""stimuli/horse.jpg""]",stimuli/sheep.jpg,stimuli/hammer.jpg,stimuli/basketball.jpg,stimuli/horse.jpg,pos4,stimuli/horse.jpg,NA,NA,3,64,64,64,stimuli/stars_8.png,65,NA,NA,NA,NA,NA,NA,NA,/Users/martinzettersten/GitHub/emogo/data-analysis/data/pilot-v1/raw/emogo-v1_PARTICIPANT_SESSION_2022-08-23_14h20.00.17.csv,206
explore-choice,4,20585,0.0-4.0,p502299,emogo,test_session,model,mismatch,uniform,NA,NA,NA,NA,NA,NA,1282,19904,21186,"[""stimuli/hammer.jpg"",""stimuli/basketball.jpg"",""stimuli/horse.jpg"",""stimuli/sheep.jpg""]",stimuli/hammer.jpg,stimuli/basketball.jpg,stimuli/horse.jpg,stimuli/sheep.jpg,pos1,stimuli/hammer.jpg,NA,NA,0,8,8,8,stimuli/stars_2.png,9,NA,NA,NA,NA,NA,NA,NA,/Users/martinzettersten/GitHub/emogo/data-analysis/data/pilot-v1/raw/emogo-v1_PARTICIPANT_SESSION_2022-08-23_14h20.00.17.csv,206
instructions,5,32100,0.0-5.0,p502299,emogo,test_session,model,mismatch,uniform,NA,NA,NA,NA,NA,"[{""page_index"":0,""viewing_time"":11503}]",11503,NA,NA,NA,NA,NA,NA,NA,NA,NA,NA,NA,NA,NA,NA,NA,NA,NA,NA,NA,NA,NA,NA,NA,NA,/Users/martinzettersten/GitHub/emogo/data-analysis/data/pilot-v1/raw/emogo-v1_PARTICIPANT_SESSION_2022-08-23_14h20.00.17.csv,206
explore-choice,6,36730,0.0-6.0,p502299,emogo,test_session,model,mismatch,uniform,NA,NA,NA,NA,NA,NA,4127,33204,37331,"[""stimuli/WF11_SUR.jpg"",""stimuli/BM03_SC.jpg"",""stimuli/HM09_HO.jpg"",""stimuli/BF05_AO.jpg""]",stimuli/WF11_SUR.jpg,stimuli/BM03_SC.jpg,stimuli/HM09_HO.jpg,stimuli/BF05_AO.jpg,pos1,stimuli/WF11_SUR.jpg,SUR,WF11,0,4,8,6,stimuli/stars_8.png,5,"[""SUR"",""SC"",""HO"",""AO""]","[""WF11"",""BM03"",""HM09"",""BF05""]","[8,6,10,2]","[6,4,8,2]",NA,NA,NA,/Users/martinzettersten/GitHub/emogo/data-analysis/data/pilot-v1/raw/emogo-v1_PARTICIPANT_SESSION_2022-08-23_14h20.00.17.csv,206
show-reward,7,38735,0.0-7.0,p502299,emogo,test_session,model,mismatch,uniform,NA,NA,NA,NA,NA,NA,NA,37834,39836,NA,NA,NA,NA,NA,NA,NA,NA,NA,NA,NA,8,NA,stimuli/stars_8.png,5,NA,NA,NA,NA,stimuli/WF11_SUR.jpg,NA,NA,/Users/martinzettersten/GitHub/emogo/data-analysis/data/pilot-v1/raw/emogo-v1_PARTICIPANT_SESSION_2022-08-23_14h20.00.17.csv,206
