"trial_type","trial_index","time_elapsed","internal_node_id","subject","workerId","hitId","assignmentId","structure_condition","match_condition","noise_type","success","timeout","failed_images","failed_audio","failed_video","view_history","rt","start_time","end_time","stimuli","image1","image2","image3","image4","choiceLocation","choiceImage","choiceEmotion","choiceModel","choice_index","reward_score","reward","reward_score_unadjusted","reward_image","score_after_trial","emotions","models","rewards","rewards_unadjusted","stimulus","response","question_order"
"pavlovia","0","17","0.0-0.0","p762381","A1VJ4ZOXP9PUCP","336OE47KI3QZCSCUXSQ8J11UOZXVWV","3PEIJLRY6VZU31FJN9WRW6T4NMYXWK","model","match","uniform","","","","","","","","","","","","","","","","","","","","","","","","","","","","","","",""
"preload","1","3694","0.0-1.0","p762381","A1VJ4ZOXP9PUCP","336OE47KI3QZCSCUXSQ8J11UOZXVWV","3PEIJLRY6VZU31FJN9WRW6T4NMYXWK","model","match","uniform","true","false","[]","[]","[]","","","","","","","","","","","","","","","","","","","","","","","","","",""
"fullscreen","2","8645","0.0-2.0","p762381","A1VJ4ZOXP9PUCP","336OE47KI3QZCSCUXSQ8J11UOZXVWV","3PEIJLRY6VZU31FJN9WRW6T4NMYXWK","model","match","uniform","true","","","","","","","","","","","","","","","","","","","","","","","","","","","","","",""
"instructions","3","11349","0.0-3.0","p762381","A1VJ4ZOXP9PUCP","336OE47KI3QZCSCUXSQ8J11UOZXVWV","3PEIJLRY6VZU31FJN9WRW6T4NMYXWK","model","match","uniform","","","","","","[{""page_index"":0,""viewing_time"":2701.399999976158}]","2702.399999976158","","","","","","","","","","","","","","","","","","","","","","","",""
"explore-choice","4","13673","0.0-4.0","p762381","A1VJ4ZOXP9PUCP","336OE47KI3QZCSCUXSQ8J11UOZXVWV","3PEIJLRY6VZU31FJN9WRW6T4NMYXWK","model","match","uniform","","","","","","","1820.5","12920.399999976158","14740.899999976158","[""stimuli/sheep.jpg"",""stimuli/hammer.jpg"",""stimuli/basketball.jpg"",""stimuli/horse.jpg""]","stimuli/sheep.jpg","stimuli/hammer.jpg","stimuli/basketball.jpg","stimuli/horse.jpg","pos4","stimuli/horse.jpg","","","3","64","64","64","stimuli/stars_8.png","65","","","","","","",""
"explore-choice","5","15464","0.0-5.0","p762381","A1VJ4ZOXP9PUCP","336OE47KI3QZCSCUXSQ8J11UOZXVWV","3PEIJLRY6VZU31FJN9WRW6T4NMYXWK","model","match","uniform","","","","","","","1287.1000000238419","15243.899999976158","16531","[""stimuli/hammer.jpg"",""stimuli/basketball.jpg"",""stimuli/horse.jpg"",""stimuli/sheep.jpg""]","stimuli/hammer.jpg","stimuli/basketball.jpg","stimuli/horse.jpg","stimuli/sheep.jpg","pos1","stimuli/hammer.jpg","","","0","8","8","8","stimuli/stars_2.png","9","","","","","","",""
"instructions","6","24363","0.0-6.0","p762381","A1VJ4ZOXP9PUCP","336OE47KI3QZCSCUXSQ8J11UOZXVWV","3PEIJLRY6VZU31FJN9WRW6T4NMYXWK","model","match","uniform","","","","","","[{""page_index"":0,""viewing_time"":8898.199999988079}]","8898.600000023842","","","","","","","","","","","","","","","","","","","","","","","",""
"explore-choice","7","27395","0.0-7.0","p762381","A1VJ4ZOXP9PUCP","336OE47KI3QZCSCUXSQ8J11UOZXVWV","3PEIJLRY6VZU31FJN9WRW6T4NMYXWK","model","match","uniform","","","","","","","2528.800000011921","25935.599999964237","28464.399999976158","[""stimuli/WF11_SC.jpg"",""stimuli/HM10_AO.jpg"",""stimuli/BF08_FO.jpg"",""stimuli/BM16_HO.jpg""]","stimuli/WF11_SC.jpg","stimuli/HM10_AO.jpg","stimuli/BF08_FO.jpg","stimuli/BM16_HO.jpg","pos4","stimuli/BM16_HO.jpg","HO","BM16","3","3","6","6","stimuli/stars_6.png","4","[""SC"",""AO"",""FO"",""HO""]","[""WF11"",""HM10"",""BF08"",""BM16""]","[0,2,8,6]","[2,4,8,6]","","",""
"show-reward","8","29403","0.0-8.0","p762381","A1VJ4ZOXP9PUCP","336OE47KI3QZCSCUXSQ8J11UOZXVWV","3PEIJLRY6VZU31FJN9WRW6T4NMYXWK","model","match","uniform","","","","","","","","28968.899999976158","30972.599999964237","","","","","","","","","","","","6","","stimuli/stars_6.png","4","","","","","stimuli/BM16_HO.jpg","",""
"explore-choice","9","31371","0.0-9.0","p762381","A1VJ4ZOXP9PUCP","336OE47KI3QZCSCUXSQ8J11UOZXVWV","3PEIJLRY6VZU31FJN9WRW6T4NMYXWK","model","match","uniform","","","","","","","1463.199999988079","30976.19999998808","32439.399999976158","[""stimuli/HM10_HO.jpg"",""stimuli/WF11_FO.jpg"",""stimuli/BF08_AO.jpg"",""stimuli/BM16_SC.jpg""]","stimuli/HM10_HO.jpg","stimuli/WF11_FO.jpg","stimuli/BF08_AO.jpg","stimuli/BM16_SC.jpg","pos1","stimuli/HM10_HO.jpg","HO","HM10","0","1","2","4","stimuli/stars_2.png","5","[""HO"",""FO"",""AO"",""SC""]","[""HM10"",""WF11"",""BF08"",""BM16""]","[2,4,10,6]","[4,2,8,6]","","",""
"show-reward","10","33383","0.0-10.0","p762381","A1VJ4ZOXP9PUCP","336OE47KI3QZCSCUXSQ8J11UOZXVWV","3PEIJLRY6VZU31FJN9WRW6T4NMYXWK","model","match","uniform","","","","","","","","32942.39999997616","34952.5","","","","","","","","","","","","2","","stimuli/stars_2.png","5","","","","","stimuli/HM10_HO.jpg","",""
"explore-choice","11","35511","0.0-11.0","p762381","A1VJ4ZOXP9PUCP","336OE47KI3QZCSCUXSQ8J11UOZXVWV","3PEIJLRY6VZU31FJN9WRW6T4NMYXWK","model","match","uniform","","","","","","","1623.199999988079","34954.19999998808","36577.39999997616","[""stimuli/BF08_HO.jpg"",""stimuli/WF11_FO.jpg"",""stimuli/HM10_SC.jpg"",""stimuli/BM16_AO.jpg""]","stimuli/BF08_HO.jpg","stimuli/WF11_FO.jpg","stimuli/HM10_SC.jpg","stimuli/BM16_AO.jpg","pos1","stimuli/BF08_HO.jpg","HO","BF08","0","3.5","7","8","stimuli/stars_7.png","8.5","[""HO"",""FO"",""SC"",""AO""]","[""BF08"",""WF11"",""HM10"",""BM16""]","[7,1,4,6]","[8,2,4,6]","","",""
"show-reward","12","37518","0.0-12.0","p762381","A1VJ4ZOXP9PUCP","336OE47KI3QZCSCUXSQ8J11UOZXVWV","3PEIJLRY6VZU31FJN9WRW6T4NMYXWK","model","match","uniform","","","","","","","","37082.59999996424","39087.89999997616","","","","","","","","","","","","7","","stimuli/stars_7.png","8.5","","","","","stimuli/BF08_HO.jpg","",""
"explore-choice","13","39857","0.0-13.0","p762381","A1VJ4ZOXP9PUCP","336OE47KI3QZCSCUXSQ8J11UOZXVWV","3PEIJLRY6VZU31FJN9WRW6T4NMYXWK","model","match","uniform","","","","","","","1834","39089.5","40923.5","[""stimuli/HM10_FO.jpg"",""stimuli/BM16_SC.jpg"",""stimuli/WF11_HO.jpg"",""stimuli/BF08_AO.jpg""]","stimuli/HM10_FO.jpg","stimuli/BM16_SC.jpg","stimuli/WF11_HO.jpg","stimuli/BF08_AO.jpg","pos3","stimuli/WF11_HO.jpg","HO","WF11","2","1","2","2","stimuli/stars_2.png","9.5","[""FO"",""SC"",""HO"",""AO""]","[""HM10"",""BM16"",""WF11"",""BF08""]","[2,8,2,9]","[4,6,2,8]","","",""
"show-reward","14","41864","0.0-14.0","p762381","A1VJ4ZOXP9PUCP","336OE47KI3QZCSCUXSQ8J11UOZXVWV","3PEIJLRY6VZU31FJN9WRW6T4NMYXWK","model","match","uniform","","","","","","","","41428.89999997616","43434","","","","","","","","","","","","2","","stimuli/stars_2.png","9.5","","","","","stimuli/WF11_HO.jpg","",""
"explore-choice","15","43387","0.0-15.0","p762381","A1VJ4ZOXP9PUCP","336OE47KI3QZCSCUXSQ8J11UOZXVWV","3PEIJLRY6VZU31FJN9WRW6T4NMYXWK","model","match","uniform","","","","","","","1015.1999999880791","43436.09999996424","44451.299999952316","[""stimuli/BF08_HO.jpg"",""stimuli/WF11_AO.jpg"",""stimuli/HM10_FO.jpg"",""stimuli/BM16_SC.jpg""]","stimuli/BF08_HO.jpg","stimuli/WF11_AO.jpg","stimuli/HM10_FO.jpg","stimuli/BM16_SC.jpg","pos1","stimuli/BF08_HO.jpg","HO","BF08","0","5","10","8","stimuli/stars_10.png","14.5","[""HO"",""AO"",""FO"",""SC""]","[""BF08"",""WF11"",""HM10"",""BM16""]","[10,4,6,8]","[8,2,4,6]","","",""
"show-reward","16","45393","0.0-16.0","p762381","A1VJ4ZOXP9PUCP","336OE47KI3QZCSCUXSQ8J11UOZXVWV","3PEIJLRY6VZU31FJN9WRW6T4NMYXWK","model","match","uniform","","","","","","","","44959.39999997616","46963","","","","","","","","","","","","10","","stimuli/stars_10.png","14.5","","","","","stimuli/BF08_HO.jpg","",""
"explore-choice","17","46758","0.0-17.0","p762381","A1VJ4ZOXP9PUCP","336OE47KI3QZCSCUXSQ8J11UOZXVWV","3PEIJLRY6VZU31FJN9WRW6T4NMYXWK","model","match","uniform","","","","","","","862","46964.69999998808","47826.69999998808","[""stimuli/BM16_AO.jpg"",""stimuli/HM10_HO.jpg"",""stimuli/BF08_SC.jpg"",""stimuli/WF11_FO.jpg""]","stimuli/BM16_AO.jpg","stimuli/HM10_HO.jpg","stimuli/BF08_SC.jpg","stimuli/WF11_FO.jpg","pos3","stimuli/BF08_SC.jpg","SC","BF08","2","3.5","7","8","stimuli/stars_7.png","18","[""AO"",""HO"",""SC"",""FO""]","[""BM16"",""HM10"",""BF08"",""WF11""]","[5,2,7,2]","[6,4,8,2]","","",""
"show-reward","18","48764","0.0-18.0","p762381","A1VJ4ZOXP9PUCP","336OE47KI3QZCSCUXSQ8J11UOZXVWV","3PEIJLRY6VZU31FJN9WRW6T4NMYXWK","model","match","uniform","","","","","","","","48329.59999996424","50334.59999996424","","","","","","","","","","","","7","","stimuli/stars_7.png","18","","","","","stimuli/BF08_SC.jpg","",""
"explore-choice","19","50084","0.0-19.0","p762381","A1VJ4ZOXP9PUCP","336OE47KI3QZCSCUXSQ8J11UOZXVWV","3PEIJLRY6VZU31FJN9WRW6T4NMYXWK","model","match","uniform","","","","","","","813.3000000119209","50336.09999996424","51149.39999997616","[""stimuli/BF08_AO.jpg"",""stimuli/WF11_HO.jpg"",""stimuli/HM10_SC.jpg"",""stimuli/BM16_FO.jpg""]","stimuli/BF08_AO.jpg","stimuli/WF11_HO.jpg","stimuli/HM10_SC.jpg","stimuli/BM16_FO.jpg","pos1","stimuli/BF08_AO.jpg","AO","BF08","0","3.5","7","8","stimuli/stars_7.png","21.5","[""AO"",""HO"",""SC"",""FO""]","[""BF08"",""WF11"",""HM10"",""BM16""]","[7,3,4,4]","[8,2,4,6]","","",""
"show-reward","20","52090","0.0-20.0","p762381","A1VJ4ZOXP9PUCP","336OE47KI3QZCSCUXSQ8J11UOZXVWV","3PEIJLRY6VZU31FJN9WRW6T4NMYXWK","model","match","uniform","","","","","","","","51658.59999996424","53661.19999998808","","","","","","","","","","","","7","","stimuli/stars_7.png","21.5","","","","","stimuli/BF08_AO.jpg","",""
"explore-choice","21","53435","0.0-21.0","p762381","A1VJ4ZOXP9PUCP","336OE47KI3QZCSCUXSQ8J11UOZXVWV","3PEIJLRY6VZU31FJN9WRW6T4NMYXWK","model","match","uniform","","","","","","","841.5","53662.799999952316","54504.299999952316","[""stimuli/WF11_HO.jpg"",""stimuli/BM16_AO.jpg"",""stimuli/HM10_SC.jpg"",""stimuli/BF08_FO.jpg""]","stimuli/WF11_HO.jpg","stimuli/BM16_AO.jpg","stimuli/HM10_SC.jpg","stimuli/BF08_FO.jpg","pos4","stimuli/BF08_FO.jpg","FO","BF08","3","3","6","8","stimuli/stars_6.png","24.5","[""HO"",""AO"",""SC"",""FO""]","[""WF11"",""BM16"",""HM10"",""BF08""]","[1,6,2,6]","[2,6,4,8]","","",""
"show-reward","22","55440","0.0-22.0","p762381","A1VJ4ZOXP9PUCP","336OE47KI3QZCSCUXSQ8J11UOZXVWV","3PEIJLRY6VZU31FJN9WRW6T4NMYXWK","model","match","uniform","","","","","","","","55007.09999996424","57010.59999996424","","","","","","","","","","","","6","","stimuli/stars_6.png","24.5","","","","","stimuli/BF08_FO.jpg","",""
"explore-choice","23","56610","0.0-23.0","p762381","A1VJ4ZOXP9PUCP","336OE47KI3QZCSCUXSQ8J11UOZXVWV","3PEIJLRY6VZU31FJN9WRW6T4NMYXWK","model","match","uniform","","","","","","","662.6999999880791","57012.59999996424","57675.299999952316","[""stimuli/HM10_SC.jpg"",""stimuli/BM16_HO.jpg"",""stimuli/WF11_AO.jpg"",""stimuli/BF08_FO.jpg""]","stimuli/HM10_SC.jpg","stimuli/BM16_HO.jpg","stimuli/WF11_AO.jpg","stimuli/BF08_FO.jpg","pos2","stimuli/BM16_HO.jpg","HO","BM16","1","2.5","5","6","stimuli/stars_5.png","27","[""SC"",""HO"",""AO"",""FO""]","[""HM10"",""BM16"",""WF11"",""BF08""]","[2,5,4,7]","[4,6,2,8]","","",""
"show-reward","24","58617","0.0-24.0","p762381","A1VJ4ZOXP9PUCP","336OE47KI3QZCSCUXSQ8J11UOZXVWV","3PEIJLRY6VZU31FJN9WRW6T4NMYXWK","model","match","uniform","","","","","","","","58182.299999952316","60187.39999997616","","","","","","","","","","","","5","","stimuli/stars_5.png","27","","","","","stimuli/BM16_HO.jpg","",""
"explore-choice","25","60566","0.0-25.0","p762381","A1VJ4ZOXP9PUCP","336OE47KI3QZCSCUXSQ8J11UOZXVWV","3PEIJLRY6VZU31FJN9WRW6T4NMYXWK","model","match","uniform","","","","","","","1445.199999988079","60188.89999997616","61634.09999996424","[""stimuli/BF08_SC.jpg"",""stimuli/BM16_HO.jpg"",""stimuli/WF11_FO.jpg"",""stimuli/HM10_AO.jpg""]","stimuli/BF08_SC.jpg","stimuli/BM16_HO.jpg","stimuli/WF11_FO.jpg","stimuli/HM10_AO.jpg","pos4","stimuli/HM10_AO.jpg","AO","HM10","3","1.5","3","4","stimuli/stars_3.png","28.5","[""SC"",""HO"",""FO"",""AO""]","[""BF08"",""BM16"",""WF11"",""HM10""]","[7,5,3,3]","[8,6,2,4]","","",""
"show-reward","26","62570","0.0-26.0","p762381","A1VJ4ZOXP9PUCP","336OE47KI3QZCSCUXSQ8J11UOZXVWV","3PEIJLRY6VZU31FJN9WRW6T4NMYXWK","model","match","uniform","","","","","","","","62138.09999996424","64141.5","","","","","","","","","","","","3","","stimuli/stars_3.png","28.5","","","","","stimuli/HM10_AO.jpg","",""
"explore-choice","27","63753","0.0-27.0","p762381","A1VJ4ZOXP9PUCP","336OE47KI3QZCSCUXSQ8J11UOZXVWV","3PEIJLRY6VZU31FJN9WRW6T4NMYXWK","model","match","uniform","","","","","","","678.1999999880791","64142.89999997616","64821.09999996424","[""stimuli/WF11_SC.jpg"",""stimuli/BF08_FO.jpg"",""stimuli/BM16_AO.jpg"",""stimuli/HM10_HO.jpg""]","stimuli/WF11_SC.jpg","stimuli/BF08_FO.jpg","stimuli/BM16_AO.jpg","stimuli/HM10_HO.jpg","pos2","stimuli/BF08_FO.jpg","FO","BF08","1","5","10","8","stimuli/stars_10.png","33.5","[""SC"",""FO"",""AO"",""HO""]","[""WF11"",""BF08"",""BM16"",""HM10""]","[1,10,5,2]","[2,8,6,4]","","",""
"show-reward","28","65765","0.0-28.0","p762381","A1VJ4ZOXP9PUCP","336OE47KI3QZCSCUXSQ8J11UOZXVWV","3PEIJLRY6VZU31FJN9WRW6T4NMYXWK","model","match","uniform","","","","","","","","65325.799999952316","67335.69999998808","","","","","","","","","","","","10","","stimuli/stars_10.png","33.5","","","","","stimuli/BF08_FO.jpg","",""
"explore-choice","29","67645","0.0-29.0","p762381","A1VJ4ZOXP9PUCP","336OE47KI3QZCSCUXSQ8J11UOZXVWV","3PEIJLRY6VZU31FJN9WRW6T4NMYXWK","model","match","uniform","","","","","","","1378.199999988079","67337.5","68715.69999998808","[""stimuli/HM10_FO.jpg"",""stimuli/WF11_SC.jpg"",""stimuli/BM16_HO.jpg"",""stimuli/BF08_AO.jpg""]","stimuli/HM10_FO.jpg","stimuli/WF11_SC.jpg","stimuli/BM16_HO.jpg","stimuli/BF08_AO.jpg","pos4","stimuli/BF08_AO.jpg","AO","BF08","3","4.5","9","8","stimuli/stars_9.png","38","[""FO"",""SC"",""HO"",""AO""]","[""HM10"",""WF11"",""BM16"",""BF08""]","[5,0,8,9]","[4,2,6,8]","","",""
"show-reward","30","69647","0.0-30.0","p762381","A1VJ4ZOXP9PUCP","336OE47KI3QZCSCUXSQ8J11UOZXVWV","3PEIJLRY6VZU31FJN9WRW6T4NMYXWK","model","match","uniform","","","","","","","","69216.59999996424","71218.39999997616","","","","","","","","","","","","9","","stimuli/stars_9.png","38","","","","","stimuli/BF08_AO.jpg","",""
"explore-choice","31","71214","0.0-31.0","p762381","A1VJ4ZOXP9PUCP","336OE47KI3QZCSCUXSQ8J11UOZXVWV","3PEIJLRY6VZU31FJN9WRW6T4NMYXWK","model","match","uniform","","","","","","","1063","71220","72283","[""stimuli/WF11_FO.jpg"",""stimuli/BM16_HO.jpg"",""stimuli/BF08_AO.jpg"",""stimuli/HM10_SC.jpg""]","stimuli/WF11_FO.jpg","stimuli/BM16_HO.jpg","stimuli/BF08_AO.jpg","stimuli/HM10_SC.jpg","pos3","stimuli/BF08_AO.jpg","AO","BF08","2","3.5","7","8","stimuli/stars_7.png","41.5","[""FO"",""HO"",""AO"",""SC""]","[""WF11"",""BM16"",""BF08"",""HM10""]","[4,8,7,4]","[2,6,8,4]","","",""
"show-reward","32","73221","0.0-32.0","p762381","A1VJ4ZOXP9PUCP","336OE47KI3QZCSCUXSQ8J11UOZXVWV","3PEIJLRY6VZU31FJN9WRW6T4NMYXWK","model","match","uniform","","","","","","","","72786.79999995232","74792.09999996424","","","","","","","","","","","","7","","stimuli/stars_7.png","41.5","","","","","stimuli/BF08_AO.jpg","",""
"explore-choice","33","74455","0.0-33.0","p762381","A1VJ4ZOXP9PUCP","336OE47KI3QZCSCUXSQ8J11UOZXVWV","3PEIJLRY6VZU31FJN9WRW6T4NMYXWK","model","match","uniform","","","","","","","732.3000000119209","74793.79999995232","75526.09999996424","[""stimuli/WF11_AO.jpg"",""stimuli/HM10_SC.jpg"",""stimuli/BM16_FO.jpg"",""stimuli/BF08_HO.jpg""]","stimuli/WF11_AO.jpg","stimuli/HM10_SC.jpg","stimuli/BM16_FO.jpg","stimuli/BF08_HO.jpg","pos4","stimuli/BF08_HO.jpg","HO","BF08","3","4","8","8","stimuli/stars_8.png","45.5","[""AO"",""SC"",""FO"",""HO""]","[""WF11"",""HM10"",""BM16"",""BF08""]","[2,2,5,8]","[2,4,6,8]","","",""
"show-reward","34","76460","0.0-34.0","p762381","A1VJ4ZOXP9PUCP","336OE47KI3QZCSCUXSQ8J11UOZXVWV","3PEIJLRY6VZU31FJN9WRW6T4NMYXWK","model","match","uniform","","","","","","","","76027.89999997616","78031.69999998808","","","","","","","","","","","","8","","stimuli/stars_8.png","45.5","","","","","stimuli/BF08_HO.jpg","",""
"explore-choice","35","77667","0.0-35.0","p762381","A1VJ4ZOXP9PUCP","336OE47KI3QZCSCUXSQ8J11UOZXVWV","3PEIJLRY6VZU31FJN9WRW6T4NMYXWK","model","match","uniform","","","","","","","704","78032.69999998808","78736.69999998808","[""stimuli/BF08_SC.jpg"",""stimuli/HM10_AO.jpg"",""stimuli/WF11_HO.jpg"",""stimuli/BM16_FO.jpg""]","stimuli/BF08_SC.jpg","stimuli/HM10_AO.jpg","stimuli/WF11_HO.jpg","stimuli/BM16_FO.jpg","pos4","stimuli/BM16_FO.jpg","FO","BM16","3","2.5","5","6","stimuli/stars_5.png","48","[""SC"",""AO"",""HO"",""FO""]","[""BF08"",""HM10"",""WF11"",""BM16""]","[8,4,2,5]","[8,4,2,6]","","",""
"show-reward","36","79674","0.0-36.0","p762381","A1VJ4ZOXP9PUCP","336OE47KI3QZCSCUXSQ8J11UOZXVWV","3PEIJLRY6VZU31FJN9WRW6T4NMYXWK","model","match","uniform","","","","","","","","79239.39999997616","81245.59999996424","","","","","","","","","","","","5","","stimuli/stars_5.png","48","","","","","stimuli/BM16_FO.jpg","",""
"explore-choice","37","80903","0.0-37.0","p762381","A1VJ4ZOXP9PUCP","336OE47KI3QZCSCUXSQ8J11UOZXVWV","3PEIJLRY6VZU31FJN9WRW6T4NMYXWK","model","match","uniform","","","","","","","724","81247.09999996424","81971.09999996424","[""stimuli/BM16_FO.jpg"",""stimuli/BF08_SC.jpg"",""stimuli/WF11_AO.jpg"",""stimuli/HM10_HO.jpg""]","stimuli/BM16_FO.jpg","stimuli/BF08_SC.jpg","stimuli/WF11_AO.jpg","stimuli/HM10_HO.jpg","pos1","stimuli/BM16_FO.jpg","FO","BM16","0","4","8","6","stimuli/stars_8.png","52","[""FO"",""SC"",""AO"",""HO""]","[""BM16"",""BF08"",""WF11"",""HM10""]","[8,6,4,5]","[6,8,2,4]","","",""
"show-reward","38","82907","0.0-38.0","p762381","A1VJ4ZOXP9PUCP","336OE47KI3QZCSCUXSQ8J11UOZXVWV","3PEIJLRY6VZU31FJN9WRW6T4NMYXWK","model","match","uniform","","","","","","","","82475.29999995232","84478","","","","","","","","","","","","8","","stimuli/stars_8.png","52","","","","","stimuli/BM16_FO.jpg","",""
"explore-choice","39","84972","0.0-39.0","p762381","A1VJ4ZOXP9PUCP","336OE47KI3QZCSCUXSQ8J11UOZXVWV","3PEIJLRY6VZU31FJN9WRW6T4NMYXWK","model","match","uniform","","","","","","","1563.0999999642372","84479.69999998808","86042.79999995232","[""stimuli/BM16_SC.jpg"",""stimuli/BF08_FO.jpg"",""stimuli/HM10_AO.jpg"",""stimuli/WF11_HO.jpg""]","stimuli/BM16_SC.jpg","stimuli/BF08_FO.jpg","stimuli/HM10_AO.jpg","stimuli/WF11_HO.jpg","pos1","stimuli/BM16_SC.jpg","SC","BM16","0","2","4","6","stimuli/stars_4.png","54","[""SC"",""FO"",""AO"",""HO""]","[""BM16"",""BF08"",""HM10"",""WF11""]","[4,6,4,2]","[6,8,4,2]","","",""
"show-reward","40","86979","0.0-40.0","p762381","A1VJ4ZOXP9PUCP","336OE47KI3QZCSCUXSQ8J11UOZXVWV","3PEIJLRY6VZU31FJN9WRW6T4NMYXWK","model","match","uniform","","","","","","","","86544.5","88550.5","","","","","","","","","","","","4","","stimuli/stars_4.png","54","","","","","stimuli/BM16_SC.jpg","",""
"explore-choice","41","89156","0.0-41.0","p762381","A1VJ4ZOXP9PUCP","336OE47KI3QZCSCUXSQ8J11UOZXVWV","3PEIJLRY6VZU31FJN9WRW6T4NMYXWK","model","match","uniform","","","","","","","1674.300000011921","88552.09999996424","90226.39999997616","[""stimuli/BM16_SC.jpg"",""stimuli/BF08_FO.jpg"",""stimuli/HM10_HO.jpg"",""stimuli/WF11_AO.jpg""]","stimuli/BM16_SC.jpg","stimuli/BF08_FO.jpg","stimuli/HM10_HO.jpg","stimuli/WF11_AO.jpg","pos1","stimuli/BM16_SC.jpg","SC","BM16","0","4","8","6","stimuli/stars_8.png","58","[""SC"",""FO"",""HO"",""AO""]","[""BM16"",""BF08"",""HM10"",""WF11""]","[8,6,3,4]","[6,8,4,2]","","",""
"show-reward","42","91161","0.0-42.0","p762381","A1VJ4ZOXP9PUCP","336OE47KI3QZCSCUXSQ8J11UOZXVWV","3PEIJLRY6VZU31FJN9WRW6T4NMYXWK","model","match","uniform","","","","","","","","90729.79999995232","92732.89999997616","","","","","","","","","","","","8","","stimuli/stars_8.png","58","","","","","stimuli/BM16_SC.jpg","",""
"explore-choice","43","95216","0.0-43.0","p762381","A1VJ4ZOXP9PUCP","336OE47KI3QZCSCUXSQ8J11UOZXVWV","3PEIJLRY6VZU31FJN9WRW6T4NMYXWK","model","match","uniform","","","","","","","3550.599999964237","92734.19999998808","96284.79999995232","[""stimuli/BF08_AO.jpg"",""stimuli/WF11_SC.jpg"",""stimuli/BM16_FO.jpg"",""stimuli/HM10_HO.jpg""]","stimuli/BF08_AO.jpg","stimuli/WF11_SC.jpg","stimuli/BM16_FO.jpg","stimuli/HM10_HO.jpg","pos1","stimuli/BF08_AO.jpg","AO","BF08","0","5","10","8","stimuli/stars_10.png","63","[""AO"",""SC"",""FO"",""HO""]","[""BF08"",""WF11"",""BM16"",""HM10""]","[10,3,6,4]","[8,2,6,4]","","",""
"show-reward","44","97220","0.0-44.0","p762381","A1VJ4ZOXP9PUCP","336OE47KI3QZCSCUXSQ8J11UOZXVWV","3PEIJLRY6VZU31FJN9WRW6T4NMYXWK","model","match","uniform","","","","","","","","96789.29999995232","98791.5","","","","","","","","","","","","10","","stimuli/stars_10.png","63","","","","","stimuli/BF08_AO.jpg","",""
"explore-choice","45","101655","0.0-45.0","p762381","A1VJ4ZOXP9PUCP","336OE47KI3QZCSCUXSQ8J11UOZXVWV","3PEIJLRY6VZU31FJN9WRW6T4NMYXWK","model","match","uniform","","","","","","","3929.2999999523163","98793","102722.29999995232","[""stimuli/WF11_AO.jpg"",""stimuli/BF08_SC.jpg"",""stimuli/HM10_FO.jpg"",""stimuli/BM16_HO.jpg""]","stimuli/WF11_AO.jpg","stimuli/BF08_SC.jpg","stimuli/HM10_FO.jpg","stimuli/BM16_HO.jpg","pos2","stimuli/BF08_SC.jpg","SC","BF08","1","4.5","9","8","stimuli/stars_9.png","67.5","[""AO"",""SC"",""FO"",""HO""]","[""WF11"",""BF08"",""HM10"",""BM16""]","[3,9,4,5]","[2,8,4,6]","","",""
"show-reward","46","103664","0.0-46.0","p762381","A1VJ4ZOXP9PUCP","336OE47KI3QZCSCUXSQ8J11UOZXVWV","3PEIJLRY6VZU31FJN9WRW6T4NMYXWK","model","match","uniform","","","","","","","","103228.89999997616","105236.19999998808","","","","","","","","","","","","9","","stimuli/stars_9.png","67.5","","","","","stimuli/BF08_SC.jpg","",""
"explore-choice","47","107564","0.0-47.0","p762381","A1VJ4ZOXP9PUCP","336OE47KI3QZCSCUXSQ8J11UOZXVWV","3PEIJLRY6VZU31FJN9WRW6T4NMYXWK","model","match","uniform","","","","","","","3393.2999999523163","105238","108631.29999995232","[""stimuli/WF11_HO.jpg"",""stimuli/BM16_AO.jpg"",""stimuli/BF08_SC.jpg"",""stimuli/HM10_FO.jpg""]","stimuli/WF11_HO.jpg","stimuli/BM16_AO.jpg","stimuli/BF08_SC.jpg","stimuli/HM10_FO.jpg","pos2","stimuli/BM16_AO.jpg","AO","BM16","1","3.5","7","6","stimuli/stars_7.png","71","[""HO"",""AO"",""SC"",""FO""]","[""WF11"",""BM16"",""BF08"",""HM10""]","[0,7,7,4]","[2,6,8,4]","","",""
"show-reward","48","109569","0.0-48.0","p762381","A1VJ4ZOXP9PUCP","336OE47KI3QZCSCUXSQ8J11UOZXVWV","3PEIJLRY6VZU31FJN9WRW6T4NMYXWK","model","match","uniform","","","","","","","","109138","111141.79999995232","","","","","","","","","","","","7","","stimuli/stars_7.png","71","","","","","stimuli/BM16_AO.jpg","",""
"explore-choice","49","114393","0.0-49.0","p762381","A1VJ4ZOXP9PUCP","336OE47KI3QZCSCUXSQ8J11UOZXVWV","3PEIJLRY6VZU31FJN9WRW6T4NMYXWK","model","match","uniform","","","","","","","4318.899999976158","111143.5","115462.39999997616","[""stimuli/BF08_HO.jpg"",""stimuli/WF11_SC.jpg"",""stimuli/BM16_FO.jpg"",""stimuli/HM10_AO.jpg""]","stimuli/BF08_HO.jpg","stimuli/WF11_SC.jpg","stimuli/BM16_FO.jpg","stimuli/HM10_AO.jpg","pos3","stimuli/BM16_FO.jpg","FO","BM16","2","3","6","6","stimuli/stars_6.png","74","[""HO"",""SC"",""FO"",""AO""]","[""BF08"",""WF11"",""BM16"",""HM10""]","[10,0,6,2]","[8,2,6,4]","","",""
"show-reward","50","116403","0.0-50.0","p762381","A1VJ4ZOXP9PUCP","336OE47KI3QZCSCUXSQ8J11UOZXVWV","3PEIJLRY6VZU31FJN9WRW6T4NMYXWK","model","match","uniform","","","","","","","","115967.89999997616","117975.59999996424","","","","","","","","","","","","6","","stimuli/stars_6.png","74","","","","","stimuli/BM16_FO.jpg","",""
"explore-choice","51","123119","0.0-51.0","p762381","A1VJ4ZOXP9PUCP","336OE47KI3QZCSCUXSQ8J11UOZXVWV","3PEIJLRY6VZU31FJN9WRW6T4NMYXWK","model","match","uniform","","","","","","","6214.599999964237","117977.19999998808","124191.79999995232","[""stimuli/BM16_AO.jpg"",""stimuli/BF08_HO.jpg"",""stimuli/HM10_FO.jpg"",""stimuli/WF11_SC.jpg""]","stimuli/BM16_AO.jpg","stimuli/BF08_HO.jpg","stimuli/HM10_FO.jpg","stimuli/WF11_SC.jpg","pos2","stimuli/BF08_HO.jpg","HO","BF08","1","5","10","8","stimuli/stars_10.png","79","[""AO"",""HO"",""FO"",""SC""]","[""BM16"",""BF08"",""HM10"",""WF11""]","[4,10,5,1]","[6,8,4,2]","","",""
"show-reward","52","125129","0.0-52.0","p762381","A1VJ4ZOXP9PUCP","336OE47KI3QZCSCUXSQ8J11UOZXVWV","3PEIJLRY6VZU31FJN9WRW6T4NMYXWK","model","match","uniform","","","","","","","","124694.39999997616","126701.69999998808","","","","","","","","","","","","10","","stimuli/stars_10.png","79","","","","","stimuli/BF08_HO.jpg","",""
"explore-choice","53","126670","0.0-53.0","p762381","A1VJ4ZOXP9PUCP","336OE47KI3QZCSCUXSQ8J11UOZXVWV","3PEIJLRY6VZU31FJN9WRW6T4NMYXWK","model","match","uniform","","","","","","","1036.7000000476837","126702.79999995232","127739.5","[""stimuli/BF08_HO.jpg"",""stimuli/WF11_FO.jpg"",""stimuli/BM16_SC.jpg"",""stimuli/HM10_AO.jpg""]","stimuli/BF08_HO.jpg","stimuli/WF11_FO.jpg","stimuli/BM16_SC.jpg","stimuli/HM10_AO.jpg","pos1","stimuli/BF08_HO.jpg","HO","BF08","0","4","8","8","stimuli/stars_8.png","83","[""HO"",""FO"",""SC"",""AO""]","[""BF08"",""WF11"",""BM16"",""HM10""]","[8,4,8,3]","[8,2,6,4]","","",""
"show-reward","54","128675","0.0-54.0","p762381","A1VJ4ZOXP9PUCP","336OE47KI3QZCSCUXSQ8J11UOZXVWV","3PEIJLRY6VZU31FJN9WRW6T4NMYXWK","model","match","uniform","","","","","","","","128244.5","130248.59999996424","","","","","","","","","","","","8","","stimuli/stars_8.png","83","","","","","stimuli/BF08_HO.jpg","",""
"explore-choice","55","130194","0.0-55.0","p762381","A1VJ4ZOXP9PUCP","336OE47KI3QZCSCUXSQ8J11UOZXVWV","3PEIJLRY6VZU31FJN9WRW6T4NMYXWK","model","match","uniform","","","","","","","1017.1000000238419","130249.59999996424","131266.69999998808","[""stimuli/BM16_HO.jpg"",""stimuli/HM10_FO.jpg"",""stimuli/WF11_SC.jpg"",""stimuli/BF08_AO.jpg""]","stimuli/BM16_HO.jpg","stimuli/HM10_FO.jpg","stimuli/WF11_SC.jpg","stimuli/BF08_AO.jpg","pos4","stimuli/BF08_AO.jpg","AO","BF08","3","4.5","9","8","stimuli/stars_9.png","87.5","[""HO"",""FO"",""SC"",""AO""]","[""BM16"",""HM10"",""WF11"",""BF08""]","[8,5,0,9]","[6,4,2,8]","","",""
"show-reward","56","132206","0.0-56.0","p762381","A1VJ4ZOXP9PUCP","336OE47KI3QZCSCUXSQ8J11UOZXVWV","3PEIJLRY6VZU31FJN9WRW6T4NMYXWK","model","match","uniform","","","","","","","","131770.29999995232","133778.69999998808","","","","","","","","","","","","9","","stimuli/stars_9.png","87.5","","","","","stimuli/BF08_AO.jpg","",""
"explore-choice","57","133716","0.0-57.0","p762381","A1VJ4ZOXP9PUCP","336OE47KI3QZCSCUXSQ8J11UOZXVWV","3PEIJLRY6VZU31FJN9WRW6T4NMYXWK","model","match","uniform","","","","","","","1007.3999999761581","133780.69999998808","134788.09999996424","[""stimuli/WF11_HO.jpg"",""stimuli/HM10_AO.jpg"",""stimuli/BF08_FO.jpg"",""stimuli/BM16_SC.jpg""]","stimuli/WF11_HO.jpg","stimuli/HM10_AO.jpg","stimuli/BF08_FO.jpg","stimuli/BM16_SC.jpg","pos3","stimuli/BF08_FO.jpg","FO","BF08","2","3","6","8","stimuli/stars_6.png","90.5","[""HO"",""AO"",""FO"",""SC""]","[""WF11"",""HM10"",""BF08"",""BM16""]","[2,4,6,4]","[2,4,8,6]","","",""
"show-reward","58","135724","0.0-58.0","p762381","A1VJ4ZOXP9PUCP","336OE47KI3QZCSCUXSQ8J11UOZXVWV","3PEIJLRY6VZU31FJN9WRW6T4NMYXWK","model","match","uniform","","","","","","","","135290.5","137297","","","","","","","","","","","","6","","stimuli/stars_6.png","90.5","","","","","stimuli/BF08_FO.jpg","",""
"explore-choice","59","137191","0.0-59.0","p762381","A1VJ4ZOXP9PUCP","336OE47KI3QZCSCUXSQ8J11UOZXVWV","3PEIJLRY6VZU31FJN9WRW6T4NMYXWK","model","match","uniform","","","","","","","964.1999999880791","137298.59999996424","138262.79999995232","[""stimuli/BM16_HO.jpg"",""stimuli/BF08_SC.jpg"",""stimuli/HM10_AO.jpg"",""stimuli/WF11_FO.jpg""]","stimuli/BM16_HO.jpg","stimuli/BF08_SC.jpg","stimuli/HM10_AO.jpg","stimuli/WF11_FO.jpg","pos1","stimuli/BM16_HO.jpg","HO","BM16","0","2.5","5","6","stimuli/stars_5.png","93","[""HO"",""SC"",""AO"",""FO""]","[""BM16"",""BF08"",""HM10"",""WF11""]","[5,7,3,3]","[6,8,4,2]","","",""
"show-reward","60","139203","0.0-60.0","p762381","A1VJ4ZOXP9PUCP","336OE47KI3QZCSCUXSQ8J11UOZXVWV","3PEIJLRY6VZU31FJN9WRW6T4NMYXWK","model","match","uniform","","","","","","","","138766.19999998808","140776","","","","","","","","","","","","5","","stimuli/stars_5.png","93","","","","","stimuli/BM16_HO.jpg","",""
"explore-choice","61","141631","0.0-61.0","p762381","A1VJ4ZOXP9PUCP","336OE47KI3QZCSCUXSQ8J11UOZXVWV","3PEIJLRY6VZU31FJN9WRW6T4NMYXWK","model","match","uniform","","","","","","","1924.6000000238419","140777.59999996424","142702.19999998808","[""stimuli/HM10_HO.jpg"",""stimuli/WF11_SC.jpg"",""stimuli/BM16_FO.jpg"",""stimuli/BF08_AO.jpg""]","stimuli/HM10_HO.jpg","stimuli/WF11_SC.jpg","stimuli/BM16_FO.jpg","stimuli/BF08_AO.jpg","pos3","stimuli/BM16_FO.jpg","FO","BM16","2","3","6","6","stimuli/stars_6.png","96","[""HO"",""SC"",""FO"",""AO""]","[""HM10"",""WF11"",""BM16"",""BF08""]","[4,3,6,10]","[4,2,6,8]","","",""
"show-reward","62","143640","0.0-62.0","p762381","A1VJ4ZOXP9PUCP","336OE47KI3QZCSCUXSQ8J11UOZXVWV","3PEIJLRY6VZU31FJN9WRW6T4NMYXWK","model","match","uniform","","","","","","","","143206.19999998808","145213.69999998808","","","","","","","","","","","","6","","stimuli/stars_6.png","96","","","","","stimuli/BM16_FO.jpg","",""
"explore-choice","63","145369","0.0-63.0","p762381","A1VJ4ZOXP9PUCP","336OE47KI3QZCSCUXSQ8J11UOZXVWV","3PEIJLRY6VZU31FJN9WRW6T4NMYXWK","model","match","uniform","","","","","","","1219.800000011921","145215.29999995232","146435.09999996424","[""stimuli/HM10_HO.jpg"",""stimuli/BF08_SC.jpg"",""stimuli/BM16_AO.jpg"",""stimuli/WF11_FO.jpg""]","stimuli/HM10_HO.jpg","stimuli/BF08_SC.jpg","stimuli/BM16_AO.jpg","stimuli/WF11_FO.jpg","pos2","stimuli/BF08_SC.jpg","SC","BF08","1","3.5","7","8","stimuli/stars_7.png","99.5","[""HO"",""SC"",""AO"",""FO""]","[""HM10"",""BF08"",""BM16"",""WF11""]","[2,7,5,2]","[4,8,6,2]","","",""
"show-reward","64","147376","0.0-64.0","p762381","A1VJ4ZOXP9PUCP","336OE47KI3QZCSCUXSQ8J11UOZXVWV","3PEIJLRY6VZU31FJN9WRW6T4NMYXWK","model","match","uniform","","","","","","","","146943.59999996424","148949.5","","","","","","","","","","","","7","","stimuli/stars_7.png","99.5","","","","","stimuli/BF08_SC.jpg","",""
"explore-choice","65","148684","0.0-65.0","p762381","A1VJ4ZOXP9PUCP","336OE47KI3QZCSCUXSQ8J11UOZXVWV","3PEIJLRY6VZU31FJN9WRW6T4NMYXWK","model","match","uniform","","","","","","","804.6999999880791","148951.09999996424","149755.79999995232","[""stimuli/BF08_SC.jpg"",""stimuli/WF11_AO.jpg"",""stimuli/HM10_HO.jpg"",""stimuli/BM16_FO.jpg""]","stimuli/BF08_SC.jpg","stimuli/WF11_AO.jpg","stimuli/HM10_HO.jpg","stimuli/BM16_FO.jpg","pos1","stimuli/BF08_SC.jpg","SC","BF08","0","3","6","8","stimuli/stars_6.png","102.5","[""SC"",""AO"",""HO"",""FO""]","[""BF08"",""WF11"",""HM10"",""BM16""]","[6,4,5,8]","[8,2,4,6]","","",""
"show-reward","66","150688","0.0-66.0","p762381","A1VJ4ZOXP9PUCP","336OE47KI3QZCSCUXSQ8J11UOZXVWV","3PEIJLRY6VZU31FJN9WRW6T4NMYXWK","model","match","uniform","","","","","","","","150258.5","152261.29999995232","","","","","","","","","","","","6","","stimuli/stars_6.png","102.5","","","","","stimuli/BF08_SC.jpg","",""
"explore-choice","67","151955","0.0-67.0","p762381","A1VJ4ZOXP9PUCP","336OE47KI3QZCSCUXSQ8J11UOZXVWV","3PEIJLRY6VZU31FJN9WRW6T4NMYXWK","model","match","uniform","","","","","","","765.5","152262.79999995232","153028.29999995232","[""stimuli/WF11_FO.jpg"",""stimuli/HM10_AO.jpg"",""stimuli/BF08_HO.jpg"",""stimuli/BM16_SC.jpg""]","stimuli/WF11_FO.jpg","stimuli/HM10_AO.jpg","stimuli/BF08_HO.jpg","stimuli/BM16_SC.jpg","pos3","stimuli/BF08_HO.jpg","HO","BF08","2","4","8","8","stimuli/stars_8.png","106.5","[""FO"",""AO"",""HO"",""SC""]","[""WF11"",""HM10"",""BF08"",""BM16""]","[4,3,8,8]","[2,4,8,6]","","",""
"show-reward","68","153959","0.0-68.0","p762381","A1VJ4ZOXP9PUCP","336OE47KI3QZCSCUXSQ8J11UOZXVWV","3PEIJLRY6VZU31FJN9WRW6T4NMYXWK","model","match","uniform","","","","","","","","153530.19999998808","155532.89999997616","","","","","","","","","","","","8","","stimuli/stars_8.png","106.5","","","","","stimuli/BF08_HO.jpg","",""
"explore-choice","69","155283","0.0-69.0","p762381","A1VJ4ZOXP9PUCP","336OE47KI3QZCSCUXSQ8J11UOZXVWV","3PEIJLRY6VZU31FJN9WRW6T4NMYXWK","model","match","uniform","","","","","","","821.3000000119209","155534.29999995232","156355.59999996424","[""stimuli/BF08_FO.jpg"",""stimuli/HM10_SC.jpg"",""stimuli/BM16_AO.jpg"",""stimuli/WF11_HO.jpg""]","stimuli/BF08_FO.jpg","stimuli/HM10_SC.jpg","stimuli/BM16_AO.jpg","stimuli/WF11_HO.jpg","pos1","stimuli/BF08_FO.jpg","FO","BF08","0","3","6","8","stimuli/stars_6.png","109.5","[""FO"",""SC"",""AO"",""HO""]","[""BF08"",""HM10"",""BM16"",""WF11""]","[6,2,6,1]","[8,4,6,2]","","",""
"show-reward","70","157290","0.0-70.0","p762381","A1VJ4ZOXP9PUCP","336OE47KI3QZCSCUXSQ8J11UOZXVWV","3PEIJLRY6VZU31FJN9WRW6T4NMYXWK","model","match","uniform","","","","","","","","156857.39999997616","158863.69999998808","","","","","","","","","","","","6","","stimuli/stars_6.png","109.5","","","","","stimuli/BF08_FO.jpg","",""
"explore-choice","71","158781","0.0-71.0","p762381","A1VJ4ZOXP9PUCP","336OE47KI3QZCSCUXSQ8J11UOZXVWV","3PEIJLRY6VZU31FJN9WRW6T4NMYXWK","model","match","uniform","","","","","","","987.6000000238419","158865.29999995232","159852.89999997616","[""stimuli/BF08_FO.jpg"",""stimuli/WF11_SC.jpg"",""stimuli/HM10_AO.jpg"",""stimuli/BM16_HO.jpg""]","stimuli/BF08_FO.jpg","stimuli/WF11_SC.jpg","stimuli/HM10_AO.jpg","stimuli/BM16_HO.jpg","pos1","stimuli/BF08_FO.jpg","FO","BF08","0","4","8","8","stimuli/stars_8.png","113.5","[""FO"",""SC"",""AO"",""HO""]","[""BF08"",""WF11"",""HM10"",""BM16""]","[8,0,2,6]","[8,2,4,6]","","",""
"show-reward","72","160788","0.0-72.0","p762381","A1VJ4ZOXP9PUCP","336OE47KI3QZCSCUXSQ8J11UOZXVWV","3PEIJLRY6VZU31FJN9WRW6T4NMYXWK","model","match","uniform","","","","","","","","160356.09999996424","162361.69999998808","","","","","","","","","","","","8","","stimuli/stars_8.png","113.5","","","","","stimuli/BF08_FO.jpg","",""
"explore-choice","73","162775","0.0-73.0","p762381","A1VJ4ZOXP9PUCP","336OE47KI3QZCSCUXSQ8J11UOZXVWV","3PEIJLRY6VZU31FJN9WRW6T4NMYXWK","model","match","uniform","","","","","","","1482.199999988079","162362.89999997616","163845.09999996424","[""stimuli/HM10_SC.jpg"",""stimuli/BM16_AO.jpg"",""stimuli/BF08_HO.jpg"",""stimuli/WF11_FO.jpg""]","stimuli/HM10_SC.jpg","stimuli/BM16_AO.jpg","stimuli/BF08_HO.jpg","stimuli/WF11_FO.jpg","pos2","stimuli/BM16_AO.jpg","AO","BM16","1","3","6","6","stimuli/stars_6.png","116.5","[""SC"",""AO"",""HO"",""FO""]","[""HM10"",""BM16"",""BF08"",""WF11""]","[4,6,7,1]","[4,6,8,2]","","",""
"show-reward","74","164779","0.0-74.0","p762381","A1VJ4ZOXP9PUCP","336OE47KI3QZCSCUXSQ8J11UOZXVWV","3PEIJLRY6VZU31FJN9WRW6T4NMYXWK","model","match","uniform","","","","","","","","164349.69999998808","166353.29999995232","","","","","","","","","","","","6","","stimuli/stars_6.png","116.5","","","","","stimuli/BM16_AO.jpg","",""
"explore-choice","75","166145","0.0-75.0","p762381","A1VJ4ZOXP9PUCP","336OE47KI3QZCSCUXSQ8J11UOZXVWV","3PEIJLRY6VZU31FJN9WRW6T4NMYXWK","model","match","uniform","","","","","","","861.8999999761581","166355.39999997616","167217.29999995232","[""stimuli/WF11_AO.jpg"",""stimuli/HM10_SC.jpg"",""stimuli/BM16_FO.jpg"",""stimuli/BF08_HO.jpg""]","stimuli/WF11_AO.jpg","stimuli/HM10_SC.jpg","stimuli/BM16_FO.jpg","stimuli/BF08_HO.jpg","pos3","stimuli/BM16_FO.jpg","FO","BM16","2","2.5","5","6","stimuli/stars_5.png","119","[""AO"",""SC"",""FO"",""HO""]","[""WF11"",""HM10"",""BM16"",""BF08""]","[2,2,5,8]","[2,4,6,8]","","",""
"show-reward","76","168150","0.0-76.0","p762381","A1VJ4ZOXP9PUCP","336OE47KI3QZCSCUXSQ8J11UOZXVWV","3PEIJLRY6VZU31FJN9WRW6T4NMYXWK","model","match","uniform","","","","","","","","167720.89999997616","169723.89999997616","","","","","","","","","","","","5","","stimuli/stars_5.png","119","","","","","stimuli/BM16_FO.jpg","",""
"explore-choice","77","180255","0.0-77.0","p762381","A1VJ4ZOXP9PUCP","336OE47KI3QZCSCUXSQ8J11UOZXVWV","3PEIJLRY6VZU31FJN9WRW6T4NMYXWK","model","match","uniform","","","","","","","11601.399999976158","169725.5","181326.89999997616","[""stimuli/BF08_AO.jpg"",""stimuli/WF11_HO.jpg"",""stimuli/BM16_SC.jpg"",""stimuli/HM10_FO.jpg""]","stimuli/BF08_AO.jpg","stimuli/WF11_HO.jpg","stimuli/BM16_SC.jpg","stimuli/HM10_FO.jpg","pos3","stimuli/BM16_SC.jpg","SC","BM16","2","4","8","6","stimuli/stars_8.png","123","[""AO"",""HO"",""SC"",""FO""]","[""BF08"",""WF11"",""BM16"",""HM10""]","[9,2,8,2]","[8,2,6,4]","","",""
"show-reward","78","182261","0.0-78.0","p762381","A1VJ4ZOXP9PUCP","336OE47KI3QZCSCUXSQ8J11UOZXVWV","3PEIJLRY6VZU31FJN9WRW6T4NMYXWK","model","match","uniform","","","","","","","","181832","183835.5","","","","","","","","","","","","8","","stimuli/stars_8.png","123","","","","","stimuli/BM16_SC.jpg","",""
"explore-choice","79","184139","0.0-79.0","p762381","A1VJ4ZOXP9PUCP","336OE47KI3QZCSCUXSQ8J11UOZXVWV","3PEIJLRY6VZU31FJN9WRW6T4NMYXWK","model","match","uniform","","","","","","","1372.300000011921","183837.09999996424","185209.39999997616","[""stimuli/BM16_HO.jpg"",""stimuli/HM10_FO.jpg"",""stimuli/WF11_AO.jpg"",""stimuli/BF08_SC.jpg""]","stimuli/BM16_HO.jpg","stimuli/HM10_FO.jpg","stimuli/WF11_AO.jpg","stimuli/BF08_SC.jpg","pos1","stimuli/BM16_HO.jpg","HO","BM16","0","2.5","5","6","stimuli/stars_5.png","125.5","[""HO"",""FO"",""AO"",""SC""]","[""BM16"",""HM10"",""WF11"",""BF08""]","[5,4,3,9]","[6,4,2,8]","","",""
"show-reward","80","186142","0.0-80.0","p762381","A1VJ4ZOXP9PUCP","336OE47KI3QZCSCUXSQ8J11UOZXVWV","3PEIJLRY6VZU31FJN9WRW6T4NMYXWK","model","match","uniform","","","","","","","","185714.79999995232","187716.89999997616","","","","","","","","","","","","5","","stimuli/stars_5.png","125.5","","","","","stimuli/BM16_HO.jpg","",""
"explore-choice","81","187420","0.0-81.0","p762381","A1VJ4ZOXP9PUCP","336OE47KI3QZCSCUXSQ8J11UOZXVWV","3PEIJLRY6VZU31FJN9WRW6T4NMYXWK","model","match","uniform","","","","","","","776.3000000119209","187717.69999998808","188494","[""stimuli/HM10_HO.jpg"",""stimuli/WF11_FO.jpg"",""stimuli/BF08_AO.jpg"",""stimuli/BM16_SC.jpg""]","stimuli/HM10_HO.jpg","stimuli/WF11_FO.jpg","stimuli/BF08_AO.jpg","stimuli/BM16_SC.jpg","pos4","stimuli/BM16_SC.jpg","SC","BM16","3","3","6","6","stimuli/stars_6.png","128.5","[""HO"",""FO"",""AO"",""SC""]","[""HM10"",""WF11"",""BF08"",""BM16""]","[2,4,10,6]","[4,2,8,6]","","",""
"show-reward","82","189427","0.0-82.0","p762381","A1VJ4ZOXP9PUCP","336OE47KI3QZCSCUXSQ8J11UOZXVWV","3PEIJLRY6VZU31FJN9WRW6T4NMYXWK","model","match","uniform","","","","","","","","188996.59999996424","191001.39999997616","","","","","","","","","","","","6","","stimuli/stars_6.png","128.5","","","","","stimuli/BM16_SC.jpg","",""
"explore-choice","83","190520","0.0-83.0","p762381","A1VJ4ZOXP9PUCP","336OE47KI3QZCSCUXSQ8J11UOZXVWV","3PEIJLRY6VZU31FJN9WRW6T4NMYXWK","model","match","uniform","","","","","","","590.1000000238419","191003.09999996424","191593.19999998808","[""stimuli/BM16_HO.jpg"",""stimuli/WF11_FO.jpg"",""stimuli/HM10_SC.jpg"",""stimuli/BF08_AO.jpg""]","stimuli/BM16_HO.jpg","stimuli/WF11_FO.jpg","stimuli/HM10_SC.jpg","stimuli/BF08_AO.jpg","pos1","stimuli/BM16_HO.jpg","HO","BM16","0","4","8","6","stimuli/stars_8.png","132.5","[""HO"",""FO"",""SC"",""AO""]","[""BM16"",""WF11"",""HM10"",""BF08""]","[8,4,4,7]","[6,2,4,8]","","",""
"show-reward","84","192528","0.0-84.0","p762381","A1VJ4ZOXP9PUCP","336OE47KI3QZCSCUXSQ8J11UOZXVWV","3PEIJLRY6VZU31FJN9WRW6T4NMYXWK","model","match","uniform","","","","","","","","192096.59999996424","194103.29999995232","","","","","","","","","","","","8","","stimuli/stars_8.png","132.5","","","","","stimuli/BM16_HO.jpg","",""
"explore-choice","85","193827","0.0-85.0","p762381","A1VJ4ZOXP9PUCP","336OE47KI3QZCSCUXSQ8J11UOZXVWV","3PEIJLRY6VZU31FJN9WRW6T4NMYXWK","model","match","uniform","","","","","","","793.2000000476837","194104.79999995232","194898","[""stimuli/BM16_AO.jpg"",""stimuli/HM10_FO.jpg"",""stimuli/WF11_HO.jpg"",""stimuli/BF08_SC.jpg""]","stimuli/BM16_AO.jpg","stimuli/HM10_FO.jpg","stimuli/WF11_HO.jpg","stimuli/BF08_SC.jpg","pos1","stimuli/BM16_AO.jpg","AO","BM16","0","3.5","7","6","stimuli/stars_7.png","136","[""AO"",""FO"",""HO"",""SC""]","[""BM16"",""HM10"",""WF11"",""BF08""]","[7,4,0,7]","[6,4,2,8]","","",""
"show-reward","86","195833","0.0-86.0","p762381","A1VJ4ZOXP9PUCP","336OE47KI3QZCSCUXSQ8J11UOZXVWV","3PEIJLRY6VZU31FJN9WRW6T4NMYXWK","model","match","uniform","","","","","","","","195403.69999998808","197408.59999996424","","","","","","","","","","","","7","","stimuli/stars_7.png","136","","","","","stimuli/BM16_AO.jpg","",""
"explore-choice","87","196788","0.0-87.0","p762381","A1VJ4ZOXP9PUCP","336OE47KI3QZCSCUXSQ8J11UOZXVWV","3PEIJLRY6VZU31FJN9WRW6T4NMYXWK","model","match","uniform","","","","","","","453.5999999642372","197409.19999998808","197862.79999995232","[""stimuli/BM16_AO.jpg"",""stimuli/HM10_FO.jpg"",""stimuli/WF11_SC.jpg"",""stimuli/BF08_HO.jpg""]","stimuli/BM16_AO.jpg","stimuli/HM10_FO.jpg","stimuli/WF11_SC.jpg","stimuli/BF08_HO.jpg","pos4","stimuli/BF08_HO.jpg","HO","BF08","3","5","10","8","stimuli/stars_10.png","141","[""AO"",""FO"",""SC"",""HO""]","[""BM16"",""HM10"",""WF11"",""BF08""]","[4,5,1,10]","[6,4,2,8]","","",""
"show-reward","88","198792","0.0-88.0","p762381","A1VJ4ZOXP9PUCP","336OE47KI3QZCSCUXSQ8J11UOZXVWV","3PEIJLRY6VZU31FJN9WRW6T4NMYXWK","model","match","uniform","","","","","","","","198363.59999996424","200367.59999996424","","","","","","","","","","","","10","","stimuli/stars_10.png","141","","","","","stimuli/BF08_HO.jpg","",""
"explore-choice","89","200069","0.0-89.0","p762381","A1VJ4ZOXP9PUCP","336OE47KI3QZCSCUXSQ8J11UOZXVWV","3PEIJLRY6VZU31FJN9WRW6T4NMYXWK","model","match","uniform","","","","","","","774.3000000119209","200368.19999998808","201142.5","[""stimuli/BM16_FO.jpg"",""stimuli/WF11_SC.jpg"",""stimuli/BF08_HO.jpg"",""stimuli/HM10_AO.jpg""]","stimuli/BM16_FO.jpg","stimuli/WF11_SC.jpg","stimuli/BF08_HO.jpg","stimuli/HM10_AO.jpg","pos3","stimuli/BF08_HO.jpg","HO","BF08","2","5","10","8","stimuli/stars_10.png","146","[""FO"",""SC"",""HO"",""AO""]","[""BM16"",""WF11"",""BF08"",""HM10""]","[6,0,10,2]","[6,2,8,4]","","",""
"show-reward","90","202075","0.0-90.0","p762381","A1VJ4ZOXP9PUCP","336OE47KI3QZCSCUXSQ8J11UOZXVWV","3PEIJLRY6VZU31FJN9WRW6T4NMYXWK","model","match","uniform","","","","","","","","201645.39999997616","203650.09999996424","","","","","","","","","","","","10","","stimuli/stars_10.png","146","","","","","stimuli/BF08_HO.jpg","",""
"explore-choice","91","204167","0.0-91.0","p762381","A1VJ4ZOXP9PUCP","336OE47KI3QZCSCUXSQ8J11UOZXVWV","3PEIJLRY6VZU31FJN9WRW6T4NMYXWK","model","match","uniform","","","","","","","1588.5999999642372","203650.5","205239.09999996424","[""stimuli/BF08_FO.jpg"",""stimuli/BM16_AO.jpg"",""stimuli/HM10_HO.jpg"",""stimuli/WF11_SC.jpg""]","stimuli/BF08_FO.jpg","stimuli/BM16_AO.jpg","stimuli/HM10_HO.jpg","stimuli/WF11_SC.jpg","pos1","stimuli/BF08_FO.jpg","FO","BF08","0","5","10","8","stimuli/stars_10.png","151","[""FO"",""AO"",""HO"",""SC""]","[""BF08"",""BM16"",""HM10"",""WF11""]","[10,5,2,1]","[8,6,4,2]","","",""
"show-reward","92","206173","0.0-92.0","p762381","A1VJ4ZOXP9PUCP","336OE47KI3QZCSCUXSQ8J11UOZXVWV","3PEIJLRY6VZU31FJN9WRW6T4NMYXWK","model","match","uniform","","","","","","","","205743.79999995232","207748","","","","","","","","","","","","10","","stimuli/stars_10.png","151","","","","","stimuli/BF08_FO.jpg","",""
"explore-choice","93","207877","0.0-93.0","p762381","A1VJ4ZOXP9PUCP","336OE47KI3QZCSCUXSQ8J11UOZXVWV","3PEIJLRY6VZU31FJN9WRW6T4NMYXWK","model","match","uniform","","","","","","","1199.3999999761581","207749.39999997616","208948.79999995232","[""stimuli/WF11_AO.jpg"",""stimuli/BM16_HO.jpg"",""stimuli/HM10_SC.jpg"",""stimuli/BF08_FO.jpg""]","stimuli/WF11_AO.jpg","stimuli/BM16_HO.jpg","stimuli/HM10_SC.jpg","stimuli/BF08_FO.jpg","pos4","stimuli/BF08_FO.jpg","FO","BF08","3","3.5","7","8","stimuli/stars_7.png","154.5","[""AO"",""HO"",""SC"",""FO""]","[""WF11"",""BM16"",""HM10"",""BF08""]","[4,5,2,7]","[2,6,4,8]","","",""
"show-reward","94","209890","0.0-94.0","p762381","A1VJ4ZOXP9PUCP","336OE47KI3QZCSCUXSQ8J11UOZXVWV","3PEIJLRY6VZU31FJN9WRW6T4NMYXWK","model","match","uniform","","","","","","","","209453.69999998808","211465.89999997616","","","","","","","","","","","","7","","stimuli/stars_7.png","154.5","","","","","stimuli/BF08_FO.jpg","",""
"explore-choice","95","211093","0.0-95.0","p762381","A1VJ4ZOXP9PUCP","336OE47KI3QZCSCUXSQ8J11UOZXVWV","3PEIJLRY6VZU31FJN9WRW6T4NMYXWK","model","match","uniform","","","","","","","695.5","211466.5","212162","[""stimuli/BM16_SC.jpg"",""stimuli/HM10_HO.jpg"",""stimuli/BF08_FO.jpg"",""stimuli/WF11_AO.jpg""]","stimuli/BM16_SC.jpg","stimuli/HM10_HO.jpg","stimuli/BF08_FO.jpg","stimuli/WF11_AO.jpg","pos3","stimuli/BF08_FO.jpg","FO","BF08","2","3","6","8","stimuli/stars_6.png","157.5","[""SC"",""HO"",""FO"",""AO""]","[""BM16"",""HM10"",""BF08"",""WF11""]","[8,3,6,4]","[6,4,8,2]","","",""
"show-reward","96","213099","0.0-96.0","p762381","A1VJ4ZOXP9PUCP","336OE47KI3QZCSCUXSQ8J11UOZXVWV","3PEIJLRY6VZU31FJN9WRW6T4NMYXWK","model","match","uniform","","","","","","","","212670.89999997616","214674.79999995232","","","","","","","","","","","","6","","stimuli/stars_6.png","157.5","","","","","stimuli/BF08_FO.jpg","",""
"explore-choice","97","215048","0.0-97.0","p762381","A1VJ4ZOXP9PUCP","336OE47KI3QZCSCUXSQ8J11UOZXVWV","3PEIJLRY6VZU31FJN9WRW6T4NMYXWK","model","match","uniform","","","","","","","1444.699999988079","214677.09999996424","216121.79999995232","[""stimuli/WF11_HO.jpg"",""stimuli/BM16_FO.jpg"",""stimuli/HM10_AO.jpg"",""stimuli/BF08_SC.jpg""]","stimuli/WF11_HO.jpg","stimuli/BM16_FO.jpg","stimuli/HM10_AO.jpg","stimuli/BF08_SC.jpg","pos2","stimuli/BM16_FO.jpg","FO","BM16","1","2.5","5","6","stimuli/stars_5.png","160","[""HO"",""FO"",""AO"",""SC""]","[""WF11"",""BM16"",""HM10"",""BF08""]","[2,5,4,8]","[2,6,4,8]","","",""
"show-reward","98","217054","0.0-98.0","p762381","A1VJ4ZOXP9PUCP","336OE47KI3QZCSCUXSQ8J11UOZXVWV","3PEIJLRY6VZU31FJN9WRW6T4NMYXWK","model","match","uniform","","","","","","","","216625.29999995232","218629.39999997616","","","","","","","","","","","","5","","stimuli/stars_5.png","160","","","","","stimuli/BM16_FO.jpg","",""
"explore-choice","99","219969","0.0-99.0","p762381","A1VJ4ZOXP9PUCP","336OE47KI3QZCSCUXSQ8J11UOZXVWV","3PEIJLRY6VZU31FJN9WRW6T4NMYXWK","model","match","uniform","","","","","","","2413","218630.69999998808","221043.69999998808","[""stimuli/WF11_AO.jpg"",""stimuli/BM16_SC.jpg"",""stimuli/BF08_HO.jpg"",""stimuli/HM10_FO.jpg""]","stimuli/WF11_AO.jpg","stimuli/BM16_SC.jpg","stimuli/BF08_HO.jpg","stimuli/HM10_FO.jpg","pos3","stimuli/BF08_HO.jpg","HO","BF08","2","5","10","8","stimuli/stars_10.png","165","[""AO"",""SC"",""HO"",""FO""]","[""WF11"",""BM16"",""BF08"",""HM10""]","[4,8,10,6]","[2,6,8,4]","","",""
"show-reward","100","221976","0.0-100.0","p762381","A1VJ4ZOXP9PUCP","336OE47KI3QZCSCUXSQ8J11UOZXVWV","3PEIJLRY6VZU31FJN9WRW6T4NMYXWK","model","match","uniform","","","","","","","","221545.39999997616","223552.29999995232","","","","","","","","","","","","10","","stimuli/stars_10.png","165","","","","","stimuli/BF08_HO.jpg","",""
"explore-choice","101","223555","0.0-101.0","p762381","A1VJ4ZOXP9PUCP","336OE47KI3QZCSCUXSQ8J11UOZXVWV","3PEIJLRY6VZU31FJN9WRW6T4NMYXWK","model","match","uniform","","","","","","","1072","223553.79999995232","224625.79999995232","[""stimuli/HM10_SC.jpg"",""stimuli/BF08_AO.jpg"",""stimuli/BM16_FO.jpg"",""stimuli/WF11_HO.jpg""]","stimuli/HM10_SC.jpg","stimuli/BF08_AO.jpg","stimuli/BM16_FO.jpg","stimuli/WF11_HO.jpg","pos2","stimuli/BF08_AO.jpg","AO","BF08","1","3.5","7","8","stimuli/stars_7.png","168.5","[""SC"",""AO"",""FO"",""HO""]","[""HM10"",""BF08"",""BM16"",""WF11""]","[4,7,4,3]","[4,8,6,2]","","",""
"show-reward","102","225560","0.0-102.0","p762381","A1VJ4ZOXP9PUCP","336OE47KI3QZCSCUXSQ8J11UOZXVWV","3PEIJLRY6VZU31FJN9WRW6T4NMYXWK","model","match","uniform","","","","","","","","225132.5","227136.29999995232","","","","","","","","","","","","7","","stimuli/stars_7.png","168.5","","","","","stimuli/BF08_AO.jpg","",""
"explore-choice","103","228860","0.0-103.0","p762381","A1VJ4ZOXP9PUCP","336OE47KI3QZCSCUXSQ8J11UOZXVWV","3PEIJLRY6VZU31FJN9WRW6T4NMYXWK","model","match","uniform","","","","","","","2797.600000023842","227138.39999997616","229936","[""stimuli/WM09_DO.jpg"",""stimuli/WM13_CC.jpg"",""stimuli/AM05_HE.jpg"",""stimuli/WF14_SUR.jpg""]","stimuli/WM09_DO.jpg","stimuli/WM13_CC.jpg","stimuli/AM05_HE.jpg","stimuli/WF14_SUR.jpg","pos3","stimuli/AM05_HE.jpg","HE","AM05","2","2","4","6","stimuli/stars_4.png","170.5","[""DO"",""CC"",""HE"",""SUR""]","[""WM09"",""WM13"",""AM05"",""WF14""]","[3,10,4,2]","[2,8,6,4]","","",""
"show-reward","104","230863","0.0-104.0","p762381","A1VJ4ZOXP9PUCP","336OE47KI3QZCSCUXSQ8J11UOZXVWV","3PEIJLRY6VZU31FJN9WRW6T4NMYXWK","model","match","uniform","","","","","","","","230437.5","232439.39999997616","","","","","","","","","","","","4","","stimuli/stars_4.png","170.5","","","","","stimuli/AM05_HE.jpg","",""
"explore-choice","105","232244","0.0-105.0","p762381","A1VJ4ZOXP9PUCP","336OE47KI3QZCSCUXSQ8J11UOZXVWV","3PEIJLRY6VZU31FJN9WRW6T4NMYXWK","model","match","uniform","","","","","","","870.8999999761581","232440.19999998808","233311.09999996424","[""stimuli/AM05_CC.jpg"",""stimuli/WM13_DO.jpg"",""stimuli/WF14_SUR.jpg"",""stimuli/WM09_HE.jpg""]","stimuli/AM05_CC.jpg","stimuli/WM13_DO.jpg","stimuli/WF14_SUR.jpg","stimuli/WM09_HE.jpg","pos4","stimuli/WM09_HE.jpg","HE","WM09","3","0.5","1","2","stimuli/stars_1.png","171","[""CC"",""DO"",""SUR"",""HE""]","[""AM05"",""WM13"",""WF14"",""WM09""]","[6,6,4,1]","[6,8,4,2]","","",""
"show-reward","106","234252","0.0-106.0","p762381","A1VJ4ZOXP9PUCP","336OE47KI3QZCSCUXSQ8J11UOZXVWV","3PEIJLRY6VZU31FJN9WRW6T4NMYXWK","model","match","uniform","","","","","","","","233821.5","235828.69999998808","","","","","","","","","","","","1","","stimuli/stars_1.png","171","","","","","stimuli/WM09_HE.jpg","",""
"explore-choice","107","235473","0.0-107.0","p762381","A1VJ4ZOXP9PUCP","336OE47KI3QZCSCUXSQ8J11UOZXVWV","3PEIJLRY6VZU31FJN9WRW6T4NMYXWK","model","match","uniform","","","","","","","715","235830","236545","[""stimuli/WM09_DO.jpg"",""stimuli/WF14_HE.jpg"",""stimuli/AM05_CC.jpg"",""stimuli/WM13_SUR.jpg""]","stimuli/WM09_DO.jpg","stimuli/WF14_HE.jpg","stimuli/AM05_CC.jpg","stimuli/WM13_SUR.jpg","pos2","stimuli/WF14_HE.jpg","HE","WF14","1","2","4","4","stimuli/stars_4.png","173","[""DO"",""HE"",""CC"",""SUR""]","[""WM09"",""WF14"",""AM05"",""WM13""]","[2,4,4,6]","[2,4,6,8]","","",""
"show-reward","108","237478","0.0-108.0","p762381","A1VJ4ZOXP9PUCP","336OE47KI3QZCSCUXSQ8J11UOZXVWV","3PEIJLRY6VZU31FJN9WRW6T4NMYXWK","model","match","uniform","","","","","","","","237051.19999998808","239054.09999996424","","","","","","","","","","","","4","","stimuli/stars_4.png","173","","","","","stimuli/WF14_HE.jpg","",""
"explore-choice","109","239698","0.0-109.0","p762381","A1VJ4ZOXP9PUCP","336OE47KI3QZCSCUXSQ8J11UOZXVWV","3PEIJLRY6VZU31FJN9WRW6T4NMYXWK","model","match","uniform","","","","","","","1717.800000011921","239055.59999996424","240773.39999997616","[""stimuli/WM09_HE.jpg"",""stimuli/AM05_DO.jpg"",""stimuli/WM13_CC.jpg"",""stimuli/WF14_SUR.jpg""]","stimuli/WM09_HE.jpg","stimuli/AM05_DO.jpg","stimuli/WM13_CC.jpg","stimuli/WF14_SUR.jpg","pos3","stimuli/WM13_CC.jpg","CC","WM13","2","3.5","7","8","stimuli/stars_7.png","176.5","[""HE"",""DO"",""CC"",""SUR""]","[""WM09"",""AM05"",""WM13"",""WF14""]","[4,8,7,4]","[2,6,8,4]","","",""
"show-reward","110","241710","0.0-110.0","p762381","A1VJ4ZOXP9PUCP","336OE47KI3QZCSCUXSQ8J11UOZXVWV","3PEIJLRY6VZU31FJN9WRW6T4NMYXWK","model","match","uniform","","","","","","","","241276.19999998808","243286.69999998808","","","","","","","","","","","","7","","stimuli/stars_7.png","176.5","","","","","stimuli/WM13_CC.jpg","",""
"explore-choice","111","243005","0.0-111.0","p762381","A1VJ4ZOXP9PUCP","336OE47KI3QZCSCUXSQ8J11UOZXVWV","3PEIJLRY6VZU31FJN9WRW6T4NMYXWK","model","match","uniform","","","","","","","787.5","243288.59999996424","244076.09999996424","[""stimuli/WF14_DO.jpg"",""stimuli/AM05_HE.jpg"",""stimuli/WM13_CC.jpg"",""stimuli/WM09_SUR.jpg""]","stimuli/WF14_DO.jpg","stimuli/AM05_HE.jpg","stimuli/WM13_CC.jpg","stimuli/WM09_SUR.jpg","pos3","stimuli/WM13_CC.jpg","CC","WM13","2","5","10","8","stimuli/stars_10.png","181.5","[""DO"",""HE"",""CC"",""SUR""]","[""WF14"",""AM05"",""WM13"",""WM09""]","[6,5,10,2]","[4,6,8,2]","","",""
"show-reward","112","245012","0.0-112.0","p762381","A1VJ4ZOXP9PUCP","336OE47KI3QZCSCUXSQ8J11UOZXVWV","3PEIJLRY6VZU31FJN9WRW6T4NMYXWK","model","match","uniform","","","","","","","","244582.79999995232","246588.89999997616","","","","","","","","","","","","10","","stimuli/stars_10.png","181.5","","","","","stimuli/WM13_CC.jpg","",""
"explore-choice","113","247131","0.0-113.0","p762381","A1VJ4ZOXP9PUCP","336OE47KI3QZCSCUXSQ8J11UOZXVWV","3PEIJLRY6VZU31FJN9WRW6T4NMYXWK","model","match","uniform","","","","","","","1614.5999999642372","246590.5","248205.09999996424","[""stimuli/AM05_DO.jpg"",""stimuli/WF14_SUR.jpg"",""stimuli/WM09_CC.jpg"",""stimuli/WM13_HE.jpg""]","stimuli/AM05_DO.jpg","stimuli/WF14_SUR.jpg","stimuli/WM09_CC.jpg","stimuli/WM13_HE.jpg","pos4","stimuli/WM13_HE.jpg","HE","WM13","3","3.5","7","8","stimuli/stars_7.png","185","[""DO"",""SUR"",""CC"",""HE""]","[""AM05"",""WF14"",""WM09"",""WM13""]","[7,5,1,7]","[6,4,2,8]","","",""
"show-reward","114","249136","0.0-114.0","p762381","A1VJ4ZOXP9PUCP","336OE47KI3QZCSCUXSQ8J11UOZXVWV","3PEIJLRY6VZU31FJN9WRW6T4NMYXWK","model","match","uniform","","","","","","","","248709","250713","","","","","","","","","","","","7","","stimuli/stars_7.png","185","","","","","stimuli/WM13_HE.jpg","",""
"explore-choice","115","250772","0.0-115.0","p762381","A1VJ4ZOXP9PUCP","336OE47KI3QZCSCUXSQ8J11UOZXVWV","3PEIJLRY6VZU31FJN9WRW6T4NMYXWK","model","match","uniform","","","","","","","1134.300000011921","250714.09999996424","251848.39999997616","[""stimuli/WF14_CC.jpg"",""stimuli/WM09_DO.jpg"",""stimuli/AM05_SUR.jpg"",""stimuli/WM13_HE.jpg""]","stimuli/WF14_CC.jpg","stimuli/WM09_DO.jpg","stimuli/AM05_SUR.jpg","stimuli/WM13_HE.jpg","pos4","stimuli/WM13_HE.jpg","HE","WM13","3","4","8","8","stimuli/stars_8.png","189","[""CC"",""DO"",""SUR"",""HE""]","[""WF14"",""WM09"",""AM05"",""WM13""]","[2,4,8,8]","[4,2,6,8]","","",""
"show-reward","116","252777","0.0-116.0","p762381","A1VJ4ZOXP9PUCP","336OE47KI3QZCSCUXSQ8J11UOZXVWV","3PEIJLRY6VZU31FJN9WRW6T4NMYXWK","model","match","uniform","","","","","","","","252350.5","254354.5","","","","","","","","","","","","8","","stimuli/stars_8.png","189","","","","","stimuli/WM13_HE.jpg","",""
"explore-choice","117","254293","0.0-117.0","p762381","A1VJ4ZOXP9PUCP","336OE47KI3QZCSCUXSQ8J11UOZXVWV","3PEIJLRY6VZU31FJN9WRW6T4NMYXWK","model","match","uniform","","","","","","","1006.9000000357628","254355.09999996424","255362","[""stimuli/WM09_SUR.jpg"",""stimuli/WM13_DO.jpg"",""stimuli/AM05_HE.jpg"",""stimuli/WF14_CC.jpg""]","stimuli/WM09_SUR.jpg","stimuli/WM13_DO.jpg","stimuli/AM05_HE.jpg","stimuli/WF14_CC.jpg","pos2","stimuli/WM13_DO.jpg","DO","WM13","1","3.5","7","8","stimuli/stars_7.png","192.5","[""SUR"",""DO"",""HE"",""CC""]","[""WM09"",""WM13"",""AM05"",""WF14""]","[3,7,8,5]","[2,8,6,4]","","",""
"show-reward","118","256297","0.0-118.0","p762381","A1VJ4ZOXP9PUCP","336OE47KI3QZCSCUXSQ8J11UOZXVWV","3PEIJLRY6VZU31FJN9WRW6T4NMYXWK","model","match","uniform","","","","","","","","255870.89999997616","257874","","","","","","","","","","","","7","","stimuli/stars_7.png","192.5","","","","","stimuli/WM13_DO.jpg","",""
"explore-choice","119","257601","0.0-119.0","p762381","A1VJ4ZOXP9PUCP","336OE47KI3QZCSCUXSQ8J11UOZXVWV","3PEIJLRY6VZU31FJN9WRW6T4NMYXWK","model","match","uniform","","","","","","","798.5999999642372","257875.19999998808","258673.79999995232","[""stimuli/WM13_DO.jpg"",""stimuli/WM09_CC.jpg"",""stimuli/WF14_HE.jpg"",""stimuli/AM05_SUR.jpg""]","stimuli/WM13_DO.jpg","stimuli/WM09_CC.jpg","stimuli/WF14_HE.jpg","stimuli/AM05_SUR.jpg","pos1","stimuli/WM13_DO.jpg","DO","WM13","0","3.5","7","8","stimuli/stars_7.png","196","[""DO"",""CC"",""HE"",""SUR""]","[""WM13"",""WM09"",""WF14"",""AM05""]","[7,2,4,4]","[8,2,4,6]","","",""
"show-reward","120","259607","0.0-120.0","p762381","A1VJ4ZOXP9PUCP","336OE47KI3QZCSCUXSQ8J11UOZXVWV","3PEIJLRY6VZU31FJN9WRW6T4NMYXWK","model","match","uniform","","","","","","","","259180","261184.39999997616","","","","","","","","","","","","7","","stimuli/stars_7.png","196","","","","","stimuli/WM13_DO.jpg","",""
"explore-choice","121","261093","0.0-121.0","p762381","A1VJ4ZOXP9PUCP","336OE47KI3QZCSCUXSQ8J11UOZXVWV","3PEIJLRY6VZU31FJN9WRW6T4NMYXWK","model","match","uniform","","","","","","","983.9000000357628","261185.79999995232","262169.6999999881","[""stimuli/WF14_DO.jpg"",""stimuli/WM09_CC.jpg"",""stimuli/AM05_SUR.jpg"",""stimuli/WM13_HE.jpg""]","stimuli/WF14_DO.jpg","stimuli/WM09_CC.jpg","stimuli/AM05_SUR.jpg","stimuli/WM13_HE.jpg","pos4","stimuli/WM13_HE.jpg","HE","WM13","3","3.5","7","8","stimuli/stars_7.png","199.5","[""DO"",""CC"",""SUR"",""HE""]","[""WF14"",""WM09"",""AM05"",""WM13""]","[4,4,7,7]","[4,2,6,8]","","",""
"show-reward","122","263096","0.0-122.0","p762381","A1VJ4ZOXP9PUCP","336OE47KI3QZCSCUXSQ8J11UOZXVWV","3PEIJLRY6VZU31FJN9WRW6T4NMYXWK","model","match","uniform","","","","","","","","262670.7999999523","264673.39999997616","","","","","","","","","","","","7","","stimuli/stars_7.png","199.5","","","","","stimuli/WM13_HE.jpg","",""
"explore-choice","123","264303","0.0-123.0","p762381","A1VJ4ZOXP9PUCP","336OE47KI3QZCSCUXSQ8J11UOZXVWV","3PEIJLRY6VZU31FJN9WRW6T4NMYXWK","model","match","uniform","","","","","","","700.5999999642372","264674.5","265375.09999996424","[""stimuli/WM13_SUR.jpg"",""stimuli/WF14_DO.jpg"",""stimuli/AM05_CC.jpg"",""stimuli/WM09_HE.jpg""]","stimuli/WM13_SUR.jpg","stimuli/WF14_DO.jpg","stimuli/AM05_CC.jpg","stimuli/WM09_HE.jpg","pos1","stimuli/WM13_SUR.jpg","SUR","WM13","0","3.5","7","8","stimuli/stars_7.png","203","[""SUR"",""DO"",""CC"",""HE""]","[""WM13"",""WF14"",""AM05"",""WM09""]","[7,2,6,1]","[8,4,6,2]","","",""
"show-reward","124","266308","0.0-124.0","p762381","A1VJ4ZOXP9PUCP","336OE47KI3QZCSCUXSQ8J11UOZXVWV","3PEIJLRY6VZU31FJN9WRW6T4NMYXWK","model","match","uniform","","","","","","","","265881.7999999523","267885.1999999881","","","","","","","","","","","","7","","stimuli/stars_7.png","203","","","","","stimuli/WM13_SUR.jpg","",""
"explore-choice","125","268092","0.0-125.0","p762381","A1VJ4ZOXP9PUCP","336OE47KI3QZCSCUXSQ8J11UOZXVWV","3PEIJLRY6VZU31FJN9WRW6T4NMYXWK","model","match","uniform","","","","","","","1279.7000000476837","267886.7999999523","269166.5","[""stimuli/WF14_CC.jpg"",""stimuli/AM05_DO.jpg"",""stimuli/WM09_HE.jpg"",""stimuli/WM13_SUR.jpg""]","stimuli/WF14_CC.jpg","stimuli/AM05_DO.jpg","stimuli/WM09_HE.jpg","stimuli/WM13_SUR.jpg","pos4","stimuli/WM13_SUR.jpg","SUR","WM13","3","5","10","8","stimuli/stars_10.png","208","[""CC"",""DO"",""HE"",""SUR""]","[""WF14"",""AM05"",""WM09"",""WM13""]","[4,5,1,10]","[4,6,2,8]","","",""
"show-reward","126","270096","0.0-126.0","p762381","A1VJ4ZOXP9PUCP","336OE47KI3QZCSCUXSQ8J11UOZXVWV","3PEIJLRY6VZU31FJN9WRW6T4NMYXWK","model","match","uniform","","","","","","","","269670.6999999881","271673.5","","","","","","","","","","","","10","","stimuli/stars_10.png","208","","","","","stimuli/WM13_SUR.jpg","",""
"explore-choice","127","271319","0.0-127.0","p762381","A1VJ4ZOXP9PUCP","336OE47KI3QZCSCUXSQ8J11UOZXVWV","3PEIJLRY6VZU31FJN9WRW6T4NMYXWK","model","match","uniform","","","","","","","718.5999999642372","271674.6999999881","272393.2999999523","[""stimuli/WM13_HE.jpg"",""stimuli/AM05_DO.jpg"",""stimuli/WF14_CC.jpg"",""stimuli/WM09_SUR.jpg""]","stimuli/WM13_HE.jpg","stimuli/AM05_DO.jpg","stimuli/WF14_CC.jpg","stimuli/WM09_SUR.jpg","pos1","stimuli/WM13_HE.jpg","HE","WM13","0","4.5","9","8","stimuli/stars_9.png","212.5","[""HE"",""DO"",""CC"",""SUR""]","[""WM13"",""AM05"",""WF14"",""WM09""]","[9,6,5,2]","[8,6,4,2]","","",""
"show-reward","128","273329","0.0-128.0","p762381","A1VJ4ZOXP9PUCP","336OE47KI3QZCSCUXSQ8J11UOZXVWV","3PEIJLRY6VZU31FJN9WRW6T4NMYXWK","model","match","uniform","","","","","","","","272899.89999997616","274906.09999996424","","","","","","","","","","","","9","","stimuli/stars_9.png","212.5","","","","","stimuli/WM13_HE.jpg","",""
"explore-choice","129","275322","0.0-129.0","p762381","A1VJ4ZOXP9PUCP","336OE47KI3QZCSCUXSQ8J11UOZXVWV","3PEIJLRY6VZU31FJN9WRW6T4NMYXWK","model","match","uniform","","","","","","","1485.9000000357628","274907.59999996424","276393.5","[""stimuli/WF14_CC.jpg"",""stimuli/WM09_HE.jpg"",""stimuli/WM13_DO.jpg"",""stimuli/AM05_SUR.jpg""]","stimuli/WF14_CC.jpg","stimuli/WM09_HE.jpg","stimuli/WM13_DO.jpg","stimuli/AM05_SUR.jpg","pos3","stimuli/WM13_DO.jpg","DO","WM13","2","5","10","8","stimuli/stars_10.png","217.5","[""CC"",""HE"",""DO"",""SUR""]","[""WF14"",""WM09"",""WM13"",""AM05""]","[6,4,10,4]","[4,2,8,6]","","",""
"show-reward","130","277330","0.0-130.0","p762381","A1VJ4ZOXP9PUCP","336OE47KI3QZCSCUXSQ8J11UOZXVWV","3PEIJLRY6VZU31FJN9WRW6T4NMYXWK","model","match","uniform","","","","","","","","276900.6999999881","278907.1999999881","","","","","","","","","","","","10","","stimuli/stars_10.png","217.5","","","","","stimuli/WM13_DO.jpg","",""
"explore-choice","131","279458","0.0-131.0","p762381","A1VJ4ZOXP9PUCP","336OE47KI3QZCSCUXSQ8J11UOZXVWV","3PEIJLRY6VZU31FJN9WRW6T4NMYXWK","model","match","uniform","","","","","","","1623.300000011921","278909.09999996424","280532.39999997616","[""stimuli/WF14_SUR.jpg"",""stimuli/WM09_DO.jpg"",""stimuli/AM05_CC.jpg"",""stimuli/WM13_HE.jpg""]","stimuli/WF14_SUR.jpg","stimuli/WM09_DO.jpg","stimuli/AM05_CC.jpg","stimuli/WM13_HE.jpg","pos4","stimuli/WM13_HE.jpg","HE","WM13","3","4","8","8","stimuli/stars_8.png","221.5","[""SUR"",""DO"",""CC"",""HE""]","[""WF14"",""WM09"",""AM05"",""WM13""]","[5,0,7,8]","[4,2,6,8]","","",""
"show-reward","132","281463","0.0-132.0","p762381","A1VJ4ZOXP9PUCP","336OE47KI3QZCSCUXSQ8J11UOZXVWV","3PEIJLRY6VZU31FJN9WRW6T4NMYXWK","model","match","uniform","","","","","","","","281036.89999997616","283040.2999999523","","","","","","","","","","","","8","","stimuli/stars_8.png","221.5","","","","","stimuli/WM13_HE.jpg","",""
"explore-choice","133","283141","0.0-133.0","p762381","A1VJ4ZOXP9PUCP","336OE47KI3QZCSCUXSQ8J11UOZXVWV","3PEIJLRY6VZU31FJN9WRW6T4NMYXWK","model","match","uniform","","","","","","","1173.5","283041.6999999881","284215.1999999881","[""stimuli/WM09_CC.jpg"",""stimuli/AM05_HE.jpg"",""stimuli/WF14_DO.jpg"",""stimuli/WM13_SUR.jpg""]","stimuli/WM09_CC.jpg","stimuli/AM05_HE.jpg","stimuli/WF14_DO.jpg","stimuli/WM13_SUR.jpg","pos4","stimuli/WM13_SUR.jpg","SUR","WM13","3","3.5","7","8","stimuli/stars_7.png","225","[""CC"",""HE"",""DO"",""SUR""]","[""WM09"",""AM05"",""WF14"",""WM13""]","[2,5,6,7]","[2,6,4,8]","","",""
"show-reward","134","285146","0.0-134.0","p762381","A1VJ4ZOXP9PUCP","336OE47KI3QZCSCUXSQ8J11UOZXVWV","3PEIJLRY6VZU31FJN9WRW6T4NMYXWK","model","match","uniform","","","","","","","","284720.59999996424","286724.2999999523","","","","","","","","","","","","7","","stimuli/stars_7.png","225","","","","","stimuli/WM13_SUR.jpg","",""
"explore-choice","135","286521","0.0-135.0","p762381","A1VJ4ZOXP9PUCP","336OE47KI3QZCSCUXSQ8J11UOZXVWV","3PEIJLRY6VZU31FJN9WRW6T4NMYXWK","model","match","uniform","","","","","","","867.9000000357628","286725.7999999523","287593.6999999881","[""stimuli/WM09_HE.jpg"",""stimuli/AM05_SUR.jpg"",""stimuli/WF14_DO.jpg"",""stimuli/WM13_CC.jpg""]","stimuli/WM09_HE.jpg","stimuli/AM05_SUR.jpg","stimuli/WF14_DO.jpg","stimuli/WM13_CC.jpg","pos4","stimuli/WM13_CC.jpg","CC","WM13","3","3","6","8","stimuli/stars_6.png","228","[""HE"",""SUR"",""DO"",""CC""]","[""WM09"",""AM05"",""WF14"",""WM13""]","[3,6,2,6]","[2,6,4,8]","","",""
"show-reward","136","288526","0.0-136.0","p762381","A1VJ4ZOXP9PUCP","336OE47KI3QZCSCUXSQ8J11UOZXVWV","3PEIJLRY6VZU31FJN9WRW6T4NMYXWK","model","match","uniform","","","","","","","","288100.5","290103.59999996424","","","","","","","","","","","","6","","stimuli/stars_6.png","228","","","","","stimuli/WM13_CC.jpg","",""
"explore-choice","137","289734","0.0-137.0","p762381","A1VJ4ZOXP9PUCP","336OE47KI3QZCSCUXSQ8J11UOZXVWV","3PEIJLRY6VZU31FJN9WRW6T4NMYXWK","model","match","uniform","","","","","","","700.4000000357628","290106.2999999523","290806.6999999881","[""stimuli/WF14_HE.jpg"",""stimuli/AM05_DO.jpg"",""stimuli/WM13_CC.jpg"",""stimuli/WM09_SUR.jpg""]","stimuli/WF14_HE.jpg","stimuli/AM05_DO.jpg","stimuli/WM13_CC.jpg","stimuli/WM09_SUR.jpg","pos3","stimuli/WM13_CC.jpg","CC","WM13","2","4","8","8","stimuli/stars_8.png","232","[""HE"",""DO"",""CC"",""SUR""]","[""WF14"",""AM05"",""WM13"",""WM09""]","[2,7,8,4]","[4,6,8,2]","","",""
"show-reward","138","291737","0.0-138.0","p762381","A1VJ4ZOXP9PUCP","336OE47KI3QZCSCUXSQ8J11UOZXVWV","3PEIJLRY6VZU31FJN9WRW6T4NMYXWK","model","match","uniform","","","","","","","","291312.7999999523","293314.6999999881","","","","","","","","","","","","8","","stimuli/stars_8.png","232","","","","","stimuli/WM13_CC.jpg","",""
"explore-choice","139","293663","0.0-139.0","p762381","A1VJ4ZOXP9PUCP","336OE47KI3QZCSCUXSQ8J11UOZXVWV","3PEIJLRY6VZU31FJN9WRW6T4NMYXWK","model","match","uniform","","","","","","","1422.800000011921","293316.2999999523","294739.09999996424","[""stimuli/WF14_HE.jpg"",""stimuli/AM05_CC.jpg"",""stimuli/WM09_SUR.jpg"",""stimuli/WM13_DO.jpg""]","stimuli/WF14_HE.jpg","stimuli/AM05_CC.jpg","stimuli/WM09_SUR.jpg","stimuli/WM13_DO.jpg","pos4","stimuli/WM13_DO.jpg","DO","WM13","3","5","10","8","stimuli/stars_10.png","237","[""HE"",""CC"",""SUR"",""DO""]","[""WF14"",""AM05"",""WM09"",""WM13""]","[5,8,2,10]","[4,6,2,8]","","",""
"show-reward","140","295667","0.0-140.0","p762381","A1VJ4ZOXP9PUCP","336OE47KI3QZCSCUXSQ8J11UOZXVWV","3PEIJLRY6VZU31FJN9WRW6T4NMYXWK","model","match","uniform","","","","","","","","295242.7999999523","297245.6999999881","","","","","","","","","","","","10","","stimuli/stars_10.png","237","","","","","stimuli/WM13_DO.jpg","",""
"explore-choice","141","296764","0.0-141.0","p762381","A1VJ4ZOXP9PUCP","336OE47KI3QZCSCUXSQ8J11UOZXVWV","3PEIJLRY6VZU31FJN9WRW6T4NMYXWK","model","match","uniform","","","","","","","591.3999999761581","297246.89999997616","297838.2999999523","[""stimuli/WM13_DO.jpg"",""stimuli/AM05_HE.jpg"",""stimuli/WM09_CC.jpg"",""stimuli/WF14_SUR.jpg""]","stimuli/WM13_DO.jpg","stimuli/AM05_HE.jpg","stimuli/WM09_CC.jpg","stimuli/WF14_SUR.jpg","pos1","stimuli/WM13_DO.jpg","DO","WM13","0","4","8","8","stimuli/stars_8.png","241","[""DO"",""HE"",""CC"",""SUR""]","[""WM13"",""AM05"",""WM09"",""WF14""]","[8,4,1,6]","[8,6,2,4]","","",""
"show-reward","142","298766","0.0-142.0","p762381","A1VJ4ZOXP9PUCP","336OE47KI3QZCSCUXSQ8J11UOZXVWV","3PEIJLRY6VZU31FJN9WRW6T4NMYXWK","model","match","uniform","","","","","","","","298342.6999999881","300344.39999997616","","","","","","","","","","","","8","","stimuli/stars_8.png","241","","","","","stimuli/WM13_DO.jpg","",""
"explore-choice","143","300522","0.0-143.0","p762381","A1VJ4ZOXP9PUCP","336OE47KI3QZCSCUXSQ8J11UOZXVWV","3PEIJLRY6VZU31FJN9WRW6T4NMYXWK","model","match","uniform","","","","","","","1250.9000000357628","300345.09999996424","301596","[""stimuli/WM09_DO.jpg"",""stimuli/AM05_SUR.jpg"",""stimuli/WM13_CC.jpg"",""stimuli/WF14_HE.jpg""]","stimuli/WM09_DO.jpg","stimuli/AM05_SUR.jpg","stimuli/WM13_CC.jpg","stimuli/WF14_HE.jpg","pos3","stimuli/WM13_CC.jpg","CC","WM13","2","3.5","7","8","stimuli/stars_7.png","244.5","[""DO"",""SUR"",""CC"",""HE""]","[""WM09"",""AM05"",""WM13"",""WF14""]","[3,6,7,6]","[2,6,8,4]","","",""
"show-reward","144","302530","0.0-144.0","p762381","A1VJ4ZOXP9PUCP","336OE47KI3QZCSCUXSQ8J11UOZXVWV","3PEIJLRY6VZU31FJN9WRW6T4NMYXWK","model","match","uniform","","","","","","","","302101.5","304108.5","","","","","","","","","","","","7","","stimuli/stars_7.png","244.5","","","","","stimuli/WM13_CC.jpg","",""
"explore-choice","145","305301","0.0-145.0","p762381","A1VJ4ZOXP9PUCP","336OE47KI3QZCSCUXSQ8J11UOZXVWV","3PEIJLRY6VZU31FJN9WRW6T4NMYXWK","model","match","uniform","","","","","","","2262.300000011921","304110.09999996424","306372.39999997616","[""stimuli/WM09_DO.jpg"",""stimuli/WF14_CC.jpg"",""stimuli/AM05_HE.jpg"",""stimuli/WM13_SUR.jpg""]","stimuli/WM09_DO.jpg","stimuli/WF14_CC.jpg","stimuli/AM05_HE.jpg","stimuli/WM13_SUR.jpg","pos4","stimuli/WM13_SUR.jpg","SUR","WM13","3","5","10","8","stimuli/stars_10.png","249.5","[""DO"",""CC"",""HE"",""SUR""]","[""WM09"",""WF14"",""AM05"",""WM13""]","[4,4,6,10]","[2,4,6,8]","","",""
"show-reward","146","307310","0.0-146.0","p762381","A1VJ4ZOXP9PUCP","336OE47KI3QZCSCUXSQ8J11UOZXVWV","3PEIJLRY6VZU31FJN9WRW6T4NMYXWK","model","match","uniform","","","","","","","","306881.2999999523","308889.09999996424","","","","","","","","","","","","10","","stimuli/stars_10.png","249.5","","","","","stimuli/WM13_SUR.jpg","",""
"explore-choice","147","308734","0.0-147.0","p762381","A1VJ4ZOXP9PUCP","336OE47KI3QZCSCUXSQ8J11UOZXVWV","3PEIJLRY6VZU31FJN9WRW6T4NMYXWK","model","match","uniform","","","","","","","920.6000000238419","308889.7999999523","309810.39999997616","[""stimuli/WF14_HE.jpg"",""stimuli/WM13_SUR.jpg"",""stimuli/WM09_CC.jpg"",""stimuli/AM05_DO.jpg""]","stimuli/WF14_HE.jpg","stimuli/WM13_SUR.jpg","stimuli/WM09_CC.jpg","stimuli/AM05_DO.jpg","pos2","stimuli/WM13_SUR.jpg","SUR","WM13","1","3.5","7","8","stimuli/stars_7.png","253","[""HE"",""SUR"",""CC"",""DO""]","[""WF14"",""WM13"",""WM09"",""AM05""]","[6,7,2,5]","[4,8,2,6]","","",""
"show-reward","148","310738","0.0-148.0","p762381","A1VJ4ZOXP9PUCP","336OE47KI3QZCSCUXSQ8J11UOZXVWV","3PEIJLRY6VZU31FJN9WRW6T4NMYXWK","model","match","uniform","","","","","","","","310313.1999999881","312316.2999999523","","","","","","","","","","","","7","","stimuli/stars_7.png","253","","","","","stimuli/WM13_SUR.jpg","",""
"explore-choice","149","312659","0.0-149.0","p762381","A1VJ4ZOXP9PUCP","336OE47KI3QZCSCUXSQ8J11UOZXVWV","3PEIJLRY6VZU31FJN9WRW6T4NMYXWK","model","match","uniform","","","","","","","1419.1000000238419","312317.7999999523","313736.89999997616","[""stimuli/WM13_HE.jpg"",""stimuli/WF14_DO.jpg"",""stimuli/AM05_CC.jpg"",""stimuli/WM09_SUR.jpg""]","stimuli/WM13_HE.jpg","stimuli/WF14_DO.jpg","stimuli/AM05_CC.jpg","stimuli/WM09_SUR.jpg","pos1","stimuli/WM13_HE.jpg","HE","WM13","0","3","6","8","stimuli/stars_6.png","256","[""HE"",""DO"",""CC"",""SUR""]","[""WM13"",""WF14"",""AM05"",""WM09""]","[6,4,5,4]","[8,4,6,2]","","",""
"show-reward","150","314661","0.0-150.0","p762381","A1VJ4ZOXP9PUCP","336OE47KI3QZCSCUXSQ8J11UOZXVWV","3PEIJLRY6VZU31FJN9WRW6T4NMYXWK","model","match","uniform","","","","","","","","314238.5","316240","","","","","","","","","","","","6","","stimuli/stars_6.png","256","","","","","stimuli/WM13_HE.jpg","",""
"explore-choice","151","315891","0.0-151.0","p762381","A1VJ4ZOXP9PUCP","336OE47KI3QZCSCUXSQ8J11UOZXVWV","3PEIJLRY6VZU31FJN9WRW6T4NMYXWK","model","match","uniform","","","","","","","727.5","316241.59999996424","316969.09999996424","[""stimuli/WF14_SUR.jpg"",""stimuli/WM09_DO.jpg"",""stimuli/AM05_CC.jpg"",""stimuli/WM13_HE.jpg""]","stimuli/WF14_SUR.jpg","stimuli/WM09_DO.jpg","stimuli/AM05_CC.jpg","stimuli/WM13_HE.jpg","pos4","stimuli/WM13_HE.jpg","HE","WM13","3","4","8","8","stimuli/stars_8.png","260","[""SUR"",""DO"",""CC"",""HE""]","[""WF14"",""WM09"",""AM05"",""WM13""]","[5,0,7,8]","[4,2,6,8]","","",""
"show-reward","152","317897","0.0-152.0","p762381","A1VJ4ZOXP9PUCP","336OE47KI3QZCSCUXSQ8J11UOZXVWV","3PEIJLRY6VZU31FJN9WRW6T4NMYXWK","model","match","uniform","","","","","","","","317470.89999997616","319475.39999997616","","","","","","","","","","","","8","","stimuli/stars_8.png","260","","","","","stimuli/WM13_HE.jpg","",""
"explore-choice","153","319322","0.0-153.0","p762381","A1VJ4ZOXP9PUCP","336OE47KI3QZCSCUXSQ8J11UOZXVWV","3PEIJLRY6VZU31FJN9WRW6T4NMYXWK","model","match","uniform","","","","","","","924.1000000238419","319476.7999999523","320400.89999997616","[""stimuli/WM09_HE.jpg"",""stimuli/WM13_CC.jpg"",""stimuli/WF14_DO.jpg"",""stimuli/AM05_SUR.jpg""]","stimuli/WM09_HE.jpg","stimuli/WM13_CC.jpg","stimuli/WF14_DO.jpg","stimuli/AM05_SUR.jpg","pos2","stimuli/WM13_CC.jpg","CC","WM13","1","3","6","8","stimuli/stars_6.png","263","[""HE"",""CC"",""DO"",""SUR""]","[""WM09"",""WM13"",""WF14"",""AM05""]","[3,6,2,6]","[2,8,4,6]","","",""
"show-reward","154","321327","0.0-154.0","p762381","A1VJ4ZOXP9PUCP","336OE47KI3QZCSCUXSQ8J11UOZXVWV","3PEIJLRY6VZU31FJN9WRW6T4NMYXWK","model","match","uniform","","","","","","","","320902.59999996424","322905.2999999523","","","","","","","","","","","","6","","stimuli/stars_6.png","263","","","","","stimuli/WM13_CC.jpg","",""
"explore-choice","155","326264","0.0-155.0","p762381","A1VJ4ZOXP9PUCP","336OE47KI3QZCSCUXSQ8J11UOZXVWV","3PEIJLRY6VZU31FJN9WRW6T4NMYXWK","model","match","uniform","","","","","","","4434.800000011921","322907.09999996424","327341.89999997616","[""stimuli/WM09_CC.jpg"",""stimuli/WF14_DO.jpg"",""stimuli/WM13_HE.jpg"",""stimuli/AM05_SUR.jpg""]","stimuli/WM09_CC.jpg","stimuli/WF14_DO.jpg","stimuli/WM13_HE.jpg","stimuli/AM05_SUR.jpg","pos3","stimuli/WM13_HE.jpg","HE","WM13","2","3.5","7","8","stimuli/stars_7.png","266.5","[""CC"",""DO"",""HE"",""SUR""]","[""WM09"",""WF14"",""WM13"",""AM05""]","[4,4,7,7]","[2,4,8,6]","","",""
"show-reward","156","328272","0.0-156.0","p762381","A1VJ4ZOXP9PUCP","336OE47KI3QZCSCUXSQ8J11UOZXVWV","3PEIJLRY6VZU31FJN9WRW6T4NMYXWK","model","match","uniform","","","","","","","","327844.59999996424","329851.09999996424","","","","","","","","","","","","7","","stimuli/stars_7.png","266.5","","","","","stimuli/WM13_HE.jpg","",""
"explore-choice","157","338171","0.0-157.0","p762381","A1VJ4ZOXP9PUCP","336OE47KI3QZCSCUXSQ8J11UOZXVWV","3PEIJLRY6VZU31FJN9WRW6T4NMYXWK","model","match","uniform","","","","","","","9397.200000047684","329852.7999999523","339250","[""stimuli/AM05_DO.jpg"",""stimuli/WM13_SUR.jpg"",""stimuli/WF14_HE.jpg"",""stimuli/WM09_CC.jpg""]","stimuli/AM05_DO.jpg","stimuli/WM13_SUR.jpg","stimuli/WF14_HE.jpg","stimuli/WM09_CC.jpg","pos2","stimuli/WM13_SUR.jpg","SUR","WM13","1","3.5","7","8","stimuli/stars_7.png","270","[""DO"",""SUR"",""HE"",""CC""]","[""AM05"",""WM13"",""WF14"",""WM09""]","[5,7,6,2]","[6,8,4,2]","","",""
"show-reward","158","340179","0.0-158.0","p762381","A1VJ4ZOXP9PUCP","336OE47KI3QZCSCUXSQ8J11UOZXVWV","3PEIJLRY6VZU31FJN9WRW6T4NMYXWK","model","match","uniform","","","","","","","","339751.5","341758.2999999523","","","","","","","","","","","","7","","stimuli/stars_7.png","270","","","","","stimuli/WM13_SUR.jpg","",""
"explore-choice","159","343635","0.0-159.0","p762381","A1VJ4ZOXP9PUCP","336OE47KI3QZCSCUXSQ8J11UOZXVWV","3PEIJLRY6VZU31FJN9WRW6T4NMYXWK","model","match","uniform","","","","","","","2953.099999964237","341760","344713.09999996424","[""stimuli/WF14_HE.jpg"",""stimuli/WM09_DO.jpg"",""stimuli/WM13_SUR.jpg"",""stimuli/AM05_CC.jpg""]","stimuli/WF14_HE.jpg","stimuli/WM09_DO.jpg","stimuli/WM13_SUR.jpg","stimuli/AM05_CC.jpg","pos3","stimuli/WM13_SUR.jpg","SUR","WM13","2","3","6","8","stimuli/stars_6.png","273","[""HE"",""DO"",""SUR"",""CC""]","[""WF14"",""WM09"",""WM13"",""AM05""]","[4,2,6,4]","[4,2,8,6]","","",""
"show-reward","160","345640","0.0-160.0","p762381","A1VJ4ZOXP9PUCP","336OE47KI3QZCSCUXSQ8J11UOZXVWV","3PEIJLRY6VZU31FJN9WRW6T4NMYXWK","model","match","uniform","","","","","","","","345215.7999999523","347219.39999997616","","","","","","","","","","","","6","","stimuli/stars_6.png","273","","","","","stimuli/WM13_SUR.jpg","",""
"explore-choice","161","353231","0.0-161.0","p762381","A1VJ4ZOXP9PUCP","336OE47KI3QZCSCUXSQ8J11UOZXVWV","3PEIJLRY6VZU31FJN9WRW6T4NMYXWK","model","match","uniform","","","","","","","7086.099999964237","347221","354307.09999996424","[""stimuli/AM05_SUR.jpg"",""stimuli/WF14_CC.jpg"",""stimuli/WM13_HE.jpg"",""stimuli/WM09_DO.jpg""]","stimuli/AM05_SUR.jpg","stimuli/WF14_CC.jpg","stimuli/WM13_HE.jpg","stimuli/WM09_DO.jpg","pos3","stimuli/WM13_HE.jpg","HE","WM13","2","4","8","8","stimuli/stars_8.png","277","[""SUR"",""CC"",""HE"",""DO""]","[""AM05"",""WF14"",""WM13"",""WM09""]","[8,2,8,4]","[6,4,8,2]","","",""
"show-reward","162","355235","0.0-162.0","p762381","A1VJ4ZOXP9PUCP","336OE47KI3QZCSCUXSQ8J11UOZXVWV","3PEIJLRY6VZU31FJN9WRW6T4NMYXWK","model","match","uniform","","","","","","","","354813.09999996424","356815.1999999881","","","","","","","","","","","","8","","stimuli/stars_8.png","277","","","","","stimuli/WM13_HE.jpg","",""
"explore-choice","163","362468","0.0-163.0","p762381","A1VJ4ZOXP9PUCP","336OE47KI3QZCSCUXSQ8J11UOZXVWV","3PEIJLRY6VZU31FJN9WRW6T4NMYXWK","model","match","uniform","","","","","","","6730.600000023842","356816.7999999523","363547.39999997616","[""stimuli/WM09_HE.jpg"",""stimuli/WM13_SUR.jpg"",""stimuli/WF14_CC.jpg"",""stimuli/AM05_DO.jpg""]","stimuli/WM09_HE.jpg","stimuli/WM13_SUR.jpg","stimuli/WF14_CC.jpg","stimuli/AM05_DO.jpg","pos2","stimuli/WM13_SUR.jpg","SUR","WM13","1","5","10","8","stimuli/stars_10.png","282","[""HE"",""SUR"",""CC"",""DO""]","[""WM09"",""WM13"",""WF14"",""AM05""]","[1,10,4,5]","[2,8,4,6]","","",""
"show-reward","164","364480","0.0-164.0","p762381","A1VJ4ZOXP9PUCP","336OE47KI3QZCSCUXSQ8J11UOZXVWV","3PEIJLRY6VZU31FJN9WRW6T4NMYXWK","model","match","uniform","","","","","","","","364049.59999996424","366059.5","","","","","","","","","","","","10","","stimuli/stars_10.png","282","","","","","stimuli/WM13_SUR.jpg","",""
"explore-choice","165","376958","0.0-165.0","p762381","A1VJ4ZOXP9PUCP","336OE47KI3QZCSCUXSQ8J11UOZXVWV","3PEIJLRY6VZU31FJN9WRW6T4NMYXWK","model","match","uniform","","","","","","","11975.5","366061.59999996424","378037.09999996424","[""stimuli/WM13_DO.jpg"",""stimuli/WM09_SUR.jpg"",""stimuli/WF14_CC.jpg"",""stimuli/AM05_HE.jpg""]","stimuli/WM13_DO.jpg","stimuli/WM09_SUR.jpg","stimuli/WF14_CC.jpg","stimuli/AM05_HE.jpg","pos1","stimuli/WM13_DO.jpg","DO","WM13","0","3.5","7","8","stimuli/stars_7.png","285.5","[""DO"",""SUR"",""CC"",""HE""]","[""WM13"",""WM09"",""WF14"",""AM05""]","[7,3,5,8]","[8,2,4,6]","","",""
"show-reward","166","378964","0.0-166.0","p762381","A1VJ4ZOXP9PUCP","336OE47KI3QZCSCUXSQ8J11UOZXVWV","3PEIJLRY6VZU31FJN9WRW6T4NMYXWK","model","match","uniform","","","","","","","","378541.59999996424","380544.59999996424","","","","","","","","","","","","7","","stimuli/stars_7.png","285.5","","","","","stimuli/WM13_DO.jpg","",""
"explore-choice","167","397491","0.0-167.0","p762381","A1VJ4ZOXP9PUCP","336OE47KI3QZCSCUXSQ8J11UOZXVWV","3PEIJLRY6VZU31FJN9WRW6T4NMYXWK","model","match","uniform","","","","","","","18022.299999952316","380546.5","398568.7999999523","[""stimuli/WF14_HE.jpg"",""stimuli/WM09_CC.jpg"",""stimuli/AM05_SUR.jpg"",""stimuli/WM13_DO.jpg""]","stimuli/WF14_HE.jpg","stimuli/WM09_CC.jpg","stimuli/AM05_SUR.jpg","stimuli/WM13_DO.jpg","pos4","stimuli/WM13_DO.jpg","DO","WM13","3","3.5","7","8","stimuli/stars_7.png","289","[""HE"",""CC"",""SUR"",""DO""]","[""WF14"",""WM09"",""AM05"",""WM13""]","[4,2,4,7]","[4,2,6,8]","","",""
"show-reward","168","399496","0.0-168.0","p762381","A1VJ4ZOXP9PUCP","336OE47KI3QZCSCUXSQ8J11UOZXVWV","3PEIJLRY6VZU31FJN9WRW6T4NMYXWK","model","match","uniform","","","","","","","","399074.59999996424","401077.6999999881","","","","","","","","","","","","7","","stimuli/stars_7.png","289","","","","","stimuli/WM13_DO.jpg","",""
"explore-choice","169","412846","0.0-169.0","p762381","A1VJ4ZOXP9PUCP","336OE47KI3QZCSCUXSQ8J11UOZXVWV","3PEIJLRY6VZU31FJN9WRW6T4NMYXWK","model","match","uniform","","","","","","","12844.800000011921","401079.1999999881","413924","[""stimuli/WM09_HE.jpg"",""stimuli/AM05_SUR.jpg"",""stimuli/WM13_DO.jpg"",""stimuli/WF14_CC.jpg""]","stimuli/WM09_HE.jpg","stimuli/AM05_SUR.jpg","stimuli/WM13_DO.jpg","stimuli/WF14_CC.jpg","pos3","stimuli/WM13_DO.jpg","DO","WM13","2","5","10","8","stimuli/stars_10.png","294","[""HE"",""SUR"",""DO"",""CC""]","[""WM09"",""AM05"",""WM13"",""WF14""]","[4,4,10,6]","[2,6,8,4]","","",""
"show-reward","170","414847","0.0-170.0","p762381","A1VJ4ZOXP9PUCP","336OE47KI3QZCSCUXSQ8J11UOZXVWV","3PEIJLRY6VZU31FJN9WRW6T4NMYXWK","model","match","uniform","","","","","","","","414428.2999999523","416429.1999999881","","","","","","","","","","","","10","","stimuli/stars_10.png","294","","","","","stimuli/WM13_DO.jpg","",""
"explore-choice","171","433254","0.0-171.0","p762381","A1VJ4ZOXP9PUCP","336OE47KI3QZCSCUXSQ8J11UOZXVWV","3PEIJLRY6VZU31FJN9WRW6T4NMYXWK","model","match","uniform","","","","","","","17904.80000001192","416430.6999999881","434335.5","[""stimuli/AM05_DO.jpg"",""stimuli/WM09_SUR.jpg"",""stimuli/WF14_HE.jpg"",""stimuli/WM13_CC.jpg""]","stimuli/AM05_DO.jpg","stimuli/WM09_SUR.jpg","stimuli/WF14_HE.jpg","stimuli/WM13_CC.jpg","pos4","stimuli/WM13_CC.jpg","CC","WM13","3","4","8","8","stimuli/stars_8.png","298","[""DO"",""SUR"",""HE"",""CC""]","[""AM05"",""WM09"",""WF14"",""WM13""]","[7,4,2,8]","[6,2,4,8]","","",""
"show-reward","172","435258","0.0-172.0","p762381","A1VJ4ZOXP9PUCP","336OE47KI3QZCSCUXSQ8J11UOZXVWV","3PEIJLRY6VZU31FJN9WRW6T4NMYXWK","model","match","uniform","","","","","","","","434838.2999999523","436840.89999997616","","","","","","","","","","","","8","","stimuli/stars_8.png","298","","","","","stimuli/WM13_CC.jpg","",""
"explore-choice","173","438265","0.0-173.0","p762381","A1VJ4ZOXP9PUCP","336OE47KI3QZCSCUXSQ8J11UOZXVWV","3PEIJLRY6VZU31FJN9WRW6T4NMYXWK","model","match","uniform","","","","","","","2497.300000011921","436842.39999997616","439339.6999999881","[""stimuli/WF14_DO.jpg"",""stimuli/WM13_SUR.jpg"",""stimuli/WM09_HE.jpg"",""stimuli/AM05_CC.jpg""]","stimuli/WF14_DO.jpg","stimuli/WM13_SUR.jpg","stimuli/WM09_HE.jpg","stimuli/AM05_CC.jpg","pos2","stimuli/WM13_SUR.jpg","SUR","WM13","1","3.5","7","8","stimuli/stars_7.png","301.5","[""DO"",""SUR"",""HE"",""CC""]","[""WF14"",""WM13"",""WM09"",""AM05""]","[2,7,1,6]","[4,8,2,6]","","",""
"show-reward","174","440277","0.0-174.0","p762381","A1VJ4ZOXP9PUCP","336OE47KI3QZCSCUXSQ8J11UOZXVWV","3PEIJLRY6VZU31FJN9WRW6T4NMYXWK","model","match","uniform","","","","","","","","439848.59999996424","441859.09999996424","","","","","","","","","","","","7","","stimuli/stars_7.png","301.5","","","","","stimuli/WM13_SUR.jpg","",""
"explore-choice","175","441549","0.0-175.0","p762381","A1VJ4ZOXP9PUCP","336OE47KI3QZCSCUXSQ8J11UOZXVWV","3PEIJLRY6VZU31FJN9WRW6T4NMYXWK","model","match","uniform","","","","","","","766.1999999880791","441860.5","442626.6999999881","[""stimuli/WM13_HE.jpg"",""stimuli/WF14_CC.jpg"",""stimuli/AM05_DO.jpg"",""stimuli/WM09_SUR.jpg""]","stimuli/WM13_HE.jpg","stimuli/WF14_CC.jpg","stimuli/AM05_DO.jpg","stimuli/WM09_SUR.jpg","pos1","stimuli/WM13_HE.jpg","HE","WM13","0","4.5","9","8","stimuli/stars_9.png","306","[""HE"",""CC"",""DO"",""SUR""]","[""WM13"",""WF14"",""AM05"",""WM09""]","[9,5,6,2]","[8,4,6,2]","","",""
"show-reward","176","443554","0.0-176.0","p762381","A1VJ4ZOXP9PUCP","336OE47KI3QZCSCUXSQ8J11UOZXVWV","3PEIJLRY6VZU31FJN9WRW6T4NMYXWK","model","match","uniform","","","","","","","","443133.1999999881","445136.39999997616","","","","","","","","","","","","9","","stimuli/stars_9.png","306","","","","","stimuli/WM13_HE.jpg","",""
"explore-choice","177","444817","0.0-177.0","p762381","A1VJ4ZOXP9PUCP","336OE47KI3QZCSCUXSQ8J11UOZXVWV","3PEIJLRY6VZU31FJN9WRW6T4NMYXWK","model","match","uniform","","","","","","","758.1999999880791","445139.89999997616","445898.09999996424","[""stimuli/AM05_CC.jpg"",""stimuli/WF14_DO.jpg"",""stimuli/WM09_SUR.jpg"",""stimuli/WM13_HE.jpg""]","stimuli/AM05_CC.jpg","stimuli/WF14_DO.jpg","stimuli/WM09_SUR.jpg","stimuli/WM13_HE.jpg","pos4","stimuli/WM13_HE.jpg","HE","WM13","3","3","6","8","stimuli/stars_6.png","309","[""CC"",""DO"",""SUR"",""HE""]","[""AM05"",""WF14"",""WM09"",""WM13""]","[5,4,4,6]","[6,4,2,8]","","",""
"show-reward","178","446823","0.0-178.0","p762381","A1VJ4ZOXP9PUCP","336OE47KI3QZCSCUXSQ8J11UOZXVWV","3PEIJLRY6VZU31FJN9WRW6T4NMYXWK","model","match","uniform","","","","","","","","446403.09999996424","448405","","","","","","","","","","","","6","","stimuli/stars_6.png","309","","","","","stimuli/WM13_HE.jpg","",""
"explore-choice","179","448594","0.0-179.0","p762381","A1VJ4ZOXP9PUCP","336OE47KI3QZCSCUXSQ8J11UOZXVWV","3PEIJLRY6VZU31FJN9WRW6T4NMYXWK","model","match","uniform","","","","","","","1269.8999999761581","448406.5","449676.39999997616","[""stimuli/WF14_DO.jpg"",""stimuli/WM09_CC.jpg"",""stimuli/WM13_SUR.jpg"",""stimuli/AM05_HE.jpg""]","stimuli/WF14_DO.jpg","stimuli/WM09_CC.jpg","stimuli/WM13_SUR.jpg","stimuli/AM05_HE.jpg","pos3","stimuli/WM13_SUR.jpg","SUR","WM13","2","3.5","7","8","stimuli/stars_7.png","312.5","[""DO"",""CC"",""SUR"",""HE""]","[""WF14"",""WM09"",""WM13"",""AM05""]","[6,2,7,5]","[4,2,8,6]","","",""
"show-reward","180","450599","0.0-180.0","p762381","A1VJ4ZOXP9PUCP","336OE47KI3QZCSCUXSQ8J11UOZXVWV","3PEIJLRY6VZU31FJN9WRW6T4NMYXWK","model","match","uniform","","","","","","","","450178.89999997616","452181.39999997616","","","","","","","","","","","","7","","stimuli/stars_7.png","312.5","","","","","stimuli/WM13_SUR.jpg","",""
"explore-choice","181","451943","0.0-181.0","p762381","A1VJ4ZOXP9PUCP","336OE47KI3QZCSCUXSQ8J11UOZXVWV","3PEIJLRY6VZU31FJN9WRW6T4NMYXWK","model","match","uniform","","","","","","","842.0999999642372","452183","453025.09999996424","[""stimuli/WM13_HE.jpg"",""stimuli/WF14_SUR.jpg"",""stimuli/WM09_CC.jpg"",""stimuli/AM05_DO.jpg""]","stimuli/WM13_HE.jpg","stimuli/WF14_SUR.jpg","stimuli/WM09_CC.jpg","stimuli/AM05_DO.jpg","pos1","stimuli/WM13_HE.jpg","HE","WM13","0","3.5","7","8","stimuli/stars_7.png","316","[""HE"",""SUR"",""CC"",""DO""]","[""WM13"",""WF14"",""WM09"",""AM05""]","[7,5,1,7]","[8,4,2,6]","","",""
"show-reward","182","453948","0.0-182.0","p762381","A1VJ4ZOXP9PUCP","336OE47KI3QZCSCUXSQ8J11UOZXVWV","3PEIJLRY6VZU31FJN9WRW6T4NMYXWK","model","match","uniform","","","","","","","","453527.39999997616","455531.09999996424","","","","","","","","","","","","7","","stimuli/stars_7.png","316","","","","","stimuli/WM13_HE.jpg","",""
"explore-choice","183","455406","0.0-183.0","p762381","A1VJ4ZOXP9PUCP","336OE47KI3QZCSCUXSQ8J11UOZXVWV","3PEIJLRY6VZU31FJN9WRW6T4NMYXWK","model","match","uniform","","","","","","","951.0999999642372","455532.6999999881","456483.7999999523","[""stimuli/WM09_DO.jpg"",""stimuli/WM13_SUR.jpg"",""stimuli/AM05_HE.jpg"",""stimuli/WF14_CC.jpg""]","stimuli/WM09_DO.jpg","stimuli/WM13_SUR.jpg","stimuli/AM05_HE.jpg","stimuli/WF14_CC.jpg","pos2","stimuli/WM13_SUR.jpg","SUR","WM13","1","5","10","8","stimuli/stars_10.png","321","[""DO"",""SUR"",""HE"",""CC""]","[""WM09"",""WM13"",""AM05"",""WF14""]","[4,10,6,4]","[2,8,6,4]","","",""
"show-reward","184","457415","0.0-184.0","p762381","A1VJ4ZOXP9PUCP","336OE47KI3QZCSCUXSQ8J11UOZXVWV","3PEIJLRY6VZU31FJN9WRW6T4NMYXWK","model","match","uniform","","","","","","","","456990.1999999881","458997.7999999523","","","","","","","","","","","","10","","stimuli/stars_10.png","321","","","","","stimuli/WM13_SUR.jpg","",""
"explore-choice","185","459216","0.0-185.0","p762381","A1VJ4ZOXP9PUCP","336OE47KI3QZCSCUXSQ8J11UOZXVWV","3PEIJLRY6VZU31FJN9WRW6T4NMYXWK","model","match","uniform","","","","","","","1296.300000011921","458999.89999997616","460296.1999999881","[""stimuli/WM13_CC.jpg"",""stimuli/WM09_SUR.jpg"",""stimuli/AM05_HE.jpg"",""stimuli/WF14_DO.jpg""]","stimuli/WM13_CC.jpg","stimuli/WM09_SUR.jpg","stimuli/AM05_HE.jpg","stimuli/WF14_DO.jpg","pos1","stimuli/WM13_CC.jpg","CC","WM13","0","5","10","8","stimuli/stars_10.png","326","[""CC"",""SUR"",""HE"",""DO""]","[""WM13"",""WM09"",""AM05"",""WF14""]","[10,2,5,6]","[8,2,6,4]","","",""
"show-reward","186","461221","0.0-186.0","p762381","A1VJ4ZOXP9PUCP","336OE47KI3QZCSCUXSQ8J11UOZXVWV","3PEIJLRY6VZU31FJN9WRW6T4NMYXWK","model","match","uniform","","","","","","","","460801.2999999523","462803.7999999523","","","","","","","","","","","","10","","stimuli/stars_10.png","326","","","","","stimuli/WM13_CC.jpg","",""
"explore-choice","187","463198","0.0-187.0","p762381","A1VJ4ZOXP9PUCP","336OE47KI3QZCSCUXSQ8J11UOZXVWV","3PEIJLRY6VZU31FJN9WRW6T4NMYXWK","model","match","uniform","","","","","","","1469.800000011921","462806.2999999523","464276.09999996424","[""stimuli/WF14_SUR.jpg"",""stimuli/WM09_CC.jpg"",""stimuli/AM05_HE.jpg"",""stimuli/WM13_DO.jpg""]","stimuli/WF14_SUR.jpg","stimuli/WM09_CC.jpg","stimuli/AM05_HE.jpg","stimuli/WM13_DO.jpg","pos4","stimuli/WM13_DO.jpg","DO","WM13","3","4","8","8","stimuli/stars_8.png","330","[""SUR"",""CC"",""HE"",""DO""]","[""WF14"",""WM09"",""AM05"",""WM13""]","[6,1,4,8]","[4,2,6,8]","","",""
"show-reward","188","465205","0.0-188.0","p762381","A1VJ4ZOXP9PUCP","336OE47KI3QZCSCUXSQ8J11UOZXVWV","3PEIJLRY6VZU31FJN9WRW6T4NMYXWK","model","match","uniform","","","","","","","","464782.7999999523","466788.7999999523","","","","","","","","","","","","8","","stimuli/stars_8.png","330","","","","","stimuli/WM13_DO.jpg","",""
"explore-choice","189","466668","0.0-189.0","p762381","A1VJ4ZOXP9PUCP","336OE47KI3QZCSCUXSQ8J11UOZXVWV","3PEIJLRY6VZU31FJN9WRW6T4NMYXWK","model","match","uniform","","","","","","","961.6999999880791","466790","467751.6999999881","[""stimuli/WM09_HE.jpg"",""stimuli/WF14_SUR.jpg"",""stimuli/WM13_CC.jpg"",""stimuli/AM05_DO.jpg""]","stimuli/WM09_HE.jpg","stimuli/WF14_SUR.jpg","stimuli/WM13_CC.jpg","stimuli/AM05_DO.jpg","pos3","stimuli/WM13_CC.jpg","CC","WM13","2","3.5","7","8","stimuli/stars_7.png","333.5","[""HE"",""SUR"",""CC"",""DO""]","[""WM09"",""WF14"",""WM13"",""AM05""]","[4,4,7,8]","[2,4,8,6]","","",""
"show-reward","190","468671","0.0-190.0","p762381","A1VJ4ZOXP9PUCP","336OE47KI3QZCSCUXSQ8J11UOZXVWV","3PEIJLRY6VZU31FJN9WRW6T4NMYXWK","model","match","uniform","","","","","","","","468252.6999999881","470254.7999999523","","","","","","","","","","","","7","","stimuli/stars_7.png","333.5","","","","","stimuli/WM13_CC.jpg","",""
"explore-choice","191","470417","0.0-191.0","p762381","A1VJ4ZOXP9PUCP","336OE47KI3QZCSCUXSQ8J11UOZXVWV","3PEIJLRY6VZU31FJN9WRW6T4NMYXWK","model","match","uniform","","","","","","","1242.300000011921","470256.39999997616","471498.6999999881","[""stimuli/AM05_CC.jpg"",""stimuli/WM13_DO.jpg"",""stimuli/WM09_HE.jpg"",""stimuli/WF14_SUR.jpg""]","stimuli/AM05_CC.jpg","stimuli/WM13_DO.jpg","stimuli/WM09_HE.jpg","stimuli/WF14_SUR.jpg","pos2","stimuli/WM13_DO.jpg","DO","WM13","1","3","6","8","stimuli/stars_6.png","336.5","[""CC"",""DO"",""HE"",""SUR""]","[""AM05"",""WM13"",""WM09"",""WF14""]","[6,6,1,4]","[6,8,2,4]","","",""
"show-reward","192","472422","0.0-192.0","p762381","A1VJ4ZOXP9PUCP","336OE47KI3QZCSCUXSQ8J11UOZXVWV","3PEIJLRY6VZU31FJN9WRW6T4NMYXWK","model","match","uniform","","","","","","","","472002","474005.1999999881","","","","","","","","","","","","6","","stimuli/stars_6.png","336.5","","","","","stimuli/WM13_DO.jpg","",""
"explore-choice","193","475114","0.0-193.0","p762381","A1VJ4ZOXP9PUCP","336OE47KI3QZCSCUXSQ8J11UOZXVWV","3PEIJLRY6VZU31FJN9WRW6T4NMYXWK","model","match","uniform","","","","","","","2189.400000035763","474007.09999996424","476196.5","[""stimuli/WM09_DO.jpg"",""stimuli/WM13_CC.jpg"",""stimuli/AM05_HE.jpg"",""stimuli/WF14_SUR.jpg""]","stimuli/WM09_DO.jpg","stimuli/WM13_CC.jpg","stimuli/AM05_HE.jpg","stimuli/WF14_SUR.jpg","pos2","stimuli/WM13_CC.jpg","CC","WM13","1","5","10","8","stimuli/stars_10.png","341.5","[""DO"",""CC"",""HE"",""SUR""]","[""WM09"",""WM13"",""AM05"",""WF14""]","[3,10,4,2]","[2,8,6,4]","","",""
"show-reward","194","477118","0.0-194.0","p762381","A1VJ4ZOXP9PUCP","336OE47KI3QZCSCUXSQ8J11UOZXVWV","3PEIJLRY6VZU31FJN9WRW6T4NMYXWK","model","match","uniform","","","","","","","","476699","478701.39999997616","","","","","","","","","","","","10","","stimuli/stars_10.png","341.5","","","","","stimuli/WM13_CC.jpg","",""
"explore-choice","195","478365","0.0-195.0","p762381","A1VJ4ZOXP9PUCP","336OE47KI3QZCSCUXSQ8J11UOZXVWV","3PEIJLRY6VZU31FJN9WRW6T4NMYXWK","model","match","uniform","","","","","","","738.5","478702.7999999523","479441.2999999523","[""stimuli/WM13_CC.jpg"",""stimuli/WF14_HE.jpg"",""stimuli/WM09_DO.jpg"",""stimuli/AM05_SUR.jpg""]","stimuli/WM13_CC.jpg","stimuli/WF14_HE.jpg","stimuli/WM09_DO.jpg","stimuli/AM05_SUR.jpg","pos1","stimuli/WM13_CC.jpg","CC","WM13","0","3.5","7","8","stimuli/stars_7.png","345","[""CC"",""HE"",""DO"",""SUR""]","[""WM13"",""WF14"",""WM09"",""AM05""]","[7,6,3,6]","[8,4,2,6]","","",""
"show-reward","196","480376","0.0-196.0","p762381","A1VJ4ZOXP9PUCP","336OE47KI3QZCSCUXSQ8J11UOZXVWV","3PEIJLRY6VZU31FJN9WRW6T4NMYXWK","model","match","uniform","","","","","","","","479950","481959.59999996424","","","","","","","","","","","","7","","stimuli/stars_7.png","345","","","","","stimuli/WM13_CC.jpg","",""
"explore-choice","197","481538","0.0-197.0","p762381","A1VJ4ZOXP9PUCP","336OE47KI3QZCSCUXSQ8J11UOZXVWV","3PEIJLRY6VZU31FJN9WRW6T4NMYXWK","model","match","uniform","","","","","","","660.3000000119209","481961.1999999881","482621.5","[""stimuli/WM13_DO.jpg"",""stimuli/WM09_SUR.jpg"",""stimuli/WF14_HE.jpg"",""stimuli/AM05_CC.jpg""]","stimuli/WM13_DO.jpg","stimuli/WM09_SUR.jpg","stimuli/WF14_HE.jpg","stimuli/AM05_CC.jpg","pos1","stimuli/WM13_DO.jpg","DO","WM13","0","5","10","8","stimuli/stars_10.png","350","[""DO"",""SUR"",""HE"",""CC""]","[""WM13"",""WM09"",""WF14"",""AM05""]","[10,2,5,8]","[8,2,4,6]","","",""
"show-reward","198","483546","0.0-198.0","p762381","A1VJ4ZOXP9PUCP","336OE47KI3QZCSCUXSQ8J11UOZXVWV","3PEIJLRY6VZU31FJN9WRW6T4NMYXWK","model","match","uniform","","","","","","","","483123.2999999523","485129.5","","","","","","","","","","","","10","","stimuli/stars_10.png","350","","","","","stimuli/WM13_DO.jpg","",""
"instructions","199","486263","0.0-199.0","p762381","A1VJ4ZOXP9PUCP","336OE47KI3QZCSCUXSQ8J11UOZXVWV","3PEIJLRY6VZU31FJN9WRW6T4NMYXWK","model","match","uniform","","","","","","[{""page_index"":0,""viewing_time"":2716}]","2716.5","","","","","","","","","","","","","","","","","","","","","","","",""
"survey-text","200","488574","0.0-200.0-0.0","p762381","A1VJ4ZOXP9PUCP","336OE47KI3QZCSCUXSQ8J11UOZXVWV","3PEIJLRY6VZU31FJN9WRW6T4NMYXWK","model","match","uniform","","","","","","","2302.800000011921","","","","","","","","","","","","","","","","","","","","","","","{""age"":""32""}",""
"survey-text","201","490985","0.0-200.0-1.0","p762381","A1VJ4ZOXP9PUCP","336OE47KI3QZCSCUXSQ8J11UOZXVWV","3PEIJLRY6VZU31FJN9WRW6T4NMYXWK","model","match","uniform","","","","","","","2408.7000000476837","","","","","","","","","","","","","","","","","","","","","","","{""gender"":""female""}",""
"survey-text","202","493441","0.0-200.0-2.0","p762381","A1VJ4ZOXP9PUCP","336OE47KI3QZCSCUXSQ8J11UOZXVWV","3PEIJLRY6VZU31FJN9WRW6T4NMYXWK","model","match","uniform","","","","","","","2450.300000011921","","","","","","","","","","","","","","","","","","","","","","","{""country"":""USA""}",""
"survey-text","203","496371","0.0-200.0-3.0","p762381","A1VJ4ZOXP9PUCP","336OE47KI3QZCSCUXSQ8J11UOZXVWV","3PEIJLRY6VZU31FJN9WRW6T4NMYXWK","model","match","uniform","","","","","","","2924.800000011921","","","","","","","","","","","","","","","","","","","","","","","{""language"":""English"",""other_languages"":""""}",""
"survey-multi-select","204","498903","0.0-201.0","p762381","A1VJ4ZOXP9PUCP","336OE47KI3QZCSCUXSQ8J11UOZXVWV","3PEIJLRY6VZU31FJN9WRW6T4NMYXWK","model","match","uniform","","","","","","","2517.300000011921","","","","","","","","","","","","","","","","","","","","","","","{""race"":[""White""]}","[0]"
"survey-multi-choice","205","501095","0.0-202.0","p762381","A1VJ4ZOXP9PUCP","336OE47KI3QZCSCUXSQ8J11UOZXVWV","3PEIJLRY6VZU31FJN9WRW6T4NMYXWK","model","match","uniform","","","","","","","2187.800000011921","","","","","","","","","","","","","","","","","","","","","","","{""education"":""Bachelor's degree""}","[0]"
"survey-text","206","519059","0.0-203.0","p762381","A1VJ4ZOXP9PUCP","336OE47KI3QZCSCUXSQ8J11UOZXVWV","3PEIJLRY6VZU31FJN9WRW6T4NMYXWK","model","match","uniform","","","","","","","17853.69999998808","","","","","","","","","","","","","","","","","","","","","","","{""patterns"":""Yes, I noticed the same people earned more stars."",""strategy"":""I found the faces that earned more starts"",""comments"":""""}",""
