"trial_type","trial_index","time_elapsed","internal_node_id","subject","workerId","hitId","assignmentId","structure_condition","match_condition","noise_type","success","timeout","failed_images","failed_audio","failed_video","view_history","rt","start_time","end_time","stimuli","image1","image2","image3","image4","choiceLocation","choiceImage","choiceEmotion","choiceModel","choice_index","reward_score","reward","reward_score_unadjusted","reward_image","score_after_trial","emotions","models","rewards","rewards_unadjusted","stimulus","response","question_order"
"pavlovia","0","36","0.0-0.0","p223454","A1IFIK8J49WBER","3FVBZG9CLKK1M1GPZWGJX51HFG80HB","37UEWGM5HVEH54D4HM1EEYHMQTF1R6","emotion","mismatch","uniform","","","","","","","","","","","","","","","","","","","","","","","","","","","","","","",""
"preload","1","12900","0.0-1.0","p223454","A1IFIK8J49WBER","3FVBZG9CLKK1M1GPZWGJX51HFG80HB","37UEWGM5HVEH54D4HM1EEYHMQTF1R6","emotion","mismatch","uniform","true","false","[]","[]","[]","","","","","","","","","","","","","","","","","","","","","","","","","",""
"fullscreen","2","16311","0.0-2.0","p223454","A1IFIK8J49WBER","3FVBZG9CLKK1M1GPZWGJX51HFG80HB","37UEWGM5HVEH54D4HM1EEYHMQTF1R6","emotion","mismatch","uniform","true","","","","","","","","","","","","","","","","","","","","","","","","","","","","","",""
"instructions","3","27309","0.0-3.0","p223454","A1IFIK8J49WBER","3FVBZG9CLKK1M1GPZWGJX51HFG80HB","37UEWGM5HVEH54D4HM1EEYHMQTF1R6","emotion","mismatch","uniform","","","","","","[{""page_index"":0,""viewing_time"":10994.799999952316}]","10996.299999952316","","","","","","","","","","","","","","","","","","","","","","","",""
"explore-choice","4","30601","0.0-4.0","p223454","A1IFIK8J49WBER","3FVBZG9CLKK1M1GPZWGJX51HFG80HB","37UEWGM5HVEH54D4HM1EEYHMQTF1R6","emotion","mismatch","uniform","","","","","","","2774.7999999523163","30490.5","33265.299999952316","[""stimuli/sheep.jpg"",""stimuli/hammer.jpg"",""stimuli/basketball.jpg"",""stimuli/horse.jpg""]","stimuli/sheep.jpg","stimuli/hammer.jpg","stimuli/basketball.jpg","stimuli/horse.jpg","pos4","stimuli/horse.jpg","","","3","64","64","64","stimuli/stars_8.png","65","","","","","","",""
"explore-choice","5","32641","0.0-5.0","p223454","A1IFIK8J49WBER","3FVBZG9CLKK1M1GPZWGJX51HFG80HB","37UEWGM5HVEH54D4HM1EEYHMQTF1R6","emotion","mismatch","uniform","","","","","","","1530.8000000715256","33782.199999928474","35313","[""stimuli/hammer.jpg"",""stimuli/basketball.jpg"",""stimuli/horse.jpg"",""stimuli/sheep.jpg""]","stimuli/hammer.jpg","stimuli/basketball.jpg","stimuli/horse.jpg","stimuli/sheep.jpg","pos1","stimuli/hammer.jpg","","","0","8","8","8","stimuli/stars_2.png","9","","","","","","",""
"instructions","6","61202","0.0-6.0","p223454","A1IFIK8J49WBER","3FVBZG9CLKK1M1GPZWGJX51HFG80HB","37UEWGM5HVEH54D4HM1EEYHMQTF1R6","emotion","mismatch","uniform","","","","","","[{""page_index"":0,""viewing_time"":28559.100000023842}]","28559.799999952316","","","","","","","","","","","","","","","","","","","","","","","",""
"explore-choice","7","64868","0.0-7.0","p223454","A1IFIK8J49WBER","3FVBZG9CLKK1M1GPZWGJX51HFG80HB","37UEWGM5HVEH54D4HM1EEYHMQTF1R6","emotion","mismatch","uniform","","","","","","","3152","64386","67538","[""stimuli/WF14_FO.jpg"",""stimuli/AF11_AO.jpg"",""stimuli/HF10_HE.jpg"",""stimuli/AM05_DO.jpg""]","stimuli/WF14_FO.jpg","stimuli/AF11_AO.jpg","stimuli/HF10_HE.jpg","stimuli/AM05_DO.jpg","pos3","stimuli/HF10_HE.jpg","HE","HF10","2","1","2","2","stimuli/stars_2.png","2","[""FO"",""AO"",""HE"",""DO""]","[""WF14"",""AF11"",""HF10"",""AM05""]","[7,8,2,4]","[6,8,2,4]","","",""
"show-reward","8","66885","0.0-8.0","p223454","A1IFIK8J49WBER","3FVBZG9CLKK1M1GPZWGJX51HFG80HB","37UEWGM5HVEH54D4HM1EEYHMQTF1R6","emotion","mismatch","uniform","","","","","","","","68053.69999992847","70063.39999997616","","","","","","","","","","","","2","","stimuli/stars_2.png","2","","","","","stimuli/HF10_HE.jpg","",""
"explore-choice","9","69730","0.0-9.0","p223454","A1IFIK8J49WBER","3FVBZG9CLKK1M1GPZWGJX51HFG80HB","37UEWGM5HVEH54D4HM1EEYHMQTF1R6","emotion","mismatch","uniform","","","","","","","2334.899999976158","70068.89999997616","72403.79999995232","[""stimuli/AF11_FO.jpg"",""stimuli/HF10_DO.jpg"",""stimuli/WF14_HE.jpg"",""stimuli/AM05_AO.jpg""]","stimuli/AF11_FO.jpg","stimuli/HF10_DO.jpg","stimuli/WF14_HE.jpg","stimuli/AM05_AO.jpg","pos1","stimuli/AF11_FO.jpg","FO","AF11","0","2.5","5","6","stimuli/stars_5.png","4.5","[""FO"",""DO"",""HE"",""AO""]","[""AF11"",""HF10"",""WF14"",""AM05""]","[5,2,2,9]","[6,4,2,8]","","",""
"show-reward","10","71748","0.0-10.0","p223454","A1IFIK8J49WBER","3FVBZG9CLKK1M1GPZWGJX51HFG80HB","37UEWGM5HVEH54D4HM1EEYHMQTF1R6","emotion","mismatch","uniform","","","","","","","","72911.29999995232","74927.69999992847","","","","","","","","","","","","5","","stimuli/stars_5.png","4.5","","","","","stimuli/AF11_FO.jpg","",""
"explore-choice","11","74057","0.0-11.0","p223454","A1IFIK8J49WBER","3FVBZG9CLKK1M1GPZWGJX51HFG80HB","37UEWGM5HVEH54D4HM1EEYHMQTF1R6","emotion","mismatch","uniform","","","","","","","1800.1000000238419","74928.89999997616","76729","[""stimuli/HF10_AO.jpg"",""stimuli/AM05_DO.jpg"",""stimuli/AF11_HE.jpg"",""stimuli/WF14_FO.jpg""]","stimuli/HF10_AO.jpg","stimuli/AM05_DO.jpg","stimuli/AF11_HE.jpg","stimuli/WF14_FO.jpg","pos1","stimuli/HF10_AO.jpg","AO","HF10","0","3.5","7","8","stimuli/stars_7.png","8","[""AO"",""DO"",""HE"",""FO""]","[""HF10"",""AM05"",""AF11"",""WF14""]","[7,4,2,7]","[8,4,2,6]","","",""
"show-reward","12","76075","0.0-12.0","p223454","A1IFIK8J49WBER","3FVBZG9CLKK1M1GPZWGJX51HFG80HB","37UEWGM5HVEH54D4HM1EEYHMQTF1R6","emotion","mismatch","uniform","","","","","","","","77238.59999990463","79254.39999997616","","","","","","","","","","","","7","","stimuli/stars_7.png","8","","","","","stimuli/HF10_AO.jpg","",""
"explore-choice","13","79701","0.0-13.0","p223454","A1IFIK8J49WBER","3FVBZG9CLKK1M1GPZWGJX51HFG80HB","37UEWGM5HVEH54D4HM1EEYHMQTF1R6","emotion","mismatch","uniform","","","","","","","3123","79256","82379","[""stimuli/WF14_AO.jpg"",""stimuli/AM05_FO.jpg"",""stimuli/HF10_DO.jpg"",""stimuli/AF11_HE.jpg""]","stimuli/WF14_AO.jpg","stimuli/AM05_FO.jpg","stimuli/HF10_DO.jpg","stimuli/AF11_HE.jpg","pos1","stimuli/WF14_AO.jpg","AO","WF14","0","4","8","8","stimuli/stars_8.png","12","[""AO"",""FO"",""DO"",""HE""]","[""WF14"",""AM05"",""HF10"",""AF11""]","[8,6,3,4]","[8,6,4,2]","","",""
"show-reward","14","81725","0.0-14.0","p223454","A1IFIK8J49WBER","3FVBZG9CLKK1M1GPZWGJX51HFG80HB","37UEWGM5HVEH54D4HM1EEYHMQTF1R6","emotion","mismatch","uniform","","","","","","","","82883.19999992847","84903","","","","","","","","","","","","8","","stimuli/stars_8.png","12","","","","","stimuli/WF14_AO.jpg","",""
"explore-choice","15","84472","0.0-15.0","p223454","A1IFIK8J49WBER","3FVBZG9CLKK1M1GPZWGJX51HFG80HB","37UEWGM5HVEH54D4HM1EEYHMQTF1R6","emotion","mismatch","uniform","","","","","","","2235.9000000953674","84907.09999990463","87143","[""stimuli/WF14_AO.jpg"",""stimuli/AF11_FO.jpg"",""stimuli/HF10_HE.jpg"",""stimuli/AM05_DO.jpg""]","stimuli/WF14_AO.jpg","stimuli/AF11_FO.jpg","stimuli/HF10_HE.jpg","stimuli/AM05_DO.jpg","pos4","stimuli/AM05_DO.jpg","DO","AM05","3","1.5","3","4","stimuli/stars_3.png","13.5","[""AO"",""FO"",""HE"",""DO""]","[""WF14"",""AF11"",""HF10"",""AM05""]","[9,4,2,3]","[8,6,2,4]","","",""
"show-reward","16","86484","0.0-16.0","p223454","A1IFIK8J49WBER","3FVBZG9CLKK1M1GPZWGJX51HFG80HB","37UEWGM5HVEH54D4HM1EEYHMQTF1R6","emotion","mismatch","uniform","","","","","","","","87653.69999992847","89663.39999997616","","","","","","","","","","","","3","","stimuli/stars_3.png","13.5","","","","","stimuli/AM05_DO.jpg","",""
"explore-choice","17","89214","0.0-17.0","p223454","A1IFIK8J49WBER","3FVBZG9CLKK1M1GPZWGJX51HFG80HB","37UEWGM5HVEH54D4HM1EEYHMQTF1R6","emotion","mismatch","uniform","","","","","","","2224.4000000953674","89668.59999990463","91893","[""stimuli/WF14_FO.jpg"",""stimuli/AM05_HE.jpg"",""stimuli/AF11_DO.jpg"",""stimuli/HF10_AO.jpg""]","stimuli/WF14_FO.jpg","stimuli/AM05_HE.jpg","stimuli/AF11_DO.jpg","stimuli/HF10_AO.jpg","pos4","stimuli/HF10_AO.jpg","AO","HF10","3","3.5","7","8","stimuli/stars_7.png","17","[""FO"",""HE"",""DO"",""AO""]","[""WF14"",""AM05"",""AF11"",""HF10""]","[7,0,5,7]","[6,2,4,8]","","",""
"show-reward","18","91233","0.0-18.0","p223454","A1IFIK8J49WBER","3FVBZG9CLKK1M1GPZWGJX51HFG80HB","37UEWGM5HVEH54D4HM1EEYHMQTF1R6","emotion","mismatch","uniform","","","","","","","","92395.19999992847","94411.59999990463","","","","","","","","","","","","7","","stimuli/stars_7.png","17","","","","","stimuli/HF10_AO.jpg","",""
"explore-choice","19","95557","0.0-19.0","p223454","A1IFIK8J49WBER","3FVBZG9CLKK1M1GPZWGJX51HFG80HB","37UEWGM5HVEH54D4HM1EEYHMQTF1R6","emotion","mismatch","uniform","","","","","","","3819.899999976158","94415.19999992847","98235.09999990463","[""stimuli/AM05_AO.jpg"",""stimuli/HF10_HE.jpg"",""stimuli/AF11_DO.jpg"",""stimuli/WF14_FO.jpg""]","stimuli/AM05_AO.jpg","stimuli/HF10_HE.jpg","stimuli/AF11_DO.jpg","stimuli/WF14_FO.jpg","pos1","stimuli/AM05_AO.jpg","AO","AM05","0","5","10","8","stimuli/stars_10.png","22","[""AO"",""HE"",""DO"",""FO""]","[""AM05"",""HF10"",""AF11"",""WF14""]","[10,0,5,5]","[8,2,4,6]","","",""
"show-reward","20","97574","0.0-20.0","p223454","A1IFIK8J49WBER","3FVBZG9CLKK1M1GPZWGJX51HFG80HB","37UEWGM5HVEH54D4HM1EEYHMQTF1R6","emotion","mismatch","uniform","","","","","","","","98738.5","100753.5","","","","","","","","","","","","10","","stimuli/stars_10.png","22","","","","","stimuli/AM05_AO.jpg","",""
"explore-choice","21","99881","0.0-21.0","p223454","A1IFIK8J49WBER","3FVBZG9CLKK1M1GPZWGJX51HFG80HB","37UEWGM5HVEH54D4HM1EEYHMQTF1R6","emotion","mismatch","uniform","","","","","","","1791.1000000238419","100754.59999990463","102545.69999992847","[""stimuli/AM05_FO.jpg"",""stimuli/WF14_AO.jpg"",""stimuli/AF11_DO.jpg"",""stimuli/HF10_HE.jpg""]","stimuli/AM05_FO.jpg","stimuli/WF14_AO.jpg","stimuli/AF11_DO.jpg","stimuli/HF10_HE.jpg","pos2","stimuli/WF14_AO.jpg","AO","WF14","1","4","8","8","stimuli/stars_8.png","26","[""FO"",""AO"",""DO"",""HE""]","[""AM05"",""WF14"",""AF11"",""HF10""]","[5,8,5,4]","[6,8,4,2]","","",""
"show-reward","22","101906","0.0-22.0","p223454","A1IFIK8J49WBER","3FVBZG9CLKK1M1GPZWGJX51HFG80HB","37UEWGM5HVEH54D4HM1EEYHMQTF1R6","emotion","mismatch","uniform","","","","","","","","103062.39999997616","105084.79999995232","","","","","","","","","","","","8","","stimuli/stars_8.png","26","","","","","stimuli/WF14_AO.jpg","",""
"explore-choice","23","104570","0.0-23.0","p223454","A1IFIK8J49WBER","3FVBZG9CLKK1M1GPZWGJX51HFG80HB","37UEWGM5HVEH54D4HM1EEYHMQTF1R6","emotion","mismatch","uniform","","","","","","","2152.100000023842","105086.89999997616","107239","[""stimuli/HF10_DO.jpg"",""stimuli/AF11_AO.jpg"",""stimuli/AM05_HE.jpg"",""stimuli/WF14_FO.jpg""]","stimuli/HF10_DO.jpg","stimuli/AF11_AO.jpg","stimuli/AM05_HE.jpg","stimuli/WF14_FO.jpg","pos2","stimuli/AF11_AO.jpg","AO","AF11","1","4.5","9","8","stimuli/stars_9.png","30.5","[""DO"",""AO"",""HE"",""FO""]","[""HF10"",""AF11"",""AM05"",""WF14""]","[5,9,0,8]","[4,8,2,6]","","",""
"show-reward","24","106577","0.0-24.0","p223454","A1IFIK8J49WBER","3FVBZG9CLKK1M1GPZWGJX51HFG80HB","37UEWGM5HVEH54D4HM1EEYHMQTF1R6","emotion","mismatch","uniform","","","","","","","","107752.79999995232","109756.5","","","","","","","","","","","","9","","stimuli/stars_9.png","30.5","","","","","stimuli/AF11_AO.jpg","",""
"explore-choice","25","109560","0.0-25.0","p223454","A1IFIK8J49WBER","3FVBZG9CLKK1M1GPZWGJX51HFG80HB","37UEWGM5HVEH54D4HM1EEYHMQTF1R6","emotion","mismatch","uniform","","","","","","","2475.899999976158","109757.79999995232","112233.69999992847","[""stimuli/HF10_DO.jpg"",""stimuli/WF14_HE.jpg"",""stimuli/AM05_FO.jpg"",""stimuli/AF11_AO.jpg""]","stimuli/HF10_DO.jpg","stimuli/WF14_HE.jpg","stimuli/AM05_FO.jpg","stimuli/AF11_AO.jpg","pos4","stimuli/AF11_AO.jpg","AO","AF11","3","3","6","8","stimuli/stars_6.png","33.5","[""DO"",""HE"",""FO"",""AO""]","[""HF10"",""WF14"",""AM05"",""AF11""]","[2,3,6,6]","[4,2,6,8]","","",""
"show-reward","26","111566","0.0-26.0","p223454","A1IFIK8J49WBER","3FVBZG9CLKK1M1GPZWGJX51HFG80HB","37UEWGM5HVEH54D4HM1EEYHMQTF1R6","emotion","mismatch","uniform","","","","","","","","112741.09999990463","114745.69999992847","","","","","","","","","","","","6","","stimuli/stars_6.png","33.5","","","","","stimuli/AF11_AO.jpg","",""
"explore-choice","27","113853","0.0-27.0","p223454","A1IFIK8J49WBER","3FVBZG9CLKK1M1GPZWGJX51HFG80HB","37UEWGM5HVEH54D4HM1EEYHMQTF1R6","emotion","mismatch","uniform","","","","","","","1768.7999999523163","114750","116518.79999995232","[""stimuli/AM05_HE.jpg"",""stimuli/HF10_AO.jpg"",""stimuli/AF11_FO.jpg"",""stimuli/WF14_DO.jpg""]","stimuli/AM05_HE.jpg","stimuli/HF10_AO.jpg","stimuli/AF11_FO.jpg","stimuli/WF14_DO.jpg","pos2","stimuli/HF10_AO.jpg","AO","HF10","1","3","6","8","stimuli/stars_6.png","36.5","[""HE"",""AO"",""FO"",""DO""]","[""AM05"",""HF10"",""AF11"",""WF14""]","[2,6,7,6]","[2,8,6,4]","","",""
"show-reward","28","115861","0.0-28.0","p223454","A1IFIK8J49WBER","3FVBZG9CLKK1M1GPZWGJX51HFG80HB","37UEWGM5HVEH54D4HM1EEYHMQTF1R6","emotion","mismatch","uniform","","","","","","","","117035.5","119040.5","","","","","","","","","","","","6","","stimuli/stars_6.png","36.5","","","","","stimuli/HF10_AO.jpg","",""
"explore-choice","29","119560","0.0-29.0","p223454","A1IFIK8J49WBER","3FVBZG9CLKK1M1GPZWGJX51HFG80HB","37UEWGM5HVEH54D4HM1EEYHMQTF1R6","emotion","mismatch","uniform","","","","","","","3192.600000023842","119041.69999992847","122234.29999995232","[""stimuli/WF14_DO.jpg"",""stimuli/AF11_FO.jpg"",""stimuli/HF10_HE.jpg"",""stimuli/AM05_AO.jpg""]","stimuli/WF14_DO.jpg","stimuli/AF11_FO.jpg","stimuli/HF10_HE.jpg","stimuli/AM05_AO.jpg","pos4","stimuli/AM05_AO.jpg","AO","AM05","3","5","10","8","stimuli/stars_10.png","41.5","[""DO"",""FO"",""HE"",""AO""]","[""WF14"",""AF11"",""HF10"",""AM05""]","[4,4,0,10]","[4,6,2,8]","","",""
"show-reward","30","121569","0.0-30.0","p223454","A1IFIK8J49WBER","3FVBZG9CLKK1M1GPZWGJX51HFG80HB","37UEWGM5HVEH54D4HM1EEYHMQTF1R6","emotion","mismatch","uniform","","","","","","","","122741.29999995232","124748.5","","","","","","","","","","","","10","","stimuli/stars_10.png","41.5","","","","","stimuli/AM05_AO.jpg","",""
"explore-choice","31","124078","0.0-31.0","p223454","A1IFIK8J49WBER","3FVBZG9CLKK1M1GPZWGJX51HFG80HB","37UEWGM5HVEH54D4HM1EEYHMQTF1R6","emotion","mismatch","uniform","","","","","","","2002.8000000715256","124752.09999990463","126754.89999997616","[""stimuli/HF10_FO.jpg"",""stimuli/AF11_HE.jpg"",""stimuli/AM05_AO.jpg"",""stimuli/WF14_DO.jpg""]","stimuli/HF10_FO.jpg","stimuli/AF11_HE.jpg","stimuli/AM05_AO.jpg","stimuli/WF14_DO.jpg","pos3","stimuli/AM05_AO.jpg","AO","AM05","2","4.5","9","8","stimuli/stars_9.png","46","[""FO"",""HE"",""AO"",""DO""]","[""HF10"",""AF11"",""AM05"",""WF14""]","[5,0,9,4]","[6,2,8,4]","","",""
"show-reward","32","126094","0.0-32.0","p223454","A1IFIK8J49WBER","3FVBZG9CLKK1M1GPZWGJX51HFG80HB","37UEWGM5HVEH54D4HM1EEYHMQTF1R6","emotion","mismatch","uniform","","","","","","","","127260.29999995232","129272.5","","","","","","","","","","","","9","","stimuli/stars_9.png","46","","","","","stimuli/AM05_AO.jpg","",""
"explore-choice","33","129253","0.0-33.0","p223454","A1IFIK8J49WBER","3FVBZG9CLKK1M1GPZWGJX51HFG80HB","37UEWGM5HVEH54D4HM1EEYHMQTF1R6","emotion","mismatch","uniform","","","","","","","2641.2999999523163","129275.79999995232","131917.09999990463","[""stimuli/AM05_FO.jpg"",""stimuli/WF14_HE.jpg"",""stimuli/AF11_DO.jpg"",""stimuli/HF10_AO.jpg""]","stimuli/AM05_FO.jpg","stimuli/WF14_HE.jpg","stimuli/AF11_DO.jpg","stimuli/HF10_AO.jpg","pos4","stimuli/HF10_AO.jpg","AO","HF10","3","4.5","9","8","stimuli/stars_9.png","50.5","[""FO"",""HE"",""DO"",""AO""]","[""AM05"",""WF14"",""AF11"",""HF10""]","[8,1,3,9]","[6,2,4,8]","","",""
"show-reward","34","131261","0.0-34.0","p223454","A1IFIK8J49WBER","3FVBZG9CLKK1M1GPZWGJX51HFG80HB","37UEWGM5HVEH54D4HM1EEYHMQTF1R6","emotion","mismatch","uniform","","","","","","","","132434.39999997616","134440.69999992847","","","","","","","","","","","","9","","stimuli/stars_9.png","50.5","","","","","stimuli/HF10_AO.jpg","",""
"explore-choice","35","133927","0.0-35.0","p223454","A1IFIK8J49WBER","3FVBZG9CLKK1M1GPZWGJX51HFG80HB","37UEWGM5HVEH54D4HM1EEYHMQTF1R6","emotion","mismatch","uniform","","","","","","","2150.7999999523163","134442","136592.79999995232","[""stimuli/AF11_FO.jpg"",""stimuli/WF14_AO.jpg"",""stimuli/HF10_DO.jpg"",""stimuli/AM05_HE.jpg""]","stimuli/AF11_FO.jpg","stimuli/WF14_AO.jpg","stimuli/HF10_DO.jpg","stimuli/AM05_HE.jpg","pos2","stimuli/WF14_AO.jpg","AO","WF14","1","3","6","8","stimuli/stars_6.png","53.5","[""FO"",""AO"",""DO"",""HE""]","[""AF11"",""WF14"",""HF10"",""AM05""]","[6,6,6,0]","[6,8,4,2]","","",""
"show-reward","36","135944","0.0-36.0","p223454","A1IFIK8J49WBER","3FVBZG9CLKK1M1GPZWGJX51HFG80HB","37UEWGM5HVEH54D4HM1EEYHMQTF1R6","emotion","mismatch","uniform","","","","","","","","137108","139123.69999992847","","","","","","","","","","","","6","","stimuli/stars_6.png","53.5","","","","","stimuli/WF14_AO.jpg","",""
"explore-choice","37","138587","0.0-37.0","p223454","A1IFIK8J49WBER","3FVBZG9CLKK1M1GPZWGJX51HFG80HB","37UEWGM5HVEH54D4HM1EEYHMQTF1R6","emotion","mismatch","uniform","","","","","","","2140.8000000715256","139125.09999990463","141265.89999997616","[""stimuli/AF11_HE.jpg"",""stimuli/AM05_DO.jpg"",""stimuli/HF10_FO.jpg"",""stimuli/WF14_AO.jpg""]","stimuli/AF11_HE.jpg","stimuli/AM05_DO.jpg","stimuli/HF10_FO.jpg","stimuli/WF14_AO.jpg","pos4","stimuli/WF14_AO.jpg","AO","WF14","3","5","10","8","stimuli/stars_10.png","58.5","[""HE"",""DO"",""FO"",""AO""]","[""AF11"",""AM05"",""HF10"",""WF14""]","[2,5,4,10]","[2,4,6,8]","","",""
"show-reward","38","140601","0.0-38.0","p223454","A1IFIK8J49WBER","3FVBZG9CLKK1M1GPZWGJX51HFG80HB","37UEWGM5HVEH54D4HM1EEYHMQTF1R6","emotion","mismatch","uniform","","","","","","","","141767.39999997616","143780","","","","","","","","","","","","10","","stimuli/stars_10.png","58.5","","","","","stimuli/WF14_AO.jpg","",""
"explore-choice","39","142723","0.0-39.0","p223454","A1IFIK8J49WBER","3FVBZG9CLKK1M1GPZWGJX51HFG80HB","37UEWGM5HVEH54D4HM1EEYHMQTF1R6","emotion","mismatch","uniform","","","","","","","1618.5","143782.39999997616","145400.89999997616","[""stimuli/WF14_HE.jpg"",""stimuli/AF11_FO.jpg"",""stimuli/AM05_DO.jpg"",""stimuli/HF10_AO.jpg""]","stimuli/WF14_HE.jpg","stimuli/AF11_FO.jpg","stimuli/AM05_DO.jpg","stimuli/HF10_AO.jpg","pos4","stimuli/HF10_AO.jpg","AO","HF10","3","4.5","9","8","stimuli/stars_9.png","63","[""HE"",""FO"",""DO"",""AO""]","[""WF14"",""AF11"",""AM05"",""HF10""]","[0,5,5,9]","[2,6,4,8]","","",""
"show-reward","40","144738","0.0-40.0","p223454","A1IFIK8J49WBER","3FVBZG9CLKK1M1GPZWGJX51HFG80HB","37UEWGM5HVEH54D4HM1EEYHMQTF1R6","emotion","mismatch","uniform","","","","","","","","145904.09999990463","147917.59999990463","","","","","","","","","","","","9","","stimuli/stars_9.png","63","","","","","stimuli/HF10_AO.jpg","",""
"explore-choice","41","146727","0.0-41.0","p223454","A1IFIK8J49WBER","3FVBZG9CLKK1M1GPZWGJX51HFG80HB","37UEWGM5HVEH54D4HM1EEYHMQTF1R6","emotion","mismatch","uniform","","","","","","","1486.2000000476837","147918.79999995232","149405","[""stimuli/AM05_AO.jpg"",""stimuli/HF10_DO.jpg"",""stimuli/WF14_FO.jpg"",""stimuli/AF11_HE.jpg""]","stimuli/AM05_AO.jpg","stimuli/HF10_DO.jpg","stimuli/WF14_FO.jpg","stimuli/AF11_HE.jpg","pos1","stimuli/AM05_AO.jpg","AO","AM05","0","4","8","8","stimuli/stars_8.png","67","[""AO"",""DO"",""FO"",""HE""]","[""AM05"",""HF10"",""WF14"",""AF11""]","[8,6,6,4]","[8,4,6,2]","","",""
"show-reward","42","148750","0.0-42.0","p223454","A1IFIK8J49WBER","3FVBZG9CLKK1M1GPZWGJX51HFG80HB","37UEWGM5HVEH54D4HM1EEYHMQTF1R6","emotion","mismatch","uniform","","","","","","","","149908.5","151929.59999990463","","","","","","","","","","","","8","","stimuli/stars_8.png","67","","","","","stimuli/AM05_AO.jpg","",""
"explore-choice","43","151672","0.0-43.0","p223454","A1IFIK8J49WBER","3FVBZG9CLKK1M1GPZWGJX51HFG80HB","37UEWGM5HVEH54D4HM1EEYHMQTF1R6","emotion","mismatch","uniform","","","","","","","2419.3000000715256","151931.69999992847","154351","[""stimuli/AF11_HE.jpg"",""stimuli/AM05_FO.jpg"",""stimuli/WF14_DO.jpg"",""stimuli/HF10_AO.jpg""]","stimuli/AF11_HE.jpg","stimuli/AM05_FO.jpg","stimuli/WF14_DO.jpg","stimuli/HF10_AO.jpg","pos4","stimuli/HF10_AO.jpg","AO","HF10","3","4","8","8","stimuli/stars_8.png","71","[""HE"",""FO"",""DO"",""AO""]","[""AF11"",""AM05"",""WF14"",""HF10""]","[4,4,5,8]","[2,6,4,8]","","",""
"show-reward","44","153678","0.0-44.0","p223454","A1IFIK8J49WBER","3FVBZG9CLKK1M1GPZWGJX51HFG80HB","37UEWGM5HVEH54D4HM1EEYHMQTF1R6","emotion","mismatch","uniform","","","","","","","","154854","156857.79999995232","","","","","","","","","","","","8","","stimuli/stars_8.png","71","","","","","stimuli/HF10_AO.jpg","",""
"explore-choice","45","156919","0.0-45.0","p223454","A1IFIK8J49WBER","3FVBZG9CLKK1M1GPZWGJX51HFG80HB","37UEWGM5HVEH54D4HM1EEYHMQTF1R6","emotion","mismatch","uniform","","","","","","","2724","156858.89999997616","159582.89999997616","[""stimuli/AM05_HE.jpg"",""stimuli/HF10_FO.jpg"",""stimuli/WF14_DO.jpg"",""stimuli/AF11_AO.jpg""]","stimuli/AM05_HE.jpg","stimuli/HF10_FO.jpg","stimuli/WF14_DO.jpg","stimuli/AF11_AO.jpg","pos4","stimuli/AF11_AO.jpg","AO","AF11","3","3.5","7","8","stimuli/stars_7.png","74.5","[""HE"",""FO"",""DO"",""AO""]","[""AM05"",""HF10"",""WF14"",""AF11""]","[3,7,4,7]","[2,6,4,8]","","",""
"show-reward","46","158938","0.0-46.0","p223454","A1IFIK8J49WBER","3FVBZG9CLKK1M1GPZWGJX51HFG80HB","37UEWGM5HVEH54D4HM1EEYHMQTF1R6","emotion","mismatch","uniform","","","","","","","","160102.69999992847","162116.09999990463","","","","","","","","","","","","7","","stimuli/stars_7.png","74.5","","","","","stimuli/AF11_AO.jpg","",""
"explore-choice","47","161603","0.0-47.0","p223454","A1IFIK8J49WBER","3FVBZG9CLKK1M1GPZWGJX51HFG80HB","37UEWGM5HVEH54D4HM1EEYHMQTF1R6","emotion","mismatch","uniform","","","","","","","2146.100000023842","162120.89999997616","164267","[""stimuli/HF10_FO.jpg"",""stimuli/AF11_DO.jpg"",""stimuli/WF14_HE.jpg"",""stimuli/AM05_AO.jpg""]","stimuli/HF10_FO.jpg","stimuli/AF11_DO.jpg","stimuli/WF14_HE.jpg","stimuli/AM05_AO.jpg","pos4","stimuli/AM05_AO.jpg","AO","AM05","3","4","8","8","stimuli/stars_8.png","78.5","[""FO"",""DO"",""HE"",""AO""]","[""HF10"",""AF11"",""WF14"",""AM05""]","[7,6,2,8]","[6,4,2,8]","","",""
"show-reward","48","163617","0.0-48.0","p223454","A1IFIK8J49WBER","3FVBZG9CLKK1M1GPZWGJX51HFG80HB","37UEWGM5HVEH54D4HM1EEYHMQTF1R6","emotion","mismatch","uniform","","","","","","","","164786.09999990463","166796","","","","","","","","","","","","8","","stimuli/stars_8.png","78.5","","","","","stimuli/AM05_AO.jpg","",""
"explore-choice","49","166320","0.0-49.0","p223454","A1IFIK8J49WBER","3FVBZG9CLKK1M1GPZWGJX51HFG80HB","37UEWGM5HVEH54D4HM1EEYHMQTF1R6","emotion","mismatch","uniform","","","","","","","2195.100000023842","166797.79999995232","168992.89999997616","[""stimuli/AF11_AO.jpg"",""stimuli/WF14_HE.jpg"",""stimuli/HF10_FO.jpg"",""stimuli/AM05_DO.jpg""]","stimuli/AF11_AO.jpg","stimuli/WF14_HE.jpg","stimuli/HF10_FO.jpg","stimuli/AM05_DO.jpg","pos1","stimuli/AF11_AO.jpg","AO","AF11","0","3","6","8","stimuli/stars_6.png","81.5","[""AO"",""HE"",""FO"",""DO""]","[""AF11"",""WF14"",""HF10"",""AM05""]","[6,3,7,3]","[8,2,6,4]","","",""
"show-reward","50","168335","0.0-50.0","p223454","A1IFIK8J49WBER","3FVBZG9CLKK1M1GPZWGJX51HFG80HB","37UEWGM5HVEH54D4HM1EEYHMQTF1R6","emotion","mismatch","uniform","","","","","","","","169501.29999995232","171513.59999990463","","","","","","","","","","","","6","","stimuli/stars_6.png","81.5","","","","","stimuli/AF11_AO.jpg","",""
"explore-choice","51","170788","0.0-51.0","p223454","A1IFIK8J49WBER","3FVBZG9CLKK1M1GPZWGJX51HFG80HB","37UEWGM5HVEH54D4HM1EEYHMQTF1R6","emotion","mismatch","uniform","","","","","","","1935.2999999523163","171517.39999997616","173452.69999992847","[""stimuli/AF11_DO.jpg"",""stimuli/HF10_FO.jpg"",""stimuli/AM05_HE.jpg"",""stimuli/WF14_AO.jpg""]","stimuli/AF11_DO.jpg","stimuli/HF10_FO.jpg","stimuli/AM05_HE.jpg","stimuli/WF14_AO.jpg","pos4","stimuli/WF14_AO.jpg","AO","WF14","3","4.5","9","8","stimuli/stars_9.png","86","[""DO"",""FO"",""HE"",""AO""]","[""AF11"",""HF10"",""AM05"",""WF14""]","[4,4,3,9]","[4,6,2,8]","","",""
"show-reward","52","172809","0.0-52.0","p223454","A1IFIK8J49WBER","3FVBZG9CLKK1M1GPZWGJX51HFG80HB","37UEWGM5HVEH54D4HM1EEYHMQTF1R6","emotion","mismatch","uniform","","","","","","","","173969.5","175988.79999995232","","","","","","","","","","","","9","","stimuli/stars_9.png","86","","","","","stimuli/WF14_AO.jpg","",""
"explore-choice","53","175517","0.0-53.0","p223454","A1IFIK8J49WBER","3FVBZG9CLKK1M1GPZWGJX51HFG80HB","37UEWGM5HVEH54D4HM1EEYHMQTF1R6","emotion","mismatch","uniform","","","","","","","2205.399999976158","175990.69999992847","178196.09999990463","[""stimuli/AF11_AO.jpg"",""stimuli/HF10_HE.jpg"",""stimuli/WF14_DO.jpg"",""stimuli/AM05_FO.jpg""]","stimuli/AF11_AO.jpg","stimuli/HF10_HE.jpg","stimuli/WF14_DO.jpg","stimuli/AM05_FO.jpg","pos1","stimuli/AF11_AO.jpg","AO","AF11","0","3.5","7","8","stimuli/stars_7.png","89.5","[""AO"",""HE"",""DO"",""FO""]","[""AF11"",""HF10"",""WF14"",""AM05""]","[7,0,2,6]","[8,2,4,6]","","",""
"show-reward","54","177534","0.0-54.0","p223454","A1IFIK8J49WBER","3FVBZG9CLKK1M1GPZWGJX51HFG80HB","37UEWGM5HVEH54D4HM1EEYHMQTF1R6","emotion","mismatch","uniform","","","","","","","","178698.69999992847","180712.89999997616","","","","","","","","","","","","7","","stimuli/stars_7.png","89.5","","","","","stimuli/AF11_AO.jpg","",""
"explore-choice","55","180569","0.0-55.0","p223454","A1IFIK8J49WBER","3FVBZG9CLKK1M1GPZWGJX51HFG80HB","37UEWGM5HVEH54D4HM1EEYHMQTF1R6","emotion","mismatch","uniform","","","","","","","2518.600000023842","180716.09999990463","183234.69999992847","[""stimuli/AM05_DO.jpg"",""stimuli/AF11_HE.jpg"",""stimuli/HF10_AO.jpg"",""stimuli/WF14_FO.jpg""]","stimuli/AM05_DO.jpg","stimuli/AF11_HE.jpg","stimuli/HF10_AO.jpg","stimuli/WF14_FO.jpg","pos3","stimuli/HF10_AO.jpg","AO","HF10","2","3.5","7","8","stimuli/stars_7.png","93","[""DO"",""HE"",""AO"",""FO""]","[""AM05"",""AF11"",""HF10"",""WF14""]","[4,2,7,7]","[4,2,8,6]","","",""
"show-reward","56","182586","0.0-56.0","p223454","A1IFIK8J49WBER","3FVBZG9CLKK1M1GPZWGJX51HFG80HB","37UEWGM5HVEH54D4HM1EEYHMQTF1R6","emotion","mismatch","uniform","","","","","","","","183750.39999997616","185764.79999995232","","","","","","","","","","","","7","","stimuli/stars_7.png","93","","","","","stimuli/HF10_AO.jpg","",""
"explore-choice","57","184926","0.0-57.0","p223454","A1IFIK8J49WBER","3FVBZG9CLKK1M1GPZWGJX51HFG80HB","37UEWGM5HVEH54D4HM1EEYHMQTF1R6","emotion","mismatch","uniform","","","","","","","1824.7000000476837","185766.09999990463","187590.79999995232","[""stimuli/AM05_HE.jpg"",""stimuli/HF10_FO.jpg"",""stimuli/AF11_AO.jpg"",""stimuli/WF14_DO.jpg""]","stimuli/AM05_HE.jpg","stimuli/HF10_FO.jpg","stimuli/AF11_AO.jpg","stimuli/WF14_DO.jpg","pos3","stimuli/AF11_AO.jpg","AO","AF11","2","3.5","7","8","stimuli/stars_7.png","96.5","[""HE"",""FO"",""AO"",""DO""]","[""AM05"",""HF10"",""AF11"",""WF14""]","[3,7,7,4]","[2,6,8,4]","","",""
"show-reward","58","186937","0.0-58.0","p223454","A1IFIK8J49WBER","3FVBZG9CLKK1M1GPZWGJX51HFG80HB","37UEWGM5HVEH54D4HM1EEYHMQTF1R6","emotion","mismatch","uniform","","","","","","","","188107.19999992847","190116.29999995232","","","","","","","","","","","","7","","stimuli/stars_7.png","96.5","","","","","stimuli/AF11_AO.jpg","",""
"explore-choice","59","188673","0.0-59.0","p223454","A1IFIK8J49WBER","3FVBZG9CLKK1M1GPZWGJX51HFG80HB","37UEWGM5HVEH54D4HM1EEYHMQTF1R6","emotion","mismatch","uniform","","","","","","","1227.3000000715256","190117.59999990463","191344.89999997616","[""stimuli/AM05_DO.jpg"",""stimuli/WF14_HE.jpg"",""stimuli/AF11_AO.jpg"",""stimuli/HF10_FO.jpg""]","stimuli/AM05_DO.jpg","stimuli/WF14_HE.jpg","stimuli/AF11_AO.jpg","stimuli/HF10_FO.jpg","pos3","stimuli/AF11_AO.jpg","AO","AF11","2","3","6","8","stimuli/stars_6.png","99.5","[""DO"",""HE"",""AO"",""FO""]","[""AM05"",""WF14"",""AF11"",""HF10""]","[3,3,6,7]","[4,2,8,6]","","",""
"show-reward","60","190682","0.0-60.0","p223454","A1IFIK8J49WBER","3FVBZG9CLKK1M1GPZWGJX51HFG80HB","37UEWGM5HVEH54D4HM1EEYHMQTF1R6","emotion","mismatch","uniform","","","","","","","","191853.79999995232","193861","","","","","","","","","","","","6","","stimuli/stars_6.png","99.5","","","","","stimuli/AF11_AO.jpg","",""
"explore-choice","61","192612","0.0-61.0","p223454","A1IFIK8J49WBER","3FVBZG9CLKK1M1GPZWGJX51HFG80HB","37UEWGM5HVEH54D4HM1EEYHMQTF1R6","emotion","mismatch","uniform","","","","","","","1414","193863.39999997616","195277.39999997616","[""stimuli/WF14_AO.jpg"",""stimuli/HF10_HE.jpg"",""stimuli/AM05_DO.jpg"",""stimuli/AF11_FO.jpg""]","stimuli/WF14_AO.jpg","stimuli/HF10_HE.jpg","stimuli/AM05_DO.jpg","stimuli/AF11_FO.jpg","pos1","stimuli/WF14_AO.jpg","AO","WF14","0","4.5","9","8","stimuli/stars_9.png","104","[""AO"",""HE"",""DO"",""FO""]","[""WF14"",""HF10"",""AM05"",""AF11""]","[9,2,3,4]","[8,2,4,6]","","",""
"show-reward","62","194623","0.0-62.0","p223454","A1IFIK8J49WBER","3FVBZG9CLKK1M1GPZWGJX51HFG80HB","37UEWGM5HVEH54D4HM1EEYHMQTF1R6","emotion","mismatch","uniform","","","","","","","","195794","197802.09999990463","","","","","","","","","","","","9","","stimuli/stars_9.png","104","","","","","stimuli/WF14_AO.jpg","",""
"explore-choice","63","196090","0.0-63.0","p223454","A1IFIK8J49WBER","3FVBZG9CLKK1M1GPZWGJX51HFG80HB","37UEWGM5HVEH54D4HM1EEYHMQTF1R6","emotion","mismatch","uniform","","","","","","","951.7000000476837","197803.09999990463","198754.79999995232","[""stimuli/AM05_AO.jpg"",""stimuli/AF11_HE.jpg"",""stimuli/HF10_FO.jpg"",""stimuli/WF14_DO.jpg""]","stimuli/AM05_AO.jpg","stimuli/AF11_HE.jpg","stimuli/HF10_FO.jpg","stimuli/WF14_DO.jpg","pos1","stimuli/AM05_AO.jpg","AO","AM05","0","4.5","9","8","stimuli/stars_9.png","108.5","[""AO"",""HE"",""FO"",""DO""]","[""AM05"",""AF11"",""HF10"",""WF14""]","[9,0,5,4]","[8,2,6,4]","","",""
"show-reward","64","198101","0.0-64.0","p223454","A1IFIK8J49WBER","3FVBZG9CLKK1M1GPZWGJX51HFG80HB","37UEWGM5HVEH54D4HM1EEYHMQTF1R6","emotion","mismatch","uniform","","","","","","","","199270.69999992847","201280.5","","","","","","","","","","","","9","","stimuli/stars_9.png","108.5","","","","","stimuli/AM05_AO.jpg","",""
"explore-choice","65","201118","0.0-65.0","p223454","A1IFIK8J49WBER","3FVBZG9CLKK1M1GPZWGJX51HFG80HB","37UEWGM5HVEH54D4HM1EEYHMQTF1R6","emotion","mismatch","uniform","","","","","","","2513.399999976158","201282.39999997616","203795.79999995232","[""stimuli/AF11_HE.jpg"",""stimuli/WF14_DO.jpg"",""stimuli/HF10_AO.jpg"",""stimuli/AM05_FO.jpg""]","stimuli/AF11_HE.jpg","stimuli/WF14_DO.jpg","stimuli/HF10_AO.jpg","stimuli/AM05_FO.jpg","pos3","stimuli/HF10_AO.jpg","AO","HF10","2","4","8","8","stimuli/stars_8.png","112.5","[""HE"",""DO"",""AO"",""FO""]","[""AF11"",""WF14"",""HF10"",""AM05""]","[4,5,8,4]","[2,4,8,6]","","",""
"show-reward","66","203122","0.0-66.0","p223454","A1IFIK8J49WBER","3FVBZG9CLKK1M1GPZWGJX51HFG80HB","37UEWGM5HVEH54D4HM1EEYHMQTF1R6","emotion","mismatch","uniform","","","","","","","","204298.39999997616","206301.19999992847","","","","","","","","","","","","8","","stimuli/stars_8.png","112.5","","","","","stimuli/HF10_AO.jpg","",""
"explore-choice","67","204967","0.0-67.0","p223454","A1IFIK8J49WBER","3FVBZG9CLKK1M1GPZWGJX51HFG80HB","37UEWGM5HVEH54D4HM1EEYHMQTF1R6","emotion","mismatch","uniform","","","","","","","1324.5","206303.79999995232","207628.29999995232","[""stimuli/HF10_AO.jpg"",""stimuli/AM05_HE.jpg"",""stimuli/WF14_FO.jpg"",""stimuli/AF11_DO.jpg""]","stimuli/HF10_AO.jpg","stimuli/AM05_HE.jpg","stimuli/WF14_FO.jpg","stimuli/AF11_DO.jpg","pos1","stimuli/HF10_AO.jpg","AO","HF10","0","3.5","7","8","stimuli/stars_7.png","116","[""AO"",""HE"",""FO"",""DO""]","[""HF10"",""AM05"",""WF14"",""AF11""]","[7,0,7,5]","[8,2,6,4]","","",""
"show-reward","68","206980","0.0-68.0","p223454","A1IFIK8J49WBER","3FVBZG9CLKK1M1GPZWGJX51HFG80HB","37UEWGM5HVEH54D4HM1EEYHMQTF1R6","emotion","mismatch","uniform","","","","","","","","208147.79999995232","210158.79999995232","","","","","","","","","","","","7","","stimuli/stars_7.png","116","","","","","stimuli/HF10_AO.jpg","",""
"explore-choice","69","209399","0.0-69.0","p223454","A1IFIK8J49WBER","3FVBZG9CLKK1M1GPZWGJX51HFG80HB","37UEWGM5HVEH54D4HM1EEYHMQTF1R6","emotion","mismatch","uniform","","","","","","","1902.2999999523163","210161.5","212063.79999995232","[""stimuli/WF14_DO.jpg"",""stimuli/AM05_AO.jpg"",""stimuli/HF10_HE.jpg"",""stimuli/AF11_FO.jpg""]","stimuli/WF14_DO.jpg","stimuli/AM05_AO.jpg","stimuli/HF10_HE.jpg","stimuli/AF11_FO.jpg","pos2","stimuli/AM05_AO.jpg","AO","AM05","1","5","10","8","stimuli/stars_10.png","121","[""DO"",""AO"",""HE"",""FO""]","[""WF14"",""AM05"",""HF10"",""AF11""]","[4,10,0,4]","[4,8,2,6]","","",""
"show-reward","70","211405","0.0-70.0","p223454","A1IFIK8J49WBER","3FVBZG9CLKK1M1GPZWGJX51HFG80HB","37UEWGM5HVEH54D4HM1EEYHMQTF1R6","emotion","mismatch","uniform","","","","","","","","212579.39999997616","214584.39999997616","","","","","","","","","","","","10","","stimuli/stars_10.png","121","","","","","stimuli/AM05_AO.jpg","",""
"explore-choice","71","213318","0.0-71.0","p223454","A1IFIK8J49WBER","3FVBZG9CLKK1M1GPZWGJX51HFG80HB","37UEWGM5HVEH54D4HM1EEYHMQTF1R6","emotion","mismatch","uniform","","","","","","","1401.3999999761581","214585.39999997616","215986.79999995232","[""stimuli/AM05_DO.jpg"",""stimuli/HF10_AO.jpg"",""stimuli/WF14_HE.jpg"",""stimuli/AF11_FO.jpg""]","stimuli/AM05_DO.jpg","stimuli/HF10_AO.jpg","stimuli/WF14_HE.jpg","stimuli/AF11_FO.jpg","pos2","stimuli/HF10_AO.jpg","AO","HF10","1","4.5","9","8","stimuli/stars_9.png","125.5","[""DO"",""AO"",""HE"",""FO""]","[""AM05"",""HF10"",""WF14"",""AF11""]","[5,9,0,5]","[4,8,2,6]","","",""
"show-reward","72","215324","0.0-72.0","p223454","A1IFIK8J49WBER","3FVBZG9CLKK1M1GPZWGJX51HFG80HB","37UEWGM5HVEH54D4HM1EEYHMQTF1R6","emotion","mismatch","uniform","","","","","","","","216497.89999997616","218502.69999992847","","","","","","","","","","","","9","","stimuli/stars_9.png","125.5","","","","","stimuli/HF10_AO.jpg","",""
"explore-choice","73","217556","0.0-73.0","p223454","A1IFIK8J49WBER","3FVBZG9CLKK1M1GPZWGJX51HFG80HB","37UEWGM5HVEH54D4HM1EEYHMQTF1R6","emotion","mismatch","uniform","","","","","","","1729.3999999761581","218505.39999997616","220234.79999995232","[""stimuli/WF14_DO.jpg"",""stimuli/AM05_HE.jpg"",""stimuli/HF10_AO.jpg"",""stimuli/AF11_FO.jpg""]","stimuli/WF14_DO.jpg","stimuli/AM05_HE.jpg","stimuli/HF10_AO.jpg","stimuli/AF11_FO.jpg","pos3","stimuli/HF10_AO.jpg","AO","HF10","2","3","6","8","stimuli/stars_6.png","128.5","[""DO"",""HE"",""AO"",""FO""]","[""WF14"",""AM05"",""HF10"",""AF11""]","[6,2,6,7]","[4,2,8,6]","","",""
"show-reward","74","219568","0.0-74.0","p223454","A1IFIK8J49WBER","3FVBZG9CLKK1M1GPZWGJX51HFG80HB","37UEWGM5HVEH54D4HM1EEYHMQTF1R6","emotion","mismatch","uniform","","","","","","","","220736.59999990463","222746.09999990463","","","","","","","","","","","","6","","stimuli/stars_6.png","128.5","","","","","stimuli/HF10_AO.jpg","",""
"explore-choice","75","222926","0.0-75.0","p223454","A1IFIK8J49WBER","3FVBZG9CLKK1M1GPZWGJX51HFG80HB","37UEWGM5HVEH54D4HM1EEYHMQTF1R6","emotion","mismatch","uniform","","","","","","","2854.399999976158","222750.39999997616","225604.79999995232","[""stimuli/HF10_HE.jpg"",""stimuli/AF11_AO.jpg"",""stimuli/WF14_FO.jpg"",""stimuli/AM05_DO.jpg""]","stimuli/HF10_HE.jpg","stimuli/AF11_AO.jpg","stimuli/WF14_FO.jpg","stimuli/AM05_DO.jpg","pos2","stimuli/AF11_AO.jpg","AO","AF11","1","4","8","8","stimuli/stars_8.png","132.5","[""HE"",""AO"",""FO"",""DO""]","[""HF10"",""AF11"",""WF14"",""AM05""]","[2,8,7,4]","[2,8,6,4]","","",""
"show-reward","76","224942","0.0-76.0","p223454","A1IFIK8J49WBER","3FVBZG9CLKK1M1GPZWGJX51HFG80HB","37UEWGM5HVEH54D4HM1EEYHMQTF1R6","emotion","mismatch","uniform","","","","","","","","226106.69999992847","228120.79999995232","","","","","","","","","","","","8","","stimuli/stars_8.png","132.5","","","","","stimuli/AF11_AO.jpg","",""
"explore-choice","77","228116","0.0-77.0","p223454","A1IFIK8J49WBER","3FVBZG9CLKK1M1GPZWGJX51HFG80HB","37UEWGM5HVEH54D4HM1EEYHMQTF1R6","emotion","mismatch","uniform","","","","","","","2656.7000000476837","228122.69999992847","230779.39999997616","[""stimuli/AM05_FO.jpg"",""stimuli/AF11_AO.jpg"",""stimuli/HF10_DO.jpg"",""stimuli/WF14_HE.jpg""]","stimuli/AM05_FO.jpg","stimuli/AF11_AO.jpg","stimuli/HF10_DO.jpg","stimuli/WF14_HE.jpg","pos2","stimuli/AF11_AO.jpg","AO","AF11","1","3","6","8","stimuli/stars_6.png","135.5","[""FO"",""AO"",""DO"",""HE""]","[""AM05"",""AF11"",""HF10"",""WF14""]","[6,6,2,3]","[6,8,4,2]","","",""
"show-reward","78","230131","0.0-78.0","p223454","A1IFIK8J49WBER","3FVBZG9CLKK1M1GPZWGJX51HFG80HB","37UEWGM5HVEH54D4HM1EEYHMQTF1R6","emotion","mismatch","uniform","","","","","","","","231297.79999995232","233309.69999992847","","","","","","","","","","","","6","","stimuli/stars_6.png","135.5","","","","","stimuli/AF11_AO.jpg","",""
"explore-choice","79","232366","0.0-79.0","p223454","A1IFIK8J49WBER","3FVBZG9CLKK1M1GPZWGJX51HFG80HB","37UEWGM5HVEH54D4HM1EEYHMQTF1R6","emotion","mismatch","uniform","","","","","","","1721","233311.79999995232","235032.79999995232","[""stimuli/AM05_FO.jpg"",""stimuli/WF14_AO.jpg"",""stimuli/HF10_HE.jpg"",""stimuli/AF11_DO.jpg""]","stimuli/AM05_FO.jpg","stimuli/WF14_AO.jpg","stimuli/HF10_HE.jpg","stimuli/AF11_DO.jpg","pos2","stimuli/WF14_AO.jpg","AO","WF14","1","4","8","8","stimuli/stars_8.png","139.5","[""FO"",""AO"",""HE"",""DO""]","[""AM05"",""WF14"",""HF10"",""AF11""]","[5,8,4,5]","[6,8,2,4]","","",""
"show-reward","80","234388","0.0-80.0","p223454","A1IFIK8J49WBER","3FVBZG9CLKK1M1GPZWGJX51HFG80HB","37UEWGM5HVEH54D4HM1EEYHMQTF1R6","emotion","mismatch","uniform","","","","","","","","235547.59999990463","237567.59999990463","","","","","","","","","","","","8","","stimuli/stars_8.png","139.5","","","","","stimuli/WF14_AO.jpg","",""
"explore-choice","81","236957","0.0-81.0","p223454","A1IFIK8J49WBER","3FVBZG9CLKK1M1GPZWGJX51HFG80HB","37UEWGM5HVEH54D4HM1EEYHMQTF1R6","emotion","mismatch","uniform","","","","","","","2058.5","237569","239627.5","[""stimuli/AF11_AO.jpg"",""stimuli/HF10_HE.jpg"",""stimuli/AM05_FO.jpg"",""stimuli/WF14_DO.jpg""]","stimuli/AF11_AO.jpg","stimuli/HF10_HE.jpg","stimuli/AM05_FO.jpg","stimuli/WF14_DO.jpg","pos1","stimuli/AF11_AO.jpg","AO","AF11","0","3.5","7","8","stimuli/stars_7.png","143","[""AO"",""HE"",""FO"",""DO""]","[""AF11"",""HF10"",""AM05"",""WF14""]","[7,0,6,2]","[8,2,6,4]","","",""
"show-reward","82","238966","0.0-82.0","p223454","A1IFIK8J49WBER","3FVBZG9CLKK1M1GPZWGJX51HFG80HB","37UEWGM5HVEH54D4HM1EEYHMQTF1R6","emotion","mismatch","uniform","","","","","","","","240137","242145.29999995232","","","","","","","","","","","","7","","stimuli/stars_7.png","143","","","","","stimuli/AF11_AO.jpg","",""
"explore-choice","83","241716","0.0-83.0","p223454","A1IFIK8J49WBER","3FVBZG9CLKK1M1GPZWGJX51HFG80HB","37UEWGM5HVEH54D4HM1EEYHMQTF1R6","emotion","mismatch","uniform","","","","","","","2246.8000000715256","242147.69999992847","244394.5","[""stimuli/HF10_DO.jpg"",""stimuli/AF11_HE.jpg"",""stimuli/WF14_AO.jpg"",""stimuli/AM05_FO.jpg""]","stimuli/HF10_DO.jpg","stimuli/AF11_HE.jpg","stimuli/WF14_AO.jpg","stimuli/AM05_FO.jpg","pos3","stimuli/WF14_AO.jpg","AO","WF14","2","4","8","8","stimuli/stars_8.png","147","[""DO"",""HE"",""AO"",""FO""]","[""HF10"",""AF11"",""WF14"",""AM05""]","[3,4,8,6]","[4,2,8,6]","","",""
"show-reward","84","243729","0.0-84.0","p223454","A1IFIK8J49WBER","3FVBZG9CLKK1M1GPZWGJX51HFG80HB","37UEWGM5HVEH54D4HM1EEYHMQTF1R6","emotion","mismatch","uniform","","","","","","","","244896.5","246907.09999990463","","","","","","","","","","","","8","","stimuli/stars_8.png","147","","","","","stimuli/WF14_AO.jpg","",""
"explore-choice","85","246529","0.0-85.0","p223454","A1IFIK8J49WBER","3FVBZG9CLKK1M1GPZWGJX51HFG80HB","37UEWGM5HVEH54D4HM1EEYHMQTF1R6","emotion","mismatch","uniform","","","","","","","2292.899999976158","246911.89999997616","249204.79999995232","[""stimuli/AF11_AO.jpg"",""stimuli/WF14_FO.jpg"",""stimuli/AM05_HE.jpg"",""stimuli/HF10_DO.jpg""]","stimuli/AF11_AO.jpg","stimuli/WF14_FO.jpg","stimuli/AM05_HE.jpg","stimuli/HF10_DO.jpg","pos1","stimuli/AF11_AO.jpg","AO","AF11","0","4.5","9","8","stimuli/stars_9.png","151.5","[""AO"",""FO"",""HE"",""DO""]","[""AF11"",""WF14"",""AM05"",""HF10""]","[9,8,0,5]","[8,6,2,4]","","",""
"show-reward","86","248545","0.0-86.0","p223454","A1IFIK8J49WBER","3FVBZG9CLKK1M1GPZWGJX51HFG80HB","37UEWGM5HVEH54D4HM1EEYHMQTF1R6","emotion","mismatch","uniform","","","","","","","","249711.39999997616","251724.89999997616","","","","","","","","","","","","9","","stimuli/stars_9.png","151.5","","","","","stimuli/AF11_AO.jpg","",""
"explore-choice","87","250951","0.0-87.0","p223454","A1IFIK8J49WBER","3FVBZG9CLKK1M1GPZWGJX51HFG80HB","37UEWGM5HVEH54D4HM1EEYHMQTF1R6","emotion","mismatch","uniform","","","","","","","1899.8999999761581","251727.5","253627.39999997616","[""stimuli/AF11_DO.jpg"",""stimuli/HF10_FO.jpg"",""stimuli/WF14_AO.jpg"",""stimuli/AM05_HE.jpg""]","stimuli/AF11_DO.jpg","stimuli/HF10_FO.jpg","stimuli/WF14_AO.jpg","stimuli/AM05_HE.jpg","pos3","stimuli/WF14_AO.jpg","AO","WF14","2","4.5","9","8","stimuli/stars_9.png","156","[""DO"",""FO"",""AO"",""HE""]","[""AF11"",""HF10"",""WF14"",""AM05""]","[4,4,9,3]","[4,6,8,2]","","",""
"show-reward","88","252968","0.0-88.0","p223454","A1IFIK8J49WBER","3FVBZG9CLKK1M1GPZWGJX51HFG80HB","37UEWGM5HVEH54D4HM1EEYHMQTF1R6","emotion","mismatch","uniform","","","","","","","","254132.29999995232","256148.09999990463","","","","","","","","","","","","9","","stimuli/stars_9.png","156","","","","","stimuli/WF14_AO.jpg","",""
"explore-choice","89","255087","0.0-89.0","p223454","A1IFIK8J49WBER","3FVBZG9CLKK1M1GPZWGJX51HFG80HB","37UEWGM5HVEH54D4HM1EEYHMQTF1R6","emotion","mismatch","uniform","","","","","","","1609.2000000476837","256149.19999992847","257758.39999997616","[""stimuli/WF14_HE.jpg"",""stimuli/HF10_AO.jpg"",""stimuli/AM05_FO.jpg"",""stimuli/AF11_DO.jpg""]","stimuli/WF14_HE.jpg","stimuli/HF10_AO.jpg","stimuli/AM05_FO.jpg","stimuli/AF11_DO.jpg","pos2","stimuli/HF10_AO.jpg","AO","HF10","1","4.5","9","8","stimuli/stars_9.png","160.5","[""HE"",""AO"",""FO"",""DO""]","[""WF14"",""HF10"",""AM05"",""AF11""]","[1,9,8,3]","[2,8,6,4]","","",""
"show-reward","90","257093","0.0-90.0","p223454","A1IFIK8J49WBER","3FVBZG9CLKK1M1GPZWGJX51HFG80HB","37UEWGM5HVEH54D4HM1EEYHMQTF1R6","emotion","mismatch","uniform","","","","","","","","258268.39999997616","260272.79999995232","","","","","","","","","","","","9","","stimuli/stars_9.png","160.5","","","","","stimuli/HF10_AO.jpg","",""
"explore-choice","91","259193","0.0-91.0","p223454","A1IFIK8J49WBER","3FVBZG9CLKK1M1GPZWGJX51HFG80HB","37UEWGM5HVEH54D4HM1EEYHMQTF1R6","emotion","mismatch","uniform","","","","","","","1596.1999999284744","260274.39999997616","261870.59999990463","[""stimuli/WF14_AO.jpg"",""stimuli/HF10_FO.jpg"",""stimuli/AM05_DO.jpg"",""stimuli/AF11_HE.jpg""]","stimuli/WF14_AO.jpg","stimuli/HF10_FO.jpg","stimuli/AM05_DO.jpg","stimuli/AF11_HE.jpg","pos1","stimuli/WF14_AO.jpg","AO","WF14","0","5","10","8","stimuli/stars_10.png","165.5","[""AO"",""FO"",""DO"",""HE""]","[""WF14"",""HF10"",""AM05"",""AF11""]","[10,4,5,2]","[8,6,4,2]","","",""
"show-reward","92","261200","0.0-92.0","p223454","A1IFIK8J49WBER","3FVBZG9CLKK1M1GPZWGJX51HFG80HB","37UEWGM5HVEH54D4HM1EEYHMQTF1R6","emotion","mismatch","uniform","","","","","","","","262374","264379.89999997616","","","","","","","","","","","","10","","stimuli/stars_10.png","165.5","","","","","stimuli/WF14_AO.jpg","",""
"explore-choice","93","264225","0.0-93.0","p223454","A1IFIK8J49WBER","3FVBZG9CLKK1M1GPZWGJX51HFG80HB","37UEWGM5HVEH54D4HM1EEYHMQTF1R6","emotion","mismatch","uniform","","","","","","","2521.7000000476837","264381.2999999523","266903","[""stimuli/AM05_HE.jpg"",""stimuli/HF10_DO.jpg"",""stimuli/AF11_FO.jpg"",""stimuli/WF14_AO.jpg""]","stimuli/AM05_HE.jpg","stimuli/HF10_DO.jpg","stimuli/AF11_FO.jpg","stimuli/WF14_AO.jpg","pos4","stimuli/WF14_AO.jpg","AO","WF14","3","3","6","8","stimuli/stars_6.png","168.5","[""HE"",""DO"",""FO"",""AO""]","[""AM05"",""HF10"",""AF11"",""WF14""]","[0,6,6,6]","[2,4,6,8]","","",""
"show-reward","94","266239","0.0-94.0","p223454","A1IFIK8J49WBER","3FVBZG9CLKK1M1GPZWGJX51HFG80HB","37UEWGM5HVEH54D4HM1EEYHMQTF1R6","emotion","mismatch","uniform","","","","","","","","267405.6999999285","269418.09999990463","","","","","","","","","","","","6","","stimuli/stars_6.png","168.5","","","","","stimuli/WF14_AO.jpg","",""
"explore-choice","95","269946","0.0-95.0","p223454","A1IFIK8J49WBER","3FVBZG9CLKK1M1GPZWGJX51HFG80HB","37UEWGM5HVEH54D4HM1EEYHMQTF1R6","emotion","mismatch","uniform","","","","","","","3198.600000023842","269420.1999999285","272618.7999999523","[""stimuli/AF11_DO.jpg"",""stimuli/AM05_AO.jpg"",""stimuli/HF10_HE.jpg"",""stimuli/WF14_FO.jpg""]","stimuli/AF11_DO.jpg","stimuli/AM05_AO.jpg","stimuli/HF10_HE.jpg","stimuli/WF14_FO.jpg","pos2","stimuli/AM05_AO.jpg","AO","AM05","1","5","10","8","stimuli/stars_10.png","173.5","[""DO"",""AO"",""HE"",""FO""]","[""AF11"",""AM05"",""HF10"",""WF14""]","[5,10,0,5]","[4,8,2,6]","","",""
"show-reward","96","271964","0.0-96.0","p223454","A1IFIK8J49WBER","3FVBZG9CLKK1M1GPZWGJX51HFG80HB","37UEWGM5HVEH54D4HM1EEYHMQTF1R6","emotion","mismatch","uniform","","","","","","","","273128.39999997616","275143.6999999285","","","","","","","","","","","","10","","stimuli/stars_10.png","173.5","","","","","stimuli/AM05_AO.jpg","",""
"explore-choice","97","273894","0.0-97.0","p223454","A1IFIK8J49WBER","3FVBZG9CLKK1M1GPZWGJX51HFG80HB","37UEWGM5HVEH54D4HM1EEYHMQTF1R6","emotion","mismatch","uniform","","","","","","","1414.1999999284744","275145","276559.1999999285","[""stimuli/AM05_AO.jpg"",""stimuli/AF11_HE.jpg"",""stimuli/WF14_FO.jpg"",""stimuli/HF10_DO.jpg""]","stimuli/AM05_AO.jpg","stimuli/AF11_HE.jpg","stimuli/WF14_FO.jpg","stimuli/HF10_DO.jpg","pos1","stimuli/AM05_AO.jpg","AO","AM05","0","4","8","8","stimuli/stars_8.png","177.5","[""AO"",""HE"",""FO"",""DO""]","[""AM05"",""AF11"",""WF14"",""HF10""]","[8,4,6,6]","[8,2,6,4]","","",""
"show-reward","98","275902","0.0-98.0","p223454","A1IFIK8J49WBER","3FVBZG9CLKK1M1GPZWGJX51HFG80HB","37UEWGM5HVEH54D4HM1EEYHMQTF1R6","emotion","mismatch","uniform","","","","","","","","277075.2999999523","279081.5","","","","","","","","","","","","8","","stimuli/stars_8.png","177.5","","","","","stimuli/AM05_AO.jpg","",""
"explore-choice","99","278734","0.0-99.0","p223454","A1IFIK8J49WBER","3FVBZG9CLKK1M1GPZWGJX51HFG80HB","37UEWGM5HVEH54D4HM1EEYHMQTF1R6","emotion","mismatch","uniform","","","","","","","2327.5","279083.2999999523","281410.7999999523","[""stimuli/WF14_HE.jpg"",""stimuli/AM05_AO.jpg"",""stimuli/HF10_DO.jpg"",""stimuli/AF11_FO.jpg""]","stimuli/WF14_HE.jpg","stimuli/AM05_AO.jpg","stimuli/HF10_DO.jpg","stimuli/AF11_FO.jpg","pos2","stimuli/AM05_AO.jpg","AO","AM05","1","4.5","9","8","stimuli/stars_9.png","182","[""HE"",""AO"",""DO"",""FO""]","[""WF14"",""AM05"",""HF10"",""AF11""]","[2,9,2,5]","[2,8,4,6]","","",""
"show-reward","100","280752","0.0-100.0","p223454","A1IFIK8J49WBER","3FVBZG9CLKK1M1GPZWGJX51HFG80HB","37UEWGM5HVEH54D4HM1EEYHMQTF1R6","emotion","mismatch","uniform","","","","","","","","281914.7999999523","283932","","","","","","","","","","","","9","","stimuli/stars_9.png","182","","","","","stimuli/AM05_AO.jpg","",""
"explore-choice","101","282885","0.0-101.0","p223454","A1IFIK8J49WBER","3FVBZG9CLKK1M1GPZWGJX51HFG80HB","37UEWGM5HVEH54D4HM1EEYHMQTF1R6","emotion","mismatch","uniform","","","","","","","1623.5","283933.59999990463","285557.09999990463","[""stimuli/WF14_HE.jpg"",""stimuli/AM05_AO.jpg"",""stimuli/HF10_FO.jpg"",""stimuli/AF11_DO.jpg""]","stimuli/WF14_HE.jpg","stimuli/AM05_AO.jpg","stimuli/HF10_FO.jpg","stimuli/AF11_DO.jpg","pos2","stimuli/AM05_AO.jpg","AO","AM05","1","4","8","8","stimuli/stars_8.png","186","[""HE"",""AO"",""FO"",""DO""]","[""WF14"",""AM05"",""HF10"",""AF11""]","[2,8,7,6]","[2,8,6,4]","","",""
"show-reward","102","284896","0.0-102.0","p223454","A1IFIK8J49WBER","3FVBZG9CLKK1M1GPZWGJX51HFG80HB","37UEWGM5HVEH54D4HM1EEYHMQTF1R6","emotion","mismatch","uniform","","","","","","","","286066.1999999285","288074.59999990463","","","","","","","","","","","","8","","stimuli/stars_8.png","186","","","","","stimuli/AM05_AO.jpg","",""
"explore-choice","103","288911","0.0-103.0","p223454","A1IFIK8J49WBER","3FVBZG9CLKK1M1GPZWGJX51HFG80HB","37UEWGM5HVEH54D4HM1EEYHMQTF1R6","emotion","mismatch","uniform","","","","","","","3499.600000023842","288077.7999999523","291577.39999997616","[""stimuli/WF11_SC.jpg"",""stimuli/AM03_CC.jpg"",""stimuli/HM07_HO.jpg"",""stimuli/BM03_SUR.jpg""]","stimuli/WF11_SC.jpg","stimuli/AM03_CC.jpg","stimuli/HM07_HO.jpg","stimuli/BM03_SUR.jpg","pos1","stimuli/WF11_SC.jpg","SC","WF11","0","3.5","7","8","stimuli/stars_7.png","189.5","[""SC"",""CC"",""HO"",""SUR""]","[""WF11"",""AM03"",""HM07"",""BM03""]","[7,2,1,5]","[8,4,2,6]","","",""
"show-reward","104","290920","0.0-104.0","p223454","A1IFIK8J49WBER","3FVBZG9CLKK1M1GPZWGJX51HFG80HB","37UEWGM5HVEH54D4HM1EEYHMQTF1R6","emotion","mismatch","uniform","","","","","","","","292092","294100","","","","","","","","","","","","7","","stimuli/stars_7.png","189.5","","","","","stimuli/WF11_SC.jpg","",""
"explore-choice","105","295376","0.0-105.0","p223454","A1IFIK8J49WBER","3FVBZG9CLKK1M1GPZWGJX51HFG80HB","37UEWGM5HVEH54D4HM1EEYHMQTF1R6","emotion","mismatch","uniform","","","","","","","3945.5","294101.09999990463","298046.59999990463","[""stimuli/WF11_SUR.jpg"",""stimuli/HM07_HO.jpg"",""stimuli/BM03_CC.jpg"",""stimuli/AM03_SC.jpg""]","stimuli/WF11_SUR.jpg","stimuli/HM07_HO.jpg","stimuli/BM03_CC.jpg","stimuli/AM03_SC.jpg","pos1","stimuli/WF11_SUR.jpg","SUR","WF11","0","5","10","8","stimuli/stars_10.png","194.5","[""SUR"",""HO"",""CC"",""SC""]","[""WF11"",""HM07"",""BM03"",""AM03""]","[10,1,8,2]","[8,2,6,4]","","",""
"show-reward","106","297397","0.0-106.0","p223454","A1IFIK8J49WBER","3FVBZG9CLKK1M1GPZWGJX51HFG80HB","37UEWGM5HVEH54D4HM1EEYHMQTF1R6","emotion","mismatch","uniform","","","","","","","","298558","300576.7999999523","","","","","","","","","","","","10","","stimuli/stars_10.png","194.5","","","","","stimuli/WF11_SUR.jpg","",""
"explore-choice","107","299612","0.0-107.0","p223454","A1IFIK8J49WBER","3FVBZG9CLKK1M1GPZWGJX51HFG80HB","37UEWGM5HVEH54D4HM1EEYHMQTF1R6","emotion","mismatch","uniform","","","","","","","1700.8000000715256","300578.1999999285","302279","[""stimuli/WF11_SUR.jpg"",""stimuli/BM03_SC.jpg"",""stimuli/HM07_CC.jpg"",""stimuli/AM03_HO.jpg""]","stimuli/WF11_SUR.jpg","stimuli/BM03_SC.jpg","stimuli/HM07_CC.jpg","stimuli/AM03_HO.jpg","pos1","stimuli/WF11_SUR.jpg","SUR","WF11","0","3","6","8","stimuli/stars_6.png","197.5","[""SUR"",""SC"",""CC"",""HO""]","[""WF11"",""BM03"",""HM07"",""AM03""]","[6,7,2,6]","[8,6,2,4]","","",""
"show-reward","108","301629","0.0-108.0","p223454","A1IFIK8J49WBER","3FVBZG9CLKK1M1GPZWGJX51HFG80HB","37UEWGM5HVEH54D4HM1EEYHMQTF1R6","emotion","mismatch","uniform","","","","","","","","302793.39999997616","304809.1999999285","","","","","","","","","","","","6","","stimuli/stars_6.png","197.5","","","","","stimuli/WF11_SUR.jpg","",""
"explore-choice","109","303450","0.0-109.0","p223454","A1IFIK8J49WBER","3FVBZG9CLKK1M1GPZWGJX51HFG80HB","37UEWGM5HVEH54D4HM1EEYHMQTF1R6","emotion","mismatch","uniform","","","","","","","1315.3999999761581","304810.1999999285","306125.59999990463","[""stimuli/AM03_SUR.jpg"",""stimuli/BM03_CC.jpg"",""stimuli/HM07_HO.jpg"",""stimuli/WF11_SC.jpg""]","stimuli/AM03_SUR.jpg","stimuli/BM03_CC.jpg","stimuli/HM07_HO.jpg","stimuli/WF11_SC.jpg","pos1","stimuli/AM03_SUR.jpg","SUR","AM03","0","2","4","4","stimuli/stars_4.png","199.5","[""SUR"",""CC"",""HO"",""SC""]","[""AM03"",""BM03"",""HM07"",""WF11""]","[4,4,2,8]","[4,6,2,8]","","",""
"show-reward","110","305462","0.0-110.0","p223454","A1IFIK8J49WBER","3FVBZG9CLKK1M1GPZWGJX51HFG80HB","37UEWGM5HVEH54D4HM1EEYHMQTF1R6","emotion","mismatch","uniform","","","","","","","","306632.59999990463","308641.89999997616","","","","","","","","","","","","4","","stimuli/stars_4.png","199.5","","","","","stimuli/AM03_SUR.jpg","",""
"explore-choice","111","309184","0.0-111.0","p223454","A1IFIK8J49WBER","3FVBZG9CLKK1M1GPZWGJX51HFG80HB","37UEWGM5HVEH54D4HM1EEYHMQTF1R6","emotion","mismatch","uniform","","","","","","","3205.2999999523163","308643.5","311848.7999999523","[""stimuli/WF11_HO.jpg"",""stimuli/AM03_SUR.jpg"",""stimuli/HM07_SC.jpg"",""stimuli/BM03_CC.jpg""]","stimuli/WF11_HO.jpg","stimuli/AM03_SUR.jpg","stimuli/HM07_SC.jpg","stimuli/BM03_CC.jpg","pos3","stimuli/HM07_SC.jpg","SC","HM07","2","1.5","3","2","stimuli/stars_3.png","201","[""HO"",""SUR"",""SC"",""CC""]","[""WF11"",""AM03"",""HM07"",""BM03""]","[10,6,3,4]","[8,4,2,6]","","",""
"show-reward","112","311193","0.0-112.0","p223454","A1IFIK8J49WBER","3FVBZG9CLKK1M1GPZWGJX51HFG80HB","37UEWGM5HVEH54D4HM1EEYHMQTF1R6","emotion","mismatch","uniform","","","","","","","","312365.5","314369.89999997616","","","","","","","","","","","","3","","stimuli/stars_3.png","201","","","","","stimuli/HM07_SC.jpg","",""
"explore-choice","113","314295","0.0-113.0","p223454","A1IFIK8J49WBER","3FVBZG9CLKK1M1GPZWGJX51HFG80HB","37UEWGM5HVEH54D4HM1EEYHMQTF1R6","emotion","mismatch","uniform","","","","","","","2584.0999999046326","314375.5","316959.59999990463","[""stimuli/AM03_CC.jpg"",""stimuli/BM03_SUR.jpg"",""stimuli/HM07_SC.jpg"",""stimuli/WF11_HO.jpg""]","stimuli/AM03_CC.jpg","stimuli/BM03_SUR.jpg","stimuli/HM07_SC.jpg","stimuli/WF11_HO.jpg","pos2","stimuli/BM03_SUR.jpg","SUR","BM03","1","4","8","6","stimuli/stars_8.png","205","[""CC"",""SUR"",""SC"",""HO""]","[""AM03"",""BM03"",""HM07"",""WF11""]","[6,8,3,8]","[4,6,2,8]","","",""
"show-reward","114","316314","0.0-114.0","p223454","A1IFIK8J49WBER","3FVBZG9CLKK1M1GPZWGJX51HFG80HB","37UEWGM5HVEH54D4HM1EEYHMQTF1R6","emotion","mismatch","uniform","","","","","","","","317476","319493.5","","","","","","","","","","","","8","","stimuli/stars_8.png","205","","","","","stimuli/BM03_SUR.jpg","",""
"explore-choice","115","318672","0.0-115.0","p223454","A1IFIK8J49WBER","3FVBZG9CLKK1M1GPZWGJX51HFG80HB","37UEWGM5HVEH54D4HM1EEYHMQTF1R6","emotion","mismatch","uniform","","","","","","","1853.8999999761581","319495","321348.89999997616","[""stimuli/HM07_SUR.jpg"",""stimuli/WF11_CC.jpg"",""stimuli/AM03_HO.jpg"",""stimuli/BM03_SC.jpg""]","stimuli/HM07_SUR.jpg","stimuli/WF11_CC.jpg","stimuli/AM03_HO.jpg","stimuli/BM03_SC.jpg","pos1","stimuli/HM07_SUR.jpg","SUR","HM07","0","1.5","3","2","stimuli/stars_3.png","206.5","[""SUR"",""CC"",""HO"",""SC""]","[""HM07"",""WF11"",""AM03"",""BM03""]","[3,6,3,6]","[2,8,4,6]","","",""
"show-reward","116","320684","0.0-116.0","p223454","A1IFIK8J49WBER","3FVBZG9CLKK1M1GPZWGJX51HFG80HB","37UEWGM5HVEH54D4HM1EEYHMQTF1R6","emotion","mismatch","uniform","","","","","","","","321854.09999990463","323863.09999990463","","","","","","","","","","","","3","","stimuli/stars_3.png","206.5","","","","","stimuli/HM07_SUR.jpg","",""
"explore-choice","117","323794","0.0-117.0","p223454","A1IFIK8J49WBER","3FVBZG9CLKK1M1GPZWGJX51HFG80HB","37UEWGM5HVEH54D4HM1EEYHMQTF1R6","emotion","mismatch","uniform","","","","","","","2594.5999999046326","323864.5","326459.09999990463","[""stimuli/WF11_SUR.jpg"",""stimuli/AM03_CC.jpg"",""stimuli/BM03_SC.jpg"",""stimuli/HM07_HO.jpg""]","stimuli/WF11_SUR.jpg","stimuli/AM03_CC.jpg","stimuli/BM03_SC.jpg","stimuli/HM07_HO.jpg","pos3","stimuli/BM03_SC.jpg","SC","BM03","2","4","8","6","stimuli/stars_8.png","210.5","[""SUR"",""CC"",""SC"",""HO""]","[""WF11"",""AM03"",""BM03"",""HM07""]","[9,4,8,3]","[8,4,6,2]","","",""
"show-reward","118","325815","0.0-118.0","p223454","A1IFIK8J49WBER","3FVBZG9CLKK1M1GPZWGJX51HFG80HB","37UEWGM5HVEH54D4HM1EEYHMQTF1R6","emotion","mismatch","uniform","","","","","","","","326975","328994.1999999285","","","","","","","","","","","","8","","stimuli/stars_8.png","210.5","","","","","stimuli/BM03_SC.jpg","",""
"explore-choice","119","327981","0.0-119.0","p223454","A1IFIK8J49WBER","3FVBZG9CLKK1M1GPZWGJX51HFG80HB","37UEWGM5HVEH54D4HM1EEYHMQTF1R6","emotion","mismatch","uniform","","","","","","","1648.8999999761581","328995.6999999285","330644.59999990463","[""stimuli/HM07_CC.jpg"",""stimuli/BM03_SC.jpg"",""stimuli/WF11_HO.jpg"",""stimuli/AM03_SUR.jpg""]","stimuli/HM07_CC.jpg","stimuli/BM03_SC.jpg","stimuli/WF11_HO.jpg","stimuli/AM03_SUR.jpg","pos2","stimuli/BM03_SC.jpg","SC","BM03","1","3.5","7","6","stimuli/stars_7.png","214","[""CC"",""SC"",""HO"",""SUR""]","[""HM07"",""BM03"",""WF11"",""AM03""]","[1,7,6,6]","[2,6,8,4]","","",""
"show-reward","120","329998","0.0-120.0","p223454","A1IFIK8J49WBER","3FVBZG9CLKK1M1GPZWGJX51HFG80HB","37UEWGM5HVEH54D4HM1EEYHMQTF1R6","emotion","mismatch","uniform","","","","","","","","331161.59999990463","333177.5","","","","","","","","","","","","7","","stimuli/stars_7.png","214","","","","","stimuli/BM03_SC.jpg","",""
"explore-choice","121","331680","0.0-121.0","p223454","A1IFIK8J49WBER","3FVBZG9CLKK1M1GPZWGJX51HFG80HB","37UEWGM5HVEH54D4HM1EEYHMQTF1R6","emotion","mismatch","uniform","","","","","","","1170.1000000238419","333178.59999990463","334348.6999999285","[""stimuli/BM03_SUR.jpg"",""stimuli/AM03_SC.jpg"",""stimuli/WF11_CC.jpg"",""stimuli/HM07_HO.jpg""]","stimuli/BM03_SUR.jpg","stimuli/AM03_SC.jpg","stimuli/WF11_CC.jpg","stimuli/HM07_HO.jpg","pos1","stimuli/BM03_SUR.jpg","SUR","BM03","0","2.5","5","6","stimuli/stars_5.png","216.5","[""SUR"",""SC"",""CC"",""HO""]","[""BM03"",""AM03"",""WF11"",""HM07""]","[5,2,10,4]","[6,4,8,2]","","",""
"show-reward","122","333686","0.0-122.0","p223454","A1IFIK8J49WBER","3FVBZG9CLKK1M1GPZWGJX51HFG80HB","37UEWGM5HVEH54D4HM1EEYHMQTF1R6","emotion","mismatch","uniform","","","","","","","","334861.89999997616","336865.5","","","","","","","","","","","","5","","stimuli/stars_5.png","216.5","","","","","stimuli/BM03_SUR.jpg","",""
"explore-choice","123","337227","0.0-123.0","p223454","A1IFIK8J49WBER","3FVBZG9CLKK1M1GPZWGJX51HFG80HB","37UEWGM5HVEH54D4HM1EEYHMQTF1R6","emotion","mismatch","uniform","","","","","","","3026","336866.6999999285","339892.6999999285","[""stimuli/AM03_SC.jpg"",""stimuli/BM03_HO.jpg"",""stimuli/WF11_SUR.jpg"",""stimuli/HM07_CC.jpg""]","stimuli/AM03_SC.jpg","stimuli/BM03_HO.jpg","stimuli/WF11_SUR.jpg","stimuli/HM07_CC.jpg","pos3","stimuli/WF11_SUR.jpg","SUR","WF11","2","4","8","8","stimuli/stars_8.png","220.5","[""SC"",""HO"",""SUR"",""CC""]","[""AM03"",""BM03"",""WF11"",""HM07""]","[2,7,8,4]","[4,6,8,2]","","",""
"show-reward","124","339244","0.0-124.0","p223454","A1IFIK8J49WBER","3FVBZG9CLKK1M1GPZWGJX51HFG80HB","37UEWGM5HVEH54D4HM1EEYHMQTF1R6","emotion","mismatch","uniform","","","","","","","","340409.39999997616","342422.39999997616","","","","","","","","","","","","8","","stimuli/stars_8.png","220.5","","","","","stimuli/WF11_SUR.jpg","",""
"explore-choice","125","343274","0.0-125.0","p223454","A1IFIK8J49WBER","3FVBZG9CLKK1M1GPZWGJX51HFG80HB","37UEWGM5HVEH54D4HM1EEYHMQTF1R6","emotion","mismatch","uniform","","","","","","","3516","342425.2999999523","345941.2999999523","[""stimuli/HM07_SUR.jpg"",""stimuli/BM03_CC.jpg"",""stimuli/AM03_HO.jpg"",""stimuli/WF11_SC.jpg""]","stimuli/HM07_SUR.jpg","stimuli/BM03_CC.jpg","stimuli/AM03_HO.jpg","stimuli/WF11_SC.jpg","pos4","stimuli/WF11_SC.jpg","SC","WF11","3","3","6","8","stimuli/stars_6.png","223.5","[""SUR"",""CC"",""HO"",""SC""]","[""HM07"",""BM03"",""AM03"",""WF11""]","[2,4,3,6]","[2,6,4,8]","","",""
"show-reward","126","345291","0.0-126.0","p223454","A1IFIK8J49WBER","3FVBZG9CLKK1M1GPZWGJX51HFG80HB","37UEWGM5HVEH54D4HM1EEYHMQTF1R6","emotion","mismatch","uniform","","","","","","","","346455.1999999285","348470.1999999285","","","","","","","","","","","","6","","stimuli/stars_6.png","223.5","","","","","stimuli/WF11_SC.jpg","",""
"explore-choice","127","348213","0.0-127.0","p223454","A1IFIK8J49WBER","3FVBZG9CLKK1M1GPZWGJX51HFG80HB","37UEWGM5HVEH54D4HM1EEYHMQTF1R6","emotion","mismatch","uniform","","","","","","","2418.7999999523163","348471.89999997616","350890.6999999285","[""stimuli/HM07_SUR.jpg"",""stimuli/AM03_SC.jpg"",""stimuli/WF11_CC.jpg"",""stimuli/BM03_HO.jpg""]","stimuli/HM07_SUR.jpg","stimuli/AM03_SC.jpg","stimuli/WF11_CC.jpg","stimuli/BM03_HO.jpg","pos4","stimuli/BM03_HO.jpg","HO","BM03","3","2","4","6","stimuli/stars_4.png","225.5","[""SUR"",""SC"",""CC"",""HO""]","[""HM07"",""AM03"",""WF11"",""BM03""]","[4,4,9,4]","[2,4,8,6]","","",""
"show-reward","128","350227","0.0-128.0","p223454","A1IFIK8J49WBER","3FVBZG9CLKK1M1GPZWGJX51HFG80HB","37UEWGM5HVEH54D4HM1EEYHMQTF1R6","emotion","mismatch","uniform","","","","","","","","351393.7999999523","353406.7999999523","","","","","","","","","","","","4","","stimuli/stars_4.png","225.5","","","","","stimuli/BM03_HO.jpg","",""
"explore-choice","129","353223","0.0-129.0","p223454","A1IFIK8J49WBER","3FVBZG9CLKK1M1GPZWGJX51HFG80HB","37UEWGM5HVEH54D4HM1EEYHMQTF1R6","emotion","mismatch","uniform","","","","","","","2490.7000000476837","353408.1999999285","355898.89999997616","[""stimuli/BM03_HO.jpg"",""stimuli/WF11_SC.jpg"",""stimuli/HM07_SUR.jpg"",""stimuli/AM03_CC.jpg""]","stimuli/BM03_HO.jpg","stimuli/WF11_SC.jpg","stimuli/HM07_SUR.jpg","stimuli/AM03_CC.jpg","pos2","stimuli/WF11_SC.jpg","SC","WF11","1","3.5","7","8","stimuli/stars_7.png","229","[""HO"",""SC"",""SUR"",""CC""]","[""BM03"",""WF11"",""HM07"",""AM03""]","[5,7,1,2]","[6,8,2,4]","","",""
"show-reward","130","355242","0.0-130.0","p223454","A1IFIK8J49WBER","3FVBZG9CLKK1M1GPZWGJX51HFG80HB","37UEWGM5HVEH54D4HM1EEYHMQTF1R6","emotion","mismatch","uniform","","","","","","","","356406.5","358422","","","","","","","","","","","","7","","stimuli/stars_7.png","229","","","","","stimuli/WF11_SC.jpg","",""
"explore-choice","131","356794","0.0-131.0","p223454","A1IFIK8J49WBER","3FVBZG9CLKK1M1GPZWGJX51HFG80HB","37UEWGM5HVEH54D4HM1EEYHMQTF1R6","emotion","mismatch","uniform","","","","","","","1039.6000000238419","358423.09999990463","359462.6999999285","[""stimuli/BM03_CC.jpg"",""stimuli/HM07_SUR.jpg"",""stimuli/WF11_HO.jpg"",""stimuli/AM03_SC.jpg""]","stimuli/BM03_CC.jpg","stimuli/HM07_SUR.jpg","stimuli/WF11_HO.jpg","stimuli/AM03_SC.jpg","pos3","stimuli/WF11_HO.jpg","HO","WF11","2","4","8","8","stimuli/stars_8.png","233","[""CC"",""SUR"",""HO"",""SC""]","[""BM03"",""HM07"",""WF11"",""AM03""]","[4,2,8,2]","[6,2,8,4]","","",""
"show-reward","132","358810","0.0-132.0","p223454","A1IFIK8J49WBER","3FVBZG9CLKK1M1GPZWGJX51HFG80HB","37UEWGM5HVEH54D4HM1EEYHMQTF1R6","emotion","mismatch","uniform","","","","","","","","359975.2999999523","361988.89999997616","","","","","","","","","","","","8","","stimuli/stars_8.png","233","","","","","stimuli/WF11_HO.jpg","",""
"explore-choice","133","360776","0.0-133.0","p223454","A1IFIK8J49WBER","3FVBZG9CLKK1M1GPZWGJX51HFG80HB","37UEWGM5HVEH54D4HM1EEYHMQTF1R6","emotion","mismatch","uniform","","","","","","","1452.8999999761581","361991.2999999523","363444.1999999285","[""stimuli/HM07_CC.jpg"",""stimuli/WF11_SC.jpg"",""stimuli/AM03_SUR.jpg"",""stimuli/BM03_HO.jpg""]","stimuli/HM07_CC.jpg","stimuli/WF11_SC.jpg","stimuli/AM03_SUR.jpg","stimuli/BM03_HO.jpg","pos2","stimuli/WF11_SC.jpg","SC","WF11","1","3.5","7","8","stimuli/stars_7.png","236.5","[""CC"",""SC"",""SUR"",""HO""]","[""HM07"",""WF11"",""AM03"",""BM03""]","[2,7,2,7]","[2,8,4,6]","","",""
"show-reward","134","362793","0.0-134.0","p223454","A1IFIK8J49WBER","3FVBZG9CLKK1M1GPZWGJX51HFG80HB","37UEWGM5HVEH54D4HM1EEYHMQTF1R6","emotion","mismatch","uniform","","","","","","","","363956.59999990463","365973.39999997616","","","","","","","","","","","","7","","stimuli/stars_7.png","236.5","","","","","stimuli/WF11_SC.jpg","",""
"explore-choice","135","364435","0.0-135.0","p223454","A1IFIK8J49WBER","3FVBZG9CLKK1M1GPZWGJX51HFG80HB","37UEWGM5HVEH54D4HM1EEYHMQTF1R6","emotion","mismatch","uniform","","","","","","","1134.2999999523163","365974.39999997616","367108.6999999285","[""stimuli/HM07_SC.jpg"",""stimuli/WF11_CC.jpg"",""stimuli/AM03_HO.jpg"",""stimuli/BM03_SUR.jpg""]","stimuli/HM07_SC.jpg","stimuli/WF11_CC.jpg","stimuli/AM03_HO.jpg","stimuli/BM03_SUR.jpg","pos2","stimuli/WF11_CC.jpg","CC","WF11","1","3","6","8","stimuli/stars_6.png","239.5","[""SC"",""CC"",""HO"",""SUR""]","[""HM07"",""WF11"",""AM03"",""BM03""]","[0,6,6,6]","[2,8,4,6]","","",""
"show-reward","136","366461","0.0-136.0","p223454","A1IFIK8J49WBER","3FVBZG9CLKK1M1GPZWGJX51HFG80HB","37UEWGM5HVEH54D4HM1EEYHMQTF1R6","emotion","mismatch","uniform","","","","","","","","367617.2999999523","369640.59999990463","","","","","","","","","","","","6","","stimuli/stars_6.png","239.5","","","","","stimuli/WF11_CC.jpg","",""
"explore-choice","137","367995","0.0-137.0","p223454","A1IFIK8J49WBER","3FVBZG9CLKK1M1GPZWGJX51HFG80HB","37UEWGM5HVEH54D4HM1EEYHMQTF1R6","emotion","mismatch","uniform","","","","","","","1031.2000000476837","369641.7999999523","370673","[""stimuli/WF11_SUR.jpg"",""stimuli/AM03_CC.jpg"",""stimuli/BM03_HO.jpg"",""stimuli/HM07_SC.jpg""]","stimuli/WF11_SUR.jpg","stimuli/AM03_CC.jpg","stimuli/BM03_HO.jpg","stimuli/HM07_SC.jpg","pos1","stimuli/WF11_SUR.jpg","SUR","WF11","0","3.5","7","8","stimuli/stars_7.png","243","[""SUR"",""CC"",""HO"",""SC""]","[""WF11"",""AM03"",""BM03"",""HM07""]","[7,3,5,0]","[8,4,6,2]","","",""
"show-reward","138","370007","0.0-138.0","p223454","A1IFIK8J49WBER","3FVBZG9CLKK1M1GPZWGJX51HFG80HB","37UEWGM5HVEH54D4HM1EEYHMQTF1R6","emotion","mismatch","uniform","","","","","","","","371176.5","373186.59999990463","","","","","","","","","","","","7","","stimuli/stars_7.png","243","","","","","stimuli/WF11_SUR.jpg","",""
"explore-choice","139","371692","0.0-139.0","p223454","A1IFIK8J49WBER","3FVBZG9CLKK1M1GPZWGJX51HFG80HB","37UEWGM5HVEH54D4HM1EEYHMQTF1R6","emotion","mismatch","uniform","","","","","","","1166.5","373189","374355.5","[""stimuli/HM07_SC.jpg"",""stimuli/WF11_SUR.jpg"",""stimuli/AM03_HO.jpg"",""stimuli/BM03_CC.jpg""]","stimuli/HM07_SC.jpg","stimuli/WF11_SUR.jpg","stimuli/AM03_HO.jpg","stimuli/BM03_CC.jpg","pos2","stimuli/WF11_SUR.jpg","SUR","WF11","1","5","10","8","stimuli/stars_10.png","248","[""SC"",""SUR"",""HO"",""CC""]","[""HM07"",""WF11"",""AM03"",""BM03""]","[1,10,2,8]","[2,8,4,6]","","",""
"show-reward","140","373709","0.0-140.0","p223454","A1IFIK8J49WBER","3FVBZG9CLKK1M1GPZWGJX51HFG80HB","37UEWGM5HVEH54D4HM1EEYHMQTF1R6","emotion","mismatch","uniform","","","","","","","","374873.59999990463","376887.1999999285","","","","","","","","","","","","10","","stimuli/stars_10.png","248","","","","","stimuli/WF11_SUR.jpg","",""
"explore-choice","141","375126","0.0-141.0","p223454","A1IFIK8J49WBER","3FVBZG9CLKK1M1GPZWGJX51HFG80HB","37UEWGM5HVEH54D4HM1EEYHMQTF1R6","emotion","mismatch","uniform","","","","","","","909","376891.5","377800.5","[""stimuli/AM03_SUR.jpg"",""stimuli/WF11_CC.jpg"",""stimuli/BM03_HO.jpg"",""stimuli/HM07_SC.jpg""]","stimuli/AM03_SUR.jpg","stimuli/WF11_CC.jpg","stimuli/BM03_HO.jpg","stimuli/HM07_SC.jpg","pos2","stimuli/WF11_CC.jpg","CC","WF11","1","4.5","9","8","stimuli/stars_9.png","252.5","[""SUR"",""CC"",""HO"",""SC""]","[""AM03"",""WF11"",""BM03"",""HM07""]","[2,9,5,1]","[4,8,6,2]","","",""
"show-reward","142","377143","0.0-142.0","p223454","A1IFIK8J49WBER","3FVBZG9CLKK1M1GPZWGJX51HFG80HB","37UEWGM5HVEH54D4HM1EEYHMQTF1R6","emotion","mismatch","uniform","","","","","","","","378307.89999997616","380322.6999999285","","","","","","","","","","","","9","","stimuli/stars_9.png","252.5","","","","","stimuli/WF11_CC.jpg","",""
"explore-choice","143","378798","0.0-143.0","p223454","A1IFIK8J49WBER","3FVBZG9CLKK1M1GPZWGJX51HFG80HB","37UEWGM5HVEH54D4HM1EEYHMQTF1R6","emotion","mismatch","uniform","","","","","","","1142.3999999761581","380324.1999999285","381466.59999990463","[""stimuli/WF11_CC.jpg"",""stimuli/AM03_SUR.jpg"",""stimuli/BM03_SC.jpg"",""stimuli/HM07_HO.jpg""]","stimuli/WF11_CC.jpg","stimuli/AM03_SUR.jpg","stimuli/BM03_SC.jpg","stimuli/HM07_HO.jpg","pos1","stimuli/WF11_CC.jpg","CC","WF11","0","4","8","8","stimuli/stars_8.png","256.5","[""CC"",""SUR"",""SC"",""HO""]","[""WF11"",""AM03"",""BM03"",""HM07""]","[8,6,5,4]","[8,4,6,2]","","",""
"show-reward","144","380804","0.0-144.0","p223454","A1IFIK8J49WBER","3FVBZG9CLKK1M1GPZWGJX51HFG80HB","37UEWGM5HVEH54D4HM1EEYHMQTF1R6","emotion","mismatch","uniform","","","","","","","","381979","383983.6999999285","","","","","","","","","","","","8","","stimuli/stars_8.png","256.5","","","","","stimuli/WF11_CC.jpg","",""
"explore-choice","145","382605","0.0-145.0","p223454","A1IFIK8J49WBER","3FVBZG9CLKK1M1GPZWGJX51HFG80HB","37UEWGM5HVEH54D4HM1EEYHMQTF1R6","emotion","mismatch","uniform","","","","","","","1296.2000000476837","383987.09999990463","385283.2999999523","[""stimuli/AM03_HO.jpg"",""stimuli/BM03_SUR.jpg"",""stimuli/WF11_SC.jpg"",""stimuli/HM07_CC.jpg""]","stimuli/AM03_HO.jpg","stimuli/BM03_SUR.jpg","stimuli/WF11_SC.jpg","stimuli/HM07_CC.jpg","pos3","stimuli/WF11_SC.jpg","SC","WF11","2","5","10","8","stimuli/stars_10.png","261.5","[""HO"",""SUR"",""SC"",""CC""]","[""AM03"",""BM03"",""WF11"",""HM07""]","[4,8,10,2]","[4,6,8,2]","","",""
"show-reward","146","384618","0.0-146.0","p223454","A1IFIK8J49WBER","3FVBZG9CLKK1M1GPZWGJX51HFG80HB","37UEWGM5HVEH54D4HM1EEYHMQTF1R6","emotion","mismatch","uniform","","","","","","","","385786.59999990463","387796.7999999523","","","","","","","","","","","","10","","stimuli/stars_10.png","261.5","","","","","stimuli/WF11_SC.jpg","",""
"explore-choice","147","386273","0.0-147.0","p223454","A1IFIK8J49WBER","3FVBZG9CLKK1M1GPZWGJX51HFG80HB","37UEWGM5HVEH54D4HM1EEYHMQTF1R6","emotion","mismatch","uniform","","","","","","","1143.8000000715256","387799.1999999285","388943","[""stimuli/WF11_HO.jpg"",""stimuli/AM03_CC.jpg"",""stimuli/BM03_SC.jpg"",""stimuli/HM07_SUR.jpg""]","stimuli/WF11_HO.jpg","stimuli/AM03_CC.jpg","stimuli/BM03_SC.jpg","stimuli/HM07_SUR.jpg","pos1","stimuli/WF11_HO.jpg","HO","WF11","0","5","10","8","stimuli/stars_10.png","266.5","[""HO"",""CC"",""SC"",""SUR""]","[""WF11"",""AM03"",""BM03"",""HM07""]","[10,2,8,3]","[8,4,6,2]","","",""
"show-reward","148","388286","0.0-148.0","p223454","A1IFIK8J49WBER","3FVBZG9CLKK1M1GPZWGJX51HFG80HB","37UEWGM5HVEH54D4HM1EEYHMQTF1R6","emotion","mismatch","uniform","","","","","","","","389454.39999997616","391465.5","","","","","","","","","","","","10","","stimuli/stars_10.png","266.5","","","","","stimuli/WF11_HO.jpg","",""
"explore-choice","149","389529","0.0-149.0","p223454","A1IFIK8J49WBER","3FVBZG9CLKK1M1GPZWGJX51HFG80HB","37UEWGM5HVEH54D4HM1EEYHMQTF1R6","emotion","mismatch","uniform","","","","","","","739","391469.59999990463","392208.59999990463","[""stimuli/WF11_HO.jpg"",""stimuli/BM03_SUR.jpg"",""stimuli/AM03_SC.jpg"",""stimuli/HM07_CC.jpg""]","stimuli/WF11_HO.jpg","stimuli/BM03_SUR.jpg","stimuli/AM03_SC.jpg","stimuli/HM07_CC.jpg","pos1","stimuli/WF11_HO.jpg","HO","WF11","0","3.5","7","8","stimuli/stars_7.png","270","[""HO"",""SUR"",""SC"",""CC""]","[""WF11"",""BM03"",""AM03"",""HM07""]","[7,7,2,0]","[8,6,4,2]","","",""
"show-reward","150","391535","0.0-150.0","p223454","A1IFIK8J49WBER","3FVBZG9CLKK1M1GPZWGJX51HFG80HB","37UEWGM5HVEH54D4HM1EEYHMQTF1R6","emotion","mismatch","uniform","","","","","","","","392710.89999997616","394715","","","","","","","","","","","","7","","stimuli/stars_7.png","270","","","","","stimuli/WF11_HO.jpg","",""
"explore-choice","151","393221","0.0-151.0","p223454","A1IFIK8J49WBER","3FVBZG9CLKK1M1GPZWGJX51HFG80HB","37UEWGM5HVEH54D4HM1EEYHMQTF1R6","emotion","mismatch","uniform","","","","","","","1173.7000000476837","394717.1999999285","395890.89999997616","[""stimuli/HM07_CC.jpg"",""stimuli/AM03_HO.jpg"",""stimuli/WF11_SC.jpg"",""stimuli/BM03_SUR.jpg""]","stimuli/HM07_CC.jpg","stimuli/AM03_HO.jpg","stimuli/WF11_SC.jpg","stimuli/BM03_SUR.jpg","pos3","stimuli/WF11_SC.jpg","SC","WF11","2","5","10","8","stimuli/stars_10.png","275","[""CC"",""HO"",""SC"",""SUR""]","[""HM07"",""AM03"",""WF11"",""BM03""]","[2,4,10,8]","[2,4,8,6]","","",""
"show-reward","152","395232","0.0-152.0","p223454","A1IFIK8J49WBER","3FVBZG9CLKK1M1GPZWGJX51HFG80HB","37UEWGM5HVEH54D4HM1EEYHMQTF1R6","emotion","mismatch","uniform","","","","","","","","396403.7999999523","398411.6999999285","","","","","","","","","","","","10","","stimuli/stars_10.png","275","","","","","stimuli/WF11_SC.jpg","",""
"explore-choice","153","397123","0.0-153.0","p223454","A1IFIK8J49WBER","3FVBZG9CLKK1M1GPZWGJX51HFG80HB","37UEWGM5HVEH54D4HM1EEYHMQTF1R6","emotion","mismatch","uniform","","","","","","","1377.0999999046326","398413.5","399790.59999990463","[""stimuli/BM03_SC.jpg"",""stimuli/WF11_HO.jpg"",""stimuli/AM03_SUR.jpg"",""stimuli/HM07_CC.jpg""]","stimuli/BM03_SC.jpg","stimuli/WF11_HO.jpg","stimuli/AM03_SUR.jpg","stimuli/HM07_CC.jpg","pos2","stimuli/WF11_HO.jpg","HO","WF11","1","3","6","8","stimuli/stars_6.png","278","[""SC"",""HO"",""SUR"",""CC""]","[""BM03"",""WF11"",""AM03"",""HM07""]","[7,6,6,1]","[6,8,4,2]","","",""
"show-reward","154","399139","0.0-154.0","p223454","A1IFIK8J49WBER","3FVBZG9CLKK1M1GPZWGJX51HFG80HB","37UEWGM5HVEH54D4HM1EEYHMQTF1R6","emotion","mismatch","uniform","","","","","","","","400304.09999990463","402318.2999999523","","","","","","","","","","","","6","","stimuli/stars_6.png","278","","","","","stimuli/WF11_HO.jpg","",""
"explore-choice","155","400941","0.0-155.0","p223454","A1IFIK8J49WBER","3FVBZG9CLKK1M1GPZWGJX51HFG80HB","37UEWGM5HVEH54D4HM1EEYHMQTF1R6","emotion","mismatch","uniform","","","","","","","1280.8000000715256","402321.1999999285","403602","[""stimuli/HM07_HO.jpg"",""stimuli/AM03_CC.jpg"",""stimuli/BM03_SC.jpg"",""stimuli/WF11_SUR.jpg""]","stimuli/HM07_HO.jpg","stimuli/AM03_CC.jpg","stimuli/BM03_SC.jpg","stimuli/WF11_SUR.jpg","pos4","stimuli/WF11_SUR.jpg","SUR","WF11","3","4.5","9","8","stimuli/stars_9.png","282.5","[""HO"",""CC"",""SC"",""SUR""]","[""HM07"",""AM03"",""BM03"",""WF11""]","[3,4,8,9]","[2,4,6,8]","","",""
"show-reward","156","402967","0.0-156.0","p223454","A1IFIK8J49WBER","3FVBZG9CLKK1M1GPZWGJX51HFG80HB","37UEWGM5HVEH54D4HM1EEYHMQTF1R6","emotion","mismatch","uniform","","","","","","","","404124.6999999285","406147","","","","","","","","","","","","9","","stimuli/stars_9.png","282.5","","","","","stimuli/WF11_SUR.jpg","",""
"explore-choice","157","404873","0.0-157.0","p223454","A1IFIK8J49WBER","3FVBZG9CLKK1M1GPZWGJX51HFG80HB","37UEWGM5HVEH54D4HM1EEYHMQTF1R6","emotion","mismatch","uniform","","","","","","","1390.1000000238419","406148.59999990463","407538.6999999285","[""stimuli/WF11_CC.jpg"",""stimuli/AM03_SC.jpg"",""stimuli/BM03_HO.jpg"",""stimuli/HM07_SUR.jpg""]","stimuli/WF11_CC.jpg","stimuli/AM03_SC.jpg","stimuli/BM03_HO.jpg","stimuli/HM07_SUR.jpg","pos1","stimuli/WF11_CC.jpg","CC","WF11","0","4.5","9","8","stimuli/stars_9.png","287","[""CC"",""SC"",""HO"",""SUR""]","[""WF11"",""AM03"",""BM03"",""HM07""]","[9,4,4,4]","[8,4,6,2]","","",""
"show-reward","158","406892","0.0-158.0","p223454","A1IFIK8J49WBER","3FVBZG9CLKK1M1GPZWGJX51HFG80HB","37UEWGM5HVEH54D4HM1EEYHMQTF1R6","emotion","mismatch","uniform","","","","","","","","408056","410071.7999999523","","","","","","","","","","","","9","","stimuli/stars_9.png","287","","","","","stimuli/WF11_CC.jpg","",""
"explore-choice","159","408632","0.0-159.0","p223454","A1IFIK8J49WBER","3FVBZG9CLKK1M1GPZWGJX51HFG80HB","37UEWGM5HVEH54D4HM1EEYHMQTF1R6","emotion","mismatch","uniform","","","","","","","1225.5","410073","411298.5","[""stimuli/HM07_SC.jpg"",""stimuli/BM03_HO.jpg"",""stimuli/AM03_CC.jpg"",""stimuli/WF11_SUR.jpg""]","stimuli/HM07_SC.jpg","stimuli/BM03_HO.jpg","stimuli/AM03_CC.jpg","stimuli/WF11_SUR.jpg","pos4","stimuli/WF11_SUR.jpg","SUR","WF11","3","3.5","7","8","stimuli/stars_7.png","290.5","[""SC"",""HO"",""CC"",""SUR""]","[""HM07"",""BM03"",""AM03"",""WF11""]","[0,5,3,7]","[2,6,4,8]","","",""
"show-reward","160","410641","0.0-160.0","p223454","A1IFIK8J49WBER","3FVBZG9CLKK1M1GPZWGJX51HFG80HB","37UEWGM5HVEH54D4HM1EEYHMQTF1R6","emotion","mismatch","uniform","","","","","","","","411812.89999997616","413819.5","","","","","","","","","","","","7","","stimuli/stars_7.png","290.5","","","","","stimuli/WF11_SUR.jpg","",""
"explore-choice","161","412243","0.0-161.0","p223454","A1IFIK8J49WBER","3FVBZG9CLKK1M1GPZWGJX51HFG80HB","37UEWGM5HVEH54D4HM1EEYHMQTF1R6","emotion","mismatch","uniform","","","","","","","1088.2999999523163","413822.2999999523","414910.59999990463","[""stimuli/BM03_HO.jpg"",""stimuli/HM07_CC.jpg"",""stimuli/WF11_SUR.jpg"",""stimuli/AM03_SC.jpg""]","stimuli/BM03_HO.jpg","stimuli/HM07_CC.jpg","stimuli/WF11_SUR.jpg","stimuli/AM03_SC.jpg","pos3","stimuli/WF11_SUR.jpg","SUR","WF11","2","4","8","8","stimuli/stars_8.png","294.5","[""HO"",""CC"",""SUR"",""SC""]","[""BM03"",""HM07"",""WF11"",""AM03""]","[7,4,8,2]","[6,2,8,4]","","",""
"show-reward","162","414262","0.0-162.0","p223454","A1IFIK8J49WBER","3FVBZG9CLKK1M1GPZWGJX51HFG80HB","37UEWGM5HVEH54D4HM1EEYHMQTF1R6","emotion","mismatch","uniform","","","","","","","","415424.09999990463","417441.7999999523","","","","","","","","","","","","8","","stimuli/stars_8.png","294.5","","","","","stimuli/WF11_SUR.jpg","",""
"explore-choice","163","416018","0.0-163.0","p223454","A1IFIK8J49WBER","3FVBZG9CLKK1M1GPZWGJX51HFG80HB","37UEWGM5HVEH54D4HM1EEYHMQTF1R6","emotion","mismatch","uniform","","","","","","","1250.0999999046326","417444.5","418694.59999990463","[""stimuli/HM07_CC.jpg"",""stimuli/AM03_HO.jpg"",""stimuli/BM03_SC.jpg"",""stimuli/WF11_SUR.jpg""]","stimuli/HM07_CC.jpg","stimuli/AM03_HO.jpg","stimuli/BM03_SC.jpg","stimuli/WF11_SUR.jpg","pos4","stimuli/WF11_SUR.jpg","SUR","WF11","3","3","6","8","stimuli/stars_6.png","297.5","[""CC"",""HO"",""SC"",""SUR""]","[""HM07"",""AM03"",""BM03"",""WF11""]","[2,6,7,6]","[2,4,6,8]","","",""
"show-reward","164","418036","0.0-164.0","p223454","A1IFIK8J49WBER","3FVBZG9CLKK1M1GPZWGJX51HFG80HB","37UEWGM5HVEH54D4HM1EEYHMQTF1R6","emotion","mismatch","uniform","","","","","","","","419201.89999997616","421215.89999997616","","","","","","","","","","","","6","","stimuli/stars_6.png","297.5","","","","","stimuli/WF11_SUR.jpg","",""
"explore-choice","165","419609","0.0-165.0","p223454","A1IFIK8J49WBER","3FVBZG9CLKK1M1GPZWGJX51HFG80HB","37UEWGM5HVEH54D4HM1EEYHMQTF1R6","emotion","mismatch","uniform","","","","","","","1066.0999999046326","421217.5","422283.59999990463","[""stimuli/WF11_HO.jpg"",""stimuli/HM07_SC.jpg"",""stimuli/BM03_SUR.jpg"",""stimuli/AM03_CC.jpg""]","stimuli/WF11_HO.jpg","stimuli/HM07_SC.jpg","stimuli/BM03_SUR.jpg","stimuli/AM03_CC.jpg","pos1","stimuli/WF11_HO.jpg","HO","WF11","0","4","8","8","stimuli/stars_8.png","301.5","[""HO"",""SC"",""SUR"",""CC""]","[""WF11"",""HM07"",""BM03"",""AM03""]","[8,3,8,6]","[8,2,6,4]","","",""
"show-reward","166","421621","0.0-166.0","p223454","A1IFIK8J49WBER","3FVBZG9CLKK1M1GPZWGJX51HFG80HB","37UEWGM5HVEH54D4HM1EEYHMQTF1R6","emotion","mismatch","uniform","","","","","","","","422790.6999999285","424800.59999990463","","","","","","","","","","","","8","","stimuli/stars_8.png","301.5","","","","","stimuli/WF11_HO.jpg","",""
"explore-choice","167","423239","0.0-167.0","p223454","A1IFIK8J49WBER","3FVBZG9CLKK1M1GPZWGJX51HFG80HB","37UEWGM5HVEH54D4HM1EEYHMQTF1R6","emotion","mismatch","uniform","","","","","","","1097.2999999523163","424804","425901.2999999523","[""stimuli/BM03_HO.jpg"",""stimuli/HM07_SC.jpg"",""stimuli/WF11_CC.jpg"",""stimuli/AM03_SUR.jpg""]","stimuli/BM03_HO.jpg","stimuli/HM07_SC.jpg","stimuli/WF11_CC.jpg","stimuli/AM03_SUR.jpg","pos3","stimuli/WF11_CC.jpg","CC","WF11","2","4.5","9","8","stimuli/stars_9.png","306","[""HO"",""SC"",""CC"",""SUR""]","[""BM03"",""HM07"",""WF11"",""AM03""]","[5,1,9,2]","[6,2,8,4]","","",""
"show-reward","168","425259","0.0-168.0","p223454","A1IFIK8J49WBER","3FVBZG9CLKK1M1GPZWGJX51HFG80HB","37UEWGM5HVEH54D4HM1EEYHMQTF1R6","emotion","mismatch","uniform","","","","","","","","426421.39999997616","428438.59999990463","","","","","","","","","","","","9","","stimuli/stars_9.png","306","","","","","stimuli/WF11_CC.jpg","",""
"explore-choice","169","427110","0.0-169.0","p223454","A1IFIK8J49WBER","3FVBZG9CLKK1M1GPZWGJX51HFG80HB","37UEWGM5HVEH54D4HM1EEYHMQTF1R6","emotion","mismatch","uniform","","","","","","","1338.1000000238419","428440.59999990463","429778.6999999285","[""stimuli/BM03_CC.jpg"",""stimuli/WF11_HO.jpg"",""stimuli/HM07_SC.jpg"",""stimuli/AM03_SUR.jpg""]","stimuli/BM03_CC.jpg","stimuli/WF11_HO.jpg","stimuli/HM07_SC.jpg","stimuli/AM03_SUR.jpg","pos2","stimuli/WF11_HO.jpg","HO","WF11","1","5","10","8","stimuli/stars_10.png","311","[""CC"",""HO"",""SC"",""SUR""]","[""BM03"",""WF11"",""HM07"",""AM03""]","[4,10,3,6]","[6,8,2,4]","","",""
"show-reward","170","429121","0.0-170.0","p223454","A1IFIK8J49WBER","3FVBZG9CLKK1M1GPZWGJX51HFG80HB","37UEWGM5HVEH54D4HM1EEYHMQTF1R6","emotion","mismatch","uniform","","","","","","","","430291.09999990463","432300.39999997616","","","","","","","","","","","","10","","stimuli/stars_10.png","311","","","","","stimuli/WF11_HO.jpg","",""
"explore-choice","171","430691","0.0-171.0","p223454","A1IFIK8J49WBER","3FVBZG9CLKK1M1GPZWGJX51HFG80HB","37UEWGM5HVEH54D4HM1EEYHMQTF1R6","emotion","mismatch","uniform","","","","","","","1057.1000000238419","432301.6999999285","433358.7999999523","[""stimuli/AM03_CC.jpg"",""stimuli/HM07_HO.jpg"",""stimuli/WF11_SC.jpg"",""stimuli/BM03_SUR.jpg""]","stimuli/AM03_CC.jpg","stimuli/HM07_HO.jpg","stimuli/WF11_SC.jpg","stimuli/BM03_SUR.jpg","pos3","stimuli/WF11_SC.jpg","SC","WF11","2","3.5","7","8","stimuli/stars_7.png","314.5","[""CC"",""HO"",""SC"",""SUR""]","[""AM03"",""HM07"",""WF11"",""BM03""]","[2,1,7,5]","[4,2,8,6]","","",""
"show-reward","172","432710","0.0-172.0","p223454","A1IFIK8J49WBER","3FVBZG9CLKK1M1GPZWGJX51HFG80HB","37UEWGM5HVEH54D4HM1EEYHMQTF1R6","emotion","mismatch","uniform","","","","","","","","433872.1999999285","435889.5","","","","","","","","","","","","7","","stimuli/stars_7.png","314.5","","","","","stimuli/WF11_SC.jpg","",""
"explore-choice","173","434506","0.0-173.0","p223454","A1IFIK8J49WBER","3FVBZG9CLKK1M1GPZWGJX51HFG80HB","37UEWGM5HVEH54D4HM1EEYHMQTF1R6","emotion","mismatch","uniform","","","","","","","1293.5","435890.6999999285","437184.1999999285","[""stimuli/BM03_CC.jpg"",""stimuli/HM07_HO.jpg"",""stimuli/AM03_SUR.jpg"",""stimuli/WF11_SC.jpg""]","stimuli/BM03_CC.jpg","stimuli/HM07_HO.jpg","stimuli/AM03_SUR.jpg","stimuli/WF11_SC.jpg","pos4","stimuli/WF11_SC.jpg","SC","WF11","3","4","8","8","stimuli/stars_8.png","318.5","[""CC"",""HO"",""SUR"",""SC""]","[""BM03"",""HM07"",""AM03"",""WF11""]","[4,2,4,8]","[6,2,4,8]","","",""
"show-reward","174","436518","0.0-174.0","p223454","A1IFIK8J49WBER","3FVBZG9CLKK1M1GPZWGJX51HFG80HB","37UEWGM5HVEH54D4HM1EEYHMQTF1R6","emotion","mismatch","uniform","","","","","","","","437687.39999997616","439697","","","","","","","","","","","","8","","stimuli/stars_8.png","318.5","","","","","stimuli/WF11_SC.jpg","",""
"explore-choice","175","438004","0.0-175.0","p223454","A1IFIK8J49WBER","3FVBZG9CLKK1M1GPZWGJX51HFG80HB","37UEWGM5HVEH54D4HM1EEYHMQTF1R6","emotion","mismatch","uniform","","","","","","","982.9000000953674","439701.09999990463","440684","[""stimuli/BM03_SUR.jpg"",""stimuli/HM07_CC.jpg"",""stimuli/AM03_SC.jpg"",""stimuli/WF11_HO.jpg""]","stimuli/BM03_SUR.jpg","stimuli/HM07_CC.jpg","stimuli/AM03_SC.jpg","stimuli/WF11_HO.jpg","pos4","stimuli/WF11_HO.jpg","HO","WF11","3","3.5","7","8","stimuli/stars_7.png","322","[""SUR"",""CC"",""SC"",""HO""]","[""BM03"",""HM07"",""AM03"",""WF11""]","[7,0,2,7]","[6,2,4,8]","","",""
"show-reward","176","440016","0.0-176.0","p223454","A1IFIK8J49WBER","3FVBZG9CLKK1M1GPZWGJX51HFG80HB","37UEWGM5HVEH54D4HM1EEYHMQTF1R6","emotion","mismatch","uniform","","","","","","","","441185.7999999523","443195.59999990463","","","","","","","","","","","","7","","stimuli/stars_7.png","322","","","","","stimuli/WF11_HO.jpg","",""
"explore-choice","177","441553","0.0-177.0","p223454","A1IFIK8J49WBER","3FVBZG9CLKK1M1GPZWGJX51HFG80HB","37UEWGM5HVEH54D4HM1EEYHMQTF1R6","emotion","mismatch","uniform","","","","","","","1033.2999999523163","443197.39999997616","444230.6999999285","[""stimuli/HM07_SUR.jpg"",""stimuli/AM03_HO.jpg"",""stimuli/WF11_SC.jpg"",""stimuli/BM03_CC.jpg""]","stimuli/HM07_SUR.jpg","stimuli/AM03_HO.jpg","stimuli/WF11_SC.jpg","stimuli/BM03_CC.jpg","pos3","stimuli/WF11_SC.jpg","SC","WF11","2","3","6","8","stimuli/stars_6.png","325","[""SUR"",""HO"",""SC"",""CC""]","[""HM07"",""AM03"",""WF11"",""BM03""]","[2,3,6,4]","[2,4,8,6]","","",""
"show-reward","178","443563","0.0-178.0","p223454","A1IFIK8J49WBER","3FVBZG9CLKK1M1GPZWGJX51HFG80HB","37UEWGM5HVEH54D4HM1EEYHMQTF1R6","emotion","mismatch","uniform","","","","","","","","444735.09999990463","446742.59999990463","","","","","","","","","","","","6","","stimuli/stars_6.png","325","","","","","stimuli/WF11_SC.jpg","",""
"explore-choice","179","445157","0.0-179.0","p223454","A1IFIK8J49WBER","3FVBZG9CLKK1M1GPZWGJX51HFG80HB","37UEWGM5HVEH54D4HM1EEYHMQTF1R6","emotion","mismatch","uniform","","","","","","","1082.3000000715256","446744.1999999285","447826.5","[""stimuli/BM03_SUR.jpg"",""stimuli/WF11_CC.jpg"",""stimuli/AM03_SC.jpg"",""stimuli/HM07_HO.jpg""]","stimuli/BM03_SUR.jpg","stimuli/WF11_CC.jpg","stimuli/AM03_SC.jpg","stimuli/HM07_HO.jpg","pos2","stimuli/WF11_CC.jpg","CC","WF11","1","5","10","8","stimuli/stars_10.png","330","[""SUR"",""CC"",""SC"",""HO""]","[""BM03"",""WF11"",""AM03"",""HM07""]","[5,10,2,4]","[6,8,4,2]","","",""
"show-reward","180","447165","0.0-180.0","p223454","A1IFIK8J49WBER","3FVBZG9CLKK1M1GPZWGJX51HFG80HB","37UEWGM5HVEH54D4HM1EEYHMQTF1R6","emotion","mismatch","uniform","","","","","","","","448338.2999999523","450344.7999999523","","","","","","","","","","","","10","","stimuli/stars_10.png","330","","","","","stimuli/WF11_CC.jpg","",""
"explore-choice","181","448738","0.0-181.0","p223454","A1IFIK8J49WBER","3FVBZG9CLKK1M1GPZWGJX51HFG80HB","37UEWGM5HVEH54D4HM1EEYHMQTF1R6","emotion","mismatch","uniform","","","","","","","1060.7999999523163","450345.7999999523","451406.59999990463","[""stimuli/HM07_SUR.jpg"",""stimuli/AM03_SC.jpg"",""stimuli/BM03_CC.jpg"",""stimuli/WF11_HO.jpg""]","stimuli/HM07_SUR.jpg","stimuli/AM03_SC.jpg","stimuli/BM03_CC.jpg","stimuli/WF11_HO.jpg","pos4","stimuli/WF11_HO.jpg","HO","WF11","3","4","8","8","stimuli/stars_8.png","334","[""SUR"",""SC"",""CC"",""HO""]","[""HM07"",""AM03"",""BM03"",""WF11""]","[2,2,4,8]","[2,4,6,8]","","",""
"show-reward","182","450743","0.0-182.0","p223454","A1IFIK8J49WBER","3FVBZG9CLKK1M1GPZWGJX51HFG80HB","37UEWGM5HVEH54D4HM1EEYHMQTF1R6","emotion","mismatch","uniform","","","","","","","","451919.89999997616","453923.2999999523","","","","","","","","","","","","8","","stimuli/stars_8.png","334","","","","","stimuli/WF11_HO.jpg","",""
"explore-choice","183","452138","0.0-183.0","p223454","A1IFIK8J49WBER","3FVBZG9CLKK1M1GPZWGJX51HFG80HB","37UEWGM5HVEH54D4HM1EEYHMQTF1R6","emotion","mismatch","uniform","","","","","","","882.0999999046326","453924.5","454806.59999990463","[""stimuli/AM03_SUR.jpg"",""stimuli/HM07_HO.jpg"",""stimuli/WF11_CC.jpg"",""stimuli/BM03_SC.jpg""]","stimuli/AM03_SUR.jpg","stimuli/HM07_HO.jpg","stimuli/WF11_CC.jpg","stimuli/BM03_SC.jpg","pos3","stimuli/WF11_CC.jpg","CC","WF11","2","4","8","8","stimuli/stars_8.png","338","[""SUR"",""HO"",""CC"",""SC""]","[""AM03"",""HM07"",""WF11"",""BM03""]","[6,4,8,5]","[4,2,8,6]","","",""
"show-reward","184","454145","0.0-184.0","p223454","A1IFIK8J49WBER","3FVBZG9CLKK1M1GPZWGJX51HFG80HB","37UEWGM5HVEH54D4HM1EEYHMQTF1R6","emotion","mismatch","uniform","","","","","","","","455319.5","457324.39999997616","","","","","","","","","","","","8","","stimuli/stars_8.png","338","","","","","stimuli/WF11_CC.jpg","",""
"explore-choice","185","455404","0.0-185.0","p223454","A1IFIK8J49WBER","3FVBZG9CLKK1M1GPZWGJX51HFG80HB","37UEWGM5HVEH54D4HM1EEYHMQTF1R6","emotion","mismatch","uniform","","","","","","","756.1000000238419","457325.89999997616","458082","[""stimuli/HM07_SC.jpg"",""stimuli/BM03_CC.jpg"",""stimuli/WF11_SUR.jpg"",""stimuli/AM03_HO.jpg""]","stimuli/HM07_SC.jpg","stimuli/BM03_CC.jpg","stimuli/WF11_SUR.jpg","stimuli/AM03_HO.jpg","pos3","stimuli/WF11_SUR.jpg","SUR","WF11","2","5","10","8","stimuli/stars_10.png","343","[""SC"",""CC"",""SUR"",""HO""]","[""HM07"",""BM03"",""WF11"",""AM03""]","[1,8,10,2]","[2,6,8,4]","","",""
"show-reward","186","457412","0.0-186.0","p223454","A1IFIK8J49WBER","3FVBZG9CLKK1M1GPZWGJX51HFG80HB","37UEWGM5HVEH54D4HM1EEYHMQTF1R6","emotion","mismatch","uniform","","","","","","","","458585.7999999523","460591.5","","","","","","","","","","","","10","","stimuli/stars_10.png","343","","","","","stimuli/WF11_SUR.jpg","",""
"explore-choice","187","459070","0.0-187.0","p223454","A1IFIK8J49WBER","3FVBZG9CLKK1M1GPZWGJX51HFG80HB","37UEWGM5HVEH54D4HM1EEYHMQTF1R6","emotion","mismatch","uniform","","","","","","","1144.6999999284744","460593.89999997616","461738.59999990463","[""stimuli/WF11_SUR.jpg"",""stimuli/AM03_SC.jpg"",""stimuli/BM03_CC.jpg"",""stimuli/HM07_HO.jpg""]","stimuli/WF11_SUR.jpg","stimuli/AM03_SC.jpg","stimuli/BM03_CC.jpg","stimuli/HM07_HO.jpg","pos1","stimuli/WF11_SUR.jpg","SUR","WF11","0","5","10","8","stimuli/stars_10.png","348","[""SUR"",""SC"",""CC"",""HO""]","[""WF11"",""AM03"",""BM03"",""HM07""]","[10,2,8,1]","[8,4,6,2]","","",""
"show-reward","188","461079","0.0-188.0","p223454","A1IFIK8J49WBER","3FVBZG9CLKK1M1GPZWGJX51HFG80HB","37UEWGM5HVEH54D4HM1EEYHMQTF1R6","emotion","mismatch","uniform","","","","","","","","462252.59999990463","464258.89999997616","","","","","","","","","","","","10","","stimuli/stars_10.png","348","","","","","stimuli/WF11_SUR.jpg","",""
"explore-choice","189","462659","0.0-189.0","p223454","A1IFIK8J49WBER","3FVBZG9CLKK1M1GPZWGJX51HFG80HB","37UEWGM5HVEH54D4HM1EEYHMQTF1R6","emotion","mismatch","uniform","","","","","","","1071.7999999523163","464261.5","465333.2999999523","[""stimuli/AM03_SUR.jpg"",""stimuli/WF11_SC.jpg"",""stimuli/HM07_CC.jpg"",""stimuli/BM03_HO.jpg""]","stimuli/AM03_SUR.jpg","stimuli/WF11_SC.jpg","stimuli/HM07_CC.jpg","stimuli/BM03_HO.jpg","pos2","stimuli/WF11_SC.jpg","SC","WF11","1","3.5","7","8","stimuli/stars_7.png","351.5","[""SUR"",""SC"",""CC"",""HO""]","[""AM03"",""WF11"",""HM07"",""BM03""]","[2,7,2,7]","[4,8,2,6]","","",""
"show-reward","190","464670","0.0-190.0","p223454","A1IFIK8J49WBER","3FVBZG9CLKK1M1GPZWGJX51HFG80HB","37UEWGM5HVEH54D4HM1EEYHMQTF1R6","emotion","mismatch","uniform","","","","","","","","465840.5","467849","","","","","","","","","","","","7","","stimuli/stars_7.png","351.5","","","","","stimuli/WF11_SC.jpg","",""
"explore-choice","191","466344","0.0-191.0","p223454","A1IFIK8J49WBER","3FVBZG9CLKK1M1GPZWGJX51HFG80HB","37UEWGM5HVEH54D4HM1EEYHMQTF1R6","emotion","mismatch","uniform","","","","","","","1170.2999999523163","467852.39999997616","469022.6999999285","[""stimuli/BM03_HO.jpg"",""stimuli/HM07_SUR.jpg"",""stimuli/AM03_CC.jpg"",""stimuli/WF11_SC.jpg""]","stimuli/BM03_HO.jpg","stimuli/HM07_SUR.jpg","stimuli/AM03_CC.jpg","stimuli/WF11_SC.jpg","pos4","stimuli/WF11_SC.jpg","SC","WF11","3","3.5","7","8","stimuli/stars_7.png","355","[""HO"",""SUR"",""CC"",""SC""]","[""BM03"",""HM07"",""AM03"",""WF11""]","[5,1,2,7]","[6,2,4,8]","","",""
"show-reward","192","468357","0.0-192.0","p223454","A1IFIK8J49WBER","3FVBZG9CLKK1M1GPZWGJX51HFG80HB","37UEWGM5HVEH54D4HM1EEYHMQTF1R6","emotion","mismatch","uniform","","","","","","","","469525.09999990463","471536.89999997616","","","","","","","","","","","","7","","stimuli/stars_7.png","355","","","","","stimuli/WF11_SC.jpg","",""
"explore-choice","193","469955","0.0-193.0","p223454","A1IFIK8J49WBER","3FVBZG9CLKK1M1GPZWGJX51HFG80HB","37UEWGM5HVEH54D4HM1EEYHMQTF1R6","emotion","mismatch","uniform","","","","","","","1095.8999999761581","471538.7999999523","472634.6999999285","[""stimuli/BM03_SC.jpg"",""stimuli/WF11_HO.jpg"",""stimuli/HM07_SUR.jpg"",""stimuli/AM03_CC.jpg""]","stimuli/BM03_SC.jpg","stimuli/WF11_HO.jpg","stimuli/HM07_SUR.jpg","stimuli/AM03_CC.jpg","pos2","stimuli/WF11_HO.jpg","HO","WF11","1","5","10","8","stimuli/stars_10.png","360","[""SC"",""HO"",""SUR"",""CC""]","[""BM03"",""WF11"",""HM07"",""AM03""]","[8,10,3,2]","[6,8,2,4]","","",""
"show-reward","194","471970","0.0-194.0","p223454","A1IFIK8J49WBER","3FVBZG9CLKK1M1GPZWGJX51HFG80HB","37UEWGM5HVEH54D4HM1EEYHMQTF1R6","emotion","mismatch","uniform","","","","","","","","473136.5","475149.1999999285","","","","","","","","","","","","10","","stimuli/stars_10.png","360","","","","","stimuli/WF11_HO.jpg","",""
"explore-choice","195","473463","0.0-195.0","p223454","A1IFIK8J49WBER","3FVBZG9CLKK1M1GPZWGJX51HFG80HB","37UEWGM5HVEH54D4HM1EEYHMQTF1R6","emotion","mismatch","uniform","","","","","","","983.7000000476837","475151.6999999285","476135.39999997616","[""stimuli/WF11_CC.jpg"",""stimuli/BM03_SC.jpg"",""stimuli/AM03_HO.jpg"",""stimuli/HM07_SUR.jpg""]","stimuli/WF11_CC.jpg","stimuli/BM03_SC.jpg","stimuli/AM03_HO.jpg","stimuli/HM07_SUR.jpg","pos1","stimuli/WF11_CC.jpg","CC","WF11","0","3","6","8","stimuli/stars_6.png","363","[""CC"",""SC"",""HO"",""SUR""]","[""WF11"",""BM03"",""AM03"",""HM07""]","[6,6,3,3]","[8,6,4,2]","","",""
"show-reward","196","475484","0.0-196.0","p223454","A1IFIK8J49WBER","3FVBZG9CLKK1M1GPZWGJX51HFG80HB","37UEWGM5HVEH54D4HM1EEYHMQTF1R6","emotion","mismatch","uniform","","","","","","","","476644.59999990463","478663.59999990463","","","","","","","","","","","","6","","stimuli/stars_6.png","363","","","","","stimuli/WF11_CC.jpg","",""
"explore-choice","197","477005","0.0-197.0","p223454","A1IFIK8J49WBER","3FVBZG9CLKK1M1GPZWGJX51HFG80HB","37UEWGM5HVEH54D4HM1EEYHMQTF1R6","emotion","mismatch","uniform","","","","","","","1008.3000000715256","478666.1999999285","479674.5","[""stimuli/BM03_SUR.jpg"",""stimuli/HM07_SC.jpg"",""stimuli/WF11_CC.jpg"",""stimuli/AM03_HO.jpg""]","stimuli/BM03_SUR.jpg","stimuli/HM07_SC.jpg","stimuli/WF11_CC.jpg","stimuli/AM03_HO.jpg","pos3","stimuli/WF11_CC.jpg","CC","WF11","2","3","6","8","stimuli/stars_6.png","366","[""SUR"",""SC"",""CC"",""HO""]","[""BM03"",""HM07"",""WF11"",""AM03""]","[6,0,6,6]","[6,2,8,4]","","",""
"show-reward","198","479027","0.0-198.0","p223454","A1IFIK8J49WBER","3FVBZG9CLKK1M1GPZWGJX51HFG80HB","37UEWGM5HVEH54D4HM1EEYHMQTF1R6","emotion","mismatch","uniform","","","","","","","","480187.5","482206.6999999285","","","","","","","","","","","","6","","stimuli/stars_6.png","366","","","","","stimuli/WF11_CC.jpg","",""
"instructions","199","484001","0.0-199.0","p223454","A1IFIK8J49WBER","3FVBZG9CLKK1M1GPZWGJX51HFG80HB","37UEWGM5HVEH54D4HM1EEYHMQTF1R6","emotion","mismatch","uniform","","","","","","[{""page_index"":0,""viewing_time"":4971.799999952316}]","4972.299999952316","","","","","","","","","","","","","","","","","","","","","","","",""
"survey-text","200","488012","0.0-200.0-0.0","p223454","A1IFIK8J49WBER","3FVBZG9CLKK1M1GPZWGJX51HFG80HB","37UEWGM5HVEH54D4HM1EEYHMQTF1R6","emotion","mismatch","uniform","","","","","","","4002.2999999523163","","","","","","","","","","","","","","","","","","","","","","","{""age"":""60""}",""
"survey-text","201","492864","0.0-200.0-1.0","p223454","A1IFIK8J49WBER","3FVBZG9CLKK1M1GPZWGJX51HFG80HB","37UEWGM5HVEH54D4HM1EEYHMQTF1R6","emotion","mismatch","uniform","","","","","","","4848.5","","","","","","","","","","","","","","","","","","","","","","","{""gender"":""female""}",""
"survey-text","202","499912","0.0-200.0-2.0","p223454","A1IFIK8J49WBER","3FVBZG9CLKK1M1GPZWGJX51HFG80HB","37UEWGM5HVEH54D4HM1EEYHMQTF1R6","emotion","mismatch","uniform","","","","","","","7038.100000023842","","","","","","","","","","","","","","","","","","","","","","","{""country"":""United States""}",""
"survey-text","203","508626","0.0-200.0-3.0","p223454","A1IFIK8J49WBER","3FVBZG9CLKK1M1GPZWGJX51HFG80HB","37UEWGM5HVEH54D4HM1EEYHMQTF1R6","emotion","mismatch","uniform","","","","","","","8703.799999952316","","","","","","","","","","","","","","","","","","","","","","","{""language"":""English"",""other_languages"":""none""}",""
"survey-multi-select","204","511900","0.0-201.0","p223454","A1IFIK8J49WBER","3FVBZG9CLKK1M1GPZWGJX51HFG80HB","37UEWGM5HVEH54D4HM1EEYHMQTF1R6","emotion","mismatch","uniform","","","","","","","3258.8000000715256","","","","","","","","","","","","","","","","","","","","","","","{""race"":[""White""]}","[0]"
"survey-multi-choice","205","514410","0.0-202.0","p223454","A1IFIK8J49WBER","3FVBZG9CLKK1M1GPZWGJX51HFG80HB","37UEWGM5HVEH54D4HM1EEYHMQTF1R6","emotion","mismatch","uniform","","","","","","","2505","","","","","","","","","","","","","","","","","","","","","","","{""education"":""High school""}","[0]"
"survey-text","206","594980","0.0-203.0","p223454","A1IFIK8J49WBER","3FVBZG9CLKK1M1GPZWGJX51HFG80HB","37UEWGM5HVEH54D4HM1EEYHMQTF1R6","emotion","mismatch","uniform","","","","","","","80516.70000004768","","","","","","","","","","","","","","","","","","","","","","","{""patterns"":""In the first part I thought it was the expression of the person that gave me the most stars but in the second part I thought it was the race or sex of the person"",""strategy"":""I tried to determine if it was based on expression, race or sex of the person shown"",""comments"":""""}",""
