"trial_type","trial_index","time_elapsed","internal_node_id","subject","workerId","hitId","assignmentId","structure_condition","match_condition","noise_type","success","timeout","failed_images","failed_audio","failed_video","view_history","rt","start_time","end_time","stimuli","image1","image2","image3","image4","choiceLocation","choiceImage","choiceEmotion","choiceModel","choice_index","reward_score","reward","reward_score_unadjusted","reward_image","score_after_trial","emotions","models","rewards","rewards_unadjusted","stimulus","response","question_order"
"pavlovia","0","17","0.0-0.0","p494893","ASVRLMDNQBUD9","336OE47KI3QZCSCUXSQ8J11UOZXVWV","3IXEICO794PPS5RTRHIQ999LMOHT6W","emotion","match","uniform","","","","","","","","","","","","","","","","","","","","","","","","","","","","","","",""
"preload","1","8858","0.0-1.0","p494893","ASVRLMDNQBUD9","336OE47KI3QZCSCUXSQ8J11UOZXVWV","3IXEICO794PPS5RTRHIQ999LMOHT6W","emotion","match","uniform","true","false","[]","[]","[]","","","","","","","","","","","","","","","","","","","","","","","","","",""
"fullscreen","2","21713","0.0-2.0","p494893","ASVRLMDNQBUD9","336OE47KI3QZCSCUXSQ8J11UOZXVWV","3IXEICO794PPS5RTRHIQ999LMOHT6W","emotion","match","uniform","true","","","","","","","","","","","","","","","","","","","","","","","","","","","","","",""
"instructions","3","36926","0.0-3.0","p494893","ASVRLMDNQBUD9","336OE47KI3QZCSCUXSQ8J11UOZXVWV","3IXEICO794PPS5RTRHIQ999LMOHT6W","emotion","match","uniform","","","","","","[{""page_index"":0,""viewing_time"":15209.900000095367}]","15211","","","","","","","","","","","","","","","","","","","","","","","",""
"explore-choice","4","39893","0.0-4.0","p494893","ASVRLMDNQBUD9","336OE47KI3QZCSCUXSQ8J11UOZXVWV","3IXEICO794PPS5RTRHIQ999LMOHT6W","emotion","match","uniform","","","","","","","2459.4000000953674","39335.700000047684","41795.10000014305","[""stimuli/sheep.jpg"",""stimuli/hammer.jpg"",""stimuli/basketball.jpg"",""stimuli/horse.jpg""]","stimuli/sheep.jpg","stimuli/hammer.jpg","stimuli/basketball.jpg","stimuli/horse.jpg","pos4","stimuli/horse.jpg","","","3","64","64","64","stimuli/stars_8.png","65","","","","","","",""
"explore-choice","5","42509","0.0-5.0","p494893","ASVRLMDNQBUD9","336OE47KI3QZCSCUXSQ8J11UOZXVWV","3IXEICO794PPS5RTRHIQ999LMOHT6W","emotion","match","uniform","","","","","","","2113.0999999046326","42304.10000014305","44417.200000047684","[""stimuli/hammer.jpg"",""stimuli/basketball.jpg"",""stimuli/horse.jpg"",""stimuli/sheep.jpg""]","stimuli/hammer.jpg","stimuli/basketball.jpg","stimuli/horse.jpg","stimuli/sheep.jpg","pos1","stimuli/hammer.jpg","","","0","8","8","8","stimuli/stars_2.png","9","","","","","","",""
"instructions","6","68354","0.0-6.0","p494893","ASVRLMDNQBUD9","336OE47KI3QZCSCUXSQ8J11UOZXVWV","3IXEICO794PPS5RTRHIQ999LMOHT6W","emotion","match","uniform","","","","","","[{""page_index"":0,""viewing_time"":25843}]","25843.39999985695","","","","","","","","","","","","","","","","","","","","","","","",""
"explore-choice","7","72641","0.0-7.0","p494893","ASVRLMDNQBUD9","336OE47KI3QZCSCUXSQ8J11UOZXVWV","3IXEICO794PPS5RTRHIQ999LMOHT6W","emotion","match","uniform","","","","","","","3784.2000000476837","70764.40000009537","74548.60000014305","[""stimuli/AM06_SC.jpg"",""stimuli/BM03_SUR.jpg"",""stimuli/HM07_FO.jpg"",""stimuli/BF08_CC.jpg""]","stimuli/AM06_SC.jpg","stimuli/BM03_SUR.jpg","stimuli/HM07_FO.jpg","stimuli/BF08_CC.jpg","pos1","stimuli/AM06_SC.jpg","SC","AM06","0","0","0","2","stimuli/stars_0.png","1","[""SC"",""SUR"",""FO"",""CC""]","[""AM06"",""BM03"",""HM07"",""BF08""]","[0,9,7,5]","[2,8,6,4]","","",""
"show-reward","8","74647","0.0-8.0","p494893","ASVRLMDNQBUD9","336OE47KI3QZCSCUXSQ8J11UOZXVWV","3IXEICO794PPS5RTRHIQ999LMOHT6W","emotion","match","uniform","","","","","","","","75051.80000019073","77055.40000009537","","","","","","","","","","","","0","","stimuli/stars_0.png","1","","","","","stimuli/AM06_SC.jpg","",""
"explore-choice","9","77877","0.0-9.0","p494893","ASVRLMDNQBUD9","336OE47KI3QZCSCUXSQ8J11UOZXVWV","3IXEICO794PPS5RTRHIQ999LMOHT6W","emotion","match","uniform","","","","","","","2725.2999999523163","77057.10000014305","79782.40000009537","[""stimuli/AM06_CC.jpg"",""stimuli/BM03_SC.jpg"",""stimuli/BF08_SUR.jpg"",""stimuli/HM07_FO.jpg""]","stimuli/AM06_CC.jpg","stimuli/BM03_SC.jpg","stimuli/BF08_SUR.jpg","stimuli/HM07_FO.jpg","pos4","stimuli/HM07_FO.jpg","FO","HM07","3","3","6","6","stimuli/stars_6.png","4","[""CC"",""SC"",""SUR"",""FO""]","[""AM06"",""BM03"",""BF08"",""HM07""]","[4,0,8,6]","[4,2,8,6]","","",""
"show-reward","10","79887","0.0-10.0","p494893","ASVRLMDNQBUD9","336OE47KI3QZCSCUXSQ8J11UOZXVWV","3IXEICO794PPS5RTRHIQ999LMOHT6W","emotion","match","uniform","","","","","","","","80286.60000014305","82295.5","","","","","","","","","","","","6","","stimuli/stars_6.png","4","","","","","stimuli/HM07_FO.jpg","",""
"explore-choice","11","83497","0.0-11.0","p494893","ASVRLMDNQBUD9","336OE47KI3QZCSCUXSQ8J11UOZXVWV","3IXEICO794PPS5RTRHIQ999LMOHT6W","emotion","match","uniform","","","","","","","3101.300000190735","82297","85398.30000019073","[""stimuli/AM06_SUR.jpg"",""stimuli/HM07_CC.jpg"",""stimuli/BF08_FO.jpg"",""stimuli/BM03_SC.jpg""]","stimuli/AM06_SUR.jpg","stimuli/HM07_CC.jpg","stimuli/BF08_FO.jpg","stimuli/BM03_SC.jpg","pos3","stimuli/BF08_FO.jpg","FO","BF08","2","3","6","6","stimuli/stars_6.png","7","[""SUR"",""CC"",""FO"",""SC""]","[""AM06"",""HM07"",""BF08"",""BM03""]","[8,4,6,4]","[8,4,6,2]","","",""
"show-reward","12","85509","0.0-12.0","p494893","ASVRLMDNQBUD9","336OE47KI3QZCSCUXSQ8J11UOZXVWV","3IXEICO794PPS5RTRHIQ999LMOHT6W","emotion","match","uniform","","","","","","","","85906.20000004768","87917.20000004768","","","","","","","","","","","","6","","stimuli/stars_6.png","7","","","","","stimuli/BF08_FO.jpg","",""
"explore-choice","13","88174","0.0-13.0","p494893","ASVRLMDNQBUD9","336OE47KI3QZCSCUXSQ8J11UOZXVWV","3IXEICO794PPS5RTRHIQ999LMOHT6W","emotion","match","uniform","","","","","","","2159.5","87918.40000009537","90077.90000009537","[""stimuli/BM03_SC.jpg"",""stimuli/BF08_CC.jpg"",""stimuli/HM07_SUR.jpg"",""stimuli/AM06_FO.jpg""]","stimuli/BM03_SC.jpg","stimuli/BF08_CC.jpg","stimuli/HM07_SUR.jpg","stimuli/AM06_FO.jpg","pos3","stimuli/HM07_SUR.jpg","SUR","HM07","2","4.5","9","8","stimuli/stars_9.png","11.5","[""SC"",""CC"",""SUR"",""FO""]","[""BM03"",""BF08"",""HM07"",""AM06""]","[2,5,9,7]","[2,4,8,6]","","",""
"show-reward","14","90179","0.0-14.0","p494893","ASVRLMDNQBUD9","336OE47KI3QZCSCUXSQ8J11UOZXVWV","3IXEICO794PPS5RTRHIQ999LMOHT6W","emotion","match","uniform","","","","","","","","90583.5","92586.80000019073","","","","","","","","","","","","9","","stimuli/stars_9.png","11.5","","","","","stimuli/HM07_SUR.jpg","",""
"explore-choice","15","92642","0.0-15.0","p494893","ASVRLMDNQBUD9","336OE47KI3QZCSCUXSQ8J11UOZXVWV","3IXEICO794PPS5RTRHIQ999LMOHT6W","emotion","match","uniform","","","","","","","1959","92588.30000019073","94547.30000019073","[""stimuli/HM07_SC.jpg"",""stimuli/BF08_CC.jpg"",""stimuli/AM06_SUR.jpg"",""stimuli/BM03_FO.jpg""]","stimuli/HM07_SC.jpg","stimuli/BF08_CC.jpg","stimuli/AM06_SUR.jpg","stimuli/BM03_FO.jpg","pos4","stimuli/BM03_FO.jpg","FO","BM03","3","2","4","6","stimuli/stars_4.png","13.5","[""SC"",""CC"",""SUR"",""FO""]","[""HM07"",""BF08"",""AM06"",""BM03""]","[3,2,8,4]","[2,4,8,6]","","",""
"show-reward","16","94653","0.0-16.0","p494893","ASVRLMDNQBUD9","336OE47KI3QZCSCUXSQ8J11UOZXVWV","3IXEICO794PPS5RTRHIQ999LMOHT6W","emotion","match","uniform","","","","","","","","95051.90000009537","97061.60000014305","","","","","","","","","","","","4","","stimuli/stars_4.png","13.5","","","","","stimuli/BM03_FO.jpg","",""
"explore-choice","17","96948","0.0-17.0","p494893","ASVRLMDNQBUD9","336OE47KI3QZCSCUXSQ8J11UOZXVWV","3IXEICO794PPS5RTRHIQ999LMOHT6W","emotion","match","uniform","","","","","","","1789","97062.80000019073","98851.80000019073","[""stimuli/BF08_CC.jpg"",""stimuli/AM06_SC.jpg"",""stimuli/BM03_FO.jpg"",""stimuli/HM07_SUR.jpg""]","stimuli/BF08_CC.jpg","stimuli/AM06_SC.jpg","stimuli/BM03_FO.jpg","stimuli/HM07_SUR.jpg","pos4","stimuli/HM07_SUR.jpg","SUR","HM07","3","4","8","8","stimuli/stars_8.png","17.5","[""CC"",""SC"",""FO"",""SUR""]","[""BF08"",""AM06"",""BM03"",""HM07""]","[3,3,8,8]","[4,2,6,8]","","",""
"show-reward","18","98955","0.0-18.0","p494893","ASVRLMDNQBUD9","336OE47KI3QZCSCUXSQ8J11UOZXVWV","3IXEICO794PPS5RTRHIQ999LMOHT6W","emotion","match","uniform","","","","","","","","99357","101362.40000009537","","","","","","","","","","","","8","","stimuli/stars_8.png","17.5","","","","","stimuli/HM07_SUR.jpg","",""
"explore-choice","19","100887","0.0-19.0","p494893","ASVRLMDNQBUD9","336OE47KI3QZCSCUXSQ8J11UOZXVWV","3IXEICO794PPS5RTRHIQ999LMOHT6W","emotion","match","uniform","","","","","","","1422.5","101364","102786.5","[""stimuli/BM03_SC.jpg"",""stimuli/AM06_SUR.jpg"",""stimuli/BF08_CC.jpg"",""stimuli/HM07_FO.jpg""]","stimuli/BM03_SC.jpg","stimuli/AM06_SUR.jpg","stimuli/BF08_CC.jpg","stimuli/HM07_FO.jpg","pos4","stimuli/HM07_FO.jpg","FO","HM07","3","4","8","6","stimuli/stars_8.png","21.5","[""SC"",""SUR"",""CC"",""FO""]","[""BM03"",""AM06"",""BF08"",""HM07""]","[1,8,6,8]","[2,8,4,6]","","",""
"show-reward","20","102901","0.0-20.0","p494893","ASVRLMDNQBUD9","336OE47KI3QZCSCUXSQ8J11UOZXVWV","3IXEICO794PPS5RTRHIQ999LMOHT6W","emotion","match","uniform","","","","","","","","103296.70000004768","105308.90000009537","","","","","","","","","","","","8","","stimuli/stars_8.png","21.5","","","","","stimuli/HM07_FO.jpg","",""
"explore-choice","21","104649","0.0-21.0","p494893","ASVRLMDNQBUD9","336OE47KI3QZCSCUXSQ8J11UOZXVWV","3IXEICO794PPS5RTRHIQ999LMOHT6W","emotion","match","uniform","","","","","","","1231.1000001430511","105310.20000004768","106541.30000019073","[""stimuli/BF08_CC.jpg"",""stimuli/AM06_FO.jpg"",""stimuli/HM07_SC.jpg"",""stimuli/BM03_SUR.jpg""]","stimuli/BF08_CC.jpg","stimuli/AM06_FO.jpg","stimuli/HM07_SC.jpg","stimuli/BM03_SUR.jpg","pos4","stimuli/BM03_SUR.jpg","SUR","BM03","3","3.5","7","8","stimuli/stars_7.png","25","[""CC"",""FO"",""SC"",""SUR""]","[""BF08"",""AM06"",""HM07"",""BM03""]","[5,8,0,7]","[4,6,2,8]","","",""
"show-reward","22","106660","0.0-22.0","p494893","ASVRLMDNQBUD9","336OE47KI3QZCSCUXSQ8J11UOZXVWV","3IXEICO794PPS5RTRHIQ999LMOHT6W","emotion","match","uniform","","","","","","","","107059","109067.60000014305","","","","","","","","","","","","7","","stimuli/stars_7.png","25","","","","","stimuli/BM03_SUR.jpg","",""
"explore-choice","23","108492","0.0-23.0","p494893","ASVRLMDNQBUD9","336OE47KI3QZCSCUXSQ8J11UOZXVWV","3IXEICO794PPS5RTRHIQ999LMOHT6W","emotion","match","uniform","","","","","","","1323.7000000476837","109070.10000014305","110393.80000019073","[""stimuli/AM06_FO.jpg"",""stimuli/HM07_CC.jpg"",""stimuli/BF08_SC.jpg"",""stimuli/BM03_SUR.jpg""]","stimuli/AM06_FO.jpg","stimuli/HM07_CC.jpg","stimuli/BF08_SC.jpg","stimuli/BM03_SUR.jpg","pos4","stimuli/BM03_SUR.jpg","SUR","BM03","3","3","6","8","stimuli/stars_6.png","28","[""FO"",""CC"",""SC"",""SUR""]","[""AM06"",""HM07"",""BF08"",""BM03""]","[8,6,0,6]","[6,4,2,8]","","",""
"show-reward","24","110511","0.0-24.0","p494893","ASVRLMDNQBUD9","336OE47KI3QZCSCUXSQ8J11UOZXVWV","3IXEICO794PPS5RTRHIQ999LMOHT6W","emotion","match","uniform","","","","","","","","110902","112919.40000009537","","","","","","","","","","","","6","","stimuli/stars_6.png","28","","","","","stimuli/BM03_SUR.jpg","",""
"explore-choice","25","113231","0.0-25.0","p494893","ASVRLMDNQBUD9","336OE47KI3QZCSCUXSQ8J11UOZXVWV","3IXEICO794PPS5RTRHIQ999LMOHT6W","emotion","match","uniform","","","","","","","2215.4000000953674","112921","115136.40000009537","[""stimuli/HM07_SUR.jpg"",""stimuli/BM03_CC.jpg"",""stimuli/AM06_SC.jpg"",""stimuli/BF08_FO.jpg""]","stimuli/HM07_SUR.jpg","stimuli/BM03_CC.jpg","stimuli/AM06_SC.jpg","stimuli/BF08_FO.jpg","pos1","stimuli/HM07_SUR.jpg","SUR","HM07","0","5","10","8","stimuli/stars_10.png","33","[""SUR"",""CC"",""SC"",""FO""]","[""HM07"",""BM03"",""AM06"",""BF08""]","[10,3,3,6]","[8,4,2,6]","","",""
"show-reward","26","115243","0.0-26.0","p494893","ASVRLMDNQBUD9","336OE47KI3QZCSCUXSQ8J11UOZXVWV","3IXEICO794PPS5RTRHIQ999LMOHT6W","emotion","match","uniform","","","","","","","","115641","117651.10000014305","","","","","","","","","","","","10","","stimuli/stars_10.png","33","","","","","stimuli/HM07_SUR.jpg","",""
"explore-choice","27","119681","0.0-27.0","p494893","ASVRLMDNQBUD9","336OE47KI3QZCSCUXSQ8J11UOZXVWV","3IXEICO794PPS5RTRHIQ999LMOHT6W","emotion","match","uniform","","","","","","","3932.600000143051","117653.5","121586.10000014305","[""stimuli/AM06_FO.jpg"",""stimuli/BM03_SC.jpg"",""stimuli/HM07_CC.jpg"",""stimuli/BF08_SUR.jpg""]","stimuli/AM06_FO.jpg","stimuli/BM03_SC.jpg","stimuli/HM07_CC.jpg","stimuli/BF08_SUR.jpg","pos4","stimuli/BF08_SUR.jpg","SUR","BF08","3","3.5","7","8","stimuli/stars_7.png","36.5","[""FO"",""SC"",""CC"",""SUR""]","[""AM06"",""BM03"",""HM07"",""BF08""]","[8,2,6,7]","[6,2,4,8]","","",""
"show-reward","28","121698","0.0-28.0","p494893","ASVRLMDNQBUD9","336OE47KI3QZCSCUXSQ8J11UOZXVWV","3IXEICO794PPS5RTRHIQ999LMOHT6W","emotion","match","uniform","","","","","","","","122091.5","124106.5","","","","","","","","","","","","7","","stimuli/stars_7.png","36.5","","","","","stimuli/BF08_SUR.jpg","",""
"explore-choice","29","124370","0.0-29.0","p494893","ASVRLMDNQBUD9","336OE47KI3QZCSCUXSQ8J11UOZXVWV","3IXEICO794PPS5RTRHIQ999LMOHT6W","emotion","match","uniform","","","","","","","2169.2000000476837","124108","126277.20000004768","[""stimuli/BF08_SUR.jpg"",""stimuli/HM07_SC.jpg"",""stimuli/AM06_FO.jpg"",""stimuli/BM03_CC.jpg""]","stimuli/BF08_SUR.jpg","stimuli/HM07_SC.jpg","stimuli/AM06_FO.jpg","stimuli/BM03_CC.jpg","pos1","stimuli/BF08_SUR.jpg","SUR","BF08","0","3.5","7","8","stimuli/stars_7.png","40","[""SUR"",""SC"",""FO"",""CC""]","[""BF08"",""HM07"",""AM06"",""BM03""]","[7,4,5,5]","[8,2,6,4]","","",""
"show-reward","30","126378","0.0-30.0","p494893","ASVRLMDNQBUD9","336OE47KI3QZCSCUXSQ8J11UOZXVWV","3IXEICO794PPS5RTRHIQ999LMOHT6W","emotion","match","uniform","","","","","","","","126780.5","128786.5","","","","","","","","","","","","7","","stimuli/stars_7.png","40","","","","","stimuli/BF08_SUR.jpg","",""
"explore-choice","31","128982","0.0-31.0","p494893","ASVRLMDNQBUD9","336OE47KI3QZCSCUXSQ8J11UOZXVWV","3IXEICO794PPS5RTRHIQ999LMOHT6W","emotion","match","uniform","","","","","","","2099.399999856949","128788.30000019073","130887.70000004768","[""stimuli/BM03_CC.jpg"",""stimuli/HM07_FO.jpg"",""stimuli/AM06_SUR.jpg"",""stimuli/BF08_SC.jpg""]","stimuli/BM03_CC.jpg","stimuli/HM07_FO.jpg","stimuli/AM06_SUR.jpg","stimuli/BF08_SC.jpg","pos2","stimuli/HM07_FO.jpg","FO","HM07","1","4","8","6","stimuli/stars_8.png","44","[""CC"",""FO"",""SUR"",""SC""]","[""BM03"",""HM07"",""AM06"",""BF08""]","[3,8,8,2]","[4,6,8,2]","","",""
"show-reward","32","130990","0.0-32.0","p494893","ASVRLMDNQBUD9","336OE47KI3QZCSCUXSQ8J11UOZXVWV","3IXEICO794PPS5RTRHIQ999LMOHT6W","emotion","match","uniform","","","","","","","","131391.60000014305","133399","","","","","","","","","","","","8","","stimuli/stars_8.png","44","","","","","stimuli/HM07_FO.jpg","",""
"explore-choice","33","133451","0.0-33.0","p494893","ASVRLMDNQBUD9","336OE47KI3QZCSCUXSQ8J11UOZXVWV","3IXEICO794PPS5RTRHIQ999LMOHT6W","emotion","match","uniform","","","","","","","1942.7999999523163","133400.10000014305","135342.90000009537","[""stimuli/HM07_CC.jpg"",""stimuli/BF08_FO.jpg"",""stimuli/BM03_SUR.jpg"",""stimuli/AM06_SC.jpg""]","stimuli/HM07_CC.jpg","stimuli/BF08_FO.jpg","stimuli/BM03_SUR.jpg","stimuli/AM06_SC.jpg","pos3","stimuli/BM03_SUR.jpg","SUR","BM03","2","4","8","8","stimuli/stars_8.png","48","[""CC"",""FO"",""SUR"",""SC""]","[""HM07"",""BF08"",""BM03"",""AM06""]","[2,4,8,3]","[4,6,8,2]","","",""
"show-reward","34","135454","0.0-34.0","p494893","ASVRLMDNQBUD9","336OE47KI3QZCSCUXSQ8J11UOZXVWV","3IXEICO794PPS5RTRHIQ999LMOHT6W","emotion","match","uniform","","","","","","","","135860.40000009537","137862.90000009537","","","","","","","","","","","","8","","stimuli/stars_8.png","48","","","","","stimuli/BM03_SUR.jpg","",""
"explore-choice","35","138016","0.0-35.0","p494893","ASVRLMDNQBUD9","336OE47KI3QZCSCUXSQ8J11UOZXVWV","3IXEICO794PPS5RTRHIQ999LMOHT6W","emotion","match","uniform","","","","","","","2054.7999999523163","137863.80000019073","139918.60000014305","[""stimuli/HM07_FO.jpg"",""stimuli/AM06_SC.jpg"",""stimuli/BM03_CC.jpg"",""stimuli/BF08_SUR.jpg""]","stimuli/HM07_FO.jpg","stimuli/AM06_SC.jpg","stimuli/BM03_CC.jpg","stimuli/BF08_SUR.jpg","pos1","stimuli/HM07_FO.jpg","FO","HM07","0","3","6","6","stimuli/stars_6.png","51","[""FO"",""SC"",""CC"",""SUR""]","[""HM07"",""AM06"",""BM03"",""BF08""]","[6,2,2,8]","[6,2,4,8]","","",""
"show-reward","36","140026","0.0-36.0","p494893","ASVRLMDNQBUD9","336OE47KI3QZCSCUXSQ8J11UOZXVWV","3IXEICO794PPS5RTRHIQ999LMOHT6W","emotion","match","uniform","","","","","","","","140426.20000004768","142434.70000004768","","","","","","","","","","","","6","","stimuli/stars_6.png","51","","","","","stimuli/HM07_FO.jpg","",""
"explore-choice","37","143253","0.0-37.0","p494893","ASVRLMDNQBUD9","336OE47KI3QZCSCUXSQ8J11UOZXVWV","3IXEICO794PPS5RTRHIQ999LMOHT6W","emotion","match","uniform","","","","","","","2719.9000000953674","142436.20000004768","145156.10000014305","[""stimuli/HM07_SC.jpg"",""stimuli/AM06_CC.jpg"",""stimuli/BM03_FO.jpg"",""stimuli/BF08_SUR.jpg""]","stimuli/HM07_SC.jpg","stimuli/AM06_CC.jpg","stimuli/BM03_FO.jpg","stimuli/BF08_SUR.jpg","pos4","stimuli/BF08_SUR.jpg","SUR","BF08","3","4","8","8","stimuli/stars_8.png","55","[""SC"",""CC"",""FO"",""SUR""]","[""HM07"",""AM06"",""BM03"",""BF08""]","[0,3,7,8]","[2,4,6,8]","","",""
"show-reward","38","145260","0.0-38.0","p494893","ASVRLMDNQBUD9","336OE47KI3QZCSCUXSQ8J11UOZXVWV","3IXEICO794PPS5RTRHIQ999LMOHT6W","emotion","match","uniform","","","","","","","","145663.40000009537","147668","","","","","","","","","","","","8","","stimuli/stars_8.png","55","","","","","stimuli/BF08_SUR.jpg","",""
"explore-choice","39","147602","0.0-39.0","p494893","ASVRLMDNQBUD9","336OE47KI3QZCSCUXSQ8J11UOZXVWV","3IXEICO794PPS5RTRHIQ999LMOHT6W","emotion","match","uniform","","","","","","","1840.5","147669.40000009537","149509.90000009537","[""stimuli/BF08_SC.jpg"",""stimuli/HM07_FO.jpg"",""stimuli/AM06_CC.jpg"",""stimuli/BM03_SUR.jpg""]","stimuli/BF08_SC.jpg","stimuli/HM07_FO.jpg","stimuli/AM06_CC.jpg","stimuli/BM03_SUR.jpg","pos2","stimuli/HM07_FO.jpg","FO","HM07","1","4","8","6","stimuli/stars_8.png","59","[""SC"",""FO"",""CC"",""SUR""]","[""BF08"",""HM07"",""AM06"",""BM03""]","[1,8,5,9]","[2,6,4,8]","","",""
"show-reward","40","149610","0.0-40.0","p494893","ASVRLMDNQBUD9","336OE47KI3QZCSCUXSQ8J11UOZXVWV","3IXEICO794PPS5RTRHIQ999LMOHT6W","emotion","match","uniform","","","","","","","","150012.90000009537","152018.5","","","","","","","","","","","","8","","stimuli/stars_8.png","59","","","","","stimuli/HM07_FO.jpg","",""
"explore-choice","41","153753","0.0-41.0","p494893","ASVRLMDNQBUD9","336OE47KI3QZCSCUXSQ8J11UOZXVWV","3IXEICO794PPS5RTRHIQ999LMOHT6W","emotion","match","uniform","","","","","","","3635.899999856949","152020.30000019073","155656.20000004768","[""stimuli/BF08_SUR.jpg"",""stimuli/HM07_CC.jpg"",""stimuli/AM06_SC.jpg"",""stimuli/BM03_FO.jpg""]","stimuli/BF08_SUR.jpg","stimuli/HM07_CC.jpg","stimuli/AM06_SC.jpg","stimuli/BM03_FO.jpg","pos1","stimuli/BF08_SUR.jpg","SUR","BF08","0","4","8","8","stimuli/stars_8.png","63","[""SUR"",""CC"",""SC"",""FO""]","[""BF08"",""HM07"",""AM06"",""BM03""]","[8,3,1,8]","[8,4,2,6]","","",""
"show-reward","42","155757","0.0-42.0","p494893","ASVRLMDNQBUD9","336OE47KI3QZCSCUXSQ8J11UOZXVWV","3IXEICO794PPS5RTRHIQ999LMOHT6W","emotion","match","uniform","","","","","","","","156162.60000014305","158165.30000019073","","","","","","","","","","","","8","","stimuli/stars_8.png","63","","","","","stimuli/BF08_SUR.jpg","",""
"explore-choice","43","158413","0.0-43.0","p494893","ASVRLMDNQBUD9","336OE47KI3QZCSCUXSQ8J11UOZXVWV","3IXEICO794PPS5RTRHIQ999LMOHT6W","emotion","match","uniform","","","","","","","2148.5","158166.30000019073","160314.80000019073","[""stimuli/BF08_FO.jpg"",""stimuli/BM03_SUR.jpg"",""stimuli/HM07_SC.jpg"",""stimuli/AM06_CC.jpg""]","stimuli/BF08_FO.jpg","stimuli/BM03_SUR.jpg","stimuli/HM07_SC.jpg","stimuli/AM06_CC.jpg","pos1","stimuli/BF08_FO.jpg","FO","BF08","0","4","8","6","stimuli/stars_8.png","67","[""FO"",""SUR"",""SC"",""CC""]","[""BF08"",""BM03"",""HM07"",""AM06""]","[8,6,0,3]","[6,8,2,4]","","",""
"show-reward","44","160418","0.0-44.0","p494893","ASVRLMDNQBUD9","336OE47KI3QZCSCUXSQ8J11UOZXVWV","3IXEICO794PPS5RTRHIQ999LMOHT6W","emotion","match","uniform","","","","","","","","160822.5","162826.5","","","","","","","","","","","","8","","stimuli/stars_8.png","67","","","","","stimuli/BF08_FO.jpg","",""
"explore-choice","45","162861","0.0-45.0","p494893","ASVRLMDNQBUD9","336OE47KI3QZCSCUXSQ8J11UOZXVWV","3IXEICO794PPS5RTRHIQ999LMOHT6W","emotion","match","uniform","","","","","","","1938.1000001430511","162827.70000004768","164765.80000019073","[""stimuli/AM06_CC.jpg"",""stimuli/BF08_FO.jpg"",""stimuli/HM07_SUR.jpg"",""stimuli/BM03_SC.jpg""]","stimuli/AM06_CC.jpg","stimuli/BF08_FO.jpg","stimuli/HM07_SUR.jpg","stimuli/BM03_SC.jpg","pos3","stimuli/HM07_SUR.jpg","SUR","HM07","2","4","8","8","stimuli/stars_8.png","71","[""CC"",""FO"",""SUR"",""SC""]","[""AM06"",""BF08"",""HM07"",""BM03""]","[3,6,8,2]","[4,6,8,2]","","",""
"show-reward","46","164870","0.0-46.0","p494893","ASVRLMDNQBUD9","336OE47KI3QZCSCUXSQ8J11UOZXVWV","3IXEICO794PPS5RTRHIQ999LMOHT6W","emotion","match","uniform","","","","","","","","165271.30000019073","167278.20000004768","","","","","","","","","","","","8","","stimuli/stars_8.png","71","","","","","stimuli/HM07_SUR.jpg","",""
"explore-choice","47","168353","0.0-47.0","p494893","ASVRLMDNQBUD9","336OE47KI3QZCSCUXSQ8J11UOZXVWV","3IXEICO794PPS5RTRHIQ999LMOHT6W","emotion","match","uniform","","","","","","","2976.699999809265","167279.30000019073","170256","[""stimuli/AM06_SUR.jpg"",""stimuli/BF08_SC.jpg"",""stimuli/HM07_CC.jpg"",""stimuli/BM03_FO.jpg""]","stimuli/AM06_SUR.jpg","stimuli/BF08_SC.jpg","stimuli/HM07_CC.jpg","stimuli/BM03_FO.jpg","pos1","stimuli/AM06_SUR.jpg","SUR","AM06","0","4.5","9","8","stimuli/stars_9.png","75.5","[""SUR"",""SC"",""CC"",""FO""]","[""AM06"",""BF08"",""HM07"",""BM03""]","[9,2,2,6]","[8,2,4,6]","","",""
"show-reward","48","170366","0.0-48.0","p494893","ASVRLMDNQBUD9","336OE47KI3QZCSCUXSQ8J11UOZXVWV","3IXEICO794PPS5RTRHIQ999LMOHT6W","emotion","match","uniform","","","","","","","","170763.70000004768","172774.60000014305","","","","","","","","","","","","9","","stimuli/stars_9.png","75.5","","","","","stimuli/AM06_SUR.jpg","",""
"explore-choice","49","172690","0.0-49.0","p494893","ASVRLMDNQBUD9","336OE47KI3QZCSCUXSQ8J11UOZXVWV","3IXEICO794PPS5RTRHIQ999LMOHT6W","emotion","match","uniform","","","","","","","1819.7000000476837","172776","174595.70000004768","[""stimuli/BM03_FO.jpg"",""stimuli/AM06_CC.jpg"",""stimuli/HM07_SUR.jpg"",""stimuli/BF08_SC.jpg""]","stimuli/BM03_FO.jpg","stimuli/AM06_CC.jpg","stimuli/HM07_SUR.jpg","stimuli/BF08_SC.jpg","pos3","stimuli/HM07_SUR.jpg","SUR","HM07","2","4.5","9","8","stimuli/stars_9.png","80","[""FO"",""CC"",""SUR"",""SC""]","[""BM03"",""AM06"",""HM07"",""BF08""]","[8,2,9,2]","[6,4,8,2]","","",""
"show-reward","50","174695","0.0-50.0","p494893","ASVRLMDNQBUD9","336OE47KI3QZCSCUXSQ8J11UOZXVWV","3IXEICO794PPS5RTRHIQ999LMOHT6W","emotion","match","uniform","","","","","","","","175100.20000004768","177103.70000004768","","","","","","","","","","","","9","","stimuli/stars_9.png","80","","","","","stimuli/HM07_SUR.jpg","",""
"explore-choice","51","176674","0.0-51.0","p494893","ASVRLMDNQBUD9","336OE47KI3QZCSCUXSQ8J11UOZXVWV","3IXEICO794PPS5RTRHIQ999LMOHT6W","emotion","match","uniform","","","","","","","1477.2000000476837","177105.10000014305","178582.30000019073","[""stimuli/HM07_SUR.jpg"",""stimuli/BM03_CC.jpg"",""stimuli/BF08_SC.jpg"",""stimuli/AM06_FO.jpg""]","stimuli/HM07_SUR.jpg","stimuli/BM03_CC.jpg","stimuli/BF08_SC.jpg","stimuli/AM06_FO.jpg","pos1","stimuli/HM07_SUR.jpg","SUR","HM07","0","5","10","8","stimuli/stars_10.png","85","[""SUR"",""CC"",""SC"",""FO""]","[""HM07"",""BM03"",""BF08"",""AM06""]","[10,4,2,8]","[8,4,2,6]","","",""
"show-reward","52","178678","0.0-52.0","p494893","ASVRLMDNQBUD9","336OE47KI3QZCSCUXSQ8J11UOZXVWV","3IXEICO794PPS5RTRHIQ999LMOHT6W","emotion","match","uniform","","","","","","","","179083.5","181086.5","","","","","","","","","","","","10","","stimuli/stars_10.png","85","","","","","stimuli/HM07_SUR.jpg","",""
"explore-choice","53","180738","0.0-53.0","p494893","ASVRLMDNQBUD9","336OE47KI3QZCSCUXSQ8J11UOZXVWV","3IXEICO794PPS5RTRHIQ999LMOHT6W","emotion","match","uniform","","","","","","","1547","181088","182635","[""stimuli/AM06_SUR.jpg"",""stimuli/BF08_FO.jpg"",""stimuli/BM03_CC.jpg"",""stimuli/HM07_SC.jpg""]","stimuli/AM06_SUR.jpg","stimuli/BF08_FO.jpg","stimuli/BM03_CC.jpg","stimuli/HM07_SC.jpg","pos1","stimuli/AM06_SUR.jpg","SUR","AM06","0","4.5","9","8","stimuli/stars_9.png","89.5","[""SUR"",""FO"",""CC"",""SC""]","[""AM06"",""BF08"",""BM03"",""HM07""]","[9,7,4,4]","[8,6,4,2]","","",""
"show-reward","54","182745","0.0-54.0","p494893","ASVRLMDNQBUD9","336OE47KI3QZCSCUXSQ8J11UOZXVWV","3IXEICO794PPS5RTRHIQ999LMOHT6W","emotion","match","uniform","","","","","","","","183148.40000009537","185153.90000009537","","","","","","","","","","","","9","","stimuli/stars_9.png","89.5","","","","","stimuli/AM06_SUR.jpg","",""
"explore-choice","55","186019","0.0-55.0","p494893","ASVRLMDNQBUD9","336OE47KI3QZCSCUXSQ8J11UOZXVWV","3IXEICO794PPS5RTRHIQ999LMOHT6W","emotion","match","uniform","","","","","","","2756.7999999523163","185155.60000014305","187912.40000009537","[""stimuli/BM03_SUR.jpg"",""stimuli/HM07_CC.jpg"",""stimuli/AM06_SC.jpg"",""stimuli/BF08_FO.jpg""]","stimuli/BM03_SUR.jpg","stimuli/HM07_CC.jpg","stimuli/AM06_SC.jpg","stimuli/BF08_FO.jpg","pos1","stimuli/BM03_SUR.jpg","SUR","BM03","0","4","8","8","stimuli/stars_8.png","93.5","[""SUR"",""CC"",""SC"",""FO""]","[""BM03"",""HM07"",""AM06"",""BF08""]","[8,2,3,4]","[8,4,2,6]","","",""
"show-reward","56","188030","0.0-56.0","p494893","ASVRLMDNQBUD9","336OE47KI3QZCSCUXSQ8J11UOZXVWV","3IXEICO794PPS5RTRHIQ999LMOHT6W","emotion","match","uniform","","","","","","","","188429.20000004768","190438.80000019073","","","","","","","","","","","","8","","stimuli/stars_8.png","93.5","","","","","stimuli/BM03_SUR.jpg","",""
"explore-choice","57","190069","0.0-57.0","p494893","ASVRLMDNQBUD9","336OE47KI3QZCSCUXSQ8J11UOZXVWV","3IXEICO794PPS5RTRHIQ999LMOHT6W","emotion","match","uniform","","","","","","","1532.1999998092651","190440.30000019073","191972.5","[""stimuli/HM07_SUR.jpg"",""stimuli/BF08_CC.jpg"",""stimuli/BM03_FO.jpg"",""stimuli/AM06_SC.jpg""]","stimuli/HM07_SUR.jpg","stimuli/BF08_CC.jpg","stimuli/BM03_FO.jpg","stimuli/AM06_SC.jpg","pos1","stimuli/HM07_SUR.jpg","SUR","HM07","0","4","8","8","stimuli/stars_8.png","97.5","[""SUR"",""CC"",""FO"",""SC""]","[""HM07"",""BF08"",""BM03"",""AM06""]","[8,3,8,3]","[8,4,6,2]","","",""
"show-reward","58","192073","0.0-58.0","p494893","ASVRLMDNQBUD9","336OE47KI3QZCSCUXSQ8J11UOZXVWV","3IXEICO794PPS5RTRHIQ999LMOHT6W","emotion","match","uniform","","","","","","","","192478.60000014305","194482","","","","","","","","","","","","8","","stimuli/stars_8.png","97.5","","","","","stimuli/HM07_SUR.jpg","",""
"explore-choice","59","194606","0.0-59.0","p494893","ASVRLMDNQBUD9","336OE47KI3QZCSCUXSQ8J11UOZXVWV","3IXEICO794PPS5RTRHIQ999LMOHT6W","emotion","match","uniform","","","","","","","2031.2000000476837","194483.20000004768","196514.40000009537","[""stimuli/AM06_CC.jpg"",""stimuli/BF08_SC.jpg"",""stimuli/BM03_SUR.jpg"",""stimuli/HM07_FO.jpg""]","stimuli/AM06_CC.jpg","stimuli/BF08_SC.jpg","stimuli/BM03_SUR.jpg","stimuli/HM07_FO.jpg","pos4","stimuli/HM07_FO.jpg","FO","HM07","3","4","8","6","stimuli/stars_8.png","101.5","[""CC"",""SC"",""SUR"",""FO""]","[""AM06"",""BF08"",""BM03"",""HM07""]","[5,1,9,8]","[4,2,8,6]","","",""
"show-reward","60","196626","0.0-60.0","p494893","ASVRLMDNQBUD9","336OE47KI3QZCSCUXSQ8J11UOZXVWV","3IXEICO794PPS5RTRHIQ999LMOHT6W","emotion","match","uniform","","","","","","","","197016.20000004768","199034.80000019073","","","","","","","","","","","","8","","stimuli/stars_8.png","101.5","","","","","stimuli/HM07_FO.jpg","",""
"explore-choice","61","200709","0.0-61.0","p494893","ASVRLMDNQBUD9","336OE47KI3QZCSCUXSQ8J11UOZXVWV","3IXEICO794PPS5RTRHIQ999LMOHT6W","emotion","match","uniform","","","","","","","3573.2999999523163","199036.20000004768","202609.5","[""stimuli/BM03_SUR.jpg"",""stimuli/BF08_FO.jpg"",""stimuli/AM06_CC.jpg"",""stimuli/HM07_SC.jpg""]","stimuli/BM03_SUR.jpg","stimuli/BF08_FO.jpg","stimuli/AM06_CC.jpg","stimuli/HM07_SC.jpg","pos1","stimuli/BM03_SUR.jpg","SUR","BM03","0","3","6","8","stimuli/stars_6.png","104.5","[""SUR"",""FO"",""CC"",""SC""]","[""BM03"",""BF08"",""AM06"",""HM07""]","[6,8,3,0]","[8,6,4,2]","","",""
"show-reward","62","202715","0.0-62.0","p494893","ASVRLMDNQBUD9","336OE47KI3QZCSCUXSQ8J11UOZXVWV","3IXEICO794PPS5RTRHIQ999LMOHT6W","emotion","match","uniform","","","","","","","","203119.80000019073","205124.20000004768","","","","","","","","","","","","6","","stimuli/stars_6.png","104.5","","","","","stimuli/BM03_SUR.jpg","",""
"explore-choice","63","205091","0.0-63.0","p494893","ASVRLMDNQBUD9","336OE47KI3QZCSCUXSQ8J11UOZXVWV","3IXEICO794PPS5RTRHIQ999LMOHT6W","emotion","match","uniform","","","","","","","1858.0999999046326","205125.90000009537","206984","[""stimuli/AM06_FO.jpg"",""stimuli/HM07_SC.jpg"",""stimuli/BF08_CC.jpg"",""stimuli/BM03_SUR.jpg""]","stimuli/AM06_FO.jpg","stimuli/HM07_SC.jpg","stimuli/BF08_CC.jpg","stimuli/BM03_SUR.jpg","pos4","stimuli/BM03_SUR.jpg","SUR","BM03","3","3.5","7","8","stimuli/stars_7.png","108","[""FO"",""SC"",""CC"",""SUR""]","[""AM06"",""HM07"",""BF08"",""BM03""]","[8,0,5,7]","[6,2,4,8]","","",""
"show-reward","64","207095","0.0-64.0","p494893","ASVRLMDNQBUD9","336OE47KI3QZCSCUXSQ8J11UOZXVWV","3IXEICO794PPS5RTRHIQ999LMOHT6W","emotion","match","uniform","","","","","","","","207500.90000009537","209503.60000014305","","","","","","","","","","","","7","","stimuli/stars_7.png","108","","","","","stimuli/BM03_SUR.jpg","",""
"explore-choice","65","209611","0.0-65.0","p494893","ASVRLMDNQBUD9","336OE47KI3QZCSCUXSQ8J11UOZXVWV","3IXEICO794PPS5RTRHIQ999LMOHT6W","emotion","match","uniform","","","","","","","2000.7999999523163","209504.60000014305","211505.40000009537","[""stimuli/BF08_SC.jpg"",""stimuli/HM07_CC.jpg"",""stimuli/AM06_FO.jpg"",""stimuli/BM03_SUR.jpg""]","stimuli/BF08_SC.jpg","stimuli/HM07_CC.jpg","stimuli/AM06_FO.jpg","stimuli/BM03_SUR.jpg","pos4","stimuli/BM03_SUR.jpg","SUR","BM03","3","3","6","8","stimuli/stars_6.png","111","[""SC"",""CC"",""FO"",""SUR""]","[""BF08"",""HM07"",""AM06"",""BM03""]","[0,6,8,6]","[2,4,6,8]","","",""
"show-reward","66","211622","0.0-66.0","p494893","ASVRLMDNQBUD9","336OE47KI3QZCSCUXSQ8J11UOZXVWV","3IXEICO794PPS5RTRHIQ999LMOHT6W","emotion","match","uniform","","","","","","","","212021.30000019073","214030.60000014305","","","","","","","","","","","","6","","stimuli/stars_6.png","111","","","","","stimuli/BM03_SUR.jpg","",""
"explore-choice","67","215603","0.0-67.0","p494893","ASVRLMDNQBUD9","336OE47KI3QZCSCUXSQ8J11UOZXVWV","3IXEICO794PPS5RTRHIQ999LMOHT6W","emotion","match","uniform","","","","","","","3472.7999999523163","214032.30000019073","217505.10000014305","[""stimuli/AM06_SC.jpg"",""stimuli/HM07_FO.jpg"",""stimuli/BM03_CC.jpg"",""stimuli/BF08_SUR.jpg""]","stimuli/AM06_SC.jpg","stimuli/HM07_FO.jpg","stimuli/BM03_CC.jpg","stimuli/BF08_SUR.jpg","pos2","stimuli/HM07_FO.jpg","FO","HM07","1","3","6","6","stimuli/stars_6.png","114","[""SC"",""FO"",""CC"",""SUR""]","[""AM06"",""HM07"",""BM03"",""BF08""]","[2,6,2,8]","[2,6,4,8]","","",""
"show-reward","68","217608","0.0-68.0","p494893","ASVRLMDNQBUD9","336OE47KI3QZCSCUXSQ8J11UOZXVWV","3IXEICO794PPS5RTRHIQ999LMOHT6W","emotion","match","uniform","","","","","","","","218013.30000019073","220017","","","","","","","","","","","","6","","stimuli/stars_6.png","114","","","","","stimuli/HM07_FO.jpg","",""
"explore-choice","69","220660","0.0-69.0","p494893","ASVRLMDNQBUD9","336OE47KI3QZCSCUXSQ8J11UOZXVWV","3IXEICO794PPS5RTRHIQ999LMOHT6W","emotion","match","uniform","","","","","","","2541","220018.30000019073","222559.30000019073","[""stimuli/AM06_SUR.jpg"",""stimuli/BF08_SC.jpg"",""stimuli/BM03_FO.jpg"",""stimuli/HM07_CC.jpg""]","stimuli/AM06_SUR.jpg","stimuli/BF08_SC.jpg","stimuli/BM03_FO.jpg","stimuli/HM07_CC.jpg","pos3","stimuli/BM03_FO.jpg","FO","BM03","2","3","6","6","stimuli/stars_6.png","117","[""SUR"",""SC"",""FO"",""CC""]","[""AM06"",""BF08"",""BM03"",""HM07""]","[9,2,6,2]","[8,2,6,4]","","",""
"show-reward","70","222665","0.0-70.0","p494893","ASVRLMDNQBUD9","336OE47KI3QZCSCUXSQ8J11UOZXVWV","3IXEICO794PPS5RTRHIQ999LMOHT6W","emotion","match","uniform","","","","","","","","223070.20000004768","225073.40000009537","","","","","","","","","","","","6","","stimuli/stars_6.png","117","","","","","stimuli/BM03_FO.jpg","",""
"explore-choice","71","224576","0.0-71.0","p494893","ASVRLMDNQBUD9","336OE47KI3QZCSCUXSQ8J11UOZXVWV","3IXEICO794PPS5RTRHIQ999LMOHT6W","emotion","match","uniform","","","","","","","1407.7000000476837","225075.60000014305","226483.30000019073","[""stimuli/BF08_SUR.jpg"",""stimuli/AM06_CC.jpg"",""stimuli/BM03_FO.jpg"",""stimuli/HM07_SC.jpg""]","stimuli/BF08_SUR.jpg","stimuli/AM06_CC.jpg","stimuli/BM03_FO.jpg","stimuli/HM07_SC.jpg","pos1","stimuli/BF08_SUR.jpg","SUR","BF08","0","4","8","8","stimuli/stars_8.png","121","[""SUR"",""CC"",""FO"",""SC""]","[""BF08"",""AM06"",""BM03"",""HM07""]","[8,3,7,0]","[8,4,6,2]","","",""
"show-reward","72","226587","0.0-72.0","p494893","ASVRLMDNQBUD9","336OE47KI3QZCSCUXSQ8J11UOZXVWV","3IXEICO794PPS5RTRHIQ999LMOHT6W","emotion","match","uniform","","","","","","","","226986.20000004768","228996","","","","","","","","","","","","8","","stimuli/stars_8.png","121","","","","","stimuli/BF08_SUR.jpg","",""
"explore-choice","73","228743","0.0-73.0","p494893","ASVRLMDNQBUD9","336OE47KI3QZCSCUXSQ8J11UOZXVWV","3IXEICO794PPS5RTRHIQ999LMOHT6W","emotion","match","uniform","","","","","","","1647.5","228997.10000014305","230644.60000014305","[""stimuli/AM06_SUR.jpg"",""stimuli/BM03_SC.jpg"",""stimuli/BF08_CC.jpg"",""stimuli/HM07_FO.jpg""]","stimuli/AM06_SUR.jpg","stimuli/BM03_SC.jpg","stimuli/BF08_CC.jpg","stimuli/HM07_FO.jpg","pos1","stimuli/AM06_SUR.jpg","SUR","AM06","0","4","8","8","stimuli/stars_8.png","125","[""SUR"",""SC"",""CC"",""FO""]","[""AM06"",""BM03"",""BF08"",""HM07""]","[8,1,6,8]","[8,2,4,6]","","",""
"show-reward","74","230756","0.0-74.0","p494893","ASVRLMDNQBUD9","336OE47KI3QZCSCUXSQ8J11UOZXVWV","3IXEICO794PPS5RTRHIQ999LMOHT6W","emotion","match","uniform","","","","","","","","231153.80000019073","233164","","","","","","","","","","","","8","","stimuli/stars_8.png","125","","","","","stimuli/AM06_SUR.jpg","",""
"explore-choice","75","233261","0.0-75.0","p494893","ASVRLMDNQBUD9","336OE47KI3QZCSCUXSQ8J11UOZXVWV","3IXEICO794PPS5RTRHIQ999LMOHT6W","emotion","match","uniform","","","","","","","1996.9000000953674","233166.20000004768","235163.10000014305","[""stimuli/AM06_SC.jpg"",""stimuli/BF08_FO.jpg"",""stimuli/HM07_SUR.jpg"",""stimuli/BM03_CC.jpg""]","stimuli/AM06_SC.jpg","stimuli/BF08_FO.jpg","stimuli/HM07_SUR.jpg","stimuli/BM03_CC.jpg","pos3","stimuli/HM07_SUR.jpg","SUR","HM07","2","5","10","8","stimuli/stars_10.png","130","[""SC"",""FO"",""SUR"",""CC""]","[""AM06"",""BF08"",""HM07"",""BM03""]","[3,6,10,3]","[2,6,8,4]","","",""
"show-reward","76","235271","0.0-76.0","p494893","ASVRLMDNQBUD9","336OE47KI3QZCSCUXSQ8J11UOZXVWV","3IXEICO794PPS5RTRHIQ999LMOHT6W","emotion","match","uniform","","","","","","","","235671.30000019073","237679.20000004768","","","","","","","","","","","","10","","stimuli/stars_10.png","130","","","","","stimuli/HM07_SUR.jpg","",""
"explore-choice","77","237175","0.0-77.0","p494893","ASVRLMDNQBUD9","336OE47KI3QZCSCUXSQ8J11UOZXVWV","3IXEICO794PPS5RTRHIQ999LMOHT6W","emotion","match","uniform","","","","","","","1401.7999999523163","237681.40000009537","239083.20000004768","[""stimuli/HM07_FO.jpg"",""stimuli/BF08_CC.jpg"",""stimuli/BM03_SUR.jpg"",""stimuli/AM06_SC.jpg""]","stimuli/HM07_FO.jpg","stimuli/BF08_CC.jpg","stimuli/BM03_SUR.jpg","stimuli/AM06_SC.jpg","pos1","stimuli/HM07_FO.jpg","FO","HM07","0","3.5","7","6","stimuli/stars_7.png","133.5","[""FO"",""CC"",""SUR"",""SC""]","[""HM07"",""BF08"",""BM03"",""AM06""]","[7,5,9,0]","[6,4,8,2]","","",""
"show-reward","78","239179","0.0-78.0","p494893","ASVRLMDNQBUD9","336OE47KI3QZCSCUXSQ8J11UOZXVWV","3IXEICO794PPS5RTRHIQ999LMOHT6W","emotion","match","uniform","","","","","","","","239584.40000009537","241588","","","","","","","","","","","","7","","stimuli/stars_7.png","133.5","","","","","stimuli/HM07_FO.jpg","",""
"explore-choice","79","242165","0.0-79.0","p494893","ASVRLMDNQBUD9","336OE47KI3QZCSCUXSQ8J11UOZXVWV","3IXEICO794PPS5RTRHIQ999LMOHT6W","emotion","match","uniform","","","","","","","2484.5","241589.10000014305","244073.60000014305","[""stimuli/HM07_FO.jpg"",""stimuli/BM03_CC.jpg"",""stimuli/AM06_SUR.jpg"",""stimuli/BF08_SC.jpg""]","stimuli/HM07_FO.jpg","stimuli/BM03_CC.jpg","stimuli/AM06_SUR.jpg","stimuli/BF08_SC.jpg","pos1","stimuli/HM07_FO.jpg","FO","HM07","0","4","8","6","stimuli/stars_8.png","137.5","[""FO"",""CC"",""SUR"",""SC""]","[""HM07"",""BM03"",""AM06"",""BF08""]","[8,3,8,2]","[6,4,8,2]","","",""
"show-reward","80","244170","0.0-80.0","p494893","ASVRLMDNQBUD9","336OE47KI3QZCSCUXSQ8J11UOZXVWV","3IXEICO794PPS5RTRHIQ999LMOHT6W","emotion","match","uniform","","","","","","","","244575.30000019073","246578.20000004768","","","","","","","","","","","","8","","stimuli/stars_8.png","137.5","","","","","stimuli/HM07_FO.jpg","",""
"explore-choice","81","246546","0.0-81.0","p494893","ASVRLMDNQBUD9","336OE47KI3QZCSCUXSQ8J11UOZXVWV","3IXEICO794PPS5RTRHIQ999LMOHT6W","emotion","match","uniform","","","","","","","1874","246579.70000004768","248453.70000004768","[""stimuli/BF08_CC.jpg"",""stimuli/HM07_SUR.jpg"",""stimuli/BM03_SC.jpg"",""stimuli/AM06_FO.jpg""]","stimuli/BF08_CC.jpg","stimuli/HM07_SUR.jpg","stimuli/BM03_SC.jpg","stimuli/AM06_FO.jpg","pos2","stimuli/HM07_SUR.jpg","SUR","HM07","1","4.5","9","8","stimuli/stars_9.png","142","[""CC"",""SUR"",""SC"",""FO""]","[""BF08"",""HM07"",""BM03"",""AM06""]","[5,9,2,7]","[4,8,2,6]","","",""
"show-reward","82","248553","0.0-82.0","p494893","ASVRLMDNQBUD9","336OE47KI3QZCSCUXSQ8J11UOZXVWV","3IXEICO794PPS5RTRHIQ999LMOHT6W","emotion","match","uniform","","","","","","","","248955.5","250961.60000014305","","","","","","","","","","","","9","","stimuli/stars_9.png","142","","","","","stimuli/HM07_SUR.jpg","",""
"explore-choice","83","251211","0.0-83.0","p494893","ASVRLMDNQBUD9","336OE47KI3QZCSCUXSQ8J11UOZXVWV","3IXEICO794PPS5RTRHIQ999LMOHT6W","emotion","match","uniform","","","","","","","2155.4000000953674","250963","253118.40000009537","[""stimuli/AM06_FO.jpg"",""stimuli/HM07_SC.jpg"",""stimuli/BF08_SUR.jpg"",""stimuli/BM03_CC.jpg""]","stimuli/AM06_FO.jpg","stimuli/HM07_SC.jpg","stimuli/BF08_SUR.jpg","stimuli/BM03_CC.jpg","pos3","stimuli/BF08_SUR.jpg","SUR","BF08","2","3.5","7","8","stimuli/stars_7.png","145.5","[""FO"",""SC"",""SUR"",""CC""]","[""AM06"",""HM07"",""BF08"",""BM03""]","[5,4,7,5]","[6,2,8,4]","","",""
"show-reward","84","253217","0.0-84.0","p494893","ASVRLMDNQBUD9","336OE47KI3QZCSCUXSQ8J11UOZXVWV","3IXEICO794PPS5RTRHIQ999LMOHT6W","emotion","match","uniform","","","","","","","","253620.60000014305","255625.30000019073","","","","","","","","","","","","7","","stimuli/stars_7.png","145.5","","","","","stimuli/BF08_SUR.jpg","",""
"explore-choice","85","255048","0.0-85.0","p494893","ASVRLMDNQBUD9","336OE47KI3QZCSCUXSQ8J11UOZXVWV","3IXEICO794PPS5RTRHIQ999LMOHT6W","emotion","match","uniform","","","","","","","1325.2000000476837","255627.70000004768","256952.90000009537","[""stimuli/HM07_FO.jpg"",""stimuli/BM03_SC.jpg"",""stimuli/AM06_CC.jpg"",""stimuli/BF08_SUR.jpg""]","stimuli/HM07_FO.jpg","stimuli/BM03_SC.jpg","stimuli/AM06_CC.jpg","stimuli/BF08_SUR.jpg","pos1","stimuli/HM07_FO.jpg","FO","HM07","0","3","6","6","stimuli/stars_6.png","148.5","[""FO"",""SC"",""CC"",""SUR""]","[""HM07"",""BM03"",""AM06"",""BF08""]","[6,0,4,8]","[6,2,4,8]","","",""
"show-reward","86","257058","0.0-86.0","p494893","ASVRLMDNQBUD9","336OE47KI3QZCSCUXSQ8J11UOZXVWV","3IXEICO794PPS5RTRHIQ999LMOHT6W","emotion","match","uniform","","","","","","","","257458.60000014305","259465.80000019073","","","","","","","","","","","","6","","stimuli/stars_6.png","148.5","","","","","stimuli/HM07_FO.jpg","",""
"explore-choice","87","259664","0.0-87.0","p494893","ASVRLMDNQBUD9","336OE47KI3QZCSCUXSQ8J11UOZXVWV","3IXEICO794PPS5RTRHIQ999LMOHT6W","emotion","match","uniform","","","","","","","2099.9000000953674","259468.40000009537","261568.30000019073","[""stimuli/HM07_CC.jpg"",""stimuli/BM03_SC.jpg"",""stimuli/AM06_FO.jpg"",""stimuli/BF08_SUR.jpg""]","stimuli/HM07_CC.jpg","stimuli/BM03_SC.jpg","stimuli/AM06_FO.jpg","stimuli/BF08_SUR.jpg","pos4","stimuli/BF08_SUR.jpg","SUR","BF08","3","3.5","7","8","stimuli/stars_7.png","152","[""CC"",""SC"",""FO"",""SUR""]","[""HM07"",""BM03"",""AM06"",""BF08""]","[6,2,8,7]","[4,2,6,8]","","",""
"show-reward","88","261677","0.0-88.0","p494893","ASVRLMDNQBUD9","336OE47KI3QZCSCUXSQ8J11UOZXVWV","3IXEICO794PPS5RTRHIQ999LMOHT6W","emotion","match","uniform","","","","","","","","262074","264085.40000009537","","","","","","","","","","","","7","","stimuli/stars_7.png","152","","","","","stimuli/BF08_SUR.jpg","",""
"explore-choice","89","264107","0.0-89.0","p494893","ASVRLMDNQBUD9","336OE47KI3QZCSCUXSQ8J11UOZXVWV","3IXEICO794PPS5RTRHIQ999LMOHT6W","emotion","match","uniform","","","","","","","1927.7000000476837","264087.10000014305","266014.80000019073","[""stimuli/BF08_FO.jpg"",""stimuli/AM06_SUR.jpg"",""stimuli/BM03_CC.jpg"",""stimuli/HM07_SC.jpg""]","stimuli/BF08_FO.jpg","stimuli/AM06_SUR.jpg","stimuli/BM03_CC.jpg","stimuli/HM07_SC.jpg","pos1","stimuli/BF08_FO.jpg","FO","BF08","0","3.5","7","6","stimuli/stars_7.png","155.5","[""FO"",""SUR"",""CC"",""SC""]","[""BF08"",""AM06"",""BM03"",""HM07""]","[7,9,4,4]","[6,8,4,2]","","",""
"show-reward","90","266112","0.0-90.0","p494893","ASVRLMDNQBUD9","336OE47KI3QZCSCUXSQ8J11UOZXVWV","3IXEICO794PPS5RTRHIQ999LMOHT6W","emotion","match","uniform","","","","","","","","266517.2000000477","268520.7000000477","","","","","","","","","","","","7","","stimuli/stars_7.png","155.5","","","","","stimuli/BF08_FO.jpg","",""
"explore-choice","91","268322","0.0-91.0","p494893","ASVRLMDNQBUD9","336OE47KI3QZCSCUXSQ8J11UOZXVWV","3IXEICO794PPS5RTRHIQ999LMOHT6W","emotion","match","uniform","","","","","","","1700.9000000953674","268521.7000000477","270222.60000014305","[""stimuli/BM03_FO.jpg"",""stimuli/HM07_SUR.jpg"",""stimuli/AM06_CC.jpg"",""stimuli/BF08_SC.jpg""]","stimuli/BM03_FO.jpg","stimuli/HM07_SUR.jpg","stimuli/AM06_CC.jpg","stimuli/BF08_SC.jpg","pos1","stimuli/BM03_FO.jpg","FO","BM03","0","4","8","6","stimuli/stars_8.png","159.5","[""FO"",""SUR"",""CC"",""SC""]","[""BM03"",""HM07"",""AM06"",""BF08""]","[8,9,2,2]","[6,8,4,2]","","",""
"show-reward","92","270329","0.0-92.0","p494893","ASVRLMDNQBUD9","336OE47KI3QZCSCUXSQ8J11UOZXVWV","3IXEICO794PPS5RTRHIQ999LMOHT6W","emotion","match","uniform","","","","","","","","270732.5","272737.40000009537","","","","","","","","","","","","8","","stimuli/stars_8.png","159.5","","","","","stimuli/BM03_FO.jpg","",""
"explore-choice","93","272783","0.0-93.0","p494893","ASVRLMDNQBUD9","336OE47KI3QZCSCUXSQ8J11UOZXVWV","3IXEICO794PPS5RTRHIQ999LMOHT6W","emotion","match","uniform","","","","","","","1948.7999999523163","272738.7000000477","274687.5","[""stimuli/HM07_CC.jpg"",""stimuli/BM03_FO.jpg"",""stimuli/AM06_SC.jpg"",""stimuli/BF08_SUR.jpg""]","stimuli/HM07_CC.jpg","stimuli/BM03_FO.jpg","stimuli/AM06_SC.jpg","stimuli/BF08_SUR.jpg","pos2","stimuli/BM03_FO.jpg","FO","BM03","1","4","8","6","stimuli/stars_8.png","163.5","[""CC"",""FO"",""SC"",""SUR""]","[""HM07"",""BM03"",""AM06"",""BF08""]","[3,8,1,8]","[4,6,2,8]","","",""
"show-reward","94","274790","0.0-94.0","p494893","ASVRLMDNQBUD9","336OE47KI3QZCSCUXSQ8J11UOZXVWV","3IXEICO794PPS5RTRHIQ999LMOHT6W","emotion","match","uniform","","","","","","","","275194","277198.5","","","","","","","","","","","","8","","stimuli/stars_8.png","163.5","","","","","stimuli/BM03_FO.jpg","",""
"explore-choice","95","276635","0.0-95.0","p494893","ASVRLMDNQBUD9","336OE47KI3QZCSCUXSQ8J11UOZXVWV","3IXEICO794PPS5RTRHIQ999LMOHT6W","emotion","match","uniform","","","","","","","1343.2999999523163","277199.7000000477","278543","[""stimuli/AM06_FO.jpg"",""stimuli/HM07_SUR.jpg"",""stimuli/BM03_CC.jpg"",""stimuli/BF08_SC.jpg""]","stimuli/AM06_FO.jpg","stimuli/HM07_SUR.jpg","stimuli/BM03_CC.jpg","stimuli/BF08_SC.jpg","pos2","stimuli/HM07_SUR.jpg","SUR","HM07","1","5","10","8","stimuli/stars_10.png","168.5","[""FO"",""SUR"",""CC"",""SC""]","[""AM06"",""HM07"",""BM03"",""BF08""]","[8,10,4,2]","[6,8,4,2]","","",""
"show-reward","96","278649","0.0-96.0","p494893","ASVRLMDNQBUD9","336OE47KI3QZCSCUXSQ8J11UOZXVWV","3IXEICO794PPS5RTRHIQ999LMOHT6W","emotion","match","uniform","","","","","","","","279045.10000014305","281056.80000019073","","","","","","","","","","","","10","","stimuli/stars_10.png","168.5","","","","","stimuli/HM07_SUR.jpg","",""
"explore-choice","97","281129","0.0-97.0","p494893","ASVRLMDNQBUD9","336OE47KI3QZCSCUXSQ8J11UOZXVWV","3IXEICO794PPS5RTRHIQ999LMOHT6W","emotion","match","uniform","","","","","","","1969.5","281058.80000019073","283028.30000019073","[""stimuli/BM03_FO.jpg"",""stimuli/HM07_SC.jpg"",""stimuli/BF08_CC.jpg"",""stimuli/AM06_SUR.jpg""]","stimuli/BM03_FO.jpg","stimuli/HM07_SC.jpg","stimuli/BF08_CC.jpg","stimuli/AM06_SUR.jpg","pos1","stimuli/BM03_FO.jpg","FO","BM03","0","2","4","6","stimuli/stars_4.png","170.5","[""FO"",""SC"",""CC"",""SUR""]","[""BM03"",""HM07"",""BF08"",""AM06""]","[4,3,2,8]","[6,2,4,8]","","",""
"show-reward","98","283137","0.0-98.0","p494893","ASVRLMDNQBUD9","336OE47KI3QZCSCUXSQ8J11UOZXVWV","3IXEICO794PPS5RTRHIQ999LMOHT6W","emotion","match","uniform","","","","","","","","283538.90000009537","285545.7000000477","","","","","","","","","","","","4","","stimuli/stars_4.png","170.5","","","","","stimuli/BM03_FO.jpg","",""
"explore-choice","99","285286","0.0-99.0","p494893","ASVRLMDNQBUD9","336OE47KI3QZCSCUXSQ8J11UOZXVWV","3IXEICO794PPS5RTRHIQ999LMOHT6W","emotion","match","uniform","","","","","","","1638.2000000476837","285547","287185.2000000477","[""stimuli/BF08_FO.jpg"",""stimuli/BM03_SC.jpg"",""stimuli/HM07_CC.jpg"",""stimuli/AM06_SUR.jpg""]","stimuli/BF08_FO.jpg","stimuli/BM03_SC.jpg","stimuli/HM07_CC.jpg","stimuli/AM06_SUR.jpg","pos1","stimuli/BF08_FO.jpg","FO","BF08","0","3","6","6","stimuli/stars_6.png","173.5","[""FO"",""SC"",""CC"",""SUR""]","[""BF08"",""BM03"",""HM07"",""AM06""]","[6,4,4,8]","[6,2,4,8]","","",""
"show-reward","100","287300","0.0-100.0","p494893","ASVRLMDNQBUD9","336OE47KI3QZCSCUXSQ8J11UOZXVWV","3IXEICO794PPS5RTRHIQ999LMOHT6W","emotion","match","uniform","","","","","","","","287696.7000000477","289708.2000000477","","","","","","","","","","","","6","","stimuli/stars_6.png","173.5","","","","","stimuli/BF08_FO.jpg","",""
"explore-choice","101","289096","0.0-101.0","p494893","ASVRLMDNQBUD9","336OE47KI3QZCSCUXSQ8J11UOZXVWV","3IXEICO794PPS5RTRHIQ999LMOHT6W","emotion","match","uniform","","","","","","","1282.7000000476837","289710.5","290993.2000000477","[""stimuli/HM07_SUR.jpg"",""stimuli/AM06_CC.jpg"",""stimuli/BF08_FO.jpg"",""stimuli/BM03_SC.jpg""]","stimuli/HM07_SUR.jpg","stimuli/AM06_CC.jpg","stimuli/BF08_FO.jpg","stimuli/BM03_SC.jpg","pos1","stimuli/HM07_SUR.jpg","SUR","HM07","0","4","8","8","stimuli/stars_8.png","177.5","[""SUR"",""CC"",""FO"",""SC""]","[""HM07"",""AM06"",""BF08"",""BM03""]","[8,3,6,2]","[8,4,6,2]","","",""
"show-reward","102","291104","0.0-102.0","p494893","ASVRLMDNQBUD9","336OE47KI3QZCSCUXSQ8J11UOZXVWV","3IXEICO794PPS5RTRHIQ999LMOHT6W","emotion","match","uniform","","","","","","","","291506.2000000477","293512.7000000477","","","","","","","","","","","","8","","stimuli/stars_8.png","177.5","","","","","stimuli/HM07_SUR.jpg","",""
"explore-choice","103","295479","0.0-103.0","p494893","ASVRLMDNQBUD9","336OE47KI3QZCSCUXSQ8J11UOZXVWV","3IXEICO794PPS5RTRHIQ999LMOHT6W","emotion","match","uniform","","","","","","","3868.100000143051","293514","297382.10000014305","[""stimuli/AF09_HE.jpg"",""stimuli/WM11_HO.jpg"",""stimuli/AF10_DO.jpg"",""stimuli/AM05_AO.jpg""]","stimuli/AF09_HE.jpg","stimuli/WM11_HO.jpg","stimuli/AF10_DO.jpg","stimuli/AM05_AO.jpg","pos3","stimuli/AF10_DO.jpg","DO","AF10","2","4.5","9","8","stimuli/stars_9.png","182","[""HE"",""HO"",""DO"",""AO""]","[""AF09"",""WM11"",""AF10"",""AM05""]","[5,2,9,3]","[6,4,8,2]","","",""
"show-reward","104","297484","0.0-104.0","p494893","ASVRLMDNQBUD9","336OE47KI3QZCSCUXSQ8J11UOZXVWV","3IXEICO794PPS5RTRHIQ999LMOHT6W","emotion","match","uniform","","","","","","","","297889.40000009537","299892.60000014305","","","","","","","","","","","","9","","stimuli/stars_9.png","182","","","","","stimuli/AF10_DO.jpg","",""
"explore-choice","105","299788","0.0-105.0","p494893","ASVRLMDNQBUD9","336OE47KI3QZCSCUXSQ8J11UOZXVWV","3IXEICO794PPS5RTRHIQ999LMOHT6W","emotion","match","uniform","","","","","","","1802.3000001907349","299894","301696.30000019073","[""stimuli/AM05_DO.jpg"",""stimuli/AF10_HE.jpg"",""stimuli/WM11_AO.jpg"",""stimuli/AF09_HO.jpg""]","stimuli/AM05_DO.jpg","stimuli/AF10_HE.jpg","stimuli/WM11_AO.jpg","stimuli/AF09_HO.jpg","pos1","stimuli/AM05_DO.jpg","DO","AM05","0","3.5","7","8","stimuli/stars_7.png","185.5","[""DO"",""HE"",""AO"",""HO""]","[""AM05"",""AF10"",""WM11"",""AF09""]","[7,8,0,4]","[8,6,2,4]","","",""
"show-reward","106","301800","0.0-106.0","p494893","ASVRLMDNQBUD9","336OE47KI3QZCSCUXSQ8J11UOZXVWV","3IXEICO794PPS5RTRHIQ999LMOHT6W","emotion","match","uniform","","","","","","","","302198.90000009537","304209","","","","","","","","","","","","7","","stimuli/stars_7.png","185.5","","","","","stimuli/AM05_DO.jpg","",""
"explore-choice","107","304720","0.0-107.0","p494893","ASVRLMDNQBUD9","336OE47KI3QZCSCUXSQ8J11UOZXVWV","3IXEICO794PPS5RTRHIQ999LMOHT6W","emotion","match","uniform","","","","","","","2406.399999856949","304210.60000014305","306617","[""stimuli/WM11_AO.jpg"",""stimuli/AF09_DO.jpg"",""stimuli/AF10_HO.jpg"",""stimuli/AM05_HE.jpg""]","stimuli/WM11_AO.jpg","stimuli/AF09_DO.jpg","stimuli/AF10_HO.jpg","stimuli/AM05_HE.jpg","pos2","stimuli/AF09_DO.jpg","DO","AF09","1","4","8","8","stimuli/stars_8.png","189.5","[""AO"",""DO"",""HO"",""HE""]","[""WM11"",""AF09"",""AF10"",""AM05""]","[2,8,4,8]","[2,8,4,6]","","",""
"show-reward","108","306723","0.0-108.0","p494893","ASVRLMDNQBUD9","336OE47KI3QZCSCUXSQ8J11UOZXVWV","3IXEICO794PPS5RTRHIQ999LMOHT6W","emotion","match","uniform","","","","","","","","307129.60000014305","309131.80000019073","","","","","","","","","","","","8","","stimuli/stars_8.png","189.5","","","","","stimuli/AF09_DO.jpg","",""
"explore-choice","109","308946","0.0-109.0","p494893","ASVRLMDNQBUD9","336OE47KI3QZCSCUXSQ8J11UOZXVWV","3IXEICO794PPS5RTRHIQ999LMOHT6W","emotion","match","uniform","","","","","","","1713.5","309133.7000000477","310847.2000000477","[""stimuli/AF09_HO.jpg"",""stimuli/WM11_HE.jpg"",""stimuli/AF10_AO.jpg"",""stimuli/AM05_DO.jpg""]","stimuli/AF09_HO.jpg","stimuli/WM11_HE.jpg","stimuli/AF10_AO.jpg","stimuli/AM05_DO.jpg","pos2","stimuli/WM11_HE.jpg","HE","WM11","1","2","4","6","stimuli/stars_4.png","191.5","[""HO"",""HE"",""AO"",""DO""]","[""AF09"",""WM11"",""AF10"",""AM05""]","[5,4,1,9]","[4,6,2,8]","","",""
"show-reward","110","310958","0.0-110.0","p494893","ASVRLMDNQBUD9","336OE47KI3QZCSCUXSQ8J11UOZXVWV","3IXEICO794PPS5RTRHIQ999LMOHT6W","emotion","match","uniform","","","","","","","","311356.80000019073","313367","","","","","","","","","","","","4","","stimuli/stars_4.png","191.5","","","","","stimuli/WM11_HE.jpg","",""
"explore-choice","111","313728","0.0-111.0","p494893","ASVRLMDNQBUD9","336OE47KI3QZCSCUXSQ8J11UOZXVWV","3IXEICO794PPS5RTRHIQ999LMOHT6W","emotion","match","uniform","","","","","","","2263.5999999046326","313368.80000019073","315632.40000009537","[""stimuli/AF10_AO.jpg"",""stimuli/WM11_HO.jpg"",""stimuli/AM05_DO.jpg"",""stimuli/AF09_HE.jpg""]","stimuli/AF10_AO.jpg","stimuli/WM11_HO.jpg","stimuli/AM05_DO.jpg","stimuli/AF09_HE.jpg","pos3","stimuli/AM05_DO.jpg","DO","AM05","2","4.5","9","8","stimuli/stars_9.png","196","[""AO"",""HO"",""DO"",""HE""]","[""AF10"",""WM11"",""AM05"",""AF09""]","[4,3,9,7]","[2,4,8,6]","","",""
"show-reward","112","315733","0.0-112.0","p494893","ASVRLMDNQBUD9","336OE47KI3QZCSCUXSQ8J11UOZXVWV","3IXEICO794PPS5RTRHIQ999LMOHT6W","emotion","match","uniform","","","","","","","","316138.30000019073","318141.30000019073","","","","","","","","","","","","9","","stimuli/stars_9.png","196","","","","","stimuli/AM05_DO.jpg","",""
"explore-choice","113","318174","0.0-113.0","p494893","ASVRLMDNQBUD9","336OE47KI3QZCSCUXSQ8J11UOZXVWV","3IXEICO794PPS5RTRHIQ999LMOHT6W","emotion","match","uniform","","","","","","","1929.2000000476837","318142.7000000477","320071.90000009537","[""stimuli/AF10_AO.jpg"",""stimuli/WM11_HE.jpg"",""stimuli/AM05_HO.jpg"",""stimuli/AF09_DO.jpg""]","stimuli/AF10_AO.jpg","stimuli/WM11_HE.jpg","stimuli/AM05_HO.jpg","stimuli/AF09_DO.jpg","pos4","stimuli/AF09_DO.jpg","DO","AF09","3","3","6","8","stimuli/stars_6.png","199","[""AO"",""HE"",""HO"",""DO""]","[""AF10"",""WM11"",""AM05"",""AF09""]","[1,5,4,6]","[2,6,4,8]","","",""
"show-reward","114","320184","0.0-114.0","p494893","ASVRLMDNQBUD9","336OE47KI3QZCSCUXSQ8J11UOZXVWV","3IXEICO794PPS5RTRHIQ999LMOHT6W","emotion","match","uniform","","","","","","","","320584.2000000477","322593.10000014305","","","","","","","","","","","","6","","stimuli/stars_6.png","199","","","","","stimuli/AF09_DO.jpg","",""
"explore-choice","115","322541","0.0-115.0","p494893","ASVRLMDNQBUD9","336OE47KI3QZCSCUXSQ8J11UOZXVWV","3IXEICO794PPS5RTRHIQ999LMOHT6W","emotion","match","uniform","","","","","","","1851.5","322594.40000009537","324445.90000009537","[""stimuli/AF10_AO.jpg"",""stimuli/AM05_HO.jpg"",""stimuli/AF09_HE.jpg"",""stimuli/WM11_DO.jpg""]","stimuli/AF10_AO.jpg","stimuli/AM05_HO.jpg","stimuli/AF09_HE.jpg","stimuli/WM11_DO.jpg","pos4","stimuli/WM11_DO.jpg","DO","WM11","3","3.5","7","8","stimuli/stars_7.png","202.5","[""AO"",""HO"",""HE"",""DO""]","[""AF10"",""AM05"",""AF09"",""WM11""]","[2,3,5,7]","[2,4,6,8]","","",""
"show-reward","116","324546","0.0-116.0","p494893","ASVRLMDNQBUD9","336OE47KI3QZCSCUXSQ8J11UOZXVWV","3IXEICO794PPS5RTRHIQ999LMOHT6W","emotion","match","uniform","","","","","","","","324951.60000014305","326955.2000000477","","","","","","","","","","","","7","","stimuli/stars_7.png","202.5","","","","","stimuli/WM11_DO.jpg","",""
"explore-choice","117","327378","0.0-117.0","p494893","ASVRLMDNQBUD9","336OE47KI3QZCSCUXSQ8J11UOZXVWV","3IXEICO794PPS5RTRHIQ999LMOHT6W","emotion","match","uniform","","","","","","","2321.600000143051","326957","329278.60000014305","[""stimuli/WM11_HE.jpg"",""stimuli/AM05_AO.jpg"",""stimuli/AF10_DO.jpg"",""stimuli/AF09_HO.jpg""]","stimuli/WM11_HE.jpg","stimuli/AM05_AO.jpg","stimuli/AF10_DO.jpg","stimuli/AF09_HO.jpg","pos3","stimuli/AF10_DO.jpg","DO","AF10","2","3.5","7","8","stimuli/stars_7.png","206","[""HE"",""AO"",""DO"",""HO""]","[""WM11"",""AM05"",""AF10"",""AF09""]","[4,4,7,5]","[6,2,8,4]","","",""
"show-reward","118","329393","0.0-118.0","p494893","ASVRLMDNQBUD9","336OE47KI3QZCSCUXSQ8J11UOZXVWV","3IXEICO794PPS5RTRHIQ999LMOHT6W","emotion","match","uniform","","","","","","","","329788.7000000477","331802","","","","","","","","","","","","7","","stimuli/stars_7.png","206","","","","","stimuli/AF10_DO.jpg","",""
"explore-choice","119","331689","0.0-119.0","p494893","ASVRLMDNQBUD9","336OE47KI3QZCSCUXSQ8J11UOZXVWV","3IXEICO794PPS5RTRHIQ999LMOHT6W","emotion","match","uniform","","","","","","","1788.1000001430511","331803.2000000477","333591.30000019073","[""stimuli/WM11_HE.jpg"",""stimuli/AF09_AO.jpg"",""stimuli/AM05_DO.jpg"",""stimuli/AF10_HO.jpg""]","stimuli/WM11_HE.jpg","stimuli/AF09_AO.jpg","stimuli/AM05_DO.jpg","stimuli/AF10_HO.jpg","pos2","stimuli/AF09_AO.jpg","AO","AF09","1","1.5","3","2","stimuli/stars_3.png","207.5","[""HE"",""AO"",""DO"",""HO""]","[""WM11"",""AF09"",""AM05"",""AF10""]","[6,3,7,5]","[6,2,8,4]","","",""
"show-reward","120","333707","0.0-120.0","p494893","ASVRLMDNQBUD9","336OE47KI3QZCSCUXSQ8J11UOZXVWV","3IXEICO794PPS5RTRHIQ999LMOHT6W","emotion","match","uniform","","","","","","","","334099.10000014305","336114.5","","","","","","","","","","","","3","","stimuli/stars_3.png","207.5","","","","","stimuli/AF09_AO.jpg","",""
"explore-choice","121","336706","0.0-121.0","p494893","ASVRLMDNQBUD9","336OE47KI3QZCSCUXSQ8J11UOZXVWV","3IXEICO794PPS5RTRHIQ999LMOHT6W","emotion","match","uniform","","","","","","","2494.2999999523163","336117.7000000477","338612","[""stimuli/AF09_HO.jpg"",""stimuli/WM11_DO.jpg"",""stimuli/AF10_HE.jpg"",""stimuli/AM05_AO.jpg""]","stimuli/AF09_HO.jpg","stimuli/WM11_DO.jpg","stimuli/AF10_HE.jpg","stimuli/AM05_AO.jpg","pos1","stimuli/AF09_HO.jpg","HO","AF09","0","2","4","4","stimuli/stars_4.png","209.5","[""HO"",""DO"",""HE"",""AO""]","[""AF09"",""WM11"",""AF10"",""AM05""]","[4,6,6,1]","[4,8,6,2]","","",""
"show-reward","122","338722","0.0-122.0","p494893","ASVRLMDNQBUD9","336OE47KI3QZCSCUXSQ8J11UOZXVWV","3IXEICO794PPS5RTRHIQ999LMOHT6W","emotion","match","uniform","","","","","","","","339116.40000009537","341130.80000019073","","","","","","","","","","","","4","","stimuli/stars_4.png","209.5","","","","","stimuli/AF09_HO.jpg","",""
"explore-choice","123","340899","0.0-123.0","p494893","ASVRLMDNQBUD9","336OE47KI3QZCSCUXSQ8J11UOZXVWV","3IXEICO794PPS5RTRHIQ999LMOHT6W","emotion","match","uniform","","","","","","","1673.0999999046326","341132.90000009537","342806","[""stimuli/AF09_DO.jpg"",""stimuli/AF10_HO.jpg"",""stimuli/WM11_HE.jpg"",""stimuli/AM05_AO.jpg""]","stimuli/AF09_DO.jpg","stimuli/AF10_HO.jpg","stimuli/WM11_HE.jpg","stimuli/AM05_AO.jpg","pos1","stimuli/AF09_DO.jpg","DO","AF09","0","4","8","8","stimuli/stars_8.png","213.5","[""DO"",""HO"",""HE"",""AO""]","[""AF09"",""AF10"",""WM11"",""AM05""]","[8,4,8,1]","[8,4,6,2]","","",""
"show-reward","124","342911","0.0-124.0","p494893","ASVRLMDNQBUD9","336OE47KI3QZCSCUXSQ8J11UOZXVWV","3IXEICO794PPS5RTRHIQ999LMOHT6W","emotion","match","uniform","","","","","","","","343308.80000019073","345319.7000000477","","","","","","","","","","","","8","","stimuli/stars_8.png","213.5","","","","","stimuli/AF09_DO.jpg","",""
"explore-choice","125","344870","0.0-125.0","p494893","ASVRLMDNQBUD9","336OE47KI3QZCSCUXSQ8J11UOZXVWV","3IXEICO794PPS5RTRHIQ999LMOHT6W","emotion","match","uniform","","","","","","","1456.0999999046326","345320.80000019073","346776.90000009537","[""stimuli/AF10_DO.jpg"",""stimuli/WM11_AO.jpg"",""stimuli/AF09_HE.jpg"",""stimuli/AM05_HO.jpg""]","stimuli/AF10_DO.jpg","stimuli/WM11_AO.jpg","stimuli/AF09_HE.jpg","stimuli/AM05_HO.jpg","pos1","stimuli/AF10_DO.jpg","DO","AF10","0","3","6","8","stimuli/stars_6.png","216.5","[""DO"",""AO"",""HE"",""HO""]","[""AF10"",""WM11"",""AF09"",""AM05""]","[6,3,6,3]","[8,2,6,4]","","",""
"show-reward","126","346882","0.0-126.0","p494893","ASVRLMDNQBUD9","336OE47KI3QZCSCUXSQ8J11UOZXVWV","3IXEICO794PPS5RTRHIQ999LMOHT6W","emotion","match","uniform","","","","","","","","347280.10000014305","349290.7000000477","","","","","","","","","","","","6","","stimuli/stars_6.png","216.5","","","","","stimuli/AF10_DO.jpg","",""
"explore-choice","127","349813","0.0-127.0","p494893","ASVRLMDNQBUD9","336OE47KI3QZCSCUXSQ8J11UOZXVWV","3IXEICO794PPS5RTRHIQ999LMOHT6W","emotion","match","uniform","","","","","","","2422.2000000476837","349292.60000014305","351714.80000019073","[""stimuli/AM05_HO.jpg"",""stimuli/WM11_HE.jpg"",""stimuli/AF10_DO.jpg"",""stimuli/AF09_AO.jpg""]","stimuli/AM05_HO.jpg","stimuli/WM11_HE.jpg","stimuli/AF10_DO.jpg","stimuli/AF09_AO.jpg","pos4","stimuli/AF09_AO.jpg","AO","AF09","3","0.5","1","2","stimuli/stars_1.png","217","[""HO"",""HE"",""DO"",""AO""]","[""AM05"",""WM11"",""AF10"",""AF09""]","[6,4,7,1]","[4,6,8,2]","","",""
"show-reward","128","351828","0.0-128.0","p494893","ASVRLMDNQBUD9","336OE47KI3QZCSCUXSQ8J11UOZXVWV","3IXEICO794PPS5RTRHIQ999LMOHT6W","emotion","match","uniform","","","","","","","","352223.2000000477","354237","","","","","","","","","","","","1","","stimuli/stars_1.png","217","","","","","stimuli/AF09_AO.jpg","",""
"explore-choice","129","354415","0.0-129.0","p494893","ASVRLMDNQBUD9","336OE47KI3QZCSCUXSQ8J11UOZXVWV","3IXEICO794PPS5RTRHIQ999LMOHT6W","emotion","match","uniform","","","","","","","2082.9000000953674","354238.5","356321.40000009537","[""stimuli/WM11_DO.jpg"",""stimuli/AF09_AO.jpg"",""stimuli/AF10_HO.jpg"",""stimuli/AM05_HE.jpg""]","stimuli/WM11_DO.jpg","stimuli/AF09_AO.jpg","stimuli/AF10_HO.jpg","stimuli/AM05_HE.jpg","pos1","stimuli/WM11_DO.jpg","DO","WM11","0","4","8","8","stimuli/stars_8.png","221","[""DO"",""AO"",""HO"",""HE""]","[""WM11"",""AF09"",""AF10"",""AM05""]","[8,1,2,8]","[8,2,4,6]","","",""
"show-reward","130","356424","0.0-130.0","p494893","ASVRLMDNQBUD9","336OE47KI3QZCSCUXSQ8J11UOZXVWV","3IXEICO794PPS5RTRHIQ999LMOHT6W","emotion","match","uniform","","","","","","","","356825.10000014305","358832.30000019073","","","","","","","","","","","","8","","stimuli/stars_8.png","221","","","","","stimuli/WM11_DO.jpg","",""
"explore-choice","131","358781","0.0-131.0","p494893","ASVRLMDNQBUD9","336OE47KI3QZCSCUXSQ8J11UOZXVWV","3IXEICO794PPS5RTRHIQ999LMOHT6W","emotion","match","uniform","","","","","","","1841.5999999046326","358833.60000014305","360675.2000000477","[""stimuli/AM05_HO.jpg"",""stimuli/AF09_DO.jpg"",""stimuli/WM11_AO.jpg"",""stimuli/AF10_HE.jpg""]","stimuli/AM05_HO.jpg","stimuli/AF09_DO.jpg","stimuli/WM11_AO.jpg","stimuli/AF10_HE.jpg","pos3","stimuli/WM11_AO.jpg","AO","WM11","2","2","4","2","stimuli/stars_4.png","223","[""HO"",""DO"",""AO"",""HE""]","[""AM05"",""AF09"",""WM11"",""AF10""]","[3,10,4,5]","[4,8,2,6]","","",""
"show-reward","132","360801","0.0-132.0","p494893","ASVRLMDNQBUD9","336OE47KI3QZCSCUXSQ8J11UOZXVWV","3IXEICO794PPS5RTRHIQ999LMOHT6W","emotion","match","uniform","","","","","","","","361191.40000009537","363208.90000009537","","","","","","","","","","","","4","","stimuli/stars_4.png","223","","","","","stimuli/WM11_AO.jpg","",""
"explore-choice","133","364222","0.0-133.0","p494893","ASVRLMDNQBUD9","336OE47KI3QZCSCUXSQ8J11UOZXVWV","3IXEICO794PPS5RTRHIQ999LMOHT6W","emotion","match","uniform","","","","","","","2918","363211","366129","[""stimuli/AF10_AO.jpg"",""stimuli/AF09_DO.jpg"",""stimuli/AM05_HE.jpg"",""stimuli/WM11_HO.jpg""]","stimuli/AF10_AO.jpg","stimuli/AF09_DO.jpg","stimuli/AM05_HE.jpg","stimuli/WM11_HO.jpg","pos2","stimuli/AF09_DO.jpg","DO","AF09","1","4.5","9","8","stimuli/stars_9.png","227.5","[""AO"",""DO"",""HE"",""HO""]","[""AF10"",""AF09"",""AM05"",""WM11""]","[2,9,5,2]","[2,8,6,4]","","",""
"show-reward","134","366231","0.0-134.0","p494893","ASVRLMDNQBUD9","336OE47KI3QZCSCUXSQ8J11UOZXVWV","3IXEICO794PPS5RTRHIQ999LMOHT6W","emotion","match","uniform","","","","","","","","366632.5","368640.10000014305","","","","","","","","","","","","9","","stimuli/stars_9.png","227.5","","","","","stimuli/AF09_DO.jpg","",""
"explore-choice","135","368517","0.0-135.0","p494893","ASVRLMDNQBUD9","336OE47KI3QZCSCUXSQ8J11UOZXVWV","3IXEICO794PPS5RTRHIQ999LMOHT6W","emotion","match","uniform","","","","","","","1782.2000000476837","368641.40000009537","370423.60000014305","[""stimuli/AM05_DO.jpg"",""stimuli/WM11_HO.jpg"",""stimuli/AF10_HE.jpg"",""stimuli/AF09_AO.jpg""]","stimuli/AM05_DO.jpg","stimuli/WM11_HO.jpg","stimuli/AF10_HE.jpg","stimuli/AF09_AO.jpg","pos1","stimuli/AM05_DO.jpg","DO","AM05","0","4.5","9","8","stimuli/stars_9.png","232","[""DO"",""HO"",""HE"",""AO""]","[""AM05"",""WM11"",""AF10"",""AF09""]","[9,5,8,1]","[8,4,6,2]","","",""
"show-reward","136","370527","0.0-136.0","p494893","ASVRLMDNQBUD9","336OE47KI3QZCSCUXSQ8J11UOZXVWV","3IXEICO794PPS5RTRHIQ999LMOHT6W","emotion","match","uniform","","","","","","","","370927.40000009537","372936.10000014305","","","","","","","","","","","","9","","stimuli/stars_9.png","232","","","","","stimuli/AM05_DO.jpg","",""
"explore-choice","137","373616","0.0-137.0","p494893","ASVRLMDNQBUD9","336OE47KI3QZCSCUXSQ8J11UOZXVWV","3IXEICO794PPS5RTRHIQ999LMOHT6W","emotion","match","uniform","","","","","","","2586.5999999046326","372937.80000019073","375524.40000009537","[""stimuli/AF10_HE.jpg"",""stimuli/WM11_HO.jpg"",""stimuli/AM05_AO.jpg"",""stimuli/AF09_DO.jpg""]","stimuli/AF10_HE.jpg","stimuli/WM11_HO.jpg","stimuli/AM05_AO.jpg","stimuli/AF09_DO.jpg","pos4","stimuli/AF09_DO.jpg","DO","AF09","3","4","8","8","stimuli/stars_8.png","236","[""HE"",""HO"",""AO"",""DO""]","[""AF10"",""WM11"",""AM05"",""AF09""]","[4,6,4,8]","[6,4,2,8]","","",""
"show-reward","138","375627","0.0-138.0","p494893","ASVRLMDNQBUD9","336OE47KI3QZCSCUXSQ8J11UOZXVWV","3IXEICO794PPS5RTRHIQ999LMOHT6W","emotion","match","uniform","","","","","","","","376026.40000009537","378035.40000009537","","","","","","","","","","","","8","","stimuli/stars_8.png","236","","","","","stimuli/AF09_DO.jpg","",""
"explore-choice","139","378116","0.0-139.0","p494893","ASVRLMDNQBUD9","336OE47KI3QZCSCUXSQ8J11UOZXVWV","3IXEICO794PPS5RTRHIQ999LMOHT6W","emotion","match","uniform","","","","","","","1982.7000000476837","378036.90000009537","380019.60000014305","[""stimuli/AF09_HE.jpg"",""stimuli/AM05_DO.jpg"",""stimuli/AF10_HO.jpg"",""stimuli/WM11_AO.jpg""]","stimuli/AF09_HE.jpg","stimuli/AM05_DO.jpg","stimuli/AF10_HO.jpg","stimuli/WM11_AO.jpg","pos2","stimuli/AM05_DO.jpg","DO","AM05","1","3.5","7","8","stimuli/stars_7.png","239.5","[""HE"",""DO"",""HO"",""AO""]","[""AF09"",""AM05"",""AF10"",""WM11""]","[7,7,4,4]","[6,8,4,2]","","",""
"show-reward","140","380122","0.0-140.0","p494893","ASVRLMDNQBUD9","336OE47KI3QZCSCUXSQ8J11UOZXVWV","3IXEICO794PPS5RTRHIQ999LMOHT6W","emotion","match","uniform","","","","","","","","380526.30000019073","382530.10000014305","","","","","","","","","","","","7","","stimuli/stars_7.png","239.5","","","","","stimuli/AM05_DO.jpg","",""
"explore-choice","141","383065","0.0-141.0","p494893","ASVRLMDNQBUD9","336OE47KI3QZCSCUXSQ8J11UOZXVWV","3IXEICO794PPS5RTRHIQ999LMOHT6W","emotion","match","uniform","","","","","","","2427.7999999523163","382531.7000000477","384959.5","[""stimuli/AF09_AO.jpg"",""stimuli/AM05_HO.jpg"",""stimuli/AF10_HE.jpg"",""stimuli/WM11_DO.jpg""]","stimuli/AF09_AO.jpg","stimuli/AM05_HO.jpg","stimuli/AF10_HE.jpg","stimuli/WM11_DO.jpg","pos4","stimuli/WM11_DO.jpg","DO","WM11","3","3.5","7","8","stimuli/stars_7.png","243","[""AO"",""HO"",""HE"",""DO""]","[""AF09"",""AM05"",""AF10"",""WM11""]","[4,4,5,7]","[2,4,6,8]","","",""
"show-reward","142","385073","0.0-142.0","p494893","ASVRLMDNQBUD9","336OE47KI3QZCSCUXSQ8J11UOZXVWV","3IXEICO794PPS5RTRHIQ999LMOHT6W","emotion","match","uniform","","","","","","","","385476","387481.80000019073","","","","","","","","","","","","7","","stimuli/stars_7.png","243","","","","","stimuli/WM11_DO.jpg","",""
"explore-choice","143","388330","0.0-143.0","p494893","ASVRLMDNQBUD9","336OE47KI3QZCSCUXSQ8J11UOZXVWV","3IXEICO794PPS5RTRHIQ999LMOHT6W","emotion","match","uniform","","","","","","","2738.7000000476837","387496.90000009537","390235.60000014305","[""stimuli/AF10_DO.jpg"",""stimuli/AF09_HO.jpg"",""stimuli/WM11_AO.jpg"",""stimuli/AM05_HE.jpg""]","stimuli/AF10_DO.jpg","stimuli/AF09_HO.jpg","stimuli/WM11_AO.jpg","stimuli/AM05_HE.jpg","pos1","stimuli/AF10_DO.jpg","DO","AF10","0","3.5","7","8","stimuli/stars_7.png","246.5","[""DO"",""HO"",""AO"",""HE""]","[""AF10"",""AF09"",""WM11"",""AM05""]","[7,6,1,7]","[8,4,2,6]","","",""
"show-reward","144","390340","0.0-144.0","p494893","ASVRLMDNQBUD9","336OE47KI3QZCSCUXSQ8J11UOZXVWV","3IXEICO794PPS5RTRHIQ999LMOHT6W","emotion","match","uniform","","","","","","","","390740.2000000477","392748.2000000477","","","","","","","","","","","","7","","stimuli/stars_7.png","246.5","","","","","stimuli/AF10_DO.jpg","",""
"explore-choice","145","394747","0.0-145.0","p494893","ASVRLMDNQBUD9","336OE47KI3QZCSCUXSQ8J11UOZXVWV","3IXEICO794PPS5RTRHIQ999LMOHT6W","emotion","match","uniform","","","","","","","3904.7000000476837","392749.90000009537","396654.60000014305","[""stimuli/AF09_AO.jpg"",""stimuli/WM11_HO.jpg"",""stimuli/AM05_HE.jpg"",""stimuli/AF10_DO.jpg""]","stimuli/AF09_AO.jpg","stimuli/WM11_HO.jpg","stimuli/AM05_HE.jpg","stimuli/AF10_DO.jpg","pos4","stimuli/AF10_DO.jpg","DO","AF10","3","3.5","7","8","stimuli/stars_7.png","250","[""AO"",""HO"",""HE"",""DO""]","[""AF09"",""WM11"",""AM05"",""AF10""]","[0,4,8,7]","[2,4,6,8]","","",""
"show-reward","146","396751","0.0-146.0","p494893","ASVRLMDNQBUD9","336OE47KI3QZCSCUXSQ8J11UOZXVWV","3IXEICO794PPS5RTRHIQ999LMOHT6W","emotion","match","uniform","","","","","","","","397156.60000014305","399159.80000019073","","","","","","","","","","","","7","","stimuli/stars_7.png","250","","","","","stimuli/AF10_DO.jpg","",""
"explore-choice","147","398839","0.0-147.0","p494893","ASVRLMDNQBUD9","336OE47KI3QZCSCUXSQ8J11UOZXVWV","3IXEICO794PPS5RTRHIQ999LMOHT6W","emotion","match","uniform","","","","","","","1577.5","399161.5","400739","[""stimuli/WM11_DO.jpg"",""stimuli/AM05_AO.jpg"",""stimuli/AF09_HE.jpg"",""stimuli/AF10_HO.jpg""]","stimuli/WM11_DO.jpg","stimuli/AM05_AO.jpg","stimuli/AF09_HE.jpg","stimuli/AF10_HO.jpg","pos1","stimuli/WM11_DO.jpg","DO","WM11","0","4.5","9","8","stimuli/stars_9.png","254.5","[""DO"",""AO"",""HE"",""HO""]","[""WM11"",""AM05"",""AF09"",""AF10""]","[9,0,8,5]","[8,2,6,4]","","",""
"show-reward","148","400858","0.0-148.0","p494893","ASVRLMDNQBUD9","336OE47KI3QZCSCUXSQ8J11UOZXVWV","3IXEICO794PPS5RTRHIQ999LMOHT6W","emotion","match","uniform","","","","","","","","401249.30000019073","403266.90000009537","","","","","","","","","","","","9","","stimuli/stars_9.png","254.5","","","","","stimuli/WM11_DO.jpg","",""
"explore-choice","149","403129","0.0-149.0","p494893","ASVRLMDNQBUD9","336OE47KI3QZCSCUXSQ8J11UOZXVWV","3IXEICO794PPS5RTRHIQ999LMOHT6W","emotion","match","uniform","","","","","","","1760.7999999523163","403268.2000000477","405029","[""stimuli/AM05_HE.jpg"",""stimuli/AF10_AO.jpg"",""stimuli/WM11_DO.jpg"",""stimuli/AF09_HO.jpg""]","stimuli/AM05_HE.jpg","stimuli/AF10_AO.jpg","stimuli/WM11_DO.jpg","stimuli/AF09_HO.jpg","pos3","stimuli/WM11_DO.jpg","DO","WM11","2","4","8","8","stimuli/stars_8.png","258.5","[""HE"",""AO"",""DO"",""HO""]","[""AM05"",""AF10"",""WM11"",""AF09""]","[8,0,8,2]","[6,2,8,4]","","",""
"show-reward","150","405139","0.0-150.0","p494893","ASVRLMDNQBUD9","336OE47KI3QZCSCUXSQ8J11UOZXVWV","3IXEICO794PPS5RTRHIQ999LMOHT6W","emotion","match","uniform","","","","","","","","405538.7000000477","407547","","","","","","","","","","","","8","","stimuli/stars_8.png","258.5","","","","","stimuli/WM11_DO.jpg","",""
"explore-choice","151","407909","0.0-151.0","p494893","ASVRLMDNQBUD9","336OE47KI3QZCSCUXSQ8J11UOZXVWV","3IXEICO794PPS5RTRHIQ999LMOHT6W","emotion","match","uniform","","","","","","","2267.5","407548.90000009537","409816.40000009537","[""stimuli/AM05_DO.jpg"",""stimuli/WM11_AO.jpg"",""stimuli/AF09_HO.jpg"",""stimuli/AF10_HE.jpg""]","stimuli/AM05_DO.jpg","stimuli/WM11_AO.jpg","stimuli/AF09_HO.jpg","stimuli/AF10_HE.jpg","pos1","stimuli/AM05_DO.jpg","DO","AM05","0","3.5","7","8","stimuli/stars_7.png","262","[""DO"",""AO"",""HO"",""HE""]","[""AM05"",""WM11"",""AF09"",""AF10""]","[7,0,4,8]","[8,2,4,6]","","",""
"show-reward","152","409914","0.0-152.0","p494893","ASVRLMDNQBUD9","336OE47KI3QZCSCUXSQ8J11UOZXVWV","3IXEICO794PPS5RTRHIQ999LMOHT6W","emotion","match","uniform","","","","","","","","410319.2000000477","412322.90000009537","","","","","","","","","","","","7","","stimuli/stars_7.png","262","","","","","stimuli/AM05_DO.jpg","",""
"explore-choice","153","412753","0.0-153.0","p494893","ASVRLMDNQBUD9","336OE47KI3QZCSCUXSQ8J11UOZXVWV","3IXEICO794PPS5RTRHIQ999LMOHT6W","emotion","match","uniform","","","","","","","2336.7999999523163","412324.10000014305","414660.90000009537","[""stimuli/AF10_HO.jpg"",""stimuli/WM11_HE.jpg"",""stimuli/AM05_AO.jpg"",""stimuli/AF09_DO.jpg""]","stimuli/AF10_HO.jpg","stimuli/WM11_HE.jpg","stimuli/AM05_AO.jpg","stimuli/AF09_DO.jpg","pos4","stimuli/AF09_DO.jpg","DO","AF09","3","4","8","8","stimuli/stars_8.png","266","[""HO"",""HE"",""AO"",""DO""]","[""AF10"",""WM11"",""AM05"",""AF09""]","[4,8,1,8]","[4,6,2,8]","","",""
"show-reward","154","414769","0.0-154.0","p494893","ASVRLMDNQBUD9","336OE47KI3QZCSCUXSQ8J11UOZXVWV","3IXEICO794PPS5RTRHIQ999LMOHT6W","emotion","match","uniform","","","","","","","","415162.5","417177.30000019073","","","","","","","","","","","","8","","stimuli/stars_8.png","266","","","","","stimuli/AF09_DO.jpg","",""
"explore-choice","155","418411","0.0-155.0","p494893","ASVRLMDNQBUD9","336OE47KI3QZCSCUXSQ8J11UOZXVWV","3IXEICO794PPS5RTRHIQ999LMOHT6W","emotion","match","uniform","","","","","","","3136.2000000476837","417178.7000000477","420314.90000009537","[""stimuli/AF10_AO.jpg"",""stimuli/AM05_DO.jpg"",""stimuli/AF09_HE.jpg"",""stimuli/WM11_HO.jpg""]","stimuli/AF10_AO.jpg","stimuli/AM05_DO.jpg","stimuli/AF09_HE.jpg","stimuli/WM11_HO.jpg","pos2","stimuli/AM05_DO.jpg","DO","AM05","1","4.5","9","8","stimuli/stars_9.png","270.5","[""AO"",""DO"",""HE"",""HO""]","[""AF10"",""AM05"",""AF09"",""WM11""]","[4,9,7,3]","[2,8,6,4]","","",""
"show-reward","156","420420","0.0-156.0","p494893","ASVRLMDNQBUD9","336OE47KI3QZCSCUXSQ8J11UOZXVWV","3IXEICO794PPS5RTRHIQ999LMOHT6W","emotion","match","uniform","","","","","","","","420821.30000019073","422828.5","","","","","","","","","","","","9","","stimuli/stars_9.png","270.5","","","","","stimuli/AM05_DO.jpg","",""
"explore-choice","157","423263","0.0-157.0","p494893","ASVRLMDNQBUD9","336OE47KI3QZCSCUXSQ8J11UOZXVWV","3IXEICO794PPS5RTRHIQ999LMOHT6W","emotion","match","uniform","","","","","","","2339.199999809265","422830.30000019073","425169.5","[""stimuli/AF09_HO.jpg"",""stimuli/AF10_AO.jpg"",""stimuli/AM05_DO.jpg"",""stimuli/WM11_HE.jpg""]","stimuli/AF09_HO.jpg","stimuli/AF10_AO.jpg","stimuli/AM05_DO.jpg","stimuli/WM11_HE.jpg","pos3","stimuli/AM05_DO.jpg","DO","AM05","2","4.5","9","8","stimuli/stars_9.png","275","[""HO"",""AO"",""DO"",""HE""]","[""AF09"",""AF10"",""AM05"",""WM11""]","[5,1,9,4]","[4,2,8,6]","","",""
"show-reward","158","425276","0.0-158.0","p494893","ASVRLMDNQBUD9","336OE47KI3QZCSCUXSQ8J11UOZXVWV","3IXEICO794PPS5RTRHIQ999LMOHT6W","emotion","match","uniform","","","","","","","","425672.80000019073","427684.30000019073","","","","","","","","","","","","9","","stimuli/stars_9.png","275","","","","","stimuli/AM05_DO.jpg","",""
"explore-choice","159","427957","0.0-159.0","p494893","ASVRLMDNQBUD9","336OE47KI3QZCSCUXSQ8J11UOZXVWV","3IXEICO794PPS5RTRHIQ999LMOHT6W","emotion","match","uniform","","","","","","","2167.5999999046326","427691.30000019073","429858.90000009537","[""stimuli/AM05_HE.jpg"",""stimuli/AF09_HO.jpg"",""stimuli/AF10_AO.jpg"",""stimuli/WM11_DO.jpg""]","stimuli/AM05_HE.jpg","stimuli/AF09_HO.jpg","stimuli/AF10_AO.jpg","stimuli/WM11_DO.jpg","pos4","stimuli/WM11_DO.jpg","DO","WM11","3","4","8","8","stimuli/stars_8.png","279","[""HE"",""HO"",""AO"",""DO""]","[""AM05"",""AF09"",""AF10"",""WM11""]","[8,2,0,8]","[6,4,2,8]","","",""
"show-reward","160","429964","0.0-160.0","p494893","ASVRLMDNQBUD9","336OE47KI3QZCSCUXSQ8J11UOZXVWV","3IXEICO794PPS5RTRHIQ999LMOHT6W","emotion","match","uniform","","","","","","","","430366.5","432372.30000019073","","","","","","","","","","","","8","","stimuli/stars_8.png","279","","","","","stimuli/WM11_DO.jpg","",""
"explore-choice","161","434327","0.0-161.0","p494893","ASVRLMDNQBUD9","336OE47KI3QZCSCUXSQ8J11UOZXVWV","3IXEICO794PPS5RTRHIQ999LMOHT6W","emotion","match","uniform","","","","","","","3859.7000000476837","432373.40000009537","436233.10000014305","[""stimuli/AF10_DO.jpg"",""stimuli/AM05_HO.jpg"",""stimuli/WM11_HE.jpg"",""stimuli/AF09_AO.jpg""]","stimuli/AF10_DO.jpg","stimuli/AM05_HO.jpg","stimuli/WM11_HE.jpg","stimuli/AF09_AO.jpg","pos1","stimuli/AF10_DO.jpg","DO","AF10","0","3.5","7","8","stimuli/stars_7.png","282.5","[""DO"",""HO"",""HE"",""AO""]","[""AF10"",""AM05"",""WM11"",""AF09""]","[7,6,4,1]","[8,4,6,2]","","",""
"show-reward","162","436342","0.0-162.0","p494893","ASVRLMDNQBUD9","336OE47KI3QZCSCUXSQ8J11UOZXVWV","3IXEICO794PPS5RTRHIQ999LMOHT6W","emotion","match","uniform","","","","","","","","436736.7000000477","438750.40000009537","","","","","","","","","","","","7","","stimuli/stars_7.png","282.5","","","","","stimuli/AF10_DO.jpg","",""
"explore-choice","163","438488","0.0-163.0","p494893","ASVRLMDNQBUD9","336OE47KI3QZCSCUXSQ8J11UOZXVWV","3IXEICO794PPS5RTRHIQ999LMOHT6W","emotion","match","uniform","","","","","","","1637","438751.60000014305","440388.60000014305","[""stimuli/AF09_AO.jpg"",""stimuli/AM05_DO.jpg"",""stimuli/WM11_HE.jpg"",""stimuli/AF10_HO.jpg""]","stimuli/AF09_AO.jpg","stimuli/AM05_DO.jpg","stimuli/WM11_HE.jpg","stimuli/AF10_HO.jpg","pos2","stimuli/AM05_DO.jpg","DO","AM05","1","3.5","7","8","stimuli/stars_7.png","286","[""AO"",""DO"",""HE"",""HO""]","[""AF09"",""AM05"",""WM11"",""AF10""]","[3,7,6,5]","[2,8,6,4]","","",""
"show-reward","164","440499","0.0-164.0","p494893","ASVRLMDNQBUD9","336OE47KI3QZCSCUXSQ8J11UOZXVWV","3IXEICO794PPS5RTRHIQ999LMOHT6W","emotion","match","uniform","","","","","","","","440897.30000019073","442907.7000000477","","","","","","","","","","","","7","","stimuli/stars_7.png","286","","","","","stimuli/AM05_DO.jpg","",""
"explore-choice","165","442803","0.0-165.0","p494893","ASVRLMDNQBUD9","336OE47KI3QZCSCUXSQ8J11UOZXVWV","3IXEICO794PPS5RTRHIQ999LMOHT6W","emotion","match","uniform","","","","","","","1801.1000001430511","442909","444710.10000014305","[""stimuli/AF10_HO.jpg"",""stimuli/AF09_HE.jpg"",""stimuli/AM05_DO.jpg"",""stimuli/WM11_AO.jpg""]","stimuli/AF10_HO.jpg","stimuli/AF09_HE.jpg","stimuli/AM05_DO.jpg","stimuli/WM11_AO.jpg","pos3","stimuli/AM05_DO.jpg","DO","AM05","2","3.5","7","8","stimuli/stars_7.png","289.5","[""HO"",""HE"",""DO"",""AO""]","[""AF10"",""AF09"",""AM05"",""WM11""]","[4,7,7,4]","[4,6,8,2]","","",""
"show-reward","166","444811","0.0-166.0","p494893","ASVRLMDNQBUD9","336OE47KI3QZCSCUXSQ8J11UOZXVWV","3IXEICO794PPS5RTRHIQ999LMOHT6W","emotion","match","uniform","","","","","","","","445212.40000009537","447218.90000009537","","","","","","","","","","","","7","","stimuli/stars_7.png","289.5","","","","","stimuli/AM05_DO.jpg","",""
"explore-choice","167","447091","0.0-167.0","p494893","ASVRLMDNQBUD9","336OE47KI3QZCSCUXSQ8J11UOZXVWV","3IXEICO794PPS5RTRHIQ999LMOHT6W","emotion","match","uniform","","","","","","","1777.3000001907349","447220.5","448997.80000019073","[""stimuli/AF10_HO.jpg"",""stimuli/WM11_DO.jpg"",""stimuli/AM05_AO.jpg"",""stimuli/AF09_HE.jpg""]","stimuli/AF10_HO.jpg","stimuli/WM11_DO.jpg","stimuli/AM05_AO.jpg","stimuli/AF09_HE.jpg","pos2","stimuli/WM11_DO.jpg","DO","WM11","1","4.5","9","8","stimuli/stars_9.png","294","[""HO"",""DO"",""AO"",""HE""]","[""AF10"",""WM11"",""AM05"",""AF09""]","[5,9,0,8]","[4,8,2,6]","","",""
"show-reward","168","449107","0.0-168.0","p494893","ASVRLMDNQBUD9","336OE47KI3QZCSCUXSQ8J11UOZXVWV","3IXEICO794PPS5RTRHIQ999LMOHT6W","emotion","match","uniform","","","","","","","","449500.80000019073","451514.90000009537","","","","","","","","","","","","9","","stimuli/stars_9.png","294","","","","","stimuli/WM11_DO.jpg","",""
"explore-choice","169","452959","0.0-169.0","p494893","ASVRLMDNQBUD9","336OE47KI3QZCSCUXSQ8J11UOZXVWV","3IXEICO794PPS5RTRHIQ999LMOHT6W","emotion","match","uniform","","","","","","","3342.2999999523163","451516.2000000477","454858.5","[""stimuli/AF10_AO.jpg"",""stimuli/AF09_HE.jpg"",""stimuli/WM11_DO.jpg"",""stimuli/AM05_HO.jpg""]","stimuli/AF10_AO.jpg","stimuli/AF09_HE.jpg","stimuli/WM11_DO.jpg","stimuli/AM05_HO.jpg","pos3","stimuli/WM11_DO.jpg","DO","WM11","2","3.5","7","8","stimuli/stars_7.png","297.5","[""AO"",""HE"",""DO"",""HO""]","[""AF10"",""AF09"",""WM11"",""AM05""]","[2,5,7,3]","[2,6,8,4]","","",""
"show-reward","170","454964","0.0-170.0","p494893","ASVRLMDNQBUD9","336OE47KI3QZCSCUXSQ8J11UOZXVWV","3IXEICO794PPS5RTRHIQ999LMOHT6W","emotion","match","uniform","","","","","","","","455368.2000000477","457371.90000009537","","","","","","","","","","","","7","","stimuli/stars_7.png","297.5","","","","","stimuli/WM11_DO.jpg","",""
"explore-choice","171","457516","0.0-171.0","p494893","ASVRLMDNQBUD9","336OE47KI3QZCSCUXSQ8J11UOZXVWV","3IXEICO794PPS5RTRHIQ999LMOHT6W","emotion","match","uniform","","","","","","","2050.2000000476837","457373","459423.2000000477","[""stimuli/AF10_HE.jpg"",""stimuli/AM05_AO.jpg"",""stimuli/AF09_HO.jpg"",""stimuli/WM11_DO.jpg""]","stimuli/AF10_HE.jpg","stimuli/AM05_AO.jpg","stimuli/AF09_HO.jpg","stimuli/WM11_DO.jpg","pos4","stimuli/WM11_DO.jpg","DO","WM11","3","3","6","8","stimuli/stars_6.png","300.5","[""HE"",""AO"",""HO"",""DO""]","[""AF10"",""AM05"",""AF09"",""WM11""]","[6,1,4,6]","[6,2,4,8]","","",""
"show-reward","172","459526","0.0-172.0","p494893","ASVRLMDNQBUD9","336OE47KI3QZCSCUXSQ8J11UOZXVWV","3IXEICO794PPS5RTRHIQ999LMOHT6W","emotion","match","uniform","","","","","","","","459925","461934.40000009537","","","","","","","","","","","","6","","stimuli/stars_6.png","300.5","","","","","stimuli/WM11_DO.jpg","",""
"explore-choice","173","462696","0.0-173.0","p494893","ASVRLMDNQBUD9","336OE47KI3QZCSCUXSQ8J11UOZXVWV","3IXEICO794PPS5RTRHIQ999LMOHT6W","emotion","match","uniform","","","","","","","2666.899999856949","461935.60000014305","464602.5","[""stimuli/WM11_AO.jpg"",""stimuli/AF09_HE.jpg"",""stimuli/AF10_DO.jpg"",""stimuli/AM05_HO.jpg""]","stimuli/WM11_AO.jpg","stimuli/AF09_HE.jpg","stimuli/AF10_DO.jpg","stimuli/AM05_HO.jpg","pos1","stimuli/WM11_AO.jpg","AO","WM11","0","1.5","3","2","stimuli/stars_3.png","302","[""AO"",""HE"",""DO"",""HO""]","[""WM11"",""AF09"",""AF10"",""AM05""]","[3,6,6,3]","[2,6,8,4]","","",""
"show-reward","174","464708","0.0-174.0","p494893","ASVRLMDNQBUD9","336OE47KI3QZCSCUXSQ8J11UOZXVWV","3IXEICO794PPS5RTRHIQ999LMOHT6W","emotion","match","uniform","","","","","","","","465106.2000000477","467115.80000019073","","","","","","","","","","","","3","","stimuli/stars_3.png","302","","","","","stimuli/WM11_AO.jpg","",""
"explore-choice","175","468066","0.0-175.0","p494893","ASVRLMDNQBUD9","336OE47KI3QZCSCUXSQ8J11UOZXVWV","3IXEICO794PPS5RTRHIQ999LMOHT6W","emotion","match","uniform","","","","","","","2853.399999856949","467116.80000019073","469970.2000000477","[""stimuli/AF09_HO.jpg"",""stimuli/AM05_AO.jpg"",""stimuli/WM11_HE.jpg"",""stimuli/AF10_DO.jpg""]","stimuli/AF09_HO.jpg","stimuli/AM05_AO.jpg","stimuli/WM11_HE.jpg","stimuli/AF10_DO.jpg","pos4","stimuli/AF10_DO.jpg","DO","AF10","3","3.5","7","8","stimuli/stars_7.png","305.5","[""HO"",""AO"",""HE"",""DO""]","[""AF09"",""AM05"",""WM11"",""AF10""]","[5,4,4,7]","[4,2,6,8]","","",""
"show-reward","176","470073","0.0-176.0","p494893","ASVRLMDNQBUD9","336OE47KI3QZCSCUXSQ8J11UOZXVWV","3IXEICO794PPS5RTRHIQ999LMOHT6W","emotion","match","uniform","","","","","","","","470475.90000009537","472481","","","","","","","","","","","","7","","stimuli/stars_7.png","305.5","","","","","stimuli/AF10_DO.jpg","",""
"explore-choice","177","473262","0.0-177.0","p494893","ASVRLMDNQBUD9","336OE47KI3QZCSCUXSQ8J11UOZXVWV","3IXEICO794PPS5RTRHIQ999LMOHT6W","emotion","match","uniform","","","","","","","2679.5","472482.2000000477","475161.7000000477","[""stimuli/AF10_DO.jpg"",""stimuli/AF09_AO.jpg"",""stimuli/AM05_HE.jpg"",""stimuli/WM11_HO.jpg""]","stimuli/AF10_DO.jpg","stimuli/AF09_AO.jpg","stimuli/AM05_HE.jpg","stimuli/WM11_HO.jpg","pos2","stimuli/AF09_AO.jpg","AO","AF09","1","0","0","2","stimuli/stars_0.png","305.5","[""DO"",""AO"",""HE"",""HO""]","[""AF10"",""AF09"",""AM05"",""WM11""]","[7,0,8,4]","[8,2,6,4]","","",""
"show-reward","178","475267","0.0-178.0","p494893","ASVRLMDNQBUD9","336OE47KI3QZCSCUXSQ8J11UOZXVWV","3IXEICO794PPS5RTRHIQ999LMOHT6W","emotion","match","uniform","","","","","","","","475672.30000019073","477675.5","","","","","","","","","","","","0","","stimuli/stars_0.png","305.5","","","","","stimuli/AF09_AO.jpg","",""
"explore-choice","179","478602","0.0-179.0","p494893","ASVRLMDNQBUD9","336OE47KI3QZCSCUXSQ8J11UOZXVWV","3IXEICO794PPS5RTRHIQ999LMOHT6W","emotion","match","uniform","","","","","","","2825.2999999523163","477676.7000000477","480502","[""stimuli/AF10_AO.jpg"",""stimuli/WM11_HO.jpg"",""stimuli/AM05_HE.jpg"",""stimuli/AF09_DO.jpg""]","stimuli/AF10_AO.jpg","stimuli/WM11_HO.jpg","stimuli/AM05_HE.jpg","stimuli/AF09_DO.jpg","pos4","stimuli/AF09_DO.jpg","DO","AF09","3","4.5","9","8","stimuli/stars_9.png","310","[""AO"",""HO"",""HE"",""DO""]","[""AF10"",""WM11"",""AM05"",""AF09""]","[2,2,5,9]","[2,4,6,8]","","",""
"show-reward","180","480607","0.0-180.0","p494893","ASVRLMDNQBUD9","336OE47KI3QZCSCUXSQ8J11UOZXVWV","3IXEICO794PPS5RTRHIQ999LMOHT6W","emotion","match","uniform","","","","","","","","481012.5","483015.90000009537","","","","","","","","","","","","9","","stimuli/stars_9.png","310","","","","","stimuli/AF09_DO.jpg","",""
"explore-choice","181","483412","0.0-181.0","p494893","ASVRLMDNQBUD9","336OE47KI3QZCSCUXSQ8J11UOZXVWV","3IXEICO794PPS5RTRHIQ999LMOHT6W","emotion","match","uniform","","","","","","","2291.399999856949","483016.80000019073","485308.2000000477","[""stimuli/AF09_AO.jpg"",""stimuli/AF10_HE.jpg"",""stimuli/WM11_HO.jpg"",""stimuli/AM05_DO.jpg""]","stimuli/AF09_AO.jpg","stimuli/AF10_HE.jpg","stimuli/WM11_HO.jpg","stimuli/AM05_DO.jpg","pos4","stimuli/AM05_DO.jpg","DO","AM05","3","4.5","9","8","stimuli/stars_9.png","314.5","[""AO"",""HE"",""HO"",""DO""]","[""AF09"",""AF10"",""WM11"",""AM05""]","[1,8,5,9]","[2,6,4,8]","","",""
"show-reward","182","485419","0.0-182.0","p494893","ASVRLMDNQBUD9","336OE47KI3QZCSCUXSQ8J11UOZXVWV","3IXEICO794PPS5RTRHIQ999LMOHT6W","emotion","match","uniform","","","","","","","","485822.10000014305","487827.5","","","","","","","","","","","","9","","stimuli/stars_9.png","314.5","","","","","stimuli/AM05_DO.jpg","",""
"explore-choice","183","488629","0.0-183.0","p494893","ASVRLMDNQBUD9","336OE47KI3QZCSCUXSQ8J11UOZXVWV","3IXEICO794PPS5RTRHIQ999LMOHT6W","emotion","match","uniform","","","","","","","2708","487829","490537","[""stimuli/AF10_DO.jpg"",""stimuli/AF09_HE.jpg"",""stimuli/WM11_HO.jpg"",""stimuli/AM05_AO.jpg""]","stimuli/AF10_DO.jpg","stimuli/AF09_HE.jpg","stimuli/WM11_HO.jpg","stimuli/AM05_AO.jpg","pos1","stimuli/AF10_DO.jpg","DO","AF10","0","4.5","9","8","stimuli/stars_9.png","319","[""DO"",""HE"",""HO"",""AO""]","[""AF10"",""AF09"",""WM11"",""AM05""]","[9,5,2,3]","[8,6,4,2]","","",""
"show-reward","184","490636","0.0-184.0","p494893","ASVRLMDNQBUD9","336OE47KI3QZCSCUXSQ8J11UOZXVWV","3IXEICO794PPS5RTRHIQ999LMOHT6W","emotion","match","uniform","","","","","","","","491040.10000014305","493044.5","","","","","","","","","","","","9","","stimuli/stars_9.png","319","","","","","stimuli/AF10_DO.jpg","",""
"explore-choice","185","492970","0.0-185.0","p494893","ASVRLMDNQBUD9","336OE47KI3QZCSCUXSQ8J11UOZXVWV","3IXEICO794PPS5RTRHIQ999LMOHT6W","emotion","match","uniform","","","","","","","1826.7000000476837","493046.2000000477","494872.90000009537","[""stimuli/AM05_HE.jpg"",""stimuli/WM11_DO.jpg"",""stimuli/AF09_AO.jpg"",""stimuli/AF10_HO.jpg""]","stimuli/AM05_HE.jpg","stimuli/WM11_DO.jpg","stimuli/AF09_AO.jpg","stimuli/AF10_HO.jpg","pos2","stimuli/WM11_DO.jpg","DO","WM11","1","4","8","8","stimuli/stars_8.png","323","[""HE"",""DO"",""AO"",""HO""]","[""AM05"",""WM11"",""AF09"",""AF10""]","[8,8,1,2]","[6,8,2,4]","","",""
"show-reward","186","494981","0.0-186.0","p494893","ASVRLMDNQBUD9","336OE47KI3QZCSCUXSQ8J11UOZXVWV","3IXEICO794PPS5RTRHIQ999LMOHT6W","emotion","match","uniform","","","","","","","","495380.7000000477","497389.90000009537","","","","","","","","","","","","8","","stimuli/stars_8.png","323","","","","","stimuli/WM11_DO.jpg","",""
"explore-choice","187","498388","0.0-187.0","p494893","ASVRLMDNQBUD9","336OE47KI3QZCSCUXSQ8J11UOZXVWV","3IXEICO794PPS5RTRHIQ999LMOHT6W","emotion","match","uniform","","","","","","","2905.5","497391.2000000477","500296.7000000477","[""stimuli/WM11_AO.jpg"",""stimuli/AF10_DO.jpg"",""stimuli/AF09_HO.jpg"",""stimuli/AM05_HE.jpg""]","stimuli/WM11_AO.jpg","stimuli/AF10_DO.jpg","stimuli/AF09_HO.jpg","stimuli/AM05_HE.jpg","pos2","stimuli/AF10_DO.jpg","DO","AF10","1","3.5","7","8","stimuli/stars_7.png","326.5","[""AO"",""DO"",""HO"",""HE""]","[""WM11"",""AF10"",""AF09"",""AM05""]","[1,7,6,7]","[2,8,4,6]","","",""
"show-reward","188","500397","0.0-188.0","p494893","ASVRLMDNQBUD9","336OE47KI3QZCSCUXSQ8J11UOZXVWV","3IXEICO794PPS5RTRHIQ999LMOHT6W","emotion","match","uniform","","","","","","","","500798","502805.80000019073","","","","","","","","","","","","7","","stimuli/stars_7.png","326.5","","","","","stimuli/AF10_DO.jpg","",""
"explore-choice","189","503269","0.0-189.0","p494893","ASVRLMDNQBUD9","336OE47KI3QZCSCUXSQ8J11UOZXVWV","3IXEICO794PPS5RTRHIQ999LMOHT6W","emotion","match","uniform","","","","","","","2369.9000000953674","502807.2000000477","505177.10000014305","[""stimuli/AF09_DO.jpg"",""stimuli/AM05_HO.jpg"",""stimuli/AF10_AO.jpg"",""stimuli/WM11_HE.jpg""]","stimuli/AF09_DO.jpg","stimuli/AM05_HO.jpg","stimuli/AF10_AO.jpg","stimuli/WM11_HE.jpg","pos1","stimuli/AF09_DO.jpg","DO","AF09","0","3","6","8","stimuli/stars_6.png","329.5","[""DO"",""HO"",""AO"",""HE""]","[""AF09"",""AM05"",""AF10"",""WM11""]","[6,4,1,5]","[8,4,2,6]","","",""
"show-reward","190","505284","0.0-190.0","p494893","ASVRLMDNQBUD9","336OE47KI3QZCSCUXSQ8J11UOZXVWV","3IXEICO794PPS5RTRHIQ999LMOHT6W","emotion","match","uniform","","","","","","","","505679","507692.60000014305","","","","","","","","","","","","6","","stimuli/stars_6.png","329.5","","","","","stimuli/AF09_DO.jpg","",""
"explore-choice","191","508055","0.0-191.0","p494893","ASVRLMDNQBUD9","336OE47KI3QZCSCUXSQ8J11UOZXVWV","3IXEICO794PPS5RTRHIQ999LMOHT6W","emotion","match","uniform","","","","","","","2268.9000000953674","507693.90000009537","509962.80000019073","[""stimuli/WM11_AO.jpg"",""stimuli/AF10_HO.jpg"",""stimuli/AM05_HE.jpg"",""stimuli/AF09_DO.jpg""]","stimuli/WM11_AO.jpg","stimuli/AF10_HO.jpg","stimuli/AM05_HE.jpg","stimuli/AF09_DO.jpg","pos4","stimuli/AF09_DO.jpg","DO","AF09","3","4","8","8","stimuli/stars_8.png","333.5","[""AO"",""HO"",""HE"",""DO""]","[""WM11"",""AF10"",""AM05"",""AF09""]","[2,4,8,8]","[2,4,6,8]","","",""
"show-reward","192","510058","0.0-192.0","p494893","ASVRLMDNQBUD9","336OE47KI3QZCSCUXSQ8J11UOZXVWV","3IXEICO794PPS5RTRHIQ999LMOHT6W","emotion","match","uniform","","","","","","","","510465.30000019073","512467.2000000477","","","","","","","","","","","","8","","stimuli/stars_8.png","333.5","","","","","stimuli/AF09_DO.jpg","",""
"explore-choice","193","512952","0.0-193.0","p494893","ASVRLMDNQBUD9","336OE47KI3QZCSCUXSQ8J11UOZXVWV","3IXEICO794PPS5RTRHIQ999LMOHT6W","emotion","match","uniform","","","","","","","2383.7000000476837","512468.40000009537","514852.10000014305","[""stimuli/WM11_AO.jpg"",""stimuli/AF09_DO.jpg"",""stimuli/AF10_HE.jpg"",""stimuli/AM05_HO.jpg""]","stimuli/WM11_AO.jpg","stimuli/AF09_DO.jpg","stimuli/AF10_HE.jpg","stimuli/AM05_HO.jpg","pos2","stimuli/AF09_DO.jpg","DO","AF09","1","5","10","8","stimuli/stars_10.png","338.5","[""AO"",""DO"",""HE"",""HO""]","[""WM11"",""AF09"",""AF10"",""AM05""]","[4,10,5,3]","[2,8,6,4]","","",""
"show-reward","194","514967","0.0-194.0","p494893","ASVRLMDNQBUD9","336OE47KI3QZCSCUXSQ8J11UOZXVWV","3IXEICO794PPS5RTRHIQ999LMOHT6W","emotion","match","uniform","","","","","","","","515361.40000009537","517375.30000019073","","","","","","","","","","","","10","","stimuli/stars_10.png","338.5","","","","","stimuli/AF09_DO.jpg","",""
"explore-choice","195","518261","0.0-195.0","p494893","ASVRLMDNQBUD9","336OE47KI3QZCSCUXSQ8J11UOZXVWV","3IXEICO794PPS5RTRHIQ999LMOHT6W","emotion","match","uniform","","","","","","","2780.899999856949","517376.80000019073","520157.7000000477","[""stimuli/AF10_HE.jpg"",""stimuli/WM11_HO.jpg"",""stimuli/AF09_DO.jpg"",""stimuli/AM05_AO.jpg""]","stimuli/AF10_HE.jpg","stimuli/WM11_HO.jpg","stimuli/AF09_DO.jpg","stimuli/AM05_AO.jpg","pos3","stimuli/AF09_DO.jpg","DO","AF09","2","4","8","8","stimuli/stars_8.png","342.5","[""HE"",""HO"",""DO"",""AO""]","[""AF10"",""WM11"",""AF09"",""AM05""]","[4,6,8,4]","[6,4,8,2]","","",""
"show-reward","196","520267","0.0-196.0","p494893","ASVRLMDNQBUD9","336OE47KI3QZCSCUXSQ8J11UOZXVWV","3IXEICO794PPS5RTRHIQ999LMOHT6W","emotion","match","uniform","","","","","","","","520671.60000014305","522675.60000014305","","","","","","","","","","","","8","","stimuli/stars_8.png","342.5","","","","","stimuli/AF09_DO.jpg","",""
"explore-choice","197","522409","0.0-197.0","p494893","ASVRLMDNQBUD9","336OE47KI3QZCSCUXSQ8J11UOZXVWV","3IXEICO794PPS5RTRHIQ999LMOHT6W","emotion","match","uniform","","","","","","","1638.7000000476837","522677.40000009537","524316.100000143","[""stimuli/AM05_HO.jpg"",""stimuli/WM11_DO.jpg"",""stimuli/AF09_AO.jpg"",""stimuli/AF10_HE.jpg""]","stimuli/AM05_HO.jpg","stimuli/WM11_DO.jpg","stimuli/AF09_AO.jpg","stimuli/AF10_HE.jpg","pos2","stimuli/WM11_DO.jpg","DO","WM11","1","3.5","7","8","stimuli/stars_7.png","346","[""HO"",""DO"",""AO"",""HE""]","[""AM05"",""WM11"",""AF09"",""AF10""]","[4,7,4,5]","[4,8,2,6]","","",""
"show-reward","198","524442","0.0-198.0","p494893","ASVRLMDNQBUD9","336OE47KI3QZCSCUXSQ8J11UOZXVWV","3IXEICO794PPS5RTRHIQ999LMOHT6W","emotion","match","uniform","","","","","","","","524819.3000001907","526850.3000001907","","","","","","","","","","","","7","","stimuli/stars_7.png","346","","","","","stimuli/WM11_DO.jpg","",""
"instructions","199","530697","0.0-199.0","p494893","ASVRLMDNQBUD9","336OE47KI3QZCSCUXSQ8J11UOZXVWV","3IXEICO794PPS5RTRHIQ999LMOHT6W","emotion","match","uniform","","","","","","[{""page_index"":0,""viewing_time"":6253.5}]","6253.900000095367","","","","","","","","","","","","","","","","","","","","","","","",""
"survey-text","200","533680","0.0-200.0-0.0","p494893","ASVRLMDNQBUD9","336OE47KI3QZCSCUXSQ8J11UOZXVWV","3IXEICO794PPS5RTRHIQ999LMOHT6W","emotion","match","uniform","","","","","","","2977.5","","","","","","","","","","","","","","","","","","","","","","","{""age"":""42""}",""
"survey-text","201","538096","0.0-200.0-1.0","p494893","ASVRLMDNQBUD9","336OE47KI3QZCSCUXSQ8J11UOZXVWV","3IXEICO794PPS5RTRHIQ999LMOHT6W","emotion","match","uniform","","","","","","","4413","","","","","","","","","","","","","","","","","","","","","","","{""gender"":""male""}",""
"survey-text","202","544672","0.0-200.0-2.0","p494893","ASVRLMDNQBUD9","336OE47KI3QZCSCUXSQ8J11UOZXVWV","3IXEICO794PPS5RTRHIQ999LMOHT6W","emotion","match","uniform","","","","","","","6570.899999856949","","","","","","","","","","","","","","","","","","","","","","","{""country"":""USA""}",""
"survey-text","203","553763","0.0-200.0-3.0","p494893","ASVRLMDNQBUD9","336OE47KI3QZCSCUXSQ8J11UOZXVWV","3IXEICO794PPS5RTRHIQ999LMOHT6W","emotion","match","uniform","","","","","","","9087.399999856949","","","","","","","","","","","","","","","","","","","","","","","{""language"":""English"",""other_languages"":""none""}",""
"survey-multi-select","204","556579","0.0-201.0","p494893","ASVRLMDNQBUD9","336OE47KI3QZCSCUXSQ8J11UOZXVWV","3IXEICO794PPS5RTRHIQ999LMOHT6W","emotion","match","uniform","","","","","","","2809.7000000476837","","","","","","","","","","","","","","","","","","","","","","","{""race"":[""White""]}","[0]"
"survey-multi-choice","205","560793","0.0-202.0","p494893","ASVRLMDNQBUD9","336OE47KI3QZCSCUXSQ8J11UOZXVWV","3IXEICO794PPS5RTRHIQ999LMOHT6W","emotion","match","uniform","","","","","","","4209.699999809265","","","","","","","","","","","","","","","","","","","","","","","{""education"":""Some college/ university""}","[0]"
"survey-text","206","625156","0.0-203.0","p494893","ASVRLMDNQBUD9","336OE47KI3QZCSCUXSQ8J11UOZXVWV","3IXEICO794PPS5RTRHIQ999LMOHT6W","emotion","match","uniform","","","","","","","64298.799999952316","","","","","","","","","","","","","","","","","","","","","","","{""patterns"":""people with open mouths at first, then people making a \""gross\"" face."",""strategy"":""just choose open mouthed or grossed out face"",""comments"":""nothing I can think of.""}",""
