"trial_type","trial_index","time_elapsed","internal_node_id","subject","workerId","hitId","assignmentId","structure_condition","match_condition","noise_type","success","timeout","failed_images","failed_audio","failed_video","view_history","rt","start_time","end_time","stimuli","image1","image2","image3","image4","choiceLocation","choiceImage","choiceEmotion","choiceModel","choice_index","reward_score","reward","reward_score_unadjusted","reward_image","score_after_trial","emotions","models","rewards","rewards_unadjusted","stimulus","response","question_order"
"pavlovia","0","13","0.0-0.0","p493868","AUFUUD4WG9CVO","3P888QFVX40Z2B7BK75OWKP045JQOK","3Z4AIRP3C8J120ZGQL763G3AR9Q1XQ","model","mismatch","uniform","","","","","","","","","","","","","","","","","","","","","","","","","","","","","","",""
"preload","1","4084","0.0-1.0","p493868","AUFUUD4WG9CVO","3P888QFVX40Z2B7BK75OWKP045JQOK","3Z4AIRP3C8J120ZGQL763G3AR9Q1XQ","model","mismatch","uniform","true","false","[]","[]","[]","","","","","","","","","","","","","","","","","","","","","","","","","",""
"fullscreen","2","35650","0.0-2.0","p493868","AUFUUD4WG9CVO","3P888QFVX40Z2B7BK75OWKP045JQOK","3Z4AIRP3C8J120ZGQL763G3AR9Q1XQ","model","mismatch","uniform","true","","","","","","","","","","","","","","","","","","","","","","","","","","","","","",""
"instructions","3","38440","0.0-3.0","p493868","AUFUUD4WG9CVO","3P888QFVX40Z2B7BK75OWKP045JQOK","3Z4AIRP3C8J120ZGQL763G3AR9Q1XQ","model","mismatch","uniform","","","","","","[{""page_index"":0,""viewing_time"":2788.7000000476837}]","2789.100000023842","","","","","","","","","","","","","","","","","","","","","","","",""
"explore-choice","4","40713","0.0-4.0","p493868","AUFUUD4WG9CVO","3P888QFVX40Z2B7BK75OWKP045JQOK","3Z4AIRP3C8J120ZGQL763G3AR9Q1XQ","model","mismatch","uniform","","","","","","","1771","40226","41997","[""stimuli/sheep.jpg"",""stimuli/hammer.jpg"",""stimuli/basketball.jpg"",""stimuli/horse.jpg""]","stimuli/sheep.jpg","stimuli/hammer.jpg","stimuli/basketball.jpg","stimuli/horse.jpg","pos4","stimuli/horse.jpg","","","3","64","64","64","stimuli/stars_8.png","65","","","","","","",""
"explore-choice","5","42440","0.0-5.0","p493868","AUFUUD4WG9CVO","3P888QFVX40Z2B7BK75OWKP045JQOK","3Z4AIRP3C8J120ZGQL763G3AR9Q1XQ","model","mismatch","uniform","","","","","","","1224.8999999761581","42498.39999997616","43723.299999952316","[""stimuli/hammer.jpg"",""stimuli/basketball.jpg"",""stimuli/horse.jpg"",""stimuli/sheep.jpg""]","stimuli/hammer.jpg","stimuli/basketball.jpg","stimuli/horse.jpg","stimuli/sheep.jpg","pos1","stimuli/hammer.jpg","","","0","8","8","8","stimuli/stars_2.png","9","","","","","","",""
"instructions","6","50791","0.0-6.0","p493868","AUFUUD4WG9CVO","3P888QFVX40Z2B7BK75OWKP045JQOK","3Z4AIRP3C8J120ZGQL763G3AR9Q1XQ","model","mismatch","uniform","","","","","","[{""page_index"":0,""viewing_time"":8349.199999928474}]","8349.599999904633","","","","","","","","","","","","","","","","","","","","","","","",""
"explore-choice","7","52540","0.0-7.0","p493868","AUFUUD4WG9CVO","3P888QFVX40Z2B7BK75OWKP045JQOK","3Z4AIRP3C8J120ZGQL763G3AR9Q1XQ","model","mismatch","uniform","","","","","","","1246.8999999761581","52576.10000002384","53823","[""stimuli/AF09_HO.jpg"",""stimuli/WF11_CC.jpg"",""stimuli/BM07_DO.jpg"",""stimuli/WF06_SC.jpg""]","stimuli/AF09_HO.jpg","stimuli/WF11_CC.jpg","stimuli/BM07_DO.jpg","stimuli/WF06_SC.jpg","pos1","stimuli/AF09_HO.jpg","HO","AF09","0","0","0","2","stimuli/stars_0.png","1","[""HO"",""CC"",""DO"",""SC""]","[""AF09"",""WF11"",""BM07"",""WF06""]","[0,6,6,6]","[2,6,8,4]","","",""
"show-reward","8","54545","0.0-8.0","p493868","AUFUUD4WG9CVO","3P888QFVX40Z2B7BK75OWKP045JQOK","3Z4AIRP3C8J120ZGQL763G3AR9Q1XQ","model","mismatch","uniform","","","","","","","","54325.199999928474","56328.799999952316","","","","","","","","","","","","0","","stimuli/stars_0.png","1","","","","","stimuli/AF09_HO.jpg","",""
"explore-choice","9","57028","0.0-9.0","p493868","AUFUUD4WG9CVO","3P888QFVX40Z2B7BK75OWKP045JQOK","3Z4AIRP3C8J120ZGQL763G3AR9Q1XQ","model","mismatch","uniform","","","","","","","1981.3999999761581","56329.799999952316","58311.199999928474","[""stimuli/WF11_DO.jpg"",""stimuli/AF09_SC.jpg"",""stimuli/BM07_HO.jpg"",""stimuli/WF06_CC.jpg""]","stimuli/WF11_DO.jpg","stimuli/AF09_SC.jpg","stimuli/BM07_HO.jpg","stimuli/WF06_CC.jpg","pos3","stimuli/BM07_HO.jpg","HO","BM07","2","4","8","8","stimuli/stars_8.png","5","[""DO"",""SC"",""HO"",""CC""]","[""WF11"",""AF09"",""BM07"",""WF06""]","[4,3,8,6]","[6,2,8,4]","","",""
"show-reward","10","59031","0.0-10.0","p493868","AUFUUD4WG9CVO","3P888QFVX40Z2B7BK75OWKP045JQOK","3Z4AIRP3C8J120ZGQL763G3AR9Q1XQ","model","mismatch","uniform","","","","","","","","58812.89999997616","60814.60000002384","","","","","","","","","","","","8","","stimuli/stars_8.png","5","","","","","stimuli/BM07_HO.jpg","",""
"explore-choice","11","60640","0.0-11.0","p493868","AUFUUD4WG9CVO","3P888QFVX40Z2B7BK75OWKP045JQOK","3Z4AIRP3C8J120ZGQL763G3AR9Q1XQ","model","mismatch","uniform","","","","","","","1107.8000000715256","60815.199999928474","61923","[""stimuli/WF06_SC.jpg"",""stimuli/AF09_DO.jpg"",""stimuli/BM07_HO.jpg"",""stimuli/WF11_CC.jpg""]","stimuli/WF06_SC.jpg","stimuli/AF09_DO.jpg","stimuli/BM07_HO.jpg","stimuli/WF11_CC.jpg","pos3","stimuli/BM07_HO.jpg","HO","BM07","2","3.5","7","8","stimuli/stars_7.png","8.5","[""SC"",""DO"",""HO"",""CC""]","[""WF06"",""AF09"",""BM07"",""WF11""]","[5,0,7,5]","[4,2,8,6]","","",""
"show-reward","12","62644","0.0-12.0","p493868","AUFUUD4WG9CVO","3P888QFVX40Z2B7BK75OWKP045JQOK","3Z4AIRP3C8J120ZGQL763G3AR9Q1XQ","model","mismatch","uniform","","","","","","","","62424.299999952316","64427.799999952316","","","","","","","","","","","","7","","stimuli/stars_7.png","8.5","","","","","stimuli/BM07_HO.jpg","",""
"explore-choice","13","65162","0.0-13.0","p493868","AUFUUD4WG9CVO","3P888QFVX40Z2B7BK75OWKP045JQOK","3Z4AIRP3C8J120ZGQL763G3AR9Q1XQ","model","mismatch","uniform","","","","","","","2016.2000000476837","64428.799999952316","66445","[""stimuli/AF09_SC.jpg"",""stimuli/WF06_DO.jpg"",""stimuli/WF11_HO.jpg"",""stimuli/BM07_CC.jpg""]","stimuli/AF09_SC.jpg","stimuli/WF06_DO.jpg","stimuli/WF11_HO.jpg","stimuli/BM07_CC.jpg","pos3","stimuli/WF11_HO.jpg","HO","WF11","2","3","6","6","stimuli/stars_6.png","11.5","[""SC"",""DO"",""HO"",""CC""]","[""AF09"",""WF06"",""WF11"",""BM07""]","[4,4,6,8]","[2,4,6,8]","","",""
"show-reward","14","67177","0.0-14.0","p493868","AUFUUD4WG9CVO","3P888QFVX40Z2B7BK75OWKP045JQOK","3Z4AIRP3C8J120ZGQL763G3AR9Q1XQ","model","mismatch","uniform","","","","","","","","66946.69999992847","68960.89999997616","","","","","","","","","","","","6","","stimuli/stars_6.png","11.5","","","","","stimuli/WF11_HO.jpg","",""
"explore-choice","15","69240","0.0-15.0","p493868","AUFUUD4WG9CVO","3P888QFVX40Z2B7BK75OWKP045JQOK","3Z4AIRP3C8J120ZGQL763G3AR9Q1XQ","model","mismatch","uniform","","","","","","","1561.3999999761581","68961.89999997616","70523.29999995232","[""stimuli/WF11_SC.jpg"",""stimuli/AF09_HO.jpg"",""stimuli/WF06_CC.jpg"",""stimuli/BM07_DO.jpg""]","stimuli/WF11_SC.jpg","stimuli/AF09_HO.jpg","stimuli/WF06_CC.jpg","stimuli/BM07_DO.jpg","pos1","stimuli/WF11_SC.jpg","SC","WF11","0","2","4","6","stimuli/stars_4.png","13.5","[""SC"",""HO"",""CC"",""DO""]","[""WF11"",""AF09"",""WF06"",""BM07""]","[4,0,4,7]","[6,2,4,8]","","",""
"show-reward","16","71244","0.0-16.0","p493868","AUFUUD4WG9CVO","3P888QFVX40Z2B7BK75OWKP045JQOK","3Z4AIRP3C8J120ZGQL763G3AR9Q1XQ","model","mismatch","uniform","","","","","","","","71024.5","73027.5","","","","","","","","","","","","4","","stimuli/stars_4.png","13.5","","","","","stimuli/WF11_SC.jpg","",""
"explore-choice","17","73275","0.0-17.0","p493868","AUFUUD4WG9CVO","3P888QFVX40Z2B7BK75OWKP045JQOK","3Z4AIRP3C8J120ZGQL763G3AR9Q1XQ","model","mismatch","uniform","","","","","","","1530.8999999761581","73028.29999995232","74559.19999992847","[""stimuli/BM07_HO.jpg"",""stimuli/WF06_DO.jpg"",""stimuli/AF09_SC.jpg"",""stimuli/WF11_CC.jpg""]","stimuli/BM07_HO.jpg","stimuli/WF06_DO.jpg","stimuli/AF09_SC.jpg","stimuli/WF11_CC.jpg","pos4","stimuli/WF11_CC.jpg","CC","WF11","3","4","8","6","stimuli/stars_8.png","17.5","[""HO"",""DO"",""SC"",""CC""]","[""BM07"",""WF06"",""AF09"",""WF11""]","[9,2,2,8]","[8,4,2,6]","","",""
"show-reward","18","75278","0.0-18.0","p493868","AUFUUD4WG9CVO","3P888QFVX40Z2B7BK75OWKP045JQOK","3Z4AIRP3C8J120ZGQL763G3AR9Q1XQ","model","mismatch","uniform","","","","","","","","75060.10000002384","77062.5","","","","","","","","","","","","8","","stimuli/stars_8.png","17.5","","","","","stimuli/WF11_CC.jpg","",""
"explore-choice","19","77738","0.0-19.0","p493868","AUFUUD4WG9CVO","3P888QFVX40Z2B7BK75OWKP045JQOK","3Z4AIRP3C8J120ZGQL763G3AR9Q1XQ","model","mismatch","uniform","","","","","","","1957.7000000476837","77063.19999992847","79020.89999997616","[""stimuli/BM07_SC.jpg"",""stimuli/WF11_CC.jpg"",""stimuli/WF06_HO.jpg"",""stimuli/AF09_DO.jpg""]","stimuli/BM07_SC.jpg","stimuli/WF11_CC.jpg","stimuli/WF06_HO.jpg","stimuli/AF09_DO.jpg","pos3","stimuli/WF06_HO.jpg","HO","WF06","2","3","6","4","stimuli/stars_6.png","20.5","[""SC"",""CC"",""HO"",""DO""]","[""BM07"",""WF11"",""WF06"",""AF09""]","[8,8,6,4]","[8,6,4,2]","","",""
"show-reward","20","79742","0.0-20.0","p493868","AUFUUD4WG9CVO","3P888QFVX40Z2B7BK75OWKP045JQOK","3Z4AIRP3C8J120ZGQL763G3AR9Q1XQ","model","mismatch","uniform","","","","","","","","79523","81525.89999997616","","","","","","","","","","","","6","","stimuli/stars_6.png","20.5","","","","","stimuli/WF06_HO.jpg","",""
"explore-choice","21","82177","0.0-21.0","p493868","AUFUUD4WG9CVO","3P888QFVX40Z2B7BK75OWKP045JQOK","3Z4AIRP3C8J120ZGQL763G3AR9Q1XQ","model","mismatch","uniform","","","","","","","1932.5","81526.69999992847","83459.19999992847","[""stimuli/WF06_SC.jpg"",""stimuli/AF09_CC.jpg"",""stimuli/BM07_DO.jpg"",""stimuli/WF11_HO.jpg""]","stimuli/WF06_SC.jpg","stimuli/AF09_CC.jpg","stimuli/BM07_DO.jpg","stimuli/WF11_HO.jpg","pos2","stimuli/AF09_CC.jpg","CC","AF09","1","2","4","2","stimuli/stars_4.png","22.5","[""SC"",""CC"",""DO"",""HO""]","[""WF06"",""AF09"",""BM07"",""WF11""]","[3,4,6,4]","[4,2,8,6]","","",""
"show-reward","22","84189","0.0-22.0","p493868","AUFUUD4WG9CVO","3P888QFVX40Z2B7BK75OWKP045JQOK","3Z4AIRP3C8J120ZGQL763G3AR9Q1XQ","model","mismatch","uniform","","","","","","","","83961.89999997616","85972.89999997616","","","","","","","","","","","","4","","stimuli/stars_4.png","22.5","","","","","stimuli/AF09_CC.jpg","",""
"explore-choice","23","86436","0.0-23.0","p493868","AUFUUD4WG9CVO","3P888QFVX40Z2B7BK75OWKP045JQOK","3Z4AIRP3C8J120ZGQL763G3AR9Q1XQ","model","mismatch","uniform","","","","","","","1745.4000000953674","85973.69999992847","87719.10000002384","[""stimuli/BM07_DO.jpg"",""stimuli/AF09_CC.jpg"",""stimuli/WF06_HO.jpg"",""stimuli/WF11_SC.jpg""]","stimuli/BM07_DO.jpg","stimuli/AF09_CC.jpg","stimuli/WF06_HO.jpg","stimuli/WF11_SC.jpg","pos3","stimuli/WF06_HO.jpg","HO","WF06","2","1","2","4","stimuli/stars_2.png","23.5","[""DO"",""CC"",""HO"",""SC""]","[""BM07"",""AF09"",""WF06"",""WF11""]","[8,2,2,6]","[8,2,4,6]","","",""
"show-reward","24","88451","0.0-24.0","p493868","AUFUUD4WG9CVO","3P888QFVX40Z2B7BK75OWKP045JQOK","3Z4AIRP3C8J120ZGQL763G3AR9Q1XQ","model","mismatch","uniform","","","","","","","","88220.60000002384","90234.89999997616","","","","","","","","","","","","2","","stimuli/stars_2.png","23.5","","","","","stimuli/WF06_HO.jpg","",""
"explore-choice","25","91378","0.0-25.0","p493868","AUFUUD4WG9CVO","3P888QFVX40Z2B7BK75OWKP045JQOK","3Z4AIRP3C8J120ZGQL763G3AR9Q1XQ","model","mismatch","uniform","","","","","","","2425.5","90235.60000002384","92661.10000002384","[""stimuli/WF06_HO.jpg"",""stimuli/BM07_CC.jpg"",""stimuli/WF11_SC.jpg"",""stimuli/AF09_DO.jpg""]","stimuli/WF06_HO.jpg","stimuli/BM07_CC.jpg","stimuli/WF11_SC.jpg","stimuli/AF09_DO.jpg","pos2","stimuli/BM07_CC.jpg","CC","BM07","1","3.5","7","8","stimuli/stars_7.png","27","[""HO"",""CC"",""SC"",""DO""]","[""WF06"",""BM07"",""WF11"",""AF09""]","[4,7,4,1]","[4,8,6,2]","","",""
"show-reward","26","93382","0.0-26.0","p493868","AUFUUD4WG9CVO","3P888QFVX40Z2B7BK75OWKP045JQOK","3Z4AIRP3C8J120ZGQL763G3AR9Q1XQ","model","mismatch","uniform","","","","","","","","93163.19999992847","95166.19999992847","","","","","","","","","","","","7","","stimuli/stars_7.png","27","","","","","stimuli/BM07_CC.jpg","",""
"explore-choice","27","97392","0.0-27.0","p493868","AUFUUD4WG9CVO","3P888QFVX40Z2B7BK75OWKP045JQOK","3Z4AIRP3C8J120ZGQL763G3AR9Q1XQ","model","mismatch","uniform","","","","","","","3508.2000000476837","95166.89999997616","98675.10000002384","[""stimuli/WF06_HO.jpg"",""stimuli/WF11_DO.jpg"",""stimuli/AF09_CC.jpg"",""stimuli/BM07_SC.jpg""]","stimuli/WF06_HO.jpg","stimuli/WF11_DO.jpg","stimuli/AF09_CC.jpg","stimuli/BM07_SC.jpg","pos1","stimuli/WF06_HO.jpg","HO","WF06","0","1","2","4","stimuli/stars_2.png","28","[""HO"",""DO"",""CC"",""SC""]","[""WF06"",""WF11"",""AF09"",""BM07""]","[2,4,0,6]","[4,6,2,8]","","",""
"show-reward","28","99417","0.0-28.0","p493868","AUFUUD4WG9CVO","3P888QFVX40Z2B7BK75OWKP045JQOK","3Z4AIRP3C8J120ZGQL763G3AR9Q1XQ","model","mismatch","uniform","","","","","","","","99176.60000002384","101201.19999992847","","","","","","","","","","","","2","","stimuli/stars_2.png","28","","","","","stimuli/WF06_HO.jpg","",""
"explore-choice","29","101821","0.0-29.0","p493868","AUFUUD4WG9CVO","3P888QFVX40Z2B7BK75OWKP045JQOK","3Z4AIRP3C8J120ZGQL763G3AR9Q1XQ","model","mismatch","uniform","","","","","","","1902.8999999761581","101202.10000002384","103105","[""stimuli/AF09_CC.jpg"",""stimuli/BM07_HO.jpg"",""stimuli/WF11_SC.jpg"",""stimuli/WF06_DO.jpg""]","stimuli/AF09_CC.jpg","stimuli/BM07_HO.jpg","stimuli/WF11_SC.jpg","stimuli/WF06_DO.jpg","pos2","stimuli/BM07_HO.jpg","HO","BM07","1","4.5","9","8","stimuli/stars_9.png","32.5","[""CC"",""HO"",""SC"",""DO""]","[""AF09"",""BM07"",""WF11"",""WF06""]","[3,9,8,2]","[2,8,6,4]","","",""
"show-reward","30","103832","0.0-30.0","p493868","AUFUUD4WG9CVO","3P888QFVX40Z2B7BK75OWKP045JQOK","3Z4AIRP3C8J120ZGQL763G3AR9Q1XQ","model","mismatch","uniform","","","","","","","","103605.79999995232","105615.5","","","","","","","","","","","","9","","stimuli/stars_9.png","32.5","","","","","stimuli/BM07_HO.jpg","",""
"explore-choice","31","106582","0.0-31.0","p493868","AUFUUD4WG9CVO","3P888QFVX40Z2B7BK75OWKP045JQOK","3Z4AIRP3C8J120ZGQL763G3AR9Q1XQ","model","mismatch","uniform","","","","","","","2248.9000000953674","105616.19999992847","107865.10000002384","[""stimuli/WF06_CC.jpg"",""stimuli/AF09_HO.jpg"",""stimuli/BM07_SC.jpg"",""stimuli/WF11_DO.jpg""]","stimuli/WF06_CC.jpg","stimuli/AF09_HO.jpg","stimuli/BM07_SC.jpg","stimuli/WF11_DO.jpg","pos2","stimuli/AF09_HO.jpg","HO","AF09","1","2","4","2","stimuli/stars_4.png","34.5","[""CC"",""HO"",""SC"",""DO""]","[""WF06"",""AF09"",""BM07"",""WF11""]","[4,4,10,5]","[4,2,8,6]","","",""
"show-reward","32","108587","0.0-32.0","p493868","AUFUUD4WG9CVO","3P888QFVX40Z2B7BK75OWKP045JQOK","3Z4AIRP3C8J120ZGQL763G3AR9Q1XQ","model","mismatch","uniform","","","","","","","","108367.10000002384","110371.69999992847","","","","","","","","","","","","4","","stimuli/stars_4.png","34.5","","","","","stimuli/AF09_HO.jpg","",""
"explore-choice","33","112339","0.0-33.0","p493868","AUFUUD4WG9CVO","3P888QFVX40Z2B7BK75OWKP045JQOK","3Z4AIRP3C8J120ZGQL763G3AR9Q1XQ","model","mismatch","uniform","","","","","","","3250.8000000715256","110372.29999995232","113623.10000002384","[""stimuli/WF11_DO.jpg"",""stimuli/AF09_SC.jpg"",""stimuli/BM07_CC.jpg"",""stimuli/WF06_HO.jpg""]","stimuli/WF11_DO.jpg","stimuli/AF09_SC.jpg","stimuli/BM07_CC.jpg","stimuli/WF06_HO.jpg","pos3","stimuli/BM07_CC.jpg","CC","BM07","2","5","10","8","stimuli/stars_10.png","39.5","[""DO"",""SC"",""CC"",""HO""]","[""WF11"",""AF09"",""BM07"",""WF06""]","[6,2,10,3]","[6,2,8,4]","","",""
"show-reward","34","114353","0.0-34.0","p493868","AUFUUD4WG9CVO","3P888QFVX40Z2B7BK75OWKP045JQOK","3Z4AIRP3C8J120ZGQL763G3AR9Q1XQ","model","mismatch","uniform","","","","","","","","114124.39999997616","116137.29999995232","","","","","","","","","","","","10","","stimuli/stars_10.png","39.5","","","","","stimuli/BM07_CC.jpg","",""
"explore-choice","35","116147","0.0-35.0","p493868","AUFUUD4WG9CVO","3P888QFVX40Z2B7BK75OWKP045JQOK","3Z4AIRP3C8J120ZGQL763G3AR9Q1XQ","model","mismatch","uniform","","","","","","","1292.8000000715256","116138.29999995232","117431.10000002384","[""stimuli/BM07_SC.jpg"",""stimuli/AF09_HO.jpg"",""stimuli/WF11_CC.jpg"",""stimuli/WF06_DO.jpg""]","stimuli/BM07_SC.jpg","stimuli/AF09_HO.jpg","stimuli/WF11_CC.jpg","stimuli/WF06_DO.jpg","pos1","stimuli/BM07_SC.jpg","SC","BM07","0","4","8","8","stimuli/stars_8.png","43.5","[""SC"",""HO"",""CC"",""DO""]","[""BM07"",""AF09"",""WF11"",""WF06""]","[8,3,4,3]","[8,2,6,4]","","",""
"show-reward","36","118149","0.0-36.0","p493868","AUFUUD4WG9CVO","3P888QFVX40Z2B7BK75OWKP045JQOK","3Z4AIRP3C8J120ZGQL763G3AR9Q1XQ","model","mismatch","uniform","","","","","","","","117932.29999995232","119933.79999995232","","","","","","","","","","","","8","","stimuli/stars_8.png","43.5","","","","","stimuli/BM07_SC.jpg","",""
"explore-choice","37","119920","0.0-37.0","p493868","AUFUUD4WG9CVO","3P888QFVX40Z2B7BK75OWKP045JQOK","3Z4AIRP3C8J120ZGQL763G3AR9Q1XQ","model","mismatch","uniform","","","","","","","1269.6999999284744","119934.5","121204.19999992847","[""stimuli/WF06_CC.jpg"",""stimuli/AF09_DO.jpg"",""stimuli/BM07_HO.jpg"",""stimuli/WF11_SC.jpg""]","stimuli/WF06_CC.jpg","stimuli/AF09_DO.jpg","stimuli/BM07_HO.jpg","stimuli/WF11_SC.jpg","pos3","stimuli/BM07_HO.jpg","HO","BM07","2","3.5","7","8","stimuli/stars_7.png","47","[""CC"",""DO"",""HO"",""SC""]","[""WF06"",""AF09"",""BM07"",""WF11""]","[5,2,7,7]","[4,2,8,6]","","",""
"show-reward","38","121923","0.0-38.0","p493868","AUFUUD4WG9CVO","3P888QFVX40Z2B7BK75OWKP045JQOK","3Z4AIRP3C8J120ZGQL763G3AR9Q1XQ","model","mismatch","uniform","","","","","","","","121705.39999997616","123707.29999995232","","","","","","","","","","","","7","","stimuli/stars_7.png","47","","","","","stimuli/BM07_HO.jpg","",""
"explore-choice","39","123565","0.0-39.0","p493868","AUFUUD4WG9CVO","3P888QFVX40Z2B7BK75OWKP045JQOK","3Z4AIRP3C8J120ZGQL763G3AR9Q1XQ","model","mismatch","uniform","","","","","","","1140.8999999761581","123708","124848.89999997616","[""stimuli/WF11_HO.jpg"",""stimuli/BM07_SC.jpg"",""stimuli/WF06_DO.jpg"",""stimuli/AF09_CC.jpg""]","stimuli/WF11_HO.jpg","stimuli/BM07_SC.jpg","stimuli/WF06_DO.jpg","stimuli/AF09_CC.jpg","pos2","stimuli/BM07_SC.jpg","SC","BM07","1","3.5","7","8","stimuli/stars_7.png","50.5","[""HO"",""SC"",""DO"",""CC""]","[""WF11"",""BM07"",""WF06"",""AF09""]","[8,7,3,3]","[6,8,4,2]","","",""
"show-reward","40","125567","0.0-40.0","p493868","AUFUUD4WG9CVO","3P888QFVX40Z2B7BK75OWKP045JQOK","3Z4AIRP3C8J120ZGQL763G3AR9Q1XQ","model","mismatch","uniform","","","","","","","","125350","127351.60000002384","","","","","","","","","","","","7","","stimuli/stars_7.png","50.5","","","","","stimuli/BM07_SC.jpg","",""
"explore-choice","41","126767","0.0-41.0","p493868","AUFUUD4WG9CVO","3P888QFVX40Z2B7BK75OWKP045JQOK","3Z4AIRP3C8J120ZGQL763G3AR9Q1XQ","model","mismatch","uniform","","","","","","","698.7000000476837","127352.29999995232","128051","[""stimuli/AF09_HO.jpg"",""stimuli/WF11_SC.jpg"",""stimuli/BM07_CC.jpg"",""stimuli/WF06_DO.jpg""]","stimuli/AF09_HO.jpg","stimuli/WF11_SC.jpg","stimuli/BM07_CC.jpg","stimuli/WF06_DO.jpg","pos3","stimuli/BM07_CC.jpg","CC","BM07","2","3","6","8","stimuli/stars_6.png","53.5","[""HO"",""SC"",""CC"",""DO""]","[""AF09"",""WF11"",""BM07"",""WF06""]","[4,5,6,6]","[2,6,8,4]","","",""
"show-reward","42","128776","0.0-42.0","p493868","AUFUUD4WG9CVO","3P888QFVX40Z2B7BK75OWKP045JQOK","3Z4AIRP3C8J120ZGQL763G3AR9Q1XQ","model","mismatch","uniform","","","","","","","","128551.69999992847","130560.79999995232","","","","","","","","","","","","6","","stimuli/stars_6.png","53.5","","","","","stimuli/BM07_CC.jpg","",""
"explore-choice","43","130268","0.0-43.0","p493868","AUFUUD4WG9CVO","3P888QFVX40Z2B7BK75OWKP045JQOK","3Z4AIRP3C8J120ZGQL763G3AR9Q1XQ","model","mismatch","uniform","","","","","","","989.5","130561.5","131551","[""stimuli/AF09_SC.jpg"",""stimuli/WF11_CC.jpg"",""stimuli/WF06_HO.jpg"",""stimuli/BM07_DO.jpg""]","stimuli/AF09_SC.jpg","stimuli/WF11_CC.jpg","stimuli/WF06_HO.jpg","stimuli/BM07_DO.jpg","pos4","stimuli/BM07_DO.jpg","DO","BM07","3","4.5","9","8","stimuli/stars_9.png","58","[""SC"",""CC"",""HO"",""DO""]","[""AF09"",""WF11"",""WF06"",""BM07""]","[0,8,5,9]","[2,6,4,8]","","",""
"show-reward","44","132271","0.0-44.0","p493868","AUFUUD4WG9CVO","3P888QFVX40Z2B7BK75OWKP045JQOK","3Z4AIRP3C8J120ZGQL763G3AR9Q1XQ","model","mismatch","uniform","","","","","","","","132052.89999997616","134055.60000002384","","","","","","","","","","","","9","","stimuli/stars_9.png","58","","","","","stimuli/BM07_DO.jpg","",""
"explore-choice","45","133379","0.0-45.0","p493868","AUFUUD4WG9CVO","3P888QFVX40Z2B7BK75OWKP045JQOK","3Z4AIRP3C8J120ZGQL763G3AR9Q1XQ","model","mismatch","uniform","","","","","","","606.8000000715256","134056.19999992847","134663","[""stimuli/AF09_HO.jpg"",""stimuli/WF11_DO.jpg"",""stimuli/WF06_SC.jpg"",""stimuli/BM07_CC.jpg""]","stimuli/AF09_HO.jpg","stimuli/WF11_DO.jpg","stimuli/WF06_SC.jpg","stimuli/BM07_CC.jpg","pos4","stimuli/BM07_CC.jpg","CC","BM07","3","3.5","7","8","stimuli/stars_7.png","61.5","[""HO"",""DO"",""SC"",""CC""]","[""AF09"",""WF11"",""WF06"",""BM07""]","[3,8,5,7]","[2,6,4,8]","","",""
"show-reward","46","135381","0.0-46.0","p493868","AUFUUD4WG9CVO","3P888QFVX40Z2B7BK75OWKP045JQOK","3Z4AIRP3C8J120ZGQL763G3AR9Q1XQ","model","mismatch","uniform","","","","","","","","135164.29999995232","137165.5","","","","","","","","","","","","7","","stimuli/stars_7.png","61.5","","","","","stimuli/BM07_CC.jpg","",""
"explore-choice","47","136591","0.0-47.0","p493868","AUFUUD4WG9CVO","3P888QFVX40Z2B7BK75OWKP045JQOK","3Z4AIRP3C8J120ZGQL763G3AR9Q1XQ","model","mismatch","uniform","","","","","","","708.8999999761581","137166.10000002384","137875","[""stimuli/WF06_SC.jpg"",""stimuli/AF09_DO.jpg"",""stimuli/BM07_CC.jpg"",""stimuli/WF11_HO.jpg""]","stimuli/WF06_SC.jpg","stimuli/AF09_DO.jpg","stimuli/BM07_CC.jpg","stimuli/WF11_HO.jpg","pos3","stimuli/BM07_CC.jpg","CC","BM07","2","4","8","8","stimuli/stars_8.png","65.5","[""SC"",""DO"",""CC"",""HO""]","[""WF06"",""AF09"",""BM07"",""WF11""]","[3,2,8,5]","[4,2,8,6]","","",""
"show-reward","48","138609","0.0-48.0","p493868","AUFUUD4WG9CVO","3P888QFVX40Z2B7BK75OWKP045JQOK","3Z4AIRP3C8J120ZGQL763G3AR9Q1XQ","model","mismatch","uniform","","","","","","","","138376.39999997616","140393.39999997616","","","","","","","","","","","","8","","stimuli/stars_8.png","65.5","","","","","stimuli/BM07_CC.jpg","",""
"explore-choice","49","139816","0.0-49.0","p493868","AUFUUD4WG9CVO","3P888QFVX40Z2B7BK75OWKP045JQOK","3Z4AIRP3C8J120ZGQL763G3AR9Q1XQ","model","mismatch","uniform","","","","","","","704.8000000715256","140394.29999995232","141099.10000002384","[""stimuli/WF11_HO.jpg"",""stimuli/BM07_SC.jpg"",""stimuli/AF09_DO.jpg"",""stimuli/WF06_CC.jpg""]","stimuli/WF11_HO.jpg","stimuli/BM07_SC.jpg","stimuli/AF09_DO.jpg","stimuli/WF06_CC.jpg","pos2","stimuli/BM07_SC.jpg","SC","BM07","1","3","6","8","stimuli/stars_6.png","68.5","[""HO"",""SC"",""DO"",""CC""]","[""WF11"",""BM07"",""AF09"",""WF06""]","[8,6,0,2]","[6,8,2,4]","","",""
"show-reward","50","141831","0.0-50.0","p493868","AUFUUD4WG9CVO","3P888QFVX40Z2B7BK75OWKP045JQOK","3Z4AIRP3C8J120ZGQL763G3AR9Q1XQ","model","mismatch","uniform","","","","","","","","141600.79999995232","143615.29999995232","","","","","","","","","","","","6","","stimuli/stars_6.png","68.5","","","","","stimuli/BM07_SC.jpg","",""
"explore-choice","51","143101","0.0-51.0","p493868","AUFUUD4WG9CVO","3P888QFVX40Z2B7BK75OWKP045JQOK","3Z4AIRP3C8J120ZGQL763G3AR9Q1XQ","model","mismatch","uniform","","","","","","","768.8000000715256","143616.19999992847","144385","[""stimuli/WF11_DO.jpg"",""stimuli/WF06_SC.jpg"",""stimuli/BM07_HO.jpg"",""stimuli/AF09_CC.jpg""]","stimuli/WF11_DO.jpg","stimuli/WF06_SC.jpg","stimuli/BM07_HO.jpg","stimuli/AF09_CC.jpg","pos3","stimuli/BM07_HO.jpg","HO","BM07","2","4","8","8","stimuli/stars_8.png","72.5","[""DO"",""SC"",""HO"",""CC""]","[""WF11"",""WF06"",""BM07"",""AF09""]","[7,2,8,0]","[6,4,8,2]","","",""
"show-reward","52","145110","0.0-52.0","p493868","AUFUUD4WG9CVO","3P888QFVX40Z2B7BK75OWKP045JQOK","3Z4AIRP3C8J120ZGQL763G3AR9Q1XQ","model","mismatch","uniform","","","","","","","","144886.39999997616","146894.79999995232","","","","","","","","","","","","8","","stimuli/stars_8.png","72.5","","","","","stimuli/BM07_HO.jpg","",""
"explore-choice","53","147533","0.0-53.0","p493868","AUFUUD4WG9CVO","3P888QFVX40Z2B7BK75OWKP045JQOK","3Z4AIRP3C8J120ZGQL763G3AR9Q1XQ","model","mismatch","uniform","","","","","","","1921.3999999761581","146895.60000002384","148817","[""stimuli/WF11_HO.jpg"",""stimuli/WF06_CC.jpg"",""stimuli/AF09_SC.jpg"",""stimuli/BM07_DO.jpg""]","stimuli/WF11_HO.jpg","stimuli/WF06_CC.jpg","stimuli/AF09_SC.jpg","stimuli/BM07_DO.jpg","pos4","stimuli/BM07_DO.jpg","DO","BM07","3","3.5","7","8","stimuli/stars_7.png","76","[""HO"",""CC"",""SC"",""DO""]","[""WF11"",""WF06"",""AF09"",""BM07""]","[5,6,3,7]","[6,4,2,8]","","",""
"show-reward","54","149536","0.0-54.0","p493868","AUFUUD4WG9CVO","3P888QFVX40Z2B7BK75OWKP045JQOK","3Z4AIRP3C8J120ZGQL763G3AR9Q1XQ","model","mismatch","uniform","","","","","","","","149318.10000002384","151320.79999995232","","","","","","","","","","","","7","","stimuli/stars_7.png","76","","","","","stimuli/BM07_DO.jpg","",""
"explore-choice","55","151046","0.0-55.0","p493868","AUFUUD4WG9CVO","3P888QFVX40Z2B7BK75OWKP045JQOK","3Z4AIRP3C8J120ZGQL763G3AR9Q1XQ","model","mismatch","uniform","","","","","","","993.5999999046326","151321.60000002384","152315.19999992847","[""stimuli/WF06_DO.jpg"",""stimuli/WF11_SC.jpg"",""stimuli/BM07_HO.jpg"",""stimuli/AF09_CC.jpg""]","stimuli/WF06_DO.jpg","stimuli/WF11_SC.jpg","stimuli/BM07_HO.jpg","stimuli/AF09_CC.jpg","pos3","stimuli/BM07_HO.jpg","HO","BM07","2","4.5","9","8","stimuli/stars_9.png","80.5","[""DO"",""SC"",""HO"",""CC""]","[""WF06"",""WF11"",""BM07"",""AF09""]","[2,8,9,3]","[4,6,8,2]","","",""
"show-reward","56","153060","0.0-56.0","p493868","AUFUUD4WG9CVO","3P888QFVX40Z2B7BK75OWKP045JQOK","3Z4AIRP3C8J120ZGQL763G3AR9Q1XQ","model","mismatch","uniform","","","","","","","","152830.69999992847","154844.89999997616","","","","","","","","","","","","9","","stimuli/stars_9.png","80.5","","","","","stimuli/BM07_HO.jpg","",""
"explore-choice","57","155403","0.0-57.0","p493868","AUFUUD4WG9CVO","3P888QFVX40Z2B7BK75OWKP045JQOK","3Z4AIRP3C8J120ZGQL763G3AR9Q1XQ","model","mismatch","uniform","","","","","","","1841.5999999046326","154845.60000002384","156687.19999992847","[""stimuli/BM07_CC.jpg"",""stimuli/WF06_SC.jpg"",""stimuli/WF11_DO.jpg"",""stimuli/AF09_HO.jpg""]","stimuli/BM07_CC.jpg","stimuli/WF06_SC.jpg","stimuli/WF11_DO.jpg","stimuli/AF09_HO.jpg","pos1","stimuli/BM07_CC.jpg","CC","BM07","0","3.5","7","8","stimuli/stars_7.png","84","[""CC"",""SC"",""DO"",""HO""]","[""BM07"",""WF06"",""WF11"",""AF09""]","[7,5,8,3]","[8,4,6,2]","","",""
"show-reward","58","157405","0.0-58.0","p493868","AUFUUD4WG9CVO","3P888QFVX40Z2B7BK75OWKP045JQOK","3Z4AIRP3C8J120ZGQL763G3AR9Q1XQ","model","mismatch","uniform","","","","","","","","157187.79999995232","159189.5","","","","","","","","","","","","7","","stimuli/stars_7.png","84","","","","","stimuli/BM07_CC.jpg","",""
"explore-choice","59","159290","0.0-59.0","p493868","AUFUUD4WG9CVO","3P888QFVX40Z2B7BK75OWKP045JQOK","3Z4AIRP3C8J120ZGQL763G3AR9Q1XQ","model","mismatch","uniform","","","","","","","1383","159190","160573","[""stimuli/WF06_HO.jpg"",""stimuli/BM07_CC.jpg"",""stimuli/AF09_SC.jpg"",""stimuli/WF11_DO.jpg""]","stimuli/WF06_HO.jpg","stimuli/BM07_CC.jpg","stimuli/AF09_SC.jpg","stimuli/WF11_DO.jpg","pos4","stimuli/WF11_DO.jpg","DO","WF11","3","3","6","6","stimuli/stars_6.png","87","[""HO"",""CC"",""SC"",""DO""]","[""WF06"",""BM07"",""AF09"",""WF11""]","[3,10,2,6]","[4,8,2,6]","","",""
"show-reward","60","161293","0.0-60.0","p493868","AUFUUD4WG9CVO","3P888QFVX40Z2B7BK75OWKP045JQOK","3Z4AIRP3C8J120ZGQL763G3AR9Q1XQ","model","mismatch","uniform","","","","","","","","161074.69999992847","163077.69999992847","","","","","","","","","","","","6","","stimuli/stars_6.png","87","","","","","stimuli/WF11_DO.jpg","",""
"explore-choice","61","163049","0.0-61.0","p493868","AUFUUD4WG9CVO","3P888QFVX40Z2B7BK75OWKP045JQOK","3Z4AIRP3C8J120ZGQL763G3AR9Q1XQ","model","mismatch","uniform","","","","","","","1254.5","163078.39999997616","164332.89999997616","[""stimuli/WF11_CC.jpg"",""stimuli/AF09_DO.jpg"",""stimuli/BM07_HO.jpg"",""stimuli/WF06_SC.jpg""]","stimuli/WF11_CC.jpg","stimuli/AF09_DO.jpg","stimuli/BM07_HO.jpg","stimuli/WF06_SC.jpg","pos3","stimuli/BM07_HO.jpg","HO","BM07","2","3.5","7","8","stimuli/stars_7.png","90.5","[""CC"",""DO"",""HO"",""SC""]","[""WF11"",""AF09"",""BM07"",""WF06""]","[5,0,7,5]","[6,2,8,4]","","",""
"show-reward","62","165053","0.0-62.0","p493868","AUFUUD4WG9CVO","3P888QFVX40Z2B7BK75OWKP045JQOK","3Z4AIRP3C8J120ZGQL763G3AR9Q1XQ","model","mismatch","uniform","","","","","","","","164834.29999995232","166837.69999992847","","","","","","","","","","","","7","","stimuli/stars_7.png","90.5","","","","","stimuli/BM07_HO.jpg","",""
"explore-choice","63","167697","0.0-63.0","p493868","AUFUUD4WG9CVO","3P888QFVX40Z2B7BK75OWKP045JQOK","3Z4AIRP3C8J120ZGQL763G3AR9Q1XQ","model","mismatch","uniform","","","","","","","2142.5","166838.5","168981","[""stimuli/WF06_HO.jpg"",""stimuli/BM07_SC.jpg"",""stimuli/WF11_DO.jpg"",""stimuli/AF09_CC.jpg""]","stimuli/WF06_HO.jpg","stimuli/BM07_SC.jpg","stimuli/WF11_DO.jpg","stimuli/AF09_CC.jpg","pos2","stimuli/BM07_SC.jpg","SC","BM07","1","3","6","8","stimuli/stars_6.png","93.5","[""HO"",""SC"",""DO"",""CC""]","[""WF06"",""BM07"",""WF11"",""AF09""]","[2,6,4,0]","[4,8,6,2]","","",""
"show-reward","64","169705","0.0-64.0","p493868","AUFUUD4WG9CVO","3P888QFVX40Z2B7BK75OWKP045JQOK","3Z4AIRP3C8J120ZGQL763G3AR9Q1XQ","model","mismatch","uniform","","","","","","","","169482.39999997616","171489.60000002384","","","","","","","","","","","","6","","stimuli/stars_6.png","93.5","","","","","stimuli/BM07_SC.jpg","",""
"explore-choice","65","172103","0.0-65.0","p493868","AUFUUD4WG9CVO","3P888QFVX40Z2B7BK75OWKP045JQOK","3Z4AIRP3C8J120ZGQL763G3AR9Q1XQ","model","mismatch","uniform","","","","","","","1896.6000000238419","171490.39999997616","173387","[""stimuli/WF11_CC.jpg"",""stimuli/WF06_HO.jpg"",""stimuli/AF09_DO.jpg"",""stimuli/BM07_SC.jpg""]","stimuli/WF11_CC.jpg","stimuli/WF06_HO.jpg","stimuli/AF09_DO.jpg","stimuli/BM07_SC.jpg","pos1","stimuli/WF11_CC.jpg","CC","WF11","0","4","8","6","stimuli/stars_8.png","97.5","[""CC"",""HO"",""DO"",""SC""]","[""WF11"",""WF06"",""AF09"",""BM07""]","[8,6,4,8]","[6,4,2,8]","","",""
"show-reward","66","174105","0.0-66.0","p493868","AUFUUD4WG9CVO","3P888QFVX40Z2B7BK75OWKP045JQOK","3Z4AIRP3C8J120ZGQL763G3AR9Q1XQ","model","mismatch","uniform","","","","","","","","173887.60000002384","175888.89999997616","","","","","","","","","","","","8","","stimuli/stars_8.png","97.5","","","","","stimuli/WF11_CC.jpg","",""
"explore-choice","67","175594","0.0-67.0","p493868","AUFUUD4WG9CVO","3P888QFVX40Z2B7BK75OWKP045JQOK","3Z4AIRP3C8J120ZGQL763G3AR9Q1XQ","model","mismatch","uniform","","","","","","","988.7999999523163","175889.60000002384","176878.39999997616","[""stimuli/AF09_CC.jpg"",""stimuli/WF06_SC.jpg"",""stimuli/WF11_DO.jpg"",""stimuli/BM07_HO.jpg""]","stimuli/AF09_CC.jpg","stimuli/WF06_SC.jpg","stimuli/WF11_DO.jpg","stimuli/BM07_HO.jpg","pos4","stimuli/BM07_HO.jpg","HO","BM07","3","4","8","8","stimuli/stars_8.png","101.5","[""CC"",""SC"",""DO"",""HO""]","[""AF09"",""WF06"",""WF11"",""BM07""]","[0,2,7,8]","[2,4,6,8]","","",""
"show-reward","68","177597","0.0-68.0","p493868","AUFUUD4WG9CVO","3P888QFVX40Z2B7BK75OWKP045JQOK","3Z4AIRP3C8J120ZGQL763G3AR9Q1XQ","model","mismatch","uniform","","","","","","","","177380.19999992847","179381.5","","","","","","","","","","","","8","","stimuli/stars_8.png","101.5","","","","","stimuli/BM07_HO.jpg","",""
"explore-choice","69","179152","0.0-69.0","p493868","AUFUUD4WG9CVO","3P888QFVX40Z2B7BK75OWKP045JQOK","3Z4AIRP3C8J120ZGQL763G3AR9Q1XQ","model","mismatch","uniform","","","","","","","1052.7000000476837","179382.29999995232","180435","[""stimuli/AF09_HO.jpg"",""stimuli/WF06_DO.jpg"",""stimuli/BM07_CC.jpg"",""stimuli/WF11_SC.jpg""]","stimuli/AF09_HO.jpg","stimuli/WF06_DO.jpg","stimuli/BM07_CC.jpg","stimuli/WF11_SC.jpg","pos4","stimuli/WF11_SC.jpg","SC","WF11","3","2.5","5","6","stimuli/stars_5.png","104","[""HO"",""DO"",""CC"",""SC""]","[""AF09"",""WF06"",""BM07"",""WF11""]","[4,6,6,5]","[2,4,8,6]","","",""
"show-reward","70","181154","0.0-70.0","p493868","AUFUUD4WG9CVO","3P888QFVX40Z2B7BK75OWKP045JQOK","3Z4AIRP3C8J120ZGQL763G3AR9Q1XQ","model","mismatch","uniform","","","","","","","","180937","182938.19999992847","","","","","","","","","","","","5","","stimuli/stars_5.png","104","","","","","stimuli/WF11_SC.jpg","",""
"explore-choice","71","182764","0.0-71.0","p493868","AUFUUD4WG9CVO","3P888QFVX40Z2B7BK75OWKP045JQOK","3Z4AIRP3C8J120ZGQL763G3AR9Q1XQ","model","mismatch","uniform","","","","","","","1108.3000000715256","182938.69999992847","184047","[""stimuli/BM07_DO.jpg"",""stimuli/WF06_CC.jpg"",""stimuli/WF11_SC.jpg"",""stimuli/AF09_HO.jpg""]","stimuli/BM07_DO.jpg","stimuli/WF06_CC.jpg","stimuli/WF11_SC.jpg","stimuli/AF09_HO.jpg","pos1","stimuli/BM07_DO.jpg","DO","BM07","0","3.5","7","8","stimuli/stars_7.png","107.5","[""DO"",""CC"",""SC"",""HO""]","[""BM07"",""WF06"",""WF11"",""AF09""]","[7,4,4,0]","[8,4,6,2]","","",""
"show-reward","72","184774","0.0-72.0","p493868","AUFUUD4WG9CVO","3P888QFVX40Z2B7BK75OWKP045JQOK","3Z4AIRP3C8J120ZGQL763G3AR9Q1XQ","model","mismatch","uniform","","","","","","","","184548.69999992847","186558.29999995232","","","","","","","","","","","","7","","stimuli/stars_7.png","107.5","","","","","stimuli/BM07_DO.jpg","",""
"explore-choice","73","186265","0.0-73.0","p493868","AUFUUD4WG9CVO","3P888QFVX40Z2B7BK75OWKP045JQOK","3Z4AIRP3C8J120ZGQL763G3AR9Q1XQ","model","mismatch","uniform","","","","","","","989.7999999523163","186559.10000002384","187548.89999997616","[""stimuli/WF06_SC.jpg"",""stimuli/AF09_DO.jpg"",""stimuli/WF11_HO.jpg"",""stimuli/BM07_CC.jpg""]","stimuli/WF06_SC.jpg","stimuli/AF09_DO.jpg","stimuli/WF11_HO.jpg","stimuli/BM07_CC.jpg","pos3","stimuli/WF11_HO.jpg","HO","WF11","2","2.5","5","6","stimuli/stars_5.png","110","[""SC"",""DO"",""HO"",""CC""]","[""WF06"",""AF09"",""WF11"",""BM07""]","[3,2,5,8]","[4,2,6,8]","","",""
"show-reward","74","188281","0.0-74.0","p493868","AUFUUD4WG9CVO","3P888QFVX40Z2B7BK75OWKP045JQOK","3Z4AIRP3C8J120ZGQL763G3AR9Q1XQ","model","mismatch","uniform","","","","","","","","188050","190065.69999992847","","","","","","","","","","","","5","","stimuli/stars_5.png","110","","","","","stimuli/WF11_HO.jpg","",""
"explore-choice","75","189512","0.0-75.0","p493868","AUFUUD4WG9CVO","3P888QFVX40Z2B7BK75OWKP045JQOK","3Z4AIRP3C8J120ZGQL763G3AR9Q1XQ","model","mismatch","uniform","","","","","","","728.7000000476837","190066.39999997616","190795.10000002384","[""stimuli/WF11_DO.jpg"",""stimuli/WF06_CC.jpg"",""stimuli/AF09_HO.jpg"",""stimuli/BM07_SC.jpg""]","stimuli/WF11_DO.jpg","stimuli/WF06_CC.jpg","stimuli/AF09_HO.jpg","stimuli/BM07_SC.jpg","pos4","stimuli/BM07_SC.jpg","SC","BM07","3","5","10","8","stimuli/stars_10.png","115","[""DO"",""CC"",""HO"",""SC""]","[""WF11"",""WF06"",""AF09"",""BM07""]","[5,4,4,10]","[6,4,2,8]","","",""
"show-reward","76","191522","0.0-76.0","p493868","AUFUUD4WG9CVO","3P888QFVX40Z2B7BK75OWKP045JQOK","3Z4AIRP3C8J120ZGQL763G3AR9Q1XQ","model","mismatch","uniform","","","","","","","","191296.69999992847","193306.29999995232","","","","","","","","","","","","10","","stimuli/stars_10.png","115","","","","","stimuli/BM07_SC.jpg","",""
"explore-choice","77","193312","0.0-77.0","p493868","AUFUUD4WG9CVO","3P888QFVX40Z2B7BK75OWKP045JQOK","3Z4AIRP3C8J120ZGQL763G3AR9Q1XQ","model","mismatch","uniform","","","","","","","1287.8000000715256","193307.19999992847","194595","[""stimuli/BM07_HO.jpg"",""stimuli/WF06_DO.jpg"",""stimuli/WF11_CC.jpg"",""stimuli/AF09_SC.jpg""]","stimuli/BM07_HO.jpg","stimuli/WF06_DO.jpg","stimuli/WF11_CC.jpg","stimuli/AF09_SC.jpg","pos1","stimuli/BM07_HO.jpg","HO","BM07","0","4.5","9","8","stimuli/stars_9.png","119.5","[""HO"",""DO"",""CC"",""SC""]","[""BM07"",""WF06"",""WF11"",""AF09""]","[9,2,8,2]","[8,4,6,2]","","",""
"show-reward","78","195315","0.0-78.0","p493868","AUFUUD4WG9CVO","3P888QFVX40Z2B7BK75OWKP045JQOK","3Z4AIRP3C8J120ZGQL763G3AR9Q1XQ","model","mismatch","uniform","","","","","","","","195096.89999997616","197099.60000002384","","","","","","","","","","","","9","","stimuli/stars_9.png","119.5","","","","","stimuli/BM07_HO.jpg","",""
"explore-choice","79","196464","0.0-79.0","p493868","AUFUUD4WG9CVO","3P888QFVX40Z2B7BK75OWKP045JQOK","3Z4AIRP3C8J120ZGQL763G3AR9Q1XQ","model","mismatch","uniform","","","","","","","646.7999999523163","197100","197746.79999995232","[""stimuli/WF11_SC.jpg"",""stimuli/WF06_CC.jpg"",""stimuli/AF09_DO.jpg"",""stimuli/BM07_HO.jpg""]","stimuli/WF11_SC.jpg","stimuli/WF06_CC.jpg","stimuli/AF09_DO.jpg","stimuli/BM07_HO.jpg","pos4","stimuli/BM07_HO.jpg","HO","BM07","3","3.5","7","8","stimuli/stars_7.png","123","[""SC"",""CC"",""DO"",""HO""]","[""WF11"",""WF06"",""AF09"",""BM07""]","[7,5,2,7]","[6,4,2,8]","","",""
"show-reward","80","198470","0.0-80.0","p493868","AUFUUD4WG9CVO","3P888QFVX40Z2B7BK75OWKP045JQOK","3Z4AIRP3C8J120ZGQL763G3AR9Q1XQ","model","mismatch","uniform","","","","","","","","198248.39999997616","200254.10000002384","","","","","","","","","","","","7","","stimuli/stars_7.png","123","","","","","stimuli/BM07_HO.jpg","",""
"explore-choice","81","199635","0.0-81.0","p493868","AUFUUD4WG9CVO","3P888QFVX40Z2B7BK75OWKP045JQOK","3Z4AIRP3C8J120ZGQL763G3AR9Q1XQ","model","mismatch","uniform","","","","","","","664","200255","200919","[""stimuli/WF06_HO.jpg"",""stimuli/WF11_SC.jpg"",""stimuli/BM07_DO.jpg"",""stimuli/AF09_CC.jpg""]","stimuli/WF06_HO.jpg","stimuli/WF11_SC.jpg","stimuli/BM07_DO.jpg","stimuli/AF09_CC.jpg","pos3","stimuli/BM07_DO.jpg","DO","BM07","2","4","8","8","stimuli/stars_8.png","127","[""HO"",""SC"",""DO"",""CC""]","[""WF06"",""WF11"",""BM07"",""AF09""]","[2,6,8,2]","[4,6,8,2]","","",""
"show-reward","82","201638","0.0-82.0","p493868","AUFUUD4WG9CVO","3P888QFVX40Z2B7BK75OWKP045JQOK","3Z4AIRP3C8J120ZGQL763G3AR9Q1XQ","model","mismatch","uniform","","","","","","","","201420.10000002384","203422.10000002384","","","","","","","","","","","","8","","stimuli/stars_8.png","127","","","","","stimuli/BM07_DO.jpg","",""
"explore-choice","83","202848","0.0-83.0","p493868","AUFUUD4WG9CVO","3P888QFVX40Z2B7BK75OWKP045JQOK","3Z4AIRP3C8J120ZGQL763G3AR9Q1XQ","model","mismatch","uniform","","","","","","","708.3999999761581","203422.60000002384","204131","[""stimuli/BM07_DO.jpg"",""stimuli/WF11_HO.jpg"",""stimuli/WF06_CC.jpg"",""stimuli/AF09_SC.jpg""]","stimuli/BM07_DO.jpg","stimuli/WF11_HO.jpg","stimuli/WF06_CC.jpg","stimuli/AF09_SC.jpg","pos1","stimuli/BM07_DO.jpg","DO","BM07","0","3.5","7","8","stimuli/stars_7.png","130.5","[""DO"",""HO"",""CC"",""SC""]","[""BM07"",""WF11"",""WF06"",""AF09""]","[7,5,6,3]","[8,6,4,2]","","",""
"show-reward","84","204859","0.0-84.0","p493868","AUFUUD4WG9CVO","3P888QFVX40Z2B7BK75OWKP045JQOK","3Z4AIRP3C8J120ZGQL763G3AR9Q1XQ","model","mismatch","uniform","","","","","","","","204632.5","206643.10000002384","","","","","","","","","","","","7","","stimuli/stars_7.png","130.5","","","","","stimuli/BM07_DO.jpg","",""
"explore-choice","85","206017","0.0-85.0","p493868","AUFUUD4WG9CVO","3P888QFVX40Z2B7BK75OWKP045JQOK","3Z4AIRP3C8J120ZGQL763G3AR9Q1XQ","model","mismatch","uniform","","","","","","","623","206643.89999997616","207266.89999997616","[""stimuli/BM07_DO.jpg"",""stimuli/AF09_HO.jpg"",""stimuli/WF11_CC.jpg"",""stimuli/WF06_SC.jpg""]","stimuli/BM07_DO.jpg","stimuli/AF09_HO.jpg","stimuli/WF11_CC.jpg","stimuli/WF06_SC.jpg","pos1","stimuli/BM07_DO.jpg","DO","BM07","0","3","6","8","stimuli/stars_6.png","133.5","[""DO"",""HO"",""CC"",""SC""]","[""BM07"",""AF09"",""WF11"",""WF06""]","[6,0,6,6]","[8,2,6,4]","","",""
"show-reward","86","208020","0.0-86.0","p493868","AUFUUD4WG9CVO","3P888QFVX40Z2B7BK75OWKP045JQOK","3Z4AIRP3C8J120ZGQL763G3AR9Q1XQ","model","mismatch","uniform","","","","","","","","207801.79999995232","209803.69999992847","","","","","","","","","","","","6","","stimuli/stars_6.png","133.5","","","","","stimuli/BM07_DO.jpg","",""
"explore-choice","87","209146","0.0-87.0","p493868","AUFUUD4WG9CVO","3P888QFVX40Z2B7BK75OWKP045JQOK","3Z4AIRP3C8J120ZGQL763G3AR9Q1XQ","model","mismatch","uniform","","","","","","","624.3000000715256","209804.69999992847","210429","[""stimuli/WF11_HO.jpg"",""stimuli/AF09_CC.jpg"",""stimuli/WF06_DO.jpg"",""stimuli/BM07_SC.jpg""]","stimuli/WF11_HO.jpg","stimuli/AF09_CC.jpg","stimuli/WF06_DO.jpg","stimuli/BM07_SC.jpg","pos4","stimuli/BM07_SC.jpg","SC","BM07","3","3.5","7","8","stimuli/stars_7.png","137","[""HO"",""CC"",""DO"",""SC""]","[""WF11"",""AF09"",""WF06"",""BM07""]","[8,3,3,7]","[6,2,4,8]","","",""
"show-reward","88","211150","0.0-88.0","p493868","AUFUUD4WG9CVO","3P888QFVX40Z2B7BK75OWKP045JQOK","3Z4AIRP3C8J120ZGQL763G3AR9Q1XQ","model","mismatch","uniform","","","","","","","","210930.89999997616","212934.69999992847","","","","","","","","","","","","7","","stimuli/stars_7.png","137","","","","","stimuli/BM07_SC.jpg","",""
"explore-choice","89","212312","0.0-89.0","p493868","AUFUUD4WG9CVO","3P888QFVX40Z2B7BK75OWKP045JQOK","3Z4AIRP3C8J120ZGQL763G3AR9Q1XQ","model","mismatch","uniform","","","","","","","659.7000000476837","212935.39999997616","213595.10000002384","[""stimuli/BM07_SC.jpg"",""stimuli/WF11_CC.jpg"",""stimuli/WF06_DO.jpg"",""stimuli/AF09_HO.jpg""]","stimuli/BM07_SC.jpg","stimuli/WF11_CC.jpg","stimuli/WF06_DO.jpg","stimuli/AF09_HO.jpg","pos1","stimuli/BM07_SC.jpg","SC","BM07","0","4","8","8","stimuli/stars_8.png","141","[""SC"",""CC"",""DO"",""HO""]","[""BM07"",""WF11"",""WF06"",""AF09""]","[8,4,3,3]","[8,6,4,2]","","",""
"show-reward","90","214314","0.0-90.0","p493868","AUFUUD4WG9CVO","3P888QFVX40Z2B7BK75OWKP045JQOK","3Z4AIRP3C8J120ZGQL763G3AR9Q1XQ","model","mismatch","uniform","","","","","","","","214096.5","216098.10000002384","","","","","","","","","","","","8","","stimuli/stars_8.png","141","","","","","stimuli/BM07_SC.jpg","",""
"explore-choice","91","215427","0.0-91.0","p493868","AUFUUD4WG9CVO","3P888QFVX40Z2B7BK75OWKP045JQOK","3Z4AIRP3C8J120ZGQL763G3AR9Q1XQ","model","mismatch","uniform","","","","","","","612.3999999761581","216098.60000002384","216711","[""stimuli/WF11_DO.jpg"",""stimuli/WF06_CC.jpg"",""stimuli/AF09_SC.jpg"",""stimuli/BM07_HO.jpg""]","stimuli/WF11_DO.jpg","stimuli/WF06_CC.jpg","stimuli/AF09_SC.jpg","stimuli/BM07_HO.jpg","pos4","stimuli/BM07_HO.jpg","HO","BM07","3","4","8","8","stimuli/stars_8.png","145","[""DO"",""CC"",""SC"",""HO""]","[""WF11"",""WF06"",""AF09"",""BM07""]","[4,6,3,8]","[6,4,2,8]","","",""
"show-reward","92","217441","0.0-92.0","p493868","AUFUUD4WG9CVO","3P888QFVX40Z2B7BK75OWKP045JQOK","3Z4AIRP3C8J120ZGQL763G3AR9Q1XQ","model","mismatch","uniform","","","","","","","","217212.19999992847","219224.89999997616","","","","","","","","","","","","8","","stimuli/stars_8.png","145","","","","","stimuli/BM07_HO.jpg","",""
"explore-choice","93","219159","0.0-93.0","p493868","AUFUUD4WG9CVO","3P888QFVX40Z2B7BK75OWKP045JQOK","3Z4AIRP3C8J120ZGQL763G3AR9Q1XQ","model","mismatch","uniform","","","","","","","1205.2999999523163","219225.60000002384","220430.89999997616","[""stimuli/BM07_SC.jpg"",""stimuli/WF06_CC.jpg"",""stimuli/AF09_DO.jpg"",""stimuli/WF11_HO.jpg""]","stimuli/BM07_SC.jpg","stimuli/WF06_CC.jpg","stimuli/AF09_DO.jpg","stimuli/WF11_HO.jpg","pos1","stimuli/BM07_SC.jpg","SC","BM07","0","3","6","8","stimuli/stars_6.png","148","[""SC"",""CC"",""DO"",""HO""]","[""BM07"",""WF06"",""AF09"",""WF11""]","[6,2,0,8]","[8,4,2,6]","","",""
"show-reward","94","221161","0.0-94.0","p493868","AUFUUD4WG9CVO","3P888QFVX40Z2B7BK75OWKP045JQOK","3Z4AIRP3C8J120ZGQL763G3AR9Q1XQ","model","mismatch","uniform","","","","","","","","220944.29999995232","222945.69999992847","","","","","","","","","","","","6","","stimuli/stars_6.png","148","","","","","stimuli/BM07_SC.jpg","",""
"explore-choice","95","222388","0.0-95.0","p493868","AUFUUD4WG9CVO","3P888QFVX40Z2B7BK75OWKP045JQOK","3Z4AIRP3C8J120ZGQL763G3AR9Q1XQ","model","mismatch","uniform","","","","","","","724.8999999761581","222946.5","223671.39999997616","[""stimuli/AF09_CC.jpg"",""stimuli/BM07_DO.jpg"",""stimuli/WF06_SC.jpg"",""stimuli/WF11_HO.jpg""]","stimuli/AF09_CC.jpg","stimuli/BM07_DO.jpg","stimuli/WF06_SC.jpg","stimuli/WF11_HO.jpg","pos2","stimuli/BM07_DO.jpg","DO","BM07","1","3","6","8","stimuli/stars_6.png","151","[""CC"",""DO"",""SC"",""HO""]","[""AF09"",""BM07"",""WF06"",""WF11""]","[4,6,3,4]","[2,8,4,6]","","",""
"show-reward","96","224396","0.0-96.0","p493868","AUFUUD4WG9CVO","3P888QFVX40Z2B7BK75OWKP045JQOK","3Z4AIRP3C8J120ZGQL763G3AR9Q1XQ","model","mismatch","uniform","","","","","","","","224173.10000002384","226180","","","","","","","","","","","","6","","stimuli/stars_6.png","151","","","","","stimuli/BM07_DO.jpg","",""
"explore-choice","97","225711","0.0-97.0","p493868","AUFUUD4WG9CVO","3P888QFVX40Z2B7BK75OWKP045JQOK","3Z4AIRP3C8J120ZGQL763G3AR9Q1XQ","model","mismatch","uniform","","","","","","","808.3000000715256","226180.79999995232","226989.10000002384","[""stimuli/WF11_CC.jpg"",""stimuli/WF06_HO.jpg"",""stimuli/AF09_SC.jpg"",""stimuli/BM07_DO.jpg""]","stimuli/WF11_CC.jpg","stimuli/WF06_HO.jpg","stimuli/AF09_SC.jpg","stimuli/BM07_DO.jpg","pos4","stimuli/BM07_DO.jpg","DO","BM07","3","4.5","9","8","stimuli/stars_9.png","155.5","[""CC"",""HO"",""SC"",""DO""]","[""WF11"",""WF06"",""AF09"",""BM07""]","[8,5,0,9]","[6,4,2,8]","","",""
"show-reward","98","227713","0.0-98.0","p493868","AUFUUD4WG9CVO","3P888QFVX40Z2B7BK75OWKP045JQOK","3Z4AIRP3C8J120ZGQL763G3AR9Q1XQ","model","mismatch","uniform","","","","","","","","227496","229497.29999995232","","","","","","","","","","","","9","","stimuli/stars_9.png","155.5","","","","","stimuli/BM07_DO.jpg","",""
"explore-choice","99","228893","0.0-99.0","p493868","AUFUUD4WG9CVO","3P888QFVX40Z2B7BK75OWKP045JQOK","3Z4AIRP3C8J120ZGQL763G3AR9Q1XQ","model","mismatch","uniform","","","","","","","679.3000000715256","229497.79999995232","230177.10000002384","[""stimuli/WF11_SC.jpg"",""stimuli/BM07_CC.jpg"",""stimuli/AF09_DO.jpg"",""stimuli/WF06_HO.jpg""]","stimuli/WF11_SC.jpg","stimuli/BM07_CC.jpg","stimuli/AF09_DO.jpg","stimuli/WF06_HO.jpg","pos2","stimuli/BM07_CC.jpg","CC","BM07","1","3.5","7","8","stimuli/stars_7.png","159","[""SC"",""CC"",""DO"",""HO""]","[""WF11"",""BM07"",""AF09"",""WF06""]","[4,7,1,4]","[6,8,2,4]","","",""
"show-reward","100","230907","0.0-100.0","p493868","AUFUUD4WG9CVO","3P888QFVX40Z2B7BK75OWKP045JQOK","3Z4AIRP3C8J120ZGQL763G3AR9Q1XQ","model","mismatch","uniform","","","","","","","","230677.60000002384","232691.69999992847","","","","","","","","","","","","7","","stimuli/stars_7.png","159","","","","","stimuli/BM07_CC.jpg","",""
"explore-choice","101","232066","0.0-101.0","p493868","AUFUUD4WG9CVO","3P888QFVX40Z2B7BK75OWKP045JQOK","3Z4AIRP3C8J120ZGQL763G3AR9Q1XQ","model","mismatch","uniform","","","","","","","646.7999999523163","232692.39999997616","233339.19999992847","[""stimuli/WF11_HO.jpg"",""stimuli/BM07_CC.jpg"",""stimuli/WF06_DO.jpg"",""stimuli/AF09_SC.jpg""]","stimuli/WF11_HO.jpg","stimuli/BM07_CC.jpg","stimuli/WF06_DO.jpg","stimuli/AF09_SC.jpg","pos2","stimuli/BM07_CC.jpg","CC","BM07","1","4","8","8","stimuli/stars_8.png","163","[""HO"",""CC"",""DO"",""SC""]","[""WF11"",""BM07"",""WF06"",""AF09""]","[6,8,4,4]","[6,8,4,2]","","",""
"show-reward","102","234082","0.0-102.0","p493868","AUFUUD4WG9CVO","3P888QFVX40Z2B7BK75OWKP045JQOK","3Z4AIRP3C8J120ZGQL763G3AR9Q1XQ","model","mismatch","uniform","","","","","","","","233851.29999995232","235866.39999997616","","","","","","","","","","","","8","","stimuli/stars_8.png","163","","","","","stimuli/BM07_CC.jpg","",""
"explore-choice","103","236733","0.0-103.0","p493868","AUFUUD4WG9CVO","3P888QFVX40Z2B7BK75OWKP045JQOK","3Z4AIRP3C8J120ZGQL763G3AR9Q1XQ","model","mismatch","uniform","","","","","","","2142","235867.10000002384","238009.10000002384","[""stimuli/AF11_AO.jpg"",""stimuli/HF10_FO.jpg"",""stimuli/AF10_SUR.jpg"",""stimuli/AM05_HE.jpg""]","stimuli/AF11_AO.jpg","stimuli/HF10_FO.jpg","stimuli/AF10_SUR.jpg","stimuli/AM05_HE.jpg","pos4","stimuli/AM05_HE.jpg","HE","AM05","3","0","0","2","stimuli/stars_0.png","163","[""AO"",""FO"",""SUR"",""HE""]","[""AF11"",""HF10"",""AF10"",""AM05""]","[2,6,9,0]","[4,6,8,2]","","",""
"show-reward","104","238752","0.0-104.0","p493868","AUFUUD4WG9CVO","3P888QFVX40Z2B7BK75OWKP045JQOK","3Z4AIRP3C8J120ZGQL763G3AR9Q1XQ","model","mismatch","uniform","","","","","","","","238519.60000002384","240536.29999995232","","","","","","","","","","","","0","","stimuli/stars_0.png","163","","","","","stimuli/AM05_HE.jpg","",""
"explore-choice","105","242431","0.0-105.0","p493868","AUFUUD4WG9CVO","3P888QFVX40Z2B7BK75OWKP045JQOK","3Z4AIRP3C8J120ZGQL763G3AR9Q1XQ","model","mismatch","uniform","","","","","","","3177.6999999284744","240537","243714.69999992847","[""stimuli/AM05_SUR.jpg"",""stimuli/AF10_HE.jpg"",""stimuli/AF11_FO.jpg"",""stimuli/HF10_AO.jpg""]","stimuli/AM05_SUR.jpg","stimuli/AF10_HE.jpg","stimuli/AF11_FO.jpg","stimuli/HF10_AO.jpg","pos2","stimuli/AF10_HE.jpg","HE","AF10","1","0.5","1","2","stimuli/stars_1.png","163.5","[""SUR"",""HE"",""FO"",""AO""]","[""AM05"",""AF10"",""AF11"",""HF10""]","[9,1,7,5]","[8,2,6,4]","","",""
"show-reward","106","244446","0.0-106.0","p493868","AUFUUD4WG9CVO","3P888QFVX40Z2B7BK75OWKP045JQOK","3Z4AIRP3C8J120ZGQL763G3AR9Q1XQ","model","mismatch","uniform","","","","","","","","244216","246230.39999997616","","","","","","","","","","","","1","","stimuli/stars_1.png","163.5","","","","","stimuli/AF10_HE.jpg","",""
"explore-choice","107","246741","0.0-107.0","p493868","AUFUUD4WG9CVO","3P888QFVX40Z2B7BK75OWKP045JQOK","3Z4AIRP3C8J120ZGQL763G3AR9Q1XQ","model","mismatch","uniform","","","","","","","1793.5","246231.39999997616","248024.89999997616","[""stimuli/AM05_SUR.jpg"",""stimuli/HF10_HE.jpg"",""stimuli/AF10_AO.jpg"",""stimuli/AF11_FO.jpg""]","stimuli/AM05_SUR.jpg","stimuli/HF10_HE.jpg","stimuli/AF10_AO.jpg","stimuli/AF11_FO.jpg","pos2","stimuli/HF10_HE.jpg","HE","HF10","1","0.5","1","2","stimuli/stars_1.png","164","[""SUR"",""HE"",""AO"",""FO""]","[""AM05"",""HF10"",""AF10"",""AF11""]","[9,1,2,6]","[8,2,4,6]","","",""
"show-reward","108","248743","0.0-108.0","p493868","AUFUUD4WG9CVO","3P888QFVX40Z2B7BK75OWKP045JQOK","3Z4AIRP3C8J120ZGQL763G3AR9Q1XQ","model","mismatch","uniform","","","","","","","","248525.79999995232","250527.60000002384","","","","","","","","","","","","1","","stimuli/stars_1.png","164","","","","","stimuli/HF10_HE.jpg","",""
"explore-choice","109","251068","0.0-109.0","p493868","AUFUUD4WG9CVO","3P888QFVX40Z2B7BK75OWKP045JQOK","3Z4AIRP3C8J120ZGQL763G3AR9Q1XQ","model","mismatch","uniform","","","","","","","1808.5","250528.60000002384","252337.10000002384","[""stimuli/AF11_HE.jpg"",""stimuli/AF10_AO.jpg"",""stimuli/HF10_SUR.jpg"",""stimuli/AM05_FO.jpg""]","stimuli/AF11_HE.jpg","stimuli/AF10_AO.jpg","stimuli/HF10_SUR.jpg","stimuli/AM05_FO.jpg","pos1","stimuli/AF11_HE.jpg","HE","AF11","0","0.5","1","2","stimuli/stars_1.png","164.5","[""HE"",""AO"",""SUR"",""FO""]","[""AF11"",""AF10"",""HF10"",""AM05""]","[1,4,7,4]","[2,4,8,6]","","",""
"show-reward","110","253075","0.0-110.0","p493868","AUFUUD4WG9CVO","3P888QFVX40Z2B7BK75OWKP045JQOK","3Z4AIRP3C8J120ZGQL763G3AR9Q1XQ","model","mismatch","uniform","","","","","","","","252853.19999992847","254859.5","","","","","","","","","","","","1","","stimuli/stars_1.png","164.5","","","","","stimuli/AF11_HE.jpg","",""
"explore-choice","111","257346","0.0-111.0","p493868","AUFUUD4WG9CVO","3P888QFVX40Z2B7BK75OWKP045JQOK","3Z4AIRP3C8J120ZGQL763G3AR9Q1XQ","model","mismatch","uniform","","","","","","","3764.600000023842","254860.29999995232","258624.89999997616","[""stimuli/AM05_FO.jpg"",""stimuli/AF11_AO.jpg"",""stimuli/AF10_HE.jpg"",""stimuli/HF10_SUR.jpg""]","stimuli/AM05_FO.jpg","stimuli/AF11_AO.jpg","stimuli/AF10_HE.jpg","stimuli/HF10_SUR.jpg","pos1","stimuli/AM05_FO.jpg","FO","AM05","0","2.5","5","6","stimuli/stars_5.png","167","[""FO"",""AO"",""HE"",""SUR""]","[""AM05"",""AF11"",""AF10"",""HF10""]","[5,4,4,8]","[6,4,2,8]","","",""
"show-reward","112","259362","0.0-112.0","p493868","AUFUUD4WG9CVO","3P888QFVX40Z2B7BK75OWKP045JQOK","3Z4AIRP3C8J120ZGQL763G3AR9Q1XQ","model","mismatch","uniform","","","","","","","","259131.29999995232","261146.19999992847","","","","","","","","","","","","5","","stimuli/stars_5.png","167","","","","","stimuli/AM05_FO.jpg","",""
"explore-choice","113","261721","0.0-113.0","p493868","AUFUUD4WG9CVO","3P888QFVX40Z2B7BK75OWKP045JQOK","3Z4AIRP3C8J120ZGQL763G3AR9Q1XQ","model","mismatch","uniform","","","","","","","1857.8999999761581","261147","263004.89999997616","[""stimuli/AM05_AO.jpg"",""stimuli/AF11_HE.jpg"",""stimuli/AF10_SUR.jpg"",""stimuli/HF10_FO.jpg""]","stimuli/AM05_AO.jpg","stimuli/AF11_HE.jpg","stimuli/AF10_SUR.jpg","stimuli/HF10_FO.jpg","pos4","stimuli/HF10_FO.jpg","FO","HF10","3","2.5","5","6","stimuli/stars_5.png","169.5","[""AO"",""HE"",""SUR"",""FO""]","[""AM05"",""AF11"",""AF10"",""HF10""]","[3,2,10,5]","[4,2,8,6]","","",""
"show-reward","114","263724","0.0-114.0","p493868","AUFUUD4WG9CVO","3P888QFVX40Z2B7BK75OWKP045JQOK","3Z4AIRP3C8J120ZGQL763G3AR9Q1XQ","model","mismatch","uniform","","","","","","","","263506.39999997616","265508.6999999285","","","","","","","","","","","","5","","stimuli/stars_5.png","169.5","","","","","stimuli/HF10_FO.jpg","",""
"explore-choice","115","268305","0.0-115.0","p493868","AUFUUD4WG9CVO","3P888QFVX40Z2B7BK75OWKP045JQOK","3Z4AIRP3C8J120ZGQL763G3AR9Q1XQ","model","mismatch","uniform","","","","","","","4077.9000000953674","265509.1999999285","269587.10000002384","[""stimuli/HF10_FO.jpg"",""stimuli/AF11_SUR.jpg"",""stimuli/AF10_AO.jpg"",""stimuli/AM05_HE.jpg""]","stimuli/HF10_FO.jpg","stimuli/AF11_SUR.jpg","stimuli/AF10_AO.jpg","stimuli/AM05_HE.jpg","pos2","stimuli/AF11_SUR.jpg","SUR","AF11","1","5","10","8","stimuli/stars_10.png","174.5","[""FO"",""SUR"",""AO"",""HE""]","[""HF10"",""AF11"",""AF10"",""AM05""]","[7,10,6,3]","[6,8,4,2]","","",""
"show-reward","116","270307","0.0-116.0","p493868","AUFUUD4WG9CVO","3P888QFVX40Z2B7BK75OWKP045JQOK","3Z4AIRP3C8J120ZGQL763G3AR9Q1XQ","model","mismatch","uniform","","","","","","","","270090.5","272091.89999997616","","","","","","","","","","","","10","","stimuli/stars_10.png","174.5","","","","","stimuli/AF11_SUR.jpg","",""
"explore-choice","117","272231","0.0-117.0","p493868","AUFUUD4WG9CVO","3P888QFVX40Z2B7BK75OWKP045JQOK","3Z4AIRP3C8J120ZGQL763G3AR9Q1XQ","model","mismatch","uniform","","","","","","","1422.2999999523163","272092.60000002384","273514.89999997616","[""stimuli/AF11_SUR.jpg"",""stimuli/AM05_AO.jpg"",""stimuli/HF10_FO.jpg"",""stimuli/AF10_HE.jpg""]","stimuli/AF11_SUR.jpg","stimuli/AM05_AO.jpg","stimuli/HF10_FO.jpg","stimuli/AF10_HE.jpg","pos1","stimuli/AF11_SUR.jpg","SUR","AF11","0","3","6","8","stimuli/stars_6.png","177.5","[""SUR"",""AO"",""FO"",""HE""]","[""AF11"",""AM05"",""HF10"",""AF10""]","[6,5,7,3]","[8,4,6,2]","","",""
"show-reward","118","274240","0.0-118.0","p493868","AUFUUD4WG9CVO","3P888QFVX40Z2B7BK75OWKP045JQOK","3Z4AIRP3C8J120ZGQL763G3AR9Q1XQ","model","mismatch","uniform","","","","","","","","274015.89999997616","276023.89999997616","","","","","","","","","","","","6","","stimuli/stars_6.png","177.5","","","","","stimuli/AF11_SUR.jpg","",""
"explore-choice","119","277163","0.0-119.0","p493868","AUFUUD4WG9CVO","3P888QFVX40Z2B7BK75OWKP045JQOK","3Z4AIRP3C8J120ZGQL763G3AR9Q1XQ","model","mismatch","uniform","","","","","","","2421.6999999284744","276025.5","278447.1999999285","[""stimuli/AF10_FO.jpg"",""stimuli/HF10_AO.jpg"",""stimuli/AM05_HE.jpg"",""stimuli/AF11_SUR.jpg""]","stimuli/AF10_FO.jpg","stimuli/HF10_AO.jpg","stimuli/AM05_HE.jpg","stimuli/AF11_SUR.jpg","pos1","stimuli/AF10_FO.jpg","FO","AF10","0","2","4","6","stimuli/stars_4.png","179.5","[""FO"",""AO"",""HE"",""SUR""]","[""AF10"",""HF10"",""AM05"",""AF11""]","[4,5,1,8]","[6,4,2,8]","","",""
"show-reward","120","279173","0.0-120.0","p493868","AUFUUD4WG9CVO","3P888QFVX40Z2B7BK75OWKP045JQOK","3Z4AIRP3C8J120ZGQL763G3AR9Q1XQ","model","mismatch","uniform","","","","","","","","278948.5","280957.39999997616","","","","","","","","","","","","4","","stimuli/stars_4.png","179.5","","","","","stimuli/AF10_FO.jpg","",""
"explore-choice","121","281839","0.0-121.0","p493868","AUFUUD4WG9CVO","3P888QFVX40Z2B7BK75OWKP045JQOK","3Z4AIRP3C8J120ZGQL763G3AR9Q1XQ","model","mismatch","uniform","","","","","","","2160.6999999284744","280958.10000002384","283118.7999999523","[""stimuli/AM05_HE.jpg"",""stimuli/AF10_AO.jpg"",""stimuli/AF11_FO.jpg"",""stimuli/HF10_SUR.jpg""]","stimuli/AM05_HE.jpg","stimuli/AF10_AO.jpg","stimuli/AF11_FO.jpg","stimuli/HF10_SUR.jpg","pos3","stimuli/AF11_FO.jpg","FO","AF11","2","2.5","5","6","stimuli/stars_5.png","182","[""HE"",""AO"",""FO"",""SUR""]","[""AM05"",""AF10"",""AF11"",""HF10""]","[3,6,5,9]","[2,4,6,8]","","",""
"show-reward","122","283850","0.0-122.0","p493868","AUFUUD4WG9CVO","3P888QFVX40Z2B7BK75OWKP045JQOK","3Z4AIRP3C8J120ZGQL763G3AR9Q1XQ","model","mismatch","uniform","","","","","","","","283624.10000002384","285634.7999999523","","","","","","","","","","","","5","","stimuli/stars_5.png","182","","","","","stimuli/AF11_FO.jpg","",""
"explore-choice","123","287139","0.0-123.0","p493868","AUFUUD4WG9CVO","3P888QFVX40Z2B7BK75OWKP045JQOK","3Z4AIRP3C8J120ZGQL763G3AR9Q1XQ","model","mismatch","uniform","","","","","","","2785.5","285635.6999999285","288421.1999999285","[""stimuli/AM05_SUR.jpg"",""stimuli/HF10_HE.jpg"",""stimuli/AF10_FO.jpg"",""stimuli/AF11_AO.jpg""]","stimuli/AM05_SUR.jpg","stimuli/HF10_HE.jpg","stimuli/AF10_FO.jpg","stimuli/AF11_AO.jpg","pos4","stimuli/AF11_AO.jpg","AO","AF11","3","2","4","4","stimuli/stars_4.png","184","[""SUR"",""HE"",""FO"",""AO""]","[""AM05"",""HF10"",""AF10"",""AF11""]","[9,2,4,4]","[8,2,6,4]","","",""
"show-reward","124","289148","0.0-124.0","p493868","AUFUUD4WG9CVO","3P888QFVX40Z2B7BK75OWKP045JQOK","3Z4AIRP3C8J120ZGQL763G3AR9Q1XQ","model","mismatch","uniform","","","","","","","","288923.5","290931.6999999285","","","","","","","","","","","","4","","stimuli/stars_4.png","184","","","","","stimuli/AF11_AO.jpg","",""
"explore-choice","125","291847","0.0-125.0","p493868","AUFUUD4WG9CVO","3P888QFVX40Z2B7BK75OWKP045JQOK","3Z4AIRP3C8J120ZGQL763G3AR9Q1XQ","model","mismatch","uniform","","","","","","","2198.399999976158","290932.60000002384","293131","[""stimuli/AF10_FO.jpg"",""stimuli/HF10_HE.jpg"",""stimuli/AF11_SUR.jpg"",""stimuli/AM05_AO.jpg""]","stimuli/AF10_FO.jpg","stimuli/HF10_HE.jpg","stimuli/AF11_SUR.jpg","stimuli/AM05_AO.jpg","pos4","stimuli/AM05_AO.jpg","AO","AM05","3","3","6","4","stimuli/stars_6.png","187","[""FO"",""HE"",""SUR"",""AO""]","[""AF10"",""HF10"",""AF11"",""AM05""]","[5,3,10,6]","[6,2,8,4]","","",""
"show-reward","126","293850","0.0-126.0","p493868","AUFUUD4WG9CVO","3P888QFVX40Z2B7BK75OWKP045JQOK","3Z4AIRP3C8J120ZGQL763G3AR9Q1XQ","model","mismatch","uniform","","","","","","","","293632.10000002384","295634.1999999285","","","","","","","","","","","","6","","stimuli/stars_6.png","187","","","","","stimuli/AM05_AO.jpg","",""
"explore-choice","127","299640","0.0-127.0","p493868","AUFUUD4WG9CVO","3P888QFVX40Z2B7BK75OWKP045JQOK","3Z4AIRP3C8J120ZGQL763G3AR9Q1XQ","model","mismatch","uniform","","","","","","","5286.300000071526","295634.7999999523","300921.10000002384","[""stimuli/AF10_SUR.jpg"",""stimuli/AF11_AO.jpg"",""stimuli/HF10_HE.jpg"",""stimuli/AM05_FO.jpg""]","stimuli/AF10_SUR.jpg","stimuli/AF11_AO.jpg","stimuli/HF10_HE.jpg","stimuli/AM05_FO.jpg","pos4","stimuli/AM05_FO.jpg","FO","AM05","3","3.5","7","6","stimuli/stars_7.png","190.5","[""SUR"",""AO"",""HE"",""FO""]","[""AF10"",""AF11"",""HF10"",""AM05""]","[9,6,3,7]","[8,4,2,6]","","",""
"show-reward","128","301661","0.0-128.0","p493868","AUFUUD4WG9CVO","3P888QFVX40Z2B7BK75OWKP045JQOK","3Z4AIRP3C8J120ZGQL763G3AR9Q1XQ","model","mismatch","uniform","","","","","","","","301425","303444.60000002384","","","","","","","","","","","","7","","stimuli/stars_7.png","190.5","","","","","stimuli/AM05_FO.jpg","",""
"explore-choice","129","303920","0.0-129.0","p493868","AUFUUD4WG9CVO","3P888QFVX40Z2B7BK75OWKP045JQOK","3Z4AIRP3C8J120ZGQL763G3AR9Q1XQ","model","mismatch","uniform","","","","","","","1757.5","303445.5","305203","[""stimuli/AF11_AO.jpg"",""stimuli/AM05_SUR.jpg"",""stimuli/AF10_HE.jpg"",""stimuli/HF10_FO.jpg""]","stimuli/AF11_AO.jpg","stimuli/AM05_SUR.jpg","stimuli/AF10_HE.jpg","stimuli/HF10_FO.jpg","pos4","stimuli/HF10_FO.jpg","FO","HF10","3","3.5","7","6","stimuli/stars_7.png","194","[""AO"",""SUR"",""HE"",""FO""]","[""AF11"",""AM05"",""AF10"",""HF10""]","[2,9,1,7]","[4,8,2,6]","","",""
"show-reward","130","305937","0.0-130.0","p493868","AUFUUD4WG9CVO","3P888QFVX40Z2B7BK75OWKP045JQOK","3Z4AIRP3C8J120ZGQL763G3AR9Q1XQ","model","mismatch","uniform","","","","","","","","305704.89999997616","307721.1999999285","","","","","","","","","","","","7","","stimuli/stars_7.png","194","","","","","stimuli/HF10_FO.jpg","",""
"explore-choice","131","308405","0.0-131.0","p493868","AUFUUD4WG9CVO","3P888QFVX40Z2B7BK75OWKP045JQOK","3Z4AIRP3C8J120ZGQL763G3AR9Q1XQ","model","mismatch","uniform","","","","","","","1967","307722","309689","[""stimuli/AF11_HE.jpg"",""stimuli/AM05_SUR.jpg"",""stimuli/AF10_FO.jpg"",""stimuli/HF10_AO.jpg""]","stimuli/AF11_HE.jpg","stimuli/AM05_SUR.jpg","stimuli/AF10_FO.jpg","stimuli/HF10_AO.jpg","pos3","stimuli/AF10_FO.jpg","FO","AF10","2","4","8","6","stimuli/stars_8.png","198","[""HE"",""SUR"",""FO"",""AO""]","[""AF11"",""AM05"",""AF10"",""HF10""]","[3,8,8,5]","[2,8,6,4]","","",""
"show-reward","132","310422","0.0-132.0","p493868","AUFUUD4WG9CVO","3P888QFVX40Z2B7BK75OWKP045JQOK","3Z4AIRP3C8J120ZGQL763G3AR9Q1XQ","model","mismatch","uniform","","","","","","","","310189.89999997616","312206.10000002384","","","","","","","","","","","","8","","stimuli/stars_8.png","198","","","","","stimuli/AF10_FO.jpg","",""
"explore-choice","133","312671","0.0-133.0","p493868","AUFUUD4WG9CVO","3P888QFVX40Z2B7BK75OWKP045JQOK","3Z4AIRP3C8J120ZGQL763G3AR9Q1XQ","model","mismatch","uniform","","","","","","","1748.2000000476837","312206.7999999523","313955","[""stimuli/AF10_FO.jpg"",""stimuli/AM05_AO.jpg"",""stimuli/AF11_HE.jpg"",""stimuli/HF10_SUR.jpg""]","stimuli/AF10_FO.jpg","stimuli/AM05_AO.jpg","stimuli/AF11_HE.jpg","stimuli/HF10_SUR.jpg","pos3","stimuli/AF11_HE.jpg","HE","AF11","2","1","2","2","stimuli/stars_2.png","199","[""FO"",""AO"",""HE"",""SUR""]","[""AF10"",""AM05"",""AF11"",""HF10""]","[8,3,2,8]","[6,4,2,8]","","",""
"show-reward","134","314679","0.0-134.0","p493868","AUFUUD4WG9CVO","3P888QFVX40Z2B7BK75OWKP045JQOK","3Z4AIRP3C8J120ZGQL763G3AR9Q1XQ","model","mismatch","uniform","","","","","","","","314456","316463","","","","","","","","","","","","2","","stimuli/stars_2.png","199","","","","","stimuli/AF11_HE.jpg","",""
"explore-choice","135","318402","0.0-135.0","p493868","AUFUUD4WG9CVO","3P888QFVX40Z2B7BK75OWKP045JQOK","3Z4AIRP3C8J120ZGQL763G3AR9Q1XQ","model","mismatch","uniform","","","","","","","3219.2000000476837","316463.7999999523","319683","[""stimuli/AF11_AO.jpg"",""stimuli/AM05_HE.jpg"",""stimuli/HF10_SUR.jpg"",""stimuli/AF10_FO.jpg""]","stimuli/AF11_AO.jpg","stimuli/AM05_HE.jpg","stimuli/HF10_SUR.jpg","stimuli/AF10_FO.jpg","pos4","stimuli/AF10_FO.jpg","FO","AF10","3","2.5","5","6","stimuli/stars_5.png","201.5","[""AO"",""HE"",""SUR"",""FO""]","[""AF11"",""AM05"",""HF10"",""AF10""]","[5,3,9,5]","[4,2,8,6]","","",""
"show-reward","136","320411","0.0-136.0","p493868","AUFUUD4WG9CVO","3P888QFVX40Z2B7BK75OWKP045JQOK","3Z4AIRP3C8J120ZGQL763G3AR9Q1XQ","model","mismatch","uniform","","","","","","","","320186.39999997616","322195.5","","","","","","","","","","","","5","","stimuli/stars_5.png","201.5","","","","","stimuli/AF10_FO.jpg","",""
"explore-choice","137","322718","0.0-137.0","p493868","AUFUUD4WG9CVO","3P888QFVX40Z2B7BK75OWKP045JQOK","3Z4AIRP3C8J120ZGQL763G3AR9Q1XQ","model","mismatch","uniform","","","","","","","1798.5","322196.1999999285","323994.6999999285","[""stimuli/AF10_AO.jpg"",""stimuli/AF11_HE.jpg"",""stimuli/AM05_SUR.jpg"",""stimuli/HF10_FO.jpg""]","stimuli/AF10_AO.jpg","stimuli/AF11_HE.jpg","stimuli/AM05_SUR.jpg","stimuli/HF10_FO.jpg","pos4","stimuli/HF10_FO.jpg","FO","HF10","3","4","8","6","stimuli/stars_8.png","205.5","[""AO"",""HE"",""SUR"",""FO""]","[""AF10"",""AF11"",""AM05"",""HF10""]","[5,3,8,8]","[4,2,8,6]","","",""
"show-reward","138","324734","0.0-138.0","p493868","AUFUUD4WG9CVO","3P888QFVX40Z2B7BK75OWKP045JQOK","3Z4AIRP3C8J120ZGQL763G3AR9Q1XQ","model","mismatch","uniform","","","","","","","","324502.6999999285","326518","","","","","","","","","","","","8","","stimuli/stars_8.png","205.5","","","","","stimuli/HF10_FO.jpg","",""
"explore-choice","139","327439","0.0-139.0","p493868","AUFUUD4WG9CVO","3P888QFVX40Z2B7BK75OWKP045JQOK","3Z4AIRP3C8J120ZGQL763G3AR9Q1XQ","model","mismatch","uniform","","","","","","","2204.2000000476837","326518.6999999285","328722.89999997616","[""stimuli/HF10_AO.jpg"",""stimuli/AF11_FO.jpg"",""stimuli/AM05_HE.jpg"",""stimuli/AF10_SUR.jpg""]","stimuli/HF10_AO.jpg","stimuli/AF11_FO.jpg","stimuli/AM05_HE.jpg","stimuli/AF10_SUR.jpg","pos2","stimuli/AF11_FO.jpg","FO","AF11","1","2","4","6","stimuli/stars_4.png","207.5","[""AO"",""FO"",""HE"",""SUR""]","[""HF10"",""AF11"",""AM05"",""AF10""]","[5,4,0,6]","[4,6,2,8]","","",""
"show-reward","140","329448","0.0-140.0","p493868","AUFUUD4WG9CVO","3P888QFVX40Z2B7BK75OWKP045JQOK","3Z4AIRP3C8J120ZGQL763G3AR9Q1XQ","model","mismatch","uniform","","","","","","","","329224","331231.2999999523","","","","","","","","","","","","4","","stimuli/stars_4.png","207.5","","","","","stimuli/AF11_FO.jpg","",""
"explore-choice","141","331921","0.0-141.0","p493868","AUFUUD4WG9CVO","3P888QFVX40Z2B7BK75OWKP045JQOK","3Z4AIRP3C8J120ZGQL763G3AR9Q1XQ","model","mismatch","uniform","","","","","","","1970.5","331232.39999997616","333202.89999997616","[""stimuli/AM05_FO.jpg"",""stimuli/AF11_HE.jpg"",""stimuli/HF10_AO.jpg"",""stimuli/AF10_SUR.jpg""]","stimuli/AM05_FO.jpg","stimuli/AF11_HE.jpg","stimuli/HF10_AO.jpg","stimuli/AF10_SUR.jpg","pos1","stimuli/AM05_FO.jpg","FO","AM05","0","2.5","5","6","stimuli/stars_5.png","210","[""FO"",""HE"",""AO"",""SUR""]","[""AM05"",""AF11"",""HF10"",""AF10""]","[5,2,6,7]","[6,2,4,8]","","",""
"show-reward","142","333924","0.0-142.0","p493868","AUFUUD4WG9CVO","3P888QFVX40Z2B7BK75OWKP045JQOK","3Z4AIRP3C8J120ZGQL763G3AR9Q1XQ","model","mismatch","uniform","","","","","","","","333705.60000002384","335707.89999997616","","","","","","","","","","","","5","","stimuli/stars_5.png","210","","","","","stimuli/AM05_FO.jpg","",""
"explore-choice","143","336548","0.0-143.0","p493868","AUFUUD4WG9CVO","3P888QFVX40Z2B7BK75OWKP045JQOK","3Z4AIRP3C8J120ZGQL763G3AR9Q1XQ","model","mismatch","uniform","","","","","","","2122.2999999523163","335708.60000002384","337830.89999997616","[""stimuli/AM05_FO.jpg"",""stimuli/AF10_AO.jpg"",""stimuli/HF10_HE.jpg"",""stimuli/AF11_SUR.jpg""]","stimuli/AM05_FO.jpg","stimuli/AF10_AO.jpg","stimuli/HF10_HE.jpg","stimuli/AF11_SUR.jpg","pos4","stimuli/AF11_SUR.jpg","SUR","AF11","3","4.5","9","8","stimuli/stars_9.png","214.5","[""FO"",""AO"",""HE"",""SUR""]","[""AM05"",""AF10"",""HF10"",""AF11""]","[6,3,1,9]","[6,4,2,8]","","",""
"show-reward","144","338550","0.0-144.0","p493868","AUFUUD4WG9CVO","3P888QFVX40Z2B7BK75OWKP045JQOK","3Z4AIRP3C8J120ZGQL763G3AR9Q1XQ","model","mismatch","uniform","","","","","","","","338332.6999999285","340334.39999997616","","","","","","","","","","","","9","","stimuli/stars_9.png","214.5","","","","","stimuli/AF11_SUR.jpg","",""
"explore-choice","145","341907","0.0-145.0","p493868","AUFUUD4WG9CVO","3P888QFVX40Z2B7BK75OWKP045JQOK","3Z4AIRP3C8J120ZGQL763G3AR9Q1XQ","model","mismatch","uniform","","","","","","","2845.6999999284744","340335.10000002384","343180.7999999523","[""stimuli/AF10_HE.jpg"",""stimuli/HF10_AO.jpg"",""stimuli/AF11_SUR.jpg"",""stimuli/AM05_FO.jpg""]","stimuli/AF10_HE.jpg","stimuli/HF10_AO.jpg","stimuli/AF11_SUR.jpg","stimuli/AM05_FO.jpg","pos3","stimuli/AF11_SUR.jpg","SUR","AF11","2","4.5","9","8","stimuli/stars_9.png","219","[""HE"",""AO"",""SUR"",""FO""]","[""AF10"",""HF10"",""AF11"",""AM05""]","[3,5,9,4]","[2,4,8,6]","","",""
"show-reward","146","343909","0.0-146.0","p493868","AUFUUD4WG9CVO","3P888QFVX40Z2B7BK75OWKP045JQOK","3Z4AIRP3C8J120ZGQL763G3AR9Q1XQ","model","mismatch","uniform","","","","","","","","343691.7999999523","345693.2999999523","","","","","","","","","","","","9","","stimuli/stars_9.png","219","","","","","stimuli/AF11_SUR.jpg","",""
"explore-choice","147","346741","0.0-147.0","p493868","AUFUUD4WG9CVO","3P888QFVX40Z2B7BK75OWKP045JQOK","3Z4AIRP3C8J120ZGQL763G3AR9Q1XQ","model","mismatch","uniform","","","","","","","2326.899999976158","345694.10000002384","348021","[""stimuli/HF10_HE.jpg"",""stimuli/AM05_AO.jpg"",""stimuli/AF10_SUR.jpg"",""stimuli/AF11_FO.jpg""]","stimuli/HF10_HE.jpg","stimuli/AM05_AO.jpg","stimuli/AF10_SUR.jpg","stimuli/AF11_FO.jpg","pos3","stimuli/AF10_SUR.jpg","SUR","AF10","2","3.5","7","8","stimuli/stars_7.png","222.5","[""HE"",""AO"",""SUR"",""FO""]","[""HF10"",""AM05"",""AF10"",""AF11""]","[2,2,7,6]","[2,4,8,6]","","",""
"show-reward","148","348754","0.0-148.0","p493868","AUFUUD4WG9CVO","3P888QFVX40Z2B7BK75OWKP045JQOK","3Z4AIRP3C8J120ZGQL763G3AR9Q1XQ","model","mismatch","uniform","","","","","","","","348526.2999999523","350538.39999997616","","","","","","","","","","","","7","","stimuli/stars_7.png","222.5","","","","","stimuli/AF10_SUR.jpg","",""
"explore-choice","149","352533","0.0-149.0","p493868","AUFUUD4WG9CVO","3P888QFVX40Z2B7BK75OWKP045JQOK","3Z4AIRP3C8J120ZGQL763G3AR9Q1XQ","model","mismatch","uniform","","","","","","","3277.600000023842","350539.1999999285","353816.7999999523","[""stimuli/HF10_SUR.jpg"",""stimuli/AF10_HE.jpg"",""stimuli/AF11_FO.jpg"",""stimuli/AM05_AO.jpg""]","stimuli/HF10_SUR.jpg","stimuli/AF10_HE.jpg","stimuli/AF11_FO.jpg","stimuli/AM05_AO.jpg","pos1","stimuli/HF10_SUR.jpg","SUR","HF10","0","4.5","9","8","stimuli/stars_9.png","227","[""SUR"",""HE"",""FO"",""AO""]","[""HF10"",""AF10"",""AF11"",""AM05""]","[9,0,7,6]","[8,2,6,4]","","",""
"show-reward","150","354535","0.0-150.0","p493868","AUFUUD4WG9CVO","3P888QFVX40Z2B7BK75OWKP045JQOK","3Z4AIRP3C8J120ZGQL763G3AR9Q1XQ","model","mismatch","uniform","","","","","","","","354318.10000002384","356318.89999997616","","","","","","","","","","","","9","","stimuli/stars_9.png","227","","","","","stimuli/HF10_SUR.jpg","",""
"explore-choice","151","359278","0.0-151.0","p493868","AUFUUD4WG9CVO","3P888QFVX40Z2B7BK75OWKP045JQOK","3Z4AIRP3C8J120ZGQL763G3AR9Q1XQ","model","mismatch","uniform","","","","","","","4235.5","356319.60000002384","360555.10000002384","[""stimuli/AF11_FO.jpg"",""stimuli/AF10_HE.jpg"",""stimuli/AM05_SUR.jpg"",""stimuli/HF10_AO.jpg""]","stimuli/AF11_FO.jpg","stimuli/AF10_HE.jpg","stimuli/AM05_SUR.jpg","stimuli/HF10_AO.jpg","pos3","stimuli/AM05_SUR.jpg","SUR","AM05","2","4.5","9","8","stimuli/stars_9.png","231.5","[""FO"",""HE"",""SUR"",""AO""]","[""AF11"",""AF10"",""AM05"",""HF10""]","[7,1,9,5]","[6,2,8,4]","","",""
"show-reward","152","361281","0.0-152.0","p493868","AUFUUD4WG9CVO","3P888QFVX40Z2B7BK75OWKP045JQOK","3Z4AIRP3C8J120ZGQL763G3AR9Q1XQ","model","mismatch","uniform","","","","","","","","361062.89999997616","363065.60000002384","","","","","","","","","","","","9","","stimuli/stars_9.png","231.5","","","","","stimuli/AM05_SUR.jpg","",""
"explore-choice","153","364755","0.0-153.0","p493868","AUFUUD4WG9CVO","3P888QFVX40Z2B7BK75OWKP045JQOK","3Z4AIRP3C8J120ZGQL763G3AR9Q1XQ","model","mismatch","uniform","","","","","","","2972.5","363066.2999999523","366038.7999999523","[""stimuli/AF11_SUR.jpg"",""stimuli/AM05_HE.jpg"",""stimuli/HF10_AO.jpg"",""stimuli/AF10_FO.jpg""]","stimuli/AF11_SUR.jpg","stimuli/AM05_HE.jpg","stimuli/HF10_AO.jpg","stimuli/AF10_FO.jpg","pos1","stimuli/AF11_SUR.jpg","SUR","AF11","0","4","8","8","stimuli/stars_8.png","235.5","[""SUR"",""HE"",""AO"",""FO""]","[""AF11"",""AM05"",""HF10"",""AF10""]","[8,1,5,4]","[8,2,4,6]","","",""
"show-reward","154","366761","0.0-154.0","p493868","AUFUUD4WG9CVO","3P888QFVX40Z2B7BK75OWKP045JQOK","3Z4AIRP3C8J120ZGQL763G3AR9Q1XQ","model","mismatch","uniform","","","","","","","","366539.60000002384","368545.39999997616","","","","","","","","","","","","8","","stimuli/stars_8.png","235.5","","","","","stimuli/AF11_SUR.jpg","",""
"explore-choice","155","370412","0.0-155.0","p493868","AUFUUD4WG9CVO","3P888QFVX40Z2B7BK75OWKP045JQOK","3Z4AIRP3C8J120ZGQL763G3AR9Q1XQ","model","mismatch","uniform","","","","","","","3136.7000000476837","368546.1999999285","371682.89999997616","[""stimuli/AM05_FO.jpg"",""stimuli/AF11_AO.jpg"",""stimuli/HF10_SUR.jpg"",""stimuli/AF10_HE.jpg""]","stimuli/AM05_FO.jpg","stimuli/AF11_AO.jpg","stimuli/HF10_SUR.jpg","stimuli/AF10_HE.jpg","pos3","stimuli/HF10_SUR.jpg","SUR","HF10","2","4","8","8","stimuli/stars_8.png","239.5","[""FO"",""AO"",""SUR"",""HE""]","[""AM05"",""AF11"",""HF10"",""AF10""]","[5,4,8,4]","[6,4,8,2]","","",""
"show-reward","156","372414","0.0-156.0","p493868","AUFUUD4WG9CVO","3P888QFVX40Z2B7BK75OWKP045JQOK","3Z4AIRP3C8J120ZGQL763G3AR9Q1XQ","model","mismatch","uniform","","","","","","","","372196.7999999523","374198","","","","","","","","","","","","8","","stimuli/stars_8.png","239.5","","","","","stimuli/HF10_SUR.jpg","",""
"explore-choice","157","374088","0.0-157.0","p493868","AUFUUD4WG9CVO","3P888QFVX40Z2B7BK75OWKP045JQOK","3Z4AIRP3C8J120ZGQL763G3AR9Q1XQ","model","mismatch","uniform","","","","","","","1172.5","374198.60000002384","375371.10000002384","[""stimuli/HF10_HE.jpg"",""stimuli/AF11_SUR.jpg"",""stimuli/AF10_AO.jpg"",""stimuli/AM05_FO.jpg""]","stimuli/HF10_HE.jpg","stimuli/AF11_SUR.jpg","stimuli/AF10_AO.jpg","stimuli/AM05_FO.jpg","pos2","stimuli/AF11_SUR.jpg","SUR","AF11","1","4.5","9","8","stimuli/stars_9.png","244","[""HE"",""SUR"",""AO"",""FO""]","[""HF10"",""AF11"",""AF10"",""AM05""]","[1,9,3,6]","[2,8,4,6]","","",""
"show-reward","158","376094","0.0-158.0","p493868","AUFUUD4WG9CVO","3P888QFVX40Z2B7BK75OWKP045JQOK","3Z4AIRP3C8J120ZGQL763G3AR9Q1XQ","model","mismatch","uniform","","","","","","","","375873.1999999285","377878.6999999285","","","","","","","","","","","","9","","stimuli/stars_9.png","244","","","","","stimuli/AF11_SUR.jpg","",""
"explore-choice","159","379145","0.0-159.0","p493868","AUFUUD4WG9CVO","3P888QFVX40Z2B7BK75OWKP045JQOK","3Z4AIRP3C8J120ZGQL763G3AR9Q1XQ","model","mismatch","uniform","","","","","","","2541.5","377879.5","380421","[""stimuli/AF11_FO.jpg"",""stimuli/AM05_HE.jpg"",""stimuli/HF10_SUR.jpg"",""stimuli/AF10_AO.jpg""]","stimuli/AF11_FO.jpg","stimuli/AM05_HE.jpg","stimuli/HF10_SUR.jpg","stimuli/AF10_AO.jpg","pos3","stimuli/HF10_SUR.jpg","SUR","HF10","2","4.5","9","8","stimuli/stars_9.png","248.5","[""FO"",""HE"",""SUR"",""AO""]","[""AF11"",""AM05"",""HF10"",""AF10""]","[5,3,9,6]","[6,2,8,4]","","",""
"show-reward","160","381149","0.0-160.0","p493868","AUFUUD4WG9CVO","3P888QFVX40Z2B7BK75OWKP045JQOK","3Z4AIRP3C8J120ZGQL763G3AR9Q1XQ","model","mismatch","uniform","","","","","","","","380930","382933.2999999523","","","","","","","","","","","","9","","stimuli/stars_9.png","248.5","","","","","stimuli/HF10_SUR.jpg","",""
"explore-choice","161","384322","0.0-161.0","p493868","AUFUUD4WG9CVO","3P888QFVX40Z2B7BK75OWKP045JQOK","3Z4AIRP3C8J120ZGQL763G3AR9Q1XQ","model","mismatch","uniform","","","","","","","2670.5","382934.2999999523","385604.7999999523","[""stimuli/AF10_HE.jpg"",""stimuli/HF10_FO.jpg"",""stimuli/AF11_AO.jpg"",""stimuli/AM05_SUR.jpg""]","stimuli/AF10_HE.jpg","stimuli/HF10_FO.jpg","stimuli/AF11_AO.jpg","stimuli/AM05_SUR.jpg","pos4","stimuli/AM05_SUR.jpg","SUR","AM05","3","4.5","9","8","stimuli/stars_9.png","253","[""HE"",""FO"",""AO"",""SUR""]","[""AF10"",""HF10"",""AF11"",""AM05""]","[1,7,2,9]","[2,6,4,8]","","",""
"show-reward","162","386327","0.0-162.0","p493868","AUFUUD4WG9CVO","3P888QFVX40Z2B7BK75OWKP045JQOK","3Z4AIRP3C8J120ZGQL763G3AR9Q1XQ","model","mismatch","uniform","","","","","","","","386106.89999997616","388110.7999999523","","","","","","","","","","","","9","","stimuli/stars_9.png","253","","","","","stimuli/AM05_SUR.jpg","",""
"explore-choice","163","389638","0.0-163.0","p493868","AUFUUD4WG9CVO","3P888QFVX40Z2B7BK75OWKP045JQOK","3Z4AIRP3C8J120ZGQL763G3AR9Q1XQ","model","mismatch","uniform","","","","","","","2809.399999976158","388111.60000002384","390921","[""stimuli/AM05_FO.jpg"",""stimuli/HF10_SUR.jpg"",""stimuli/AF10_AO.jpg"",""stimuli/AF11_HE.jpg""]","stimuli/AM05_FO.jpg","stimuli/HF10_SUR.jpg","stimuli/AF10_AO.jpg","stimuli/AF11_HE.jpg","pos2","stimuli/HF10_SUR.jpg","SUR","HF10","1","3.5","7","8","stimuli/stars_7.png","256.5","[""FO"",""SUR"",""AO"",""HE""]","[""AM05"",""HF10"",""AF10"",""AF11""]","[4,7,4,1]","[6,8,4,2]","","",""
"show-reward","164","391649","0.0-164.0","p493868","AUFUUD4WG9CVO","3P888QFVX40Z2B7BK75OWKP045JQOK","3Z4AIRP3C8J120ZGQL763G3AR9Q1XQ","model","mismatch","uniform","","","","","","","","391422.89999997616","393433.60000002384","","","","","","","","","","","","7","","stimuli/stars_7.png","256.5","","","","","stimuli/HF10_SUR.jpg","",""
"explore-choice","165","393539","0.0-165.0","p493868","AUFUUD4WG9CVO","3P888QFVX40Z2B7BK75OWKP045JQOK","3Z4AIRP3C8J120ZGQL763G3AR9Q1XQ","model","mismatch","uniform","","","","","","","1388.2999999523163","393434.5","394822.7999999523","[""stimuli/AF11_AO.jpg"",""stimuli/AM05_SUR.jpg"",""stimuli/AF10_FO.jpg"",""stimuli/HF10_HE.jpg""]","stimuli/AF11_AO.jpg","stimuli/AM05_SUR.jpg","stimuli/AF10_FO.jpg","stimuli/HF10_HE.jpg","pos2","stimuli/AM05_SUR.jpg","SUR","AM05","1","4.5","9","8","stimuli/stars_9.png","261","[""AO"",""SUR"",""FO"",""HE""]","[""AF11"",""AM05"",""AF10"",""HF10""]","[4,9,4,2]","[4,8,6,2]","","",""
"show-reward","166","395547","0.0-166.0","p493868","AUFUUD4WG9CVO","3P888QFVX40Z2B7BK75OWKP045JQOK","3Z4AIRP3C8J120ZGQL763G3AR9Q1XQ","model","mismatch","uniform","","","","","","","","395323.89999997616","397330.60000002384","","","","","","","","","","","","9","","stimuli/stars_9.png","261","","","","","stimuli/AM05_SUR.jpg","",""
"explore-choice","167","398665","0.0-167.0","p493868","AUFUUD4WG9CVO","3P888QFVX40Z2B7BK75OWKP045JQOK","3Z4AIRP3C8J120ZGQL763G3AR9Q1XQ","model","mismatch","uniform","","","","","","","2617.2000000476837","397331.6999999285","399948.89999997616","[""stimuli/HF10_SUR.jpg"",""stimuli/AM05_HE.jpg"",""stimuli/AF11_AO.jpg"",""stimuli/AF10_FO.jpg""]","stimuli/HF10_SUR.jpg","stimuli/AM05_HE.jpg","stimuli/AF11_AO.jpg","stimuli/AF10_FO.jpg","pos1","stimuli/HF10_SUR.jpg","SUR","HF10","0","4.5","9","8","stimuli/stars_9.png","265.5","[""SUR"",""HE"",""AO"",""FO""]","[""HF10"",""AM05"",""AF11"",""AF10""]","[9,3,5,5]","[8,2,4,6]","","",""
"show-reward","168","400668","0.0-168.0","p493868","AUFUUD4WG9CVO","3P888QFVX40Z2B7BK75OWKP045JQOK","3Z4AIRP3C8J120ZGQL763G3AR9Q1XQ","model","mismatch","uniform","","","","","","","","400450.39999997616","402451.89999997616","","","","","","","","","","","","9","","stimuli/stars_9.png","265.5","","","","","stimuli/HF10_SUR.jpg","",""
"explore-choice","169","403519","0.0-169.0","p493868","AUFUUD4WG9CVO","3P888QFVX40Z2B7BK75OWKP045JQOK","3Z4AIRP3C8J120ZGQL763G3AR9Q1XQ","model","mismatch","uniform","","","","","","","2344.1999999284744","402452.60000002384","404796.7999999523","[""stimuli/AF11_AO.jpg"",""stimuli/AM05_HE.jpg"",""stimuli/HF10_FO.jpg"",""stimuli/AF10_SUR.jpg""]","stimuli/AF11_AO.jpg","stimuli/AM05_HE.jpg","stimuli/HF10_FO.jpg","stimuli/AF10_SUR.jpg","pos4","stimuli/AF10_SUR.jpg","SUR","AF10","3","4.5","9","8","stimuli/stars_9.png","270","[""AO"",""HE"",""FO"",""SUR""]","[""AF11"",""AM05"",""HF10"",""AF10""]","[2,0,6,9]","[4,2,6,8]","","",""
"show-reward","170","405533","0.0-170.0","p493868","AUFUUD4WG9CVO","3P888QFVX40Z2B7BK75OWKP045JQOK","3Z4AIRP3C8J120ZGQL763G3AR9Q1XQ","model","mismatch","uniform","","","","","","","","405303.6999999285","407317.39999997616","","","","","","","","","","","","9","","stimuli/stars_9.png","270","","","","","stimuli/AF10_SUR.jpg","",""
"explore-choice","171","407951","0.0-171.0","p493868","AUFUUD4WG9CVO","3P888QFVX40Z2B7BK75OWKP045JQOK","3Z4AIRP3C8J120ZGQL763G3AR9Q1XQ","model","mismatch","uniform","","","","","","","1916.6000000238419","407318.2999999523","409234.89999997616","[""stimuli/HF10_AO.jpg"",""stimuli/AF10_FO.jpg"",""stimuli/AM05_SUR.jpg"",""stimuli/AF11_HE.jpg""]","stimuli/HF10_AO.jpg","stimuli/AF10_FO.jpg","stimuli/AM05_SUR.jpg","stimuli/AF11_HE.jpg","pos4","stimuli/AF11_HE.jpg","HE","AF11","3","1.5","3","2","stimuli/stars_3.png","271.5","[""AO"",""FO"",""SUR"",""HE""]","[""HF10"",""AF10"",""AM05"",""AF11""]","[5,8,8,3]","[4,6,8,2]","","",""
"show-reward","172","409953","0.0-172.0","p493868","AUFUUD4WG9CVO","3P888QFVX40Z2B7BK75OWKP045JQOK","3Z4AIRP3C8J120ZGQL763G3AR9Q1XQ","model","mismatch","uniform","","","","","","","","409736","411737.5","","","","","","","","","","","","3","","stimuli/stars_3.png","271.5","","","","","stimuli/AF11_HE.jpg","",""
"explore-choice","173","412333","0.0-173.0","p493868","AUFUUD4WG9CVO","3P888QFVX40Z2B7BK75OWKP045JQOK","3Z4AIRP3C8J120ZGQL763G3AR9Q1XQ","model","mismatch","uniform","","","","","","","1878.5","411738.1999999285","413616.6999999285","[""stimuli/AF10_FO.jpg"",""stimuli/HF10_HE.jpg"",""stimuli/AF11_SUR.jpg"",""stimuli/AM05_AO.jpg""]","stimuli/AF10_FO.jpg","stimuli/HF10_HE.jpg","stimuli/AF11_SUR.jpg","stimuli/AM05_AO.jpg","pos3","stimuli/AF11_SUR.jpg","SUR","AF11","2","5","10","8","stimuli/stars_10.png","276.5","[""FO"",""HE"",""SUR"",""AO""]","[""AF10"",""HF10"",""AF11"",""AM05""]","[5,3,10,6]","[6,2,8,4]","","",""
"show-reward","174","414340","0.0-174.0","p493868","AUFUUD4WG9CVO","3P888QFVX40Z2B7BK75OWKP045JQOK","3Z4AIRP3C8J120ZGQL763G3AR9Q1XQ","model","mismatch","uniform","","","","","","","","414117.89999997616","416124.2999999523","","","","","","","","","","","","10","","stimuli/stars_10.png","276.5","","","","","stimuli/AF11_SUR.jpg","",""
"explore-choice","175","418283","0.0-175.0","p493868","AUFUUD4WG9CVO","3P888QFVX40Z2B7BK75OWKP045JQOK","3Z4AIRP3C8J120ZGQL763G3AR9Q1XQ","model","mismatch","uniform","","","","","","","3441.7999999523163","416125.10000002384","419566.89999997616","[""stimuli/HF10_SUR.jpg"",""stimuli/AF10_FO.jpg"",""stimuli/AF11_HE.jpg"",""stimuli/AM05_AO.jpg""]","stimuli/HF10_SUR.jpg","stimuli/AF10_FO.jpg","stimuli/AF11_HE.jpg","stimuli/AM05_AO.jpg","pos1","stimuli/HF10_SUR.jpg","SUR","HF10","0","4","8","8","stimuli/stars_8.png","280.5","[""SUR"",""FO"",""HE"",""AO""]","[""HF10"",""AF10"",""AF11"",""AM05""]","[8,8,2,3]","[8,6,2,4]","","",""
"show-reward","176","420286","0.0-176.0","p493868","AUFUUD4WG9CVO","3P888QFVX40Z2B7BK75OWKP045JQOK","3Z4AIRP3C8J120ZGQL763G3AR9Q1XQ","model","mismatch","uniform","","","","","","","","420068.10000002384","422070.60000002384","","","","","","","","","","","","8","","stimuli/stars_8.png","280.5","","","","","stimuli/HF10_SUR.jpg","",""
"explore-choice","177","423615","0.0-177.0","p493868","AUFUUD4WG9CVO","3P888QFVX40Z2B7BK75OWKP045JQOK","3Z4AIRP3C8J120ZGQL763G3AR9Q1XQ","model","mismatch","uniform","","","","","","","2827.399999976158","422071.5","424898.89999997616","[""stimuli/AF10_SUR.jpg"",""stimuli/HF10_AO.jpg"",""stimuli/AF11_FO.jpg"",""stimuli/AM05_HE.jpg""]","stimuli/AF10_SUR.jpg","stimuli/HF10_AO.jpg","stimuli/AF11_FO.jpg","stimuli/AM05_HE.jpg","pos1","stimuli/AF10_SUR.jpg","SUR","AF10","0","3","6","8","stimuli/stars_6.png","283.5","[""SUR"",""AO"",""FO"",""HE""]","[""AF10"",""HF10"",""AF11"",""AM05""]","[6,5,4,0]","[8,4,6,2]","","",""
"show-reward","178","425631","0.0-178.0","p493868","AUFUUD4WG9CVO","3P888QFVX40Z2B7BK75OWKP045JQOK","3Z4AIRP3C8J120ZGQL763G3AR9Q1XQ","model","mismatch","uniform","","","","","","","","425399.89999997616","427415.2999999523","","","","","","","","","","","","6","","stimuli/stars_6.png","283.5","","","","","stimuli/AF10_SUR.jpg","",""
"explore-choice","179","429655","0.0-179.0","p493868","AUFUUD4WG9CVO","3P888QFVX40Z2B7BK75OWKP045JQOK","3Z4AIRP3C8J120ZGQL763G3AR9Q1XQ","model","mismatch","uniform","","","","","","","3522.100000023842","427416.1999999285","430938.2999999523","[""stimuli/AF10_SUR.jpg"",""stimuli/AF11_HE.jpg"",""stimuli/HF10_AO.jpg"",""stimuli/AM05_FO.jpg""]","stimuli/AF10_SUR.jpg","stimuli/AF11_HE.jpg","stimuli/HF10_AO.jpg","stimuli/AM05_FO.jpg","pos1","stimuli/AF10_SUR.jpg","SUR","AF10","0","3.5","7","8","stimuli/stars_7.png","287","[""SUR"",""HE"",""AO"",""FO""]","[""AF10"",""AF11"",""HF10"",""AM05""]","[7,2,6,5]","[8,2,4,6]","","",""
"show-reward","180","431665","0.0-180.0","p493868","AUFUUD4WG9CVO","3P888QFVX40Z2B7BK75OWKP045JQOK","3Z4AIRP3C8J120ZGQL763G3AR9Q1XQ","model","mismatch","uniform","","","","","","","","431440","433449.89999997616","","","","","","","","","","","","7","","stimuli/stars_7.png","287","","","","","stimuli/AF10_SUR.jpg","",""
"explore-choice","181","435086","0.0-181.0","p493868","AUFUUD4WG9CVO","3P888QFVX40Z2B7BK75OWKP045JQOK","3Z4AIRP3C8J120ZGQL763G3AR9Q1XQ","model","mismatch","uniform","","","","","","","2918.2000000476837","433450.6999999285","436368.89999997616","[""stimuli/AF11_FO.jpg"",""stimuli/AM05_AO.jpg"",""stimuli/HF10_HE.jpg"",""stimuli/AF10_SUR.jpg""]","stimuli/AF11_FO.jpg","stimuli/AM05_AO.jpg","stimuli/HF10_HE.jpg","stimuli/AF10_SUR.jpg","pos4","stimuli/AF10_SUR.jpg","SUR","AF10","3","3.5","7","8","stimuli/stars_7.png","290.5","[""FO"",""AO"",""HE"",""SUR""]","[""AF11"",""AM05"",""HF10"",""AF10""]","[6,2,2,7]","[6,4,2,8]","","",""
"show-reward","182","437100","0.0-182.0","p493868","AUFUUD4WG9CVO","3P888QFVX40Z2B7BK75OWKP045JQOK","3Z4AIRP3C8J120ZGQL763G3AR9Q1XQ","model","mismatch","uniform","","","","","","","","436870.60000002384","438884.1999999285","","","","","","","","","","","","7","","stimuli/stars_7.png","290.5","","","","","stimuli/AF10_SUR.jpg","",""
"explore-choice","183","438895","0.0-183.0","p493868","AUFUUD4WG9CVO","3P888QFVX40Z2B7BK75OWKP045JQOK","3Z4AIRP3C8J120ZGQL763G3AR9Q1XQ","model","mismatch","uniform","","","","","","","1293.7999999523163","438884.89999997616","440178.6999999285","[""stimuli/AF11_SUR.jpg"",""stimuli/AF10_HE.jpg"",""stimuli/HF10_AO.jpg"",""stimuli/AM05_FO.jpg""]","stimuli/AF11_SUR.jpg","stimuli/AF10_HE.jpg","stimuli/HF10_AO.jpg","stimuli/AM05_FO.jpg","pos1","stimuli/AF11_SUR.jpg","SUR","AF11","0","4.5","9","8","stimuli/stars_9.png","295","[""SUR"",""HE"",""AO"",""FO""]","[""AF11"",""AF10"",""HF10"",""AM05""]","[9,3,5,4]","[8,2,4,6]","","",""
"show-reward","184","440906","0.0-184.0","p493868","AUFUUD4WG9CVO","3P888QFVX40Z2B7BK75OWKP045JQOK","3Z4AIRP3C8J120ZGQL763G3AR9Q1XQ","model","mismatch","uniform","","","","","","","","440680.2999999523","442690.6999999285","","","","","","","","","","","","9","","stimuli/stars_9.png","295","","","","","stimuli/AF11_SUR.jpg","",""
"explore-choice","185","444183","0.0-185.0","p493868","AUFUUD4WG9CVO","3P888QFVX40Z2B7BK75OWKP045JQOK","3Z4AIRP3C8J120ZGQL763G3AR9Q1XQ","model","mismatch","uniform","","","","","","","2775.600000023842","442691.5","445467.10000002384","[""stimuli/AF11_HE.jpg"",""stimuli/AF10_SUR.jpg"",""stimuli/HF10_FO.jpg"",""stimuli/AM05_AO.jpg""]","stimuli/AF11_HE.jpg","stimuli/AF10_SUR.jpg","stimuli/HF10_FO.jpg","stimuli/AM05_AO.jpg","pos2","stimuli/AF10_SUR.jpg","SUR","AF10","1","5","10","8","stimuli/stars_10.png","300","[""HE"",""SUR"",""FO"",""AO""]","[""AF11"",""AF10"",""HF10"",""AM05""]","[2,10,5,3]","[2,8,6,4]","","",""
"show-reward","186","446188","0.0-186.0","p493868","AUFUUD4WG9CVO","3P888QFVX40Z2B7BK75OWKP045JQOK","3Z4AIRP3C8J120ZGQL763G3AR9Q1XQ","model","mismatch","uniform","","","","","","","","445968.7999999523","447973","","","","","","","","","","","","10","","stimuli/stars_10.png","300","","","","","stimuli/AF10_SUR.jpg","",""
"explore-choice","187","449499","0.0-187.0","p493868","AUFUUD4WG9CVO","3P888QFVX40Z2B7BK75OWKP045JQOK","3Z4AIRP3C8J120ZGQL763G3AR9Q1XQ","model","mismatch","uniform","","","","","","","2809","447973.7999999523","450782.7999999523","[""stimuli/AF10_HE.jpg"",""stimuli/HF10_FO.jpg"",""stimuli/AM05_AO.jpg"",""stimuli/AF11_SUR.jpg""]","stimuli/AF10_HE.jpg","stimuli/HF10_FO.jpg","stimuli/AM05_AO.jpg","stimuli/AF11_SUR.jpg","pos4","stimuli/AF11_SUR.jpg","SUR","AF11","3","3","6","8","stimuli/stars_6.png","303","[""HE"",""FO"",""AO"",""SUR""]","[""AF10"",""HF10"",""AM05"",""AF11""]","[3,7,5,6]","[2,6,4,8]","","",""
"show-reward","188","451515","0.0-188.0","p493868","AUFUUD4WG9CVO","3P888QFVX40Z2B7BK75OWKP045JQOK","3Z4AIRP3C8J120ZGQL763G3AR9Q1XQ","model","mismatch","uniform","","","","","","","","451283.7999999523","453299.1999999285","","","","","","","","","","","","6","","stimuli/stars_6.png","303","","","","","stimuli/AF11_SUR.jpg","",""
"explore-choice","189","454679","0.0-189.0","p493868","AUFUUD4WG9CVO","3P888QFVX40Z2B7BK75OWKP045JQOK","3Z4AIRP3C8J120ZGQL763G3AR9Q1XQ","model","mismatch","uniform","","","","","","","2662.7999999523163","453300","455962.7999999523","[""stimuli/AM05_AO.jpg"",""stimuli/AF10_HE.jpg"",""stimuli/AF11_FO.jpg"",""stimuli/HF10_SUR.jpg""]","stimuli/AM05_AO.jpg","stimuli/AF10_HE.jpg","stimuli/AF11_FO.jpg","stimuli/HF10_SUR.jpg","pos4","stimuli/HF10_SUR.jpg","SUR","HF10","3","4.5","9","8","stimuli/stars_9.png","307.5","[""AO"",""HE"",""FO"",""SUR""]","[""AM05"",""AF10"",""AF11"",""HF10""]","[6,0,7,9]","[4,2,6,8]","","",""
"show-reward","190","456688","0.0-190.0","p493868","AUFUUD4WG9CVO","3P888QFVX40Z2B7BK75OWKP045JQOK","3Z4AIRP3C8J120ZGQL763G3AR9Q1XQ","model","mismatch","uniform","","","","","","","","456464.39999997616","458472.10000002384","","","","","","","","","","","","9","","stimuli/stars_9.png","307.5","","","","","stimuli/HF10_SUR.jpg","",""
"explore-choice","191","458730","0.0-191.0","p493868","AUFUUD4WG9CVO","3P888QFVX40Z2B7BK75OWKP045JQOK","3Z4AIRP3C8J120ZGQL763G3AR9Q1XQ","model","mismatch","uniform","","","","","","","1541.8999999761581","458472.89999997616","460014.7999999523","[""stimuli/HF10_FO.jpg"",""stimuli/AF10_AO.jpg"",""stimuli/AF11_HE.jpg"",""stimuli/AM05_SUR.jpg""]","stimuli/HF10_FO.jpg","stimuli/AF10_AO.jpg","stimuli/AF11_HE.jpg","stimuli/AM05_SUR.jpg","pos4","stimuli/AM05_SUR.jpg","SUR","AM05","3","4","8","8","stimuli/stars_8.png","311.5","[""FO"",""AO"",""HE"",""SUR""]","[""HF10"",""AF10"",""AF11"",""AM05""]","[8,5,3,8]","[6,4,2,8]","","",""
"show-reward","192","460742","0.0-192.0","p493868","AUFUUD4WG9CVO","3P888QFVX40Z2B7BK75OWKP045JQOK","3Z4AIRP3C8J120ZGQL763G3AR9Q1XQ","model","mismatch","uniform","","","","","","","","460515.5","462526.7999999523","","","","","","","","","","","","8","","stimuli/stars_8.png","311.5","","","","","stimuli/AM05_SUR.jpg","",""
"explore-choice","193","462301","0.0-193.0","p493868","AUFUUD4WG9CVO","3P888QFVX40Z2B7BK75OWKP045JQOK","3Z4AIRP3C8J120ZGQL763G3AR9Q1XQ","model","mismatch","uniform","","","","","","","1057.2999999523163","462527.60000002384","463584.89999997616","[""stimuli/AF11_FO.jpg"",""stimuli/HF10_HE.jpg"",""stimuli/AM05_SUR.jpg"",""stimuli/AF10_AO.jpg""]","stimuli/AF11_FO.jpg","stimuli/HF10_HE.jpg","stimuli/AM05_SUR.jpg","stimuli/AF10_AO.jpg","pos3","stimuli/AM05_SUR.jpg","SUR","AM05","2","4.5","9","8","stimuli/stars_9.png","316","[""FO"",""HE"",""SUR"",""AO""]","[""AF11"",""HF10"",""AM05"",""AF10""]","[6,1,9,2]","[6,2,8,4]","","",""
"show-reward","194","464316","0.0-194.0","p493868","AUFUUD4WG9CVO","3P888QFVX40Z2B7BK75OWKP045JQOK","3Z4AIRP3C8J120ZGQL763G3AR9Q1XQ","model","mismatch","uniform","","","","","","","","464085.7999999523","466100.7999999523","","","","","","","","","","","","9","","stimuli/stars_9.png","316","","","","","stimuli/AM05_SUR.jpg","",""
"explore-choice","195","465983","0.0-195.0","p493868","AUFUUD4WG9CVO","3P888QFVX40Z2B7BK75OWKP045JQOK","3Z4AIRP3C8J120ZGQL763G3AR9Q1XQ","model","mismatch","uniform","","","","","","","1165.1999999284744","466101.60000002384","467266.7999999523","[""stimuli/AM05_HE.jpg"",""stimuli/AF10_AO.jpg"",""stimuli/AF11_SUR.jpg"",""stimuli/HF10_FO.jpg""]","stimuli/AM05_HE.jpg","stimuli/AF10_AO.jpg","stimuli/AF11_SUR.jpg","stimuli/HF10_FO.jpg","pos3","stimuli/AF11_SUR.jpg","SUR","AF11","2","5","10","8","stimuli/stars_10.png","321","[""HE"",""AO"",""SUR"",""FO""]","[""AM05"",""AF10"",""AF11"",""HF10""]","[3,6,10,7]","[2,4,8,6]","","",""
"show-reward","196","467991","0.0-196.0","p493868","AUFUUD4WG9CVO","3P888QFVX40Z2B7BK75OWKP045JQOK","3Z4AIRP3C8J120ZGQL763G3AR9Q1XQ","model","mismatch","uniform","","","","","","","","467768.1999999285","469776","","","","","","","","","","","","10","","stimuli/stars_10.png","321","","","","","stimuli/AF11_SUR.jpg","",""
"explore-choice","197","470193","0.0-197.0","p493868","AUFUUD4WG9CVO","3P888QFVX40Z2B7BK75OWKP045JQOK","3Z4AIRP3C8J120ZGQL763G3AR9Q1XQ","model","mismatch","uniform","","","","","","","1700.1000000238419","469776.6999999285","471476.7999999523","[""stimuli/AF11_AO.jpg"",""stimuli/AF10_SUR.jpg"",""stimuli/HF10_HE.jpg"",""stimuli/AM05_FO.jpg""]","stimuli/AF11_AO.jpg","stimuli/AF10_SUR.jpg","stimuli/HF10_HE.jpg","stimuli/AM05_FO.jpg","pos2","stimuli/AF10_SUR.jpg","SUR","AF10","1","4.5","9","8","stimuli/stars_9.png","325.5","[""AO"",""SUR"",""HE"",""FO""]","[""AF11"",""AF10"",""HF10"",""AM05""]","[6,9,3,7]","[4,8,2,6]","","",""
"show-reward","198","472208","0.0-198.0","p493868","AUFUUD4WG9CVO","3P888QFVX40Z2B7BK75OWKP045JQOK","3Z4AIRP3C8J120ZGQL763G3AR9Q1XQ","model","mismatch","uniform","","","","","","","","471978.1999999285","473993","","","","","","","","","","","","9","","stimuli/stars_9.png","325.5","","","","","stimuli/AF10_SUR.jpg","",""
"instructions","199","475653","0.0-199.0","p493868","AUFUUD4WG9CVO","3P888QFVX40Z2B7BK75OWKP045JQOK","3Z4AIRP3C8J120ZGQL763G3AR9Q1XQ","model","mismatch","uniform","","","","","","[{""page_index"":0,""viewing_time"":3442.7999999523163}]","3443.100000023842","","","","","","","","","","","","","","","","","","","","","","","",""
"survey-text","200","480187","0.0-200.0-0.0","p493868","AUFUUD4WG9CVO","3P888QFVX40Z2B7BK75OWKP045JQOK","3Z4AIRP3C8J120ZGQL763G3AR9Q1XQ","model","mismatch","uniform","","","","","","","4531.299999952316","","","","","","","","","","","","","","","","","","","","","","","{""age"":""31""}",""
"survey-text","201","483203","0.0-200.0-1.0","p493868","AUFUUD4WG9CVO","3P888QFVX40Z2B7BK75OWKP045JQOK","3Z4AIRP3C8J120ZGQL763G3AR9Q1XQ","model","mismatch","uniform","","","","","","","3013.7000000476837","","","","","","","","","","","","","","","","","","","","","","","{""gender"":""Male""}",""
"survey-text","202","486275","0.0-200.0-2.0","p493868","AUFUUD4WG9CVO","3P888QFVX40Z2B7BK75OWKP045JQOK","3Z4AIRP3C8J120ZGQL763G3AR9Q1XQ","model","mismatch","uniform","","","","","","","3069.8000000715256","","","","","","","","","","","","","","","","","","","","","","","{""country"":""USA""}",""
"survey-text","203","491283","0.0-200.0-3.0","p493868","AUFUUD4WG9CVO","3P888QFVX40Z2B7BK75OWKP045JQOK","3Z4AIRP3C8J120ZGQL763G3AR9Q1XQ","model","mismatch","uniform","","","","","","","5005.700000047684","","","","","","","","","","","","","","","","","","","","","","","{""language"":""English"",""other_languages"":""N/A""}",""
"survey-multi-select","204","493015","0.0-201.0","p493868","AUFUUD4WG9CVO","3P888QFVX40Z2B7BK75OWKP045JQOK","3Z4AIRP3C8J120ZGQL763G3AR9Q1XQ","model","mismatch","uniform","","","","","","","1729","","","","","","","","","","","","","","","","","","","","","","","{""race"":[""White""]}","[0]"
"survey-multi-choice","205","495163","0.0-202.0","p493868","AUFUUD4WG9CVO","3P888QFVX40Z2B7BK75OWKP045JQOK","3Z4AIRP3C8J120ZGQL763G3AR9Q1XQ","model","mismatch","uniform","","","","","","","2146.5","","","","","","","","","","","","","","","","","","","","","","","{""education"":""Bachelor's degree""}","[0]"
"survey-text","206","514771","0.0-203.0","p493868","AUFUUD4WG9CVO","3P888QFVX40Z2B7BK75OWKP045JQOK","3Z4AIRP3C8J120ZGQL763G3AR9Q1XQ","model","mismatch","uniform","","","","","","","19603.5","","","","","","","","","","","","","","","","","","","","","","","{""patterns"":""In the second one startled people paid more"",""strategy"":""Not really"",""comments"":""No""}",""
