"trial_type","trial_index","time_elapsed","internal_node_id","subject","workerId","hitId","assignmentId","structure_condition","match_condition","noise_type","success","timeout","failed_images","failed_audio","failed_video","view_history","rt","start_time","end_time","stimuli","image1","image2","image3","image4","choiceLocation","choiceImage","choiceEmotion","choiceModel","choice_index","reward_score","reward","reward_score_unadjusted","reward_image","score_after_trial","emotions","models","rewards","rewards_unadjusted","stimulus","response","question_order"
"pavlovia","0","26","0.0-0.0","p764002","A267AK93EY4TMC","3P888QFVX40Z2B7BK75OWKP045JQOK","3VE8AYVF8O32DESGPCAZCJQB1A08FQ","model","match","uniform","","","","","","","","","","","","","","","","","","","","","","","","","","","","","","",""
"preload","1","59274","0.0-1.0","p764002","A267AK93EY4TMC","3P888QFVX40Z2B7BK75OWKP045JQOK","3VE8AYVF8O32DESGPCAZCJQB1A08FQ","model","match","uniform","true","false","[]","[]","[]","","","","","","","","","","","","","","","","","","","","","","","","","",""
"fullscreen","2","77094","0.0-2.0","p764002","A267AK93EY4TMC","3P888QFVX40Z2B7BK75OWKP045JQOK","3VE8AYVF8O32DESGPCAZCJQB1A08FQ","model","match","uniform","true","","","","","","","","","","","","","","","","","","","","","","","","","","","","","",""
"instructions","3","78156","0.0-3.0","p764002","A267AK93EY4TMC","3P888QFVX40Z2B7BK75OWKP045JQOK","3VE8AYVF8O32DESGPCAZCJQB1A08FQ","model","match","uniform","","","","","","[{""page_index"":0,""viewing_time"":1058.2999999523163}]","1058.8999999761581","","","","","","","","","","","","","","","","","","","","","","","",""
"explore-choice","4","82001","0.0-4.0","p764002","A267AK93EY4TMC","3P888QFVX40Z2B7BK75OWKP045JQOK","3VE8AYVF8O32DESGPCAZCJQB1A08FQ","model","match","uniform","","","","","","","3329.2000000476837","81808.39999997616","85137.60000002384","[""stimuli/sheep.jpg"",""stimuli/hammer.jpg"",""stimuli/basketball.jpg"",""stimuli/horse.jpg""]","stimuli/sheep.jpg","stimuli/hammer.jpg","stimuli/basketball.jpg","stimuli/horse.jpg","pos4","stimuli/horse.jpg","","","3","64","64","64","stimuli/stars_8.png","65","","","","","","",""
"explore-choice","5","84619","0.0-5.0","p764002","A267AK93EY4TMC","3P888QFVX40Z2B7BK75OWKP045JQOK","3VE8AYVF8O32DESGPCAZCJQB1A08FQ","model","match","uniform","","","","","","","2084.300000011921","85674.5","87758.80000001192","[""stimuli/hammer.jpg"",""stimuli/basketball.jpg"",""stimuli/horse.jpg"",""stimuli/sheep.jpg""]","stimuli/hammer.jpg","stimuli/basketball.jpg","stimuli/horse.jpg","stimuli/sheep.jpg","pos1","stimuli/hammer.jpg","","","0","8","8","8","stimuli/stars_2.png","9","","","","","","",""
"instructions","6","87445","0.0-6.0","p764002","A267AK93EY4TMC","3P888QFVX40Z2B7BK75OWKP045JQOK","3VE8AYVF8O32DESGPCAZCJQB1A08FQ","model","match","uniform","","","","","","[{""page_index"":0,""viewing_time"":2823.699999988079}]","2824.2999999523163","","","","","","","","","","","","","","","","","","","","","","","",""
"explore-choice","7","91972","0.0-7.0","p764002","A267AK93EY4TMC","3P888QFVX40Z2B7BK75OWKP045JQOK","3VE8AYVF8O32DESGPCAZCJQB1A08FQ","model","match","uniform","","","","","","","4011.399999976158","91098","95109.39999997616","[""stimuli/BM16_SUR.jpg"",""stimuli/AM03_DO.jpg"",""stimuli/HF04_HO.jpg"",""stimuli/AM09_CC.jpg""]","stimuli/BM16_SUR.jpg","stimuli/AM03_DO.jpg","stimuli/HF04_HO.jpg","stimuli/AM09_CC.jpg","pos3","stimuli/HF04_HO.jpg","HO","HF04","2","2.5","5","4","stimuli/stars_5.png","3.5","[""SUR"",""DO"",""HO"",""CC""]","[""BM16"",""AM03"",""HF04"",""AM09""]","[7,7,5,1]","[8,6,4,2]","","",""
"show-reward","8","94053","0.0-8.0","p764002","A267AK93EY4TMC","3P888QFVX40Z2B7BK75OWKP045JQOK","3VE8AYVF8O32DESGPCAZCJQB1A08FQ","model","match","uniform","","","","","","","","95638.5","97701.19999998808","","","","","","","","","","","","5","","stimuli/stars_5.png","3.5","","","","","stimuli/HF04_HO.jpg","",""
"explore-choice","9","98410","0.0-9.0","p764002","A267AK93EY4TMC","3P888QFVX40Z2B7BK75OWKP045JQOK","3VE8AYVF8O32DESGPCAZCJQB1A08FQ","model","match","uniform","","","","","","","3849.100000023842","97708.69999998808","101557.80000001192","[""stimuli/AM03_DO.jpg"",""stimuli/AM09_HO.jpg"",""stimuli/BM16_CC.jpg"",""stimuli/HF04_SUR.jpg""]","stimuli/AM03_DO.jpg","stimuli/AM09_HO.jpg","stimuli/BM16_CC.jpg","stimuli/HF04_SUR.jpg","pos2","stimuli/AM09_HO.jpg","HO","AM09","1","2","4","2","stimuli/stars_4.png","5.5","[""DO"",""HO"",""CC"",""SUR""]","[""AM03"",""AM09"",""BM16"",""HF04""]","[7,4,10,6]","[6,2,8,4]","","",""
"show-reward","10","100430","0.0-10.0","p764002","A267AK93EY4TMC","3P888QFVX40Z2B7BK75OWKP045JQOK","3VE8AYVF8O32DESGPCAZCJQB1A08FQ","model","match","uniform","","","","","","","","102064.39999997616","104078.69999998808","","","","","","","","","","","","4","","stimuli/stars_4.png","5.5","","","","","stimuli/AM09_HO.jpg","",""
"explore-choice","11","103930","0.0-11.0","p764002","A267AK93EY4TMC","3P888QFVX40Z2B7BK75OWKP045JQOK","3VE8AYVF8O32DESGPCAZCJQB1A08FQ","model","match","uniform","","","","","","","2994.899999976158","104083.30000001192","107078.19999998808","[""stimuli/AM09_HO.jpg"",""stimuli/AM03_SUR.jpg"",""stimuli/BM16_CC.jpg"",""stimuli/HF04_DO.jpg""]","stimuli/AM09_HO.jpg","stimuli/AM03_SUR.jpg","stimuli/BM16_CC.jpg","stimuli/HF04_DO.jpg","pos2","stimuli/AM03_SUR.jpg","SUR","AM03","1","3","6","6","stimuli/stars_6.png","8.5","[""HO"",""SUR"",""CC"",""DO""]","[""AM09"",""AM03"",""BM16"",""HF04""]","[0,6,6,4]","[2,6,8,4]","","",""
"show-reward","12","105947","0.0-12.0","p764002","A267AK93EY4TMC","3P888QFVX40Z2B7BK75OWKP045JQOK","3VE8AYVF8O32DESGPCAZCJQB1A08FQ","model","match","uniform","","","","","","","","107583.60000002384","109596.60000002384","","","","","","","","","","","","6","","stimuli/stars_6.png","8.5","","","","","stimuli/AM03_SUR.jpg","",""
"explore-choice","13","109191","0.0-13.0","p764002","A267AK93EY4TMC","3P888QFVX40Z2B7BK75OWKP045JQOK","3VE8AYVF8O32DESGPCAZCJQB1A08FQ","model","match","uniform","","","","","","","2734.399999976158","109600.80000001192","112335.19999998808","[""stimuli/AM09_CC.jpg"",""stimuli/AM03_DO.jpg"",""stimuli/BM16_HO.jpg"",""stimuli/HF04_SUR.jpg""]","stimuli/AM09_CC.jpg","stimuli/AM03_DO.jpg","stimuli/BM16_HO.jpg","stimuli/HF04_SUR.jpg","pos4","stimuli/HF04_SUR.jpg","SUR","HF04","3","2.5","5","4","stimuli/stars_5.png","11","[""CC"",""DO"",""HO"",""SUR""]","[""AM09"",""AM03"",""BM16"",""HF04""]","[1,8,8,5]","[2,6,8,4]","","",""
"show-reward","14","111203","0.0-14.0","p764002","A267AK93EY4TMC","3P888QFVX40Z2B7BK75OWKP045JQOK","3VE8AYVF8O32DESGPCAZCJQB1A08FQ","model","match","uniform","","","","","","","","112843.10000002384","114852.89999997616","","","","","","","","","","","","5","","stimuli/stars_5.png","11","","","","","stimuli/HF04_SUR.jpg","",""
"explore-choice","15","113922","0.0-15.0","p764002","A267AK93EY4TMC","3P888QFVX40Z2B7BK75OWKP045JQOK","3VE8AYVF8O32DESGPCAZCJQB1A08FQ","model","match","uniform","","","","","","","2214.600000023842","114855.89999997616","117070.5","[""stimuli/HF04_CC.jpg"",""stimuli/AM09_DO.jpg"",""stimuli/AM03_SUR.jpg"",""stimuli/BM16_HO.jpg""]","stimuli/HF04_CC.jpg","stimuli/AM09_DO.jpg","stimuli/AM03_SUR.jpg","stimuli/BM16_HO.jpg","pos3","stimuli/AM03_SUR.jpg","SUR","AM03","2","3.5","7","6","stimuli/stars_7.png","14.5","[""CC"",""DO"",""SUR"",""HO""]","[""HF04"",""AM09"",""AM03"",""BM16""]","[2,3,7,6]","[4,2,6,8]","","",""
"show-reward","16","115937","0.0-16.0","p764002","A267AK93EY4TMC","3P888QFVX40Z2B7BK75OWKP045JQOK","3VE8AYVF8O32DESGPCAZCJQB1A08FQ","model","match","uniform","","","","","","","","117575.30000001192","119586.80000001192","","","","","","","","","","","","7","","stimuli/stars_7.png","14.5","","","","","stimuli/AM03_SUR.jpg","",""
"explore-choice","17","118724","0.0-17.0","p764002","A267AK93EY4TMC","3P888QFVX40Z2B7BK75OWKP045JQOK","3VE8AYVF8O32DESGPCAZCJQB1A08FQ","model","match","uniform","","","","","","","2280.800000011921","119590.30000001192","121871.10000002384","[""stimuli/HF04_SUR.jpg"",""stimuli/BM16_CC.jpg"",""stimuli/AM03_HO.jpg"",""stimuli/AM09_DO.jpg""]","stimuli/HF04_SUR.jpg","stimuli/BM16_CC.jpg","stimuli/AM03_HO.jpg","stimuli/AM09_DO.jpg","pos1","stimuli/HF04_SUR.jpg","SUR","HF04","0","2.5","5","4","stimuli/stars_5.png","17","[""SUR"",""CC"",""HO"",""DO""]","[""HF04"",""BM16"",""AM03"",""AM09""]","[5,8,7,4]","[4,8,6,2]","","",""
"show-reward","18","120737","0.0-18.0","p764002","A267AK93EY4TMC","3P888QFVX40Z2B7BK75OWKP045JQOK","3VE8AYVF8O32DESGPCAZCJQB1A08FQ","model","match","uniform","","","","","","","","122376.10000002384","124386","","","","","","","","","","","","5","","stimuli/stars_5.png","17","","","","","stimuli/HF04_SUR.jpg","",""
"explore-choice","19","122834","0.0-19.0","p764002","A267AK93EY4TMC","3P888QFVX40Z2B7BK75OWKP045JQOK","3VE8AYVF8O32DESGPCAZCJQB1A08FQ","model","match","uniform","","","","","","","1587.0999999642372","124387.80000001192","125974.89999997616","[""stimuli/HF04_CC.jpg"",""stimuli/AM09_HO.jpg"",""stimuli/BM16_SUR.jpg"",""stimuli/AM03_DO.jpg""]","stimuli/HF04_CC.jpg","stimuli/AM09_HO.jpg","stimuli/BM16_SUR.jpg","stimuli/AM03_DO.jpg","pos2","stimuli/AM09_HO.jpg","HO","AM09","1","1.5","3","2","stimuli/stars_3.png","18.5","[""CC"",""HO"",""SUR"",""DO""]","[""HF04"",""AM09"",""BM16"",""AM03""]","[5,3,7,7]","[4,2,8,6]","","",""
"show-reward","20","124843","0.0-20.0","p764002","A267AK93EY4TMC","3P888QFVX40Z2B7BK75OWKP045JQOK","3VE8AYVF8O32DESGPCAZCJQB1A08FQ","model","match","uniform","","","","","","","","126485.60000002384","128492.60000002384","","","","","","","","","","","","3","","stimuli/stars_3.png","18.5","","","","","stimuli/AM09_HO.jpg","",""
"explore-choice","21","126830","0.0-21.0","p764002","A267AK93EY4TMC","3P888QFVX40Z2B7BK75OWKP045JQOK","3VE8AYVF8O32DESGPCAZCJQB1A08FQ","model","match","uniform","","","","","","","1480.2999999523163","128494.60000002384","129974.89999997616","[""stimuli/AM09_SUR.jpg"",""stimuli/BM16_CC.jpg"",""stimuli/AM03_DO.jpg"",""stimuli/HF04_HO.jpg""]","stimuli/AM09_SUR.jpg","stimuli/BM16_CC.jpg","stimuli/AM03_DO.jpg","stimuli/HF04_HO.jpg","pos1","stimuli/AM09_SUR.jpg","SUR","AM09","0","0.5","1","2","stimuli/stars_1.png","19","[""SUR"",""CC"",""DO"",""HO""]","[""AM09"",""BM16"",""AM03"",""HF04""]","[1,9,7,6]","[2,8,6,4]","","",""
"show-reward","22","128841","0.0-22.0","p764002","A267AK93EY4TMC","3P888QFVX40Z2B7BK75OWKP045JQOK","3VE8AYVF8O32DESGPCAZCJQB1A08FQ","model","match","uniform","","","","","","","","130481.69999998808","132489.89999997616","","","","","","","","","","","","1","","stimuli/stars_1.png","19","","","","","stimuli/AM09_SUR.jpg","",""
"explore-choice","23","131070","0.0-23.0","p764002","A267AK93EY4TMC","3P888QFVX40Z2B7BK75OWKP045JQOK","3VE8AYVF8O32DESGPCAZCJQB1A08FQ","model","match","uniform","","","","","","","1720.6000000238419","132493","134213.60000002384","[""stimuli/AM09_CC.jpg"",""stimuli/HF04_DO.jpg"",""stimuli/BM16_SUR.jpg"",""stimuli/AM03_HO.jpg""]","stimuli/AM09_CC.jpg","stimuli/HF04_DO.jpg","stimuli/BM16_SUR.jpg","stimuli/AM03_HO.jpg","pos3","stimuli/BM16_SUR.jpg","SUR","BM16","2","4.5","9","8","stimuli/stars_9.png","23.5","[""CC"",""DO"",""SUR"",""HO""]","[""AM09"",""HF04"",""BM16"",""AM03""]","[4,6,9,8]","[2,4,8,6]","","",""
"show-reward","24","133091","0.0-24.0","p764002","A267AK93EY4TMC","3P888QFVX40Z2B7BK75OWKP045JQOK","3VE8AYVF8O32DESGPCAZCJQB1A08FQ","model","match","uniform","","","","","","","","134721.89999997616","136739.39999997616","","","","","","","","","","","","9","","stimuli/stars_9.png","23.5","","","","","stimuli/BM16_SUR.jpg","",""
"explore-choice","25","136448","0.0-25.0","p764002","A267AK93EY4TMC","3P888QFVX40Z2B7BK75OWKP045JQOK","3VE8AYVF8O32DESGPCAZCJQB1A08FQ","model","match","uniform","","","","","","","2847.900000035763","136742.89999997616","139590.80000001192","[""stimuli/HF04_SUR.jpg"",""stimuli/BM16_HO.jpg"",""stimuli/AM03_CC.jpg"",""stimuli/AM09_DO.jpg""]","stimuli/HF04_SUR.jpg","stimuli/BM16_HO.jpg","stimuli/AM03_CC.jpg","stimuli/AM09_DO.jpg","pos2","stimuli/BM16_HO.jpg","HO","BM16","1","3.5","7","8","stimuli/stars_7.png","27","[""SUR"",""HO"",""CC"",""DO""]","[""HF04"",""BM16"",""AM03"",""AM09""]","[4,7,4,0]","[4,8,6,2]","","",""
"show-reward","26","138454","0.0-26.0","p764002","A267AK93EY4TMC","3P888QFVX40Z2B7BK75OWKP045JQOK","3VE8AYVF8O32DESGPCAZCJQB1A08FQ","model","match","uniform","","","","","","","","140099.89999997616","142103.89999997616","","","","","","","","","","","","7","","stimuli/stars_7.png","27","","","","","stimuli/BM16_HO.jpg","",""
"explore-choice","27","142570","0.0-27.0","p764002","A267AK93EY4TMC","3P888QFVX40Z2B7BK75OWKP045JQOK","3VE8AYVF8O32DESGPCAZCJQB1A08FQ","model","match","uniform","","","","","","","3604.5","142105.69999998808","145710.19999998808","[""stimuli/BM16_CC.jpg"",""stimuli/HF04_HO.jpg"",""stimuli/AM09_DO.jpg"",""stimuli/AM03_SUR.jpg""]","stimuli/BM16_CC.jpg","stimuli/HF04_HO.jpg","stimuli/AM09_DO.jpg","stimuli/AM03_SUR.jpg","pos2","stimuli/HF04_HO.jpg","HO","HF04","1","3","6","4","stimuli/stars_6.png","30","[""CC"",""HO"",""DO"",""SUR""]","[""BM16"",""HF04"",""AM09"",""AM03""]","[10,6,1,6]","[8,4,2,6]","","",""
"show-reward","28","144583","0.0-28.0","p764002","A267AK93EY4TMC","3P888QFVX40Z2B7BK75OWKP045JQOK","3VE8AYVF8O32DESGPCAZCJQB1A08FQ","model","match","uniform","","","","","","","","146223.39999997616","148231.89999997616","","","","","","","","","","","","6","","stimuli/stars_6.png","30","","","","","stimuli/HF04_HO.jpg","",""
"explore-choice","29","150337","0.0-29.0","p764002","A267AK93EY4TMC","3P888QFVX40Z2B7BK75OWKP045JQOK","3VE8AYVF8O32DESGPCAZCJQB1A08FQ","model","match","uniform","","","","","","","5245.399999976158","148234.10000002384","153479.5","[""stimuli/AM09_HO.jpg"",""stimuli/BM16_DO.jpg"",""stimuli/AM03_CC.jpg"",""stimuli/HF04_SUR.jpg""]","stimuli/AM09_HO.jpg","stimuli/BM16_DO.jpg","stimuli/AM03_CC.jpg","stimuli/HF04_SUR.jpg","pos4","stimuli/HF04_SUR.jpg","SUR","HF04","3","2.5","5","4","stimuli/stars_5.png","32.5","[""HO"",""DO"",""CC"",""SUR""]","[""AM09"",""BM16"",""AM03"",""HF04""]","[2,7,5,5]","[2,8,6,4]","","",""
"show-reward","30","152356","0.0-30.0","p764002","A267AK93EY4TMC","3P888QFVX40Z2B7BK75OWKP045JQOK","3VE8AYVF8O32DESGPCAZCJQB1A08FQ","model","match","uniform","","","","","","","","153988.80000001192","156005","","","","","","","","","","","","5","","stimuli/stars_5.png","32.5","","","","","stimuli/HF04_SUR.jpg","",""
"explore-choice","31","156180","0.0-31.0","p764002","A267AK93EY4TMC","3P888QFVX40Z2B7BK75OWKP045JQOK","3VE8AYVF8O32DESGPCAZCJQB1A08FQ","model","match","uniform","","","","","","","3318.899999976158","156007.80000001192","159326.69999998808","[""stimuli/HF04_DO.jpg"",""stimuli/AM03_HO.jpg"",""stimuli/AM09_SUR.jpg"",""stimuli/BM16_CC.jpg""]","stimuli/HF04_DO.jpg","stimuli/AM03_HO.jpg","stimuli/AM09_SUR.jpg","stimuli/BM16_CC.jpg","pos2","stimuli/AM03_HO.jpg","HO","AM03","1","2.5","5","6","stimuli/stars_5.png","35","[""DO"",""HO"",""SUR"",""CC""]","[""HF04"",""AM03"",""AM09"",""BM16""]","[2,5,1,7]","[4,6,2,8]","","",""
"show-reward","32","158186","0.0-32.0","p764002","A267AK93EY4TMC","3P888QFVX40Z2B7BK75OWKP045JQOK","3VE8AYVF8O32DESGPCAZCJQB1A08FQ","model","match","uniform","","","","","","","","159831.39999997616","161835.19999998808","","","","","","","","","","","","5","","stimuli/stars_5.png","35","","","","","stimuli/AM03_HO.jpg","",""
"explore-choice","33","160185","0.0-33.0","p764002","A267AK93EY4TMC","3P888QFVX40Z2B7BK75OWKP045JQOK","3VE8AYVF8O32DESGPCAZCJQB1A08FQ","model","match","uniform","","","","","","","1488.7999999523163","161838.10000002384","163326.89999997616","[""stimuli/HF04_HO.jpg"",""stimuli/BM16_SUR.jpg"",""stimuli/AM03_CC.jpg"",""stimuli/AM09_DO.jpg""]","stimuli/HF04_HO.jpg","stimuli/BM16_SUR.jpg","stimuli/AM03_CC.jpg","stimuli/AM09_DO.jpg","pos2","stimuli/BM16_SUR.jpg","SUR","BM16","1","5","10","8","stimuli/stars_10.png","40","[""HO"",""SUR"",""CC"",""DO""]","[""HF04"",""BM16"",""AM03"",""AM09""]","[3,10,5,3]","[4,8,6,2]","","",""
"show-reward","34","162193","0.0-34.0","p764002","A267AK93EY4TMC","3P888QFVX40Z2B7BK75OWKP045JQOK","3VE8AYVF8O32DESGPCAZCJQB1A08FQ","model","match","uniform","","","","","","","","163836.80000001192","165842","","","","","","","","","","","","10","","stimuli/stars_10.png","40","","","","","stimuli/BM16_SUR.jpg","",""
"explore-choice","35","166759","0.0-35.0","p764002","A267AK93EY4TMC","3P888QFVX40Z2B7BK75OWKP045JQOK","3VE8AYVF8O32DESGPCAZCJQB1A08FQ","model","match","uniform","","","","","","","4058.100000023842","165844.5","169902.60000002384","[""stimuli/AM03_SUR.jpg"",""stimuli/AM09_CC.jpg"",""stimuli/BM16_DO.jpg"",""stimuli/HF04_HO.jpg""]","stimuli/AM03_SUR.jpg","stimuli/AM09_CC.jpg","stimuli/BM16_DO.jpg","stimuli/HF04_HO.jpg","pos1","stimuli/AM03_SUR.jpg","SUR","AM03","0","2","4","6","stimuli/stars_4.png","42","[""SUR"",""CC"",""DO"",""HO""]","[""AM03"",""AM09"",""BM16"",""HF04""]","[4,0,8,4]","[6,2,8,4]","","",""
"show-reward","36","168783","0.0-36.0","p764002","A267AK93EY4TMC","3P888QFVX40Z2B7BK75OWKP045JQOK","3VE8AYVF8O32DESGPCAZCJQB1A08FQ","model","match","uniform","","","","","","","","170412.10000002384","172432.39999997616","","","","","","","","","","","","4","","stimuli/stars_4.png","42","","","","","stimuli/AM03_SUR.jpg","",""
"explore-choice","37","171283","0.0-37.0","p764002","A267AK93EY4TMC","3P888QFVX40Z2B7BK75OWKP045JQOK","3VE8AYVF8O32DESGPCAZCJQB1A08FQ","model","match","uniform","","","","","","","1989.0999999642372","172435.10000002384","174424.19999998808","[""stimuli/BM16_SUR.jpg"",""stimuli/HF04_DO.jpg"",""stimuli/AM09_HO.jpg"",""stimuli/AM03_CC.jpg""]","stimuli/BM16_SUR.jpg","stimuli/HF04_DO.jpg","stimuli/AM09_HO.jpg","stimuli/AM03_CC.jpg","pos1","stimuli/BM16_SUR.jpg","SUR","BM16","0","4.5","9","8","stimuli/stars_9.png","46.5","[""SUR"",""DO"",""HO"",""CC""]","[""BM16"",""HF04"",""AM09"",""AM03""]","[9,4,3,7]","[8,4,2,6]","","",""
"show-reward","38","173290","0.0-38.0","p764002","A267AK93EY4TMC","3P888QFVX40Z2B7BK75OWKP045JQOK","3VE8AYVF8O32DESGPCAZCJQB1A08FQ","model","match","uniform","","","","","","","","174933.89999997616","176938.69999998808","","","","","","","","","","","","9","","stimuli/stars_9.png","46.5","","","","","stimuli/BM16_SUR.jpg","",""
"explore-choice","39","176237","0.0-39.0","p764002","A267AK93EY4TMC","3P888QFVX40Z2B7BK75OWKP045JQOK","3VE8AYVF8O32DESGPCAZCJQB1A08FQ","model","match","uniform","","","","","","","2441.699999988079","176940.80000001192","179382.5","[""stimuli/AM03_DO.jpg"",""stimuli/HF04_CC.jpg"",""stimuli/AM09_SUR.jpg"",""stimuli/BM16_HO.jpg""]","stimuli/AM03_DO.jpg","stimuli/HF04_CC.jpg","stimuli/AM09_SUR.jpg","stimuli/BM16_HO.jpg","pos4","stimuli/BM16_HO.jpg","HO","BM16","3","4.5","9","8","stimuli/stars_9.png","51","[""DO"",""CC"",""SUR"",""HO""]","[""AM03"",""HF04"",""AM09"",""BM16""]","[4,2,3,9]","[6,4,2,8]","","",""
"show-reward","40","178244","0.0-40.0","p764002","A267AK93EY4TMC","3P888QFVX40Z2B7BK75OWKP045JQOK","3VE8AYVF8O32DESGPCAZCJQB1A08FQ","model","match","uniform","","","","","","","","179888.39999997616","181892.5","","","","","","","","","","","","9","","stimuli/stars_9.png","51","","","","","stimuli/BM16_HO.jpg","",""
"explore-choice","41","179738","0.0-41.0","p764002","A267AK93EY4TMC","3P888QFVX40Z2B7BK75OWKP045JQOK","3VE8AYVF8O32DESGPCAZCJQB1A08FQ","model","match","uniform","","","","","","","984.5","181894.80000001192","182879.30000001192","[""stimuli/AM09_DO.jpg"",""stimuli/AM03_HO.jpg"",""stimuli/HF04_CC.jpg"",""stimuli/BM16_SUR.jpg""]","stimuli/AM09_DO.jpg","stimuli/AM03_HO.jpg","stimuli/HF04_CC.jpg","stimuli/BM16_SUR.jpg","pos2","stimuli/AM03_HO.jpg","HO","AM03","1","3","6","6","stimuli/stars_6.png","54","[""DO"",""HO"",""CC"",""SUR""]","[""AM09"",""AM03"",""HF04"",""BM16""]","[4,6,6,8]","[2,6,4,8]","","",""
"show-reward","42","181752","0.0-42.0","p764002","A267AK93EY4TMC","3P888QFVX40Z2B7BK75OWKP045JQOK","3VE8AYVF8O32DESGPCAZCJQB1A08FQ","model","match","uniform","","","","","","","","183391.30000001192","185401","","","","","","","","","","","","6","","stimuli/stars_6.png","54","","","","","stimuli/AM03_HO.jpg","",""
"explore-choice","43","183957","0.0-43.0","p764002","A267AK93EY4TMC","3P888QFVX40Z2B7BK75OWKP045JQOK","3VE8AYVF8O32DESGPCAZCJQB1A08FQ","model","match","uniform","","","","","","","1698.0999999642372","185403.60000002384","187101.69999998808","[""stimuli/BM16_DO.jpg"",""stimuli/HF04_SUR.jpg"",""stimuli/AM09_CC.jpg"",""stimuli/AM03_HO.jpg""]","stimuli/BM16_DO.jpg","stimuli/HF04_SUR.jpg","stimuli/AM09_CC.jpg","stimuli/AM03_HO.jpg","pos4","stimuli/AM03_HO.jpg","HO","AM03","3","3.5","7","6","stimuli/stars_7.png","57.5","[""DO"",""SUR"",""CC"",""HO""]","[""BM16"",""HF04"",""AM09"",""AM03""]","[9,3,1,7]","[8,4,2,6]","","",""
"show-reward","44","185973","0.0-44.0","p764002","A267AK93EY4TMC","3P888QFVX40Z2B7BK75OWKP045JQOK","3VE8AYVF8O32DESGPCAZCJQB1A08FQ","model","match","uniform","","","","","","","","187607.89999997616","189622.30000001192","","","","","","","","","","","","7","","stimuli/stars_7.png","57.5","","","","","stimuli/AM03_HO.jpg","",""
"explore-choice","45","187497","0.0-45.0","p764002","A267AK93EY4TMC","3P888QFVX40Z2B7BK75OWKP045JQOK","3VE8AYVF8O32DESGPCAZCJQB1A08FQ","model","match","uniform","","","","","","","1021.3000000119209","189624.19999998808","190645.5","[""stimuli/HF04_DO.jpg"",""stimuli/BM16_HO.jpg"",""stimuli/AM09_SUR.jpg"",""stimuli/AM03_CC.jpg""]","stimuli/HF04_DO.jpg","stimuli/BM16_HO.jpg","stimuli/AM09_SUR.jpg","stimuli/AM03_CC.jpg","pos2","stimuli/BM16_HO.jpg","HO","BM16","1","5","10","8","stimuli/stars_10.png","62.5","[""DO"",""HO"",""SUR"",""CC""]","[""HF04"",""BM16"",""AM09"",""AM03""]","[3,10,4,6]","[4,8,2,6]","","",""
"show-reward","46","189510","0.0-46.0","p764002","A267AK93EY4TMC","3P888QFVX40Z2B7BK75OWKP045JQOK","3VE8AYVF8O32DESGPCAZCJQB1A08FQ","model","match","uniform","","","","","","","","191147.69999998808","193157.60000002384","","","","","","","","","","","","10","","stimuli/stars_10.png","62.5","","","","","stimuli/BM16_HO.jpg","",""
"explore-choice","47","192114","0.0-47.0","p764002","A267AK93EY4TMC","3P888QFVX40Z2B7BK75OWKP045JQOK","3VE8AYVF8O32DESGPCAZCJQB1A08FQ","model","match","uniform","","","","","","","2092.199999988079","193162.10000002384","195254.30000001192","[""stimuli/AM03_SUR.jpg"",""stimuli/AM09_HO.jpg"",""stimuli/BM16_DO.jpg"",""stimuli/HF04_CC.jpg""]","stimuli/AM03_SUR.jpg","stimuli/AM09_HO.jpg","stimuli/BM16_DO.jpg","stimuli/HF04_CC.jpg","pos2","stimuli/AM09_HO.jpg","HO","AM09","1","0","0","2","stimuli/stars_0.png","62.5","[""SUR"",""HO"",""DO"",""CC""]","[""AM03"",""AM09"",""BM16"",""HF04""]","[7,0,8,2]","[6,2,8,4]","","",""
"show-reward","48","194122","0.0-48.0","p764002","A267AK93EY4TMC","3P888QFVX40Z2B7BK75OWKP045JQOK","3VE8AYVF8O32DESGPCAZCJQB1A08FQ","model","match","uniform","","","","","","","","195765.10000002384","197771.30000001192","","","","","","","","","","","","0","","stimuli/stars_0.png","62.5","","","","","stimuli/AM09_HO.jpg","",""
"explore-choice","49","196093","0.0-49.0","p764002","A267AK93EY4TMC","3P888QFVX40Z2B7BK75OWKP045JQOK","3VE8AYVF8O32DESGPCAZCJQB1A08FQ","model","match","uniform","","","","","","","1459","197773.30000001192","199232.30000001192","[""stimuli/AM03_HO.jpg"",""stimuli/AM09_SUR.jpg"",""stimuli/HF04_CC.jpg"",""stimuli/BM16_DO.jpg""]","stimuli/AM03_HO.jpg","stimuli/AM09_SUR.jpg","stimuli/HF04_CC.jpg","stimuli/BM16_DO.jpg","pos1","stimuli/AM03_HO.jpg","HO","AM03","0","4","8","6","stimuli/stars_8.png","66.5","[""HO"",""SUR"",""CC"",""DO""]","[""AM03"",""AM09"",""HF04"",""BM16""]","[8,3,5,9]","[6,2,4,8]","","",""
"show-reward","50","198147","0.0-50.0","p764002","A267AK93EY4TMC","3P888QFVX40Z2B7BK75OWKP045JQOK","3VE8AYVF8O32DESGPCAZCJQB1A08FQ","model","match","uniform","","","","","","","","199743.69999998808","201794.60000002384","","","","","","","","","","","","8","","stimuli/stars_8.png","66.5","","","","","stimuli/AM03_HO.jpg","",""
"explore-choice","51","200251","0.0-51.0","p764002","A267AK93EY4TMC","3P888QFVX40Z2B7BK75OWKP045JQOK","3VE8AYVF8O32DESGPCAZCJQB1A08FQ","model","match","uniform","","","","","","","1591.800000011921","201799.19999998808","203391","[""stimuli/AM09_SUR.jpg"",""stimuli/HF04_HO.jpg"",""stimuli/BM16_DO.jpg"",""stimuli/AM03_CC.jpg""]","stimuli/AM09_SUR.jpg","stimuli/HF04_HO.jpg","stimuli/BM16_DO.jpg","stimuli/AM03_CC.jpg","pos2","stimuli/HF04_HO.jpg","HO","HF04","1","2.5","5","4","stimuli/stars_5.png","69","[""SUR"",""HO"",""DO"",""CC""]","[""AM09"",""HF04"",""BM16"",""AM03""]","[0,5,6,6]","[2,4,8,6]","","",""
"show-reward","52","202258","0.0-52.0","p764002","A267AK93EY4TMC","3P888QFVX40Z2B7BK75OWKP045JQOK","3VE8AYVF8O32DESGPCAZCJQB1A08FQ","model","match","uniform","","","","","","","","203901.69999998808","205906.60000002384","","","","","","","","","","","","5","","stimuli/stars_5.png","69","","","","","stimuli/HF04_HO.jpg","",""
"explore-choice","53","204183","0.0-53.0","p764002","A267AK93EY4TMC","3P888QFVX40Z2B7BK75OWKP045JQOK","3VE8AYVF8O32DESGPCAZCJQB1A08FQ","model","match","uniform","","","","","","","1410.300000011921","205912.5","207322.80000001192","[""stimuli/BM16_HO.jpg"",""stimuli/HF04_DO.jpg"",""stimuli/AM09_CC.jpg"",""stimuli/AM03_SUR.jpg""]","stimuli/BM16_HO.jpg","stimuli/HF04_DO.jpg","stimuli/AM09_CC.jpg","stimuli/AM03_SUR.jpg","pos4","stimuli/AM03_SUR.jpg","SUR","AM03","3","2","4","6","stimuli/stars_4.png","71","[""HO"",""DO"",""CC"",""SUR""]","[""BM16"",""HF04"",""AM09"",""AM03""]","[8,5,4,4]","[8,4,2,6]","","",""
"show-reward","54","206223","0.0-54.0","p764002","A267AK93EY4TMC","3P888QFVX40Z2B7BK75OWKP045JQOK","3VE8AYVF8O32DESGPCAZCJQB1A08FQ","model","match","uniform","","","","","","","","207835.39999997616","209841.60000002384","","","","","","","","","","","","4","","stimuli/stars_4.png","71","","","","","stimuli/AM03_SUR.jpg","",""
"explore-choice","55","208442","0.0-55.0","p764002","A267AK93EY4TMC","3P888QFVX40Z2B7BK75OWKP045JQOK","3VE8AYVF8O32DESGPCAZCJQB1A08FQ","model","match","uniform","","","","","","","1709","209874.19999998808","211583.19999998808","[""stimuli/BM16_SUR.jpg"",""stimuli/HF04_DO.jpg"",""stimuli/AM09_HO.jpg"",""stimuli/AM03_CC.jpg""]","stimuli/BM16_SUR.jpg","stimuli/HF04_DO.jpg","stimuli/AM09_HO.jpg","stimuli/AM03_CC.jpg","pos3","stimuli/AM09_HO.jpg","HO","AM09","2","1.5","3","2","stimuli/stars_3.png","72.5","[""SUR"",""DO"",""HO"",""CC""]","[""BM16"",""HF04"",""AM09"",""AM03""]","[9,4,3,7]","[8,4,2,6]","","",""
"show-reward","56","210455","0.0-56.0","p764002","A267AK93EY4TMC","3P888QFVX40Z2B7BK75OWKP045JQOK","3VE8AYVF8O32DESGPCAZCJQB1A08FQ","model","match","uniform","","","","","","","","212093.30000001192","214103.30000001192","","","","","","","","","","","","3","","stimuli/stars_3.png","72.5","","","","","stimuli/AM09_HO.jpg","",""
"explore-choice","57","212120","0.0-57.0","p764002","A267AK93EY4TMC","3P888QFVX40Z2B7BK75OWKP045JQOK","3VE8AYVF8O32DESGPCAZCJQB1A08FQ","model","match","uniform","","","","","","","1148.5","214106","215254.5","[""stimuli/BM16_SUR.jpg"",""stimuli/AM09_DO.jpg"",""stimuli/AM03_HO.jpg"",""stimuli/HF04_CC.jpg""]","stimuli/BM16_SUR.jpg","stimuli/AM09_DO.jpg","stimuli/AM03_HO.jpg","stimuli/HF04_CC.jpg","pos1","stimuli/BM16_SUR.jpg","SUR","BM16","0","4","8","8","stimuli/stars_8.png","76.5","[""SUR"",""DO"",""HO"",""CC""]","[""BM16"",""AM09"",""AM03"",""HF04""]","[8,4,6,6]","[8,2,6,4]","","",""
"show-reward","58","214138","0.0-58.0","p764002","A267AK93EY4TMC","3P888QFVX40Z2B7BK75OWKP045JQOK","3VE8AYVF8O32DESGPCAZCJQB1A08FQ","model","match","uniform","","","","","","","","215772.19999998808","217784.39999997616","","","","","","","","","","","","8","","stimuli/stars_8.png","76.5","","","","","stimuli/BM16_SUR.jpg","",""
"explore-choice","59","216597","0.0-59.0","p764002","A267AK93EY4TMC","3P888QFVX40Z2B7BK75OWKP045JQOK","3VE8AYVF8O32DESGPCAZCJQB1A08FQ","model","match","uniform","","","","","","","1942.8999999761581","217790.80000001192","219733.69999998808","[""stimuli/BM16_HO.jpg"",""stimuli/AM03_SUR.jpg"",""stimuli/AM09_CC.jpg"",""stimuli/HF04_DO.jpg""]","stimuli/BM16_HO.jpg","stimuli/AM03_SUR.jpg","stimuli/AM09_CC.jpg","stimuli/HF04_DO.jpg","pos1","stimuli/BM16_HO.jpg","HO","BM16","0","4","8","8","stimuli/stars_8.png","80.5","[""HO"",""SUR"",""CC"",""DO""]","[""BM16"",""AM03"",""AM09"",""HF04""]","[8,4,4,5]","[8,6,2,4]","","",""
"show-reward","60","218617","0.0-60.0","p764002","A267AK93EY4TMC","3P888QFVX40Z2B7BK75OWKP045JQOK","3VE8AYVF8O32DESGPCAZCJQB1A08FQ","model","match","uniform","","","","","","","","220249.60000002384","222264.60000002384","","","","","","","","","","","","8","","stimuli/stars_8.png","80.5","","","","","stimuli/BM16_HO.jpg","",""
"explore-choice","61","220844","0.0-61.0","p764002","A267AK93EY4TMC","3P888QFVX40Z2B7BK75OWKP045JQOK","3VE8AYVF8O32DESGPCAZCJQB1A08FQ","model","match","uniform","","","","","","","1720.0999999642372","222269.30000001192","223989.39999997616","[""stimuli/AM09_CC.jpg"",""stimuli/BM16_HO.jpg"",""stimuli/AM03_DO.jpg"",""stimuli/HF04_SUR.jpg""]","stimuli/AM09_CC.jpg","stimuli/BM16_HO.jpg","stimuli/AM03_DO.jpg","stimuli/HF04_SUR.jpg","pos2","stimuli/BM16_HO.jpg","HO","BM16","1","4","8","8","stimuli/stars_8.png","84.5","[""CC"",""HO"",""DO"",""SUR""]","[""AM09"",""BM16"",""AM03"",""HF04""]","[1,8,8,5]","[2,8,6,4]","","",""
"show-reward","62","222855","0.0-62.0","p764002","A267AK93EY4TMC","3P888QFVX40Z2B7BK75OWKP045JQOK","3VE8AYVF8O32DESGPCAZCJQB1A08FQ","model","match","uniform","","","","","","","","224496.30000001192","226503.39999997616","","","","","","","","","","","","8","","stimuli/stars_8.png","84.5","","","","","stimuli/BM16_HO.jpg","",""
"explore-choice","63","224285","0.0-63.0","p764002","A267AK93EY4TMC","3P888QFVX40Z2B7BK75OWKP045JQOK","3VE8AYVF8O32DESGPCAZCJQB1A08FQ","model","match","uniform","","","","","","","923.5","226506.69999998808","227430.19999998808","[""stimuli/HF04_CC.jpg"",""stimuli/AM03_HO.jpg"",""stimuli/AM09_SUR.jpg"",""stimuli/BM16_DO.jpg""]","stimuli/HF04_CC.jpg","stimuli/AM03_HO.jpg","stimuli/AM09_SUR.jpg","stimuli/BM16_DO.jpg","pos2","stimuli/AM03_HO.jpg","HO","AM03","1","4","8","6","stimuli/stars_8.png","88.5","[""CC"",""HO"",""SUR"",""DO""]","[""HF04"",""AM03"",""AM09"",""BM16""]","[5,8,3,9]","[4,6,2,8]","","",""
"show-reward","64","226301","0.0-64.0","p764002","A267AK93EY4TMC","3P888QFVX40Z2B7BK75OWKP045JQOK","3VE8AYVF8O32DESGPCAZCJQB1A08FQ","model","match","uniform","","","","","","","","227936","229948.19999998808","","","","","","","","","","","","8","","stimuli/stars_8.png","88.5","","","","","stimuli/AM03_HO.jpg","",""
"explore-choice","65","228519","0.0-65.0","p764002","A267AK93EY4TMC","3P888QFVX40Z2B7BK75OWKP045JQOK","3VE8AYVF8O32DESGPCAZCJQB1A08FQ","model","match","uniform","","","","","","","1707.9000000357628","229954.69999998808","231662.60000002384","[""stimuli/HF04_CC.jpg"",""stimuli/BM16_HO.jpg"",""stimuli/AM09_SUR.jpg"",""stimuli/AM03_DO.jpg""]","stimuli/HF04_CC.jpg","stimuli/BM16_HO.jpg","stimuli/AM09_SUR.jpg","stimuli/AM03_DO.jpg","pos2","stimuli/BM16_HO.jpg","HO","BM16","1","4.5","9","8","stimuli/stars_9.png","93","[""CC"",""HO"",""SUR"",""DO""]","[""HF04"",""BM16"",""AM09"",""AM03""]","[2,9,3,4]","[4,8,2,6]","","",""
"show-reward","66","230525","0.0-66.0","p764002","A267AK93EY4TMC","3P888QFVX40Z2B7BK75OWKP045JQOK","3VE8AYVF8O32DESGPCAZCJQB1A08FQ","model","match","uniform","","","","","","","","232170.80000001192","234173.89999997616","","","","","","","","","","","","9","","stimuli/stars_9.png","93","","","","","stimuli/BM16_HO.jpg","",""
"explore-choice","67","232267","0.0-67.0","p764002","A267AK93EY4TMC","3P888QFVX40Z2B7BK75OWKP045JQOK","3VE8AYVF8O32DESGPCAZCJQB1A08FQ","model","match","uniform","","","","","","","1238.300000011921","234176.89999997616","235415.19999998808","[""stimuli/BM16_CC.jpg"",""stimuli/AM03_DO.jpg"",""stimuli/AM09_HO.jpg"",""stimuli/HF04_SUR.jpg""]","stimuli/BM16_CC.jpg","stimuli/AM03_DO.jpg","stimuli/AM09_HO.jpg","stimuli/HF04_SUR.jpg","pos3","stimuli/AM09_HO.jpg","HO","AM09","2","2","4","2","stimuli/stars_4.png","95","[""CC"",""DO"",""HO"",""SUR""]","[""BM16"",""AM03"",""AM09"",""HF04""]","[10,7,4,6]","[8,6,2,4]","","",""
"show-reward","68","234316","0.0-68.0","p764002","A267AK93EY4TMC","3P888QFVX40Z2B7BK75OWKP045JQOK","3VE8AYVF8O32DESGPCAZCJQB1A08FQ","model","match","uniform","","","","","","","","235922","237965","","","","","","","","","","","","4","","stimuli/stars_4.png","95","","","","","stimuli/AM09_HO.jpg","",""
"explore-choice","69","238142","0.0-69.0","p764002","A267AK93EY4TMC","3P888QFVX40Z2B7BK75OWKP045JQOK","3VE8AYVF8O32DESGPCAZCJQB1A08FQ","model","match","uniform","","","","","","","3318.5","237968","241286.5","[""stimuli/HF04_CC.jpg"",""stimuli/AM03_DO.jpg"",""stimuli/BM16_SUR.jpg"",""stimuli/AM09_HO.jpg""]","stimuli/HF04_CC.jpg","stimuli/AM03_DO.jpg","stimuli/BM16_SUR.jpg","stimuli/AM09_HO.jpg","pos4","stimuli/AM09_HO.jpg","HO","AM09","3","1.5","3","2","stimuli/stars_3.png","96.5","[""CC"",""DO"",""SUR"",""HO""]","[""HF04"",""AM03"",""BM16"",""AM09""]","[5,7,7,3]","[4,6,8,2]","","",""
"show-reward","70","240162","0.0-70.0","p764002","A267AK93EY4TMC","3P888QFVX40Z2B7BK75OWKP045JQOK","3VE8AYVF8O32DESGPCAZCJQB1A08FQ","model","match","uniform","","","","","","","","241793.10000002384","243811.5","","","","","","","","","","","","3","","stimuli/stars_3.png","96.5","","","","","stimuli/AM09_HO.jpg","",""
"explore-choice","71","245165","0.0-71.0","p764002","A267AK93EY4TMC","3P888QFVX40Z2B7BK75OWKP045JQOK","3VE8AYVF8O32DESGPCAZCJQB1A08FQ","model","match","uniform","","","","","","","4496.300000011921","243813.39999997616","248309.69999998808","[""stimuli/HF04_DO.jpg"",""stimuli/AM09_CC.jpg"",""stimuli/BM16_SUR.jpg"",""stimuli/AM03_HO.jpg""]","stimuli/HF04_DO.jpg","stimuli/AM09_CC.jpg","stimuli/BM16_SUR.jpg","stimuli/AM03_HO.jpg","pos3","stimuli/BM16_SUR.jpg","SUR","BM16","2","4.5","9","8","stimuli/stars_9.png","101","[""DO"",""CC"",""SUR"",""HO""]","[""HF04"",""AM09"",""BM16"",""AM03""]","[6,4,9,8]","[4,2,8,6]","","",""
"show-reward","72","248166","0.0-72.0","p764002","A267AK93EY4TMC","3P888QFVX40Z2B7BK75OWKP045JQOK","3VE8AYVF8O32DESGPCAZCJQB1A08FQ","model","match","uniform","","","","","","","","248816.89999997616","251814.5","","","","","","","","","","","","9","","stimuli/stars_9.png","101","","","","","stimuli/BM16_SUR.jpg","",""
"explore-choice","73","278868","0.0-73.0","p764002","A267AK93EY4TMC","3P888QFVX40Z2B7BK75OWKP045JQOK","3VE8AYVF8O32DESGPCAZCJQB1A08FQ","model","match","uniform","","","","","","","30186.700000047684","251818.39999997616","282005.10000002384","[""stimuli/AM03_SUR.jpg"",""stimuli/HF04_DO.jpg"",""stimuli/BM16_CC.jpg"",""stimuli/AM09_HO.jpg""]","stimuli/AM03_SUR.jpg","stimuli/HF04_DO.jpg","stimuli/BM16_CC.jpg","stimuli/AM09_HO.jpg","pos4","stimuli/AM09_HO.jpg","HO","AM09","3","0","0","2","stimuli/stars_0.png","101","[""SUR"",""DO"",""CC"",""HO""]","[""AM03"",""HF04"",""BM16"",""AM09""]","[6,4,6,0]","[6,4,8,2]","","",""
"show-reward","74","280877","0.0-74.0","p764002","A267AK93EY4TMC","3P888QFVX40Z2B7BK75OWKP045JQOK","3VE8AYVF8O32DESGPCAZCJQB1A08FQ","model","match","uniform","","","","","","","","282520.60000002384","284526","","","","","","","","","","","","0","","stimuli/stars_0.png","101","","","","","stimuli/AM09_HO.jpg","",""
"explore-choice","75","282535","0.0-75.0","p764002","A267AK93EY4TMC","3P888QFVX40Z2B7BK75OWKP045JQOK","3VE8AYVF8O32DESGPCAZCJQB1A08FQ","model","match","uniform","","","","","","","1149.800000011921","284529.3000000119","285679.10000002384","[""stimuli/AM03_CC.jpg"",""stimuli/AM09_HO.jpg"",""stimuli/BM16_DO.jpg"",""stimuli/HF04_SUR.jpg""]","stimuli/AM03_CC.jpg","stimuli/AM09_HO.jpg","stimuli/BM16_DO.jpg","stimuli/HF04_SUR.jpg","pos1","stimuli/AM03_CC.jpg","CC","AM03","0","2.5","5","6","stimuli/stars_5.png","103.5","[""CC"",""HO"",""DO"",""SUR""]","[""AM03"",""AM09"",""BM16"",""HF04""]","[5,2,7,5]","[6,2,8,4]","","",""
"show-reward","76","284540","0.0-76.0","p764002","A267AK93EY4TMC","3P888QFVX40Z2B7BK75OWKP045JQOK","3VE8AYVF8O32DESGPCAZCJQB1A08FQ","model","match","uniform","","","","","","","","286186.60000002384","288189.6999999881","","","","","","","","","","","","5","","stimuli/stars_5.png","103.5","","","","","stimuli/AM03_CC.jpg","",""
"explore-choice","77","286028","0.0-77.0","p764002","A267AK93EY4TMC","3P888QFVX40Z2B7BK75OWKP045JQOK","3VE8AYVF8O32DESGPCAZCJQB1A08FQ","model","match","uniform","","","","","","","982.1999999880791","288191.3000000119","289173.5","[""stimuli/BM16_DO.jpg"",""stimuli/HF04_SUR.jpg"",""stimuli/AM09_CC.jpg"",""stimuli/AM03_HO.jpg""]","stimuli/BM16_DO.jpg","stimuli/HF04_SUR.jpg","stimuli/AM09_CC.jpg","stimuli/AM03_HO.jpg","pos2","stimuli/HF04_SUR.jpg","SUR","HF04","1","1.5","3","4","stimuli/stars_3.png","105","[""DO"",""SUR"",""CC"",""HO""]","[""BM16"",""HF04"",""AM09"",""AM03""]","[9,3,1,7]","[8,4,2,6]","","",""
"show-reward","78","288072","0.0-78.0","p764002","A267AK93EY4TMC","3P888QFVX40Z2B7BK75OWKP045JQOK","3VE8AYVF8O32DESGPCAZCJQB1A08FQ","model","match","uniform","","","","","","","","289679.1999999881","291720.8000000119","","","","","","","","","","","","3","","stimuli/stars_3.png","105","","","","","stimuli/HF04_SUR.jpg","",""
"explore-choice","79","290350","0.0-79.0","p764002","A267AK93EY4TMC","3P888QFVX40Z2B7BK75OWKP045JQOK","3VE8AYVF8O32DESGPCAZCJQB1A08FQ","model","match","uniform","","","","","","","1774.1000000238419","291723.89999997616","293498","[""stimuli/HF04_HO.jpg"",""stimuli/AM09_SUR.jpg"",""stimuli/BM16_CC.jpg"",""stimuli/AM03_DO.jpg""]","stimuli/HF04_HO.jpg","stimuli/AM09_SUR.jpg","stimuli/BM16_CC.jpg","stimuli/AM03_DO.jpg","pos3","stimuli/BM16_CC.jpg","CC","BM16","2","4.5","9","8","stimuli/stars_9.png","109.5","[""HO"",""SUR"",""CC"",""DO""]","[""HF04"",""AM09"",""BM16"",""AM03""]","[6,1,9,7]","[4,2,8,6]","","",""
"show-reward","80","292361","0.0-80.0","p764002","A267AK93EY4TMC","3P888QFVX40Z2B7BK75OWKP045JQOK","3VE8AYVF8O32DESGPCAZCJQB1A08FQ","model","match","uniform","","","","","","","","294003","296008.6999999881","","","","","","","","","","","","9","","stimuli/stars_9.png","109.5","","","","","stimuli/BM16_CC.jpg","",""
"explore-choice","81","294323","0.0-81.0","p764002","A267AK93EY4TMC","3P888QFVX40Z2B7BK75OWKP045JQOK","3VE8AYVF8O32DESGPCAZCJQB1A08FQ","model","match","uniform","","","","","","","1444.199999988079","296017.3000000119","297461.5","[""stimuli/AM03_CC.jpg"",""stimuli/HF04_SUR.jpg"",""stimuli/BM16_HO.jpg"",""stimuli/AM09_DO.jpg""]","stimuli/AM03_CC.jpg","stimuli/HF04_SUR.jpg","stimuli/BM16_HO.jpg","stimuli/AM09_DO.jpg","pos3","stimuli/BM16_HO.jpg","HO","BM16","2","3.5","7","8","stimuli/stars_7.png","113","[""CC"",""SUR"",""HO"",""DO""]","[""AM03"",""HF04"",""BM16"",""AM09""]","[4,4,7,0]","[6,4,8,2]","","",""
"show-reward","82","296332","0.0-82.0","p764002","A267AK93EY4TMC","3P888QFVX40Z2B7BK75OWKP045JQOK","3VE8AYVF8O32DESGPCAZCJQB1A08FQ","model","match","uniform","","","","","","","","297976","299981.60000002384","","","","","","","","","","","","7","","stimuli/stars_7.png","113","","","","","stimuli/BM16_HO.jpg","",""
"explore-choice","83","299300","0.0-83.0","p764002","A267AK93EY4TMC","3P888QFVX40Z2B7BK75OWKP045JQOK","3VE8AYVF8O32DESGPCAZCJQB1A08FQ","model","match","uniform","","","","","","","2463.199999988079","299983.60000002384","302446.8000000119","[""stimuli/AM09_DO.jpg"",""stimuli/BM16_SUR.jpg"",""stimuli/AM03_CC.jpg"",""stimuli/HF04_HO.jpg""]","stimuli/AM09_DO.jpg","stimuli/BM16_SUR.jpg","stimuli/AM03_CC.jpg","stimuli/HF04_HO.jpg","pos2","stimuli/BM16_SUR.jpg","SUR","BM16","1","5","10","8","stimuli/stars_10.png","118","[""DO"",""SUR"",""CC"",""HO""]","[""AM09"",""BM16"",""AM03"",""HF04""]","[3,10,5,3]","[2,8,6,4]","","",""
"show-reward","84","301309","0.0-84.0","p764002","A267AK93EY4TMC","3P888QFVX40Z2B7BK75OWKP045JQOK","3VE8AYVF8O32DESGPCAZCJQB1A08FQ","model","match","uniform","","","","","","","","302951.8000000119","304956.3000000119","","","","","","","","","","","","10","","stimuli/stars_10.png","118","","","","","stimuli/BM16_SUR.jpg","",""
"explore-choice","85","305893","0.0-85.0","p764002","A267AK93EY4TMC","3P888QFVX40Z2B7BK75OWKP045JQOK","3VE8AYVF8O32DESGPCAZCJQB1A08FQ","model","match","uniform","","","","","","","4069.199999988079","304961.8000000119","309031","[""stimuli/AM09_CC.jpg"",""stimuli/HF04_HO.jpg"",""stimuli/AM03_SUR.jpg"",""stimuli/BM16_DO.jpg""]","stimuli/AM09_CC.jpg","stimuli/HF04_HO.jpg","stimuli/AM03_SUR.jpg","stimuli/BM16_DO.jpg","pos2","stimuli/HF04_HO.jpg","HO","HF04","1","2","4","4","stimuli/stars_4.png","120","[""CC"",""HO"",""SUR"",""DO""]","[""AM09"",""HF04"",""AM03"",""BM16""]","[0,4,4,8]","[2,4,6,8]","","",""
"show-reward","86","307908","0.0-86.0","p764002","A267AK93EY4TMC","3P888QFVX40Z2B7BK75OWKP045JQOK","3VE8AYVF8O32DESGPCAZCJQB1A08FQ","model","match","uniform","","","","","","","","309544.60000002384","311556.39999997616","","","","","","","","","","","","4","","stimuli/stars_4.png","120","","","","","stimuli/HF04_HO.jpg","",""
"explore-choice","87","309826","0.0-87.0","p764002","A267AK93EY4TMC","3P888QFVX40Z2B7BK75OWKP045JQOK","3VE8AYVF8O32DESGPCAZCJQB1A08FQ","model","match","uniform","","","","","","","1412.699999988079","311560.8000000119","312973.5","[""stimuli/BM16_CC.jpg"",""stimuli/AM09_DO.jpg"",""stimuli/HF04_SUR.jpg"",""stimuli/AM03_HO.jpg""]","stimuli/BM16_CC.jpg","stimuli/AM09_DO.jpg","stimuli/HF04_SUR.jpg","stimuli/AM03_HO.jpg","pos3","stimuli/HF04_SUR.jpg","SUR","HF04","2","2.5","5","4","stimuli/stars_5.png","122.5","[""CC"",""DO"",""SUR"",""HO""]","[""BM16"",""AM09"",""HF04"",""AM03""]","[8,4,5,7]","[8,2,4,6]","","",""
"show-reward","88","311843","0.0-88.0","p764002","A267AK93EY4TMC","3P888QFVX40Z2B7BK75OWKP045JQOK","3VE8AYVF8O32DESGPCAZCJQB1A08FQ","model","match","uniform","","","","","","","","313477.6999999881","315491.8000000119","","","","","","","","","","","","5","","stimuli/stars_5.png","122.5","","","","","stimuli/HF04_SUR.jpg","",""
"explore-choice","89","313561","0.0-89.0","p764002","A267AK93EY4TMC","3P888QFVX40Z2B7BK75OWKP045JQOK","3VE8AYVF8O32DESGPCAZCJQB1A08FQ","model","match","uniform","","","","","","","1208","315494","316702","[""stimuli/AM03_SUR.jpg"",""stimuli/BM16_HO.jpg"",""stimuli/HF04_CC.jpg"",""stimuli/AM09_DO.jpg""]","stimuli/AM03_SUR.jpg","stimuli/BM16_HO.jpg","stimuli/HF04_CC.jpg","stimuli/AM09_DO.jpg","pos2","stimuli/BM16_HO.jpg","HO","BM16","1","3","6","8","stimuli/stars_6.png","125.5","[""SUR"",""HO"",""CC"",""DO""]","[""AM03"",""BM16"",""HF04"",""AM09""]","[7,6,2,3]","[6,8,4,2]","","",""
"show-reward","90","315578","0.0-90.0","p764002","A267AK93EY4TMC","3P888QFVX40Z2B7BK75OWKP045JQOK","3VE8AYVF8O32DESGPCAZCJQB1A08FQ","model","match","uniform","","","","","","","","317212.10000002384","319226.89999997616","","","","","","","","","","","","6","","stimuli/stars_6.png","125.5","","","","","stimuli/BM16_HO.jpg","",""
"explore-choice","91","318988","0.0-91.0","p764002","A267AK93EY4TMC","3P888QFVX40Z2B7BK75OWKP045JQOK","3VE8AYVF8O32DESGPCAZCJQB1A08FQ","model","match","uniform","","","","","","","2896.399999976158","319229.60000002384","322126","[""stimuli/BM16_CC.jpg"",""stimuli/AM09_DO.jpg"",""stimuli/HF04_HO.jpg"",""stimuli/AM03_SUR.jpg""]","stimuli/BM16_CC.jpg","stimuli/AM09_DO.jpg","stimuli/HF04_HO.jpg","stimuli/AM03_SUR.jpg","pos3","stimuli/HF04_HO.jpg","HO","HF04","2","3","6","4","stimuli/stars_6.png","128.5","[""CC"",""DO"",""HO"",""SUR""]","[""BM16"",""AM09"",""HF04"",""AM03""]","[10,1,6,6]","[8,2,4,6]","","",""
"show-reward","92","320996","0.0-92.0","p764002","A267AK93EY4TMC","3P888QFVX40Z2B7BK75OWKP045JQOK","3VE8AYVF8O32DESGPCAZCJQB1A08FQ","model","match","uniform","","","","","","","","322639.60000002384","324645.3000000119","","","","","","","","","","","","6","","stimuli/stars_6.png","128.5","","","","","stimuli/HF04_HO.jpg","",""
"explore-choice","93","323062","0.0-93.0","p764002","A267AK93EY4TMC","3P888QFVX40Z2B7BK75OWKP045JQOK","3VE8AYVF8O32DESGPCAZCJQB1A08FQ","model","match","uniform","","","","","","","1552.9000000357628","324647.89999997616","326200.8000000119","[""stimuli/BM16_CC.jpg"",""stimuli/HF04_DO.jpg"",""stimuli/AM03_HO.jpg"",""stimuli/AM09_SUR.jpg""]","stimuli/BM16_CC.jpg","stimuli/HF04_DO.jpg","stimuli/AM03_HO.jpg","stimuli/AM09_SUR.jpg","pos1","stimuli/BM16_CC.jpg","CC","BM16","0","3.5","7","8","stimuli/stars_7.png","132","[""CC"",""DO"",""HO"",""SUR""]","[""BM16"",""HF04"",""AM03"",""AM09""]","[7,2,5,1]","[8,4,6,2]","","",""
"show-reward","94","325071","0.0-94.0","p764002","A267AK93EY4TMC","3P888QFVX40Z2B7BK75OWKP045JQOK","3VE8AYVF8O32DESGPCAZCJQB1A08FQ","model","match","uniform","","","","","","","","326712.8000000119","328718.5","","","","","","","","","","","","7","","stimuli/stars_7.png","132","","","","","stimuli/BM16_CC.jpg","",""
"explore-choice","95","327054","0.0-95.0","p764002","A267AK93EY4TMC","3P888QFVX40Z2B7BK75OWKP045JQOK","3VE8AYVF8O32DESGPCAZCJQB1A08FQ","model","match","uniform","","","","","","","1466.4000000357628","328723.89999997616","330190.3000000119","[""stimuli/AM09_HO.jpg"",""stimuli/AM03_SUR.jpg"",""stimuli/BM16_DO.jpg"",""stimuli/HF04_CC.jpg""]","stimuli/AM09_HO.jpg","stimuli/AM03_SUR.jpg","stimuli/BM16_DO.jpg","stimuli/HF04_CC.jpg","pos1","stimuli/AM09_HO.jpg","HO","AM09","0","0","0","2","stimuli/stars_0.png","132","[""HO"",""SUR"",""DO"",""CC""]","[""AM09"",""AM03"",""BM16"",""HF04""]","[0,7,8,2]","[2,6,8,4]","","",""
"show-reward","96","329072","0.0-96.0","p764002","A267AK93EY4TMC","3P888QFVX40Z2B7BK75OWKP045JQOK","3VE8AYVF8O32DESGPCAZCJQB1A08FQ","model","match","uniform","","","","","","","","330707.10000002384","332721.5","","","","","","","","","","","","0","","stimuli/stars_0.png","132","","","","","stimuli/AM09_HO.jpg","",""
"explore-choice","97","330802","0.0-97.0","p764002","A267AK93EY4TMC","3P888QFVX40Z2B7BK75OWKP045JQOK","3VE8AYVF8O32DESGPCAZCJQB1A08FQ","model","match","uniform","","","","","","","1227.2999999523163","332723.60000002384","333950.89999997616","[""stimuli/HF04_DO.jpg"",""stimuli/BM16_HO.jpg"",""stimuli/AM03_CC.jpg"",""stimuli/AM09_SUR.jpg""]","stimuli/HF04_DO.jpg","stimuli/BM16_HO.jpg","stimuli/AM03_CC.jpg","stimuli/AM09_SUR.jpg","pos2","stimuli/BM16_HO.jpg","HO","BM16","1","5","10","8","stimuli/stars_10.png","137","[""DO"",""HO"",""CC"",""SUR""]","[""HF04"",""BM16"",""AM03"",""AM09""]","[3,10,6,4]","[4,8,6,2]","","",""
"show-reward","98","332815","0.0-98.0","p764002","A267AK93EY4TMC","3P888QFVX40Z2B7BK75OWKP045JQOK","3VE8AYVF8O32DESGPCAZCJQB1A08FQ","model","match","uniform","","","","","","","","334453.60000002384","336463.3000000119","","","","","","","","","","","","10","","stimuli/stars_10.png","137","","","","","stimuli/BM16_HO.jpg","",""
"explore-choice","99","335450","0.0-99.0","p764002","A267AK93EY4TMC","3P888QFVX40Z2B7BK75OWKP045JQOK","3VE8AYVF8O32DESGPCAZCJQB1A08FQ","model","match","uniform","","","","","","","2132.5","336466.10000002384","338598.60000002384","[""stimuli/BM16_SUR.jpg"",""stimuli/AM09_CC.jpg"",""stimuli/AM03_DO.jpg"",""stimuli/HF04_HO.jpg""]","stimuli/BM16_SUR.jpg","stimuli/AM09_CC.jpg","stimuli/AM03_DO.jpg","stimuli/HF04_HO.jpg","pos4","stimuli/HF04_HO.jpg","HO","HF04","3","2.5","5","4","stimuli/stars_5.png","139.5","[""SUR"",""CC"",""DO"",""HO""]","[""BM16"",""AM09"",""AM03"",""HF04""]","[7,1,7,5]","[8,2,6,4]","","",""
"show-reward","100","337463","0.0-100.0","p764002","A267AK93EY4TMC","3P888QFVX40Z2B7BK75OWKP045JQOK","3VE8AYVF8O32DESGPCAZCJQB1A08FQ","model","match","uniform","","","","","","","","339101.89999997616","341111.60000002384","","","","","","","","","","","","5","","stimuli/stars_5.png","139.5","","","","","stimuli/HF04_HO.jpg","",""
"explore-choice","101","339287","0.0-101.0","p764002","A267AK93EY4TMC","3P888QFVX40Z2B7BK75OWKP045JQOK","3VE8AYVF8O32DESGPCAZCJQB1A08FQ","model","match","uniform","","","","","","","1316.800000011921","341114.5","342431.3000000119","[""stimuli/BM16_DO.jpg"",""stimuli/AM03_CC.jpg"",""stimuli/HF04_HO.jpg"",""stimuli/AM09_SUR.jpg""]","stimuli/BM16_DO.jpg","stimuli/AM03_CC.jpg","stimuli/HF04_HO.jpg","stimuli/AM09_SUR.jpg","pos1","stimuli/BM16_DO.jpg","DO","BM16","0","3","6","8","stimuli/stars_6.png","142.5","[""DO"",""CC"",""HO"",""SUR""]","[""BM16"",""AM03"",""HF04"",""AM09""]","[6,6,5,0]","[8,6,4,2]","","",""
"show-reward","102","341301","0.0-102.0","p764002","A267AK93EY4TMC","3P888QFVX40Z2B7BK75OWKP045JQOK","3VE8AYVF8O32DESGPCAZCJQB1A08FQ","model","match","uniform","","","","","","","","342938.8000000119","344949.6999999881","","","","","","","","","","","","6","","stimuli/stars_6.png","142.5","","","","","stimuli/BM16_DO.jpg","",""
"explore-choice","103","345884","0.0-103.0","p764002","A267AK93EY4TMC","3P888QFVX40Z2B7BK75OWKP045JQOK","3VE8AYVF8O32DESGPCAZCJQB1A08FQ","model","match","uniform","","","","","","","4071.400000035763","344952.1999999881","349023.60000002384","[""stimuli/BM04_AO.jpg"",""stimuli/WF06_HE.jpg"",""stimuli/AF10_FO.jpg"",""stimuli/HM09_SC.jpg""]","stimuli/BM04_AO.jpg","stimuli/WF06_HE.jpg","stimuli/AF10_FO.jpg","stimuli/HM09_SC.jpg","pos2","stimuli/WF06_HE.jpg","HE","WF06","1","4","8","6","stimuli/stars_8.png","146.5","[""AO"",""HE"",""FO"",""SC""]","[""BM04"",""WF06"",""AF10"",""HM09""]","[2,8,4,6]","[2,6,4,8]","","",""
"show-reward","104","347892","0.0-104.0","p764002","A267AK93EY4TMC","3P888QFVX40Z2B7BK75OWKP045JQOK","3VE8AYVF8O32DESGPCAZCJQB1A08FQ","model","match","uniform","","","","","","","","349535.6999999881","351540.3000000119","","","","","","","","","","","","8","","stimuli/stars_8.png","146.5","","","","","stimuli/WF06_HE.jpg","",""
"explore-choice","105","351218","0.0-105.0","p764002","A267AK93EY4TMC","3P888QFVX40Z2B7BK75OWKP045JQOK","3VE8AYVF8O32DESGPCAZCJQB1A08FQ","model","match","uniform","","","","","","","2814.400000035763","351542.89999997616","354357.3000000119","[""stimuli/AF10_SC.jpg"",""stimuli/WF06_FO.jpg"",""stimuli/HM09_AO.jpg"",""stimuli/BM04_HE.jpg""]","stimuli/AF10_SC.jpg","stimuli/WF06_FO.jpg","stimuli/HM09_AO.jpg","stimuli/BM04_HE.jpg","pos4","stimuli/BM04_HE.jpg","HE","BM04","3","1.5","3","2","stimuli/stars_3.png","148","[""SC"",""FO"",""AO"",""HE""]","[""AF10"",""WF06"",""HM09"",""BM04""]","[4,4,10,3]","[4,6,8,2]","","",""
"show-reward","106","353231","0.0-106.0","p764002","A267AK93EY4TMC","3P888QFVX40Z2B7BK75OWKP045JQOK","3VE8AYVF8O32DESGPCAZCJQB1A08FQ","model","match","uniform","","","","","","","","354869.1999999881","356879.8000000119","","","","","","","","","","","","3","","stimuli/stars_3.png","148","","","","","stimuli/BM04_HE.jpg","",""
"explore-choice","107","354928","0.0-107.0","p764002","A267AK93EY4TMC","3P888QFVX40Z2B7BK75OWKP045JQOK","3VE8AYVF8O32DESGPCAZCJQB1A08FQ","model","match","uniform","","","","","","","1187.300000011921","356882.3000000119","358069.60000002384","[""stimuli/AF10_FO.jpg"",""stimuli/BM04_AO.jpg"",""stimuli/WF06_SC.jpg"",""stimuli/HM09_HE.jpg""]","stimuli/AF10_FO.jpg","stimuli/BM04_AO.jpg","stimuli/WF06_SC.jpg","stimuli/HM09_HE.jpg","pos1","stimuli/AF10_FO.jpg","FO","AF10","0","2.5","5","4","stimuli/stars_5.png","150.5","[""FO"",""AO"",""SC"",""HE""]","[""AF10"",""BM04"",""WF06"",""HM09""]","[5,0,5,7]","[4,2,6,8]","","",""
"show-reward","108","356945","0.0-108.0","p764002","A267AK93EY4TMC","3P888QFVX40Z2B7BK75OWKP045JQOK","3VE8AYVF8O32DESGPCAZCJQB1A08FQ","model","match","uniform","","","","","","","","358580.5","360594.1999999881","","","","","","","","","","","","5","","stimuli/stars_5.png","150.5","","","","","stimuli/AF10_FO.jpg","",""
"explore-choice","109","362215","0.0-109.0","p764002","A267AK93EY4TMC","3P888QFVX40Z2B7BK75OWKP045JQOK","3VE8AYVF8O32DESGPCAZCJQB1A08FQ","model","match","uniform","","","","","","","4759.699999988079","360598","365357.6999999881","[""stimuli/AF10_SC.jpg"",""stimuli/WF06_AO.jpg"",""stimuli/HM09_FO.jpg"",""stimuli/BM04_HE.jpg""]","stimuli/AF10_SC.jpg","stimuli/WF06_AO.jpg","stimuli/HM09_FO.jpg","stimuli/BM04_HE.jpg","pos3","stimuli/HM09_FO.jpg","FO","HM09","2","3.5","7","8","stimuli/stars_7.png","154","[""SC"",""AO"",""FO"",""HE""]","[""AF10"",""WF06"",""HM09"",""BM04""]","[3,5,7,4]","[4,6,8,2]","","",""
"show-reward","110","364226","0.0-110.0","p764002","A267AK93EY4TMC","3P888QFVX40Z2B7BK75OWKP045JQOK","3VE8AYVF8O32DESGPCAZCJQB1A08FQ","model","match","uniform","","","","","","","","365867.60000002384","367874.89999997616","","","","","","","","","","","","7","","stimuli/stars_7.png","154","","","","","stimuli/HM09_FO.jpg","",""
"explore-choice","111","366474","0.0-111.0","p764002","A267AK93EY4TMC","3P888QFVX40Z2B7BK75OWKP045JQOK","3VE8AYVF8O32DESGPCAZCJQB1A08FQ","model","match","uniform","","","","","","","1738","367877.39999997616","369615.39999997616","[""stimuli/AF10_HE.jpg"",""stimuli/WF06_AO.jpg"",""stimuli/BM04_SC.jpg"",""stimuli/HM09_FO.jpg""]","stimuli/AF10_HE.jpg","stimuli/WF06_AO.jpg","stimuli/BM04_SC.jpg","stimuli/HM09_FO.jpg","pos4","stimuli/HM09_FO.jpg","FO","HM09","3","3.5","7","8","stimuli/stars_7.png","157.5","[""HE"",""AO"",""SC"",""FO""]","[""AF10"",""WF06"",""BM04"",""HM09""]","[2,7,3,7]","[4,6,2,8]","","",""
"show-reward","112","368481","0.0-112.0","p764002","A267AK93EY4TMC","3P888QFVX40Z2B7BK75OWKP045JQOK","3VE8AYVF8O32DESGPCAZCJQB1A08FQ","model","match","uniform","","","","","","","","370125.1999999881","372130.1999999881","","","","","","","","","","","","7","","stimuli/stars_7.png","157.5","","","","","stimuli/HM09_FO.jpg","",""
"explore-choice","113","370425","0.0-113.0","p764002","A267AK93EY4TMC","3P888QFVX40Z2B7BK75OWKP045JQOK","3VE8AYVF8O32DESGPCAZCJQB1A08FQ","model","match","uniform","","","","","","","1441.0999999642372","372132.10000002384","373573.1999999881","[""stimuli/BM04_HE.jpg"",""stimuli/WF06_SC.jpg"",""stimuli/AF10_AO.jpg"",""stimuli/HM09_FO.jpg""]","stimuli/BM04_HE.jpg","stimuli/WF06_SC.jpg","stimuli/AF10_AO.jpg","stimuli/HM09_FO.jpg","pos1","stimuli/BM04_HE.jpg","HE","BM04","0","2","4","2","stimuli/stars_4.png","159.5","[""HE"",""SC"",""AO"",""FO""]","[""BM04"",""WF06"",""AF10"",""HM09""]","[4,6,3,10]","[2,6,4,8]","","",""
"show-reward","114","372433","0.0-114.0","p764002","A267AK93EY4TMC","3P888QFVX40Z2B7BK75OWKP045JQOK","3VE8AYVF8O32DESGPCAZCJQB1A08FQ","model","match","uniform","","","","","","","","374076.6999999881","376081.6999999881","","","","","","","","","","","","4","","stimuli/stars_4.png","159.5","","","","","stimuli/BM04_HE.jpg","",""
"explore-choice","115","374606","0.0-115.0","p764002","A267AK93EY4TMC","3P888QFVX40Z2B7BK75OWKP045JQOK","3VE8AYVF8O32DESGPCAZCJQB1A08FQ","model","match","uniform","","","","","","","1658.7999999523163","376084.60000002384","377743.39999997616","[""stimuli/BM04_AO.jpg"",""stimuli/WF06_SC.jpg"",""stimuli/AF10_HE.jpg"",""stimuli/HM09_FO.jpg""]","stimuli/BM04_AO.jpg","stimuli/WF06_SC.jpg","stimuli/AF10_HE.jpg","stimuli/HM09_FO.jpg","pos4","stimuli/HM09_FO.jpg","FO","HM09","3","4.5","9","8","stimuli/stars_9.png","164","[""AO"",""SC"",""HE"",""FO""]","[""BM04"",""WF06"",""AF10"",""HM09""]","[4,4,6,9]","[2,6,4,8]","","",""
"show-reward","116","376613","0.0-116.0","p764002","A267AK93EY4TMC","3P888QFVX40Z2B7BK75OWKP045JQOK","3VE8AYVF8O32DESGPCAZCJQB1A08FQ","model","match","uniform","","","","","","","","378258.6999999881","380262","","","","","","","","","","","","9","","stimuli/stars_9.png","164","","","","","stimuli/HM09_FO.jpg","",""
"explore-choice","117","378721","0.0-117.0","p764002","A267AK93EY4TMC","3P888QFVX40Z2B7BK75OWKP045JQOK","3VE8AYVF8O32DESGPCAZCJQB1A08FQ","model","match","uniform","","","","","","","1597.800000011921","380264.89999997616","381862.6999999881","[""stimuli/AF10_AO.jpg"",""stimuli/WF06_FO.jpg"",""stimuli/BM04_SC.jpg"",""stimuli/HM09_HE.jpg""]","stimuli/AF10_AO.jpg","stimuli/WF06_FO.jpg","stimuli/BM04_SC.jpg","stimuli/HM09_HE.jpg","pos4","stimuli/HM09_HE.jpg","HE","HM09","3","4","8","8","stimuli/stars_8.png","168","[""AO"",""FO"",""SC"",""HE""]","[""AF10"",""WF06"",""BM04"",""HM09""]","[4,6,1,8]","[4,6,2,8]","","",""
"show-reward","118","380733","0.0-118.0","p764002","A267AK93EY4TMC","3P888QFVX40Z2B7BK75OWKP045JQOK","3VE8AYVF8O32DESGPCAZCJQB1A08FQ","model","match","uniform","","","","","","","","382372.3000000119","384382.6999999881","","","","","","","","","","","","8","","stimuli/stars_8.png","168","","","","","stimuli/HM09_HE.jpg","",""
"explore-choice","119","382558","0.0-119.0","p764002","A267AK93EY4TMC","3P888QFVX40Z2B7BK75OWKP045JQOK","3VE8AYVF8O32DESGPCAZCJQB1A08FQ","model","match","uniform","","","","","","","1311.199999988079","384384.5","385695.6999999881","[""stimuli/BM04_FO.jpg"",""stimuli/AF10_AO.jpg"",""stimuli/HM09_SC.jpg"",""stimuli/WF06_HE.jpg""]","stimuli/BM04_FO.jpg","stimuli/AF10_AO.jpg","stimuli/HM09_SC.jpg","stimuli/WF06_HE.jpg","pos2","stimuli/AF10_AO.jpg","AO","AF10","1","2.5","5","4","stimuli/stars_5.png","170.5","[""FO"",""AO"",""SC"",""HE""]","[""BM04"",""AF10"",""HM09"",""WF06""]","[0,5,10,6]","[2,4,8,6]","","",""
"show-reward","120","384570","0.0-120.0","p764002","A267AK93EY4TMC","3P888QFVX40Z2B7BK75OWKP045JQOK","3VE8AYVF8O32DESGPCAZCJQB1A08FQ","model","match","uniform","","","","","","","","386208.89999997616","388218.5","","","","","","","","","","","","5","","stimuli/stars_5.png","170.5","","","","","stimuli/AF10_AO.jpg","",""
"explore-choice","121","385480","0.0-121.0","p764002","A267AK93EY4TMC","3P888QFVX40Z2B7BK75OWKP045JQOK","3VE8AYVF8O32DESGPCAZCJQB1A08FQ","model","match","uniform","","","","","","","398.80000001192093","388222.5","388621.3000000119","[""stimuli/WF06_HE.jpg"",""stimuli/HM09_FO.jpg"",""stimuli/BM04_AO.jpg"",""stimuli/AF10_SC.jpg""]","stimuli/WF06_HE.jpg","stimuli/HM09_FO.jpg","stimuli/BM04_AO.jpg","stimuli/AF10_SC.jpg","pos1","stimuli/WF06_HE.jpg","HE","WF06","0","2","4","6","stimuli/stars_4.png","172.5","[""HE"",""FO"",""AO"",""SC""]","[""WF06"",""HM09"",""BM04"",""AF10""]","[4,7,3,4]","[6,8,2,4]","","",""
"show-reward","122","387491","0.0-122.0","p764002","A267AK93EY4TMC","3P888QFVX40Z2B7BK75OWKP045JQOK","3VE8AYVF8O32DESGPCAZCJQB1A08FQ","model","match","uniform","","","","","","","","389133","391139.6999999881","","","","","","","","","","","","4","","stimuli/stars_4.png","172.5","","","","","stimuli/WF06_HE.jpg","",""
"explore-choice","123","389152","0.0-123.0","p764002","A267AK93EY4TMC","3P888QFVX40Z2B7BK75OWKP045JQOK","3VE8AYVF8O32DESGPCAZCJQB1A08FQ","model","match","uniform","","","","","","","1151.9000000357628","391143.39999997616","392295.3000000119","[""stimuli/WF06_HE.jpg"",""stimuli/HM09_FO.jpg"",""stimuli/BM04_SC.jpg"",""stimuli/AF10_AO.jpg""]","stimuli/WF06_HE.jpg","stimuli/HM09_FO.jpg","stimuli/BM04_SC.jpg","stimuli/AF10_AO.jpg","pos4","stimuli/AF10_AO.jpg","AO","AF10","3","1.5","3","4","stimuli/stars_3.png","174","[""HE"",""FO"",""SC"",""AO""]","[""WF06"",""HM09"",""BM04"",""AF10""]","[7,7,4,3]","[6,8,2,4]","","",""
"show-reward","124","391158","0.0-124.0","p764002","A267AK93EY4TMC","3P888QFVX40Z2B7BK75OWKP045JQOK","3VE8AYVF8O32DESGPCAZCJQB1A08FQ","model","match","uniform","","","","","","","","392802.89999997616","394807.3000000119","","","","","","","","","","","","3","","stimuli/stars_3.png","174","","","","","stimuli/AF10_AO.jpg","",""
"explore-choice","125","392174","0.0-125.0","p764002","A267AK93EY4TMC","3P888QFVX40Z2B7BK75OWKP045JQOK","3VE8AYVF8O32DESGPCAZCJQB1A08FQ","model","match","uniform","","","","","","","509.69999998807907","394809","395318.6999999881","[""stimuli/BM04_AO.jpg"",""stimuli/HM09_SC.jpg"",""stimuli/AF10_HE.jpg"",""stimuli/WF06_FO.jpg""]","stimuli/BM04_AO.jpg","stimuli/HM09_SC.jpg","stimuli/AF10_HE.jpg","stimuli/WF06_FO.jpg","pos2","stimuli/HM09_SC.jpg","SC","HM09","1","4","8","8","stimuli/stars_8.png","178","[""AO"",""SC"",""HE"",""FO""]","[""BM04"",""HM09"",""AF10"",""WF06""]","[3,8,2,4]","[2,8,4,6]","","",""
"show-reward","126","394186","0.0-126.0","p764002","A267AK93EY4TMC","3P888QFVX40Z2B7BK75OWKP045JQOK","3VE8AYVF8O32DESGPCAZCJQB1A08FQ","model","match","uniform","","","","","","","","395825.10000002384","397834.3000000119","","","","","","","","","","","","8","","stimuli/stars_8.png","178","","","","","stimuli/HM09_SC.jpg","",""
"explore-choice","127","396107","0.0-127.0","p764002","A267AK93EY4TMC","3P888QFVX40Z2B7BK75OWKP045JQOK","3VE8AYVF8O32DESGPCAZCJQB1A08FQ","model","match","uniform","","","","","","","1416","397836.89999997616","399252.89999997616","[""stimuli/BM04_SC.jpg"",""stimuli/HM09_AO.jpg"",""stimuli/WF06_HE.jpg"",""stimuli/AF10_FO.jpg""]","stimuli/BM04_SC.jpg","stimuli/HM09_AO.jpg","stimuli/WF06_HE.jpg","stimuli/AF10_FO.jpg","pos1","stimuli/BM04_SC.jpg","SC","BM04","0","2","4","2","stimuli/stars_4.png","180","[""SC"",""AO"",""HE"",""FO""]","[""BM04"",""HM09"",""WF06"",""AF10""]","[4,10,5,4]","[2,8,6,4]","","",""
"show-reward","128","398192","0.0-128.0","p764002","A267AK93EY4TMC","3P888QFVX40Z2B7BK75OWKP045JQOK","3VE8AYVF8O32DESGPCAZCJQB1A08FQ","model","match","uniform","","","","","","","","399761.60000002384","401840.8000000119","","","","","","","","","","","","4","","stimuli/stars_4.png","180","","","","","stimuli/BM04_SC.jpg","",""
"explore-choice","129","400306","0.0-129.0","p764002","A267AK93EY4TMC","3P888QFVX40Z2B7BK75OWKP045JQOK","3VE8AYVF8O32DESGPCAZCJQB1A08FQ","model","match","uniform","","","","","","","1602.7999999523163","401843.60000002384","403446.39999997616","[""stimuli/HM09_HE.jpg"",""stimuli/BM04_SC.jpg"",""stimuli/AF10_FO.jpg"",""stimuli/WF06_AO.jpg""]","stimuli/HM09_HE.jpg","stimuli/BM04_SC.jpg","stimuli/AF10_FO.jpg","stimuli/WF06_AO.jpg","pos3","stimuli/AF10_FO.jpg","FO","AF10","2","1","2","4","stimuli/stars_2.png","181","[""HE"",""SC"",""FO"",""AO""]","[""HM09"",""BM04"",""AF10"",""WF06""]","[8,1,2,6]","[8,2,4,6]","","",""
"show-reward","130","402319","0.0-130.0","p764002","A267AK93EY4TMC","3P888QFVX40Z2B7BK75OWKP045JQOK","3VE8AYVF8O32DESGPCAZCJQB1A08FQ","model","match","uniform","","","","","","","","403957.1999999881","405967.6999999881","","","","","","","","","","","","2","","stimuli/stars_2.png","181","","","","","stimuli/AF10_FO.jpg","",""
"explore-choice","131","403869","0.0-131.0","p764002","A267AK93EY4TMC","3P888QFVX40Z2B7BK75OWKP045JQOK","3VE8AYVF8O32DESGPCAZCJQB1A08FQ","model","match","uniform","","","","","","","1044.9000000357628","405970.1999999881","407015.10000002384","[""stimuli/HM09_HE.jpg"",""stimuli/WF06_SC.jpg"",""stimuli/AF10_AO.jpg"",""stimuli/BM04_FO.jpg""]","stimuli/HM09_HE.jpg","stimuli/WF06_SC.jpg","stimuli/AF10_AO.jpg","stimuli/BM04_FO.jpg","pos1","stimuli/HM09_HE.jpg","HE","HM09","0","3","6","8","stimuli/stars_6.png","184","[""HE"",""SC"",""AO"",""FO""]","[""HM09"",""WF06"",""AF10"",""BM04""]","[6,7,3,3]","[8,6,4,2]","","",""
"show-reward","132","405875","0.0-132.0","p764002","A267AK93EY4TMC","3P888QFVX40Z2B7BK75OWKP045JQOK","3VE8AYVF8O32DESGPCAZCJQB1A08FQ","model","match","uniform","","","","","","","","407520.3000000119","409524.1999999881","","","","","","","","","","","","6","","stimuli/stars_6.png","184","","","","","stimuli/HM09_HE.jpg","",""
"explore-choice","133","407239","0.0-133.0","p764002","A267AK93EY4TMC","3P888QFVX40Z2B7BK75OWKP045JQOK","3VE8AYVF8O32DESGPCAZCJQB1A08FQ","model","match","uniform","","","","","","","854.7999999523163","409527.10000002384","410381.89999997616","[""stimuli/WF06_FO.jpg"",""stimuli/HM09_SC.jpg"",""stimuli/AF10_AO.jpg"",""stimuli/BM04_HE.jpg""]","stimuli/WF06_FO.jpg","stimuli/HM09_SC.jpg","stimuli/AF10_AO.jpg","stimuli/BM04_HE.jpg","pos4","stimuli/BM04_HE.jpg","HE","BM04","3","0.5","1","2","stimuli/stars_1.png","184.5","[""FO"",""SC"",""AO"",""HE""]","[""WF06"",""HM09"",""AF10"",""BM04""]","[5,9,6,1]","[6,8,4,2]","","",""
"show-reward","134","409248","0.0-134.0","p764002","A267AK93EY4TMC","3P888QFVX40Z2B7BK75OWKP045JQOK","3VE8AYVF8O32DESGPCAZCJQB1A08FQ","model","match","uniform","","","","","","","","410891.10000002384","412897.5","","","","","","","","","","","","1","","stimuli/stars_1.png","184.5","","","","","stimuli/BM04_HE.jpg","",""
"explore-choice","135","410663","0.0-135.0","p764002","A267AK93EY4TMC","3P888QFVX40Z2B7BK75OWKP045JQOK","3VE8AYVF8O32DESGPCAZCJQB1A08FQ","model","match","uniform","","","","","","","904.1999999880791","412903.1999999881","413807.39999997616","[""stimuli/BM04_FO.jpg"",""stimuli/AF10_HE.jpg"",""stimuli/WF06_SC.jpg"",""stimuli/HM09_AO.jpg""]","stimuli/BM04_FO.jpg","stimuli/AF10_HE.jpg","stimuli/WF06_SC.jpg","stimuli/HM09_AO.jpg","pos1","stimuli/BM04_FO.jpg","FO","BM04","0","1.5","3","2","stimuli/stars_3.png","186","[""FO"",""HE"",""SC"",""AO""]","[""BM04"",""AF10"",""WF06"",""HM09""]","[3,5,7,7]","[2,4,6,8]","","",""
"show-reward","136","412668","0.0-136.0","p764002","A267AK93EY4TMC","3P888QFVX40Z2B7BK75OWKP045JQOK","3VE8AYVF8O32DESGPCAZCJQB1A08FQ","model","match","uniform","","","","","","","","414314","416316.6999999881","","","","","","","","","","","","3","","stimuli/stars_3.png","186","","","","","stimuli/BM04_FO.jpg","",""
"explore-choice","137","414446","0.0-137.0","p764002","A267AK93EY4TMC","3P888QFVX40Z2B7BK75OWKP045JQOK","3VE8AYVF8O32DESGPCAZCJQB1A08FQ","model","match","uniform","","","","","","","1271.9000000357628","416318.6999999881","417590.60000002384","[""stimuli/AF10_SC.jpg"",""stimuli/WF06_HE.jpg"",""stimuli/HM09_AO.jpg"",""stimuli/BM04_FO.jpg""]","stimuli/AF10_SC.jpg","stimuli/WF06_HE.jpg","stimuli/HM09_AO.jpg","stimuli/BM04_FO.jpg","pos2","stimuli/WF06_HE.jpg","HE","WF06","1","2","4","6","stimuli/stars_4.png","188","[""SC"",""HE"",""AO"",""FO""]","[""AF10"",""WF06"",""HM09"",""BM04""]","[2,4,10,4]","[4,6,8,2]","","",""
"show-reward","138","416457","0.0-138.0","p764002","A267AK93EY4TMC","3P888QFVX40Z2B7BK75OWKP045JQOK","3VE8AYVF8O32DESGPCAZCJQB1A08FQ","model","match","uniform","","","","","","","","418097.60000002384","420106","","","","","","","","","","","","4","","stimuli/stars_4.png","188","","","","","stimuli/WF06_HE.jpg","",""
"explore-choice","139","417951","0.0-139.0","p764002","A267AK93EY4TMC","3P888QFVX40Z2B7BK75OWKP045JQOK","3VE8AYVF8O32DESGPCAZCJQB1A08FQ","model","match","uniform","","","","","","","986.8000000119209","420108.5","421095.3000000119","[""stimuli/AF10_HE.jpg"",""stimuli/WF06_FO.jpg"",""stimuli/BM04_SC.jpg"",""stimuli/HM09_AO.jpg""]","stimuli/AF10_HE.jpg","stimuli/WF06_FO.jpg","stimuli/BM04_SC.jpg","stimuli/HM09_AO.jpg","pos3","stimuli/BM04_SC.jpg","SC","BM04","2","0","0","2","stimuli/stars_0.png","188","[""HE"",""FO"",""SC"",""AO""]","[""AF10"",""WF06"",""BM04"",""HM09""]","[4,4,0,8]","[4,6,2,8]","","",""
"show-reward","140","419964","0.0-140.0","p764002","A267AK93EY4TMC","3P888QFVX40Z2B7BK75OWKP045JQOK","3VE8AYVF8O32DESGPCAZCJQB1A08FQ","model","match","uniform","","","","","","","","421603","423613.10000002384","","","","","","","","","","","","0","","stimuli/stars_0.png","188","","","","","stimuli/BM04_SC.jpg","",""
"explore-choice","141","421347","0.0-141.0","p764002","A267AK93EY4TMC","3P888QFVX40Z2B7BK75OWKP045JQOK","3VE8AYVF8O32DESGPCAZCJQB1A08FQ","model","match","uniform","","","","","","","872.3999999761581","423615.10000002384","424487.5","[""stimuli/BM04_FO.jpg"",""stimuli/WF06_AO.jpg"",""stimuli/HM09_SC.jpg"",""stimuli/AF10_HE.jpg""]","stimuli/BM04_FO.jpg","stimuli/WF06_AO.jpg","stimuli/HM09_SC.jpg","stimuli/AF10_HE.jpg","pos4","stimuli/AF10_HE.jpg","HE","AF10","3","2","4","4","stimuli/stars_4.png","190","[""FO"",""AO"",""SC"",""HE""]","[""BM04"",""WF06"",""HM09"",""AF10""]","[0,7,9,4]","[2,6,8,4]","","",""
"show-reward","142","423352","0.0-142.0","p764002","A267AK93EY4TMC","3P888QFVX40Z2B7BK75OWKP045JQOK","3VE8AYVF8O32DESGPCAZCJQB1A08FQ","model","match","uniform","","","","","","","","424998.3000000119","427001.39999997616","","","","","","","","","","","","4","","stimuli/stars_4.png","190","","","","","stimuli/AF10_HE.jpg","",""
"explore-choice","143","424395","0.0-143.0","p764002","A267AK93EY4TMC","3P888QFVX40Z2B7BK75OWKP045JQOK","3VE8AYVF8O32DESGPCAZCJQB1A08FQ","model","match","uniform","","","","","","","530.9000000357628","427003.39999997616","427534.3000000119","[""stimuli/AF10_FO.jpg"",""stimuli/HM09_SC.jpg"",""stimuli/BM04_HE.jpg"",""stimuli/WF06_AO.jpg""]","stimuli/AF10_FO.jpg","stimuli/HM09_SC.jpg","stimuli/BM04_HE.jpg","stimuli/WF06_AO.jpg","pos1","stimuli/AF10_FO.jpg","FO","AF10","0","1","2","4","stimuli/stars_2.png","191","[""FO"",""SC"",""HE"",""AO""]","[""AF10"",""HM09"",""BM04"",""WF06""]","[2,7,0,7]","[4,8,2,6]","","",""
"show-reward","144","426408","0.0-144.0","p764002","A267AK93EY4TMC","3P888QFVX40Z2B7BK75OWKP045JQOK","3VE8AYVF8O32DESGPCAZCJQB1A08FQ","model","match","uniform","","","","","","","","428046.89999997616","430057.89999997616","","","","","","","","","","","","2","","stimuli/stars_2.png","191","","","","","stimuli/AF10_FO.jpg","",""
"explore-choice","145","427977","0.0-145.0","p764002","A267AK93EY4TMC","3P888QFVX40Z2B7BK75OWKP045JQOK","3VE8AYVF8O32DESGPCAZCJQB1A08FQ","model","match","uniform","","","","","","","1034.6000000238419","430075.89999997616","431110.5","[""stimuli/BM04_AO.jpg"",""stimuli/AF10_SC.jpg"",""stimuli/WF06_FO.jpg"",""stimuli/HM09_HE.jpg""]","stimuli/BM04_AO.jpg","stimuli/AF10_SC.jpg","stimuli/WF06_FO.jpg","stimuli/HM09_HE.jpg","pos2","stimuli/AF10_SC.jpg","SC","AF10","1","1.5","3","4","stimuli/stars_3.png","192.5","[""AO"",""SC"",""FO"",""HE""]","[""BM04"",""AF10"",""WF06"",""HM09""]","[1,3,4,6]","[2,4,6,8]","","",""
"show-reward","146","429987","0.0-146.0","p764002","A267AK93EY4TMC","3P888QFVX40Z2B7BK75OWKP045JQOK","3VE8AYVF8O32DESGPCAZCJQB1A08FQ","model","match","uniform","","","","","","","","431629.89999997616","433636.89999997616","","","","","","","","","","","","3","","stimuli/stars_3.png","192.5","","","","","stimuli/AF10_SC.jpg","",""
"explore-choice","147","431195","0.0-147.0","p764002","A267AK93EY4TMC","3P888QFVX40Z2B7BK75OWKP045JQOK","3VE8AYVF8O32DESGPCAZCJQB1A08FQ","model","match","uniform","","","","","","","689","433639.60000002384","434328.60000002384","[""stimuli/BM04_FO.jpg"",""stimuli/HM09_HE.jpg"",""stimuli/AF10_SC.jpg"",""stimuli/WF06_AO.jpg""]","stimuli/BM04_FO.jpg","stimuli/HM09_HE.jpg","stimuli/AF10_SC.jpg","stimuli/WF06_AO.jpg","pos1","stimuli/BM04_FO.jpg","FO","BM04","0","1.5","3","2","stimuli/stars_3.png","194","[""FO"",""HE"",""SC"",""AO""]","[""BM04"",""HM09"",""AF10"",""WF06""]","[3,10,5,6]","[2,8,4,6]","","",""
"show-reward","148","433205","0.0-148.0","p764002","A267AK93EY4TMC","3P888QFVX40Z2B7BK75OWKP045JQOK","3VE8AYVF8O32DESGPCAZCJQB1A08FQ","model","match","uniform","","","","","","","","434849.3000000119","436854.89999997616","","","","","","","","","","","","3","","stimuli/stars_3.png","194","","","","","stimuli/BM04_FO.jpg","",""
"explore-choice","149","434695","0.0-149.0","p764002","A267AK93EY4TMC","3P888QFVX40Z2B7BK75OWKP045JQOK","3VE8AYVF8O32DESGPCAZCJQB1A08FQ","model","match","uniform","","","","","","","982.5","436856.8000000119","437839.3000000119","[""stimuli/BM04_HE.jpg"",""stimuli/HM09_AO.jpg"",""stimuli/AF10_FO.jpg"",""stimuli/WF06_SC.jpg""]","stimuli/BM04_HE.jpg","stimuli/HM09_AO.jpg","stimuli/AF10_FO.jpg","stimuli/WF06_SC.jpg","pos4","stimuli/WF06_SC.jpg","SC","WF06","3","4","8","6","stimuli/stars_8.png","198","[""HE"",""AO"",""FO"",""SC""]","[""BM04"",""HM09"",""AF10"",""WF06""]","[4,10,3,8]","[2,8,4,6]","","",""
"show-reward","150","436707","0.0-150.0","p764002","A267AK93EY4TMC","3P888QFVX40Z2B7BK75OWKP045JQOK","3VE8AYVF8O32DESGPCAZCJQB1A08FQ","model","match","uniform","","","","","","","","438346.8000000119","440356.5","","","","","","","","","","","","8","","stimuli/stars_8.png","198","","","","","stimuli/WF06_SC.jpg","",""
"explore-choice","151","437861","0.0-151.0","p764002","A267AK93EY4TMC","3P888QFVX40Z2B7BK75OWKP045JQOK","3VE8AYVF8O32DESGPCAZCJQB1A08FQ","model","match","uniform","","","","","","","647.8000000119209","440358.5","441006.3000000119","[""stimuli/HM09_AO.jpg"",""stimuli/BM04_HE.jpg"",""stimuli/WF06_FO.jpg"",""stimuli/AF10_SC.jpg""]","stimuli/HM09_AO.jpg","stimuli/BM04_HE.jpg","stimuli/WF06_FO.jpg","stimuli/AF10_SC.jpg","pos1","stimuli/HM09_AO.jpg","AO","HM09","0","5","10","8","stimuli/stars_10.png","203","[""AO"",""HE"",""FO"",""SC""]","[""HM09"",""BM04"",""WF06"",""AF10""]","[10,3,4,4]","[8,2,6,4]","","",""
"show-reward","152","439880","0.0-152.0","p764002","A267AK93EY4TMC","3P888QFVX40Z2B7BK75OWKP045JQOK","3VE8AYVF8O32DESGPCAZCJQB1A08FQ","model","match","uniform","","","","","","","","441514.1999999881","443529.1999999881","","","","","","","","","","","","10","","stimuli/stars_10.png","203","","","","","stimuli/HM09_AO.jpg","",""
"explore-choice","153","442029","0.0-153.0","p764002","A267AK93EY4TMC","3P888QFVX40Z2B7BK75OWKP045JQOK","3VE8AYVF8O32DESGPCAZCJQB1A08FQ","model","match","uniform","","","","","","","1644.5","443531.1999999881","445175.6999999881","[""stimuli/BM04_HE.jpg"",""stimuli/WF06_AO.jpg"",""stimuli/AF10_SC.jpg"",""stimuli/HM09_FO.jpg""]","stimuli/BM04_HE.jpg","stimuli/WF06_AO.jpg","stimuli/AF10_SC.jpg","stimuli/HM09_FO.jpg","pos1","stimuli/BM04_HE.jpg","HE","BM04","0","2","4","2","stimuli/stars_4.png","205","[""HE"",""AO"",""SC"",""FO""]","[""BM04"",""WF06"",""AF10"",""HM09""]","[4,5,3,7]","[2,6,4,8]","","",""
"show-reward","154","444035","0.0-154.0","p764002","A267AK93EY4TMC","3P888QFVX40Z2B7BK75OWKP045JQOK","3VE8AYVF8O32DESGPCAZCJQB1A08FQ","model","match","uniform","","","","","","","","445680.60000002384","447684.6999999881","","","","","","","","","","","","4","","stimuli/stars_4.png","205","","","","","stimuli/BM04_HE.jpg","",""
"explore-choice","155","446670","0.0-155.0","p764002","A267AK93EY4TMC","3P888QFVX40Z2B7BK75OWKP045JQOK","3VE8AYVF8O32DESGPCAZCJQB1A08FQ","model","match","uniform","","","","","","","2127.399999976158","447686.5","449813.89999997616","[""stimuli/WF06_SC.jpg"",""stimuli/AF10_HE.jpg"",""stimuli/HM09_FO.jpg"",""stimuli/BM04_AO.jpg""]","stimuli/WF06_SC.jpg","stimuli/AF10_HE.jpg","stimuli/HM09_FO.jpg","stimuli/BM04_AO.jpg","pos2","stimuli/AF10_HE.jpg","HE","AF10","1","3","6","4","stimuli/stars_6.png","208","[""SC"",""HE"",""FO"",""AO""]","[""WF06"",""AF10"",""HM09"",""BM04""]","[4,6,9,4]","[6,4,8,2]","","",""
"show-reward","156","448684","0.0-156.0","p764002","A267AK93EY4TMC","3P888QFVX40Z2B7BK75OWKP045JQOK","3VE8AYVF8O32DESGPCAZCJQB1A08FQ","model","match","uniform","","","","","","","","450321.60000002384","452332.60000002384","","","","","","","","","","","","6","","stimuli/stars_6.png","208","","","","","stimuli/AF10_HE.jpg","",""
"explore-choice","157","449616","0.0-157.0","p764002","A267AK93EY4TMC","3P888QFVX40Z2B7BK75OWKP045JQOK","3VE8AYVF8O32DESGPCAZCJQB1A08FQ","model","match","uniform","","","","","","","423.4000000357628","452335.1999999881","452758.60000002384","[""stimuli/HM09_AO.jpg"",""stimuli/WF06_SC.jpg"",""stimuli/AF10_FO.jpg"",""stimuli/BM04_HE.jpg""]","stimuli/HM09_AO.jpg","stimuli/WF06_SC.jpg","stimuli/AF10_FO.jpg","stimuli/BM04_HE.jpg","pos1","stimuli/HM09_AO.jpg","AO","HM09","0","5","10","8","stimuli/stars_10.png","213","[""AO"",""SC"",""FO"",""HE""]","[""HM09"",""WF06"",""AF10"",""BM04""]","[10,8,3,4]","[8,6,4,2]","","",""
"show-reward","158","451631","0.0-158.0","p764002","A267AK93EY4TMC","3P888QFVX40Z2B7BK75OWKP045JQOK","3VE8AYVF8O32DESGPCAZCJQB1A08FQ","model","match","uniform","","","","","","","","453267.5","455279.89999997616","","","","","","","","","","","","10","","stimuli/stars_10.png","213","","","","","stimuli/HM09_AO.jpg","",""
"explore-choice","159","453437","0.0-159.0","p764002","A267AK93EY4TMC","3P888QFVX40Z2B7BK75OWKP045JQOK","3VE8AYVF8O32DESGPCAZCJQB1A08FQ","model","match","uniform","","","","","","","1292.1000000238419","455282.5","456574.60000002384","[""stimuli/HM09_HE.jpg"",""stimuli/BM04_FO.jpg"",""stimuli/AF10_AO.jpg"",""stimuli/WF06_SC.jpg""]","stimuli/HM09_HE.jpg","stimuli/BM04_FO.jpg","stimuli/AF10_AO.jpg","stimuli/WF06_SC.jpg","pos4","stimuli/WF06_SC.jpg","SC","WF06","3","3.5","7","6","stimuli/stars_7.png","216.5","[""HE"",""FO"",""AO"",""SC""]","[""HM09"",""BM04"",""AF10"",""WF06""]","[6,3,3,7]","[8,2,4,6]","","",""
"show-reward","160","455453","0.0-160.0","p764002","A267AK93EY4TMC","3P888QFVX40Z2B7BK75OWKP045JQOK","3VE8AYVF8O32DESGPCAZCJQB1A08FQ","model","match","uniform","","","","","","","","457090","459102.39999997616","","","","","","","","","","","","7","","stimuli/stars_7.png","216.5","","","","","stimuli/WF06_SC.jpg","",""
"explore-choice","161","457646","0.0-161.0","p764002","A267AK93EY4TMC","3P888QFVX40Z2B7BK75OWKP045JQOK","3VE8AYVF8O32DESGPCAZCJQB1A08FQ","model","match","uniform","","","","","","","1685.199999988079","459104.3000000119","460789.5","[""stimuli/AF10_SC.jpg"",""stimuli/HM09_FO.jpg"",""stimuli/WF06_HE.jpg"",""stimuli/BM04_AO.jpg""]","stimuli/AF10_SC.jpg","stimuli/HM09_FO.jpg","stimuli/WF06_HE.jpg","stimuli/BM04_AO.jpg","pos1","stimuli/AF10_SC.jpg","SC","AF10","0","2","4","4","stimuli/stars_4.png","218.5","[""SC"",""FO"",""HE"",""AO""]","[""AF10"",""HM09"",""WF06"",""BM04""]","[4,7,4,3]","[4,8,6,2]","","",""
"show-reward","162","459652","0.0-162.0","p764002","A267AK93EY4TMC","3P888QFVX40Z2B7BK75OWKP045JQOK","3VE8AYVF8O32DESGPCAZCJQB1A08FQ","model","match","uniform","","","","","","","","461297.1999999881","463301.39999997616","","","","","","","","","","","","4","","stimuli/stars_4.png","218.5","","","","","stimuli/AF10_SC.jpg","",""
"explore-choice","163","477792","0.0-163.0","p764002","A267AK93EY4TMC","3P888QFVX40Z2B7BK75OWKP045JQOK","3VE8AYVF8O32DESGPCAZCJQB1A08FQ","model","match","uniform","","","","","","","17623.200000047684","463303.39999997616","480926.60000002384","[""stimuli/AF10_FO.jpg"",""stimuli/WF06_AO.jpg"",""stimuli/HM09_HE.jpg"",""stimuli/BM04_SC.jpg""]","stimuli/AF10_FO.jpg","stimuli/WF06_AO.jpg","stimuli/HM09_HE.jpg","stimuli/BM04_SC.jpg","pos4","stimuli/BM04_SC.jpg","SC","BM04","3","0.5","1","2","stimuli/stars_1.png","219","[""FO"",""AO"",""HE"",""SC""]","[""AF10"",""WF06"",""HM09"",""BM04""]","[2,6,8,1]","[4,6,8,2]","","",""
"show-reward","164","479799","0.0-164.0","p764002","A267AK93EY4TMC","3P888QFVX40Z2B7BK75OWKP045JQOK","3VE8AYVF8O32DESGPCAZCJQB1A08FQ","model","match","uniform","","","","","","","","481443.3000000119","483448","","","","","","","","","","","","1","","stimuli/stars_1.png","219","","","","","stimuli/BM04_SC.jpg","",""
"explore-choice","165","483492","0.0-165.0","p764002","A267AK93EY4TMC","3P888QFVX40Z2B7BK75OWKP045JQOK","3VE8AYVF8O32DESGPCAZCJQB1A08FQ","model","match","uniform","","","","","","","3180","483450.5","486630.5","[""stimuli/BM04_SC.jpg"",""stimuli/WF06_HE.jpg"",""stimuli/HM09_AO.jpg"",""stimuli/AF10_FO.jpg""]","stimuli/BM04_SC.jpg","stimuli/WF06_HE.jpg","stimuli/HM09_AO.jpg","stimuli/AF10_FO.jpg","pos2","stimuli/WF06_HE.jpg","HE","WF06","1","2.5","5","6","stimuli/stars_5.png","221.5","[""SC"",""HE"",""AO"",""FO""]","[""BM04"",""WF06"",""HM09"",""AF10""]","[4,5,10,4]","[2,6,8,4]","","",""
"show-reward","166","485516","0.0-166.0","p764002","A267AK93EY4TMC","3P888QFVX40Z2B7BK75OWKP045JQOK","3VE8AYVF8O32DESGPCAZCJQB1A08FQ","model","match","uniform","","","","","","","","487144.60000002384","489165.5","","","","","","","","","","","","5","","stimuli/stars_5.png","221.5","","","","","stimuli/WF06_HE.jpg","",""
"explore-choice","167","486712","0.0-167.0","p764002","A267AK93EY4TMC","3P888QFVX40Z2B7BK75OWKP045JQOK","3VE8AYVF8O32DESGPCAZCJQB1A08FQ","model","match","uniform","","","","","","","685.8000000119209","489167.89999997616","489853.6999999881","[""stimuli/BM04_SC.jpg"",""stimuli/WF06_FO.jpg"",""stimuli/HM09_HE.jpg"",""stimuli/AF10_AO.jpg""]","stimuli/BM04_SC.jpg","stimuli/WF06_FO.jpg","stimuli/HM09_HE.jpg","stimuli/AF10_AO.jpg","pos3","stimuli/HM09_HE.jpg","HE","HM09","2","4","8","8","stimuli/stars_8.png","225.5","[""SC"",""FO"",""HE"",""AO""]","[""BM04"",""WF06"",""HM09"",""AF10""]","[1,6,8,4]","[2,6,8,4]","","",""
"show-reward","168","488722","0.0-168.0","p764002","A267AK93EY4TMC","3P888QFVX40Z2B7BK75OWKP045JQOK","3VE8AYVF8O32DESGPCAZCJQB1A08FQ","model","match","uniform","","","","","","","","490364.1999999881","492371","","","","","","","","","","","","8","","stimuli/stars_8.png","225.5","","","","","stimuli/HM09_HE.jpg","",""
"explore-choice","169","491358","0.0-169.0","p764002","A267AK93EY4TMC","3P888QFVX40Z2B7BK75OWKP045JQOK","3VE8AYVF8O32DESGPCAZCJQB1A08FQ","model","match","uniform","","","","","","","2123.2000000476837","492374.89999997616","494498.10000002384","[""stimuli/BM04_FO.jpg"",""stimuli/WF06_AO.jpg"",""stimuli/AF10_HE.jpg"",""stimuli/HM09_SC.jpg""]","stimuli/BM04_FO.jpg","stimuli/WF06_AO.jpg","stimuli/AF10_HE.jpg","stimuli/HM09_SC.jpg","pos4","stimuli/HM09_SC.jpg","SC","HM09","3","4.5","9","8","stimuli/stars_9.png","230","[""FO"",""AO"",""HE"",""SC""]","[""BM04"",""WF06"",""AF10"",""HM09""]","[0,7,4,9]","[2,6,4,8]","","",""
"show-reward","170","493373","0.0-170.0","p764002","A267AK93EY4TMC","3P888QFVX40Z2B7BK75OWKP045JQOK","3VE8AYVF8O32DESGPCAZCJQB1A08FQ","model","match","uniform","","","","","","","","495011.1999999881","497020.5","","","","","","","","","","","","9","","stimuli/stars_9.png","230","","","","","stimuli/HM09_SC.jpg","",""
"explore-choice","171","495865","0.0-171.0","p764002","A267AK93EY4TMC","3P888QFVX40Z2B7BK75OWKP045JQOK","3VE8AYVF8O32DESGPCAZCJQB1A08FQ","model","match","uniform","","","","","","","1981.2000000476837","497024.89999997616","499006.10000002384","[""stimuli/WF06_SC.jpg"",""stimuli/AF10_HE.jpg"",""stimuli/HM09_AO.jpg"",""stimuli/BM04_FO.jpg""]","stimuli/WF06_SC.jpg","stimuli/AF10_HE.jpg","stimuli/HM09_AO.jpg","stimuli/BM04_FO.jpg","pos3","stimuli/HM09_AO.jpg","AO","HM09","2","3.5","7","8","stimuli/stars_7.png","233.5","[""SC"",""HE"",""AO"",""FO""]","[""WF06"",""AF10"",""HM09"",""BM04""]","[7,5,7,3]","[6,4,8,2]","","",""
"show-reward","172","497882","0.0-172.0","p764002","A267AK93EY4TMC","3P888QFVX40Z2B7BK75OWKP045JQOK","3VE8AYVF8O32DESGPCAZCJQB1A08FQ","model","match","uniform","","","","","","","","499516.6999999881","501529.89999997616","","","","","","","","","","","","7","","stimuli/stars_7.png","233.5","","","","","stimuli/HM09_AO.jpg","",""
"explore-choice","173","499659","0.0-173.0","p764002","A267AK93EY4TMC","3P888QFVX40Z2B7BK75OWKP045JQOK","3VE8AYVF8O32DESGPCAZCJQB1A08FQ","model","match","uniform","","","","","","","1273","501532.8000000119","502805.8000000119","[""stimuli/AF10_HE.jpg"",""stimuli/WF06_AO.jpg"",""stimuli/HM09_FO.jpg"",""stimuli/BM04_SC.jpg""]","stimuli/AF10_HE.jpg","stimuli/WF06_AO.jpg","stimuli/HM09_FO.jpg","stimuli/BM04_SC.jpg","pos4","stimuli/BM04_SC.jpg","SC","BM04","3","1.5","3","2","stimuli/stars_3.png","235","[""HE"",""AO"",""FO"",""SC""]","[""AF10"",""WF06"",""HM09"",""BM04""]","[2,7,7,3]","[4,6,8,2]","","",""
"show-reward","174","501670","0.0-174.0","p764002","A267AK93EY4TMC","3P888QFVX40Z2B7BK75OWKP045JQOK","3VE8AYVF8O32DESGPCAZCJQB1A08FQ","model","match","uniform","","","","","","","","503311.10000002384","505318.8000000119","","","","","","","","","","","","3","","stimuli/stars_3.png","235","","","","","stimuli/BM04_SC.jpg","",""
"explore-choice","175","503292","0.0-175.0","p764002","A267AK93EY4TMC","3P888QFVX40Z2B7BK75OWKP045JQOK","3VE8AYVF8O32DESGPCAZCJQB1A08FQ","model","match","uniform","","","","","","","1117.199999988079","505320.5","506437.6999999881","[""stimuli/HM09_SC.jpg"",""stimuli/AF10_AO.jpg"",""stimuli/WF06_HE.jpg"",""stimuli/BM04_FO.jpg""]","stimuli/HM09_SC.jpg","stimuli/AF10_AO.jpg","stimuli/WF06_HE.jpg","stimuli/BM04_FO.jpg","pos3","stimuli/WF06_HE.jpg","HE","WF06","2","3","6","6","stimuli/stars_6.png","238","[""SC"",""AO"",""HE"",""FO""]","[""HM09"",""AF10"",""WF06"",""BM04""]","[10,5,6,0]","[8,4,6,2]","","",""
"show-reward","176","505310","0.0-176.0","p764002","A267AK93EY4TMC","3P888QFVX40Z2B7BK75OWKP045JQOK","3VE8AYVF8O32DESGPCAZCJQB1A08FQ","model","match","uniform","","","","","","","","506944.60000002384","508957.6999999881","","","","","","","","","","","","6","","stimuli/stars_6.png","238","","","","","stimuli/WF06_HE.jpg","",""
"explore-choice","177","506683","0.0-177.0","p764002","A267AK93EY4TMC","3P888QFVX40Z2B7BK75OWKP045JQOK","3VE8AYVF8O32DESGPCAZCJQB1A08FQ","model","match","uniform","","","","","","","857.7000000476837","508963.39999997616","509821.10000002384","[""stimuli/HM09_HE.jpg"",""stimuli/BM04_AO.jpg"",""stimuli/WF06_FO.jpg"",""stimuli/AF10_SC.jpg""]","stimuli/HM09_HE.jpg","stimuli/BM04_AO.jpg","stimuli/WF06_FO.jpg","stimuli/AF10_SC.jpg","pos2","stimuli/BM04_AO.jpg","AO","BM04","1","0.5","1","2","stimuli/stars_1.png","238.5","[""HE"",""AO"",""FO"",""SC""]","[""HM09"",""BM04"",""WF06"",""AF10""]","[6,1,4,3]","[8,2,6,4]","","",""
"show-reward","178","508702","0.0-178.0","p764002","A267AK93EY4TMC","3P888QFVX40Z2B7BK75OWKP045JQOK","3VE8AYVF8O32DESGPCAZCJQB1A08FQ","model","match","uniform","","","","","","","","510335.1999999881","512350.3000000119","","","","","","","","","","","","1","","stimuli/stars_1.png","238.5","","","","","stimuli/BM04_AO.jpg","",""
"explore-choice","179","509705","0.0-179.0","p764002","A267AK93EY4TMC","3P888QFVX40Z2B7BK75OWKP045JQOK","3VE8AYVF8O32DESGPCAZCJQB1A08FQ","model","match","uniform","","","","","","","491.10000002384186","512355.1999999881","512846.3000000119","[""stimuli/HM09_HE.jpg"",""stimuli/WF06_AO.jpg"",""stimuli/BM04_FO.jpg"",""stimuli/AF10_SC.jpg""]","stimuli/HM09_HE.jpg","stimuli/WF06_AO.jpg","stimuli/BM04_FO.jpg","stimuli/AF10_SC.jpg","pos1","stimuli/HM09_HE.jpg","HE","HM09","0","5","10","8","stimuli/stars_10.png","243.5","[""HE"",""AO"",""FO"",""SC""]","[""HM09"",""WF06"",""BM04"",""AF10""]","[10,6,3,5]","[8,6,2,4]","","",""
"show-reward","180","511716","0.0-180.0","p764002","A267AK93EY4TMC","3P888QFVX40Z2B7BK75OWKP045JQOK","3VE8AYVF8O32DESGPCAZCJQB1A08FQ","model","match","uniform","","","","","","","","513357.60000002384","515364.8000000119","","","","","","","","","","","","10","","stimuli/stars_10.png","243.5","","","","","stimuli/HM09_HE.jpg","",""
"explore-choice","181","513999","0.0-181.0","p764002","A267AK93EY4TMC","3P888QFVX40Z2B7BK75OWKP045JQOK","3VE8AYVF8O32DESGPCAZCJQB1A08FQ","model","match","uniform","","","","","","","1774.699999988079","515368.6999999881","517143.39999997616","[""stimuli/BM04_HE.jpg"",""stimuli/WF06_SC.jpg"",""stimuli/HM09_FO.jpg"",""stimuli/AF10_AO.jpg""]","stimuli/BM04_HE.jpg","stimuli/WF06_SC.jpg","stimuli/HM09_FO.jpg","stimuli/AF10_AO.jpg","pos3","stimuli/HM09_FO.jpg","FO","HM09","2","5","10","8","stimuli/stars_10.png","248.5","[""HE"",""SC"",""FO"",""AO""]","[""BM04"",""WF06"",""HM09"",""AF10""]","[4,6,10,3]","[2,6,8,4]","","",""
"show-reward","182","516005","0.0-182.0","p764002","A267AK93EY4TMC","3P888QFVX40Z2B7BK75OWKP045JQOK","3VE8AYVF8O32DESGPCAZCJQB1A08FQ","model","match","uniform","","","","","","","","517650.1999999881","519654","","","","","","","","","","","","10","","stimuli/stars_10.png","248.5","","","","","stimuli/HM09_FO.jpg","",""
"explore-choice","183","517519","0.0-183.0","p764002","A267AK93EY4TMC","3P888QFVX40Z2B7BK75OWKP045JQOK","3VE8AYVF8O32DESGPCAZCJQB1A08FQ","model","match","uniform","","","","","","","1005.8999999761581","519656.5","520662.39999997616","[""stimuli/HM09_AO.jpg"",""stimuli/AF10_HE.jpg"",""stimuli/BM04_SC.jpg"",""stimuli/WF06_FO.jpg""]","stimuli/HM09_AO.jpg","stimuli/AF10_HE.jpg","stimuli/BM04_SC.jpg","stimuli/WF06_FO.jpg","pos1","stimuli/HM09_AO.jpg","AO","HM09","0","4","8","8","stimuli/stars_8.png","252.5","[""AO"",""HE"",""SC"",""FO""]","[""HM09"",""AF10"",""BM04"",""WF06""]","[8,4,0,4]","[8,4,2,6]","","",""
"show-reward","184","519532","0.0-184.0","p764002","A267AK93EY4TMC","3P888QFVX40Z2B7BK75OWKP045JQOK","3VE8AYVF8O32DESGPCAZCJQB1A08FQ","model","match","uniform","","","","","","","","521171.5","523179.6999999881","","","","","","","","","","","","8","","stimuli/stars_8.png","252.5","","","","","stimuli/HM09_AO.jpg","",""
"explore-choice","185","521525","0.0-185.0","p764002","A267AK93EY4TMC","3P888QFVX40Z2B7BK75OWKP045JQOK","3VE8AYVF8O32DESGPCAZCJQB1A08FQ","model","match","uniform","","","","","","","1487.800000011921","523183.89999997616","524671.6999999881","[""stimuli/AF10_SC.jpg"",""stimuli/BM04_FO.jpg"",""stimuli/HM09_AO.jpg"",""stimuli/WF06_HE.jpg""]","stimuli/AF10_SC.jpg","stimuli/BM04_FO.jpg","stimuli/HM09_AO.jpg","stimuli/WF06_HE.jpg","pos3","stimuli/HM09_AO.jpg","AO","HM09","2","5","10","8","stimuli/stars_10.png","257.5","[""SC"",""FO"",""AO"",""HE""]","[""AF10"",""BM04"",""HM09"",""WF06""]","[2,4,10,4]","[4,2,8,6]","","",""
"show-reward","186","523536","0.0-186.0","p764002","A267AK93EY4TMC","3P888QFVX40Z2B7BK75OWKP045JQOK","3VE8AYVF8O32DESGPCAZCJQB1A08FQ","model","match","uniform","","","","","","","","525177.3000000119","527185.3999999762","","","","","","","","","","","","10","","stimuli/stars_10.png","257.5","","","","","stimuli/HM09_AO.jpg","",""
"explore-choice","187","524840","0.0-187.0","p764002","A267AK93EY4TMC","3P888QFVX40Z2B7BK75OWKP045JQOK","3VE8AYVF8O32DESGPCAZCJQB1A08FQ","model","match","uniform","","","","","","","795.5","527187.3999999762","527982.8999999762","[""stimuli/WF06_AO.jpg"",""stimuli/HM09_SC.jpg"",""stimuli/AF10_FO.jpg"",""stimuli/BM04_HE.jpg""]","stimuli/WF06_AO.jpg","stimuli/HM09_SC.jpg","stimuli/AF10_FO.jpg","stimuli/BM04_HE.jpg","pos2","stimuli/HM09_SC.jpg","SC","HM09","1","3.5","7","8","stimuli/stars_7.png","261","[""AO"",""SC"",""FO"",""HE""]","[""WF06"",""HM09"",""AF10"",""BM04""]","[7,7,2,0]","[6,8,4,2]","","",""
"show-reward","188","526845","0.0-188.0","p764002","A267AK93EY4TMC","3P888QFVX40Z2B7BK75OWKP045JQOK","3VE8AYVF8O32DESGPCAZCJQB1A08FQ","model","match","uniform","","","","","","","","528491.3000000119","530493.8000000119","","","","","","","","","","","","7","","stimuli/stars_7.png","261","","","","","stimuli/HM09_SC.jpg","",""
"explore-choice","189","528259","0.0-189.0","p764002","A267AK93EY4TMC","3P888QFVX40Z2B7BK75OWKP045JQOK","3VE8AYVF8O32DESGPCAZCJQB1A08FQ","model","match","uniform","","","","","","","904","530495.5","531399.5","[""stimuli/HM09_FO.jpg"",""stimuli/AF10_AO.jpg"",""stimuli/BM04_SC.jpg"",""stimuli/WF06_HE.jpg""]","stimuli/HM09_FO.jpg","stimuli/AF10_AO.jpg","stimuli/BM04_SC.jpg","stimuli/WF06_HE.jpg","pos1","stimuli/HM09_FO.jpg","FO","HM09","0","3.5","7","8","stimuli/stars_7.png","264.5","[""FO"",""AO"",""SC"",""HE""]","[""HM09"",""AF10"",""BM04"",""WF06""]","[7,3,4,7]","[8,4,2,6]","","",""
"show-reward","190","530264","0.0-190.0","p764002","A267AK93EY4TMC","3P888QFVX40Z2B7BK75OWKP045JQOK","3VE8AYVF8O32DESGPCAZCJQB1A08FQ","model","match","uniform","","","","","","","","531909.8000000119","533913.3000000119","","","","","","","","","","","","7","","stimuli/stars_7.png","264.5","","","","","stimuli/HM09_FO.jpg","",""
"explore-choice","191","531513","0.0-191.0","p764002","A267AK93EY4TMC","3P888QFVX40Z2B7BK75OWKP045JQOK","3VE8AYVF8O32DESGPCAZCJQB1A08FQ","model","match","uniform","","","","","","","740.3999999761581","533914.8000000119","534655.1999999881","[""stimuli/BM04_AO.jpg"",""stimuli/WF06_FO.jpg"",""stimuli/HM09_SC.jpg"",""stimuli/AF10_HE.jpg""]","stimuli/BM04_AO.jpg","stimuli/WF06_FO.jpg","stimuli/HM09_SC.jpg","stimuli/AF10_HE.jpg","pos3","stimuli/HM09_SC.jpg","SC","HM09","2","4","8","8","stimuli/stars_8.png","268.5","[""AO"",""FO"",""SC"",""HE""]","[""BM04"",""WF06"",""HM09"",""AF10""]","[3,4,8,2]","[2,6,8,4]","","",""
"show-reward","192","533527","0.0-192.0","p764002","A267AK93EY4TMC","3P888QFVX40Z2B7BK75OWKP045JQOK","3VE8AYVF8O32DESGPCAZCJQB1A08FQ","model","match","uniform","","","","","","","","535163.8999999762","537175.5","","","","","","","","","","","","8","","stimuli/stars_8.png","268.5","","","","","stimuli/HM09_SC.jpg","",""
"explore-choice","193","535152","0.0-193.0","p764002","A267AK93EY4TMC","3P888QFVX40Z2B7BK75OWKP045JQOK","3VE8AYVF8O32DESGPCAZCJQB1A08FQ","model","match","uniform","","","","","","","1115.5","537178.3000000119","538293.8000000119","[""stimuli/BM04_AO.jpg"",""stimuli/AF10_FO.jpg"",""stimuli/HM09_SC.jpg"",""stimuli/WF06_HE.jpg""]","stimuli/BM04_AO.jpg","stimuli/AF10_FO.jpg","stimuli/HM09_SC.jpg","stimuli/WF06_HE.jpg","pos4","stimuli/WF06_HE.jpg","HE","WF06","3","4","8","6","stimuli/stars_8.png","272.5","[""AO"",""FO"",""SC"",""HE""]","[""BM04"",""AF10"",""HM09"",""WF06""]","[2,4,6,8]","[2,4,8,6]","","",""
"show-reward","194","537163","0.0-194.0","p764002","A267AK93EY4TMC","3P888QFVX40Z2B7BK75OWKP045JQOK","3VE8AYVF8O32DESGPCAZCJQB1A08FQ","model","match","uniform","","","","","","","","538802.8000000119","540811.6999999881","","","","","","","","","","","","8","","stimuli/stars_8.png","272.5","","","","","stimuli/WF06_HE.jpg","",""
"explore-choice","195","538865","0.0-195.0","p764002","A267AK93EY4TMC","3P888QFVX40Z2B7BK75OWKP045JQOK","3VE8AYVF8O32DESGPCAZCJQB1A08FQ","model","match","uniform","","","","","","","1191.9000000357628","540814.1999999881","542006.1000000238","[""stimuli/HM09_HE.jpg"",""stimuli/WF06_SC.jpg"",""stimuli/BM04_AO.jpg"",""stimuli/AF10_FO.jpg""]","stimuli/HM09_HE.jpg","stimuli/WF06_SC.jpg","stimuli/BM04_AO.jpg","stimuli/AF10_FO.jpg","pos2","stimuli/WF06_SC.jpg","SC","WF06","1","2.5","5","6","stimuli/stars_5.png","275","[""HE"",""SC"",""AO"",""FO""]","[""HM09"",""WF06"",""BM04"",""AF10""]","[7,5,0,5]","[8,6,2,4]","","",""
"show-reward","196","540876","0.0-196.0","p764002","A267AK93EY4TMC","3P888QFVX40Z2B7BK75OWKP045JQOK","3VE8AYVF8O32DESGPCAZCJQB1A08FQ","model","match","uniform","","","","","","","","542517.5","544525.8000000119","","","","","","","","","","","","5","","stimuli/stars_5.png","275","","","","","stimuli/WF06_SC.jpg","",""
"explore-choice","197","542764","0.0-197.0","p764002","A267AK93EY4TMC","3P888QFVX40Z2B7BK75OWKP045JQOK","3VE8AYVF8O32DESGPCAZCJQB1A08FQ","model","match","uniform","","","","","","","1375.5","544527.6999999881","545903.1999999881","[""stimuli/AF10_AO.jpg"",""stimuli/HM09_SC.jpg"",""stimuli/BM04_HE.jpg"",""stimuli/WF06_FO.jpg""]","stimuli/AF10_AO.jpg","stimuli/HM09_SC.jpg","stimuli/BM04_HE.jpg","stimuli/WF06_FO.jpg","pos3","stimuli/BM04_HE.jpg","HE","BM04","2","0.5","1","2","stimuli/stars_1.png","275.5","[""AO"",""SC"",""HE"",""FO""]","[""AF10"",""HM09"",""BM04"",""WF06""]","[6,9,1,5]","[4,8,2,6]","","",""
"show-reward","198","544775","0.0-198.0","p764002","A267AK93EY4TMC","3P888QFVX40Z2B7BK75OWKP045JQOK","3VE8AYVF8O32DESGPCAZCJQB1A08FQ","model","match","uniform","","","","","","","","546417","548424.1000000238","","","","","","","","","","","","1","","stimuli/stars_1.png","275.5","","","","","stimuli/BM04_HE.jpg","",""
"instructions","199","550756","0.0-199.0","p764002","A267AK93EY4TMC","3P888QFVX40Z2B7BK75OWKP045JQOK","3VE8AYVF8O32DESGPCAZCJQB1A08FQ","model","match","uniform","","","","","","[{""page_index"":0,""viewing_time"":5978}]","5978.699999988079","","","","","","","","","","","","","","","","","","","","","","","",""
"survey-text","200","553582","0.0-200.0-0.0","p764002","A267AK93EY4TMC","3P888QFVX40Z2B7BK75OWKP045JQOK","3VE8AYVF8O32DESGPCAZCJQB1A08FQ","model","match","uniform","","","","","","","2747","","","","","","","","","","","","","","","","","","","","","","","{""age"":""32""}",""
"survey-text","201","562741","0.0-200.0-1.0","p764002","A267AK93EY4TMC","3P888QFVX40Z2B7BK75OWKP045JQOK","3VE8AYVF8O32DESGPCAZCJQB1A08FQ","model","match","uniform","","","","","","","9153.100000023842","","","","","","","","","","","","","","","","","","","","","","","{""gender"":""Male""}",""
"survey-text","202","567565","0.0-200.0-2.0","p764002","A267AK93EY4TMC","3P888QFVX40Z2B7BK75OWKP045JQOK","3VE8AYVF8O32DESGPCAZCJQB1A08FQ","model","match","uniform","","","","","","","4819.199999988079","","","","","","","","","","","","","","","","","","","","","","","{""country"":""New York""}",""
"survey-text","203","573512","0.0-200.0-3.0","p764002","A267AK93EY4TMC","3P888QFVX40Z2B7BK75OWKP045JQOK","3VE8AYVF8O32DESGPCAZCJQB1A08FQ","model","match","uniform","","","","","","","5934.900000035763","","","","","","","","","","","","","","","","","","","","","","","{""language"":""English"",""other_languages"":""English""}",""
"survey-multi-select","204","575823","0.0-201.0","p764002","A267AK93EY4TMC","3P888QFVX40Z2B7BK75OWKP045JQOK","3VE8AYVF8O32DESGPCAZCJQB1A08FQ","model","match","uniform","","","","","","","2298.900000035763","","","","","","","","","","","","","","","","","","","","","","","{""race"":[""Black or African American""]}","[0]"
"survey-multi-choice","205","578663","0.0-202.0","p764002","A267AK93EY4TMC","3P888QFVX40Z2B7BK75OWKP045JQOK","3VE8AYVF8O32DESGPCAZCJQB1A08FQ","model","match","uniform","","","","","","","2834.800000011921","","","","","","","","","","","","","","","","","","","","","","","{""education"":""Master's degree""}","[0]"
"survey-text","206","624378","0.0-203.0","p764002","A267AK93EY4TMC","3P888QFVX40Z2B7BK75OWKP045JQOK","3VE8AYVF8O32DESGPCAZCJQB1A08FQ","model","match","uniform","","","","","","","45641.30000001192","","","","","","","","","","","","","","","","","","","","","","","{""patterns"":""Yeah. The reaction of the people how they react that."",""strategy"":""Same picture will select to give more starts."",""comments"":""""}",""
