"trial_type","trial_index","time_elapsed","internal_node_id","subject","workerId","hitId","assignmentId","structure_condition","match_condition","noise_type","success","timeout","failed_images","failed_audio","failed_video","view_history","rt","start_time","end_time","stimuli","image1","image2","image3","image4","choiceLocation","choiceImage","choiceEmotion","choiceModel","choice_index","reward_score","reward","reward_score_unadjusted","reward_image","score_after_trial","emotions","models","rewards","rewards_unadjusted","stimulus","response","question_order"
"pavlovia","0","52","0.0-0.0","p219921","APVJEN2541WFB","3FVBZG9CLKK1M1GPZWGJX51HFG80HB","31HQ4X3T3UG6WQHLPLJ2ONVWA0SSLE","emotion","mismatch","uniform","","","","","","","","","","","","","","","","","","","","","","","","","","","","","","",""
"preload","1","20679","0.0-1.0","p219921","APVJEN2541WFB","3FVBZG9CLKK1M1GPZWGJX51HFG80HB","31HQ4X3T3UG6WQHLPLJ2ONVWA0SSLE","emotion","mismatch","uniform","true","false","[]","[]","[]","","","","","","","","","","","","","","","","","","","","","","","","","",""
"fullscreen","2","23178","0.0-2.0","p219921","APVJEN2541WFB","3FVBZG9CLKK1M1GPZWGJX51HFG80HB","31HQ4X3T3UG6WQHLPLJ2ONVWA0SSLE","emotion","mismatch","uniform","true","","","","","","","","","","","","","","","","","","","","","","","","","","","","","",""
"instructions","3","29715","0.0-3.0","p219921","APVJEN2541WFB","3FVBZG9CLKK1M1GPZWGJX51HFG80HB","31HQ4X3T3UG6WQHLPLJ2ONVWA0SSLE","emotion","mismatch","uniform","","","","","","[{""page_index"":0,""viewing_time"":6531.600000023842}]","6533.200000047684","","","","","","","","","","","","","","","","","","","","","","","",""
"explore-choice","4","33098","0.0-4.0","p219921","APVJEN2541WFB","3FVBZG9CLKK1M1GPZWGJX51HFG80HB","31HQ4X3T3UG6WQHLPLJ2ONVWA0SSLE","emotion","mismatch","uniform","","","","","","","2870.899999976158","33483","36353.89999997616","[""stimuli/sheep.jpg"",""stimuli/hammer.jpg"",""stimuli/basketball.jpg"",""stimuli/horse.jpg""]","stimuli/sheep.jpg","stimuli/hammer.jpg","stimuli/basketball.jpg","stimuli/horse.jpg","pos4","stimuli/horse.jpg","","","3","64","64","64","stimuli/stars_8.png","65","","","","","","",""
"explore-choice","5","35117","0.0-5.0","p219921","APVJEN2541WFB","3FVBZG9CLKK1M1GPZWGJX51HFG80HB","31HQ4X3T3UG6WQHLPLJ2ONVWA0SSLE","emotion","mismatch","uniform","","","","","","","1510.8999999761581","36867.10000002384","38378","[""stimuli/hammer.jpg"",""stimuli/basketball.jpg"",""stimuli/horse.jpg"",""stimuli/sheep.jpg""]","stimuli/hammer.jpg","stimuli/basketball.jpg","stimuli/horse.jpg","stimuli/sheep.jpg","pos1","stimuli/hammer.jpg","","","0","8","8","8","stimuli/stars_2.png","9","","","","","","",""
"instructions","6","52559","0.0-6.0","p219921","APVJEN2541WFB","3FVBZG9CLKK1M1GPZWGJX51HFG80HB","31HQ4X3T3UG6WQHLPLJ2ONVWA0SSLE","emotion","mismatch","uniform","","","","","","[{""page_index"":0,""viewing_time"":17438.600000023842}]","17439.100000023842","","","","","","","","","","","","","","","","","","","","","","","",""
"explore-choice","7","57018","0.0-7.0","p219921","APVJEN2541WFB","3FVBZG9CLKK1M1GPZWGJX51HFG80HB","31HQ4X3T3UG6WQHLPLJ2ONVWA0SSLE","emotion","mismatch","uniform","","","","","","","3948.1999999284744","56329.60000002384","60277.799999952316","[""stimuli/BM16_SUR.jpg"",""stimuli/BF05_HE.jpg"",""stimuli/BF06_SC.jpg"",""stimuli/AM09_HO.jpg""]","stimuli/BM16_SUR.jpg","stimuli/BF05_HE.jpg","stimuli/BF06_SC.jpg","stimuli/AM09_HO.jpg","pos2","stimuli/BF05_HE.jpg","HE","BF05","1","2.5","5","4","stimuli/stars_5.png","3.5","[""SUR"",""HE"",""SC"",""HO""]","[""BM16"",""BF05"",""BF06"",""AM09""]","[5,5,1,9]","[6,4,2,8]","","",""
"show-reward","8","59052","0.0-8.0","p219921","APVJEN2541WFB","3FVBZG9CLKK1M1GPZWGJX51HFG80HB","31HQ4X3T3UG6WQHLPLJ2ONVWA0SSLE","emotion","mismatch","uniform","","","","","","","","60793.39999997616","62817.299999952316","","","","","","","","","","","","5","","stimuli/stars_5.png","3.5","","","","","stimuli/BF05_HE.jpg","",""
"explore-choice","9","61168","0.0-9.0","p219921","APVJEN2541WFB","3FVBZG9CLKK1M1GPZWGJX51HFG80HB","31HQ4X3T3UG6WQHLPLJ2ONVWA0SSLE","emotion","mismatch","uniform","","","","","","","1607.6000000238419","62820.199999928474","64427.799999952316","[""stimuli/AM09_HE.jpg"",""stimuli/BF05_HO.jpg"",""stimuli/BM16_SC.jpg"",""stimuli/BF06_SUR.jpg""]","stimuli/AM09_HE.jpg","stimuli/BF05_HO.jpg","stimuli/BM16_SC.jpg","stimuli/BF06_SUR.jpg","pos2","stimuli/BF05_HO.jpg","HO","BF05","1","5","10","8","stimuli/stars_10.png","8.5","[""HE"",""HO"",""SC"",""SUR""]","[""AM09"",""BF05"",""BM16"",""BF06""]","[6,10,2,7]","[4,8,2,6]","","",""
"show-reward","10","63191","0.0-10.0","p219921","APVJEN2541WFB","3FVBZG9CLKK1M1GPZWGJX51HFG80HB","31HQ4X3T3UG6WQHLPLJ2ONVWA0SSLE","emotion","mismatch","uniform","","","","","","","","64936.699999928474","66955.29999995232","","","","","","","","","","","","10","","stimuli/stars_10.png","8.5","","","","","stimuli/BF05_HO.jpg","",""
"explore-choice","11","68004","0.0-11.0","p219921","APVJEN2541WFB","3FVBZG9CLKK1M1GPZWGJX51HFG80HB","31HQ4X3T3UG6WQHLPLJ2ONVWA0SSLE","emotion","mismatch","uniform","","","","","","","4293.699999928474","66959","71252.69999992847","[""stimuli/AM09_SUR.jpg"",""stimuli/BF06_HE.jpg"",""stimuli/BM16_HO.jpg"",""stimuli/BF05_SC.jpg""]","stimuli/AM09_SUR.jpg","stimuli/BF06_HE.jpg","stimuli/BM16_HO.jpg","stimuli/BF05_SC.jpg","pos2","stimuli/BF06_HE.jpg","HE","BF06","1","3","6","4","stimuli/stars_6.png","11.5","[""SUR"",""HE"",""HO"",""SC""]","[""AM09"",""BF06"",""BM16"",""BF05""]","[6,6,9,4]","[6,4,8,2]","","",""
"show-reward","12","70041","0.0-12.0","p219921","APVJEN2541WFB","3FVBZG9CLKK1M1GPZWGJX51HFG80HB","31HQ4X3T3UG6WQHLPLJ2ONVWA0SSLE","emotion","mismatch","uniform","","","","","","","","71775.10000002384","73805","","","","","","","","","","","","6","","stimuli/stars_6.png","11.5","","","","","stimuli/BF06_HE.jpg","",""
"explore-choice","13","72225","0.0-13.0","p219921","APVJEN2541WFB","3FVBZG9CLKK1M1GPZWGJX51HFG80HB","31HQ4X3T3UG6WQHLPLJ2ONVWA0SSLE","emotion","mismatch","uniform","","","","","","","1667.1000000238419","73810.39999997616","75477.5","[""stimuli/BF05_HE.jpg"",""stimuli/BF06_SC.jpg"",""stimuli/AM09_SUR.jpg"",""stimuli/BM16_HO.jpg""]","stimuli/BF05_HE.jpg","stimuli/BF06_SC.jpg","stimuli/AM09_SUR.jpg","stimuli/BM16_HO.jpg","pos1","stimuli/BF05_HE.jpg","HE","BF05","0","2","4","4","stimuli/stars_4.png","13.5","[""HE"",""SC"",""SUR"",""HO""]","[""BF05"",""BF06"",""AM09"",""BM16""]","[4,4,8,9]","[4,2,6,8]","","",""
"show-reward","14","74247","0.0-14.0","p219921","APVJEN2541WFB","3FVBZG9CLKK1M1GPZWGJX51HFG80HB","31HQ4X3T3UG6WQHLPLJ2ONVWA0SSLE","emotion","mismatch","uniform","","","","","","","","75993.39999997616","78011.19999992847","","","","","","","","","","","","4","","stimuli/stars_4.png","13.5","","","","","stimuli/BF05_HE.jpg","",""
"explore-choice","15","77626","0.0-15.0","p219921","APVJEN2541WFB","3FVBZG9CLKK1M1GPZWGJX51HFG80HB","31HQ4X3T3UG6WQHLPLJ2ONVWA0SSLE","emotion","mismatch","uniform","","","","","","","2875.8000000715256","78014.69999992847","80890.5","[""stimuli/AM09_SUR.jpg"",""stimuli/BF05_HO.jpg"",""stimuli/BM16_SC.jpg"",""stimuli/BF06_HE.jpg""]","stimuli/AM09_SUR.jpg","stimuli/BF05_HO.jpg","stimuli/BM16_SC.jpg","stimuli/BF06_HE.jpg","pos2","stimuli/BF05_HO.jpg","HO","BF05","1","3","6","8","stimuli/stars_6.png","16.5","[""SUR"",""HO"",""SC"",""HE""]","[""AM09"",""BF05"",""BM16"",""BF06""]","[7,6,4,4]","[6,8,2,4]","","",""
"show-reward","16","79659","0.0-16.0","p219921","APVJEN2541WFB","3FVBZG9CLKK1M1GPZWGJX51HFG80HB","31HQ4X3T3UG6WQHLPLJ2ONVWA0SSLE","emotion","mismatch","uniform","","","","","","","","81394.29999995232","83421.79999995232","","","","","","","","","","","","6","","stimuli/stars_6.png","16.5","","","","","stimuli/BF05_HO.jpg","",""
"explore-choice","17","82343","0.0-17.0","p219921","APVJEN2541WFB","3FVBZG9CLKK1M1GPZWGJX51HFG80HB","31HQ4X3T3UG6WQHLPLJ2ONVWA0SSLE","emotion","mismatch","uniform","","","","","","","2169.3000000715256","83433.19999992847","85602.5","[""stimuli/BM16_HO.jpg"",""stimuli/BF06_SC.jpg"",""stimuli/BF05_SUR.jpg"",""stimuli/AM09_HE.jpg""]","stimuli/BM16_HO.jpg","stimuli/BF06_SC.jpg","stimuli/BF05_SUR.jpg","stimuli/AM09_HE.jpg","pos1","stimuli/BM16_HO.jpg","HO","BM16","0","5","10","8","stimuli/stars_10.png","21.5","[""HO"",""SC"",""SUR"",""HE""]","[""BM16"",""BF06"",""BF05"",""AM09""]","[10,1,4,3]","[8,2,6,4]","","",""
"show-reward","18","84372","0.0-18.0","p219921","APVJEN2541WFB","3FVBZG9CLKK1M1GPZWGJX51HFG80HB","31HQ4X3T3UG6WQHLPLJ2ONVWA0SSLE","emotion","mismatch","uniform","","","","","","","","86115.19999992847","88136.29999995232","","","","","","","","","","","","10","","stimuli/stars_10.png","21.5","","","","","stimuli/BM16_HO.jpg","",""
"explore-choice","19","86667","0.0-19.0","p219921","APVJEN2541WFB","3FVBZG9CLKK1M1GPZWGJX51HFG80HB","31HQ4X3T3UG6WQHLPLJ2ONVWA0SSLE","emotion","mismatch","uniform","","","","","","","1785","88139.19999992847","89924.19999992847","[""stimuli/BM16_SUR.jpg"",""stimuli/BF06_HO.jpg"",""stimuli/BF05_SC.jpg"",""stimuli/AM09_HE.jpg""]","stimuli/BM16_SUR.jpg","stimuli/BF06_HO.jpg","stimuli/BF05_SC.jpg","stimuli/AM09_HE.jpg","pos4","stimuli/AM09_HE.jpg","HE","AM09","3","1.5","3","4","stimuli/stars_3.png","23","[""SUR"",""HO"",""SC"",""HE""]","[""BM16"",""BF06"",""BF05"",""AM09""]","[7,8,2,3]","[6,8,2,4]","","",""
"show-reward","20","88703","0.0-20.0","p219921","APVJEN2541WFB","3FVBZG9CLKK1M1GPZWGJX51HFG80HB","31HQ4X3T3UG6WQHLPLJ2ONVWA0SSLE","emotion","mismatch","uniform","","","","","","","","90436.10000002384","92467.60000002384","","","","","","","","","","","","3","","stimuli/stars_3.png","23","","","","","stimuli/AM09_HE.jpg","",""
"explore-choice","21","91364","0.0-21.0","p219921","APVJEN2541WFB","3FVBZG9CLKK1M1GPZWGJX51HFG80HB","31HQ4X3T3UG6WQHLPLJ2ONVWA0SSLE","emotion","mismatch","uniform","","","","","","","2155.600000023842","92471.89999997616","94627.5","[""stimuli/BM16_SC.jpg"",""stimuli/BF05_HE.jpg"",""stimuli/BF06_HO.jpg"",""stimuli/AM09_SUR.jpg""]","stimuli/BM16_SC.jpg","stimuli/BF05_HE.jpg","stimuli/BF06_HO.jpg","stimuli/AM09_SUR.jpg","pos2","stimuli/BF05_HE.jpg","HE","BF05","1","2","4","4","stimuli/stars_4.png","25","[""SC"",""HE"",""HO"",""SUR""]","[""BM16"",""BF05"",""BF06"",""AM09""]","[0,4,8,6]","[2,4,8,6]","","",""
"show-reward","22","93397","0.0-22.0","p219921","APVJEN2541WFB","3FVBZG9CLKK1M1GPZWGJX51HFG80HB","31HQ4X3T3UG6WQHLPLJ2ONVWA0SSLE","emotion","mismatch","uniform","","","","","","","","95132.79999995232","97161.10000002384","","","","","","","","","","","","4","","stimuli/stars_4.png","25","","","","","stimuli/BF05_HE.jpg","",""
"explore-choice","23","95810","0.0-23.0","p219921","APVJEN2541WFB","3FVBZG9CLKK1M1GPZWGJX51HFG80HB","31HQ4X3T3UG6WQHLPLJ2ONVWA0SSLE","emotion","mismatch","uniform","","","","","","","1895.6999999284744","97165.5","99061.19999992847","[""stimuli/BF05_HO.jpg"",""stimuli/BM16_SUR.jpg"",""stimuli/BF06_SC.jpg"",""stimuli/AM09_HE.jpg""]","stimuli/BF05_HO.jpg","stimuli/BM16_SUR.jpg","stimuli/BF06_SC.jpg","stimuli/AM09_HE.jpg","pos1","stimuli/BF05_HO.jpg","HO","BF05","0","3.5","7","8","stimuli/stars_7.png","28.5","[""HO"",""SUR"",""SC"",""HE""]","[""BF05"",""BM16"",""BF06"",""AM09""]","[7,6,0,5]","[8,6,2,4]","","",""
"show-reward","24","97833","0.0-24.0","p219921","APVJEN2541WFB","3FVBZG9CLKK1M1GPZWGJX51HFG80HB","31HQ4X3T3UG6WQHLPLJ2ONVWA0SSLE","emotion","mismatch","uniform","","","","","","","","99578.89999997616","101598.19999992847","","","","","","","","","","","","7","","stimuli/stars_7.png","28.5","","","","","stimuli/BF05_HO.jpg","",""
"explore-choice","25","99419","0.0-25.0","p219921","APVJEN2541WFB","3FVBZG9CLKK1M1GPZWGJX51HFG80HB","31HQ4X3T3UG6WQHLPLJ2ONVWA0SSLE","emotion","mismatch","uniform","","","","","","","1075.5","101601.79999995232","102677.29999995232","[""stimuli/BM16_HO.jpg"",""stimuli/BF06_HE.jpg"",""stimuli/BF05_SUR.jpg"",""stimuli/AM09_SC.jpg""]","stimuli/BM16_HO.jpg","stimuli/BF06_HE.jpg","stimuli/BF05_SUR.jpg","stimuli/AM09_SC.jpg","pos1","stimuli/BM16_HO.jpg","HO","BM16","0","3.5","7","8","stimuli/stars_7.png","32","[""HO"",""HE"",""SUR"",""SC""]","[""BM16"",""BF06"",""BF05"",""AM09""]","[7,6,8,2]","[8,4,6,2]","","",""
"show-reward","26","101440","0.0-26.0","p219921","APVJEN2541WFB","3FVBZG9CLKK1M1GPZWGJX51HFG80HB","31HQ4X3T3UG6WQHLPLJ2ONVWA0SSLE","emotion","mismatch","uniform","","","","","","","","103187.5","105204.89999997616","","","","","","","","","","","","7","","stimuli/stars_7.png","32","","","","","stimuli/BM16_HO.jpg","",""
"explore-choice","27","103994","0.0-27.0","p219921","APVJEN2541WFB","3FVBZG9CLKK1M1GPZWGJX51HFG80HB","31HQ4X3T3UG6WQHLPLJ2ONVWA0SSLE","emotion","mismatch","uniform","","","","","","","2039.7999999523163","105208.39999997616","107248.19999992847","[""stimuli/BM16_HE.jpg"",""stimuli/AM09_HO.jpg"",""stimuli/BF06_SC.jpg"",""stimuli/BF05_SUR.jpg""]","stimuli/BM16_HE.jpg","stimuli/AM09_HO.jpg","stimuli/BF06_SC.jpg","stimuli/BF05_SUR.jpg","pos1","stimuli/BM16_HE.jpg","HE","BM16","0","1.5","3","4","stimuli/stars_3.png","33.5","[""HE"",""HO"",""SC"",""SUR""]","[""BM16"",""AM09"",""BF06"",""BF05""]","[3,8,4,8]","[4,8,2,6]","","",""
"show-reward","28","106019","0.0-28.0","p219921","APVJEN2541WFB","3FVBZG9CLKK1M1GPZWGJX51HFG80HB","31HQ4X3T3UG6WQHLPLJ2ONVWA0SSLE","emotion","mismatch","uniform","","","","","","","","107763","109783.79999995232","","","","","","","","","","","","3","","stimuli/stars_3.png","33.5","","","","","stimuli/BM16_HE.jpg","",""
"explore-choice","29","109448","0.0-29.0","p219921","APVJEN2541WFB","3FVBZG9CLKK1M1GPZWGJX51HFG80HB","31HQ4X3T3UG6WQHLPLJ2ONVWA0SSLE","emotion","mismatch","uniform","","","","","","","2910.5","109791.89999997616","112702.39999997616","[""stimuli/BF06_SUR.jpg"",""stimuli/BF05_SC.jpg"",""stimuli/BM16_HO.jpg"",""stimuli/AM09_HE.jpg""]","stimuli/BF06_SUR.jpg","stimuli/BF05_SC.jpg","stimuli/BM16_HO.jpg","stimuli/AM09_HE.jpg","pos4","stimuli/AM09_HE.jpg","HE","AM09","3","2","4","4","stimuli/stars_4.png","35.5","[""SUR"",""SC"",""HO"",""HE""]","[""BF06"",""BF05"",""BM16"",""AM09""]","[8,4,10,4]","[6,2,8,4]","","",""
"show-reward","30","111465","0.0-30.0","p219921","APVJEN2541WFB","3FVBZG9CLKK1M1GPZWGJX51HFG80HB","31HQ4X3T3UG6WQHLPLJ2ONVWA0SSLE","emotion","mismatch","uniform","","","","","","","","113216.29999995232","115230.60000002384","","","","","","","","","","","","4","","stimuli/stars_4.png","35.5","","","","","stimuli/AM09_HE.jpg","",""
"explore-choice","31","114246","0.0-31.0","p219921","APVJEN2541WFB","3FVBZG9CLKK1M1GPZWGJX51HFG80HB","31HQ4X3T3UG6WQHLPLJ2ONVWA0SSLE","emotion","mismatch","uniform","","","","","","","2269.600000023842","115232.69999992847","117502.29999995232","[""stimuli/BF05_SC.jpg"",""stimuli/BF06_HO.jpg"",""stimuli/BM16_HE.jpg"",""stimuli/AM09_SUR.jpg""]","stimuli/BF05_SC.jpg","stimuli/BF06_HO.jpg","stimuli/BM16_HE.jpg","stimuli/AM09_SUR.jpg","pos3","stimuli/BM16_HE.jpg","HE","BM16","2","2.5","5","4","stimuli/stars_5.png","38","[""SC"",""HO"",""HE"",""SUR""]","[""BF05"",""BF06"",""BM16"",""AM09""]","[4,8,5,5]","[2,8,4,6]","","",""
"show-reward","32","116268","0.0-32.0","p219921","APVJEN2541WFB","3FVBZG9CLKK1M1GPZWGJX51HFG80HB","31HQ4X3T3UG6WQHLPLJ2ONVWA0SSLE","emotion","mismatch","uniform","","","","","","","","118013.89999997616","120033.10000002384","","","","","","","","","","","","5","","stimuli/stars_5.png","38","","","","","stimuli/BM16_HE.jpg","",""
"explore-choice","33","118726","0.0-33.0","p219921","APVJEN2541WFB","3FVBZG9CLKK1M1GPZWGJX51HFG80HB","31HQ4X3T3UG6WQHLPLJ2ONVWA0SSLE","emotion","mismatch","uniform","","","","","","","1945.7000000476837","120036.89999997616","121982.60000002384","[""stimuli/BF05_SC.jpg"",""stimuli/AM09_HO.jpg"",""stimuli/BF06_SUR.jpg"",""stimuli/BM16_HE.jpg""]","stimuli/BF05_SC.jpg","stimuli/AM09_HO.jpg","stimuli/BF06_SUR.jpg","stimuli/BM16_HE.jpg","pos2","stimuli/AM09_HO.jpg","HO","AM09","1","3","6","8","stimuli/stars_6.png","41","[""SC"",""HO"",""SUR"",""HE""]","[""BF05"",""AM09"",""BF06"",""BM16""]","[3,6,8,6]","[2,8,6,4]","","",""
"show-reward","34","120762","0.0-34.0","p219921","APVJEN2541WFB","3FVBZG9CLKK1M1GPZWGJX51HFG80HB","31HQ4X3T3UG6WQHLPLJ2ONVWA0SSLE","emotion","mismatch","uniform","","","","","","","","122494.79999995232","124527.5","","","","","","","","","","","","6","","stimuli/stars_6.png","41","","","","","stimuli/AM09_HO.jpg","",""
"explore-choice","35","123347","0.0-35.0","p219921","APVJEN2541WFB","3FVBZG9CLKK1M1GPZWGJX51HFG80HB","31HQ4X3T3UG6WQHLPLJ2ONVWA0SSLE","emotion","mismatch","uniform","","","","","","","2071.8000000715256","124530.79999995232","126602.60000002384","[""stimuli/BF05_HO.jpg"",""stimuli/AM09_SC.jpg"",""stimuli/BF06_SUR.jpg"",""stimuli/BM16_HE.jpg""]","stimuli/BF05_HO.jpg","stimuli/AM09_SC.jpg","stimuli/BF06_SUR.jpg","stimuli/BM16_HE.jpg","pos3","stimuli/BF06_SUR.jpg","SUR","BF06","2","3.5","7","6","stimuli/stars_7.png","44.5","[""HO"",""SC"",""SUR"",""HE""]","[""BF05"",""AM09"",""BF06"",""BM16""]","[7,1,7,4]","[8,2,6,4]","","",""
"show-reward","36","125369","0.0-36.0","p219921","APVJEN2541WFB","3FVBZG9CLKK1M1GPZWGJX51HFG80HB","31HQ4X3T3UG6WQHLPLJ2ONVWA0SSLE","emotion","mismatch","uniform","","","","","","","","127115.10000002384","129133.89999997616","","","","","","","","","","","","7","","stimuli/stars_7.png","44.5","","","","","stimuli/BF06_SUR.jpg","",""
"explore-choice","37","127838","0.0-37.0","p219921","APVJEN2541WFB","3FVBZG9CLKK1M1GPZWGJX51HFG80HB","31HQ4X3T3UG6WQHLPLJ2ONVWA0SSLE","emotion","mismatch","uniform","","","","","","","1952","129137.39999997616","131089.39999997616","[""stimuli/BF06_HO.jpg"",""stimuli/AM09_SC.jpg"",""stimuli/BF05_HE.jpg"",""stimuli/BM16_SUR.jpg""]","stimuli/BF06_HO.jpg","stimuli/AM09_SC.jpg","stimuli/BF05_HE.jpg","stimuli/BM16_SUR.jpg","pos4","stimuli/BM16_SUR.jpg","SUR","BM16","3","3.5","7","6","stimuli/stars_7.png","48","[""HO"",""SC"",""HE"",""SUR""]","[""BF06"",""AM09"",""BF05"",""BM16""]","[8,4,6,7]","[8,2,4,6]","","",""
"show-reward","38","129860","0.0-38.0","p219921","APVJEN2541WFB","3FVBZG9CLKK1M1GPZWGJX51HFG80HB","31HQ4X3T3UG6WQHLPLJ2ONVWA0SSLE","emotion","mismatch","uniform","","","","","","","","131606.5","133625.39999997616","","","","","","","","","","","","7","","stimuli/stars_7.png","48","","","","","stimuli/BM16_SUR.jpg","",""
"explore-choice","39","132272","0.0-39.0","p219921","APVJEN2541WFB","3FVBZG9CLKK1M1GPZWGJX51HFG80HB","31HQ4X3T3UG6WQHLPLJ2ONVWA0SSLE","emotion","mismatch","uniform","","","","","","","1898.3000000715256","133628.79999995232","135527.10000002384","[""stimuli/BM16_HE.jpg"",""stimuli/BF05_HO.jpg"",""stimuli/BF06_SC.jpg"",""stimuli/AM09_SUR.jpg""]","stimuli/BM16_HE.jpg","stimuli/BF05_HO.jpg","stimuli/BF06_SC.jpg","stimuli/AM09_SUR.jpg","pos4","stimuli/AM09_SUR.jpg","SUR","AM09","3","4","8","6","stimuli/stars_8.png","52","[""HE"",""HO"",""SC"",""SUR""]","[""BM16"",""BF05"",""BF06"",""AM09""]","[6,6,4,8]","[4,8,2,6]","","",""
"show-reward","40","134302","0.0-40.0","p219921","APVJEN2541WFB","3FVBZG9CLKK1M1GPZWGJX51HFG80HB","31HQ4X3T3UG6WQHLPLJ2ONVWA0SSLE","emotion","mismatch","uniform","","","","","","","","136042.19999992847","138066.79999995232","","","","","","","","","","","","8","","stimuli/stars_8.png","52","","","","","stimuli/AM09_SUR.jpg","",""
"explore-choice","41","136168","0.0-41.0","p219921","APVJEN2541WFB","3FVBZG9CLKK1M1GPZWGJX51HFG80HB","31HQ4X3T3UG6WQHLPLJ2ONVWA0SSLE","emotion","mismatch","uniform","","","","","","","1356.7000000476837","138070.19999992847","139426.89999997616","[""stimuli/BF05_SUR.jpg"",""stimuli/BM16_SC.jpg"",""stimuli/AM09_HE.jpg"",""stimuli/BF06_HO.jpg""]","stimuli/BF05_SUR.jpg","stimuli/BM16_SC.jpg","stimuli/AM09_HE.jpg","stimuli/BF06_HO.jpg","pos1","stimuli/BF05_SUR.jpg","SUR","BF05","0","3.5","7","6","stimuli/stars_7.png","55.5","[""SUR"",""SC"",""HE"",""HO""]","[""BF05"",""BM16"",""AM09"",""BF06""]","[7,4,5,6]","[6,2,4,8]","","",""
"show-reward","42","138202","0.0-42.0","p219921","APVJEN2541WFB","3FVBZG9CLKK1M1GPZWGJX51HFG80HB","31HQ4X3T3UG6WQHLPLJ2ONVWA0SSLE","emotion","mismatch","uniform","","","","","","","","139936.10000002384","141965.5","","","","","","","","","","","","7","","stimuli/stars_7.png","55.5","","","","","stimuli/BF05_SUR.jpg","",""
"explore-choice","43","141417","0.0-43.0","p219921","APVJEN2541WFB","3FVBZG9CLKK1M1GPZWGJX51HFG80HB","31HQ4X3T3UG6WQHLPLJ2ONVWA0SSLE","emotion","mismatch","uniform","","","","","","","2702.600000023842","141974.69999992847","144677.29999995232","[""stimuli/AM09_HO.jpg"",""stimuli/BF06_HE.jpg"",""stimuli/BF05_SC.jpg"",""stimuli/BM16_SUR.jpg""]","stimuli/AM09_HO.jpg","stimuli/BF06_HE.jpg","stimuli/BF05_SC.jpg","stimuli/BM16_SUR.jpg","pos4","stimuli/BM16_SUR.jpg","SUR","BM16","3","2","4","6","stimuli/stars_4.png","57.5","[""HO"",""HE"",""SC"",""SUR""]","[""AM09"",""BF06"",""BF05"",""BM16""]","[6,2,3,4]","[8,4,2,6]","","",""
"show-reward","44","143437","0.0-44.0","p219921","APVJEN2541WFB","3FVBZG9CLKK1M1GPZWGJX51HFG80HB","31HQ4X3T3UG6WQHLPLJ2ONVWA0SSLE","emotion","mismatch","uniform","","","","","","","","145184.60000002384","147201.19999992847","","","","","","","","","","","","4","","stimuli/stars_4.png","57.5","","","","","stimuli/BM16_SUR.jpg","",""
"explore-choice","45","145919","0.0-45.0","p219921","APVJEN2541WFB","3FVBZG9CLKK1M1GPZWGJX51HFG80HB","31HQ4X3T3UG6WQHLPLJ2ONVWA0SSLE","emotion","mismatch","uniform","","","","","","","1972.2000000476837","147205.29999995232","149177.5","[""stimuli/BF06_HE.jpg"",""stimuli/AM09_SC.jpg"",""stimuli/BF05_HO.jpg"",""stimuli/BM16_SUR.jpg""]","stimuli/BF06_HE.jpg","stimuli/AM09_SC.jpg","stimuli/BF05_HO.jpg","stimuli/BM16_SUR.jpg","pos2","stimuli/AM09_SC.jpg","SC","AM09","1","2","4","2","stimuli/stars_4.png","59.5","[""HE"",""SC"",""HO"",""SUR""]","[""BF06"",""AM09"",""BF05"",""BM16""]","[5,4,9,8]","[4,2,8,6]","","",""
"show-reward","46","147945","0.0-46.0","p219921","APVJEN2541WFB","3FVBZG9CLKK1M1GPZWGJX51HFG80HB","31HQ4X3T3UG6WQHLPLJ2ONVWA0SSLE","emotion","mismatch","uniform","","","","","","","","149687.69999992847","151709.19999992847","","","","","","","","","","","","4","","stimuli/stars_4.png","59.5","","","","","stimuli/AM09_SC.jpg","",""
"explore-choice","47","151351","0.0-47.0","p219921","APVJEN2541WFB","3FVBZG9CLKK1M1GPZWGJX51HFG80HB","31HQ4X3T3UG6WQHLPLJ2ONVWA0SSLE","emotion","mismatch","uniform","","","","","","","2895.399999976158","151712.5","154607.89999997616","[""stimuli/BF06_HO.jpg"",""stimuli/AM09_SC.jpg"",""stimuli/BF05_SUR.jpg"",""stimuli/BM16_HE.jpg""]","stimuli/BF06_HO.jpg","stimuli/AM09_SC.jpg","stimuli/BF05_SUR.jpg","stimuli/BM16_HE.jpg","pos1","stimuli/BF06_HO.jpg","HO","BF06","0","3.5","7","8","stimuli/stars_7.png","63","[""HO"",""SC"",""SUR"",""HE""]","[""BF06"",""AM09"",""BF05"",""BM16""]","[7,2,7,3]","[8,2,6,4]","","",""
"show-reward","48","153369","0.0-48.0","p219921","APVJEN2541WFB","3FVBZG9CLKK1M1GPZWGJX51HFG80HB","31HQ4X3T3UG6WQHLPLJ2ONVWA0SSLE","emotion","mismatch","uniform","","","","","","","","155120.10000002384","157133.19999992847","","","","","","","","","","","","7","","stimuli/stars_7.png","63","","","","","stimuli/BF06_HO.jpg","",""
"explore-choice","49","155480","0.0-49.0","p219921","APVJEN2541WFB","3FVBZG9CLKK1M1GPZWGJX51HFG80HB","31HQ4X3T3UG6WQHLPLJ2ONVWA0SSLE","emotion","mismatch","uniform","","","","","","","1589.7000000476837","157137.19999992847","158726.89999997616","[""stimuli/BF05_HE.jpg"",""stimuli/BF06_SUR.jpg"",""stimuli/AM09_SC.jpg"",""stimuli/BM16_HO.jpg""]","stimuli/BF05_HE.jpg","stimuli/BF06_SUR.jpg","stimuli/AM09_SC.jpg","stimuli/BM16_HO.jpg","pos4","stimuli/BM16_HO.jpg","HO","BM16","3","4.5","9","8","stimuli/stars_9.png","67.5","[""HE"",""SUR"",""SC"",""HO""]","[""BF05"",""BF06"",""AM09"",""BM16""]","[3,5,2,9]","[4,6,2,8]","","",""
"show-reward","50","157509","0.0-50.0","p219921","APVJEN2541WFB","3FVBZG9CLKK1M1GPZWGJX51HFG80HB","31HQ4X3T3UG6WQHLPLJ2ONVWA0SSLE","emotion","mismatch","uniform","","","","","","","","159248","161274","","","","","","","","","","","","9","","stimuli/stars_9.png","67.5","","","","","stimuli/BM16_HO.jpg","",""
"explore-choice","51","159875","0.0-51.0","p219921","APVJEN2541WFB","3FVBZG9CLKK1M1GPZWGJX51HFG80HB","31HQ4X3T3UG6WQHLPLJ2ONVWA0SSLE","emotion","mismatch","uniform","","","","","","","1855.7000000476837","161276.89999997616","163132.60000002384","[""stimuli/BM16_SC.jpg"",""stimuli/AM09_HO.jpg"",""stimuli/BF06_HE.jpg"",""stimuli/BF05_SUR.jpg""]","stimuli/BM16_SC.jpg","stimuli/AM09_HO.jpg","stimuli/BF06_HE.jpg","stimuli/BF05_SUR.jpg","pos3","stimuli/BF06_HE.jpg","HE","BF06","2","3","6","4","stimuli/stars_6.png","70.5","[""SC"",""HO"",""HE"",""SUR""]","[""BM16"",""AM09"",""BF06"",""BF05""]","[2,9,6,7]","[2,8,4,6]","","",""
"show-reward","52","161900","0.0-52.0","p219921","APVJEN2541WFB","3FVBZG9CLKK1M1GPZWGJX51HFG80HB","31HQ4X3T3UG6WQHLPLJ2ONVWA0SSLE","emotion","mismatch","uniform","","","","","","","","163642.60000002384","165664.89999997616","","","","","","","","","","","","6","","stimuli/stars_6.png","70.5","","","","","stimuli/BF06_HE.jpg","",""
"explore-choice","53","164415","0.0-53.0","p219921","APVJEN2541WFB","3FVBZG9CLKK1M1GPZWGJX51HFG80HB","31HQ4X3T3UG6WQHLPLJ2ONVWA0SSLE","emotion","mismatch","uniform","","","","","","","2008.9000000953674","165667.69999992847","167676.60000002384","[""stimuli/AM09_HO.jpg"",""stimuli/BM16_SC.jpg"",""stimuli/BF05_HE.jpg"",""stimuli/BF06_SUR.jpg""]","stimuli/AM09_HO.jpg","stimuli/BM16_SC.jpg","stimuli/BF05_HE.jpg","stimuli/BF06_SUR.jpg","pos1","stimuli/AM09_HO.jpg","HO","AM09","0","3.5","7","8","stimuli/stars_7.png","74","[""HO"",""SC"",""HE"",""SUR""]","[""AM09"",""BM16"",""BF05"",""BF06""]","[7,2,3,8]","[8,2,4,6]","","",""
"show-reward","54","166448","0.0-54.0","p219921","APVJEN2541WFB","3FVBZG9CLKK1M1GPZWGJX51HFG80HB","31HQ4X3T3UG6WQHLPLJ2ONVWA0SSLE","emotion","mismatch","uniform","","","","","","","","168183.39999997616","170212.69999992847","","","","","","","","","","","","7","","stimuli/stars_7.png","74","","","","","stimuli/AM09_HO.jpg","",""
"explore-choice","55","169721","0.0-55.0","p219921","APVJEN2541WFB","3FVBZG9CLKK1M1GPZWGJX51HFG80HB","31HQ4X3T3UG6WQHLPLJ2ONVWA0SSLE","emotion","mismatch","uniform","","","","","","","2761.100000023842","170215.69999992847","172976.79999995232","[""stimuli/BF05_HE.jpg"",""stimuli/AM09_SC.jpg"",""stimuli/BF06_HO.jpg"",""stimuli/BM16_SUR.jpg""]","stimuli/BF05_HE.jpg","stimuli/AM09_SC.jpg","stimuli/BF06_HO.jpg","stimuli/BM16_SUR.jpg","pos1","stimuli/BF05_HE.jpg","HE","BF05","0","3","6","4","stimuli/stars_6.png","77","[""HE"",""SC"",""HO"",""SUR""]","[""BF05"",""AM09"",""BF06"",""BM16""]","[6,4,8,7]","[4,2,8,6]","","",""
"show-reward","56","171735","0.0-56.0","p219921","APVJEN2541WFB","3FVBZG9CLKK1M1GPZWGJX51HFG80HB","31HQ4X3T3UG6WQHLPLJ2ONVWA0SSLE","emotion","mismatch","uniform","","","","","","","","173489.19999992847","175500.69999992847","","","","","","","","","","","","6","","stimuli/stars_6.png","77","","","","","stimuli/BF05_HE.jpg","",""
"explore-choice","57","173958","0.0-57.0","p219921","APVJEN2541WFB","3FVBZG9CLKK1M1GPZWGJX51HFG80HB","31HQ4X3T3UG6WQHLPLJ2ONVWA0SSLE","emotion","mismatch","uniform","","","","","","","1711.5","175504.39999997616","177215.89999997616","[""stimuli/AM09_SC.jpg"",""stimuli/BF06_HO.jpg"",""stimuli/BF05_SUR.jpg"",""stimuli/BM16_HE.jpg""]","stimuli/AM09_SC.jpg","stimuli/BF06_HO.jpg","stimuli/BF05_SUR.jpg","stimuli/BM16_HE.jpg","pos4","stimuli/BM16_HE.jpg","HE","BM16","3","1.5","3","4","stimuli/stars_3.png","78.5","[""SC"",""HO"",""SUR"",""HE""]","[""AM09"",""BF06"",""BF05"",""BM16""]","[2,7,7,3]","[2,8,6,4]","","",""
"show-reward","58","175989","0.0-58.0","p219921","APVJEN2541WFB","3FVBZG9CLKK1M1GPZWGJX51HFG80HB","31HQ4X3T3UG6WQHLPLJ2ONVWA0SSLE","emotion","mismatch","uniform","","","","","","","","177728.10000002384","179755.19999992847","","","","","","","","","","","","3","","stimuli/stars_3.png","78.5","","","","","stimuli/BM16_HE.jpg","",""
"explore-choice","59","178011","0.0-59.0","p219921","APVJEN2541WFB","3FVBZG9CLKK1M1GPZWGJX51HFG80HB","31HQ4X3T3UG6WQHLPLJ2ONVWA0SSLE","emotion","mismatch","uniform","","","","","","","1508.0999999046326","179758.10000002384","181266.19999992847","[""stimuli/BF05_SUR.jpg"",""stimuli/BM16_SC.jpg"",""stimuli/AM09_HO.jpg"",""stimuli/BF06_HE.jpg""]","stimuli/BF05_SUR.jpg","stimuli/BM16_SC.jpg","stimuli/AM09_HO.jpg","stimuli/BF06_HE.jpg","pos1","stimuli/BF05_SUR.jpg","SUR","BF05","0","3.5","7","6","stimuli/stars_7.png","82","[""SUR"",""SC"",""HO"",""HE""]","[""BF05"",""BM16"",""AM09"",""BF06""]","[7,2,9,6]","[6,2,8,4]","","",""
"show-reward","60","180038","0.0-60.0","p219921","APVJEN2541WFB","3FVBZG9CLKK1M1GPZWGJX51HFG80HB","31HQ4X3T3UG6WQHLPLJ2ONVWA0SSLE","emotion","mismatch","uniform","","","","","","","","181780","183803.89999997616","","","","","","","","","","","","7","","stimuli/stars_7.png","82","","","","","stimuli/BF05_SUR.jpg","",""
"explore-choice","61","182038","0.0-61.0","p219921","APVJEN2541WFB","3FVBZG9CLKK1M1GPZWGJX51HFG80HB","31HQ4X3T3UG6WQHLPLJ2ONVWA0SSLE","emotion","mismatch","uniform","","","","","","","1480.8000000715256","183807.19999992847","185288","[""stimuli/AM09_HO.jpg"",""stimuli/BF05_HE.jpg"",""stimuli/BF06_SC.jpg"",""stimuli/BM16_SUR.jpg""]","stimuli/AM09_HO.jpg","stimuli/BF05_HE.jpg","stimuli/BF06_SC.jpg","stimuli/BM16_SUR.jpg","pos4","stimuli/BM16_SUR.jpg","SUR","BM16","3","2.5","5","6","stimuli/stars_5.png","84.5","[""HO"",""HE"",""SC"",""SUR""]","[""AM09"",""BF05"",""BF06"",""BM16""]","[9,5,1,5]","[8,4,2,6]","","",""
"show-reward","62","184060","0.0-62.0","p219921","APVJEN2541WFB","3FVBZG9CLKK1M1GPZWGJX51HFG80HB","31HQ4X3T3UG6WQHLPLJ2ONVWA0SSLE","emotion","mismatch","uniform","","","","","","","","185807","187824.10000002384","","","","","","","","","","","","5","","stimuli/stars_5.png","84.5","","","","","stimuli/BM16_SUR.jpg","",""
"explore-choice","63","187213","0.0-63.0","p219921","APVJEN2541WFB","3FVBZG9CLKK1M1GPZWGJX51HFG80HB","31HQ4X3T3UG6WQHLPLJ2ONVWA0SSLE","emotion","mismatch","uniform","","","","","","","2646.5","187830.39999997616","190476.89999997616","[""stimuli/AM09_HE.jpg"",""stimuli/BM16_SUR.jpg"",""stimuli/BF05_SC.jpg"",""stimuli/BF06_HO.jpg""]","stimuli/AM09_HE.jpg","stimuli/BM16_SUR.jpg","stimuli/BF05_SC.jpg","stimuli/BF06_HO.jpg","pos2","stimuli/BM16_SUR.jpg","SUR","BM16","1","3.5","7","6","stimuli/stars_7.png","88","[""HE"",""SUR"",""SC"",""HO""]","[""AM09"",""BM16"",""BF05"",""BF06""]","[3,7,2,8]","[4,6,2,8]","","",""
"show-reward","64","189234","0.0-64.0","p219921","APVJEN2541WFB","3FVBZG9CLKK1M1GPZWGJX51HFG80HB","31HQ4X3T3UG6WQHLPLJ2ONVWA0SSLE","emotion","mismatch","uniform","","","","","","","","190982.29999995232","192999.10000002384","","","","","","","","","","","","7","","stimuli/stars_7.png","88","","","","","stimuli/BM16_SUR.jpg","",""
"explore-choice","65","191371","0.0-65.0","p219921","APVJEN2541WFB","3FVBZG9CLKK1M1GPZWGJX51HFG80HB","31HQ4X3T3UG6WQHLPLJ2ONVWA0SSLE","emotion","mismatch","uniform","","","","","","","1623.6999999284744","193003","194626.69999992847","[""stimuli/BM16_HE.jpg"",""stimuli/BF06_SC.jpg"",""stimuli/BF05_HO.jpg"",""stimuli/AM09_SUR.jpg""]","stimuli/BM16_HE.jpg","stimuli/BF06_SC.jpg","stimuli/BF05_HO.jpg","stimuli/AM09_SUR.jpg","pos4","stimuli/AM09_SUR.jpg","SUR","AM09","3","4","8","6","stimuli/stars_8.png","92","[""HE"",""SC"",""HO"",""SUR""]","[""BM16"",""BF06"",""BF05"",""AM09""]","[6,4,6,8]","[4,2,8,6]","","",""
"show-reward","66","193399","0.0-66.0","p219921","APVJEN2541WFB","3FVBZG9CLKK1M1GPZWGJX51HFG80HB","31HQ4X3T3UG6WQHLPLJ2ONVWA0SSLE","emotion","mismatch","uniform","","","","","","","","195140.29999995232","197165","","","","","","","","","","","","8","","stimuli/stars_8.png","92","","","","","stimuli/AM09_SUR.jpg","",""
"explore-choice","67","195437","0.0-67.0","p219921","APVJEN2541WFB","3FVBZG9CLKK1M1GPZWGJX51HFG80HB","31HQ4X3T3UG6WQHLPLJ2ONVWA0SSLE","emotion","mismatch","uniform","","","","","","","1533.2999999523163","197169","198702.29999995232","[""stimuli/BM16_HE.jpg"",""stimuli/AM09_HO.jpg"",""stimuli/BF05_SC.jpg"",""stimuli/BF06_SUR.jpg""]","stimuli/BM16_HE.jpg","stimuli/AM09_HO.jpg","stimuli/BF05_SC.jpg","stimuli/BF06_SUR.jpg","pos4","stimuli/BF06_SUR.jpg","SUR","BF06","3","4","8","6","stimuli/stars_8.png","96","[""HE"",""HO"",""SC"",""SUR""]","[""BM16"",""AM09"",""BF05"",""BF06""]","[6,6,3,8]","[4,8,2,6]","","",""
"show-reward","68","197463","0.0-68.0","p219921","APVJEN2541WFB","3FVBZG9CLKK1M1GPZWGJX51HFG80HB","31HQ4X3T3UG6WQHLPLJ2ONVWA0SSLE","emotion","mismatch","uniform","","","","","","","","199206.89999997616","201228.5","","","","","","","","","","","","8","","stimuli/stars_8.png","96","","","","","stimuli/BF06_SUR.jpg","",""
"explore-choice","69","200367","0.0-69.0","p219921","APVJEN2541WFB","3FVBZG9CLKK1M1GPZWGJX51HFG80HB","31HQ4X3T3UG6WQHLPLJ2ONVWA0SSLE","emotion","mismatch","uniform","","","","","","","2399.399999976158","201231.79999995232","203631.19999992847","[""stimuli/BF05_SC.jpg"",""stimuli/BM16_SUR.jpg"",""stimuli/AM09_HO.jpg"",""stimuli/BF06_HE.jpg""]","stimuli/BF05_SC.jpg","stimuli/BM16_SUR.jpg","stimuli/AM09_HO.jpg","stimuli/BF06_HE.jpg","pos2","stimuli/BM16_SUR.jpg","SUR","BM16","1","2","4","6","stimuli/stars_4.png","98","[""SC"",""SUR"",""HO"",""HE""]","[""BF05"",""BM16"",""AM09"",""BF06""]","[3,4,6,2]","[2,6,8,4]","","",""
"show-reward","70","202407","0.0-70.0","p219921","APVJEN2541WFB","3FVBZG9CLKK1M1GPZWGJX51HFG80HB","31HQ4X3T3UG6WQHLPLJ2ONVWA0SSLE","emotion","mismatch","uniform","","","","","","","","204137.79999995232","206172.29999995232","","","","","","","","","","","","4","","stimuli/stars_4.png","98","","","","","stimuli/BM16_SUR.jpg","",""
"explore-choice","71","204675","0.0-71.0","p219921","APVJEN2541WFB","3FVBZG9CLKK1M1GPZWGJX51HFG80HB","31HQ4X3T3UG6WQHLPLJ2ONVWA0SSLE","emotion","mismatch","uniform","","","","","","","1756.8999999761581","206175.60000002384","207932.5","[""stimuli/BF05_HO.jpg"",""stimuli/BF06_SC.jpg"",""stimuli/AM09_HE.jpg"",""stimuli/BM16_SUR.jpg""]","stimuli/BF05_HO.jpg","stimuli/BF06_SC.jpg","stimuli/AM09_HE.jpg","stimuli/BM16_SUR.jpg","pos3","stimuli/AM09_HE.jpg","HE","AM09","2","2.5","5","4","stimuli/stars_5.png","100.5","[""HO"",""SC"",""HE"",""SUR""]","[""BF05"",""BF06"",""AM09"",""BM16""]","[7,0,5,6]","[8,2,4,6]","","",""
"show-reward","72","206690","0.0-72.0","p219921","APVJEN2541WFB","3FVBZG9CLKK1M1GPZWGJX51HFG80HB","31HQ4X3T3UG6WQHLPLJ2ONVWA0SSLE","emotion","mismatch","uniform","","","","","","","","208444.29999995232","210455.79999995232","","","","","","","","","","","","5","","stimuli/stars_5.png","100.5","","","","","stimuli/AM09_HE.jpg","",""
"explore-choice","73","208946","0.0-73.0","p219921","APVJEN2541WFB","3FVBZG9CLKK1M1GPZWGJX51HFG80HB","31HQ4X3T3UG6WQHLPLJ2ONVWA0SSLE","emotion","mismatch","uniform","","","","","","","1748.8000000715256","210458.79999995232","212207.60000002384","[""stimuli/AM09_SC.jpg"",""stimuli/BF06_SUR.jpg"",""stimuli/BF05_HE.jpg"",""stimuli/BM16_HO.jpg""]","stimuli/AM09_SC.jpg","stimuli/BF06_SUR.jpg","stimuli/BF05_HE.jpg","stimuli/BM16_HO.jpg","pos4","stimuli/BM16_HO.jpg","HO","BM16","3","4.5","9","8","stimuli/stars_9.png","105","[""SC"",""SUR"",""HE"",""HO""]","[""AM09"",""BF06"",""BF05"",""BM16""]","[2,5,3,9]","[2,6,4,8]","","",""
"show-reward","74","210962","0.0-74.0","p219921","APVJEN2541WFB","3FVBZG9CLKK1M1GPZWGJX51HFG80HB","31HQ4X3T3UG6WQHLPLJ2ONVWA0SSLE","emotion","mismatch","uniform","","","","","","","","212713.69999992847","214727.89999997616","","","","","","","","","","","","9","","stimuli/stars_9.png","105","","","","","stimuli/BM16_HO.jpg","",""
"explore-choice","75","213563","0.0-75.0","p219921","APVJEN2541WFB","3FVBZG9CLKK1M1GPZWGJX51HFG80HB","31HQ4X3T3UG6WQHLPLJ2ONVWA0SSLE","emotion","mismatch","uniform","","","","","","","2095.8000000715256","214730.29999995232","216826.10000002384","[""stimuli/BF05_SUR.jpg"",""stimuli/BM16_HO.jpg"",""stimuli/AM09_SC.jpg"",""stimuli/BF06_HE.jpg""]","stimuli/BF05_SUR.jpg","stimuli/BM16_HO.jpg","stimuli/AM09_SC.jpg","stimuli/BF06_HE.jpg","pos2","stimuli/BM16_HO.jpg","HO","BM16","1","3.5","7","8","stimuli/stars_7.png","108.5","[""SUR"",""HO"",""SC"",""HE""]","[""BF05"",""BM16"",""AM09"",""BF06""]","[8,7,2,6]","[6,8,2,4]","","",""
"show-reward","76","215583","0.0-76.0","p219921","APVJEN2541WFB","3FVBZG9CLKK1M1GPZWGJX51HFG80HB","31HQ4X3T3UG6WQHLPLJ2ONVWA0SSLE","emotion","mismatch","uniform","","","","","","","","217333","219349.10000002384","","","","","","","","","","","","7","","stimuli/stars_7.png","108.5","","","","","stimuli/BM16_HO.jpg","",""
"explore-choice","77","217829","0.0-77.0","p219921","APVJEN2541WFB","3FVBZG9CLKK1M1GPZWGJX51HFG80HB","31HQ4X3T3UG6WQHLPLJ2ONVWA0SSLE","emotion","mismatch","uniform","","","","","","","1724.3000000715256","219352.19999992847","221076.5","[""stimuli/BF05_SC.jpg"",""stimuli/AM09_SUR.jpg"",""stimuli/BF06_HE.jpg"",""stimuli/BM16_HO.jpg""]","stimuli/BF05_SC.jpg","stimuli/AM09_SUR.jpg","stimuli/BF06_HE.jpg","stimuli/BM16_HO.jpg","pos3","stimuli/BF06_HE.jpg","HE","BF06","2","3","6","4","stimuli/stars_6.png","111.5","[""SC"",""SUR"",""HE"",""HO""]","[""BF05"",""AM09"",""BF06"",""BM16""]","[4,6,6,9]","[2,6,4,8]","","",""
"show-reward","78","219861","0.0-78.0","p219921","APVJEN2541WFB","3FVBZG9CLKK1M1GPZWGJX51HFG80HB","31HQ4X3T3UG6WQHLPLJ2ONVWA0SSLE","emotion","mismatch","uniform","","","","","","","","221599.5","223627","","","","","","","","","","","","6","","stimuli/stars_6.png","111.5","","","","","stimuli/BF06_HE.jpg","",""
"explore-choice","79","222242","0.0-79.0","p219921","APVJEN2541WFB","3FVBZG9CLKK1M1GPZWGJX51HFG80HB","31HQ4X3T3UG6WQHLPLJ2ONVWA0SSLE","emotion","mismatch","uniform","","","","","","","1871.6999999284744","223632","225503.69999992847","[""stimuli/BM16_HO.jpg"",""stimuli/BF05_SC.jpg"",""stimuli/AM09_HE.jpg"",""stimuli/BF06_SUR.jpg""]","stimuli/BM16_HO.jpg","stimuli/BF05_SC.jpg","stimuli/AM09_HE.jpg","stimuli/BF06_SUR.jpg","pos1","stimuli/BM16_HO.jpg","HO","BM16","0","5","10","8","stimuli/stars_10.png","116.5","[""HO"",""SC"",""HE"",""SUR""]","[""BM16"",""BF05"",""AM09"",""BF06""]","[10,4,4,8]","[8,2,4,6]","","",""
"show-reward","80","224260","0.0-80.0","p219921","APVJEN2541WFB","3FVBZG9CLKK1M1GPZWGJX51HFG80HB","31HQ4X3T3UG6WQHLPLJ2ONVWA0SSLE","emotion","mismatch","uniform","","","","","","","","226010.89999997616","228025.60000002384","","","","","","","","","","","","10","","stimuli/stars_10.png","116.5","","","","","stimuli/BM16_HO.jpg","",""
"explore-choice","81","226939","0.0-81.0","p219921","APVJEN2541WFB","3FVBZG9CLKK1M1GPZWGJX51HFG80HB","31HQ4X3T3UG6WQHLPLJ2ONVWA0SSLE","emotion","mismatch","uniform","","","","","","","2172.2000000476837","228029.29999995232","230201.5","[""stimuli/AM09_HO.jpg"",""stimuli/BM16_SC.jpg"",""stimuli/BF06_SUR.jpg"",""stimuli/BF05_HE.jpg""]","stimuli/AM09_HO.jpg","stimuli/BM16_SC.jpg","stimuli/BF06_SUR.jpg","stimuli/BF05_HE.jpg","pos4","stimuli/BF05_HE.jpg","HE","BF05","3","1.5","3","4","stimuli/stars_3.png","118","[""HO"",""SC"",""SUR"",""HE""]","[""AM09"",""BM16"",""BF06"",""BF05""]","[7,2,8,3]","[8,2,6,4]","","",""
"show-reward","82","228967","0.0-82.0","p219921","APVJEN2541WFB","3FVBZG9CLKK1M1GPZWGJX51HFG80HB","31HQ4X3T3UG6WQHLPLJ2ONVWA0SSLE","emotion","mismatch","uniform","","","","","","","","230708.19999992847","232732.69999992847","","","","","","","","","","","","3","","stimuli/stars_3.png","118","","","","","stimuli/BF05_HE.jpg","",""
"explore-choice","83","231096","0.0-83.0","p219921","APVJEN2541WFB","3FVBZG9CLKK1M1GPZWGJX51HFG80HB","31HQ4X3T3UG6WQHLPLJ2ONVWA0SSLE","emotion","mismatch","uniform","","","","","","","1613.5","232738.29999995232","234351.79999995232","[""stimuli/BM16_HO.jpg"",""stimuli/BF05_HE.jpg"",""stimuli/AM09_SUR.jpg"",""stimuli/BF06_SC.jpg""]","stimuli/BM16_HO.jpg","stimuli/BF05_HE.jpg","stimuli/AM09_SUR.jpg","stimuli/BF06_SC.jpg","pos4","stimuli/BF06_SC.jpg","SC","BF06","3","2","4","2","stimuli/stars_4.png","120","[""HO"",""HE"",""SUR"",""SC""]","[""BM16"",""BF05"",""AM09"",""BF06""]","[9,4,8,4]","[8,4,6,2]","","",""
"show-reward","84","233121","0.0-84.0","p219921","APVJEN2541WFB","3FVBZG9CLKK1M1GPZWGJX51HFG80HB","31HQ4X3T3UG6WQHLPLJ2ONVWA0SSLE","emotion","mismatch","uniform","","","","","","","","234865.39999997616","236886","","","","","","","","","","","","4","","stimuli/stars_4.png","120","","","","","stimuli/BF06_SC.jpg","",""
"explore-choice","85","234923","0.0-85.0","p219921","APVJEN2541WFB","3FVBZG9CLKK1M1GPZWGJX51HFG80HB","31HQ4X3T3UG6WQHLPLJ2ONVWA0SSLE","emotion","mismatch","uniform","","","","","","","1286","236890.39999997616","238176.39999997616","[""stimuli/AM09_HO.jpg"",""stimuli/BM16_HE.jpg"",""stimuli/BF06_SC.jpg"",""stimuli/BF05_SUR.jpg""]","stimuli/AM09_HO.jpg","stimuli/BM16_HE.jpg","stimuli/BF06_SC.jpg","stimuli/BF05_SUR.jpg","pos4","stimuli/BF05_SUR.jpg","SUR","BF05","3","4","8","6","stimuli/stars_8.png","124","[""HO"",""HE"",""SC"",""SUR""]","[""AM09"",""BM16"",""BF06"",""BF05""]","[8,3,4,8]","[8,4,2,6]","","",""
"show-reward","86","236943","0.0-86.0","p219921","APVJEN2541WFB","3FVBZG9CLKK1M1GPZWGJX51HFG80HB","31HQ4X3T3UG6WQHLPLJ2ONVWA0SSLE","emotion","mismatch","uniform","","","","","","","","238692.19999992847","240709","","","","","","","","","","","","8","","stimuli/stars_8.png","124","","","","","stimuli/BF05_SUR.jpg","",""
"explore-choice","87","238895","0.0-87.0","p219921","APVJEN2541WFB","3FVBZG9CLKK1M1GPZWGJX51HFG80HB","31HQ4X3T3UG6WQHLPLJ2ONVWA0SSLE","emotion","mismatch","uniform","","","","","","","1439.1000000238419","240712.19999992847","242151.29999995232","[""stimuli/BF06_HE.jpg"",""stimuli/BM16_SC.jpg"",""stimuli/AM09_SUR.jpg"",""stimuli/BF05_HO.jpg""]","stimuli/BF06_HE.jpg","stimuli/BM16_SC.jpg","stimuli/AM09_SUR.jpg","stimuli/BF05_HO.jpg","pos3","stimuli/AM09_SUR.jpg","SUR","AM09","2","3.5","7","6","stimuli/stars_7.png","127.5","[""HE"",""SC"",""SUR"",""HO""]","[""BF06"",""BM16"",""AM09"",""BF05""]","[4,4,7,6]","[4,2,6,8]","","",""
"show-reward","88","240910","0.0-88.0","p219921","APVJEN2541WFB","3FVBZG9CLKK1M1GPZWGJX51HFG80HB","31HQ4X3T3UG6WQHLPLJ2ONVWA0SSLE","emotion","mismatch","uniform","","","","","","","","242663.69999992847","244675.19999992847","","","","","","","","","","","","7","","stimuli/stars_7.png","127.5","","","","","stimuli/AM09_SUR.jpg","",""
"explore-choice","89","242344","0.0-89.0","p219921","APVJEN2541WFB","3FVBZG9CLKK1M1GPZWGJX51HFG80HB","31HQ4X3T3UG6WQHLPLJ2ONVWA0SSLE","emotion","mismatch","uniform","","","","","","","922","244679.10000002384","245601.10000002384","[""stimuli/BF05_SUR.jpg"",""stimuli/BF06_SC.jpg"",""stimuli/BM16_HO.jpg"",""stimuli/AM09_HE.jpg""]","stimuli/BF05_SUR.jpg","stimuli/BF06_SC.jpg","stimuli/BM16_HO.jpg","stimuli/AM09_HE.jpg","pos1","stimuli/BF05_SUR.jpg","SUR","BF05","0","2","4","6","stimuli/stars_4.png","129.5","[""SUR"",""SC"",""HO"",""HE""]","[""BF05"",""BF06"",""BM16"",""AM09""]","[4,1,10,3]","[6,2,8,4]","","",""
"show-reward","90","244370","0.0-90.0","p219921","APVJEN2541WFB","3FVBZG9CLKK1M1GPZWGJX51HFG80HB","31HQ4X3T3UG6WQHLPLJ2ONVWA0SSLE","emotion","mismatch","uniform","","","","","","","","246116.79999995232","248135.5","","","","","","","","","","","","4","","stimuli/stars_4.png","129.5","","","","","stimuli/BF05_SUR.jpg","",""
"explore-choice","91","245670","0.0-91.0","p219921","APVJEN2541WFB","3FVBZG9CLKK1M1GPZWGJX51HFG80HB","31HQ4X3T3UG6WQHLPLJ2ONVWA0SSLE","emotion","mismatch","uniform","","","","","","","787.6999999284744","248138.5","248926.19999992847","[""stimuli/BF06_HE.jpg"",""stimuli/BM16_SUR.jpg"",""stimuli/BF05_HO.jpg"",""stimuli/AM09_SC.jpg""]","stimuli/BF06_HE.jpg","stimuli/BM16_SUR.jpg","stimuli/BF05_HO.jpg","stimuli/AM09_SC.jpg","pos2","stimuli/BM16_SUR.jpg","SUR","BM16","1","4","8","6","stimuli/stars_8.png","133.5","[""HE"",""SUR"",""HO"",""SC""]","[""BF06"",""BM16"",""BF05"",""AM09""]","[5,8,9,4]","[4,6,8,2]","","",""
"show-reward","92","247694","0.0-92.0","p219921","APVJEN2541WFB","3FVBZG9CLKK1M1GPZWGJX51HFG80HB","31HQ4X3T3UG6WQHLPLJ2ONVWA0SSLE","emotion","mismatch","uniform","","","","","","","","249438.89999997616","251458.79999995232","","","","","","","","","","","","8","","stimuli/stars_8.png","133.5","","","","","stimuli/BM16_SUR.jpg","",""
"explore-choice","93","249591","0.0-93.0","p219921","APVJEN2541WFB","3FVBZG9CLKK1M1GPZWGJX51HFG80HB","31HQ4X3T3UG6WQHLPLJ2ONVWA0SSLE","emotion","mismatch","uniform","","","","","","","1387.1999999284744","251464","252851.19999992847","[""stimuli/BF06_HO.jpg"",""stimuli/BF05_HE.jpg"",""stimuli/BM16_SC.jpg"",""stimuli/AM09_SUR.jpg""]","stimuli/BF06_HO.jpg","stimuli/BF05_HE.jpg","stimuli/BM16_SC.jpg","stimuli/AM09_SUR.jpg","pos4","stimuli/AM09_SUR.jpg","SUR","AM09","3","3","6","6","stimuli/stars_6.png","136.5","[""HO"",""HE"",""SC"",""SUR""]","[""BF06"",""BF05"",""BM16"",""AM09""]","[8,4,0,6]","[8,4,2,6]","","",""
"show-reward","94","251632","0.0-94.0","p219921","APVJEN2541WFB","3FVBZG9CLKK1M1GPZWGJX51HFG80HB","31HQ4X3T3UG6WQHLPLJ2ONVWA0SSLE","emotion","mismatch","uniform","","","","","","","","253360","255397.19999992847","","","","","","","","","","","","6","","stimuli/stars_6.png","136.5","","","","","stimuli/AM09_SUR.jpg","",""
"explore-choice","95","254969","0.0-95.0","p219921","APVJEN2541WFB","3FVBZG9CLKK1M1GPZWGJX51HFG80HB","31HQ4X3T3UG6WQHLPLJ2ONVWA0SSLE","emotion","mismatch","uniform","","","","","","","2825.399999976158","255401.10000002384","258226.5","[""stimuli/BF06_HO.jpg"",""stimuli/BF05_SUR.jpg"",""stimuli/AM09_HE.jpg"",""stimuli/BM16_SC.jpg""]","stimuli/BF06_HO.jpg","stimuli/BF05_SUR.jpg","stimuli/AM09_HE.jpg","stimuli/BM16_SC.jpg","pos3","stimuli/AM09_HE.jpg","HE","AM09","2","2.5","5","4","stimuli/stars_5.png","139","[""HO"",""SUR"",""HE"",""SC""]","[""BF06"",""BF05"",""AM09"",""BM16""]","[6,7,5,4]","[8,6,4,2]","","",""
"show-reward","96","256987","0.0-96.0","p219921","APVJEN2541WFB","3FVBZG9CLKK1M1GPZWGJX51HFG80HB","31HQ4X3T3UG6WQHLPLJ2ONVWA0SSLE","emotion","mismatch","uniform","","","","","","","","258738","260751.5","","","","","","","","","","","","5","","stimuli/stars_5.png","139","","","","","stimuli/AM09_HE.jpg","",""
"explore-choice","97","258192","0.0-97.0","p219921","APVJEN2541WFB","3FVBZG9CLKK1M1GPZWGJX51HFG80HB","31HQ4X3T3UG6WQHLPLJ2ONVWA0SSLE","emotion","mismatch","uniform","","","","","","","676.0999999046326","260756.10000002384","261432.19999992847","[""stimuli/BF05_HO.jpg"",""stimuli/AM09_SC.jpg"",""stimuli/BM16_HE.jpg"",""stimuli/BF06_SUR.jpg""]","stimuli/BF05_HO.jpg","stimuli/AM09_SC.jpg","stimuli/BM16_HE.jpg","stimuli/BF06_SUR.jpg","pos1","stimuli/BF05_HO.jpg","HO","BF05","0","3.5","7","8","stimuli/stars_7.png","142.5","[""HO"",""SC"",""HE"",""SUR""]","[""BF05"",""AM09"",""BM16"",""BF06""]","[7,1,4,7]","[8,2,4,6]","","",""
"show-reward","98","260250","0.0-98.0","p219921","APVJEN2541WFB","3FVBZG9CLKK1M1GPZWGJX51HFG80HB","31HQ4X3T3UG6WQHLPLJ2ONVWA0SSLE","emotion","mismatch","uniform","","","","","","","","261970.39999997616","264015.10000002384","","","","","","","","","","","","7","","stimuli/stars_7.png","142.5","","","","","stimuli/BF05_HO.jpg","",""
"explore-choice","99","262166","0.0-99.0","p219921","APVJEN2541WFB","3FVBZG9CLKK1M1GPZWGJX51HFG80HB","31HQ4X3T3UG6WQHLPLJ2ONVWA0SSLE","emotion","mismatch","uniform","","","","","","","1408.2999999523163","264018.10000002384","265426.39999997616","[""stimuli/BM16_HE.jpg"",""stimuli/BF05_SC.jpg"",""stimuli/AM09_SUR.jpg"",""stimuli/BF06_HO.jpg""]","stimuli/BM16_HE.jpg","stimuli/BF05_SC.jpg","stimuli/AM09_SUR.jpg","stimuli/BF06_HO.jpg","pos4","stimuli/BF06_HO.jpg","HO","BF06","3","4","8","8","stimuli/stars_8.png","146.5","[""HE"",""SC"",""SUR"",""HO""]","[""BM16"",""BF05"",""AM09"",""BF06""]","[5,4,5,8]","[4,2,6,8]","","",""
"show-reward","100","264186","0.0-100.0","p219921","APVJEN2541WFB","3FVBZG9CLKK1M1GPZWGJX51HFG80HB","31HQ4X3T3UG6WQHLPLJ2ONVWA0SSLE","emotion","mismatch","uniform","","","","","","","","265935.2999999523","267950.89999997616","","","","","","","","","","","","8","","stimuli/stars_8.png","146.5","","","","","stimuli/BF06_HO.jpg","",""
"explore-choice","101","266129","0.0-101.0","p219921","APVJEN2541WFB","3FVBZG9CLKK1M1GPZWGJX51HFG80HB","31HQ4X3T3UG6WQHLPLJ2ONVWA0SSLE","emotion","mismatch","uniform","","","","","","","1422.2000000476837","267954.1999999285","269376.39999997616","[""stimuli/BF05_HO.jpg"",""stimuli/AM09_HE.jpg"",""stimuli/BF06_SUR.jpg"",""stimuli/BM16_SC.jpg""]","stimuli/BF05_HO.jpg","stimuli/AM09_HE.jpg","stimuli/BF06_SUR.jpg","stimuli/BM16_SC.jpg","pos1","stimuli/BF05_HO.jpg","HO","BF05","0","5","10","8","stimuli/stars_10.png","151.5","[""HO"",""HE"",""SUR"",""SC""]","[""BF05"",""AM09"",""BF06"",""BM16""]","[10,6,7,2]","[8,4,6,2]","","",""
"show-reward","102","268167","0.0-102.0","p219921","APVJEN2541WFB","3FVBZG9CLKK1M1GPZWGJX51HFG80HB","31HQ4X3T3UG6WQHLPLJ2ONVWA0SSLE","emotion","mismatch","uniform","","","","","","","","269898.7999999523","271932.6999999285","","","","","","","","","","","","10","","stimuli/stars_10.png","151.5","","","","","stimuli/BF05_HO.jpg","",""
"explore-choice","103","273123","0.0-103.0","p219921","APVJEN2541WFB","3FVBZG9CLKK1M1GPZWGJX51HFG80HB","31HQ4X3T3UG6WQHLPLJ2ONVWA0SSLE","emotion","mismatch","uniform","","","","","","","4450.199999928474","271936.10000002384","276386.2999999523","[""stimuli/WF06_DO.jpg"",""stimuli/HM07_CC.jpg"",""stimuli/BF08_FO.jpg"",""stimuli/AF11_AO.jpg""]","stimuli/WF06_DO.jpg","stimuli/HM07_CC.jpg","stimuli/BF08_FO.jpg","stimuli/AF11_AO.jpg","pos2","stimuli/HM07_CC.jpg","CC","HM07","1","1.5","3","2","stimuli/stars_3.png","153","[""DO"",""CC"",""FO"",""AO""]","[""WF06"",""HM07"",""BF08"",""AF11""]","[3,3,7,9]","[4,2,6,8]","","",""
"show-reward","104","275148","0.0-104.0","p219921","APVJEN2541WFB","3FVBZG9CLKK1M1GPZWGJX51HFG80HB","31HQ4X3T3UG6WQHLPLJ2ONVWA0SSLE","emotion","mismatch","uniform","","","","","","","","276892.2999999523","278913.10000002384","","","","","","","","","","","","3","","stimuli/stars_3.png","153","","","","","stimuli/HM07_CC.jpg","",""
"explore-choice","105","278840","0.0-105.0","p219921","APVJEN2541WFB","3FVBZG9CLKK1M1GPZWGJX51HFG80HB","31HQ4X3T3UG6WQHLPLJ2ONVWA0SSLE","emotion","mismatch","uniform","","","","","","","3184.6999999284744","278916.60000002384","282101.2999999523","[""stimuli/AF11_CC.jpg"",""stimuli/HM07_DO.jpg"",""stimuli/BF08_AO.jpg"",""stimuli/WF06_FO.jpg""]","stimuli/AF11_CC.jpg","stimuli/HM07_DO.jpg","stimuli/BF08_AO.jpg","stimuli/WF06_FO.jpg","pos4","stimuli/WF06_FO.jpg","FO","WF06","3","3","6","4","stimuli/stars_6.png","156","[""CC"",""DO"",""AO"",""FO""]","[""AF11"",""HM07"",""BF08"",""WF06""]","[10,4,4,6]","[8,2,6,4]","","",""
"show-reward","106","280870","0.0-106.0","p219921","APVJEN2541WFB","3FVBZG9CLKK1M1GPZWGJX51HFG80HB","31HQ4X3T3UG6WQHLPLJ2ONVWA0SSLE","emotion","mismatch","uniform","","","","","","","","282610.1999999285","284634.89999997616","","","","","","","","","","","","6","","stimuli/stars_6.png","156","","","","","stimuli/WF06_FO.jpg","",""
"explore-choice","107","283269","0.0-107.0","p219921","APVJEN2541WFB","3FVBZG9CLKK1M1GPZWGJX51HFG80HB","31HQ4X3T3UG6WQHLPLJ2ONVWA0SSLE","emotion","mismatch","uniform","","","","","","","1887.3999999761581","284638.60000002384","286526","[""stimuli/HM07_FO.jpg"",""stimuli/BF08_DO.jpg"",""stimuli/WF06_CC.jpg"",""stimuli/AF11_AO.jpg""]","stimuli/HM07_FO.jpg","stimuli/BF08_DO.jpg","stimuli/WF06_CC.jpg","stimuli/AF11_AO.jpg","pos1","stimuli/HM07_FO.jpg","FO","HM07","0","2","4","2","stimuli/stars_4.png","158","[""FO"",""DO"",""CC"",""AO""]","[""HM07"",""BF08"",""WF06"",""AF11""]","[4,5,3,6]","[2,6,4,8]","","",""
"show-reward","108","285304","0.0-108.0","p219921","APVJEN2541WFB","3FVBZG9CLKK1M1GPZWGJX51HFG80HB","31HQ4X3T3UG6WQHLPLJ2ONVWA0SSLE","emotion","mismatch","uniform","","","","","","","","287038.39999997616","289069.39999997616","","","","","","","","","","","","4","","stimuli/stars_4.png","158","","","","","stimuli/HM07_FO.jpg","",""
"explore-choice","109","288168","0.0-109.0","p219921","APVJEN2541WFB","3FVBZG9CLKK1M1GPZWGJX51HFG80HB","31HQ4X3T3UG6WQHLPLJ2ONVWA0SSLE","emotion","mismatch","uniform","","","","","","","2353.2999999523163","289072.89999997616","291426.1999999285","[""stimuli/BF08_AO.jpg"",""stimuli/WF06_FO.jpg"",""stimuli/HM07_CC.jpg"",""stimuli/AF11_DO.jpg""]","stimuli/BF08_AO.jpg","stimuli/WF06_FO.jpg","stimuli/HM07_CC.jpg","stimuli/AF11_DO.jpg","pos2","stimuli/WF06_FO.jpg","FO","WF06","1","3","6","4","stimuli/stars_6.png","161","[""AO"",""FO"",""CC"",""DO""]","[""BF08"",""WF06"",""HM07"",""AF11""]","[5,6,4,9]","[6,4,2,8]","","",""
"show-reward","110","290188","0.0-110.0","p219921","APVJEN2541WFB","3FVBZG9CLKK1M1GPZWGJX51HFG80HB","31HQ4X3T3UG6WQHLPLJ2ONVWA0SSLE","emotion","mismatch","uniform","","","","","","","","291936.7999999523","293953.1999999285","","","","","","","","","","","","6","","stimuli/stars_6.png","161","","","","","stimuli/WF06_FO.jpg","",""
"explore-choice","111","292753","0.0-111.0","p219921","APVJEN2541WFB","3FVBZG9CLKK1M1GPZWGJX51HFG80HB","31HQ4X3T3UG6WQHLPLJ2ONVWA0SSLE","emotion","mismatch","uniform","","","","","","","2042.8999999761581","293958.60000002384","296001.5","[""stimuli/BF08_FO.jpg"",""stimuli/HM07_DO.jpg"",""stimuli/WF06_AO.jpg"",""stimuli/AF11_CC.jpg""]","stimuli/BF08_FO.jpg","stimuli/HM07_DO.jpg","stimuli/WF06_AO.jpg","stimuli/AF11_CC.jpg","pos4","stimuli/AF11_CC.jpg","CC","AF11","3","4.5","9","8","stimuli/stars_9.png","165.5","[""FO"",""DO"",""AO"",""CC""]","[""BF08"",""HM07"",""WF06"",""AF11""]","[6,2,3,9]","[6,2,4,8]","","",""
"show-reward","112","294769","0.0-112.0","p219921","APVJEN2541WFB","3FVBZG9CLKK1M1GPZWGJX51HFG80HB","31HQ4X3T3UG6WQHLPLJ2ONVWA0SSLE","emotion","mismatch","uniform","","","","","","","","296520.89999997616","298534.5","","","","","","","","","","","","9","","stimuli/stars_9.png","165.5","","","","","stimuli/AF11_CC.jpg","",""
"explore-choice","113","296366","0.0-113.0","p219921","APVJEN2541WFB","3FVBZG9CLKK1M1GPZWGJX51HFG80HB","31HQ4X3T3UG6WQHLPLJ2ONVWA0SSLE","emotion","mismatch","uniform","","","","","","","1087.5","298538.2999999523","299625.7999999523","[""stimuli/WF06_CC.jpg"",""stimuli/HM07_AO.jpg"",""stimuli/BF08_FO.jpg"",""stimuli/AF11_DO.jpg""]","stimuli/WF06_CC.jpg","stimuli/HM07_AO.jpg","stimuli/BF08_FO.jpg","stimuli/AF11_DO.jpg","pos1","stimuli/WF06_CC.jpg","CC","WF06","0","2.5","5","4","stimuli/stars_5.png","168","[""CC"",""AO"",""FO"",""DO""]","[""WF06"",""HM07"",""BF08"",""AF11""]","[5,2,6,8]","[4,2,6,8]","","",""
"show-reward","114","298388","0.0-114.0","p219921","APVJEN2541WFB","3FVBZG9CLKK1M1GPZWGJX51HFG80HB","31HQ4X3T3UG6WQHLPLJ2ONVWA0SSLE","emotion","mismatch","uniform","","","","","","","","300134.1999999285","302153.2999999523","","","","","","","","","","","","5","","stimuli/stars_5.png","168","","","","","stimuli/WF06_CC.jpg","",""
"explore-choice","115","300266","0.0-115.0","p219921","APVJEN2541WFB","3FVBZG9CLKK1M1GPZWGJX51HFG80HB","31HQ4X3T3UG6WQHLPLJ2ONVWA0SSLE","emotion","mismatch","uniform","","","","","","","1367.6000000238419","302158.2999999523","303525.89999997616","[""stimuli/BF08_FO.jpg"",""stimuli/AF11_DO.jpg"",""stimuli/HM07_CC.jpg"",""stimuli/WF06_AO.jpg""]","stimuli/BF08_FO.jpg","stimuli/AF11_DO.jpg","stimuli/HM07_CC.jpg","stimuli/WF06_AO.jpg","pos3","stimuli/HM07_CC.jpg","CC","HM07","2","0","0","2","stimuli/stars_0.png","168","[""FO"",""DO"",""CC"",""AO""]","[""BF08"",""AF11"",""HM07"",""WF06""]","[8,6,0,3]","[6,8,2,4]","","",""
"show-reward","116","302297","0.0-116.0","p219921","APVJEN2541WFB","3FVBZG9CLKK1M1GPZWGJX51HFG80HB","31HQ4X3T3UG6WQHLPLJ2ONVWA0SSLE","emotion","mismatch","uniform","","","","","","","","304033.7999999523","306061.7999999523","","","","","","","","","","","","0","","stimuli/stars_0.png","168","","","","","stimuli/HM07_CC.jpg","",""
"explore-choice","117","305127","0.0-117.0","p219921","APVJEN2541WFB","3FVBZG9CLKK1M1GPZWGJX51HFG80HB","31HQ4X3T3UG6WQHLPLJ2ONVWA0SSLE","emotion","mismatch","uniform","","","","","","","2310.7000000476837","306065.2999999523","308376","[""stimuli/HM07_FO.jpg"",""stimuli/WF06_AO.jpg"",""stimuli/BF08_DO.jpg"",""stimuli/AF11_CC.jpg""]","stimuli/HM07_FO.jpg","stimuli/WF06_AO.jpg","stimuli/BF08_DO.jpg","stimuli/AF11_CC.jpg","pos4","stimuli/AF11_CC.jpg","CC","AF11","3","4.5","9","8","stimuli/stars_9.png","172.5","[""FO"",""AO"",""DO"",""CC""]","[""HM07"",""WF06"",""BF08"",""AF11""]","[3,5,7,9]","[2,4,6,8]","","",""
"show-reward","118","307139","0.0-118.0","p219921","APVJEN2541WFB","3FVBZG9CLKK1M1GPZWGJX51HFG80HB","31HQ4X3T3UG6WQHLPLJ2ONVWA0SSLE","emotion","mismatch","uniform","","","","","","","","308894.39999997616","310904","","","","","","","","","","","","9","","stimuli/stars_9.png","172.5","","","","","stimuli/AF11_CC.jpg","",""
"explore-choice","119","308614","0.0-119.0","p219921","APVJEN2541WFB","3FVBZG9CLKK1M1GPZWGJX51HFG80HB","31HQ4X3T3UG6WQHLPLJ2ONVWA0SSLE","emotion","mismatch","uniform","","","","","","","969.6999999284744","310906.10000002384","311875.7999999523","[""stimuli/AF11_FO.jpg"",""stimuli/WF06_AO.jpg"",""stimuli/BF08_DO.jpg"",""stimuli/HM07_CC.jpg""]","stimuli/AF11_FO.jpg","stimuli/WF06_AO.jpg","stimuli/BF08_DO.jpg","stimuli/HM07_CC.jpg","pos1","stimuli/AF11_FO.jpg","FO","AF11","0","4.5","9","8","stimuli/stars_9.png","177","[""FO"",""AO"",""DO"",""CC""]","[""AF11"",""WF06"",""BF08"",""HM07""]","[9,3,5,0]","[8,4,6,2]","","",""
"show-reward","120","310632","0.0-120.0","p219921","APVJEN2541WFB","3FVBZG9CLKK1M1GPZWGJX51HFG80HB","31HQ4X3T3UG6WQHLPLJ2ONVWA0SSLE","emotion","mismatch","uniform","","","","","","","","312382.1999999285","314397.1999999285","","","","","","","","","","","","9","","stimuli/stars_9.png","177","","","","","stimuli/AF11_FO.jpg","",""
"explore-choice","121","311765","0.0-121.0","p219921","APVJEN2541WFB","3FVBZG9CLKK1M1GPZWGJX51HFG80HB","31HQ4X3T3UG6WQHLPLJ2ONVWA0SSLE","emotion","mismatch","uniform","","","","","","","621.3999999761581","314400.2999999523","315021.6999999285","[""stimuli/AF11_FO.jpg"",""stimuli/BF08_DO.jpg"",""stimuli/HM07_AO.jpg"",""stimuli/WF06_CC.jpg""]","stimuli/AF11_FO.jpg","stimuli/BF08_DO.jpg","stimuli/HM07_AO.jpg","stimuli/WF06_CC.jpg","pos1","stimuli/AF11_FO.jpg","FO","AF11","0","3.5","7","8","stimuli/stars_7.png","180.5","[""FO"",""DO"",""AO"",""CC""]","[""AF11"",""BF08"",""HM07"",""WF06""]","[7,7,3,4]","[8,6,2,4]","","",""
"show-reward","122","313786","0.0-122.0","p219921","APVJEN2541WFB","3FVBZG9CLKK1M1GPZWGJX51HFG80HB","31HQ4X3T3UG6WQHLPLJ2ONVWA0SSLE","emotion","mismatch","uniform","","","","","","","","315533.5","317550.7999999523","","","","","","","","","","","","7","","stimuli/stars_7.png","180.5","","","","","stimuli/AF11_FO.jpg","",""
"explore-choice","123","316775","0.0-123.0","p219921","APVJEN2541WFB","3FVBZG9CLKK1M1GPZWGJX51HFG80HB","31HQ4X3T3UG6WQHLPLJ2ONVWA0SSLE","emotion","mismatch","uniform","","","","","","","2477.100000023842","317554.2999999523","320031.39999997616","[""stimuli/BF08_CC.jpg"",""stimuli/WF06_FO.jpg"",""stimuli/AF11_AO.jpg"",""stimuli/HM07_DO.jpg""]","stimuli/BF08_CC.jpg","stimuli/WF06_FO.jpg","stimuli/AF11_AO.jpg","stimuli/HM07_DO.jpg","pos3","stimuli/AF11_AO.jpg","AO","AF11","2","3","6","8","stimuli/stars_6.png","183.5","[""CC"",""FO"",""AO"",""DO""]","[""BF08"",""WF06"",""AF11"",""HM07""]","[7,3,6,1]","[6,4,8,2]","","",""
"show-reward","124","318798","0.0-124.0","p219921","APVJEN2541WFB","3FVBZG9CLKK1M1GPZWGJX51HFG80HB","31HQ4X3T3UG6WQHLPLJ2ONVWA0SSLE","emotion","mismatch","uniform","","","","","","","","320543.2999999523","322559","","","","","","","","","","","","6","","stimuli/stars_6.png","183.5","","","","","stimuli/AF11_AO.jpg","",""
"explore-choice","125","320712","0.0-125.0","p219921","APVJEN2541WFB","3FVBZG9CLKK1M1GPZWGJX51HFG80HB","31HQ4X3T3UG6WQHLPLJ2ONVWA0SSLE","emotion","mismatch","uniform","","","","","","","1410.7999999523163","322565.5","323976.2999999523","[""stimuli/BF08_AO.jpg"",""stimuli/WF06_CC.jpg"",""stimuli/HM07_FO.jpg"",""stimuli/AF11_DO.jpg""]","stimuli/BF08_AO.jpg","stimuli/WF06_CC.jpg","stimuli/HM07_FO.jpg","stimuli/AF11_DO.jpg","pos4","stimuli/AF11_DO.jpg","DO","AF11","3","4","8","8","stimuli/stars_8.png","187.5","[""AO"",""CC"",""FO"",""DO""]","[""BF08"",""WF06"",""HM07"",""AF11""]","[5,2,3,8]","[6,4,2,8]","","",""
"show-reward","126","322734","0.0-126.0","p219921","APVJEN2541WFB","3FVBZG9CLKK1M1GPZWGJX51HFG80HB","31HQ4X3T3UG6WQHLPLJ2ONVWA0SSLE","emotion","mismatch","uniform","","","","","","","","324480","326499.1999999285","","","","","","","","","","","","8","","stimuli/stars_8.png","187.5","","","","","stimuli/AF11_DO.jpg","",""
"explore-choice","127","324368","0.0-127.0","p219921","APVJEN2541WFB","3FVBZG9CLKK1M1GPZWGJX51HFG80HB","31HQ4X3T3UG6WQHLPLJ2ONVWA0SSLE","emotion","mismatch","uniform","","","","","","","1122.3999999761581","326503.10000002384","327625.5","[""stimuli/HM07_DO.jpg"",""stimuli/AF11_FO.jpg"",""stimuli/BF08_CC.jpg"",""stimuli/WF06_AO.jpg""]","stimuli/HM07_DO.jpg","stimuli/AF11_FO.jpg","stimuli/BF08_CC.jpg","stimuli/WF06_AO.jpg","pos2","stimuli/AF11_FO.jpg","FO","AF11","1","3","6","8","stimuli/stars_6.png","190.5","[""DO"",""FO"",""CC"",""AO""]","[""HM07"",""AF11"",""BF08"",""WF06""]","[2,6,4,2]","[2,8,6,4]","","",""
"show-reward","128","326383","0.0-128.0","p219921","APVJEN2541WFB","3FVBZG9CLKK1M1GPZWGJX51HFG80HB","31HQ4X3T3UG6WQHLPLJ2ONVWA0SSLE","emotion","mismatch","uniform","","","","","","","","328135.39999997616","330147.89999997616","","","","","","","","","","","","6","","stimuli/stars_6.png","190.5","","","","","stimuli/AF11_FO.jpg","",""
"explore-choice","129","328117","0.0-129.0","p219921","APVJEN2541WFB","3FVBZG9CLKK1M1GPZWGJX51HFG80HB","31HQ4X3T3UG6WQHLPLJ2ONVWA0SSLE","emotion","mismatch","uniform","","","","","","","1223.8999999761581","330151.7999999523","331375.6999999285","[""stimuli/WF06_CC.jpg"",""stimuli/HM07_DO.jpg"",""stimuli/AF11_AO.jpg"",""stimuli/BF08_FO.jpg""]","stimuli/WF06_CC.jpg","stimuli/HM07_DO.jpg","stimuli/AF11_AO.jpg","stimuli/BF08_FO.jpg","pos3","stimuli/AF11_AO.jpg","AO","AF11","2","5","10","8","stimuli/stars_10.png","195.5","[""CC"",""DO"",""AO"",""FO""]","[""WF06"",""HM07"",""AF11"",""BF08""]","[3,4,10,5]","[4,2,8,6]","","",""
"show-reward","130","330145","0.0-130.0","p219921","APVJEN2541WFB","3FVBZG9CLKK1M1GPZWGJX51HFG80HB","31HQ4X3T3UG6WQHLPLJ2ONVWA0SSLE","emotion","mismatch","uniform","","","","","","","","331885.5","333908.89999997616","","","","","","","","","","","","10","","stimuli/stars_10.png","195.5","","","","","stimuli/AF11_AO.jpg","",""
"explore-choice","131","331975","0.0-131.0","p219921","APVJEN2541WFB","3FVBZG9CLKK1M1GPZWGJX51HFG80HB","31HQ4X3T3UG6WQHLPLJ2ONVWA0SSLE","emotion","mismatch","uniform","","","","","","","1311.9000000953674","333913.6999999285","335225.60000002384","[""stimuli/AF11_DO.jpg"",""stimuli/WF06_AO.jpg"",""stimuli/BF08_CC.jpg"",""stimuli/HM07_FO.jpg""]","stimuli/AF11_DO.jpg","stimuli/WF06_AO.jpg","stimuli/BF08_CC.jpg","stimuli/HM07_FO.jpg","pos1","stimuli/AF11_DO.jpg","DO","AF11","0","4","8","8","stimuli/stars_8.png","199.5","[""DO"",""AO"",""CC"",""FO""]","[""AF11"",""WF06"",""BF08"",""HM07""]","[8,5,7,2]","[8,4,6,2]","","",""
"show-reward","132","334006","0.0-132.0","p219921","APVJEN2541WFB","3FVBZG9CLKK1M1GPZWGJX51HFG80HB","31HQ4X3T3UG6WQHLPLJ2ONVWA0SSLE","emotion","mismatch","uniform","","","","","","","","335742.7999999523","337770.10000002384","","","","","","","","","","","","8","","stimuli/stars_8.png","199.5","","","","","stimuli/AF11_DO.jpg","",""
"explore-choice","133","335348","0.0-133.0","p219921","APVJEN2541WFB","3FVBZG9CLKK1M1GPZWGJX51HFG80HB","31HQ4X3T3UG6WQHLPLJ2ONVWA0SSLE","emotion","mismatch","uniform","","","","","","","827.7000000476837","337773.7999999523","338601.5","[""stimuli/BF08_AO.jpg"",""stimuli/AF11_FO.jpg"",""stimuli/HM07_DO.jpg"",""stimuli/WF06_CC.jpg""]","stimuli/BF08_AO.jpg","stimuli/AF11_FO.jpg","stimuli/HM07_DO.jpg","stimuli/WF06_CC.jpg","pos2","stimuli/AF11_FO.jpg","FO","AF11","1","3.5","7","8","stimuli/stars_7.png","203","[""AO"",""FO"",""DO"",""CC""]","[""BF08"",""AF11"",""HM07"",""WF06""]","[5,7,2,5]","[6,8,2,4]","","",""
"show-reward","134","337389","0.0-134.0","p219921","APVJEN2541WFB","3FVBZG9CLKK1M1GPZWGJX51HFG80HB","31HQ4X3T3UG6WQHLPLJ2ONVWA0SSLE","emotion","mismatch","uniform","","","","","","","","339132.89999997616","341154.1999999285","","","","","","","","","","","","7","","stimuli/stars_7.png","203","","","","","stimuli/AF11_FO.jpg","",""
"explore-choice","135","339094","0.0-135.0","p219921","APVJEN2541WFB","3FVBZG9CLKK1M1GPZWGJX51HFG80HB","31HQ4X3T3UG6WQHLPLJ2ONVWA0SSLE","emotion","mismatch","uniform","","","","","","","1192.3000000715256","341158.2999999523","342350.60000002384","[""stimuli/AF11_AO.jpg"",""stimuli/WF06_DO.jpg"",""stimuli/BF08_CC.jpg"",""stimuli/HM07_FO.jpg""]","stimuli/AF11_AO.jpg","stimuli/WF06_DO.jpg","stimuli/BF08_CC.jpg","stimuli/HM07_FO.jpg","pos1","stimuli/AF11_AO.jpg","AO","AF11","0","4.5","9","8","stimuli/stars_9.png","207.5","[""AO"",""DO"",""CC"",""FO""]","[""AF11"",""WF06"",""BF08"",""HM07""]","[9,3,7,1]","[8,4,6,2]","","",""
"show-reward","136","341114","0.0-136.0","p219921","APVJEN2541WFB","3FVBZG9CLKK1M1GPZWGJX51HFG80HB","31HQ4X3T3UG6WQHLPLJ2ONVWA0SSLE","emotion","mismatch","uniform","","","","","","","","342861.6999999285","344878.89999997616","","","","","","","","","","","","9","","stimuli/stars_9.png","207.5","","","","","stimuli/AF11_AO.jpg","",""
"explore-choice","137","343225","0.0-137.0","p219921","APVJEN2541WFB","3FVBZG9CLKK1M1GPZWGJX51HFG80HB","31HQ4X3T3UG6WQHLPLJ2ONVWA0SSLE","emotion","mismatch","uniform","","","","","","","1594.1000000238419","344882.39999997616","346476.5","[""stimuli/WF06_FO.jpg"",""stimuli/HM07_AO.jpg"",""stimuli/AF11_CC.jpg"",""stimuli/BF08_DO.jpg""]","stimuli/WF06_FO.jpg","stimuli/HM07_AO.jpg","stimuli/AF11_CC.jpg","stimuli/BF08_DO.jpg","pos3","stimuli/AF11_CC.jpg","CC","AF11","2","3.5","7","8","stimuli/stars_7.png","211","[""FO"",""AO"",""CC"",""DO""]","[""WF06"",""HM07"",""AF11"",""BF08""]","[6,2,7,8]","[4,2,8,6]","","",""
"show-reward","138","345241","0.0-138.0","p219921","APVJEN2541WFB","3FVBZG9CLKK1M1GPZWGJX51HFG80HB","31HQ4X3T3UG6WQHLPLJ2ONVWA0SSLE","emotion","mismatch","uniform","","","","","","","","346992.60000002384","349005.1999999285","","","","","","","","","","","","7","","stimuli/stars_7.png","211","","","","","stimuli/AF11_CC.jpg","",""
"explore-choice","139","347183","0.0-139.0","p219921","APVJEN2541WFB","3FVBZG9CLKK1M1GPZWGJX51HFG80HB","31HQ4X3T3UG6WQHLPLJ2ONVWA0SSLE","emotion","mismatch","uniform","","","","","","","1437.8999999761581","349009.10000002384","350447","[""stimuli/HM07_CC.jpg"",""stimuli/AF11_AO.jpg"",""stimuli/WF06_FO.jpg"",""stimuli/BF08_DO.jpg""]","stimuli/HM07_CC.jpg","stimuli/AF11_AO.jpg","stimuli/WF06_FO.jpg","stimuli/BF08_DO.jpg","pos2","stimuli/AF11_AO.jpg","AO","AF11","1","3.5","7","8","stimuli/stars_7.png","214.5","[""CC"",""AO"",""FO"",""DO""]","[""HM07"",""AF11"",""WF06"",""BF08""]","[4,7,3,5]","[2,8,4,6]","","",""
"show-reward","140","349201","0.0-140.0","p219921","APVJEN2541WFB","3FVBZG9CLKK1M1GPZWGJX51HFG80HB","31HQ4X3T3UG6WQHLPLJ2ONVWA0SSLE","emotion","mismatch","uniform","","","","","","","","350950.89999997616","352966.10000002384","","","","","","","","","","","","7","","stimuli/stars_7.png","214.5","","","","","stimuli/AF11_AO.jpg","",""
"explore-choice","141","351138","0.0-141.0","p219921","APVJEN2541WFB","3FVBZG9CLKK1M1GPZWGJX51HFG80HB","31HQ4X3T3UG6WQHLPLJ2ONVWA0SSLE","emotion","mismatch","uniform","","","","","","","1431.3999999761581","352969.2999999523","354400.6999999285","[""stimuli/HM07_AO.jpg"",""stimuli/AF11_DO.jpg"",""stimuli/BF08_CC.jpg"",""stimuli/WF06_FO.jpg""]","stimuli/HM07_AO.jpg","stimuli/AF11_DO.jpg","stimuli/BF08_CC.jpg","stimuli/WF06_FO.jpg","pos2","stimuli/AF11_DO.jpg","DO","AF11","1","3.5","7","8","stimuli/stars_7.png","218","[""AO"",""DO"",""CC"",""FO""]","[""HM07"",""AF11"",""BF08"",""WF06""]","[0,7,6,5]","[2,8,6,4]","","",""
"show-reward","142","353158","0.0-142.0","p219921","APVJEN2541WFB","3FVBZG9CLKK1M1GPZWGJX51HFG80HB","31HQ4X3T3UG6WQHLPLJ2ONVWA0SSLE","emotion","mismatch","uniform","","","","","","","","354906.89999997616","356923.10000002384","","","","","","","","","","","","7","","stimuli/stars_7.png","218","","","","","stimuli/AF11_DO.jpg","",""
"explore-choice","143","354504","0.0-143.0","p219921","APVJEN2541WFB","3FVBZG9CLKK1M1GPZWGJX51HFG80HB","31HQ4X3T3UG6WQHLPLJ2ONVWA0SSLE","emotion","mismatch","uniform","","","","","","","828.3999999761581","356927.89999997616","357756.2999999523","[""stimuli/AF11_CC.jpg"",""stimuli/BF08_AO.jpg"",""stimuli/HM07_FO.jpg"",""stimuli/WF06_DO.jpg""]","stimuli/AF11_CC.jpg","stimuli/BF08_AO.jpg","stimuli/HM07_FO.jpg","stimuli/WF06_DO.jpg","pos1","stimuli/AF11_CC.jpg","CC","AF11","0","3.5","7","8","stimuli/stars_7.png","221.5","[""CC"",""AO"",""FO"",""DO""]","[""AF11"",""BF08"",""HM07"",""WF06""]","[7,4,3,5]","[8,6,2,4]","","",""
"show-reward","144","356521","0.0-144.0","p219921","APVJEN2541WFB","3FVBZG9CLKK1M1GPZWGJX51HFG80HB","31HQ4X3T3UG6WQHLPLJ2ONVWA0SSLE","emotion","mismatch","uniform","","","","","","","","358272.39999997616","360285.89999997616","","","","","","","","","","","","7","","stimuli/stars_7.png","221.5","","","","","stimuli/AF11_CC.jpg","",""
"explore-choice","145","358842","0.0-145.0","p219921","APVJEN2541WFB","3FVBZG9CLKK1M1GPZWGJX51HFG80HB","31HQ4X3T3UG6WQHLPLJ2ONVWA0SSLE","emotion","mismatch","uniform","","","","","","","1811.8999999761581","360288.7999999523","362100.6999999285","[""stimuli/WF06_DO.jpg"",""stimuli/BF08_CC.jpg"",""stimuli/HM07_AO.jpg"",""stimuli/AF11_FO.jpg""]","stimuli/WF06_DO.jpg","stimuli/BF08_CC.jpg","stimuli/HM07_AO.jpg","stimuli/AF11_FO.jpg","pos4","stimuli/AF11_FO.jpg","FO","AF11","3","4","8","8","stimuli/stars_8.png","225.5","[""DO"",""CC"",""AO"",""FO""]","[""WF06"",""BF08"",""HM07"",""AF11""]","[3,5,1,8]","[4,6,2,8]","","",""
"show-reward","146","360856","0.0-146.0","p219921","APVJEN2541WFB","3FVBZG9CLKK1M1GPZWGJX51HFG80HB","31HQ4X3T3UG6WQHLPLJ2ONVWA0SSLE","emotion","mismatch","uniform","","","","","","","","362609.2999999523","364621.2999999523","","","","","","","","","","","","8","","stimuli/stars_8.png","225.5","","","","","stimuli/AF11_FO.jpg","",""
"explore-choice","147","362168","0.0-147.0","p219921","APVJEN2541WFB","3FVBZG9CLKK1M1GPZWGJX51HFG80HB","31HQ4X3T3UG6WQHLPLJ2ONVWA0SSLE","emotion","mismatch","uniform","","","","","","","802.0999999046326","364623.10000002384","365425.1999999285","[""stimuli/AF11_FO.jpg"",""stimuli/HM07_CC.jpg"",""stimuli/WF06_DO.jpg"",""stimuli/BF08_AO.jpg""]","stimuli/AF11_FO.jpg","stimuli/HM07_CC.jpg","stimuli/WF06_DO.jpg","stimuli/BF08_AO.jpg","pos1","stimuli/AF11_FO.jpg","FO","AF11","0","5","10","8","stimuli/stars_10.png","230.5","[""FO"",""CC"",""DO"",""AO""]","[""AF11"",""HM07"",""WF06"",""BF08""]","[10,0,6,6]","[8,2,4,6]","","",""
"show-reward","148","364183","0.0-148.0","p219921","APVJEN2541WFB","3FVBZG9CLKK1M1GPZWGJX51HFG80HB","31HQ4X3T3UG6WQHLPLJ2ONVWA0SSLE","emotion","mismatch","uniform","","","","","","","","365936.2999999523","367948.5","","","","","","","","","","","","10","","stimuli/stars_10.png","230.5","","","","","stimuli/AF11_FO.jpg","",""
"explore-choice","149","366027","0.0-149.0","p219921","APVJEN2541WFB","3FVBZG9CLKK1M1GPZWGJX51HFG80HB","31HQ4X3T3UG6WQHLPLJ2ONVWA0SSLE","emotion","mismatch","uniform","","","","","","","1332.0999999046326","367951.60000002384","369283.6999999285","[""stimuli/BF08_FO.jpg"",""stimuli/HM07_AO.jpg"",""stimuli/AF11_CC.jpg"",""stimuli/WF06_DO.jpg""]","stimuli/BF08_FO.jpg","stimuli/HM07_AO.jpg","stimuli/AF11_CC.jpg","stimuli/WF06_DO.jpg","pos3","stimuli/AF11_CC.jpg","CC","AF11","2","3.5","7","8","stimuli/stars_7.png","234","[""FO"",""AO"",""CC"",""DO""]","[""BF08"",""HM07"",""AF11"",""WF06""]","[6,2,7,2]","[6,2,8,4]","","",""
"show-reward","150","368050","0.0-150.0","p219921","APVJEN2541WFB","3FVBZG9CLKK1M1GPZWGJX51HFG80HB","31HQ4X3T3UG6WQHLPLJ2ONVWA0SSLE","emotion","mismatch","uniform","","","","","","","","369794.89999997616","371815.60000002384","","","","","","","","","","","","7","","stimuli/stars_7.png","234","","","","","stimuli/AF11_CC.jpg","",""
"explore-choice","151","369587","0.0-151.0","p219921","APVJEN2541WFB","3FVBZG9CLKK1M1GPZWGJX51HFG80HB","31HQ4X3T3UG6WQHLPLJ2ONVWA0SSLE","emotion","mismatch","uniform","","","","","","","1032.6000000238419","371817.5","372850.10000002384","[""stimuli/HM07_FO.jpg"",""stimuli/WF06_DO.jpg"",""stimuli/BF08_AO.jpg"",""stimuli/AF11_CC.jpg""]","stimuli/HM07_FO.jpg","stimuli/WF06_DO.jpg","stimuli/BF08_AO.jpg","stimuli/AF11_CC.jpg","pos4","stimuli/AF11_CC.jpg","CC","AF11","3","3.5","7","8","stimuli/stars_7.png","237.5","[""FO"",""DO"",""AO"",""CC""]","[""HM07"",""WF06"",""BF08"",""AF11""]","[3,5,4,7]","[2,4,6,8]","","",""
"show-reward","152","371612","0.0-152.0","p219921","APVJEN2541WFB","3FVBZG9CLKK1M1GPZWGJX51HFG80HB","31HQ4X3T3UG6WQHLPLJ2ONVWA0SSLE","emotion","mismatch","uniform","","","","","","","","373355","375376.89999997616","","","","","","","","","","","","7","","stimuli/stars_7.png","237.5","","","","","stimuli/AF11_CC.jpg","",""
"explore-choice","153","372845","0.0-153.0","p219921","APVJEN2541WFB","3FVBZG9CLKK1M1GPZWGJX51HFG80HB","31HQ4X3T3UG6WQHLPLJ2ONVWA0SSLE","emotion","mismatch","uniform","","","","","","","720.1000000238419","375380","376100.10000002384","[""stimuli/AF11_AO.jpg"",""stimuli/HM07_FO.jpg"",""stimuli/BF08_DO.jpg"",""stimuli/WF06_CC.jpg""]","stimuli/AF11_AO.jpg","stimuli/HM07_FO.jpg","stimuli/BF08_DO.jpg","stimuli/WF06_CC.jpg","pos1","stimuli/AF11_AO.jpg","AO","AF11","0","3","6","8","stimuli/stars_6.png","240.5","[""AO"",""FO"",""DO"",""CC""]","[""AF11"",""HM07"",""BF08"",""WF06""]","[6,4,5,3]","[8,2,6,4]","","",""
"show-reward","154","374876","0.0-154.0","p219921","APVJEN2541WFB","3FVBZG9CLKK1M1GPZWGJX51HFG80HB","31HQ4X3T3UG6WQHLPLJ2ONVWA0SSLE","emotion","mismatch","uniform","","","","","","","","376613.60000002384","378640.89999997616","","","","","","","","","","","","6","","stimuli/stars_6.png","240.5","","","","","stimuli/AF11_AO.jpg","",""
"explore-choice","155","376321","0.0-155.0","p219921","APVJEN2541WFB","3FVBZG9CLKK1M1GPZWGJX51HFG80HB","31HQ4X3T3UG6WQHLPLJ2ONVWA0SSLE","emotion","mismatch","uniform","","","","","","","930.3000000715256","378644.7999999523","379575.10000002384","[""stimuli/HM07_AO.jpg"",""stimuli/AF11_DO.jpg"",""stimuli/BF08_CC.jpg"",""stimuli/WF06_FO.jpg""]","stimuli/HM07_AO.jpg","stimuli/AF11_DO.jpg","stimuli/BF08_CC.jpg","stimuli/WF06_FO.jpg","pos2","stimuli/AF11_DO.jpg","DO","AF11","1","3.5","7","8","stimuli/stars_7.png","244","[""AO"",""DO"",""CC"",""FO""]","[""HM07"",""AF11"",""BF08"",""WF06""]","[0,7,6,5]","[2,8,6,4]","","",""
"show-reward","156","378349","0.0-156.0","p219921","APVJEN2541WFB","3FVBZG9CLKK1M1GPZWGJX51HFG80HB","31HQ4X3T3UG6WQHLPLJ2ONVWA0SSLE","emotion","mismatch","uniform","","","","","","","","380088.89999997616","382113.60000002384","","","","","","","","","","","","7","","stimuli/stars_7.png","244","","","","","stimuli/AF11_DO.jpg","",""
"explore-choice","157","380661","0.0-157.0","p219921","APVJEN2541WFB","3FVBZG9CLKK1M1GPZWGJX51HFG80HB","31HQ4X3T3UG6WQHLPLJ2ONVWA0SSLE","emotion","mismatch","uniform","","","","","","","1784.8999999761581","382117.10000002384","383902","[""stimuli/AF11_AO.jpg"",""stimuli/WF06_FO.jpg"",""stimuli/HM07_DO.jpg"",""stimuli/BF08_CC.jpg""]","stimuli/AF11_AO.jpg","stimuli/WF06_FO.jpg","stimuli/HM07_DO.jpg","stimuli/BF08_CC.jpg","pos1","stimuli/AF11_AO.jpg","AO","AF11","0","3","6","8","stimuli/stars_6.png","247","[""AO"",""FO"",""DO"",""CC""]","[""AF11"",""WF06"",""HM07"",""BF08""]","[6,3,1,7]","[8,4,2,6]","","",""
"show-reward","158","382689","0.0-158.0","p219921","APVJEN2541WFB","3FVBZG9CLKK1M1GPZWGJX51HFG80HB","31HQ4X3T3UG6WQHLPLJ2ONVWA0SSLE","emotion","mismatch","uniform","","","","","","","","384429.89999997616","386454.2999999523","","","","","","","","","","","","6","","stimuli/stars_6.png","247","","","","","stimuli/AF11_AO.jpg","",""
"explore-choice","159","384220","0.0-159.0","p219921","APVJEN2541WFB","3FVBZG9CLKK1M1GPZWGJX51HFG80HB","31HQ4X3T3UG6WQHLPLJ2ONVWA0SSLE","emotion","mismatch","uniform","","","","","","","1018.4000000953674","386457.1999999285","387475.60000002384","[""stimuli/WF06_AO.jpg"",""stimuli/BF08_FO.jpg"",""stimuli/HM07_DO.jpg"",""stimuli/AF11_CC.jpg""]","stimuli/WF06_AO.jpg","stimuli/BF08_FO.jpg","stimuli/HM07_DO.jpg","stimuli/AF11_CC.jpg","pos4","stimuli/AF11_CC.jpg","CC","AF11","3","4.5","9","8","stimuli/stars_9.png","251.5","[""AO"",""FO"",""DO"",""CC""]","[""WF06"",""BF08"",""HM07"",""AF11""]","[3,6,2,9]","[4,6,2,8]","","",""
"show-reward","160","386234","0.0-160.0","p219921","APVJEN2541WFB","3FVBZG9CLKK1M1GPZWGJX51HFG80HB","31HQ4X3T3UG6WQHLPLJ2ONVWA0SSLE","emotion","mismatch","uniform","","","","","","","","387987.6999999285","389998.39999997616","","","","","","","","","","","","9","","stimuli/stars_9.png","251.5","","","","","stimuli/AF11_CC.jpg","",""
"explore-choice","161","387892","0.0-161.0","p219921","APVJEN2541WFB","3FVBZG9CLKK1M1GPZWGJX51HFG80HB","31HQ4X3T3UG6WQHLPLJ2ONVWA0SSLE","emotion","mismatch","uniform","","","","","","","1148.3999999761581","390002.10000002384","391150.5","[""stimuli/HM07_AO.jpg"",""stimuli/WF06_DO.jpg"",""stimuli/BF08_CC.jpg"",""stimuli/AF11_FO.jpg""]","stimuli/HM07_AO.jpg","stimuli/WF06_DO.jpg","stimuli/BF08_CC.jpg","stimuli/AF11_FO.jpg","pos4","stimuli/AF11_FO.jpg","FO","AF11","3","4","8","8","stimuli/stars_8.png","255.5","[""AO"",""DO"",""CC"",""FO""]","[""HM07"",""WF06"",""BF08"",""AF11""]","[1,3,5,8]","[2,4,6,8]","","",""
"show-reward","162","389914","0.0-162.0","p219921","APVJEN2541WFB","3FVBZG9CLKK1M1GPZWGJX51HFG80HB","31HQ4X3T3UG6WQHLPLJ2ONVWA0SSLE","emotion","mismatch","uniform","","","","","","","","391660.2999999523","393679.10000002384","","","","","","","","","","","","8","","stimuli/stars_8.png","255.5","","","","","stimuli/AF11_FO.jpg","",""
"explore-choice","163","391916","0.0-163.0","p219921","APVJEN2541WFB","3FVBZG9CLKK1M1GPZWGJX51HFG80HB","31HQ4X3T3UG6WQHLPLJ2ONVWA0SSLE","emotion","mismatch","uniform","","","","","","","1492.8000000715256","393682.6999999285","395175.5","[""stimuli/WF06_AO.jpg"",""stimuli/AF11_FO.jpg"",""stimuli/HM07_CC.jpg"",""stimuli/BF08_DO.jpg""]","stimuli/WF06_AO.jpg","stimuli/AF11_FO.jpg","stimuli/HM07_CC.jpg","stimuli/BF08_DO.jpg","pos2","stimuli/AF11_FO.jpg","FO","AF11","1","4.5","9","8","stimuli/stars_9.png","260","[""AO"",""FO"",""CC"",""DO""]","[""WF06"",""AF11"",""HM07"",""BF08""]","[3,9,0,5]","[4,8,2,6]","","",""
"show-reward","164","393946","0.0-164.0","p219921","APVJEN2541WFB","3FVBZG9CLKK1M1GPZWGJX51HFG80HB","31HQ4X3T3UG6WQHLPLJ2ONVWA0SSLE","emotion","mismatch","uniform","","","","","","","","395684.5","397711.1999999285","","","","","","","","","","","","9","","stimuli/stars_9.png","260","","","","","stimuli/AF11_FO.jpg","",""
"explore-choice","165","395403","0.0-165.0","p219921","APVJEN2541WFB","3FVBZG9CLKK1M1GPZWGJX51HFG80HB","31HQ4X3T3UG6WQHLPLJ2ONVWA0SSLE","emotion","mismatch","uniform","","","","","","","938.2999999523163","397715","398653.2999999523","[""stimuli/HM07_DO.jpg"",""stimuli/AF11_FO.jpg"",""stimuli/WF06_CC.jpg"",""stimuli/BF08_AO.jpg""]","stimuli/HM07_DO.jpg","stimuli/AF11_FO.jpg","stimuli/WF06_CC.jpg","stimuli/BF08_AO.jpg","pos2","stimuli/AF11_FO.jpg","FO","AF11","1","3.5","7","8","stimuli/stars_7.png","263.5","[""DO"",""FO"",""CC"",""AO""]","[""HM07"",""AF11"",""WF06"",""BF08""]","[2,7,5,5]","[2,8,4,6]","","",""
"show-reward","166","397420","0.0-166.0","p219921","APVJEN2541WFB","3FVBZG9CLKK1M1GPZWGJX51HFG80HB","31HQ4X3T3UG6WQHLPLJ2ONVWA0SSLE","emotion","mismatch","uniform","","","","","","","","399170.89999997616","401185.10000002384","","","","","","","","","","","","7","","stimuli/stars_7.png","263.5","","","","","stimuli/AF11_FO.jpg","",""
"explore-choice","167","399417","0.0-167.0","p219921","APVJEN2541WFB","3FVBZG9CLKK1M1GPZWGJX51HFG80HB","31HQ4X3T3UG6WQHLPLJ2ONVWA0SSLE","emotion","mismatch","uniform","","","","","","","1486.8999999761581","401188.5","402675.39999997616","[""stimuli/HM07_CC.jpg"",""stimuli/WF06_FO.jpg"",""stimuli/BF08_DO.jpg"",""stimuli/AF11_AO.jpg""]","stimuli/HM07_CC.jpg","stimuli/WF06_FO.jpg","stimuli/BF08_DO.jpg","stimuli/AF11_AO.jpg","pos4","stimuli/AF11_AO.jpg","AO","AF11","3","3.5","7","8","stimuli/stars_7.png","267","[""CC"",""FO"",""DO"",""AO""]","[""HM07"",""WF06"",""BF08"",""AF11""]","[4,3,5,7]","[2,4,6,8]","","",""
"show-reward","168","401448","0.0-168.0","p219921","APVJEN2541WFB","3FVBZG9CLKK1M1GPZWGJX51HFG80HB","31HQ4X3T3UG6WQHLPLJ2ONVWA0SSLE","emotion","mismatch","uniform","","","","","","","","403185.7999999523","405211.1999999285","","","","","","","","","","","","7","","stimuli/stars_7.png","267","","","","","stimuli/AF11_AO.jpg","",""
"explore-choice","169","403167","0.0-169.0","p219921","APVJEN2541WFB","3FVBZG9CLKK1M1GPZWGJX51HFG80HB","31HQ4X3T3UG6WQHLPLJ2ONVWA0SSLE","emotion","mismatch","uniform","","","","","","","1210.3999999761581","405217.2999999523","406427.6999999285","[""stimuli/HM07_CC.jpg"",""stimuli/BF08_FO.jpg"",""stimuli/WF06_AO.jpg"",""stimuli/AF11_DO.jpg""]","stimuli/HM07_CC.jpg","stimuli/BF08_FO.jpg","stimuli/WF06_AO.jpg","stimuli/AF11_DO.jpg","pos4","stimuli/AF11_DO.jpg","DO","AF11","3","3","6","8","stimuli/stars_6.png","270","[""CC"",""FO"",""AO"",""DO""]","[""HM07"",""BF08"",""WF06"",""AF11""]","[0,8,3,6]","[2,6,4,8]","","",""
"show-reward","170","405179","0.0-170.0","p219921","APVJEN2541WFB","3FVBZG9CLKK1M1GPZWGJX51HFG80HB","31HQ4X3T3UG6WQHLPLJ2ONVWA0SSLE","emotion","mismatch","uniform","","","","","","","","406934","408944.60000002384","","","","","","","","","","","","6","","stimuli/stars_6.png","270","","","","","stimuli/AF11_DO.jpg","",""
"explore-choice","171","406937","0.0-171.0","p219921","APVJEN2541WFB","3FVBZG9CLKK1M1GPZWGJX51HFG80HB","31HQ4X3T3UG6WQHLPLJ2ONVWA0SSLE","emotion","mismatch","uniform","","","","","","","1253.7000000476837","408946.2999999523","410200","[""stimuli/AF11_CC.jpg"",""stimuli/WF06_FO.jpg"",""stimuli/HM07_DO.jpg"",""stimuli/BF08_AO.jpg""]","stimuli/AF11_CC.jpg","stimuli/WF06_FO.jpg","stimuli/HM07_DO.jpg","stimuli/BF08_AO.jpg","pos1","stimuli/AF11_CC.jpg","CC","AF11","0","5","10","8","stimuli/stars_10.png","275","[""CC"",""FO"",""DO"",""AO""]","[""AF11"",""WF06"",""HM07"",""BF08""]","[10,6,4,4]","[8,4,2,6]","","",""
"show-reward","172","408965","0.0-172.0","p219921","APVJEN2541WFB","3FVBZG9CLKK1M1GPZWGJX51HFG80HB","31HQ4X3T3UG6WQHLPLJ2ONVWA0SSLE","emotion","mismatch","uniform","","","","","","","","410705.7999999523","412729.7999999523","","","","","","","","","","","","10","","stimuli/stars_10.png","275","","","","","stimuli/AF11_CC.jpg","",""
"explore-choice","173","411887","0.0-173.0","p219921","APVJEN2541WFB","3FVBZG9CLKK1M1GPZWGJX51HFG80HB","31HQ4X3T3UG6WQHLPLJ2ONVWA0SSLE","emotion","mismatch","uniform","","","","","","","2416.7000000476837","412733.2999999523","415150","[""stimuli/BF08_DO.jpg"",""stimuli/HM07_AO.jpg"",""stimuli/WF06_FO.jpg"",""stimuli/AF11_CC.jpg""]","stimuli/BF08_DO.jpg","stimuli/HM07_AO.jpg","stimuli/WF06_FO.jpg","stimuli/AF11_CC.jpg","pos4","stimuli/AF11_CC.jpg","CC","AF11","3","3.5","7","8","stimuli/stars_7.png","278.5","[""DO"",""AO"",""FO"",""CC""]","[""BF08"",""HM07"",""WF06"",""AF11""]","[8,2,6,7]","[6,2,4,8]","","",""
"show-reward","174","413905","0.0-174.0","p219921","APVJEN2541WFB","3FVBZG9CLKK1M1GPZWGJX51HFG80HB","31HQ4X3T3UG6WQHLPLJ2ONVWA0SSLE","emotion","mismatch","uniform","","","","","","","","415656.1999999285","417670.6999999285","","","","","","","","","","","","7","","stimuli/stars_7.png","278.5","","","","","stimuli/AF11_CC.jpg","",""
"explore-choice","175","418236","0.0-175.0","p219921","APVJEN2541WFB","3FVBZG9CLKK1M1GPZWGJX51HFG80HB","31HQ4X3T3UG6WQHLPLJ2ONVWA0SSLE","emotion","mismatch","uniform","","","","","","","3825.600000023842","417674.1999999285","421499.7999999523","[""stimuli/HM07_FO.jpg"",""stimuli/BF08_DO.jpg"",""stimuli/AF11_CC.jpg"",""stimuli/WF06_AO.jpg""]","stimuli/HM07_FO.jpg","stimuli/BF08_DO.jpg","stimuli/AF11_CC.jpg","stimuli/WF06_AO.jpg","pos3","stimuli/AF11_CC.jpg","CC","AF11","2","4.5","9","8","stimuli/stars_9.png","283","[""FO"",""DO"",""CC"",""AO""]","[""HM07"",""BF08"",""AF11"",""WF06""]","[3,7,9,5]","[2,6,8,4]","","",""
"show-reward","176","420257","0.0-176.0","p219921","APVJEN2541WFB","3FVBZG9CLKK1M1GPZWGJX51HFG80HB","31HQ4X3T3UG6WQHLPLJ2ONVWA0SSLE","emotion","mismatch","uniform","","","","","","","","422005.39999997616","424022.5","","","","","","","","","","","","9","","stimuli/stars_9.png","283","","","","","stimuli/AF11_CC.jpg","",""
"explore-choice","177","421701","0.0-177.0","p219921","APVJEN2541WFB","3FVBZG9CLKK1M1GPZWGJX51HFG80HB","31HQ4X3T3UG6WQHLPLJ2ONVWA0SSLE","emotion","mismatch","uniform","","","","","","","922.8999999761581","424026.89999997616","424949.7999999523","[""stimuli/BF08_FO.jpg"",""stimuli/AF11_DO.jpg"",""stimuli/HM07_AO.jpg"",""stimuli/WF06_CC.jpg""]","stimuli/BF08_FO.jpg","stimuli/AF11_DO.jpg","stimuli/HM07_AO.jpg","stimuli/WF06_CC.jpg","pos2","stimuli/AF11_DO.jpg","DO","AF11","1","4","8","8","stimuli/stars_8.png","287","[""FO"",""DO"",""AO"",""CC""]","[""BF08"",""AF11"",""HM07"",""WF06""]","[6,8,2,5]","[6,8,2,4]","","",""
"show-reward","178","423724","0.0-178.0","p219921","APVJEN2541WFB","3FVBZG9CLKK1M1GPZWGJX51HFG80HB","31HQ4X3T3UG6WQHLPLJ2ONVWA0SSLE","emotion","mismatch","uniform","","","","","","","","425469.7999999523","427489.10000002384","","","","","","","","","","","","8","","stimuli/stars_8.png","287","","","","","stimuli/AF11_DO.jpg","",""
"explore-choice","179","425167","0.0-179.0","p219921","APVJEN2541WFB","3FVBZG9CLKK1M1GPZWGJX51HFG80HB","31HQ4X3T3UG6WQHLPLJ2ONVWA0SSLE","emotion","mismatch","uniform","","","","","","","934.1999999284744","427491.10000002384","428425.2999999523","[""stimuli/WF06_DO.jpg"",""stimuli/AF11_AO.jpg"",""stimuli/BF08_CC.jpg"",""stimuli/HM07_FO.jpg""]","stimuli/WF06_DO.jpg","stimuli/AF11_AO.jpg","stimuli/BF08_CC.jpg","stimuli/HM07_FO.jpg","pos2","stimuli/AF11_AO.jpg","AO","AF11","1","4.5","9","8","stimuli/stars_9.png","291.5","[""DO"",""AO"",""CC"",""FO""]","[""WF06"",""AF11"",""BF08"",""HM07""]","[3,9,7,1]","[4,8,6,2]","","",""
"show-reward","180","427184","0.0-180.0","p219921","APVJEN2541WFB","3FVBZG9CLKK1M1GPZWGJX51HFG80HB","31HQ4X3T3UG6WQHLPLJ2ONVWA0SSLE","emotion","mismatch","uniform","","","","","","","","428934.60000002384","430949.5","","","","","","","","","","","","9","","stimuli/stars_9.png","291.5","","","","","stimuli/AF11_AO.jpg","",""
"explore-choice","181","428552","0.0-181.0","p219921","APVJEN2541WFB","3FVBZG9CLKK1M1GPZWGJX51HFG80HB","31HQ4X3T3UG6WQHLPLJ2ONVWA0SSLE","emotion","mismatch","uniform","","","","","","","847.2999999523163","430952.60000002384","431799.89999997616","[""stimuli/BF08_AO.jpg"",""stimuli/HM07_CC.jpg"",""stimuli/AF11_DO.jpg"",""stimuli/WF06_FO.jpg""]","stimuli/BF08_AO.jpg","stimuli/HM07_CC.jpg","stimuli/AF11_DO.jpg","stimuli/WF06_FO.jpg","pos3","stimuli/AF11_DO.jpg","DO","AF11","2","4.5","9","8","stimuli/stars_9.png","296","[""AO"",""CC"",""DO"",""FO""]","[""BF08"",""HM07"",""AF11"",""WF06""]","[5,4,9,6]","[6,2,8,4]","","",""
"show-reward","182","430566","0.0-182.0","p219921","APVJEN2541WFB","3FVBZG9CLKK1M1GPZWGJX51HFG80HB","31HQ4X3T3UG6WQHLPLJ2ONVWA0SSLE","emotion","mismatch","uniform","","","","","","","","432320.1999999285","434331.39999997616","","","","","","","","","","","","9","","stimuli/stars_9.png","296","","","","","stimuli/AF11_DO.jpg","",""
"explore-choice","183","431972","0.0-183.0","p219921","APVJEN2541WFB","3FVBZG9CLKK1M1GPZWGJX51HFG80HB","31HQ4X3T3UG6WQHLPLJ2ONVWA0SSLE","emotion","mismatch","uniform","","","","","","","889.6999999284744","434335","435224.6999999285","[""stimuli/WF06_DO.jpg"",""stimuli/HM07_CC.jpg"",""stimuli/AF11_AO.jpg"",""stimuli/BF08_FO.jpg""]","stimuli/WF06_DO.jpg","stimuli/HM07_CC.jpg","stimuli/AF11_AO.jpg","stimuli/BF08_FO.jpg","pos3","stimuli/AF11_AO.jpg","AO","AF11","2","4.5","9","8","stimuli/stars_9.png","300.5","[""DO"",""CC"",""AO"",""FO""]","[""WF06"",""HM07"",""AF11"",""BF08""]","[3,3,9,7]","[4,2,8,6]","","",""
"show-reward","184","433997","0.0-184.0","p219921","APVJEN2541WFB","3FVBZG9CLKK1M1GPZWGJX51HFG80HB","31HQ4X3T3UG6WQHLPLJ2ONVWA0SSLE","emotion","mismatch","uniform","","","","","","","","435740.60000002384","437762.89999997616","","","","","","","","","","","","9","","stimuli/stars_9.png","300.5","","","","","stimuli/AF11_AO.jpg","",""
"explore-choice","185","435538","0.0-185.0","p219921","APVJEN2541WFB","3FVBZG9CLKK1M1GPZWGJX51HFG80HB","31HQ4X3T3UG6WQHLPLJ2ONVWA0SSLE","emotion","mismatch","uniform","","","","","","","1033.8999999761581","437766.10000002384","438800","[""stimuli/WF06_DO.jpg"",""stimuli/HM07_AO.jpg"",""stimuli/BF08_FO.jpg"",""stimuli/AF11_CC.jpg""]","stimuli/WF06_DO.jpg","stimuli/HM07_AO.jpg","stimuli/BF08_FO.jpg","stimuli/AF11_CC.jpg","pos4","stimuli/AF11_CC.jpg","CC","AF11","3","3.5","7","8","stimuli/stars_7.png","304","[""DO"",""AO"",""FO"",""CC""]","[""WF06"",""HM07"",""BF08"",""AF11""]","[2,2,6,7]","[4,2,6,8]","","",""
"show-reward","186","437561","0.0-186.0","p219921","APVJEN2541WFB","3FVBZG9CLKK1M1GPZWGJX51HFG80HB","31HQ4X3T3UG6WQHLPLJ2ONVWA0SSLE","emotion","mismatch","uniform","","","","","","","","439309","441327.10000002384","","","","","","","","","","","","7","","stimuli/stars_7.png","304","","","","","stimuli/AF11_CC.jpg","",""
"explore-choice","187","439046","0.0-187.0","p219921","APVJEN2541WFB","3FVBZG9CLKK1M1GPZWGJX51HFG80HB","31HQ4X3T3UG6WQHLPLJ2ONVWA0SSLE","emotion","mismatch","uniform","","","","","","","978.1000000238419","441328.7999999523","442306.89999997616","[""stimuli/BF08_CC.jpg"",""stimuli/WF06_AO.jpg"",""stimuli/AF11_FO.jpg"",""stimuli/HM07_DO.jpg""]","stimuli/BF08_CC.jpg","stimuli/WF06_AO.jpg","stimuli/AF11_FO.jpg","stimuli/HM07_DO.jpg","pos3","stimuli/AF11_FO.jpg","FO","AF11","2","3","6","8","stimuli/stars_6.png","307","[""CC"",""AO"",""FO"",""DO""]","[""BF08"",""WF06"",""AF11"",""HM07""]","[4,2,6,2]","[6,4,8,2]","","",""
"show-reward","188","441077","0.0-188.0","p219921","APVJEN2541WFB","3FVBZG9CLKK1M1GPZWGJX51HFG80HB","31HQ4X3T3UG6WQHLPLJ2ONVWA0SSLE","emotion","mismatch","uniform","","","","","","","","442813.89999997616","444842.7999999523","","","","","","","","","","","","6","","stimuli/stars_6.png","307","","","","","stimuli/AF11_FO.jpg","",""
"explore-choice","189","442711","0.0-189.0","p219921","APVJEN2541WFB","3FVBZG9CLKK1M1GPZWGJX51HFG80HB","31HQ4X3T3UG6WQHLPLJ2ONVWA0SSLE","emotion","mismatch","uniform","","","","","","","1128.8999999761581","444846.39999997616","445975.2999999523","[""stimuli/AF11_DO.jpg"",""stimuli/HM07_FO.jpg"",""stimuli/BF08_AO.jpg"",""stimuli/WF06_CC.jpg""]","stimuli/AF11_DO.jpg","stimuli/HM07_FO.jpg","stimuli/BF08_AO.jpg","stimuli/WF06_CC.jpg","pos1","stimuli/AF11_DO.jpg","DO","AF11","0","4","8","8","stimuli/stars_8.png","311","[""DO"",""FO"",""AO"",""CC""]","[""AF11"",""HM07"",""BF08"",""WF06""]","[8,3,5,2]","[8,2,6,4]","","",""
"show-reward","190","444733","0.0-190.0","p219921","APVJEN2541WFB","3FVBZG9CLKK1M1GPZWGJX51HFG80HB","31HQ4X3T3UG6WQHLPLJ2ONVWA0SSLE","emotion","mismatch","uniform","","","","","","","","446480","448498.2999999523","","","","","","","","","","","","8","","stimuli/stars_8.png","311","","","","","stimuli/AF11_DO.jpg","",""
"explore-choice","191","446063","0.0-191.0","p219921","APVJEN2541WFB","3FVBZG9CLKK1M1GPZWGJX51HFG80HB","31HQ4X3T3UG6WQHLPLJ2ONVWA0SSLE","emotion","mismatch","uniform","","","","","","","823.1000000238419","448502","449325.10000002384","[""stimuli/HM07_FO.jpg"",""stimuli/AF11_DO.jpg"",""stimuli/WF06_AO.jpg"",""stimuli/BF08_CC.jpg""]","stimuli/HM07_FO.jpg","stimuli/AF11_DO.jpg","stimuli/WF06_AO.jpg","stimuli/BF08_CC.jpg","pos2","stimuli/AF11_DO.jpg","DO","AF11","1","4","8","8","stimuli/stars_8.png","315","[""FO"",""DO"",""AO"",""CC""]","[""HM07"",""AF11"",""WF06"",""BF08""]","[2,8,5,7]","[2,8,4,6]","","",""
"show-reward","192","448077","0.0-192.0","p219921","APVJEN2541WFB","3FVBZG9CLKK1M1GPZWGJX51HFG80HB","31HQ4X3T3UG6WQHLPLJ2ONVWA0SSLE","emotion","mismatch","uniform","","","","","","","","449831.39999997616","451842.89999997616","","","","","","","","","","","","8","","stimuli/stars_8.png","315","","","","","stimuli/AF11_DO.jpg","",""
"explore-choice","193","452145","0.0-193.0","p219921","APVJEN2541WFB","3FVBZG9CLKK1M1GPZWGJX51HFG80HB","31HQ4X3T3UG6WQHLPLJ2ONVWA0SSLE","emotion","mismatch","uniform","","","","","","","3560","451845.89999997616","455405.89999997616","[""stimuli/BF08_FO.jpg"",""stimuli/HM07_DO.jpg"",""stimuli/WF06_CC.jpg"",""stimuli/AF11_AO.jpg""]","stimuli/BF08_FO.jpg","stimuli/HM07_DO.jpg","stimuli/WF06_CC.jpg","stimuli/AF11_AO.jpg","pos4","stimuli/AF11_AO.jpg","AO","AF11","3","5","10","8","stimuli/stars_10.png","320","[""FO"",""DO"",""CC"",""AO""]","[""BF08"",""HM07"",""WF06"",""AF11""]","[5,4,3,10]","[6,2,4,8]","","",""
"show-reward","194","454164","0.0-194.0","p219921","APVJEN2541WFB","3FVBZG9CLKK1M1GPZWGJX51HFG80HB","31HQ4X3T3UG6WQHLPLJ2ONVWA0SSLE","emotion","mismatch","uniform","","","","","","","","455913.6999999285","457929.39999997616","","","","","","","","","","","","10","","stimuli/stars_10.png","320","","","","","stimuli/AF11_AO.jpg","",""
"explore-choice","195","455486","0.0-195.0","p219921","APVJEN2541WFB","3FVBZG9CLKK1M1GPZWGJX51HFG80HB","31HQ4X3T3UG6WQHLPLJ2ONVWA0SSLE","emotion","mismatch","uniform","","","","","","","817.1000000238419","457932.5","458749.60000002384","[""stimuli/BF08_DO.jpg"",""stimuli/AF11_FO.jpg"",""stimuli/HM07_AO.jpg"",""stimuli/WF06_CC.jpg""]","stimuli/BF08_DO.jpg","stimuli/AF11_FO.jpg","stimuli/HM07_AO.jpg","stimuli/WF06_CC.jpg","pos2","stimuli/AF11_FO.jpg","FO","AF11","1","3.5","7","8","stimuli/stars_7.png","323.5","[""DO"",""FO"",""AO"",""CC""]","[""BF08"",""AF11"",""HM07"",""WF06""]","[7,7,3,4]","[6,8,2,4]","","",""
"show-reward","196","457509","0.0-196.0","p219921","APVJEN2541WFB","3FVBZG9CLKK1M1GPZWGJX51HFG80HB","31HQ4X3T3UG6WQHLPLJ2ONVWA0SSLE","emotion","mismatch","uniform","","","","","","","","459254.6999999285","461273.7999999523","","","","","","","","","","","","7","","stimuli/stars_7.png","323.5","","","","","stimuli/AF11_FO.jpg","",""
"explore-choice","197","459349","0.0-197.0","p219921","APVJEN2541WFB","3FVBZG9CLKK1M1GPZWGJX51HFG80HB","31HQ4X3T3UG6WQHLPLJ2ONVWA0SSLE","emotion","mismatch","uniform","","","","","","","1328.8000000715256","461278.2999999523","462607.10000002384","[""stimuli/HM07_CC.jpg"",""stimuli/WF06_DO.jpg"",""stimuli/BF08_AO.jpg"",""stimuli/AF11_FO.jpg""]","stimuli/HM07_CC.jpg","stimuli/WF06_DO.jpg","stimuli/BF08_AO.jpg","stimuli/AF11_FO.jpg","pos4","stimuli/AF11_FO.jpg","FO","AF11","3","5","10","8","stimuli/stars_10.png","328.5","[""CC"",""DO"",""AO"",""FO""]","[""HM07"",""WF06"",""BF08"",""AF11""]","[0,6,6,10]","[2,4,6,8]","","",""
"show-reward","198","461365","0.0-198.0","p219921","APVJEN2541WFB","3FVBZG9CLKK1M1GPZWGJX51HFG80HB","31HQ4X3T3UG6WQHLPLJ2ONVWA0SSLE","emotion","mismatch","uniform","","","","","","","","463117","465130.1999999285","","","","","","","","","","","","10","","stimuli/stars_10.png","328.5","","","","","stimuli/AF11_FO.jpg","",""
"instructions","199","467035","0.0-199.0","p219921","APVJEN2541WFB","3FVBZG9CLKK1M1GPZWGJX51HFG80HB","31HQ4X3T3UG6WQHLPLJ2ONVWA0SSLE","emotion","mismatch","uniform","","","","","","[{""page_index"":0,""viewing_time"":5665.200000047684}]","5666.800000071526","","","","","","","","","","","","","","","","","","","","","","","",""
"survey-text","200","473736","0.0-200.0-0.0","p219921","APVJEN2541WFB","3FVBZG9CLKK1M1GPZWGJX51HFG80HB","31HQ4X3T3UG6WQHLPLJ2ONVWA0SSLE","emotion","mismatch","uniform","","","","","","","6690.799999952316","","","","","","","","","","","","","","","","","","","","","","","{""age"":""32""}",""
"survey-text","201","480634","0.0-200.0-1.0","p219921","APVJEN2541WFB","3FVBZG9CLKK1M1GPZWGJX51HFG80HB","31HQ4X3T3UG6WQHLPLJ2ONVWA0SSLE","emotion","mismatch","uniform","","","","","","","6891.799999952316","","","","","","","","","","","","","","","","","","","","","","","{""gender"":""female""}",""
"survey-text","202","487534","0.0-200.0-2.0","p219921","APVJEN2541WFB","3FVBZG9CLKK1M1GPZWGJX51HFG80HB","31HQ4X3T3UG6WQHLPLJ2ONVWA0SSLE","emotion","mismatch","uniform","","","","","","","6890.800000071526","","","","","","","","","","","","","","","","","","","","","","","{""country"":""United States""}",""
"survey-text","203","496491","0.0-200.0-3.0","p219921","APVJEN2541WFB","3FVBZG9CLKK1M1GPZWGJX51HFG80HB","31HQ4X3T3UG6WQHLPLJ2ONVWA0SSLE","emotion","mismatch","uniform","","","","","","","8950.299999952316","","","","","","","","","","","","","","","","","","","","","","","{""language"":""English"",""other_languages"":""""}",""
"survey-multi-select","204","498585","0.0-201.0","p219921","APVJEN2541WFB","3FVBZG9CLKK1M1GPZWGJX51HFG80HB","31HQ4X3T3UG6WQHLPLJ2ONVWA0SSLE","emotion","mismatch","uniform","","","","","","","2056.100000023842","","","","","","","","","","","","","","","","","","","","","","","{""race"":[""White""]}","[0]"
"survey-multi-choice","205","501760","0.0-202.0","p219921","APVJEN2541WFB","3FVBZG9CLKK1M1GPZWGJX51HFG80HB","31HQ4X3T3UG6WQHLPLJ2ONVWA0SSLE","emotion","mismatch","uniform","","","","","","","3157.1999999284744","","","","","","","","","","","","","","","","","","","","","","","{""education"":""High school""}","[0]"
"survey-text","206","558591","0.0-203.0","p219921","APVJEN2541WFB","3FVBZG9CLKK1M1GPZWGJX51HFG80HB","31HQ4X3T3UG6WQHLPLJ2ONVWA0SSLE","emotion","mismatch","uniform","","","","","","","56749.299999952316","","","","","","","","","","","","","","","","","","","","","","","{""patterns"":""I kept thinking I was seeing patterns and shortly after proving myself wrong, so at this point I am unsure. "",""strategy"":""I just tried to find the most starts, I started seeing patterns but I would end up realizing they were not really there. "",""comments"":""No,thank you""}",""
