"trial_type","trial_index","time_elapsed","internal_node_id","subject","workerId","hitId","assignmentId","structure_condition","match_condition","noise_type","success","timeout","failed_images","failed_audio","failed_video","view_history","rt","start_time","end_time","stimuli","image1","image2","image3","image4","choiceLocation","choiceImage","choiceEmotion","choiceModel","choice_index","reward_score","reward","reward_score_unadjusted","reward_image","score_after_trial","emotions","models","rewards","rewards_unadjusted","stimulus","response","question_order"
"pavlovia","0","8","0.0-0.0","p945386","A1JR35HATOEME9","3087LXLJ6NMH85PJ46SJUKP4Z1V0FD","3JZQSN0I3SGH6TYY8AMN4W79PUUFGW","model","mismatch","uniform","","","","","","","","","","","","","","","","","","","","","","","","","","","","","","",""
"preload","1","4077","0.0-1.0","p945386","A1JR35HATOEME9","3087LXLJ6NMH85PJ46SJUKP4Z1V0FD","3JZQSN0I3SGH6TYY8AMN4W79PUUFGW","model","mismatch","uniform","true","false","[]","[]","[]","","","","","","","","","","","","","","","","","","","","","","","","","",""
"fullscreen","2","9833","0.0-2.0","p945386","A1JR35HATOEME9","3087LXLJ6NMH85PJ46SJUKP4Z1V0FD","3JZQSN0I3SGH6TYY8AMN4W79PUUFGW","model","mismatch","uniform","true","","","","","","","","","","","","","","","","","","","","","","","","","","","","","",""
"instructions","3","18094","0.0-3.0","p945386","A1JR35HATOEME9","3087LXLJ6NMH85PJ46SJUKP4Z1V0FD","3JZQSN0I3SGH6TYY8AMN4W79PUUFGW","model","mismatch","uniform","","","","","","[{""page_index"":0,""viewing_time"":8259.599999964237}]","8260.099999964237","","","","","","","","","","","","","","","","","","","","","","","",""
"explore-choice","4","20480","0.0-4.0","p945386","A1JR35HATOEME9","3087LXLJ6NMH85PJ46SJUKP4Z1V0FD","3JZQSN0I3SGH6TYY8AMN4W79PUUFGW","model","mismatch","uniform","","","","","","","1884.3999999761581","19507.600000023842","21392","[""stimuli/sheep.jpg"",""stimuli/hammer.jpg"",""stimuli/basketball.jpg"",""stimuli/horse.jpg""]","stimuli/sheep.jpg","stimuli/hammer.jpg","stimuli/basketball.jpg","stimuli/horse.jpg","pos4","stimuli/horse.jpg","","","3","64","64","64","stimuli/stars_8.png","65","","","","","","",""
"explore-choice","5","22387","0.0-5.0","p945386","A1JR35HATOEME9","3087LXLJ6NMH85PJ46SJUKP4Z1V0FD","3JZQSN0I3SGH6TYY8AMN4W79PUUFGW","model","mismatch","uniform","","","","","","","1400.0999999642372","21893.700000047684","23293.80000001192","[""stimuli/hammer.jpg"",""stimuli/basketball.jpg"",""stimuli/horse.jpg"",""stimuli/sheep.jpg""]","stimuli/hammer.jpg","stimuli/basketball.jpg","stimuli/horse.jpg","stimuli/sheep.jpg","pos1","stimuli/hammer.jpg","","","0","8","8","8","stimuli/stars_2.png","9","","","","","","",""
"instructions","6","46064","0.0-6.0","p945386","A1JR35HATOEME9","3087LXLJ6NMH85PJ46SJUKP4Z1V0FD","3JZQSN0I3SGH6TYY8AMN4W79PUUFGW","model","mismatch","uniform","","","","","","[{""page_index"":0,""viewing_time"":23676.299999952316}]","23676.399999976158","","","","","","","","","","","","","","","","","","","","","","","",""
"explore-choice","7","47881","0.0-7.0","p945386","A1JR35HATOEME9","3087LXLJ6NMH85PJ46SJUKP4Z1V0FD","3JZQSN0I3SGH6TYY8AMN4W79PUUFGW","model","mismatch","uniform","","","","","","","1314.800000011921","47478.80000001192","48793.60000002384","[""stimuli/WM09_HE.jpg"",""stimuli/AF09_SC.jpg"",""stimuli/HF09_FO.jpg"",""stimuli/WM07_DO.jpg""]","stimuli/WM09_HE.jpg","stimuli/AF09_SC.jpg","stimuli/HF09_FO.jpg","stimuli/WM07_DO.jpg","pos1","stimuli/WM09_HE.jpg","HE","WM09","0","3","6","4","stimuli/stars_6.png","4","[""HE"",""SC"",""FO"",""DO""]","[""WM09"",""AF09"",""HF09"",""WM07""]","[6,8,1,6]","[4,6,2,8]","","",""
"show-reward","8","49884","0.0-8.0","p945386","A1JR35HATOEME9","3087LXLJ6NMH85PJ46SJUKP4Z1V0FD","3JZQSN0I3SGH6TYY8AMN4W79PUUFGW","model","mismatch","uniform","","","","","","","","49295.60000002384","51297.60000002384","","","","","","","","","","","","6","","stimuli/stars_6.png","4","","","","","stimuli/WM09_HE.jpg","",""
"explore-choice","9","52479","0.0-9.0","p945386","A1JR35HATOEME9","3087LXLJ6NMH85PJ46SJUKP4Z1V0FD","3JZQSN0I3SGH6TYY8AMN4W79PUUFGW","model","mismatch","uniform","","","","","","","2077.699999988079","51298.40000003576","53376.10000002384","[""stimuli/HF09_SC.jpg"",""stimuli/WM07_DO.jpg"",""stimuli/WM09_HE.jpg"",""stimuli/AF09_FO.jpg""]","stimuli/HF09_SC.jpg","stimuli/WM07_DO.jpg","stimuli/WM09_HE.jpg","stimuli/AF09_FO.jpg","pos2","stimuli/WM07_DO.jpg","DO","WM07","1","4","8","8","stimuli/stars_8.png","8","[""SC"",""DO"",""HE"",""FO""]","[""HF09"",""WM07"",""WM09"",""AF09""]","[4,8,6,4]","[2,8,4,6]","","",""
"show-reward","10","54481","0.0-10.0","p945386","A1JR35HATOEME9","3087LXLJ6NMH85PJ46SJUKP4Z1V0FD","3JZQSN0I3SGH6TYY8AMN4W79PUUFGW","model","mismatch","uniform","","","","","","","","53892.60000002384","55893.700000047684","","","","","","","","","","","","8","","stimuli/stars_8.png","8","","","","","stimuli/WM07_DO.jpg","",""
"explore-choice","11","56762","0.0-11.0","p945386","A1JR35HATOEME9","3087LXLJ6NMH85PJ46SJUKP4Z1V0FD","3JZQSN0I3SGH6TYY8AMN4W79PUUFGW","model","mismatch","uniform","","","","","","","1766.300000011921","55894.40000003576","57660.700000047684","[""stimuli/WM07_FO.jpg"",""stimuli/WM09_DO.jpg"",""stimuli/HF09_HE.jpg"",""stimuli/AF09_SC.jpg""]","stimuli/WM07_FO.jpg","stimuli/WM09_DO.jpg","stimuli/HF09_HE.jpg","stimuli/AF09_SC.jpg","pos4","stimuli/AF09_SC.jpg","SC","AF09","3","2","4","6","stimuli/stars_4.png","10","[""FO"",""DO"",""HE"",""SC""]","[""WM07"",""WM09"",""HF09"",""AF09""]","[8,6,3,4]","[8,4,2,6]","","",""
"show-reward","12","58763","0.0-12.0","p945386","A1JR35HATOEME9","3087LXLJ6NMH85PJ46SJUKP4Z1V0FD","3JZQSN0I3SGH6TYY8AMN4W79PUUFGW","model","mismatch","uniform","","","","","","","","58175.5","60176.700000047684","","","","","","","","","","","","4","","stimuli/stars_4.png","10","","","","","stimuli/AF09_SC.jpg","",""
"explore-choice","13","60170","0.0-13.0","p945386","A1JR35HATOEME9","3087LXLJ6NMH85PJ46SJUKP4Z1V0FD","3JZQSN0I3SGH6TYY8AMN4W79PUUFGW","model","mismatch","uniform","","","","","","","905.5","60177.200000047684","61082.700000047684","[""stimuli/HF09_HE.jpg"",""stimuli/AF09_FO.jpg"",""stimuli/WM07_DO.jpg"",""stimuli/WM09_SC.jpg""]","stimuli/HF09_HE.jpg","stimuli/AF09_FO.jpg","stimuli/WM07_DO.jpg","stimuli/WM09_SC.jpg","pos3","stimuli/WM07_DO.jpg","DO","WM07","2","5","10","8","stimuli/stars_10.png","15","[""HE"",""FO"",""DO"",""SC""]","[""HF09"",""AF09"",""WM07"",""WM09""]","[4,5,10,2]","[2,6,8,4]","","",""
"show-reward","14","62179","0.0-14.0","p945386","A1JR35HATOEME9","3087LXLJ6NMH85PJ46SJUKP4Z1V0FD","3JZQSN0I3SGH6TYY8AMN4W79PUUFGW","model","mismatch","uniform","","","","","","","","61583.80000001192","63591.90000003576","","","","","","","","","","","","10","","stimuli/stars_10.png","15","","","","","stimuli/WM07_DO.jpg","",""
"explore-choice","15","64140","0.0-15.0","p945386","A1JR35HATOEME9","3087LXLJ6NMH85PJ46SJUKP4Z1V0FD","3JZQSN0I3SGH6TYY8AMN4W79PUUFGW","model","mismatch","uniform","","","","","","","1460.199999988079","63592.700000047684","65052.90000003576","[""stimuli/HF09_SC.jpg"",""stimuli/AF09_HE.jpg"",""stimuli/WM07_DO.jpg"",""stimuli/WM09_FO.jpg""]","stimuli/HF09_SC.jpg","stimuli/AF09_HE.jpg","stimuli/WM07_DO.jpg","stimuli/WM09_FO.jpg","pos4","stimuli/WM09_FO.jpg","FO","WM09","3","2.5","5","4","stimuli/stars_5.png","17.5","[""SC"",""HE"",""DO"",""FO""]","[""HF09"",""AF09"",""WM07"",""WM09""]","[2,4,6,5]","[2,6,8,4]","","",""
"show-reward","16","66144","0.0-16.0","p945386","A1JR35HATOEME9","3087LXLJ6NMH85PJ46SJUKP4Z1V0FD","3JZQSN0I3SGH6TYY8AMN4W79PUUFGW","model","mismatch","uniform","","","","","","","","65554.10000002384","67557.40000003576","","","","","","","","","","","","5","","stimuli/stars_5.png","17.5","","","","","stimuli/WM09_FO.jpg","",""
"explore-choice","17","67866","0.0-17.0","p945386","A1JR35HATOEME9","3087LXLJ6NMH85PJ46SJUKP4Z1V0FD","3JZQSN0I3SGH6TYY8AMN4W79PUUFGW","model","mismatch","uniform","","","","","","","1208.7000000476837","67558","68766.70000004768","[""stimuli/AF09_DO.jpg"",""stimuli/WM09_SC.jpg"",""stimuli/WM07_FO.jpg"",""stimuli/HF09_HE.jpg""]","stimuli/AF09_DO.jpg","stimuli/WM09_SC.jpg","stimuli/WM07_FO.jpg","stimuli/HF09_HE.jpg","pos3","stimuli/WM07_FO.jpg","FO","WM07","2","4","8","8","stimuli/stars_8.png","21.5","[""DO"",""SC"",""FO"",""HE""]","[""AF09"",""WM09"",""WM07"",""HF09""]","[6,2,8,1]","[6,4,8,2]","","",""
"show-reward","18","69872","0.0-18.0","p945386","A1JR35HATOEME9","3087LXLJ6NMH85PJ46SJUKP4Z1V0FD","3JZQSN0I3SGH6TYY8AMN4W79PUUFGW","model","mismatch","uniform","","","","","","","","69279.70000004768","71284.90000003576","","","","","","","","","","","","8","","stimuli/stars_8.png","21.5","","","","","stimuli/WM07_FO.jpg","",""
"explore-choice","19","71886","0.0-19.0","p945386","A1JR35HATOEME9","3087LXLJ6NMH85PJ46SJUKP4Z1V0FD","3JZQSN0I3SGH6TYY8AMN4W79PUUFGW","model","mismatch","uniform","","","","","","","1512.199999988079","71285.60000002384","72797.80000001192","[""stimuli/WM07_HE.jpg"",""stimuli/HF09_FO.jpg"",""stimuli/WM09_DO.jpg"",""stimuli/AF09_SC.jpg""]","stimuli/WM07_HE.jpg","stimuli/HF09_FO.jpg","stimuli/WM09_DO.jpg","stimuli/AF09_SC.jpg","pos1","stimuli/WM07_HE.jpg","HE","WM07","0","3","6","8","stimuli/stars_6.png","24.5","[""HE"",""FO"",""DO"",""SC""]","[""WM07"",""HF09"",""WM09"",""AF09""]","[6,1,6,5]","[8,2,4,6]","","",""
"show-reward","20","73891","0.0-20.0","p945386","A1JR35HATOEME9","3087LXLJ6NMH85PJ46SJUKP4Z1V0FD","3JZQSN0I3SGH6TYY8AMN4W79PUUFGW","model","mismatch","uniform","","","","","","","","73299.30000001192","75304.60000002384","","","","","","","","","","","","6","","stimuli/stars_6.png","24.5","","","","","stimuli/WM07_HE.jpg","",""
"explore-choice","21","75381","0.0-21.0","p945386","A1JR35HATOEME9","3087LXLJ6NMH85PJ46SJUKP4Z1V0FD","3JZQSN0I3SGH6TYY8AMN4W79PUUFGW","model","mismatch","uniform","","","","","","","984.3999999761581","75305.20000004768","76289.60000002384","[""stimuli/HF09_HE.jpg"",""stimuli/WM07_SC.jpg"",""stimuli/AF09_FO.jpg"",""stimuli/WM09_DO.jpg""]","stimuli/HF09_HE.jpg","stimuli/WM07_SC.jpg","stimuli/AF09_FO.jpg","stimuli/WM09_DO.jpg","pos4","stimuli/WM09_DO.jpg","DO","WM09","3","2.5","5","4","stimuli/stars_5.png","27","[""HE"",""SC"",""FO"",""DO""]","[""HF09"",""WM07"",""AF09"",""WM09""]","[2,7,5,5]","[2,8,6,4]","","",""
"show-reward","22","77386","0.0-22.0","p945386","A1JR35HATOEME9","3087LXLJ6NMH85PJ46SJUKP4Z1V0FD","3JZQSN0I3SGH6TYY8AMN4W79PUUFGW","model","mismatch","uniform","","","","","","","","76794.5","78799.60000002384","","","","","","","","","","","","5","","stimuli/stars_5.png","27","","","","","stimuli/WM09_DO.jpg","",""
"explore-choice","23","78965","0.0-23.0","p945386","A1JR35HATOEME9","3087LXLJ6NMH85PJ46SJUKP4Z1V0FD","3JZQSN0I3SGH6TYY8AMN4W79PUUFGW","model","mismatch","uniform","","","","","","","1077.5","78800.30000001192","79877.80000001192","[""stimuli/HF09_DO.jpg"",""stimuli/WM09_HE.jpg"",""stimuli/AF09_SC.jpg"",""stimuli/WM07_FO.jpg""]","stimuli/HF09_DO.jpg","stimuli/WM09_HE.jpg","stimuli/AF09_SC.jpg","stimuli/WM07_FO.jpg","pos2","stimuli/WM09_HE.jpg","HE","WM09","1","3","6","4","stimuli/stars_6.png","30","[""DO"",""HE"",""SC"",""FO""]","[""HF09"",""WM09"",""AF09"",""WM07""]","[4,6,4,10]","[2,4,6,8]","","",""
"show-reward","24","80972","0.0-24.0","p945386","A1JR35HATOEME9","3087LXLJ6NMH85PJ46SJUKP4Z1V0FD","3JZQSN0I3SGH6TYY8AMN4W79PUUFGW","model","mismatch","uniform","","","","","","","","80378.70000004768","82384.90000003576","","","","","","","","","","","","6","","stimuli/stars_6.png","30","","","","","stimuli/WM09_HE.jpg","",""
"explore-choice","25","82946","0.0-25.0","p945386","A1JR35HATOEME9","3087LXLJ6NMH85PJ46SJUKP4Z1V0FD","3JZQSN0I3SGH6TYY8AMN4W79PUUFGW","model","mismatch","uniform","","","","","","","1457.199999988079","82385.60000002384","83842.80000001192","[""stimuli/WM07_FO.jpg"",""stimuli/HF09_SC.jpg"",""stimuli/WM09_DO.jpg"",""stimuli/AF09_HE.jpg""]","stimuli/WM07_FO.jpg","stimuli/HF09_SC.jpg","stimuli/WM09_DO.jpg","stimuli/AF09_HE.jpg","pos4","stimuli/AF09_HE.jpg","HE","AF09","3","3.5","7","6","stimuli/stars_7.png","33.5","[""FO"",""SC"",""DO"",""HE""]","[""WM07"",""HF09"",""WM09"",""AF09""]","[10,2,6,7]","[8,2,4,6]","","",""
"show-reward","26","84962","0.0-26.0","p945386","A1JR35HATOEME9","3087LXLJ6NMH85PJ46SJUKP4Z1V0FD","3JZQSN0I3SGH6TYY8AMN4W79PUUFGW","model","mismatch","uniform","","","","","","","","84359.40000003576","86375.60000002384","","","","","","","","","","","","7","","stimuli/stars_7.png","33.5","","","","","stimuli/AF09_HE.jpg","",""
"explore-choice","27","86757","0.0-27.0","p945386","A1JR35HATOEME9","3087LXLJ6NMH85PJ46SJUKP4Z1V0FD","3JZQSN0I3SGH6TYY8AMN4W79PUUFGW","model","mismatch","uniform","","","","","","","1293.6000000238419","86376.10000002384","87669.70000004768","[""stimuli/HF09_DO.jpg"",""stimuli/WM09_HE.jpg"",""stimuli/AF09_FO.jpg"",""stimuli/WM07_SC.jpg""]","stimuli/HF09_DO.jpg","stimuli/WM09_HE.jpg","stimuli/AF09_FO.jpg","stimuli/WM07_SC.jpg","pos2","stimuli/WM09_HE.jpg","HE","WM09","1","2","4","4","stimuli/stars_4.png","35.5","[""DO"",""HE"",""FO"",""SC""]","[""HF09"",""WM09"",""AF09"",""WM07""]","[4,4,6,6]","[2,4,6,8]","","",""
"show-reward","28","88764","0.0-28.0","p945386","A1JR35HATOEME9","3087LXLJ6NMH85PJ46SJUKP4Z1V0FD","3JZQSN0I3SGH6TYY8AMN4W79PUUFGW","model","mismatch","uniform","","","","","","","","88170.60000002384","90177","","","","","","","","","","","","4","","stimuli/stars_4.png","35.5","","","","","stimuli/WM09_HE.jpg","",""
"explore-choice","29","90131","0.0-29.0","p945386","A1JR35HATOEME9","3087LXLJ6NMH85PJ46SJUKP4Z1V0FD","3JZQSN0I3SGH6TYY8AMN4W79PUUFGW","model","mismatch","uniform","","","","","","","858.1000000238419","90177.60000002384","91035.70000004768","[""stimuli/WM09_SC.jpg"",""stimuli/WM07_HE.jpg"",""stimuli/AF09_DO.jpg"",""stimuli/HF09_FO.jpg""]","stimuli/WM09_SC.jpg","stimuli/WM07_HE.jpg","stimuli/AF09_DO.jpg","stimuli/HF09_FO.jpg","pos3","stimuli/AF09_DO.jpg","DO","AF09","2","3.5","7","6","stimuli/stars_7.png","39","[""SC"",""HE"",""DO"",""FO""]","[""WM09"",""WM07"",""AF09"",""HF09""]","[4,6,7,2]","[4,8,6,2]","","",""
"show-reward","30","92147","0.0-30.0","p945386","A1JR35HATOEME9","3087LXLJ6NMH85PJ46SJUKP4Z1V0FD","3JZQSN0I3SGH6TYY8AMN4W79PUUFGW","model","mismatch","uniform","","","","","","","","91544.80000001192","93560.10000002384","","","","","","","","","","","","7","","stimuli/stars_7.png","39","","","","","stimuli/AF09_DO.jpg","",""
"explore-choice","31","93385","0.0-31.0","p945386","A1JR35HATOEME9","3087LXLJ6NMH85PJ46SJUKP4Z1V0FD","3JZQSN0I3SGH6TYY8AMN4W79PUUFGW","model","mismatch","uniform","","","","","","","732.1000000238419","93560.60000002384","94292.70000004768","[""stimuli/WM09_SC.jpg"",""stimuli/AF09_HE.jpg"",""stimuli/HF09_DO.jpg"",""stimuli/WM07_FO.jpg""]","stimuli/WM09_SC.jpg","stimuli/AF09_HE.jpg","stimuli/HF09_DO.jpg","stimuli/WM07_FO.jpg","pos1","stimuli/WM09_SC.jpg","SC","WM09","0","2.5","5","4","stimuli/stars_5.png","41.5","[""SC"",""HE"",""DO"",""FO""]","[""WM09"",""AF09"",""HF09"",""WM07""]","[5,6,3,6]","[4,6,2,8]","","",""
"show-reward","32","95397","0.0-32.0","p945386","A1JR35HATOEME9","3087LXLJ6NMH85PJ46SJUKP4Z1V0FD","3JZQSN0I3SGH6TYY8AMN4W79PUUFGW","model","mismatch","uniform","","","","","","","","94798.80000001192","96810","","","","","","","","","","","","5","","stimuli/stars_5.png","41.5","","","","","stimuli/WM09_SC.jpg","",""
"explore-choice","33","96652","0.0-33.0","p945386","A1JR35HATOEME9","3087LXLJ6NMH85PJ46SJUKP4Z1V0FD","3JZQSN0I3SGH6TYY8AMN4W79PUUFGW","model","mismatch","uniform","","","","","","","747.1000000238419","96810.60000002384","97557.70000004768","[""stimuli/AF09_FO.jpg"",""stimuli/WM09_SC.jpg"",""stimuli/WM07_HE.jpg"",""stimuli/HF09_DO.jpg""]","stimuli/AF09_FO.jpg","stimuli/WM09_SC.jpg","stimuli/WM07_HE.jpg","stimuli/HF09_DO.jpg","pos4","stimuli/HF09_DO.jpg","DO","HF09","3","0","0","2","stimuli/stars_0.png","41.5","[""FO"",""SC"",""HE"",""DO""]","[""AF09"",""WM09"",""WM07"",""HF09""]","[6,3,10,0]","[6,4,8,2]","","",""
"show-reward","34","98656","0.0-34.0","p945386","A1JR35HATOEME9","3087LXLJ6NMH85PJ46SJUKP4Z1V0FD","3JZQSN0I3SGH6TYY8AMN4W79PUUFGW","model","mismatch","uniform","","","","","","","","98065.70000004768","100069","","","","","","","","","","","","0","","stimuli/stars_0.png","41.5","","","","","stimuli/HF09_DO.jpg","",""
"explore-choice","35","99866","0.0-35.0","p945386","A1JR35HATOEME9","3087LXLJ6NMH85PJ46SJUKP4Z1V0FD","3JZQSN0I3SGH6TYY8AMN4W79PUUFGW","model","mismatch","uniform","","","","","","","709","100069.60000002384","100778.60000002384","[""stimuli/AF09_HE.jpg"",""stimuli/WM07_SC.jpg"",""stimuli/HF09_DO.jpg"",""stimuli/WM09_FO.jpg""]","stimuli/AF09_HE.jpg","stimuli/WM07_SC.jpg","stimuli/HF09_DO.jpg","stimuli/WM09_FO.jpg","pos2","stimuli/WM07_SC.jpg","SC","WM07","1","4.5","9","8","stimuli/stars_9.png","46","[""HE"",""SC"",""DO"",""FO""]","[""AF09"",""WM07"",""HF09"",""WM09""]","[4,9,1,6]","[6,8,2,4]","","",""
"show-reward","36","101883","0.0-36.0","p945386","A1JR35HATOEME9","3087LXLJ6NMH85PJ46SJUKP4Z1V0FD","3JZQSN0I3SGH6TYY8AMN4W79PUUFGW","model","mismatch","uniform","","","","","","","","101279.60000002384","103295.90000003576","","","","","","","","","","","","9","","stimuli/stars_9.png","46","","","","","stimuli/WM07_SC.jpg","",""
"explore-choice","37","103150","0.0-37.0","p945386","A1JR35HATOEME9","3087LXLJ6NMH85PJ46SJUKP4Z1V0FD","3JZQSN0I3SGH6TYY8AMN4W79PUUFGW","model","mismatch","uniform","","","","","","","766.3000000119209","103296.40000003576","104062.70000004768","[""stimuli/WM09_DO.jpg"",""stimuli/AF09_FO.jpg"",""stimuli/WM07_HE.jpg"",""stimuli/HF09_SC.jpg""]","stimuli/WM09_DO.jpg","stimuli/AF09_FO.jpg","stimuli/WM07_HE.jpg","stimuli/HF09_SC.jpg","pos3","stimuli/WM07_HE.jpg","HE","WM07","2","4","8","8","stimuli/stars_8.png","50","[""DO"",""FO"",""HE"",""SC""]","[""WM09"",""AF09"",""WM07"",""HF09""]","[3,4,8,3]","[4,6,8,2]","","",""
"show-reward","38","105152","0.0-38.0","p945386","A1JR35HATOEME9","3087LXLJ6NMH85PJ46SJUKP4Z1V0FD","3JZQSN0I3SGH6TYY8AMN4W79PUUFGW","model","mismatch","uniform","","","","","","","","104563.60000002384","106564.90000003576","","","","","","","","","","","","8","","stimuli/stars_8.png","50","","","","","stimuli/WM07_HE.jpg","",""
"explore-choice","39","107565","0.0-39.0","p945386","A1JR35HATOEME9","3087LXLJ6NMH85PJ46SJUKP4Z1V0FD","3JZQSN0I3SGH6TYY8AMN4W79PUUFGW","model","mismatch","uniform","","","","","","","1911.199999988079","106565.40000003576","108476.60000002384","[""stimuli/WM07_SC.jpg"",""stimuli/WM09_DO.jpg"",""stimuli/HF09_FO.jpg"",""stimuli/AF09_HE.jpg""]","stimuli/WM07_SC.jpg","stimuli/WM09_DO.jpg","stimuli/HF09_FO.jpg","stimuli/AF09_HE.jpg","pos4","stimuli/AF09_HE.jpg","HE","AF09","3","2","4","6","stimuli/stars_4.png","52","[""SC"",""DO"",""FO"",""HE""]","[""WM07"",""WM09"",""HF09"",""AF09""]","[10,6,0,4]","[8,4,2,6]","","",""
"show-reward","40","109570","0.0-40.0","p945386","A1JR35HATOEME9","3087LXLJ6NMH85PJ46SJUKP4Z1V0FD","3JZQSN0I3SGH6TYY8AMN4W79PUUFGW","model","mismatch","uniform","","","","","","","","108979","110982.90000003576","","","","","","","","","","","","4","","stimuli/stars_4.png","52","","","","","stimuli/AF09_HE.jpg","",""
"explore-choice","41","110628","0.0-41.0","p945386","A1JR35HATOEME9","3087LXLJ6NMH85PJ46SJUKP4Z1V0FD","3JZQSN0I3SGH6TYY8AMN4W79PUUFGW","model","mismatch","uniform","","","","","","","557.1000000238419","110983.5","111540.60000002384","[""stimuli/HF09_SC.jpg"",""stimuli/WM09_HE.jpg"",""stimuli/WM07_FO.jpg"",""stimuli/AF09_DO.jpg""]","stimuli/HF09_SC.jpg","stimuli/WM09_HE.jpg","stimuli/WM07_FO.jpg","stimuli/AF09_DO.jpg","pos2","stimuli/WM09_HE.jpg","HE","WM09","1","2.5","5","4","stimuli/stars_5.png","54.5","[""SC"",""HE"",""FO"",""DO""]","[""HF09"",""WM09"",""WM07"",""AF09""]","[0,5,7,8]","[2,4,8,6]","","",""
"show-reward","42","112630","0.0-42.0","p945386","A1JR35HATOEME9","3087LXLJ6NMH85PJ46SJUKP4Z1V0FD","3JZQSN0I3SGH6TYY8AMN4W79PUUFGW","model","mismatch","uniform","","","","","","","","112041.40000003576","114042.60000002384","","","","","","","","","","","","5","","stimuli/stars_5.png","54.5","","","","","stimuli/WM09_HE.jpg","",""
"explore-choice","43","113602","0.0-43.0","p945386","A1JR35HATOEME9","3087LXLJ6NMH85PJ46SJUKP4Z1V0FD","3JZQSN0I3SGH6TYY8AMN4W79PUUFGW","model","mismatch","uniform","","","","","","","465.5","114043.10000002384","114508.60000002384","[""stimuli/WM07_SC.jpg"",""stimuli/WM09_HE.jpg"",""stimuli/HF09_FO.jpg"",""stimuli/AF09_DO.jpg""]","stimuli/WM07_SC.jpg","stimuli/WM09_HE.jpg","stimuli/HF09_FO.jpg","stimuli/AF09_DO.jpg","pos3","stimuli/HF09_FO.jpg","FO","HF09","2","1.5","3","2","stimuli/stars_3.png","56","[""SC"",""HE"",""FO"",""DO""]","[""WM07"",""WM09"",""HF09"",""AF09""]","[10,2,3,6]","[8,4,2,6]","","",""
"show-reward","44","115607","0.0-44.0","p945386","A1JR35HATOEME9","3087LXLJ6NMH85PJ46SJUKP4Z1V0FD","3JZQSN0I3SGH6TYY8AMN4W79PUUFGW","model","mismatch","uniform","","","","","","","","115015.20000004768","117020.40000003576","","","","","","","","","","","","3","","stimuli/stars_3.png","56","","","","","stimuli/HF09_FO.jpg","",""
"explore-choice","45","116849","0.0-45.0","p945386","A1JR35HATOEME9","3087LXLJ6NMH85PJ46SJUKP4Z1V0FD","3JZQSN0I3SGH6TYY8AMN4W79PUUFGW","model","mismatch","uniform","","","","","","","739.7000000476837","117021","117760.70000004768","[""stimuli/AF09_DO.jpg"",""stimuli/WM09_FO.jpg"",""stimuli/WM07_SC.jpg"",""stimuli/HF09_HE.jpg""]","stimuli/AF09_DO.jpg","stimuli/WM09_FO.jpg","stimuli/WM07_SC.jpg","stimuli/HF09_HE.jpg","pos1","stimuli/AF09_DO.jpg","DO","AF09","0","2","4","6","stimuli/stars_4.png","58","[""DO"",""FO"",""SC"",""HE""]","[""AF09"",""WM09"",""WM07"",""HF09""]","[4,2,10,2]","[6,4,8,2]","","",""
"show-reward","46","118850","0.0-46.0","p945386","A1JR35HATOEME9","3087LXLJ6NMH85PJ46SJUKP4Z1V0FD","3JZQSN0I3SGH6TYY8AMN4W79PUUFGW","model","mismatch","uniform","","","","","","","","118262.10000002384","120263.30000001192","","","","","","","","","","","","4","","stimuli/stars_4.png","58","","","","","stimuli/AF09_DO.jpg","",""
"explore-choice","47","120186","0.0-47.0","p945386","A1JR35HATOEME9","3087LXLJ6NMH85PJ46SJUKP4Z1V0FD","3JZQSN0I3SGH6TYY8AMN4W79PUUFGW","model","mismatch","uniform","","","","","","","833.8000000119209","120263.80000001192","121097.60000002384","[""stimuli/AF09_SC.jpg"",""stimuli/HF09_HE.jpg"",""stimuli/WM07_DO.jpg"",""stimuli/WM09_FO.jpg""]","stimuli/AF09_SC.jpg","stimuli/HF09_HE.jpg","stimuli/WM07_DO.jpg","stimuli/WM09_FO.jpg","pos1","stimuli/AF09_SC.jpg","SC","AF09","0","2.5","5","6","stimuli/stars_5.png","60.5","[""SC"",""HE"",""DO"",""FO""]","[""AF09"",""HF09"",""WM07"",""WM09""]","[5,0,10,4]","[6,2,8,4]","","",""
"show-reward","48","122189","0.0-48.0","p945386","A1JR35HATOEME9","3087LXLJ6NMH85PJ46SJUKP4Z1V0FD","3JZQSN0I3SGH6TYY8AMN4W79PUUFGW","model","mismatch","uniform","","","","","","","","121599.10000002384","123602.40000003576","","","","","","","","","","","","5","","stimuli/stars_5.png","60.5","","","","","stimuli/AF09_SC.jpg","",""
"explore-choice","49","123547","0.0-49.0","p945386","A1JR35HATOEME9","3087LXLJ6NMH85PJ46SJUKP4Z1V0FD","3JZQSN0I3SGH6TYY8AMN4W79PUUFGW","model","mismatch","uniform","","","","","","","854.6000000238419","123603","124457.60000002384","[""stimuli/WM09_FO.jpg"",""stimuli/HF09_SC.jpg"",""stimuli/WM07_HE.jpg"",""stimuli/AF09_DO.jpg""]","stimuli/WM09_FO.jpg","stimuli/HF09_SC.jpg","stimuli/WM07_HE.jpg","stimuli/AF09_DO.jpg","pos1","stimuli/WM09_FO.jpg","FO","WM09","0","1.5","3","4","stimuli/stars_3.png","62","[""FO"",""SC"",""HE"",""DO""]","[""WM09"",""HF09"",""WM07"",""AF09""]","[3,4,10,5]","[4,2,8,6]","","",""
"show-reward","50","125557","0.0-50.0","p945386","A1JR35HATOEME9","3087LXLJ6NMH85PJ46SJUKP4Z1V0FD","3JZQSN0I3SGH6TYY8AMN4W79PUUFGW","model","mismatch","uniform","","","","","","","","124960.20000004768","126970.40000003576","","","","","","","","","","","","3","","stimuli/stars_3.png","62","","","","","stimuli/WM09_FO.jpg","",""
"explore-choice","51","126666","0.0-51.0","p945386","A1JR35HATOEME9","3087LXLJ6NMH85PJ46SJUKP4Z1V0FD","3JZQSN0I3SGH6TYY8AMN4W79PUUFGW","model","mismatch","uniform","","","","","","","607.5","126971","127578.5","[""stimuli/AF09_HE.jpg"",""stimuli/WM07_DO.jpg"",""stimuli/HF09_FO.jpg"",""stimuli/WM09_SC.jpg""]","stimuli/AF09_HE.jpg","stimuli/WM07_DO.jpg","stimuli/HF09_FO.jpg","stimuli/WM09_SC.jpg","pos4","stimuli/WM09_SC.jpg","SC","WM09","3","2","4","4","stimuli/stars_4.png","64","[""HE"",""DO"",""FO"",""SC""]","[""AF09"",""WM07"",""HF09"",""WM09""]","[7,7,1,4]","[6,8,2,4]","","",""
"show-reward","52","128668","0.0-52.0","p945386","A1JR35HATOEME9","3087LXLJ6NMH85PJ46SJUKP4Z1V0FD","3JZQSN0I3SGH6TYY8AMN4W79PUUFGW","model","mismatch","uniform","","","","","","","","128080","130081.30000001192","","","","","","","","","","","","4","","stimuli/stars_4.png","64","","","","","stimuli/WM09_SC.jpg","",""
"explore-choice","53","130028","0.0-53.0","p945386","A1JR35HATOEME9","3087LXLJ6NMH85PJ46SJUKP4Z1V0FD","3JZQSN0I3SGH6TYY8AMN4W79PUUFGW","model","mismatch","uniform","","","","","","","858.6999999880791","130081.90000003576","130940.60000002384","[""stimuli/HF09_DO.jpg"",""stimuli/WM07_HE.jpg"",""stimuli/WM09_FO.jpg"",""stimuli/AF09_SC.jpg""]","stimuli/HF09_DO.jpg","stimuli/WM07_HE.jpg","stimuli/WM09_FO.jpg","stimuli/AF09_SC.jpg","pos2","stimuli/WM07_HE.jpg","HE","WM07","1","4.5","9","8","stimuli/stars_9.png","68.5","[""DO"",""HE"",""FO"",""SC""]","[""HF09"",""WM07"",""WM09"",""AF09""]","[3,9,3,6]","[2,8,4,6]","","",""
"show-reward","54","132043","0.0-54.0","p945386","A1JR35HATOEME9","3087LXLJ6NMH85PJ46SJUKP4Z1V0FD","3JZQSN0I3SGH6TYY8AMN4W79PUUFGW","model","mismatch","uniform","","","","","","","","131441.60000002384","133456.30000001192","","","","","","","","","","","","9","","stimuli/stars_9.png","68.5","","","","","stimuli/WM07_HE.jpg","",""
"explore-choice","55","133733","0.0-55.0","p945386","A1JR35HATOEME9","3087LXLJ6NMH85PJ46SJUKP4Z1V0FD","3JZQSN0I3SGH6TYY8AMN4W79PUUFGW","model","mismatch","uniform","","","","","","","1174.800000011921","133456.90000003576","134631.70000004768","[""stimuli/AF09_HE.jpg"",""stimuli/WM07_DO.jpg"",""stimuli/HF09_SC.jpg"",""stimuli/WM09_FO.jpg""]","stimuli/AF09_HE.jpg","stimuli/WM07_DO.jpg","stimuli/HF09_SC.jpg","stimuli/WM09_FO.jpg","pos4","stimuli/WM09_FO.jpg","FO","WM09","3","2.5","5","4","stimuli/stars_5.png","71","[""HE"",""DO"",""SC"",""FO""]","[""AF09"",""WM07"",""HF09"",""WM09""]","[4,6,2,5]","[6,8,2,4]","","",""
"show-reward","56","135735","0.0-56.0","p945386","A1JR35HATOEME9","3087LXLJ6NMH85PJ46SJUKP4Z1V0FD","3JZQSN0I3SGH6TYY8AMN4W79PUUFGW","model","mismatch","uniform","","","","","","","","135146.60000002384","137147.70000004768","","","","","","","","","","","","5","","stimuli/stars_5.png","71","","","","","stimuli/WM09_FO.jpg","",""
"explore-choice","57","137019","0.0-57.0","p945386","A1JR35HATOEME9","3087LXLJ6NMH85PJ46SJUKP4Z1V0FD","3JZQSN0I3SGH6TYY8AMN4W79PUUFGW","model","mismatch","uniform","","","","","","","783.1999999880791","137148.30000001192","137931.5","[""stimuli/AF09_FO.jpg"",""stimuli/WM07_HE.jpg"",""stimuli/WM09_DO.jpg"",""stimuli/HF09_SC.jpg""]","stimuli/AF09_FO.jpg","stimuli/WM07_HE.jpg","stimuli/WM09_DO.jpg","stimuli/HF09_SC.jpg","pos1","stimuli/AF09_FO.jpg","FO","AF09","0","2","4","6","stimuli/stars_4.png","73","[""FO"",""HE"",""DO"",""SC""]","[""AF09"",""WM07"",""WM09"",""HF09""]","[4,8,3,3]","[6,8,4,2]","","",""
"show-reward","58","139028","0.0-58.0","p945386","A1JR35HATOEME9","3087LXLJ6NMH85PJ46SJUKP4Z1V0FD","3JZQSN0I3SGH6TYY8AMN4W79PUUFGW","model","mismatch","uniform","","","","","","","","138432.40000003576","140440.70000004768","","","","","","","","","","","","4","","stimuli/stars_4.png","73","","","","","stimuli/AF09_FO.jpg","",""
"explore-choice","59","140451","0.0-59.0","p945386","A1JR35HATOEME9","3087LXLJ6NMH85PJ46SJUKP4Z1V0FD","3JZQSN0I3SGH6TYY8AMN4W79PUUFGW","model","mismatch","uniform","","","","","","","916.4000000357628","140441.30000001192","141357.70000004768","[""stimuli/HF09_DO.jpg"",""stimuli/WM07_SC.jpg"",""stimuli/AF09_HE.jpg"",""stimuli/WM09_FO.jpg""]","stimuli/HF09_DO.jpg","stimuli/WM07_SC.jpg","stimuli/AF09_HE.jpg","stimuli/WM09_FO.jpg","pos4","stimuli/WM09_FO.jpg","FO","WM09","3","3","6","4","stimuli/stars_6.png","76","[""DO"",""SC"",""HE"",""FO""]","[""HF09"",""WM07"",""AF09"",""WM09""]","[1,9,4,6]","[2,8,6,4]","","",""
"show-reward","60","142459","0.0-60.0","p945386","A1JR35HATOEME9","3087LXLJ6NMH85PJ46SJUKP4Z1V0FD","3JZQSN0I3SGH6TYY8AMN4W79PUUFGW","model","mismatch","uniform","","","","","","","","141864.60000002384","143871.90000003576","","","","","","","","","","","","6","","stimuli/stars_6.png","76","","","","","stimuli/WM09_FO.jpg","",""
"explore-choice","61","144439","0.0-61.0","p945386","A1JR35HATOEME9","3087LXLJ6NMH85PJ46SJUKP4Z1V0FD","3JZQSN0I3SGH6TYY8AMN4W79PUUFGW","model","mismatch","uniform","","","","","","","1478.4000000357628","143872.30000001192","145350.70000004768","[""stimuli/WM07_FO.jpg"",""stimuli/WM09_DO.jpg"",""stimuli/HF09_HE.jpg"",""stimuli/AF09_SC.jpg""]","stimuli/WM07_FO.jpg","stimuli/WM09_DO.jpg","stimuli/HF09_HE.jpg","stimuli/AF09_SC.jpg","pos2","stimuli/WM09_DO.jpg","DO","WM09","1","3","6","4","stimuli/stars_6.png","79","[""FO"",""DO"",""HE"",""SC""]","[""WM07"",""WM09"",""HF09"",""AF09""]","[8,6,3,4]","[8,4,2,6]","","",""
"show-reward","62","146448","0.0-62.0","p945386","A1JR35HATOEME9","3087LXLJ6NMH85PJ46SJUKP4Z1V0FD","3JZQSN0I3SGH6TYY8AMN4W79PUUFGW","model","mismatch","uniform","","","","","","","","145852.10000002384","147861.40000003576","","","","","","","","","","","","6","","stimuli/stars_6.png","79","","","","","stimuli/WM09_DO.jpg","",""
"explore-choice","63","148126","0.0-63.0","p945386","A1JR35HATOEME9","3087LXLJ6NMH85PJ46SJUKP4Z1V0FD","3JZQSN0I3SGH6TYY8AMN4W79PUUFGW","model","mismatch","uniform","","","","","","","1173.6000000238419","147862","149035.60000002384","[""stimuli/AF09_SC.jpg"",""stimuli/HF09_FO.jpg"",""stimuli/WM09_DO.jpg"",""stimuli/WM07_HE.jpg""]","stimuli/AF09_SC.jpg","stimuli/HF09_FO.jpg","stimuli/WM09_DO.jpg","stimuli/WM07_HE.jpg","pos4","stimuli/WM07_HE.jpg","HE","WM07","3","3","6","8","stimuli/stars_6.png","82","[""SC"",""FO"",""DO"",""HE""]","[""AF09"",""HF09"",""WM09"",""WM07""]","[5,1,6,6]","[6,2,4,8]","","",""
"show-reward","64","150142","0.0-64.0","p945386","A1JR35HATOEME9","3087LXLJ6NMH85PJ46SJUKP4Z1V0FD","3JZQSN0I3SGH6TYY8AMN4W79PUUFGW","model","mismatch","uniform","","","","","","","","149539.70000004768","151554.90000003576","","","","","","","","","","","","6","","stimuli/stars_6.png","82","","","","","stimuli/WM07_HE.jpg","",""
"explore-choice","65","151907","0.0-65.0","p945386","A1JR35HATOEME9","3087LXLJ6NMH85PJ46SJUKP4Z1V0FD","3JZQSN0I3SGH6TYY8AMN4W79PUUFGW","model","mismatch","uniform","","","","","","","1260.199999988079","151555.40000003576","152815.60000002384","[""stimuli/WM07_FO.jpg"",""stimuli/AF09_HE.jpg"",""stimuli/WM09_DO.jpg"",""stimuli/HF09_SC.jpg""]","stimuli/WM07_FO.jpg","stimuli/AF09_HE.jpg","stimuli/WM09_DO.jpg","stimuli/HF09_SC.jpg","pos3","stimuli/WM09_DO.jpg","DO","WM09","2","3","6","4","stimuli/stars_6.png","85","[""FO"",""HE"",""DO"",""SC""]","[""WM07"",""AF09"",""WM09"",""HF09""]","[10,7,6,2]","[8,6,4,2]","","",""
"show-reward","66","153919","0.0-66.0","p945386","A1JR35HATOEME9","3087LXLJ6NMH85PJ46SJUKP4Z1V0FD","3JZQSN0I3SGH6TYY8AMN4W79PUUFGW","model","mismatch","uniform","","","","","","","","153321","155332.20000004768","","","","","","","","","","","","6","","stimuli/stars_6.png","85","","","","","stimuli/WM09_DO.jpg","",""
"explore-choice","67","155705","0.0-67.0","p945386","A1JR35HATOEME9","3087LXLJ6NMH85PJ46SJUKP4Z1V0FD","3JZQSN0I3SGH6TYY8AMN4W79PUUFGW","model","mismatch","uniform","","","","","","","1269.699999988079","155332.90000003576","156602.60000002384","[""stimuli/HF09_SC.jpg"",""stimuli/WM07_HE.jpg"",""stimuli/WM09_FO.jpg"",""stimuli/AF09_DO.jpg""]","stimuli/HF09_SC.jpg","stimuli/WM07_HE.jpg","stimuli/WM09_FO.jpg","stimuli/AF09_DO.jpg","pos3","stimuli/WM09_FO.jpg","FO","WM09","2","1.5","3","4","stimuli/stars_3.png","86.5","[""SC"",""HE"",""FO"",""DO""]","[""HF09"",""WM07"",""WM09"",""AF09""]","[4,10,3,5]","[2,8,4,6]","","",""
"show-reward","68","157722","0.0-68.0","p945386","A1JR35HATOEME9","3087LXLJ6NMH85PJ46SJUKP4Z1V0FD","3JZQSN0I3SGH6TYY8AMN4W79PUUFGW","model","mismatch","uniform","","","","","","","","157118.5","159134.70000004768","","","","","","","","","","","","3","","stimuli/stars_3.png","86.5","","","","","stimuli/WM09_FO.jpg","",""
"explore-choice","69","159324","0.0-69.0","p945386","A1JR35HATOEME9","3087LXLJ6NMH85PJ46SJUKP4Z1V0FD","3JZQSN0I3SGH6TYY8AMN4W79PUUFGW","model","mismatch","uniform","","","","","","","1099.4000000357628","159135.30000001192","160234.70000004768","[""stimuli/AF09_DO.jpg"",""stimuli/HF09_FO.jpg"",""stimuli/WM09_HE.jpg"",""stimuli/WM07_SC.jpg""]","stimuli/AF09_DO.jpg","stimuli/HF09_FO.jpg","stimuli/WM09_HE.jpg","stimuli/WM07_SC.jpg","pos4","stimuli/WM07_SC.jpg","SC","WM07","3","5","10","8","stimuli/stars_10.png","91.5","[""DO"",""FO"",""HE"",""SC""]","[""AF09"",""HF09"",""WM09"",""WM07""]","[6,3,2,10]","[6,2,4,8]","","",""
"show-reward","70","161334","0.0-70.0","p945386","A1JR35HATOEME9","3087LXLJ6NMH85PJ46SJUKP4Z1V0FD","3JZQSN0I3SGH6TYY8AMN4W79PUUFGW","model","mismatch","uniform","","","","","","","","160737.80000001192","162747","","","","","","","","","","","","10","","stimuli/stars_10.png","91.5","","","","","stimuli/WM07_SC.jpg","",""
"explore-choice","71","163370","0.0-71.0","p945386","A1JR35HATOEME9","3087LXLJ6NMH85PJ46SJUKP4Z1V0FD","3JZQSN0I3SGH6TYY8AMN4W79PUUFGW","model","mismatch","uniform","","","","","","","1534.8999999761581","162747.60000002384","164282.5","[""stimuli/WM09_FO.jpg"",""stimuli/WM07_SC.jpg"",""stimuli/AF09_DO.jpg"",""stimuli/HF09_HE.jpg""]","stimuli/WM09_FO.jpg","stimuli/WM07_SC.jpg","stimuli/AF09_DO.jpg","stimuli/HF09_HE.jpg","pos2","stimuli/WM07_SC.jpg","SC","WM07","1","5","10","8","stimuli/stars_10.png","96.5","[""FO"",""SC"",""DO"",""HE""]","[""WM09"",""WM07"",""AF09"",""HF09""]","[2,10,4,2]","[4,8,6,2]","","",""
"show-reward","72","165382","0.0-72.0","p945386","A1JR35HATOEME9","3087LXLJ6NMH85PJ46SJUKP4Z1V0FD","3JZQSN0I3SGH6TYY8AMN4W79PUUFGW","model","mismatch","uniform","","","","","","","","164783.30000001192","166794.70000004768","","","","","","","","","","","","10","","stimuli/stars_10.png","96.5","","","","","stimuli/WM07_SC.jpg","",""
"explore-choice","73","168137","0.0-73.0","p945386","A1JR35HATOEME9","3087LXLJ6NMH85PJ46SJUKP4Z1V0FD","3JZQSN0I3SGH6TYY8AMN4W79PUUFGW","model","mismatch","uniform","","","","","","","2251.399999976158","166795.10000002384","169046.5","[""stimuli/WM09_HE.jpg"",""stimuli/WM07_DO.jpg"",""stimuli/AF09_FO.jpg"",""stimuli/HF09_SC.jpg""]","stimuli/WM09_HE.jpg","stimuli/WM07_DO.jpg","stimuli/AF09_FO.jpg","stimuli/HF09_SC.jpg","pos1","stimuli/WM09_HE.jpg","HE","WM09","0","3","6","4","stimuli/stars_6.png","99.5","[""HE"",""DO"",""FO"",""SC""]","[""WM09"",""WM07"",""AF09"",""HF09""]","[6,8,4,4]","[4,8,6,2]","","",""
"show-reward","74","170145","0.0-74.0","p945386","A1JR35HATOEME9","3087LXLJ6NMH85PJ46SJUKP4Z1V0FD","3JZQSN0I3SGH6TYY8AMN4W79PUUFGW","model","mismatch","uniform","","","","","","","","169549.80000001192","171557.10000002384","","","","","","","","","","","","6","","stimuli/stars_6.png","99.5","","","","","stimuli/WM09_HE.jpg","",""
"explore-choice","75","172186","0.0-75.0","p945386","A1JR35HATOEME9","3087LXLJ6NMH85PJ46SJUKP4Z1V0FD","3JZQSN0I3SGH6TYY8AMN4W79PUUFGW","model","mismatch","uniform","","","","","","","1539.9000000357628","171558","173097.90000003576","[""stimuli/WM07_HE.jpg"",""stimuli/HF09_DO.jpg"",""stimuli/WM09_SC.jpg"",""stimuli/AF09_FO.jpg""]","stimuli/WM07_HE.jpg","stimuli/HF09_DO.jpg","stimuli/WM09_SC.jpg","stimuli/AF09_FO.jpg","pos2","stimuli/HF09_DO.jpg","DO","HF09","1","0","0","2","stimuli/stars_0.png","99.5","[""HE"",""DO"",""SC"",""FO""]","[""WM07"",""HF09"",""WM09"",""AF09""]","[10,0,3,6]","[8,2,4,6]","","",""
"show-reward","76","174202","0.0-76.0","p945386","A1JR35HATOEME9","3087LXLJ6NMH85PJ46SJUKP4Z1V0FD","3JZQSN0I3SGH6TYY8AMN4W79PUUFGW","model","mismatch","uniform","","","","","","","","173599.40000003576","175614.70000004768","","","","","","","","","","","","0","","stimuli/stars_0.png","99.5","","","","","stimuli/HF09_DO.jpg","",""
"explore-choice","77","176590","0.0-77.0","p945386","A1JR35HATOEME9","3087LXLJ6NMH85PJ46SJUKP4Z1V0FD","3JZQSN0I3SGH6TYY8AMN4W79PUUFGW","model","mismatch","uniform","","","","","","","1887.5999999642372","175615.20000004768","177502.80000001192","[""stimuli/WM09_HE.jpg"",""stimuli/WM07_DO.jpg"",""stimuli/HF09_FO.jpg"",""stimuli/AF09_SC.jpg""]","stimuli/WM09_HE.jpg","stimuli/WM07_DO.jpg","stimuli/HF09_FO.jpg","stimuli/AF09_SC.jpg","pos3","stimuli/HF09_FO.jpg","FO","HF09","2","0.5","1","2","stimuli/stars_1.png","100","[""HE"",""DO"",""FO"",""SC""]","[""WM09"",""WM07"",""HF09"",""AF09""]","[6,6,1,8]","[4,8,2,6]","","",""
"show-reward","78","178606","0.0-78.0","p945386","A1JR35HATOEME9","3087LXLJ6NMH85PJ46SJUKP4Z1V0FD","3JZQSN0I3SGH6TYY8AMN4W79PUUFGW","model","mismatch","uniform","","","","","","","","178003.5","180018.70000004768","","","","","","","","","","","","1","","stimuli/stars_1.png","100","","","","","stimuli/HF09_FO.jpg","",""
"explore-choice","79","179885","0.0-79.0","p945386","A1JR35HATOEME9","3087LXLJ6NMH85PJ46SJUKP4Z1V0FD","3JZQSN0I3SGH6TYY8AMN4W79PUUFGW","model","mismatch","uniform","","","","","","","778.3999999761581","180019.20000004768","180797.60000002384","[""stimuli/WM07_DO.jpg"",""stimuli/HF09_HE.jpg"",""stimuli/AF09_FO.jpg"",""stimuli/WM09_SC.jpg""]","stimuli/WM07_DO.jpg","stimuli/HF09_HE.jpg","stimuli/AF09_FO.jpg","stimuli/WM09_SC.jpg","pos1","stimuli/WM07_DO.jpg","DO","WM07","0","5","10","8","stimuli/stars_10.png","105","[""DO"",""HE"",""FO"",""SC""]","[""WM07"",""HF09"",""AF09"",""WM09""]","[10,4,5,2]","[8,2,6,4]","","",""
"show-reward","80","181890","0.0-80.0","p945386","A1JR35HATOEME9","3087LXLJ6NMH85PJ46SJUKP4Z1V0FD","3JZQSN0I3SGH6TYY8AMN4W79PUUFGW","model","mismatch","uniform","","","","","","","","181298.30000001192","183302.60000002384","","","","","","","","","","","","10","","stimuli/stars_10.png","105","","","","","stimuli/WM07_DO.jpg","",""
"explore-choice","81","183604","0.0-81.0","p945386","A1JR35HATOEME9","3087LXLJ6NMH85PJ46SJUKP4Z1V0FD","3JZQSN0I3SGH6TYY8AMN4W79PUUFGW","model","mismatch","uniform","","","","","","","1212.3999999761581","183303.20000004768","184515.60000002384","[""stimuli/AF09_HE.jpg"",""stimuli/WM07_FO.jpg"",""stimuli/WM09_SC.jpg"",""stimuli/HF09_DO.jpg""]","stimuli/AF09_HE.jpg","stimuli/WM07_FO.jpg","stimuli/WM09_SC.jpg","stimuli/HF09_DO.jpg","pos2","stimuli/WM07_FO.jpg","FO","WM07","1","3","6","8","stimuli/stars_6.png","108","[""HE"",""FO"",""SC"",""DO""]","[""AF09"",""WM07"",""WM09"",""HF09""]","[6,6,5,3]","[6,8,4,2]","","",""
"show-reward","82","185607","0.0-82.0","p945386","A1JR35HATOEME9","3087LXLJ6NMH85PJ46SJUKP4Z1V0FD","3JZQSN0I3SGH6TYY8AMN4W79PUUFGW","model","mismatch","uniform","","","","","","","","185016.80000001192","187020","","","","","","","","","","","","6","","stimuli/stars_6.png","108","","","","","stimuli/WM07_FO.jpg","",""
"explore-choice","83","186920","0.0-83.0","p945386","A1JR35HATOEME9","3087LXLJ6NMH85PJ46SJUKP4Z1V0FD","3JZQSN0I3SGH6TYY8AMN4W79PUUFGW","model","mismatch","uniform","","","","","","","810.8999999761581","187020.60000002384","187831.5","[""stimuli/WM07_HE.jpg"",""stimuli/HF09_DO.jpg"",""stimuli/AF09_SC.jpg"",""stimuli/WM09_FO.jpg""]","stimuli/WM07_HE.jpg","stimuli/HF09_DO.jpg","stimuli/AF09_SC.jpg","stimuli/WM09_FO.jpg","pos1","stimuli/WM07_HE.jpg","HE","WM07","0","4.5","9","8","stimuli/stars_9.png","112.5","[""HE"",""DO"",""SC"",""FO""]","[""WM07"",""HF09"",""AF09"",""WM09""]","[9,3,6,3]","[8,2,6,4]","","",""
"show-reward","84","188936","0.0-84.0","p945386","A1JR35HATOEME9","3087LXLJ6NMH85PJ46SJUKP4Z1V0FD","3JZQSN0I3SGH6TYY8AMN4W79PUUFGW","model","mismatch","uniform","","","","","","","","188332.80000001192","190348","","","","","","","","","","","","9","","stimuli/stars_9.png","112.5","","","","","stimuli/WM07_HE.jpg","",""
"explore-choice","85","190841","0.0-85.0","p945386","A1JR35HATOEME9","3087LXLJ6NMH85PJ46SJUKP4Z1V0FD","3JZQSN0I3SGH6TYY8AMN4W79PUUFGW","model","mismatch","uniform","","","","","","","1405.1000000238419","190348.60000002384","191753.70000004768","[""stimuli/WM07_DO.jpg"",""stimuli/HF09_HE.jpg"",""stimuli/WM09_FO.jpg"",""stimuli/AF09_SC.jpg""]","stimuli/WM07_DO.jpg","stimuli/HF09_HE.jpg","stimuli/WM09_FO.jpg","stimuli/AF09_SC.jpg","pos1","stimuli/WM07_DO.jpg","DO","WM07","0","5","10","8","stimuli/stars_10.png","117.5","[""DO"",""HE"",""FO"",""SC""]","[""WM07"",""HF09"",""WM09"",""AF09""]","[10,0,4,5]","[8,2,4,6]","","",""
"show-reward","86","192857","0.0-86.0","p945386","A1JR35HATOEME9","3087LXLJ6NMH85PJ46SJUKP4Z1V0FD","3JZQSN0I3SGH6TYY8AMN4W79PUUFGW","model","mismatch","uniform","","","","","","","","192254.30000001192","194269.70000004768","","","","","","","","","","","","10","","stimuli/stars_10.png","117.5","","","","","stimuli/WM07_DO.jpg","",""
"explore-choice","87","194274","0.0-87.0","p945386","A1JR35HATOEME9","3087LXLJ6NMH85PJ46SJUKP4Z1V0FD","3JZQSN0I3SGH6TYY8AMN4W79PUUFGW","model","mismatch","uniform","","","","","","","913.3999999761581","194270.20000004768","195183.60000002384","[""stimuli/WM07_DO.jpg"",""stimuli/AF09_HE.jpg"",""stimuli/WM09_SC.jpg"",""stimuli/HF09_FO.jpg""]","stimuli/WM07_DO.jpg","stimuli/AF09_HE.jpg","stimuli/WM09_SC.jpg","stimuli/HF09_FO.jpg","pos1","stimuli/WM07_DO.jpg","DO","WM07","0","3.5","7","8","stimuli/stars_7.png","121","[""DO"",""HE"",""SC"",""FO""]","[""WM07"",""AF09"",""WM09"",""HF09""]","[7,7,4,1]","[8,6,4,2]","","",""
"show-reward","88","196276","0.0-88.0","p945386","A1JR35HATOEME9","3087LXLJ6NMH85PJ46SJUKP4Z1V0FD","3JZQSN0I3SGH6TYY8AMN4W79PUUFGW","model","mismatch","uniform","","","","","","","","195687.5","197688.70000004768","","","","","","","","","","","","7","","stimuli/stars_7.png","121","","","","","stimuli/WM07_DO.jpg","",""
"explore-choice","89","197842","0.0-89.0","p945386","A1JR35HATOEME9","3087LXLJ6NMH85PJ46SJUKP4Z1V0FD","3JZQSN0I3SGH6TYY8AMN4W79PUUFGW","model","mismatch","uniform","","","","","","","1064.5","197689.20000004768","198753.70000004768","[""stimuli/HF09_FO.jpg"",""stimuli/AF09_HE.jpg"",""stimuli/WM07_SC.jpg"",""stimuli/WM09_DO.jpg""]","stimuli/HF09_FO.jpg","stimuli/AF09_HE.jpg","stimuli/WM07_SC.jpg","stimuli/WM09_DO.jpg","pos3","stimuli/WM07_SC.jpg","SC","WM07","2","5","10","8","stimuli/stars_10.png","126","[""FO"",""HE"",""SC"",""DO""]","[""HF09"",""AF09"",""WM07"",""WM09""]","[0,4,10,6]","[2,6,8,4]","","",""
"show-reward","90","199843","0.0-90.0","p945386","A1JR35HATOEME9","3087LXLJ6NMH85PJ46SJUKP4Z1V0FD","3JZQSN0I3SGH6TYY8AMN4W79PUUFGW","model","mismatch","uniform","","","","","","","","199254.70000004768","201255.90000003576","","","","","","","","","","","","10","","stimuli/stars_10.png","126","","","","","stimuli/WM07_SC.jpg","",""
"explore-choice","91","201093","0.0-91.0","p945386","A1JR35HATOEME9","3087LXLJ6NMH85PJ46SJUKP4Z1V0FD","3JZQSN0I3SGH6TYY8AMN4W79PUUFGW","model","mismatch","uniform","","","","","","","741.0999999642372","201256.40000003576","201997.5","[""stimuli/WM07_HE.jpg"",""stimuli/AF09_DO.jpg"",""stimuli/HF09_FO.jpg"",""stimuli/WM09_SC.jpg""]","stimuli/WM07_HE.jpg","stimuli/AF09_DO.jpg","stimuli/HF09_FO.jpg","stimuli/WM09_SC.jpg","pos1","stimuli/WM07_HE.jpg","HE","WM07","0","3","6","8","stimuli/stars_6.png","129","[""HE"",""DO"",""FO"",""SC""]","[""WM07"",""AF09"",""HF09"",""WM09""]","[6,7,2,4]","[8,6,2,4]","","",""
"show-reward","92","203102","0.0-92.0","p945386","A1JR35HATOEME9","3087LXLJ6NMH85PJ46SJUKP4Z1V0FD","3JZQSN0I3SGH6TYY8AMN4W79PUUFGW","model","mismatch","uniform","","","","","","","","202505.80000001192","204515","","","","","","","","","","","","6","","stimuli/stars_6.png","129","","","","","stimuli/WM07_HE.jpg","",""
"explore-choice","93","204556","0.0-93.0","p945386","A1JR35HATOEME9","3087LXLJ6NMH85PJ46SJUKP4Z1V0FD","3JZQSN0I3SGH6TYY8AMN4W79PUUFGW","model","mismatch","uniform","","","","","","","939.1000000238419","204515.5","205454.60000002384","[""stimuli/WM09_HE.jpg"",""stimuli/HF09_DO.jpg"",""stimuli/AF09_FO.jpg"",""stimuli/WM07_SC.jpg""]","stimuli/WM09_HE.jpg","stimuli/HF09_DO.jpg","stimuli/AF09_FO.jpg","stimuli/WM07_SC.jpg","pos4","stimuli/WM07_SC.jpg","SC","WM07","3","3","6","8","stimuli/stars_6.png","132","[""HE"",""DO"",""FO"",""SC""]","[""WM09"",""HF09"",""AF09"",""WM07""]","[4,4,6,6]","[4,2,6,8]","","",""
"show-reward","94","206557","0.0-94.0","p945386","A1JR35HATOEME9","3087LXLJ6NMH85PJ46SJUKP4Z1V0FD","3JZQSN0I3SGH6TYY8AMN4W79PUUFGW","model","mismatch","uniform","","","","","","","","205968.90000003576","207970.10000002384","","","","","","","","","","","","6","","stimuli/stars_6.png","132","","","","","stimuli/WM07_SC.jpg","",""
"explore-choice","95","208181","0.0-95.0","p945386","A1JR35HATOEME9","3087LXLJ6NMH85PJ46SJUKP4Z1V0FD","3JZQSN0I3SGH6TYY8AMN4W79PUUFGW","model","mismatch","uniform","","","","","","","1107","207970.70000004768","209077.70000004768","[""stimuli/HF09_HE.jpg"",""stimuli/AF09_DO.jpg"",""stimuli/WM07_FO.jpg"",""stimuli/WM09_SC.jpg""]","stimuli/HF09_HE.jpg","stimuli/AF09_DO.jpg","stimuli/WM07_FO.jpg","stimuli/WM09_SC.jpg","pos3","stimuli/WM07_FO.jpg","FO","WM07","2","4","8","8","stimuli/stars_8.png","136","[""HE"",""DO"",""FO"",""SC""]","[""HF09"",""AF09"",""WM07"",""WM09""]","[1,6,8,2]","[2,6,8,4]","","",""
"show-reward","96","210187","0.0-96.0","p945386","A1JR35HATOEME9","3087LXLJ6NMH85PJ46SJUKP4Z1V0FD","3JZQSN0I3SGH6TYY8AMN4W79PUUFGW","model","mismatch","uniform","","","","","","","","209594.30000001192","211599.40000003576","","","","","","","","","","","","8","","stimuli/stars_8.png","136","","","","","stimuli/WM07_FO.jpg","",""
"explore-choice","97","211607","0.0-97.0","p945386","A1JR35HATOEME9","3087LXLJ6NMH85PJ46SJUKP4Z1V0FD","3JZQSN0I3SGH6TYY8AMN4W79PUUFGW","model","mismatch","uniform","","","","","","","919.6999999880791","211599.90000003576","212519.60000002384","[""stimuli/WM09_HE.jpg"",""stimuli/WM07_FO.jpg"",""stimuli/AF09_DO.jpg"",""stimuli/HF09_SC.jpg""]","stimuli/WM09_HE.jpg","stimuli/WM07_FO.jpg","stimuli/AF09_DO.jpg","stimuli/HF09_SC.jpg","pos2","stimuli/WM07_FO.jpg","FO","WM07","1","3.5","7","8","stimuli/stars_7.png","139.5","[""HE"",""FO"",""DO"",""SC""]","[""WM09"",""WM07"",""AF09"",""HF09""]","[5,7,8,0]","[4,8,6,2]","","",""
"show-reward","98","213614","0.0-98.0","p945386","A1JR35HATOEME9","3087LXLJ6NMH85PJ46SJUKP4Z1V0FD","3JZQSN0I3SGH6TYY8AMN4W79PUUFGW","model","mismatch","uniform","","","","","","","","213020.20000004768","215026.60000002384","","","","","","","","","","","","7","","stimuli/stars_7.png","139.5","","","","","stimuli/WM07_FO.jpg","",""
"explore-choice","99","215091","0.0-99.0","p945386","A1JR35HATOEME9","3087LXLJ6NMH85PJ46SJUKP4Z1V0FD","3JZQSN0I3SGH6TYY8AMN4W79PUUFGW","model","mismatch","uniform","","","","","","","972.1999999880791","215027.30000001192","215999.5","[""stimuli/HF09_DO.jpg"",""stimuli/WM07_FO.jpg"",""stimuli/AF09_SC.jpg"",""stimuli/WM09_HE.jpg""]","stimuli/HF09_DO.jpg","stimuli/WM07_FO.jpg","stimuli/AF09_SC.jpg","stimuli/WM09_HE.jpg","pos2","stimuli/WM07_FO.jpg","FO","WM07","1","5","10","8","stimuli/stars_10.png","144.5","[""DO"",""FO"",""SC"",""HE""]","[""HF09"",""WM07"",""AF09"",""WM09""]","[4,10,4,6]","[2,8,6,4]","","",""
"show-reward","100","217106","0.0-100.0","p945386","A1JR35HATOEME9","3087LXLJ6NMH85PJ46SJUKP4Z1V0FD","3JZQSN0I3SGH6TYY8AMN4W79PUUFGW","model","mismatch","uniform","","","","","","","","216504.40000003576","218518.70000004768","","","","","","","","","","","","10","","stimuli/stars_10.png","144.5","","","","","stimuli/WM07_FO.jpg","",""
"explore-choice","101","218437","0.0-101.0","p945386","A1JR35HATOEME9","3087LXLJ6NMH85PJ46SJUKP4Z1V0FD","3JZQSN0I3SGH6TYY8AMN4W79PUUFGW","model","mismatch","uniform","","","","","","","830.5","218519.20000004768","219349.70000004768","[""stimuli/WM09_DO.jpg"",""stimuli/HF09_HE.jpg"",""stimuli/WM07_SC.jpg"",""stimuli/AF09_FO.jpg""]","stimuli/WM09_DO.jpg","stimuli/HF09_HE.jpg","stimuli/WM07_SC.jpg","stimuli/AF09_FO.jpg","pos3","stimuli/WM07_SC.jpg","SC","WM07","2","3.5","7","8","stimuli/stars_7.png","148","[""DO"",""HE"",""SC"",""FO""]","[""WM09"",""HF09"",""WM07"",""AF09""]","[5,2,7,5]","[4,2,8,6]","","",""
"show-reward","102","220451","0.0-102.0","p945386","A1JR35HATOEME9","3087LXLJ6NMH85PJ46SJUKP4Z1V0FD","3JZQSN0I3SGH6TYY8AMN4W79PUUFGW","model","mismatch","uniform","","","","","","","","219850.60000002384","221863.70000004768","","","","","","","","","","","","7","","stimuli/stars_7.png","148","","","","","stimuli/WM07_SC.jpg","",""
"explore-choice","103","224243","0.0-103.0","p945386","A1JR35HATOEME9","3087LXLJ6NMH85PJ46SJUKP4Z1V0FD","3JZQSN0I3SGH6TYY8AMN4W79PUUFGW","model","mismatch","uniform","","","","","","","3290.199999988079","221864.30000001192","225154.5","[""stimuli/HM07_HO.jpg"",""stimuli/BF06_CC.jpg"",""stimuli/WF11_AO.jpg"",""stimuli/AM09_SUR.jpg""]","stimuli/HM07_HO.jpg","stimuli/BF06_CC.jpg","stimuli/WF11_AO.jpg","stimuli/AM09_SUR.jpg","pos1","stimuli/HM07_HO.jpg","HO","HM07","0","3","6","6","stimuli/stars_6.png","151","[""HO"",""CC"",""AO"",""SUR""]","[""HM07"",""BF06"",""WF11"",""AM09""]","[6,7,5,1]","[6,8,4,2]","","",""
"show-reward","104","226251","0.0-104.0","p945386","A1JR35HATOEME9","3087LXLJ6NMH85PJ46SJUKP4Z1V0FD","3JZQSN0I3SGH6TYY8AMN4W79PUUFGW","model","mismatch","uniform","","","","","","","","225655.70000004768","227663.10000002384","","","","","","","","","","","","6","","stimuli/stars_6.png","151","","","","","stimuli/HM07_HO.jpg","",""
"explore-choice","105","228203","0.0-105.0","p945386","A1JR35HATOEME9","3087LXLJ6NMH85PJ46SJUKP4Z1V0FD","3JZQSN0I3SGH6TYY8AMN4W79PUUFGW","model","mismatch","uniform","","","","","","","1451.8999999761581","227663.70000004768","229115.60000002384","[""stimuli/AM09_CC.jpg"",""stimuli/HM07_AO.jpg"",""stimuli/BF06_SUR.jpg"",""stimuli/WF11_HO.jpg""]","stimuli/AM09_CC.jpg","stimuli/HM07_AO.jpg","stimuli/BF06_SUR.jpg","stimuli/WF11_HO.jpg","pos3","stimuli/BF06_SUR.jpg","SUR","BF06","2","2","4","2","stimuli/stars_4.png","153","[""CC"",""AO"",""SUR"",""HO""]","[""AM09"",""HM07"",""BF06"",""WF11""]","[9,6,4,4]","[8,4,2,6]","","",""
"show-reward","106","230205","0.0-106.0","p945386","A1JR35HATOEME9","3087LXLJ6NMH85PJ46SJUKP4Z1V0FD","3JZQSN0I3SGH6TYY8AMN4W79PUUFGW","model","mismatch","uniform","","","","","","","","229616.30000001192","231617.60000002384","","","","","","","","","","","","4","","stimuli/stars_4.png","153","","","","","stimuli/BF06_SUR.jpg","",""
"explore-choice","107","232000","0.0-107.0","p945386","A1JR35HATOEME9","3087LXLJ6NMH85PJ46SJUKP4Z1V0FD","3JZQSN0I3SGH6TYY8AMN4W79PUUFGW","model","mismatch","uniform","","","","","","","1293.3999999761581","231618.10000002384","232911.5","[""stimuli/WF11_SUR.jpg"",""stimuli/HM07_AO.jpg"",""stimuli/AM09_HO.jpg"",""stimuli/BF06_CC.jpg""]","stimuli/WF11_SUR.jpg","stimuli/HM07_AO.jpg","stimuli/AM09_HO.jpg","stimuli/BF06_CC.jpg","pos2","stimuli/HM07_AO.jpg","AO","HM07","1","2.5","5","4","stimuli/stars_5.png","155.5","[""SUR"",""AO"",""HO"",""CC""]","[""WF11"",""HM07"",""AM09"",""BF06""]","[4,5,5,10]","[2,4,6,8]","","",""
"show-reward","108","234010","0.0-108.0","p945386","A1JR35HATOEME9","3087LXLJ6NMH85PJ46SJUKP4Z1V0FD","3JZQSN0I3SGH6TYY8AMN4W79PUUFGW","model","mismatch","uniform","","","","","","","","233412.70000004768","235422","","","","","","","","","","","","5","","stimuli/stars_5.png","155.5","","","","","stimuli/HM07_AO.jpg","",""
"explore-choice","109","235692","0.0-109.0","p945386","A1JR35HATOEME9","3087LXLJ6NMH85PJ46SJUKP4Z1V0FD","3JZQSN0I3SGH6TYY8AMN4W79PUUFGW","model","mismatch","uniform","","","","","","","1181.2000000476837","235422.5","236603.70000004768","[""stimuli/AM09_HO.jpg"",""stimuli/HM07_SUR.jpg"",""stimuli/WF11_CC.jpg"",""stimuli/BF06_AO.jpg""]","stimuli/AM09_HO.jpg","stimuli/HM07_SUR.jpg","stimuli/WF11_CC.jpg","stimuli/BF06_AO.jpg","pos4","stimuli/BF06_AO.jpg","AO","BF06","3","3","6","4","stimuli/stars_6.png","158.5","[""HO"",""SUR"",""CC"",""AO""]","[""AM09"",""HM07"",""WF11"",""BF06""]","[4,2,7,6]","[6,2,8,4]","","",""
"show-reward","110","237702","0.0-110.0","p945386","A1JR35HATOEME9","3087LXLJ6NMH85PJ46SJUKP4Z1V0FD","3JZQSN0I3SGH6TYY8AMN4W79PUUFGW","model","mismatch","uniform","","","","","","","","237105.10000002384","239114.40000003576","","","","","","","","","","","","6","","stimuli/stars_6.png","158.5","","","","","stimuli/BF06_AO.jpg","",""
"explore-choice","111","239300","0.0-111.0","p945386","A1JR35HATOEME9","3087LXLJ6NMH85PJ46SJUKP4Z1V0FD","3JZQSN0I3SGH6TYY8AMN4W79PUUFGW","model","mismatch","uniform","","","","","","","1097.6000000238419","239115","240212.60000002384","[""stimuli/AM09_SUR.jpg"",""stimuli/HM07_HO.jpg"",""stimuli/WF11_CC.jpg"",""stimuli/BF06_AO.jpg""]","stimuli/AM09_SUR.jpg","stimuli/HM07_HO.jpg","stimuli/WF11_CC.jpg","stimuli/BF06_AO.jpg","pos1","stimuli/AM09_SUR.jpg","SUR","AM09","0","0","0","2","stimuli/stars_0.png","158.5","[""SUR"",""HO"",""CC"",""AO""]","[""AM09"",""HM07"",""WF11"",""BF06""]","[0,7,9,3]","[2,6,8,4]","","",""
"show-reward","112","241314","0.0-112.0","p945386","A1JR35HATOEME9","3087LXLJ6NMH85PJ46SJUKP4Z1V0FD","3JZQSN0I3SGH6TYY8AMN4W79PUUFGW","model","mismatch","uniform","","","","","","","","240713.40000003576","242726.70000004768","","","","","","","","","","","","0","","stimuli/stars_0.png","158.5","","","","","stimuli/AM09_SUR.jpg","",""
"explore-choice","113","243524","0.0-113.0","p945386","A1JR35HATOEME9","3087LXLJ6NMH85PJ46SJUKP4Z1V0FD","3JZQSN0I3SGH6TYY8AMN4W79PUUFGW","model","mismatch","uniform","","","","","","","1708.699999988079","242727.30000001192","244436","[""stimuli/HM07_CC.jpg"",""stimuli/WF11_AO.jpg"",""stimuli/BF06_SUR.jpg"",""stimuli/AM09_HO.jpg""]","stimuli/HM07_CC.jpg","stimuli/WF11_AO.jpg","stimuli/BF06_SUR.jpg","stimuli/AM09_HO.jpg","pos2","stimuli/WF11_AO.jpg","AO","WF11","1","2","4","4","stimuli/stars_4.png","160.5","[""CC"",""AO"",""SUR"",""HO""]","[""HM07"",""WF11"",""BF06"",""AM09""]","[9,4,2,8]","[8,4,2,6]","","",""
"show-reward","114","245528","0.0-114.0","p945386","A1JR35HATOEME9","3087LXLJ6NMH85PJ46SJUKP4Z1V0FD","3JZQSN0I3SGH6TYY8AMN4W79PUUFGW","model","mismatch","uniform","","","","","","","","244937.20000004768","246940.5","","","","","","","","","","","","4","","stimuli/stars_4.png","160.5","","","","","stimuli/WF11_AO.jpg","",""
"explore-choice","115","246775","0.0-115.0","p945386","A1JR35HATOEME9","3087LXLJ6NMH85PJ46SJUKP4Z1V0FD","3JZQSN0I3SGH6TYY8AMN4W79PUUFGW","model","mismatch","uniform","","","","","","","745.8000000119209","246941","247686.80000001192","[""stimuli/BF06_HO.jpg"",""stimuli/AM09_AO.jpg"",""stimuli/HM07_SUR.jpg"",""stimuli/WF11_CC.jpg""]","stimuli/BF06_HO.jpg","stimuli/AM09_AO.jpg","stimuli/HM07_SUR.jpg","stimuli/WF11_CC.jpg","pos4","stimuli/WF11_CC.jpg","CC","WF11","3","3.5","7","8","stimuli/stars_7.png","164","[""HO"",""AO"",""SUR"",""CC""]","[""BF06"",""AM09"",""HM07"",""WF11""]","[7,6,1,7]","[6,4,2,8]","","",""
"show-reward","116","248787","0.0-116.0","p945386","A1JR35HATOEME9","3087LXLJ6NMH85PJ46SJUKP4Z1V0FD","3JZQSN0I3SGH6TYY8AMN4W79PUUFGW","model","mismatch","uniform","","","","","","","","248188.20000004768","250199.5","","","","","","","","","","","","7","","stimuli/stars_7.png","164","","","","","stimuli/WF11_CC.jpg","",""
"explore-choice","117","250331","0.0-117.0","p945386","A1JR35HATOEME9","3087LXLJ6NMH85PJ46SJUKP4Z1V0FD","3JZQSN0I3SGH6TYY8AMN4W79PUUFGW","model","mismatch","uniform","","","","","","","1032.5","250200.10000002384","251232.60000002384","[""stimuli/BF06_HO.jpg"",""stimuli/HM07_CC.jpg"",""stimuli/WF11_AO.jpg"",""stimuli/AM09_SUR.jpg""]","stimuli/BF06_HO.jpg","stimuli/HM07_CC.jpg","stimuli/WF11_AO.jpg","stimuli/AM09_SUR.jpg","pos1","stimuli/BF06_HO.jpg","HO","BF06","0","2.5","5","6","stimuli/stars_5.png","166.5","[""HO"",""CC"",""AO"",""SUR""]","[""BF06"",""HM07"",""WF11"",""AM09""]","[5,8,2,3]","[6,8,4,2]","","",""
"show-reward","118","252332","0.0-118.0","p945386","A1JR35HATOEME9","3087LXLJ6NMH85PJ46SJUKP4Z1V0FD","3JZQSN0I3SGH6TYY8AMN4W79PUUFGW","model","mismatch","uniform","","","","","","","","251743.60000002384","253744.70000004768","","","","","","","","","","","","5","","stimuli/stars_5.png","166.5","","","","","stimuli/BF06_HO.jpg","",""
"explore-choice","119","253905","0.0-119.0","p945386","A1JR35HATOEME9","3087LXLJ6NMH85PJ46SJUKP4Z1V0FD","3JZQSN0I3SGH6TYY8AMN4W79PUUFGW","model","mismatch","uniform","","","","","","","1071.3999999761581","253745.20000004768","254816.60000002384","[""stimuli/HM07_HO.jpg"",""stimuli/BF06_SUR.jpg"",""stimuli/WF11_AO.jpg"",""stimuli/AM09_CC.jpg""]","stimuli/HM07_HO.jpg","stimuli/BF06_SUR.jpg","stimuli/WF11_AO.jpg","stimuli/AM09_CC.jpg","pos4","stimuli/AM09_CC.jpg","CC","AM09","3","3.5","7","8","stimuli/stars_7.png","170","[""HO"",""SUR"",""AO"",""CC""]","[""HM07"",""BF06"",""WF11"",""AM09""]","[4,3,2,7]","[6,2,4,8]","","",""
"show-reward","120","255921","0.0-120.0","p945386","A1JR35HATOEME9","3087LXLJ6NMH85PJ46SJUKP4Z1V0FD","3JZQSN0I3SGH6TYY8AMN4W79PUUFGW","model","mismatch","uniform","","","","","","","","255317.80000001192","257333.90000003576","","","","","","","","","","","","7","","stimuli/stars_7.png","170","","","","","stimuli/AM09_CC.jpg","",""
"explore-choice","121","257595","0.0-121.0","p945386","A1JR35HATOEME9","3087LXLJ6NMH85PJ46SJUKP4Z1V0FD","3JZQSN0I3SGH6TYY8AMN4W79PUUFGW","model","mismatch","uniform","","","","","","","1164.1000000238419","257334.60000002384","258498.70000004768","[""stimuli/BF06_CC.jpg"",""stimuli/AM09_AO.jpg"",""stimuli/HM07_HO.jpg"",""stimuli/WF11_SUR.jpg""]","stimuli/BF06_CC.jpg","stimuli/AM09_AO.jpg","stimuli/HM07_HO.jpg","stimuli/WF11_SUR.jpg","pos2","stimuli/AM09_AO.jpg","AO","AM09","1","3","6","4","stimuli/stars_6.png","173","[""CC"",""AO"",""HO"",""SUR""]","[""BF06"",""AM09"",""HM07"",""WF11""]","[6,6,4,0]","[8,4,6,2]","","",""
"show-reward","122","259613","0.0-122.0","p945386","A1JR35HATOEME9","3087LXLJ6NMH85PJ46SJUKP4Z1V0FD","3JZQSN0I3SGH6TYY8AMN4W79PUUFGW","model","mismatch","uniform","","","","","","","","259008.20000004768","261025.30000001192","","","","","","","","","","","","6","","stimuli/stars_6.png","173","","","","","stimuli/AM09_AO.jpg","",""
"explore-choice","123","262376","0.0-123.0","p945386","A1JR35HATOEME9","3087LXLJ6NMH85PJ46SJUKP4Z1V0FD","3JZQSN0I3SGH6TYY8AMN4W79PUUFGW","model","mismatch","uniform","","","","","","","2262.5","261026","263288.5","[""stimuli/AM09_CC.jpg"",""stimuli/HM07_AO.jpg"",""stimuli/WF11_SUR.jpg"",""stimuli/BF06_HO.jpg""]","stimuli/AM09_CC.jpg","stimuli/HM07_AO.jpg","stimuli/WF11_SUR.jpg","stimuli/BF06_HO.jpg","pos4","stimuli/BF06_HO.jpg","HO","BF06","3","2","4","6","stimuli/stars_4.png","175","[""CC"",""AO"",""SUR"",""HO""]","[""AM09"",""HM07"",""WF11"",""BF06""]","[6,2,4,4]","[8,4,2,6]","","",""
"show-reward","124","264389","0.0-124.0","p945386","A1JR35HATOEME9","3087LXLJ6NMH85PJ46SJUKP4Z1V0FD","3JZQSN0I3SGH6TYY8AMN4W79PUUFGW","model","mismatch","uniform","","","","","","","","263789.40000003576","265801.7000000477","","","","","","","","","","","","4","","stimuli/stars_4.png","175","","","","","stimuli/BF06_HO.jpg","",""
"explore-choice","125","265794","0.0-125.0","p945386","A1JR35HATOEME9","3087LXLJ6NMH85PJ46SJUKP4Z1V0FD","3JZQSN0I3SGH6TYY8AMN4W79PUUFGW","model","mismatch","uniform","","","","","","","901.3000000119209","265802.3000000119","266703.60000002384","[""stimuli/HM07_CC.jpg"",""stimuli/AM09_AO.jpg"",""stimuli/BF06_SUR.jpg"",""stimuli/WF11_HO.jpg""]","stimuli/HM07_CC.jpg","stimuli/AM09_AO.jpg","stimuli/BF06_SUR.jpg","stimuli/WF11_HO.jpg","pos4","stimuli/WF11_HO.jpg","HO","WF11","3","4","8","6","stimuli/stars_8.png","179","[""CC"",""AO"",""SUR"",""HO""]","[""HM07"",""AM09"",""BF06"",""WF11""]","[6,4,2,8]","[8,4,2,6]","","",""
"show-reward","126","267797","0.0-126.0","p945386","A1JR35HATOEME9","3087LXLJ6NMH85PJ46SJUKP4Z1V0FD","3JZQSN0I3SGH6TYY8AMN4W79PUUFGW","model","mismatch","uniform","","","","","","","","267207.60000002384","269209.7000000477","","","","","","","","","","","","8","","stimuli/stars_8.png","179","","","","","stimuli/WF11_HO.jpg","",""
"explore-choice","127","269278","0.0-127.0","p945386","A1JR35HATOEME9","3087LXLJ6NMH85PJ46SJUKP4Z1V0FD","3JZQSN0I3SGH6TYY8AMN4W79PUUFGW","model","mismatch","uniform","","","","","","","976.4000000357628","269210.3000000119","270186.7000000477","[""stimuli/HM07_SUR.jpg"",""stimuli/BF06_AO.jpg"",""stimuli/AM09_CC.jpg"",""stimuli/WF11_HO.jpg""]","stimuli/HM07_SUR.jpg","stimuli/BF06_AO.jpg","stimuli/AM09_CC.jpg","stimuli/WF11_HO.jpg","pos1","stimuli/HM07_SUR.jpg","SUR","HM07","0","1","2","2","stimuli/stars_2.png","180","[""SUR"",""AO"",""CC"",""HO""]","[""HM07"",""BF06"",""AM09"",""WF11""]","[2,2,8,5]","[2,4,8,6]","","",""
"show-reward","128","271279","0.0-128.0","p945386","A1JR35HATOEME9","3087LXLJ6NMH85PJ46SJUKP4Z1V0FD","3JZQSN0I3SGH6TYY8AMN4W79PUUFGW","model","mismatch","uniform","","","","","","","","270690.7000000477","272691.90000003576","","","","","","","","","","","","2","","stimuli/stars_2.png","180","","","","","stimuli/HM07_SUR.jpg","",""
"explore-choice","129","274061","0.0-129.0","p945386","A1JR35HATOEME9","3087LXLJ6NMH85PJ46SJUKP4Z1V0FD","3JZQSN0I3SGH6TYY8AMN4W79PUUFGW","model","mismatch","uniform","","","","","","","2280.399999976158","272692.40000003576","274972.8000000119","[""stimuli/AM09_AO.jpg"",""stimuli/WF11_HO.jpg"",""stimuli/HM07_SUR.jpg"",""stimuli/BF06_CC.jpg""]","stimuli/AM09_AO.jpg","stimuli/WF11_HO.jpg","stimuli/HM07_SUR.jpg","stimuli/BF06_CC.jpg","pos1","stimuli/AM09_AO.jpg","AO","AM09","0","2.5","5","4","stimuli/stars_5.png","182.5","[""AO"",""HO"",""SUR"",""CC""]","[""AM09"",""WF11"",""HM07"",""BF06""]","[5,5,2,8]","[4,6,2,8]","","",""
"show-reward","130","276067","0.0-130.0","p945386","A1JR35HATOEME9","3087LXLJ6NMH85PJ46SJUKP4Z1V0FD","3JZQSN0I3SGH6TYY8AMN4W79PUUFGW","model","mismatch","uniform","","","","","","","","275474","277479.3000000119","","","","","","","","","","","","5","","stimuli/stars_5.png","182.5","","","","","stimuli/AM09_AO.jpg","",""
"explore-choice","131","278100","0.0-131.0","p945386","A1JR35HATOEME9","3087LXLJ6NMH85PJ46SJUKP4Z1V0FD","3JZQSN0I3SGH6TYY8AMN4W79PUUFGW","model","mismatch","uniform","","","","","","","1516.699999988079","277479.8000000119","278996.5","[""stimuli/HM07_AO.jpg"",""stimuli/BF06_HO.jpg"",""stimuli/AM09_SUR.jpg"",""stimuli/WF11_CC.jpg""]","stimuli/HM07_AO.jpg","stimuli/BF06_HO.jpg","stimuli/AM09_SUR.jpg","stimuli/WF11_CC.jpg","pos4","stimuli/WF11_CC.jpg","CC","WF11","3","3.5","7","8","stimuli/stars_7.png","186","[""AO"",""HO"",""SUR"",""CC""]","[""HM07"",""BF06"",""AM09"",""WF11""]","[2,7,3,7]","[4,6,2,8]","","",""
"show-reward","132","280109","0.0-132.0","p945386","A1JR35HATOEME9","3087LXLJ6NMH85PJ46SJUKP4Z1V0FD","3JZQSN0I3SGH6TYY8AMN4W79PUUFGW","model","mismatch","uniform","","","","","","","","279512.7000000477","281522","","","","","","","","","","","","7","","stimuli/stars_7.png","186","","","","","stimuli/WF11_CC.jpg","",""
"explore-choice","133","282891","0.0-133.0","p945386","A1JR35HATOEME9","3087LXLJ6NMH85PJ46SJUKP4Z1V0FD","3JZQSN0I3SGH6TYY8AMN4W79PUUFGW","model","mismatch","uniform","","","","","","","2267","281522.7000000477","283789.7000000477","[""stimuli/WF11_HO.jpg"",""stimuli/BF06_CC.jpg"",""stimuli/AM09_SUR.jpg"",""stimuli/HM07_AO.jpg""]","stimuli/WF11_HO.jpg","stimuli/BF06_CC.jpg","stimuli/AM09_SUR.jpg","stimuli/HM07_AO.jpg","pos3","stimuli/AM09_SUR.jpg","SUR","AM09","2","0","0","2","stimuli/stars_0.png","186","[""HO"",""CC"",""SUR"",""AO""]","[""WF11"",""BF06"",""AM09"",""HM07""]","[5,9,0,6]","[6,8,2,4]","","",""
"show-reward","134","284910","0.0-134.0","p945386","A1JR35HATOEME9","3087LXLJ6NMH85PJ46SJUKP4Z1V0FD","3JZQSN0I3SGH6TYY8AMN4W79PUUFGW","model","mismatch","uniform","","","","","","","","284305","286322.40000003576","","","","","","","","","","","","0","","stimuli/stars_0.png","186","","","","","stimuli/AM09_SUR.jpg","",""
"explore-choice","135","286184","0.0-135.0","p945386","A1JR35HATOEME9","3087LXLJ6NMH85PJ46SJUKP4Z1V0FD","3JZQSN0I3SGH6TYY8AMN4W79PUUFGW","model","mismatch","uniform","","","","","","","772.3999999761581","286323.10000002384","287095.5","[""stimuli/HM07_SUR.jpg"",""stimuli/BF06_HO.jpg"",""stimuli/AM09_CC.jpg"",""stimuli/WF11_AO.jpg""]","stimuli/HM07_SUR.jpg","stimuli/BF06_HO.jpg","stimuli/AM09_CC.jpg","stimuli/WF11_AO.jpg","pos1","stimuli/HM07_SUR.jpg","SUR","HM07","0","1.5","3","2","stimuli/stars_3.png","187.5","[""SUR"",""HO"",""CC"",""AO""]","[""HM07"",""BF06"",""AM09"",""WF11""]","[3,6,10,5]","[2,6,8,4]","","",""
"show-reward","136","288193","0.0-136.0","p945386","A1JR35HATOEME9","3087LXLJ6NMH85PJ46SJUKP4Z1V0FD","3JZQSN0I3SGH6TYY8AMN4W79PUUFGW","model","mismatch","uniform","","","","","","","","287597","289605.3000000119","","","","","","","","","","","","3","","stimuli/stars_3.png","187.5","","","","","stimuli/HM07_SUR.jpg","",""
"explore-choice","137","289846","0.0-137.0","p945386","A1JR35HATOEME9","3087LXLJ6NMH85PJ46SJUKP4Z1V0FD","3JZQSN0I3SGH6TYY8AMN4W79PUUFGW","model","mismatch","uniform","","","","","","","1144.800000011921","289605.90000003576","290750.7000000477","[""stimuli/HM07_CC.jpg"",""stimuli/WF11_SUR.jpg"",""stimuli/AM09_HO.jpg"",""stimuli/BF06_AO.jpg""]","stimuli/HM07_CC.jpg","stimuli/WF11_SUR.jpg","stimuli/AM09_HO.jpg","stimuli/BF06_AO.jpg","pos2","stimuli/WF11_SUR.jpg","SUR","WF11","1","2","4","2","stimuli/stars_4.png","189.5","[""CC"",""SUR"",""HO"",""AO""]","[""HM07"",""WF11"",""AM09"",""BF06""]","[7,4,8,4]","[8,2,6,4]","","",""
"show-reward","138","291848","0.0-138.0","p945386","A1JR35HATOEME9","3087LXLJ6NMH85PJ46SJUKP4Z1V0FD","3JZQSN0I3SGH6TYY8AMN4W79PUUFGW","model","mismatch","uniform","","","","","","","","291259.40000003576","293260.60000002384","","","","","","","","","","","","4","","stimuli/stars_4.png","189.5","","","","","stimuli/WF11_SUR.jpg","",""
"explore-choice","139","294092","0.0-139.0","p945386","A1JR35HATOEME9","3087LXLJ6NMH85PJ46SJUKP4Z1V0FD","3JZQSN0I3SGH6TYY8AMN4W79PUUFGW","model","mismatch","uniform","","","","","","","1735.5","293261.2000000477","294996.7000000477","[""stimuli/AM09_AO.jpg"",""stimuli/WF11_SUR.jpg"",""stimuli/HM07_CC.jpg"",""stimuli/BF06_HO.jpg""]","stimuli/AM09_AO.jpg","stimuli/WF11_SUR.jpg","stimuli/HM07_CC.jpg","stimuli/BF06_HO.jpg","pos2","stimuli/WF11_SUR.jpg","SUR","WF11","1","0","0","2","stimuli/stars_0.png","189.5","[""AO"",""SUR"",""CC"",""HO""]","[""AM09"",""WF11"",""HM07"",""BF06""]","[3,0,8,6]","[4,2,8,6]","","",""
"show-reward","140","296102","0.0-140.0","p945386","A1JR35HATOEME9","3087LXLJ6NMH85PJ46SJUKP4Z1V0FD","3JZQSN0I3SGH6TYY8AMN4W79PUUFGW","model","mismatch","uniform","","","","","","","","295504.8000000119","297514.10000002384","","","","","","","","","","","","0","","stimuli/stars_0.png","189.5","","","","","stimuli/WF11_SUR.jpg","",""
"explore-choice","141","297468","0.0-141.0","p945386","A1JR35HATOEME9","3087LXLJ6NMH85PJ46SJUKP4Z1V0FD","3JZQSN0I3SGH6TYY8AMN4W79PUUFGW","model","mismatch","uniform","","","","","","","858","297514.7000000477","298372.7000000477","[""stimuli/BF06_CC.jpg"",""stimuli/AM09_HO.jpg"",""stimuli/HM07_SUR.jpg"",""stimuli/WF11_AO.jpg""]","stimuli/BF06_CC.jpg","stimuli/AM09_HO.jpg","stimuli/HM07_SUR.jpg","stimuli/WF11_AO.jpg","pos4","stimuli/WF11_AO.jpg","AO","WF11","3","3","6","4","stimuli/stars_6.png","192.5","[""CC"",""HO"",""SUR"",""AO""]","[""BF06"",""AM09"",""HM07"",""WF11""]","[7,4,2,6]","[8,6,2,4]","","",""
"show-reward","142","299480","0.0-142.0","p945386","A1JR35HATOEME9","3087LXLJ6NMH85PJ46SJUKP4Z1V0FD","3JZQSN0I3SGH6TYY8AMN4W79PUUFGW","model","mismatch","uniform","","","","","","","","298880.8000000119","300892.10000002384","","","","","","","","","","","","6","","stimuli/stars_6.png","192.5","","","","","stimuli/WF11_AO.jpg","",""
"explore-choice","143","300873","0.0-143.0","p945386","A1JR35HATOEME9","3087LXLJ6NMH85PJ46SJUKP4Z1V0FD","3JZQSN0I3SGH6TYY8AMN4W79PUUFGW","model","mismatch","uniform","","","","","","","888","300892.7000000477","301780.7000000477","[""stimuli/BF06_SUR.jpg"",""stimuli/WF11_CC.jpg"",""stimuli/HM07_HO.jpg"",""stimuli/AM09_AO.jpg""]","stimuli/BF06_SUR.jpg","stimuli/WF11_CC.jpg","stimuli/HM07_HO.jpg","stimuli/AM09_AO.jpg","pos3","stimuli/HM07_HO.jpg","HO","HM07","2","2","4","6","stimuli/stars_4.png","194.5","[""SUR"",""CC"",""HO"",""AO""]","[""BF06"",""WF11"",""HM07"",""AM09""]","[2,6,4,4]","[2,8,6,4]","","",""
"show-reward","144","302881","0.0-144.0","p945386","A1JR35HATOEME9","3087LXLJ6NMH85PJ46SJUKP4Z1V0FD","3JZQSN0I3SGH6TYY8AMN4W79PUUFGW","model","mismatch","uniform","","","","","","","","302286","304293.2000000477","","","","","","","","","","","","4","","stimuli/stars_4.png","194.5","","","","","stimuli/HM07_HO.jpg","",""
"explore-choice","145","304544","0.0-145.0","p945386","A1JR35HATOEME9","3087LXLJ6NMH85PJ46SJUKP4Z1V0FD","3JZQSN0I3SGH6TYY8AMN4W79PUUFGW","model","mismatch","uniform","","","","","","","1158.699999988079","304293.90000003576","305452.60000002384","[""stimuli/BF06_SUR.jpg"",""stimuli/HM07_AO.jpg"",""stimuli/AM09_HO.jpg"",""stimuli/WF11_CC.jpg""]","stimuli/BF06_SUR.jpg","stimuli/HM07_AO.jpg","stimuli/AM09_HO.jpg","stimuli/WF11_CC.jpg","pos1","stimuli/BF06_SUR.jpg","SUR","BF06","0","1","2","2","stimuli/stars_2.png","195.5","[""SUR"",""AO"",""HO"",""CC""]","[""BF06"",""HM07"",""AM09"",""WF11""]","[2,4,5,7]","[2,4,6,8]","","",""
"show-reward","146","306546","0.0-146.0","p945386","A1JR35HATOEME9","3087LXLJ6NMH85PJ46SJUKP4Z1V0FD","3JZQSN0I3SGH6TYY8AMN4W79PUUFGW","model","mismatch","uniform","","","","","","","","305957.3000000119","307958.5","","","","","","","","","","","","2","","stimuli/stars_2.png","195.5","","","","","stimuli/BF06_SUR.jpg","",""
"explore-choice","147","307908","0.0-147.0","p945386","A1JR35HATOEME9","3087LXLJ6NMH85PJ46SJUKP4Z1V0FD","3JZQSN0I3SGH6TYY8AMN4W79PUUFGW","model","mismatch","uniform","","","","","","","861.3999999761581","307959.10000002384","308820.5","[""stimuli/WF11_HO.jpg"",""stimuli/HM07_CC.jpg"",""stimuli/BF06_AO.jpg"",""stimuli/AM09_SUR.jpg""]","stimuli/WF11_HO.jpg","stimuli/HM07_CC.jpg","stimuli/BF06_AO.jpg","stimuli/AM09_SUR.jpg","pos2","stimuli/HM07_CC.jpg","CC","HM07","1","4.5","9","8","stimuli/stars_9.png","200","[""HO"",""CC"",""AO"",""SUR""]","[""WF11"",""HM07"",""BF06"",""AM09""]","[7,9,6,3]","[6,8,4,2]","","",""
"show-reward","148","309914","0.0-148.0","p945386","A1JR35HATOEME9","3087LXLJ6NMH85PJ46SJUKP4Z1V0FD","3JZQSN0I3SGH6TYY8AMN4W79PUUFGW","model","mismatch","uniform","","","","","","","","309321.40000003576","311326.60000002384","","","","","","","","","","","","9","","stimuli/stars_9.png","200","","","","","stimuli/HM07_CC.jpg","",""
"explore-choice","149","311780","0.0-149.0","p945386","A1JR35HATOEME9","3087LXLJ6NMH85PJ46SJUKP4Z1V0FD","3JZQSN0I3SGH6TYY8AMN4W79PUUFGW","model","mismatch","uniform","","","","","","","1358.5","311327.2000000477","312685.7000000477","[""stimuli/HM07_HO.jpg"",""stimuli/AM09_CC.jpg"",""stimuli/BF06_AO.jpg"",""stimuli/WF11_SUR.jpg""]","stimuli/HM07_HO.jpg","stimuli/AM09_CC.jpg","stimuli/BF06_AO.jpg","stimuli/WF11_SUR.jpg","pos1","stimuli/HM07_HO.jpg","HO","HM07","0","2","4","6","stimuli/stars_4.png","202","[""HO"",""CC"",""AO"",""SUR""]","[""HM07"",""AM09"",""BF06"",""WF11""]","[4,10,4,2]","[6,8,4,2]","","",""
"show-reward","150","313788","0.0-150.0","p945386","A1JR35HATOEME9","3087LXLJ6NMH85PJ46SJUKP4Z1V0FD","3JZQSN0I3SGH6TYY8AMN4W79PUUFGW","model","mismatch","uniform","","","","","","","","313192.90000003576","315200.10000002384","","","","","","","","","","","","4","","stimuli/stars_4.png","202","","","","","stimuli/HM07_HO.jpg","",""
"explore-choice","151","315864","0.0-151.0","p945386","A1JR35HATOEME9","3087LXLJ6NMH85PJ46SJUKP4Z1V0FD","3JZQSN0I3SGH6TYY8AMN4W79PUUFGW","model","mismatch","uniform","","","","","","","1573.8999999761581","315200.7000000477","316774.60000002384","[""stimuli/AM09_CC.jpg"",""stimuli/WF11_SUR.jpg"",""stimuli/BF06_HO.jpg"",""stimuli/HM07_AO.jpg""]","stimuli/AM09_CC.jpg","stimuli/WF11_SUR.jpg","stimuli/BF06_HO.jpg","stimuli/HM07_AO.jpg","pos4","stimuli/HM07_AO.jpg","AO","HM07","3","1","2","4","stimuli/stars_2.png","203","[""CC"",""SUR"",""HO"",""AO""]","[""AM09"",""WF11"",""BF06"",""HM07""]","[6,4,4,2]","[8,2,6,4]","","",""
"show-reward","152","317877","0.0-152.0","p945386","A1JR35HATOEME9","3087LXLJ6NMH85PJ46SJUKP4Z1V0FD","3JZQSN0I3SGH6TYY8AMN4W79PUUFGW","model","mismatch","uniform","","","","","","","","317276.7000000477","319289.90000003576","","","","","","","","","","","","2","","stimuli/stars_2.png","203","","","","","stimuli/HM07_AO.jpg","",""
"explore-choice","153","320350","0.0-153.0","p945386","A1JR35HATOEME9","3087LXLJ6NMH85PJ46SJUKP4Z1V0FD","3JZQSN0I3SGH6TYY8AMN4W79PUUFGW","model","mismatch","uniform","","","","","","","1967.199999988079","319290.40000003576","321257.60000002384","[""stimuli/AM09_SUR.jpg"",""stimuli/WF11_CC.jpg"",""stimuli/HM07_AO.jpg"",""stimuli/BF06_HO.jpg""]","stimuli/AM09_SUR.jpg","stimuli/WF11_CC.jpg","stimuli/HM07_AO.jpg","stimuli/BF06_HO.jpg","pos1","stimuli/AM09_SUR.jpg","SUR","AM09","0","1.5","3","2","stimuli/stars_3.png","204.5","[""SUR"",""CC"",""AO"",""HO""]","[""AM09"",""WF11"",""HM07"",""BF06""]","[3,7,2,7]","[2,8,4,6]","","",""
"show-reward","154","322353","0.0-154.0","p945386","A1JR35HATOEME9","3087LXLJ6NMH85PJ46SJUKP4Z1V0FD","3JZQSN0I3SGH6TYY8AMN4W79PUUFGW","model","mismatch","uniform","","","","","","","","321762.7000000477","323765.90000003576","","","","","","","","","","","","3","","stimuli/stars_3.png","204.5","","","","","stimuli/AM09_SUR.jpg","",""
"explore-choice","155","325101","0.0-155.0","p945386","A1JR35HATOEME9","3087LXLJ6NMH85PJ46SJUKP4Z1V0FD","3JZQSN0I3SGH6TYY8AMN4W79PUUFGW","model","mismatch","uniform","","","","","","","2246.100000023842","323766.5","326012.60000002384","[""stimuli/AM09_SUR.jpg"",""stimuli/WF11_CC.jpg"",""stimuli/HM07_HO.jpg"",""stimuli/BF06_AO.jpg""]","stimuli/AM09_SUR.jpg","stimuli/WF11_CC.jpg","stimuli/HM07_HO.jpg","stimuli/BF06_AO.jpg","pos2","stimuli/WF11_CC.jpg","CC","WF11","1","4.5","9","8","stimuli/stars_9.png","209","[""SUR"",""CC"",""HO"",""AO""]","[""AM09"",""WF11"",""HM07"",""BF06""]","[0,9,7,3]","[2,8,6,4]","","",""
"show-reward","156","327114","0.0-156.0","p945386","A1JR35HATOEME9","3087LXLJ6NMH85PJ46SJUKP4Z1V0FD","3JZQSN0I3SGH6TYY8AMN4W79PUUFGW","model","mismatch","uniform","","","","","","","","326514.10000002384","328526.3000000119","","","","","","","","","","","","9","","stimuli/stars_9.png","209","","","","","stimuli/WF11_CC.jpg","",""
"explore-choice","157","328757","0.0-157.0","p945386","A1JR35HATOEME9","3087LXLJ6NMH85PJ46SJUKP4Z1V0FD","3JZQSN0I3SGH6TYY8AMN4W79PUUFGW","model","mismatch","uniform","","","","","","","1138.699999988079","328526.8000000119","329665.5","[""stimuli/WF11_HO.jpg"",""stimuli/AM09_AO.jpg"",""stimuli/BF06_SUR.jpg"",""stimuli/HM07_CC.jpg""]","stimuli/WF11_HO.jpg","stimuli/AM09_AO.jpg","stimuli/BF06_SUR.jpg","stimuli/HM07_CC.jpg","pos1","stimuli/WF11_HO.jpg","HO","WF11","0","4","8","6","stimuli/stars_8.png","213","[""HO"",""AO"",""SUR"",""CC""]","[""WF11"",""AM09"",""BF06"",""HM07""]","[8,4,2,6]","[6,4,2,8]","","",""
"show-reward","158","330769","0.0-158.0","p945386","A1JR35HATOEME9","3087LXLJ6NMH85PJ46SJUKP4Z1V0FD","3JZQSN0I3SGH6TYY8AMN4W79PUUFGW","model","mismatch","uniform","","","","","","","","330170.40000003576","332181.60000002384","","","","","","","","","","","","8","","stimuli/stars_8.png","213","","","","","stimuli/WF11_HO.jpg","",""
"explore-choice","159","333888","0.0-159.0","p945386","A1JR35HATOEME9","3087LXLJ6NMH85PJ46SJUKP4Z1V0FD","3JZQSN0I3SGH6TYY8AMN4W79PUUFGW","model","mismatch","uniform","","","","","","","2612.300000011921","332182.3000000119","334794.60000002384","[""stimuli/HM07_CC.jpg"",""stimuli/BF06_HO.jpg"",""stimuli/WF11_AO.jpg"",""stimuli/AM09_SUR.jpg""]","stimuli/HM07_CC.jpg","stimuli/BF06_HO.jpg","stimuli/WF11_AO.jpg","stimuli/AM09_SUR.jpg","pos1","stimuli/HM07_CC.jpg","CC","HM07","0","4","8","8","stimuli/stars_8.png","217","[""CC"",""HO"",""AO"",""SUR""]","[""HM07"",""BF06"",""WF11"",""AM09""]","[8,5,2,3]","[8,6,4,2]","","",""
"show-reward","160","335900","0.0-160.0","p945386","A1JR35HATOEME9","3087LXLJ6NMH85PJ46SJUKP4Z1V0FD","3JZQSN0I3SGH6TYY8AMN4W79PUUFGW","model","mismatch","uniform","","","","","","","","335301.10000002384","337312.3000000119","","","","","","","","","","","","8","","stimuli/stars_8.png","217","","","","","stimuli/HM07_CC.jpg","",""
"explore-choice","161","339775","0.0-161.0","p945386","A1JR35HATOEME9","3087LXLJ6NMH85PJ46SJUKP4Z1V0FD","3JZQSN0I3SGH6TYY8AMN4W79PUUFGW","model","mismatch","uniform","","","","","","","3364.899999976158","337312.90000003576","340677.8000000119","[""stimuli/BF06_SUR.jpg"",""stimuli/HM07_HO.jpg"",""stimuli/WF11_CC.jpg"",""stimuli/AM09_AO.jpg""]","stimuli/BF06_SUR.jpg","stimuli/HM07_HO.jpg","stimuli/WF11_CC.jpg","stimuli/AM09_AO.jpg","pos3","stimuli/WF11_CC.jpg","CC","WF11","2","3","6","8","stimuli/stars_6.png","220","[""SUR"",""HO"",""CC"",""AO""]","[""BF06"",""HM07"",""WF11"",""AM09""]","[2,4,6,4]","[2,6,8,4]","","",""
"show-reward","162","341783","0.0-162.0","p945386","A1JR35HATOEME9","3087LXLJ6NMH85PJ46SJUKP4Z1V0FD","3JZQSN0I3SGH6TYY8AMN4W79PUUFGW","model","mismatch","uniform","","","","","","","","341188.8000000119","343195.60000002384","","","","","","","","","","","","6","","stimuli/stars_6.png","220","","","","","stimuli/WF11_CC.jpg","",""
"explore-choice","163","345410","0.0-163.0","p945386","A1JR35HATOEME9","3087LXLJ6NMH85PJ46SJUKP4Z1V0FD","3JZQSN0I3SGH6TYY8AMN4W79PUUFGW","model","mismatch","uniform","","","","","","","3126.5","343196.2000000477","346322.7000000477","[""stimuli/WF11_HO.jpg"",""stimuli/AM09_AO.jpg"",""stimuli/BF06_CC.jpg"",""stimuli/HM07_SUR.jpg""]","stimuli/WF11_HO.jpg","stimuli/AM09_AO.jpg","stimuli/BF06_CC.jpg","stimuli/HM07_SUR.jpg","pos1","stimuli/WF11_HO.jpg","HO","WF11","0","2.5","5","6","stimuli/stars_5.png","222.5","[""HO"",""AO"",""CC"",""SUR""]","[""WF11"",""AM09"",""BF06"",""HM07""]","[5,5,8,2]","[6,4,8,2]","","",""
"show-reward","164","347418","0.0-164.0","p945386","A1JR35HATOEME9","3087LXLJ6NMH85PJ46SJUKP4Z1V0FD","3JZQSN0I3SGH6TYY8AMN4W79PUUFGW","model","mismatch","uniform","","","","","","","","346823.5","348830.7000000477","","","","","","","","","","","","5","","stimuli/stars_5.png","222.5","","","","","stimuli/WF11_HO.jpg","",""
"explore-choice","165","350127","0.0-165.0","p945386","A1JR35HATOEME9","3087LXLJ6NMH85PJ46SJUKP4Z1V0FD","3JZQSN0I3SGH6TYY8AMN4W79PUUFGW","model","mismatch","uniform","","","","","","","2208.199999988079","348831.40000003576","351039.60000002384","[""stimuli/WF11_SUR.jpg"",""stimuli/HM07_CC.jpg"",""stimuli/BF06_AO.jpg"",""stimuli/AM09_HO.jpg""]","stimuli/WF11_SUR.jpg","stimuli/HM07_CC.jpg","stimuli/BF06_AO.jpg","stimuli/AM09_HO.jpg","pos1","stimuli/WF11_SUR.jpg","SUR","WF11","0","2","4","2","stimuli/stars_4.png","224.5","[""SUR"",""CC"",""AO"",""HO""]","[""WF11"",""HM07"",""BF06"",""AM09""]","[4,7,4,8]","[2,8,4,6]","","",""
"show-reward","166","352130","0.0-166.0","p945386","A1JR35HATOEME9","3087LXLJ6NMH85PJ46SJUKP4Z1V0FD","3JZQSN0I3SGH6TYY8AMN4W79PUUFGW","model","mismatch","uniform","","","","","","","","351540.60000002384","353543","","","","","","","","","","","","4","","stimuli/stars_4.png","224.5","","","","","stimuli/WF11_SUR.jpg","",""
"explore-choice","167","355428","0.0-167.0","p945386","A1JR35HATOEME9","3087LXLJ6NMH85PJ46SJUKP4Z1V0FD","3JZQSN0I3SGH6TYY8AMN4W79PUUFGW","model","mismatch","uniform","","","","","","","2792.100000023842","353543.60000002384","356335.7000000477","[""stimuli/HM07_SUR.jpg"",""stimuli/BF06_AO.jpg"",""stimuli/WF11_HO.jpg"",""stimuli/AM09_CC.jpg""]","stimuli/HM07_SUR.jpg","stimuli/BF06_AO.jpg","stimuli/WF11_HO.jpg","stimuli/AM09_CC.jpg","pos1","stimuli/HM07_SUR.jpg","SUR","HM07","0","1","2","2","stimuli/stars_2.png","225.5","[""SUR"",""AO"",""HO"",""CC""]","[""HM07"",""BF06"",""WF11"",""AM09""]","[2,2,5,8]","[2,4,6,8]","","",""
"show-reward","168","357430","0.0-168.0","p945386","A1JR35HATOEME9","3087LXLJ6NMH85PJ46SJUKP4Z1V0FD","3JZQSN0I3SGH6TYY8AMN4W79PUUFGW","model","mismatch","uniform","","","","","","","","356841.7000000477","358842.8000000119","","","","","","","","","","","","2","","stimuli/stars_2.png","225.5","","","","","stimuli/HM07_SUR.jpg","",""
"explore-choice","169","360038","0.0-169.0","p945386","A1JR35HATOEME9","3087LXLJ6NMH85PJ46SJUKP4Z1V0FD","3JZQSN0I3SGH6TYY8AMN4W79PUUFGW","model","mismatch","uniform","","","","","","","2101.300000011921","358843.3000000119","360944.60000002384","[""stimuli/AM09_AO.jpg"",""stimuli/BF06_CC.jpg"",""stimuli/HM07_HO.jpg"",""stimuli/WF11_SUR.jpg""]","stimuli/AM09_AO.jpg","stimuli/BF06_CC.jpg","stimuli/HM07_HO.jpg","stimuli/WF11_SUR.jpg","pos4","stimuli/WF11_SUR.jpg","SUR","WF11","3","0","0","2","stimuli/stars_0.png","225.5","[""AO"",""CC"",""HO"",""SUR""]","[""AM09"",""BF06"",""HM07"",""WF11""]","[6,6,4,0]","[4,8,6,2]","","",""
"show-reward","170","362052","0.0-170.0","p945386","A1JR35HATOEME9","3087LXLJ6NMH85PJ46SJUKP4Z1V0FD","3JZQSN0I3SGH6TYY8AMN4W79PUUFGW","model","mismatch","uniform","","","","","","","","361451.90000003576","363465","","","","","","","","","","","","0","","stimuli/stars_0.png","225.5","","","","","stimuli/WF11_SUR.jpg","",""
"explore-choice","171","364871","0.0-171.0","p945386","A1JR35HATOEME9","3087LXLJ6NMH85PJ46SJUKP4Z1V0FD","3JZQSN0I3SGH6TYY8AMN4W79PUUFGW","model","mismatch","uniform","","","","","","","2316.100000023842","363465.60000002384","365781.7000000477","[""stimuli/AM09_SUR.jpg"",""stimuli/HM07_HO.jpg"",""stimuli/BF06_CC.jpg"",""stimuli/WF11_AO.jpg""]","stimuli/AM09_SUR.jpg","stimuli/HM07_HO.jpg","stimuli/BF06_CC.jpg","stimuli/WF11_AO.jpg","pos2","stimuli/HM07_HO.jpg","HO","HM07","1","3","6","6","stimuli/stars_6.png","228.5","[""SUR"",""HO"",""CC"",""AO""]","[""AM09"",""HM07"",""BF06"",""WF11""]","[1,6,7,5]","[2,6,8,4]","","",""
"show-reward","172","366872","0.0-172.0","p945386","A1JR35HATOEME9","3087LXLJ6NMH85PJ46SJUKP4Z1V0FD","3JZQSN0I3SGH6TYY8AMN4W79PUUFGW","model","mismatch","uniform","","","","","","","","366284.2000000477","368285.40000003576","","","","","","","","","","","","6","","stimuli/stars_6.png","228.5","","","","","stimuli/HM07_HO.jpg","",""
"explore-choice","173","368939","0.0-173.0","p945386","A1JR35HATOEME9","3087LXLJ6NMH85PJ46SJUKP4Z1V0FD","3JZQSN0I3SGH6TYY8AMN4W79PUUFGW","model","mismatch","uniform","","","","","","","1563.800000011921","368285.8000000119","369849.60000002384","[""stimuli/BF06_SUR.jpg"",""stimuli/HM07_HO.jpg"",""stimuli/AM09_CC.jpg"",""stimuli/WF11_AO.jpg""]","stimuli/BF06_SUR.jpg","stimuli/HM07_HO.jpg","stimuli/AM09_CC.jpg","stimuli/WF11_AO.jpg","pos1","stimuli/BF06_SUR.jpg","SUR","BF06","0","1.5","3","2","stimuli/stars_3.png","230","[""SUR"",""HO"",""CC"",""AO""]","[""BF06"",""HM07"",""AM09"",""WF11""]","[3,4,7,2]","[2,6,8,4]","","",""
"show-reward","174","370950","0.0-174.0","p945386","A1JR35HATOEME9","3087LXLJ6NMH85PJ46SJUKP4Z1V0FD","3JZQSN0I3SGH6TYY8AMN4W79PUUFGW","model","mismatch","uniform","","","","","","","","370352.90000003576","372363.10000002384","","","","","","","","","","","","3","","stimuli/stars_3.png","230","","","","","stimuli/BF06_SUR.jpg","",""
"explore-choice","175","373749","0.0-175.0","p945386","A1JR35HATOEME9","3087LXLJ6NMH85PJ46SJUKP4Z1V0FD","3JZQSN0I3SGH6TYY8AMN4W79PUUFGW","model","mismatch","uniform","","","","","","","2296","372363.60000002384","374659.60000002384","[""stimuli/HM07_HO.jpg"",""stimuli/AM09_CC.jpg"",""stimuli/BF06_AO.jpg"",""stimuli/WF11_SUR.jpg""]","stimuli/HM07_HO.jpg","stimuli/AM09_CC.jpg","stimuli/BF06_AO.jpg","stimuli/WF11_SUR.jpg","pos2","stimuli/AM09_CC.jpg","CC","AM09","1","5","10","8","stimuli/stars_10.png","235","[""HO"",""CC"",""AO"",""SUR""]","[""HM07"",""AM09"",""BF06"",""WF11""]","[4,10,4,2]","[6,8,4,2]","","",""
"show-reward","176","375759","0.0-176.0","p945386","A1JR35HATOEME9","3087LXLJ6NMH85PJ46SJUKP4Z1V0FD","3JZQSN0I3SGH6TYY8AMN4W79PUUFGW","model","mismatch","uniform","","","","","","","","375163","377171.5","","","","","","","","","","","","10","","stimuli/stars_10.png","235","","","","","stimuli/AM09_CC.jpg","",""
"explore-choice","177","380533","0.0-177.0","p945386","A1JR35HATOEME9","3087LXLJ6NMH85PJ46SJUKP4Z1V0FD","3JZQSN0I3SGH6TYY8AMN4W79PUUFGW","model","mismatch","uniform","","","","","","","4259.399999976158","377172.2000000477","381431.60000002384","[""stimuli/AM09_AO.jpg"",""stimuli/HM07_CC.jpg"",""stimuli/WF11_SUR.jpg"",""stimuli/BF06_HO.jpg""]","stimuli/AM09_AO.jpg","stimuli/HM07_CC.jpg","stimuli/WF11_SUR.jpg","stimuli/BF06_HO.jpg","pos2","stimuli/HM07_CC.jpg","CC","HM07","1","4","8","8","stimuli/stars_8.png","239","[""AO"",""CC"",""SUR"",""HO""]","[""AM09"",""HM07"",""WF11"",""BF06""]","[3,8,0,6]","[4,8,2,6]","","",""
"show-reward","178","382541","0.0-178.0","p945386","A1JR35HATOEME9","3087LXLJ6NMH85PJ46SJUKP4Z1V0FD","3JZQSN0I3SGH6TYY8AMN4W79PUUFGW","model","mismatch","uniform","","","","","","","","381946.7000000477","383953.7000000477","","","","","","","","","","","","8","","stimuli/stars_8.png","239","","","","","stimuli/HM07_CC.jpg","",""
"explore-choice","179","386270","0.0-179.0","p945386","A1JR35HATOEME9","3087LXLJ6NMH85PJ46SJUKP4Z1V0FD","3JZQSN0I3SGH6TYY8AMN4W79PUUFGW","model","mismatch","uniform","","","","","","","3228.5","383954.3000000119","387182.8000000119","[""stimuli/BF06_AO.jpg"",""stimuli/HM07_CC.jpg"",""stimuli/AM09_SUR.jpg"",""stimuli/WF11_HO.jpg""]","stimuli/BF06_AO.jpg","stimuli/HM07_CC.jpg","stimuli/AM09_SUR.jpg","stimuli/WF11_HO.jpg","pos2","stimuli/HM07_CC.jpg","CC","HM07","1","4.5","9","8","stimuli/stars_9.png","243.5","[""AO"",""CC"",""SUR"",""HO""]","[""BF06"",""HM07"",""AM09"",""WF11""]","[6,9,3,7]","[4,8,2,6]","","",""
"show-reward","180","388285","0.0-180.0","p945386","A1JR35HATOEME9","3087LXLJ6NMH85PJ46SJUKP4Z1V0FD","3JZQSN0I3SGH6TYY8AMN4W79PUUFGW","model","mismatch","uniform","","","","","","","","387683.60000002384","389697.90000003576","","","","","","","","","","","","9","","stimuli/stars_9.png","243.5","","","","","stimuli/HM07_CC.jpg","",""
"explore-choice","181","390952","0.0-181.0","p945386","A1JR35HATOEME9","3087LXLJ6NMH85PJ46SJUKP4Z1V0FD","3JZQSN0I3SGH6TYY8AMN4W79PUUFGW","model","mismatch","uniform","","","","","","","2166","389698.5","391864.5","[""stimuli/WF11_CC.jpg"",""stimuli/HM07_SUR.jpg"",""stimuli/AM09_HO.jpg"",""stimuli/BF06_AO.jpg""]","stimuli/WF11_CC.jpg","stimuli/HM07_SUR.jpg","stimuli/AM09_HO.jpg","stimuli/BF06_AO.jpg","pos3","stimuli/AM09_HO.jpg","HO","AM09","2","2","4","6","stimuli/stars_4.png","245.5","[""CC"",""SUR"",""HO"",""AO""]","[""WF11"",""HM07"",""AM09"",""BF06""]","[7,2,4,6]","[8,2,6,4]","","",""
"show-reward","182","392956","0.0-182.0","p945386","A1JR35HATOEME9","3087LXLJ6NMH85PJ46SJUKP4Z1V0FD","3JZQSN0I3SGH6TYY8AMN4W79PUUFGW","model","mismatch","uniform","","","","","","","","392365.8000000119","394369.2000000477","","","","","","","","","","","","4","","stimuli/stars_4.png","245.5","","","","","stimuli/AM09_HO.jpg","",""
"explore-choice","183","396816","0.0-183.0","p945386","A1JR35HATOEME9","3087LXLJ6NMH85PJ46SJUKP4Z1V0FD","3JZQSN0I3SGH6TYY8AMN4W79PUUFGW","model","mismatch","uniform","","","","","","","3358.100000023842","394369.60000002384","397727.7000000477","[""stimuli/BF06_SUR.jpg"",""stimuli/WF11_AO.jpg"",""stimuli/HM07_CC.jpg"",""stimuli/AM09_HO.jpg""]","stimuli/BF06_SUR.jpg","stimuli/WF11_AO.jpg","stimuli/HM07_CC.jpg","stimuli/AM09_HO.jpg","pos3","stimuli/HM07_CC.jpg","CC","HM07","2","4.5","9","8","stimuli/stars_9.png","250","[""SUR"",""AO"",""CC"",""HO""]","[""BF06"",""WF11"",""HM07"",""AM09""]","[2,4,9,8]","[2,4,8,6]","","",""
"show-reward","184","398829","0.0-184.0","p945386","A1JR35HATOEME9","3087LXLJ6NMH85PJ46SJUKP4Z1V0FD","3JZQSN0I3SGH6TYY8AMN4W79PUUFGW","model","mismatch","uniform","","","","","","","","398229.3000000119","400241.5","","","","","","","","","","","","9","","stimuli/stars_9.png","250","","","","","stimuli/HM07_CC.jpg","",""
"explore-choice","185","404018","0.0-185.0","p945386","A1JR35HATOEME9","3087LXLJ6NMH85PJ46SJUKP4Z1V0FD","3JZQSN0I3SGH6TYY8AMN4W79PUUFGW","model","mismatch","uniform","","","","","","","4688.600000023842","400242","404930.60000002384","[""stimuli/WF11_SUR.jpg"",""stimuli/HM07_AO.jpg"",""stimuli/AM09_HO.jpg"",""stimuli/BF06_CC.jpg""]","stimuli/WF11_SUR.jpg","stimuli/HM07_AO.jpg","stimuli/AM09_HO.jpg","stimuli/BF06_CC.jpg","pos1","stimuli/WF11_SUR.jpg","SUR","WF11","0","2","4","2","stimuli/stars_4.png","252","[""SUR"",""AO"",""HO"",""CC""]","[""WF11"",""HM07"",""AM09"",""BF06""]","[4,5,5,10]","[2,4,6,8]","","",""
"show-reward","186","406025","0.0-186.0","p945386","A1JR35HATOEME9","3087LXLJ6NMH85PJ46SJUKP4Z1V0FD","3JZQSN0I3SGH6TYY8AMN4W79PUUFGW","model","mismatch","uniform","","","","","","","","405431.90000003576","407438","","","","","","","","","","","","4","","stimuli/stars_4.png","252","","","","","stimuli/WF11_SUR.jpg","",""
"explore-choice","187","408519","0.0-187.0","p945386","A1JR35HATOEME9","3087LXLJ6NMH85PJ46SJUKP4Z1V0FD","3JZQSN0I3SGH6TYY8AMN4W79PUUFGW","model","mismatch","uniform","","","","","","","1992","407438.60000002384","409430.60000002384","[""stimuli/BF06_SUR.jpg"",""stimuli/AM09_HO.jpg"",""stimuli/WF11_CC.jpg"",""stimuli/HM07_AO.jpg""]","stimuli/BF06_SUR.jpg","stimuli/AM09_HO.jpg","stimuli/WF11_CC.jpg","stimuli/HM07_AO.jpg","pos3","stimuli/WF11_CC.jpg","CC","WF11","2","3.5","7","8","stimuli/stars_7.png","255.5","[""SUR"",""HO"",""CC"",""AO""]","[""BF06"",""AM09"",""WF11"",""HM07""]","[2,5,7,4]","[2,6,8,4]","","",""
"show-reward","188","410526","0.0-188.0","p945386","A1JR35HATOEME9","3087LXLJ6NMH85PJ46SJUKP4Z1V0FD","3JZQSN0I3SGH6TYY8AMN4W79PUUFGW","model","mismatch","uniform","","","","","","","","409932","411939.10000002384","","","","","","","","","","","","7","","stimuli/stars_7.png","255.5","","","","","stimuli/WF11_CC.jpg","",""
"explore-choice","189","415150","0.0-189.0","p945386","A1JR35HATOEME9","3087LXLJ6NMH85PJ46SJUKP4Z1V0FD","3JZQSN0I3SGH6TYY8AMN4W79PUUFGW","model","mismatch","uniform","","","","","","","4112.199999988079","411939.60000002384","416051.8000000119","[""stimuli/BF06_SUR.jpg"",""stimuli/WF11_HO.jpg"",""stimuli/AM09_CC.jpg"",""stimuli/HM07_AO.jpg""]","stimuli/BF06_SUR.jpg","stimuli/WF11_HO.jpg","stimuli/AM09_CC.jpg","stimuli/HM07_AO.jpg","pos4","stimuli/HM07_AO.jpg","AO","HM07","3","3","6","4","stimuli/stars_6.png","258.5","[""SUR"",""HO"",""CC"",""AO""]","[""BF06"",""WF11"",""AM09"",""HM07""]","[4,4,9,6]","[2,6,8,4]","","",""
"show-reward","190","417163","0.0-190.0","p945386","A1JR35HATOEME9","3087LXLJ6NMH85PJ46SJUKP4Z1V0FD","3JZQSN0I3SGH6TYY8AMN4W79PUUFGW","model","mismatch","uniform","","","","","","","","416563","418576.10000002384","","","","","","","","","","","","6","","stimuli/stars_6.png","258.5","","","","","stimuli/HM07_AO.jpg","",""
"explore-choice","191","419142","0.0-191.0","p945386","A1JR35HATOEME9","3087LXLJ6NMH85PJ46SJUKP4Z1V0FD","3JZQSN0I3SGH6TYY8AMN4W79PUUFGW","model","mismatch","uniform","","","","","","","1477.800000011921","418576.8000000119","420054.60000002384","[""stimuli/WF11_HO.jpg"",""stimuli/BF06_CC.jpg"",""stimuli/AM09_SUR.jpg"",""stimuli/HM07_AO.jpg""]","stimuli/WF11_HO.jpg","stimuli/BF06_CC.jpg","stimuli/AM09_SUR.jpg","stimuli/HM07_AO.jpg","pos1","stimuli/WF11_HO.jpg","HO","WF11","0","2.5","5","6","stimuli/stars_5.png","261","[""HO"",""CC"",""SUR"",""AO""]","[""WF11"",""BF06"",""AM09"",""HM07""]","[5,9,0,6]","[6,8,2,4]","","",""
"show-reward","192","421152","0.0-192.0","p945386","A1JR35HATOEME9","3087LXLJ6NMH85PJ46SJUKP4Z1V0FD","3JZQSN0I3SGH6TYY8AMN4W79PUUFGW","model","mismatch","uniform","","","","","","","","420555.5","422564.8000000119","","","","","","","","","","","","5","","stimuli/stars_5.png","261","","","","","stimuli/WF11_HO.jpg","",""
"explore-choice","193","423569","0.0-193.0","p945386","A1JR35HATOEME9","3087LXLJ6NMH85PJ46SJUKP4Z1V0FD","3JZQSN0I3SGH6TYY8AMN4W79PUUFGW","model","mismatch","uniform","","","","","","","1916.199999988079","422565.40000003576","424481.60000002384","[""stimuli/HM07_SUR.jpg"",""stimuli/WF11_AO.jpg"",""stimuli/AM09_CC.jpg"",""stimuli/BF06_HO.jpg""]","stimuli/HM07_SUR.jpg","stimuli/WF11_AO.jpg","stimuli/AM09_CC.jpg","stimuli/BF06_HO.jpg","pos3","stimuli/AM09_CC.jpg","CC","AM09","2","5","10","8","stimuli/stars_10.png","266","[""SUR"",""AO"",""CC"",""HO""]","[""HM07"",""WF11"",""AM09"",""BF06""]","[3,5,10,6]","[2,4,8,6]","","",""
"show-reward","194","425574","0.0-194.0","p945386","A1JR35HATOEME9","3087LXLJ6NMH85PJ46SJUKP4Z1V0FD","3JZQSN0I3SGH6TYY8AMN4W79PUUFGW","model","mismatch","uniform","","","","","","","","424982.5","426986.7000000477","","","","","","","","","","","","10","","stimuli/stars_10.png","266","","","","","stimuli/AM09_CC.jpg","",""
"explore-choice","195","428835","0.0-195.0","p945386","A1JR35HATOEME9","3087LXLJ6NMH85PJ46SJUKP4Z1V0FD","3JZQSN0I3SGH6TYY8AMN4W79PUUFGW","model","mismatch","uniform","","","","","","","2760.199999988079","426987.40000003576","429747.60000002384","[""stimuli/AM09_HO.jpg"",""stimuli/WF11_AO.jpg"",""stimuli/BF06_CC.jpg"",""stimuli/HM07_SUR.jpg""]","stimuli/AM09_HO.jpg","stimuli/WF11_AO.jpg","stimuli/BF06_CC.jpg","stimuli/HM07_SUR.jpg","pos3","stimuli/BF06_CC.jpg","CC","BF06","2","3.5","7","8","stimuli/stars_7.png","269.5","[""HO"",""AO"",""CC"",""SUR""]","[""AM09"",""WF11"",""BF06"",""HM07""]","[4,6,7,2]","[6,4,8,2]","","",""
"show-reward","196","430850","0.0-196.0","p945386","A1JR35HATOEME9","3087LXLJ6NMH85PJ46SJUKP4Z1V0FD","3JZQSN0I3SGH6TYY8AMN4W79PUUFGW","model","mismatch","uniform","","","","","","","","430248.3000000119","432262.60000002384","","","","","","","","","","","","7","","stimuli/stars_7.png","269.5","","","","","stimuli/BF06_CC.jpg","",""
"explore-choice","197","435932","0.0-197.0","p945386","A1JR35HATOEME9","3087LXLJ6NMH85PJ46SJUKP4Z1V0FD","3JZQSN0I3SGH6TYY8AMN4W79PUUFGW","model","mismatch","uniform","","","","","","","4581.300000011921","432263.3000000119","436844.60000002384","[""stimuli/WF11_CC.jpg"",""stimuli/AM09_AO.jpg"",""stimuli/BF06_HO.jpg"",""stimuli/HM07_SUR.jpg""]","stimuli/WF11_CC.jpg","stimuli/AM09_AO.jpg","stimuli/BF06_HO.jpg","stimuli/HM07_SUR.jpg","pos1","stimuli/WF11_CC.jpg","CC","WF11","0","3.5","7","8","stimuli/stars_7.png","273","[""CC"",""AO"",""HO"",""SUR""]","[""WF11"",""AM09"",""BF06"",""HM07""]","[7,6,7,1]","[8,4,6,2]","","",""
"show-reward","198","437949","0.0-198.0","p945386","A1JR35HATOEME9","3087LXLJ6NMH85PJ46SJUKP4Z1V0FD","3JZQSN0I3SGH6TYY8AMN4W79PUUFGW","model","mismatch","uniform","","","","","","","","437345.8000000119","439362","","","","","","","","","","","","7","","stimuli/stars_7.png","273","","","","","stimuli/WF11_CC.jpg","",""
"instructions","199","446213","0.0-199.0","p945386","A1JR35HATOEME9","3087LXLJ6NMH85PJ46SJUKP4Z1V0FD","3JZQSN0I3SGH6TYY8AMN4W79PUUFGW","model","mismatch","uniform","","","","","","[{""page_index"":0,""viewing_time"":8262.900000035763}]","8263.300000011921","","","","","","","","","","","","","","","","","","","","","","","",""
"survey-text","200","450541","0.0-200.0-0.0","p945386","A1JR35HATOEME9","3087LXLJ6NMH85PJ46SJUKP4Z1V0FD","3JZQSN0I3SGH6TYY8AMN4W79PUUFGW","model","mismatch","uniform","","","","","","","4325.5","","","","","","","","","","","","","","","","","","","","","","","{""age"":""35""}",""
"survey-text","201","455803","0.0-200.0-1.0","p945386","A1JR35HATOEME9","3087LXLJ6NMH85PJ46SJUKP4Z1V0FD","3JZQSN0I3SGH6TYY8AMN4W79PUUFGW","model","mismatch","uniform","","","","","","","5260.5","","","","","","","","","","","","","","","","","","","","","","","{""gender"":""Female""}",""
"survey-text","202","461808","0.0-200.0-2.0","p945386","A1JR35HATOEME9","3087LXLJ6NMH85PJ46SJUKP4Z1V0FD","3JZQSN0I3SGH6TYY8AMN4W79PUUFGW","model","mismatch","uniform","","","","","","","6003.400000035763","","","","","","","","","","","","","","","","","","","","","","","{""country"":""United States""}",""
"survey-text","203","467877","0.0-200.0-3.0","p945386","A1JR35HATOEME9","3087LXLJ6NMH85PJ46SJUKP4Z1V0FD","3JZQSN0I3SGH6TYY8AMN4W79PUUFGW","model","mismatch","uniform","","","","","","","6067.400000035763","","","","","","","","","","","","","","","","","","","","","","","{""language"":""English"",""other_languages"":""""}",""
"survey-multi-select","204","469894","0.0-201.0","p945386","A1JR35HATOEME9","3087LXLJ6NMH85PJ46SJUKP4Z1V0FD","3JZQSN0I3SGH6TYY8AMN4W79PUUFGW","model","mismatch","uniform","","","","","","","2013.0999999642372","","","","","","","","","","","","","","","","","","","","","","","{""race"":[""White""]}","[0]"
"survey-multi-choice","205","472918","0.0-202.0","p945386","A1JR35HATOEME9","3087LXLJ6NMH85PJ46SJUKP4Z1V0FD","3JZQSN0I3SGH6TYY8AMN4W79PUUFGW","model","mismatch","uniform","","","","","","","3022.300000011921","","","","","","","","","","","","","","","","","","","","","","","{""education"":""Some college/ university""}","[0]"
"survey-text","206","498490","0.0-203.0","p945386","A1JR35HATOEME9","3087LXLJ6NMH85PJ46SJUKP4Z1V0FD","3JZQSN0I3SGH6TYY8AMN4W79PUUFGW","model","mismatch","uniform","","","","","","","25570.30000001192","","","","","","","","","","","","","","","","","","","","","","","{""patterns"":""Facial expressions seemed to change with the star amount "",""strategy"":"""",""comments"":""""}",""
