"trial_type","trial_index","time_elapsed","internal_node_id","subject","workerId","hitId","assignmentId","structure_condition","match_condition","noise_type","success","timeout","failed_images","failed_audio","failed_video","view_history","rt","start_time","end_time","stimuli","image1","image2","image3","image4","choiceLocation","choiceImage","choiceEmotion","choiceModel","choice_index","reward_score","reward","reward_score_unadjusted","reward_image","score_after_trial","emotions","models","rewards","rewards_unadjusted","stimulus","response","question_order"
"pavlovia","0","15","0.0-0.0","p866277","AD1WGUMVD6KED","3RDTX9JRTZ7MP6YQMJD0Z3DG4HK978","3QBD8R3Z23PV0QI7CC3CI1JKRRLO4F","emotion","match","uniform","","","","","","","","","","","","","","","","","","","","","","","","","","","","","","",""
"preload","1","16390","0.0-1.0","p866277","AD1WGUMVD6KED","3RDTX9JRTZ7MP6YQMJD0Z3DG4HK978","3QBD8R3Z23PV0QI7CC3CI1JKRRLO4F","emotion","match","uniform","true","false","[]","[]","[]","","","","","","","","","","","","","","","","","","","","","","","","","",""
"fullscreen","2","25677","0.0-2.0","p866277","AD1WGUMVD6KED","3RDTX9JRTZ7MP6YQMJD0Z3DG4HK978","3QBD8R3Z23PV0QI7CC3CI1JKRRLO4F","emotion","match","uniform","true","","","","","","","","","","","","","","","","","","","","","","","","","","","","","",""
"instructions","3","28521","0.0-3.0","p866277","AD1WGUMVD6KED","3RDTX9JRTZ7MP6YQMJD0Z3DG4HK978","3QBD8R3Z23PV0QI7CC3CI1JKRRLO4F","emotion","match","uniform","","","","","","[{""page_index"":0,""viewing_time"":2841.100000143051}]","2841.600000143051","","","","","","","","","","","","","","","","","","","","","","","",""
"explore-choice","4","31068","0.0-4.0","p866277","AD1WGUMVD6KED","3RDTX9JRTZ7MP6YQMJD0Z3DG4HK978","3QBD8R3Z23PV0QI7CC3CI1JKRRLO4F","emotion","match","uniform","","","","","","","2042.8000001907349","31981.39999985695","34024.200000047684","[""stimuli/sheep.jpg"",""stimuli/hammer.jpg"",""stimuli/basketball.jpg"",""stimuli/horse.jpg""]","stimuli/sheep.jpg","stimuli/hammer.jpg","stimuli/basketball.jpg","stimuli/horse.jpg","pos4","stimuli/horse.jpg","","","3","64","64","64","stimuli/stars_8.png","65","","","","","","",""
"explore-choice","5","32594","0.0-5.0","p866277","AD1WGUMVD6KED","3RDTX9JRTZ7MP6YQMJD0Z3DG4HK978","3QBD8R3Z23PV0QI7CC3CI1JKRRLO4F","emotion","match","uniform","","","","","","","1017.7999999523163","34528.200000047684","35546","[""stimuli/hammer.jpg"",""stimuli/basketball.jpg"",""stimuli/horse.jpg"",""stimuli/sheep.jpg""]","stimuli/hammer.jpg","stimuli/basketball.jpg","stimuli/horse.jpg","stimuli/sheep.jpg","pos1","stimuli/hammer.jpg","","","0","8","8","8","stimuli/stars_2.png","9","","","","","","",""
"instructions","6","45787","0.0-6.0","p866277","AD1WGUMVD6KED","3RDTX9JRTZ7MP6YQMJD0Z3DG4HK978","3QBD8R3Z23PV0QI7CC3CI1JKRRLO4F","emotion","match","uniform","","","","","","[{""page_index"":0,""viewing_time"":13192}]","13192.299999952316","","","","","","","","","","","","","","","","","","","","","","","",""
"explore-choice","7","47706","0.0-7.0","p866277","AD1WGUMVD6KED","3RDTX9JRTZ7MP6YQMJD0Z3DG4HK978","3QBD8R3Z23PV0QI7CC3CI1JKRRLO4F","emotion","match","uniform","","","","","","","1408.2000000476837","49247.799999952316","50656","[""stimuli/WM13_HO.jpg"",""stimuli/BF08_HE.jpg"",""stimuli/BM04_AO.jpg"",""stimuli/WF06_SUR.jpg""]","stimuli/WM13_HO.jpg","stimuli/BF08_HE.jpg","stimuli/BM04_AO.jpg","stimuli/WF06_SUR.jpg","pos2","stimuli/BF08_HE.jpg","HE","BF08","1","3","6","4","stimuli/stars_6.png","4","[""HO"",""HE"",""AO"",""SUR""]","[""WM13"",""BF08"",""BM04"",""WF06""]","[6,6,8,1]","[6,4,8,2]","","",""
"show-reward","8","49723","0.0-8.0","p866277","AD1WGUMVD6KED","3RDTX9JRTZ7MP6YQMJD0Z3DG4HK978","3QBD8R3Z23PV0QI7CC3CI1JKRRLO4F","emotion","match","uniform","","","","","","","","51167.09999990463","53182.299999952316","","","","","","","","","","","","6","","stimuli/stars_6.png","4","","","","","stimuli/BF08_HE.jpg","",""
"explore-choice","9","51754","0.0-9.0","p866277","AD1WGUMVD6KED","3RDTX9JRTZ7MP6YQMJD0Z3DG4HK978","3QBD8R3Z23PV0QI7CC3CI1JKRRLO4F","emotion","match","uniform","","","","","","","1520.7000000476837","53185","54705.700000047684","[""stimuli/BM04_HO.jpg"",""stimuli/WF06_HE.jpg"",""stimuli/BF08_AO.jpg"",""stimuli/WM13_SUR.jpg""]","stimuli/BM04_HO.jpg","stimuli/WF06_HE.jpg","stimuli/BF08_AO.jpg","stimuli/WM13_SUR.jpg","pos2","stimuli/WF06_HE.jpg","HE","WF06","1","1","2","4","stimuli/stars_2.png","5","[""HO"",""HE"",""AO"",""SUR""]","[""BM04"",""WF06"",""BF08"",""WM13""]","[8,2,9,4]","[6,4,8,2]","","",""
"show-reward","10","53764","0.0-10.0","p866277","AD1WGUMVD6KED","3RDTX9JRTZ7MP6YQMJD0Z3DG4HK978","3QBD8R3Z23PV0QI7CC3CI1JKRRLO4F","emotion","match","uniform","","","","","","","","55214.200000047684","57222.5","","","","","","","","","","","","2","","stimuli/stars_2.png","5","","","","","stimuli/WF06_HE.jpg","",""
"explore-choice","11","55386","0.0-11.0","p866277","AD1WGUMVD6KED","3RDTX9JRTZ7MP6YQMJD0Z3DG4HK978","3QBD8R3Z23PV0QI7CC3CI1JKRRLO4F","emotion","match","uniform","","","","","","","1117","57224.5","58341.5","[""stimuli/WF06_HE.jpg"",""stimuli/BF08_HO.jpg"",""stimuli/BM04_SUR.jpg"",""stimuli/WM13_AO.jpg""]","stimuli/WF06_HE.jpg","stimuli/BF08_HO.jpg","stimuli/BM04_SUR.jpg","stimuli/WM13_AO.jpg","pos4","stimuli/WM13_AO.jpg","AO","WM13","3","3.5","7","8","stimuli/stars_7.png","8.5","[""HE"",""HO"",""SUR"",""AO""]","[""WF06"",""BF08"",""BM04"",""WM13""]","[3,5,4,7]","[4,6,2,8]","","",""
"show-reward","12","57400","0.0-12.0","p866277","AD1WGUMVD6KED","3RDTX9JRTZ7MP6YQMJD0Z3DG4HK978","3QBD8R3Z23PV0QI7CC3CI1JKRRLO4F","emotion","match","uniform","","","","","","","","58846.89999985695","60859.700000047684","","","","","","","","","","","","7","","stimuli/stars_7.png","8.5","","","","","stimuli/WM13_AO.jpg","",""
"explore-choice","13","59093","0.0-13.0","p866277","AD1WGUMVD6KED","3RDTX9JRTZ7MP6YQMJD0Z3DG4HK978","3QBD8R3Z23PV0QI7CC3CI1JKRRLO4F","emotion","match","uniform","","","","","","","1177.2000000476837","60860.5","62037.700000047684","[""stimuli/WM13_HO.jpg"",""stimuli/BM04_AO.jpg"",""stimuli/BF08_SUR.jpg"",""stimuli/WF06_HE.jpg""]","stimuli/WM13_HO.jpg","stimuli/BM04_AO.jpg","stimuli/BF08_SUR.jpg","stimuli/WF06_HE.jpg","pos2","stimuli/BM04_AO.jpg","AO","BM04","1","5","10","8","stimuli/stars_10.png","13.5","[""HO"",""AO"",""SUR"",""HE""]","[""WM13"",""BM04"",""BF08"",""WF06""]","[5,10,2,3]","[6,8,2,4]","","",""
"show-reward","14","61100","0.0-14.0","p866277","AD1WGUMVD6KED","3RDTX9JRTZ7MP6YQMJD0Z3DG4HK978","3QBD8R3Z23PV0QI7CC3CI1JKRRLO4F","emotion","match","uniform","","","","","","","","62552.799999952316","64559.200000047684","","","","","","","","","","","","10","","stimuli/stars_10.png","13.5","","","","","stimuli/BM04_AO.jpg","",""
"explore-choice","15","62661","0.0-15.0","p866277","AD1WGUMVD6KED","3RDTX9JRTZ7MP6YQMJD0Z3DG4HK978","3QBD8R3Z23PV0QI7CC3CI1JKRRLO4F","emotion","match","uniform","","","","","","","1051.7999999523163","64560.200000047684","65612","[""stimuli/WM13_HE.jpg"",""stimuli/BF08_HO.jpg"",""stimuli/WF06_SUR.jpg"",""stimuli/BM04_AO.jpg""]","stimuli/WM13_HE.jpg","stimuli/BF08_HO.jpg","stimuli/WF06_SUR.jpg","stimuli/BM04_AO.jpg","pos4","stimuli/BM04_AO.jpg","AO","BM04","3","4","8","8","stimuli/stars_8.png","17.5","[""HE"",""HO"",""SUR"",""AO""]","[""WM13"",""BF08"",""WF06"",""BM04""]","[6,5,0,8]","[4,6,2,8]","","",""
"show-reward","16","64673","0.0-16.0","p866277","AD1WGUMVD6KED","3RDTX9JRTZ7MP6YQMJD0Z3DG4HK978","3QBD8R3Z23PV0QI7CC3CI1JKRRLO4F","emotion","match","uniform","","","","","","","","66121.59999990463","68132.5","","","","","","","","","","","","8","","stimuli/stars_8.png","17.5","","","","","stimuli/BM04_AO.jpg","",""
"explore-choice","17","66707","0.0-17.0","p866277","AD1WGUMVD6KED","3RDTX9JRTZ7MP6YQMJD0Z3DG4HK978","3QBD8R3Z23PV0QI7CC3CI1JKRRLO4F","emotion","match","uniform","","","","","","","1529.0999999046326","68133.29999995232","69662.39999985695","[""stimuli/WF06_HE.jpg"",""stimuli/WM13_HO.jpg"",""stimuli/BM04_SUR.jpg"",""stimuli/BF08_AO.jpg""]","stimuli/WF06_HE.jpg","stimuli/WM13_HO.jpg","stimuli/BM04_SUR.jpg","stimuli/BF08_AO.jpg","pos4","stimuli/BF08_AO.jpg","AO","BF08","3","5","10","8","stimuli/stars_10.png","22.5","[""HE"",""HO"",""SUR"",""AO""]","[""WF06"",""WM13"",""BM04"",""BF08""]","[6,4,3,10]","[4,6,2,8]","","",""
"show-reward","18","68716","0.0-18.0","p866277","AD1WGUMVD6KED","3RDTX9JRTZ7MP6YQMJD0Z3DG4HK978","3QBD8R3Z23PV0QI7CC3CI1JKRRLO4F","emotion","match","uniform","","","","","","","","70170.20000004768","72175","","","","","","","","","","","","10","","stimuli/stars_10.png","22.5","","","","","stimuli/BF08_AO.jpg","",""
"explore-choice","19","70841","0.0-19.0","p866277","AD1WGUMVD6KED","3RDTX9JRTZ7MP6YQMJD0Z3DG4HK978","3QBD8R3Z23PV0QI7CC3CI1JKRRLO4F","emotion","match","uniform","","","","","","","1623.8999998569489","72175.70000004768","73799.59999990463","[""stimuli/WM13_HE.jpg"",""stimuli/BF08_SUR.jpg"",""stimuli/WF06_AO.jpg"",""stimuli/BM04_HO.jpg""]","stimuli/WM13_HE.jpg","stimuli/BF08_SUR.jpg","stimuli/WF06_AO.jpg","stimuli/BM04_HO.jpg","pos3","stimuli/WF06_AO.jpg","AO","WF06","2","5","10","8","stimuli/stars_10.png","27.5","[""HE"",""SUR"",""AO"",""HO""]","[""WM13"",""BF08"",""WF06"",""BM04""]","[3,4,10,8]","[4,2,8,6]","","",""
"show-reward","20","72852","0.0-20.0","p866277","AD1WGUMVD6KED","3RDTX9JRTZ7MP6YQMJD0Z3DG4HK978","3QBD8R3Z23PV0QI7CC3CI1JKRRLO4F","emotion","match","uniform","","","","","","","","74301.09999990463","76311.59999990463","","","","","","","","","","","","10","","stimuli/stars_10.png","27.5","","","","","stimuli/WF06_AO.jpg","",""
"explore-choice","21","74585","0.0-21.0","p866277","AD1WGUMVD6KED","3RDTX9JRTZ7MP6YQMJD0Z3DG4HK978","3QBD8R3Z23PV0QI7CC3CI1JKRRLO4F","emotion","match","uniform","","","","","","","1216.9000000953674","76312.29999995232","77529.20000004768","[""stimuli/WF06_AO.jpg"",""stimuli/BF08_HO.jpg"",""stimuli/BM04_SUR.jpg"",""stimuli/WM13_HE.jpg""]","stimuli/WF06_AO.jpg","stimuli/BF08_HO.jpg","stimuli/BM04_SUR.jpg","stimuli/WM13_HE.jpg","pos1","stimuli/WF06_AO.jpg","AO","WF06","0","5","10","8","stimuli/stars_10.png","32.5","[""AO"",""HO"",""SUR"",""HE""]","[""WF06"",""BF08"",""BM04"",""WM13""]","[10,6,4,4]","[8,6,2,4]","","",""
"show-reward","22","76589","0.0-22.0","p866277","AD1WGUMVD6KED","3RDTX9JRTZ7MP6YQMJD0Z3DG4HK978","3QBD8R3Z23PV0QI7CC3CI1JKRRLO4F","emotion","match","uniform","","","","","","","","78045.59999990463","80048.59999990463","","","","","","","","","","","","10","","stimuli/stars_10.png","32.5","","","","","stimuli/WF06_AO.jpg","",""
"explore-choice","23","78455","0.0-23.0","p866277","AD1WGUMVD6KED","3RDTX9JRTZ7MP6YQMJD0Z3DG4HK978","3QBD8R3Z23PV0QI7CC3CI1JKRRLO4F","emotion","match","uniform","","","","","","","1358.8000001907349","80049.39999985695","81408.20000004768","[""stimuli/WF06_HO.jpg"",""stimuli/WM13_HE.jpg"",""stimuli/BF08_SUR.jpg"",""stimuli/BM04_AO.jpg""]","stimuli/WF06_HO.jpg","stimuli/WM13_HE.jpg","stimuli/BF08_SUR.jpg","stimuli/BM04_AO.jpg","pos4","stimuli/BM04_AO.jpg","AO","BM04","3","5","10","8","stimuli/stars_10.png","37.5","[""HO"",""HE"",""SUR"",""AO""]","[""WF06"",""WM13"",""BF08"",""BM04""]","[7,5,2,10]","[6,4,2,8]","","",""
"show-reward","24","80464","0.0-24.0","p866277","AD1WGUMVD6KED","3RDTX9JRTZ7MP6YQMJD0Z3DG4HK978","3QBD8R3Z23PV0QI7CC3CI1JKRRLO4F","emotion","match","uniform","","","","","","","","81916.39999985695","83923.59999990463","","","","","","","","","","","","10","","stimuli/stars_10.png","37.5","","","","","stimuli/BM04_AO.jpg","",""
"explore-choice","25","82278","0.0-25.0","p866277","AD1WGUMVD6KED","3RDTX9JRTZ7MP6YQMJD0Z3DG4HK978","3QBD8R3Z23PV0QI7CC3CI1JKRRLO4F","emotion","match","uniform","","","","","","","1305.9000000953674","83924.59999990463","85230.5","[""stimuli/WF06_SUR.jpg"",""stimuli/BM04_HE.jpg"",""stimuli/WM13_HO.jpg"",""stimuli/BF08_AO.jpg""]","stimuli/WF06_SUR.jpg","stimuli/BM04_HE.jpg","stimuli/WM13_HO.jpg","stimuli/BF08_AO.jpg","pos4","stimuli/BF08_AO.jpg","AO","BF08","3","4","8","8","stimuli/stars_8.png","41.5","[""SUR"",""HE"",""HO"",""AO""]","[""WF06"",""BM04"",""WM13"",""BF08""]","[1,4,6,8]","[2,4,6,8]","","",""
"show-reward","26","84292","0.0-26.0","p866277","AD1WGUMVD6KED","3RDTX9JRTZ7MP6YQMJD0Z3DG4HK978","3QBD8R3Z23PV0QI7CC3CI1JKRRLO4F","emotion","match","uniform","","","","","","","","85739.29999995232","87751.89999985695","","","","","","","","","","","","8","","stimuli/stars_8.png","41.5","","","","","stimuli/BF08_AO.jpg","",""
"explore-choice","27","86209","0.0-27.0","p866277","AD1WGUMVD6KED","3RDTX9JRTZ7MP6YQMJD0Z3DG4HK978","3QBD8R3Z23PV0QI7CC3CI1JKRRLO4F","emotion","match","uniform","","","","","","","1414.7999999523163","87752.59999990463","89167.39999985695","[""stimuli/BF08_SUR.jpg"",""stimuli/BM04_HE.jpg"",""stimuli/WM13_HO.jpg"",""stimuli/WF06_AO.jpg""]","stimuli/BF08_SUR.jpg","stimuli/BM04_HE.jpg","stimuli/WM13_HO.jpg","stimuli/WF06_AO.jpg","pos4","stimuli/WF06_AO.jpg","AO","WF06","3","5","10","8","stimuli/stars_10.png","46.5","[""SUR"",""HE"",""HO"",""AO""]","[""BF08"",""BM04"",""WM13"",""WF06""]","[4,4,4,10]","[2,4,6,8]","","",""
"show-reward","28","88225","0.0-28.0","p866277","AD1WGUMVD6KED","3RDTX9JRTZ7MP6YQMJD0Z3DG4HK978","3QBD8R3Z23PV0QI7CC3CI1JKRRLO4F","emotion","match","uniform","","","","","","","","89669.09999990463","91683.59999990463","","","","","","","","","","","","10","","stimuli/stars_10.png","46.5","","","","","stimuli/WF06_AO.jpg","",""
"explore-choice","29","90235","0.0-29.0","p866277","AD1WGUMVD6KED","3RDTX9JRTZ7MP6YQMJD0Z3DG4HK978","3QBD8R3Z23PV0QI7CC3CI1JKRRLO4F","emotion","match","uniform","","","","","","","1495.7000000476837","91685.29999995232","93181","[""stimuli/BF08_HO.jpg"",""stimuli/WF06_SUR.jpg"",""stimuli/WM13_AO.jpg"",""stimuli/BM04_HE.jpg""]","stimuli/BF08_HO.jpg","stimuli/WF06_SUR.jpg","stimuli/WM13_AO.jpg","stimuli/BM04_HE.jpg","pos3","stimuli/WM13_AO.jpg","AO","WM13","2","3","6","8","stimuli/stars_6.png","49.5","[""HO"",""SUR"",""AO"",""HE""]","[""BF08"",""WF06"",""WM13"",""BM04""]","[5,0,6,4]","[6,2,8,4]","","",""
"show-reward","30","92247","0.0-30.0","p866277","AD1WGUMVD6KED","3RDTX9JRTZ7MP6YQMJD0Z3DG4HK978","3QBD8R3Z23PV0QI7CC3CI1JKRRLO4F","emotion","match","uniform","","","","","","","","93694.70000004768","95706.59999990463","","","","","","","","","","","","6","","stimuli/stars_6.png","49.5","","","","","stimuli/WM13_AO.jpg","",""
"explore-choice","31","94308","0.0-31.0","p866277","AD1WGUMVD6KED","3RDTX9JRTZ7MP6YQMJD0Z3DG4HK978","3QBD8R3Z23PV0QI7CC3CI1JKRRLO4F","emotion","match","uniform","","","","","","","1558.0999999046326","95707.20000004768","97265.29999995232","[""stimuli/WF06_HO.jpg"",""stimuli/WM13_SUR.jpg"",""stimuli/BF08_AO.jpg"",""stimuli/BM04_HE.jpg""]","stimuli/WF06_HO.jpg","stimuli/WM13_SUR.jpg","stimuli/BF08_AO.jpg","stimuli/BM04_HE.jpg","pos3","stimuli/BF08_AO.jpg","AO","BF08","2","3","6","8","stimuli/stars_6.png","52.5","[""HO"",""SUR"",""AO"",""HE""]","[""WF06"",""WM13"",""BF08"",""BM04""]","[8,1,6,6]","[6,2,8,4]","","",""
"show-reward","32","96310","0.0-32.0","p866277","AD1WGUMVD6KED","3RDTX9JRTZ7MP6YQMJD0Z3DG4HK978","3QBD8R3Z23PV0QI7CC3CI1JKRRLO4F","emotion","match","uniform","","","","","","","","97767.89999985695","99769.09999990463","","","","","","","","","","","","6","","stimuli/stars_6.png","52.5","","","","","stimuli/BF08_AO.jpg","",""
"explore-choice","33","98339","0.0-33.0","p866277","AD1WGUMVD6KED","3RDTX9JRTZ7MP6YQMJD0Z3DG4HK978","3QBD8R3Z23PV0QI7CC3CI1JKRRLO4F","emotion","match","uniform","","","","","","","1525.5999999046326","99769.70000004768","101295.29999995232","[""stimuli/BF08_HE.jpg"",""stimuli/BM04_HO.jpg"",""stimuli/WM13_SUR.jpg"",""stimuli/WF06_AO.jpg""]","stimuli/BF08_HE.jpg","stimuli/BM04_HO.jpg","stimuli/WM13_SUR.jpg","stimuli/WF06_AO.jpg","pos4","stimuli/WF06_AO.jpg","AO","WF06","3","3","6","8","stimuli/stars_6.png","55.5","[""HE"",""HO"",""SUR"",""AO""]","[""BF08"",""BM04"",""WM13"",""WF06""]","[2,5,0,6]","[4,6,2,8]","","",""
"show-reward","34","100348","0.0-34.0","p866277","AD1WGUMVD6KED","3RDTX9JRTZ7MP6YQMJD0Z3DG4HK978","3QBD8R3Z23PV0QI7CC3CI1JKRRLO4F","emotion","match","uniform","","","","","","","","101799.09999990463","103807.79999995232","","","","","","","","","","","","6","","stimuli/stars_6.png","55.5","","","","","stimuli/WF06_AO.jpg","",""
"explore-choice","35","102481","0.0-35.0","p866277","AD1WGUMVD6KED","3RDTX9JRTZ7MP6YQMJD0Z3DG4HK978","3QBD8R3Z23PV0QI7CC3CI1JKRRLO4F","emotion","match","uniform","","","","","","","1628.2999999523163","103808.79999995232","105437.09999990463","[""stimuli/BM04_SUR.jpg"",""stimuli/BF08_HE.jpg"",""stimuli/WM13_HO.jpg"",""stimuli/WF06_AO.jpg""]","stimuli/BM04_SUR.jpg","stimuli/BF08_HE.jpg","stimuli/WM13_HO.jpg","stimuli/WF06_AO.jpg","pos4","stimuli/WF06_AO.jpg","AO","WF06","3","4.5","9","8","stimuli/stars_9.png","60","[""SUR"",""HE"",""HO"",""AO""]","[""BM04"",""BF08"",""WM13"",""WF06""]","[0,3,6,9]","[2,4,6,8]","","",""
"show-reward","36","104494","0.0-36.0","p866277","AD1WGUMVD6KED","3RDTX9JRTZ7MP6YQMJD0Z3DG4HK978","3QBD8R3Z23PV0QI7CC3CI1JKRRLO4F","emotion","match","uniform","","","","","","","","105942.09999990463","107952.79999995232","","","","","","","","","","","","9","","stimuli/stars_9.png","60","","","","","stimuli/WF06_AO.jpg","",""
"explore-choice","37","106060","0.0-37.0","p866277","AD1WGUMVD6KED","3RDTX9JRTZ7MP6YQMJD0Z3DG4HK978","3QBD8R3Z23PV0QI7CC3CI1JKRRLO4F","emotion","match","uniform","","","","","","","1056.2999999523163","107953.59999990463","109009.89999985695","[""stimuli/BF08_SUR.jpg"",""stimuli/BM04_HE.jpg"",""stimuli/WF06_HO.jpg"",""stimuli/WM13_AO.jpg""]","stimuli/BF08_SUR.jpg","stimuli/BM04_HE.jpg","stimuli/WF06_HO.jpg","stimuli/WM13_AO.jpg","pos4","stimuli/WM13_AO.jpg","AO","WM13","3","3.5","7","8","stimuli/stars_7.png","63.5","[""SUR"",""HE"",""HO"",""AO""]","[""BF08"",""BM04"",""WF06"",""WM13""]","[3,4,6,7]","[2,4,6,8]","","",""
"show-reward","38","108068","0.0-38.0","p866277","AD1WGUMVD6KED","3RDTX9JRTZ7MP6YQMJD0Z3DG4HK978","3QBD8R3Z23PV0QI7CC3CI1JKRRLO4F","emotion","match","uniform","","","","","","","","109520.39999985695","111527.29999995232","","","","","","","","","","","","7","","stimuli/stars_7.png","63.5","","","","","stimuli/WM13_AO.jpg","",""
"explore-choice","39","110253","0.0-39.0","p866277","AD1WGUMVD6KED","3RDTX9JRTZ7MP6YQMJD0Z3DG4HK978","3QBD8R3Z23PV0QI7CC3CI1JKRRLO4F","emotion","match","uniform","","","","","","","1681.8999998569489","111528","113209.89999985695","[""stimuli/WM13_SUR.jpg"",""stimuli/WF06_HE.jpg"",""stimuli/BM04_AO.jpg"",""stimuli/BF08_HO.jpg""]","stimuli/WM13_SUR.jpg","stimuli/WF06_HE.jpg","stimuli/BM04_AO.jpg","stimuli/BF08_HO.jpg","pos3","stimuli/BM04_AO.jpg","AO","BM04","2","4","8","8","stimuli/stars_8.png","67.5","[""SUR"",""HE"",""AO"",""HO""]","[""WM13"",""WF06"",""BM04"",""BF08""]","[4,4,8,8]","[2,4,8,6]","","",""
"show-reward","40","112261","0.0-40.0","p866277","AD1WGUMVD6KED","3RDTX9JRTZ7MP6YQMJD0Z3DG4HK978","3QBD8R3Z23PV0QI7CC3CI1JKRRLO4F","emotion","match","uniform","","","","","","","","113712.39999985695","115720.39999985695","","","","","","","","","","","","8","","stimuli/stars_8.png","67.5","","","","","stimuli/BM04_AO.jpg","",""
"explore-choice","41","113620","0.0-41.0","p866277","AD1WGUMVD6KED","3RDTX9JRTZ7MP6YQMJD0Z3DG4HK978","3QBD8R3Z23PV0QI7CC3CI1JKRRLO4F","emotion","match","uniform","","","","","","","856.5","115721.09999990463","116577.59999990463","[""stimuli/WM13_AO.jpg"",""stimuli/WF06_HO.jpg"",""stimuli/BM04_SUR.jpg"",""stimuli/BF08_HE.jpg""]","stimuli/WM13_AO.jpg","stimuli/WF06_HO.jpg","stimuli/BM04_SUR.jpg","stimuli/BF08_HE.jpg","pos1","stimuli/WM13_AO.jpg","AO","WM13","0","5","10","8","stimuli/stars_10.png","72.5","[""AO"",""HO"",""SUR"",""HE""]","[""WM13"",""WF06"",""BM04"",""BF08""]","[10,6,1,3]","[8,6,2,4]","","",""
"show-reward","42","115631","0.0-42.0","p866277","AD1WGUMVD6KED","3RDTX9JRTZ7MP6YQMJD0Z3DG4HK978","3QBD8R3Z23PV0QI7CC3CI1JKRRLO4F","emotion","match","uniform","","","","","","","","117081","119089.70000004768","","","","","","","","","","","","10","","stimuli/stars_10.png","72.5","","","","","stimuli/WM13_AO.jpg","",""
"explore-choice","43","117365","0.0-43.0","p866277","AD1WGUMVD6KED","3RDTX9JRTZ7MP6YQMJD0Z3DG4HK978","3QBD8R3Z23PV0QI7CC3CI1JKRRLO4F","emotion","match","uniform","","","","","","","1222.7000000476837","119090.39999985695","120313.09999990463","[""stimuli/WF06_HE.jpg"",""stimuli/BF08_SUR.jpg"",""stimuli/WM13_AO.jpg"",""stimuli/BM04_HO.jpg""]","stimuli/WF06_HE.jpg","stimuli/BF08_SUR.jpg","stimuli/WM13_AO.jpg","stimuli/BM04_HO.jpg","pos3","stimuli/WM13_AO.jpg","AO","WM13","2","3.5","7","8","stimuli/stars_7.png","76","[""HE"",""SUR"",""AO"",""HO""]","[""WF06"",""BF08"",""WM13"",""BM04""]","[6,0,7,4]","[4,2,8,6]","","",""
"show-reward","44","119372","0.0-44.0","p866277","AD1WGUMVD6KED","3RDTX9JRTZ7MP6YQMJD0Z3DG4HK978","3QBD8R3Z23PV0QI7CC3CI1JKRRLO4F","emotion","match","uniform","","","","","","","","120824.5","122830.79999995232","","","","","","","","","","","","7","","stimuli/stars_7.png","76","","","","","stimuli/WM13_AO.jpg","",""
"explore-choice","45","121174","0.0-45.0","p866277","AD1WGUMVD6KED","3RDTX9JRTZ7MP6YQMJD0Z3DG4HK978","3QBD8R3Z23PV0QI7CC3CI1JKRRLO4F","emotion","match","uniform","","","","","","","1296.5","122831.79999995232","124128.29999995232","[""stimuli/WF06_HO.jpg"",""stimuli/BM04_SUR.jpg"",""stimuli/WM13_HE.jpg"",""stimuli/BF08_AO.jpg""]","stimuli/WF06_HO.jpg","stimuli/BM04_SUR.jpg","stimuli/WM13_HE.jpg","stimuli/BF08_AO.jpg","pos4","stimuli/BF08_AO.jpg","AO","BF08","3","3","6","8","stimuli/stars_6.png","79","[""HO"",""SUR"",""HE"",""AO""]","[""WF06"",""BM04"",""WM13"",""BF08""]","[8,2,6,6]","[6,2,4,8]","","",""
"show-reward","46","123185","0.0-46.0","p866277","AD1WGUMVD6KED","3RDTX9JRTZ7MP6YQMJD0Z3DG4HK978","3QBD8R3Z23PV0QI7CC3CI1JKRRLO4F","emotion","match","uniform","","","","","","","","124634.29999995232","126643.79999995232","","","","","","","","","","","","6","","stimuli/stars_6.png","79","","","","","stimuli/BF08_AO.jpg","",""
"explore-choice","47","124586","0.0-47.0","p866277","AD1WGUMVD6KED","3RDTX9JRTZ7MP6YQMJD0Z3DG4HK978","3QBD8R3Z23PV0QI7CC3CI1JKRRLO4F","emotion","match","uniform","","","","","","","884.7000000476837","126645.5","127530.20000004768","[""stimuli/WM13_AO.jpg"",""stimuli/BM04_HO.jpg"",""stimuli/WF06_SUR.jpg"",""stimuli/BF08_HE.jpg""]","stimuli/WM13_AO.jpg","stimuli/BM04_HO.jpg","stimuli/WF06_SUR.jpg","stimuli/BF08_HE.jpg","pos1","stimuli/WM13_AO.jpg","AO","WM13","0","5","10","8","stimuli/stars_10.png","84","[""AO"",""HO"",""SUR"",""HE""]","[""WM13"",""BM04"",""WF06"",""BF08""]","[10,4,0,4]","[8,6,2,4]","","",""
"show-reward","48","126597","0.0-48.0","p866277","AD1WGUMVD6KED","3RDTX9JRTZ7MP6YQMJD0Z3DG4HK978","3QBD8R3Z23PV0QI7CC3CI1JKRRLO4F","emotion","match","uniform","","","","","","","","128045.70000004768","130056","","","","","","","","","","","","10","","stimuli/stars_10.png","84","","","","","stimuli/WM13_AO.jpg","",""
"explore-choice","49","128878","0.0-49.0","p866277","AD1WGUMVD6KED","3RDTX9JRTZ7MP6YQMJD0Z3DG4HK978","3QBD8R3Z23PV0QI7CC3CI1JKRRLO4F","emotion","match","uniform","","","","","","","1767.7000000476837","130056.59999990463","131824.29999995232","[""stimuli/WM13_SUR.jpg"",""stimuli/BM04_HE.jpg"",""stimuli/WF06_AO.jpg"",""stimuli/BF08_HO.jpg""]","stimuli/WM13_SUR.jpg","stimuli/BM04_HE.jpg","stimuli/WF06_AO.jpg","stimuli/BF08_HO.jpg","pos3","stimuli/WF06_AO.jpg","AO","WF06","2","3.5","7","8","stimuli/stars_7.png","87.5","[""SUR"",""HE"",""AO"",""HO""]","[""WM13"",""BM04"",""WF06"",""BF08""]","[3,3,7,8]","[2,4,8,6]","","",""
"show-reward","50","130891","0.0-50.0","p866277","AD1WGUMVD6KED","3RDTX9JRTZ7MP6YQMJD0Z3DG4HK978","3QBD8R3Z23PV0QI7CC3CI1JKRRLO4F","emotion","match","uniform","","","","","","","","132337.79999995232","134349.70000004768","","","","","","","","","","","","7","","stimuli/stars_7.png","87.5","","","","","stimuli/WF06_AO.jpg","",""
"explore-choice","51","133019","0.0-51.0","p866277","AD1WGUMVD6KED","3RDTX9JRTZ7MP6YQMJD0Z3DG4HK978","3QBD8R3Z23PV0QI7CC3CI1JKRRLO4F","emotion","match","uniform","","","","","","","1626.3000001907349","134350.39999985695","135976.70000004768","[""stimuli/WF06_SUR.jpg"",""stimuli/BF08_AO.jpg"",""stimuli/BM04_HO.jpg"",""stimuli/WM13_HE.jpg""]","stimuli/WF06_SUR.jpg","stimuli/BF08_AO.jpg","stimuli/BM04_HO.jpg","stimuli/WM13_HE.jpg","pos2","stimuli/BF08_AO.jpg","AO","BF08","1","3","6","8","stimuli/stars_6.png","90.5","[""SUR"",""AO"",""HO"",""HE""]","[""WF06"",""BF08"",""BM04"",""WM13""]","[2,6,4,3]","[2,8,6,4]","","",""
"show-reward","52","135024","0.0-52.0","p866277","AD1WGUMVD6KED","3RDTX9JRTZ7MP6YQMJD0Z3DG4HK978","3QBD8R3Z23PV0QI7CC3CI1JKRRLO4F","emotion","match","uniform","","","","","","","","136479.09999990463","138483.20000004768","","","","","","","","","","","","6","","stimuli/stars_6.png","90.5","","","","","stimuli/BF08_AO.jpg","",""
"explore-choice","53","136744","0.0-53.0","p866277","AD1WGUMVD6KED","3RDTX9JRTZ7MP6YQMJD0Z3DG4HK978","3QBD8R3Z23PV0QI7CC3CI1JKRRLO4F","emotion","match","uniform","","","","","","","1216.3999998569489","138485.20000004768","139701.59999990463","[""stimuli/WM13_SUR.jpg"",""stimuli/WF06_HO.jpg"",""stimuli/BM04_AO.jpg"",""stimuli/BF08_HE.jpg""]","stimuli/WM13_SUR.jpg","stimuli/WF06_HO.jpg","stimuli/BM04_AO.jpg","stimuli/BF08_HE.jpg","pos3","stimuli/BM04_AO.jpg","AO","BM04","2","4.5","9","8","stimuli/stars_9.png","95","[""SUR"",""HO"",""AO"",""HE""]","[""WM13"",""WF06"",""BM04"",""BF08""]","[1,5,9,4]","[2,6,8,4]","","",""
"show-reward","54","138746","0.0-54.0","p866277","AD1WGUMVD6KED","3RDTX9JRTZ7MP6YQMJD0Z3DG4HK978","3QBD8R3Z23PV0QI7CC3CI1JKRRLO4F","emotion","match","uniform","","","","","","","","140203.29999995232","142205.39999985695","","","","","","","","","","","","9","","stimuli/stars_9.png","95","","","","","stimuli/BM04_AO.jpg","",""
"explore-choice","55","140572","0.0-55.0","p866277","AD1WGUMVD6KED","3RDTX9JRTZ7MP6YQMJD0Z3DG4HK978","3QBD8R3Z23PV0QI7CC3CI1JKRRLO4F","emotion","match","uniform","","","","","","","1324.1000001430511","142206.09999990463","143530.20000004768","[""stimuli/BF08_AO.jpg"",""stimuli/WM13_SUR.jpg"",""stimuli/BM04_HO.jpg"",""stimuli/WF06_HE.jpg""]","stimuli/BF08_AO.jpg","stimuli/WM13_SUR.jpg","stimuli/BM04_HO.jpg","stimuli/WF06_HE.jpg","pos1","stimuli/BF08_AO.jpg","AO","BF08","0","4.5","9","8","stimuli/stars_9.png","99.5","[""AO"",""SUR"",""HO"",""HE""]","[""BF08"",""WM13"",""BM04"",""WF06""]","[9,4,8,2]","[8,2,6,4]","","",""
"show-reward","56","142575","0.0-56.0","p866277","AD1WGUMVD6KED","3RDTX9JRTZ7MP6YQMJD0Z3DG4HK978","3QBD8R3Z23PV0QI7CC3CI1JKRRLO4F","emotion","match","uniform","","","","","","","","144031.70000004768","146034.09999990463","","","","","","","","","","","","9","","stimuli/stars_9.png","99.5","","","","","stimuli/BF08_AO.jpg","",""
"explore-choice","57","144098","0.0-57.0","p866277","AD1WGUMVD6KED","3RDTX9JRTZ7MP6YQMJD0Z3DG4HK978","3QBD8R3Z23PV0QI7CC3CI1JKRRLO4F","emotion","match","uniform","","","","","","","1010.2000000476837","146034.79999995232","147045","[""stimuli/WM13_AO.jpg"",""stimuli/BF08_SUR.jpg"",""stimuli/BM04_HO.jpg"",""stimuli/WF06_HE.jpg""]","stimuli/WM13_AO.jpg","stimuli/BF08_SUR.jpg","stimuli/BM04_HO.jpg","stimuli/WF06_HE.jpg","pos1","stimuli/WM13_AO.jpg","AO","WM13","0","3.5","7","8","stimuli/stars_7.png","103","[""AO"",""SUR"",""HO"",""HE""]","[""WM13"",""BF08"",""BM04"",""WF06""]","[7,0,4,6]","[8,2,6,4]","","",""
"show-reward","58","146114","0.0-58.0","p866277","AD1WGUMVD6KED","3RDTX9JRTZ7MP6YQMJD0Z3DG4HK978","3QBD8R3Z23PV0QI7CC3CI1JKRRLO4F","emotion","match","uniform","","","","","","","","147558.29999995232","149572.29999995232","","","","","","","","","","","","7","","stimuli/stars_7.png","103","","","","","stimuli/WM13_AO.jpg","",""
"explore-choice","59","147976","0.0-59.0","p866277","AD1WGUMVD6KED","3RDTX9JRTZ7MP6YQMJD0Z3DG4HK978","3QBD8R3Z23PV0QI7CC3CI1JKRRLO4F","emotion","match","uniform","","","","","","","1348.5","149574.20000004768","150922.70000004768","[""stimuli/BM04_HE.jpg"",""stimuli/WF06_HO.jpg"",""stimuli/WM13_AO.jpg"",""stimuli/BF08_SUR.jpg""]","stimuli/BM04_HE.jpg","stimuli/WF06_HO.jpg","stimuli/WM13_AO.jpg","stimuli/BF08_SUR.jpg","pos3","stimuli/WM13_AO.jpg","AO","WM13","2","3.5","7","8","stimuli/stars_7.png","106.5","[""HE"",""HO"",""AO"",""SUR""]","[""BM04"",""WF06"",""WM13"",""BF08""]","[4,6,7,3]","[4,6,8,2]","","",""
"show-reward","60","149983","0.0-60.0","p866277","AD1WGUMVD6KED","3RDTX9JRTZ7MP6YQMJD0Z3DG4HK978","3QBD8R3Z23PV0QI7CC3CI1JKRRLO4F","emotion","match","uniform","","","","","","","","151435.79999995232","153442","","","","","","","","","","","","7","","stimuli/stars_7.png","106.5","","","","","stimuli/WM13_AO.jpg","",""
"explore-choice","61","152151","0.0-61.0","p866277","AD1WGUMVD6KED","3RDTX9JRTZ7MP6YQMJD0Z3DG4HK978","3QBD8R3Z23PV0QI7CC3CI1JKRRLO4F","emotion","match","uniform","","","","","","","1656.9000000953674","153443.79999995232","155100.70000004768","[""stimuli/BF08_SUR.jpg"",""stimuli/WF06_AO.jpg"",""stimuli/BM04_HE.jpg"",""stimuli/WM13_HO.jpg""]","stimuli/BF08_SUR.jpg","stimuli/WF06_AO.jpg","stimuli/BM04_HE.jpg","stimuli/WM13_HO.jpg","pos2","stimuli/WF06_AO.jpg","AO","WF06","1","5","10","8","stimuli/stars_10.png","111.5","[""SUR"",""AO"",""HE"",""HO""]","[""BF08"",""WF06"",""BM04"",""WM13""]","[4,10,4,4]","[2,8,4,6]","","",""
"show-reward","62","154159","0.0-62.0","p866277","AD1WGUMVD6KED","3RDTX9JRTZ7MP6YQMJD0Z3DG4HK978","3QBD8R3Z23PV0QI7CC3CI1JKRRLO4F","emotion","match","uniform","","","","","","","","155611.29999995232","157617.89999985695","","","","","","","","","","","","10","","stimuli/stars_10.png","111.5","","","","","stimuli/WF06_AO.jpg","",""
"explore-choice","63","155892","0.0-63.0","p866277","AD1WGUMVD6KED","3RDTX9JRTZ7MP6YQMJD0Z3DG4HK978","3QBD8R3Z23PV0QI7CC3CI1JKRRLO4F","emotion","match","uniform","","","","","","","1226.2999999523163","157618.5","158844.79999995232","[""stimuli/WF06_SUR.jpg"",""stimuli/WM13_HO.jpg"",""stimuli/BM04_AO.jpg"",""stimuli/BF08_HE.jpg""]","stimuli/WF06_SUR.jpg","stimuli/WM13_HO.jpg","stimuli/BM04_AO.jpg","stimuli/BF08_HE.jpg","pos3","stimuli/BM04_AO.jpg","AO","BM04","2","4","8","8","stimuli/stars_8.png","115.5","[""SUR"",""HO"",""AO"",""HE""]","[""WF06"",""WM13"",""BM04"",""BF08""]","[1,6,8,6]","[2,6,8,4]","","",""
"show-reward","64","157900","0.0-64.0","p866277","AD1WGUMVD6KED","3RDTX9JRTZ7MP6YQMJD0Z3DG4HK978","3QBD8R3Z23PV0QI7CC3CI1JKRRLO4F","emotion","match","uniform","","","","","","","","159351.70000004768","161358.79999995232","","","","","","","","","","","","8","","stimuli/stars_8.png","115.5","","","","","stimuli/BM04_AO.jpg","",""
"explore-choice","65","159824","0.0-65.0","p866277","AD1WGUMVD6KED","3RDTX9JRTZ7MP6YQMJD0Z3DG4HK978","3QBD8R3Z23PV0QI7CC3CI1JKRRLO4F","emotion","match","uniform","","","","","","","1413.3000001907349","161359.39999985695","162772.70000004768","[""stimuli/WF06_SUR.jpg"",""stimuli/BF08_HO.jpg"",""stimuli/WM13_AO.jpg"",""stimuli/BM04_HE.jpg""]","stimuli/WF06_SUR.jpg","stimuli/BF08_HO.jpg","stimuli/WM13_AO.jpg","stimuli/BM04_HE.jpg","pos3","stimuli/WM13_AO.jpg","AO","WM13","2","3","6","8","stimuli/stars_6.png","118.5","[""SUR"",""HO"",""AO"",""HE""]","[""WF06"",""BF08"",""WM13"",""BM04""]","[0,5,6,4]","[2,6,8,4]","","",""
"show-reward","66","161830","0.0-66.0","p866277","AD1WGUMVD6KED","3RDTX9JRTZ7MP6YQMJD0Z3DG4HK978","3QBD8R3Z23PV0QI7CC3CI1JKRRLO4F","emotion","match","uniform","","","","","","","","163283.70000004768","165289.29999995232","","","","","","","","","","","","6","","stimuli/stars_6.png","118.5","","","","","stimuli/WM13_AO.jpg","",""
"explore-choice","67","163918","0.0-67.0","p866277","AD1WGUMVD6KED","3RDTX9JRTZ7MP6YQMJD0Z3DG4HK978","3QBD8R3Z23PV0QI7CC3CI1JKRRLO4F","emotion","match","uniform","","","","","","","1582.0999999046326","165290","166872.09999990463","[""stimuli/BF08_AO.jpg"",""stimuli/BM04_SUR.jpg"",""stimuli/WF06_HO.jpg"",""stimuli/WM13_HE.jpg""]","stimuli/BF08_AO.jpg","stimuli/BM04_SUR.jpg","stimuli/WF06_HO.jpg","stimuli/WM13_HE.jpg","pos1","stimuli/BF08_AO.jpg","AO","BF08","0","3","6","8","stimuli/stars_6.png","121.5","[""AO"",""SUR"",""HO"",""HE""]","[""BF08"",""BM04"",""WF06"",""WM13""]","[6,2,8,6]","[8,2,6,4]","","",""
"show-reward","68","165936","0.0-68.0","p866277","AD1WGUMVD6KED","3RDTX9JRTZ7MP6YQMJD0Z3DG4HK978","3QBD8R3Z23PV0QI7CC3CI1JKRRLO4F","emotion","match","uniform","","","","","","","","167377.70000004768","169395.09999990463","","","","","","","","","","","","6","","stimuli/stars_6.png","121.5","","","","","stimuli/BF08_AO.jpg","",""
"explore-choice","69","167670","0.0-69.0","p866277","AD1WGUMVD6KED","3RDTX9JRTZ7MP6YQMJD0Z3DG4HK978","3QBD8R3Z23PV0QI7CC3CI1JKRRLO4F","emotion","match","uniform","","","","","","","1219.5","169396","170615.5","[""stimuli/WF06_AO.jpg"",""stimuli/BM04_SUR.jpg"",""stimuli/WM13_HO.jpg"",""stimuli/BF08_HE.jpg""]","stimuli/WF06_AO.jpg","stimuli/BM04_SUR.jpg","stimuli/WM13_HO.jpg","stimuli/BF08_HE.jpg","pos1","stimuli/WF06_AO.jpg","AO","WF06","0","4.5","9","8","stimuli/stars_9.png","126","[""AO"",""SUR"",""HO"",""HE""]","[""WF06"",""BM04"",""WM13"",""BF08""]","[9,0,6,3]","[8,2,6,4]","","",""
"show-reward","70","169679","0.0-70.0","p866277","AD1WGUMVD6KED","3RDTX9JRTZ7MP6YQMJD0Z3DG4HK978","3QBD8R3Z23PV0QI7CC3CI1JKRRLO4F","emotion","match","uniform","","","","","","","","171129.89999985695","173137.79999995232","","","","","","","","","","","","9","","stimuli/stars_9.png","126","","","","","stimuli/WF06_AO.jpg","",""
"explore-choice","71","171366","0.0-71.0","p866277","AD1WGUMVD6KED","3RDTX9JRTZ7MP6YQMJD0Z3DG4HK978","3QBD8R3Z23PV0QI7CC3CI1JKRRLO4F","emotion","match","uniform","","","","","","","1171.5","173138.59999990463","174310.09999990463","[""stimuli/BF08_HE.jpg"",""stimuli/WF06_HO.jpg"",""stimuli/BM04_SUR.jpg"",""stimuli/WM13_AO.jpg""]","stimuli/BF08_HE.jpg","stimuli/WF06_HO.jpg","stimuli/BM04_SUR.jpg","stimuli/WM13_AO.jpg","pos4","stimuli/WM13_AO.jpg","AO","WM13","3","5","10","8","stimuli/stars_10.png","131","[""HE"",""HO"",""SUR"",""AO""]","[""BF08"",""WF06"",""BM04"",""WM13""]","[3,6,1,10]","[4,6,2,8]","","",""
"show-reward","72","173377","0.0-72.0","p866277","AD1WGUMVD6KED","3RDTX9JRTZ7MP6YQMJD0Z3DG4HK978","3QBD8R3Z23PV0QI7CC3CI1JKRRLO4F","emotion","match","uniform","","","","","","","","174826","176836.20000004768","","","","","","","","","","","","10","","stimuli/stars_10.png","131","","","","","stimuli/WM13_AO.jpg","",""
"explore-choice","73","175240","0.0-73.0","p866277","AD1WGUMVD6KED","3RDTX9JRTZ7MP6YQMJD0Z3DG4HK978","3QBD8R3Z23PV0QI7CC3CI1JKRRLO4F","emotion","match","uniform","","","","","","","1357.6000001430511","176838.09999990463","178195.70000004768","[""stimuli/BM04_AO.jpg"",""stimuli/WM13_HE.jpg"",""stimuli/BF08_SUR.jpg"",""stimuli/WF06_HO.jpg""]","stimuli/BM04_AO.jpg","stimuli/WM13_HE.jpg","stimuli/BF08_SUR.jpg","stimuli/WF06_HO.jpg","pos3","stimuli/BF08_SUR.jpg","SUR","BF08","2","1","2","2","stimuli/stars_2.png","132","[""AO"",""HE"",""SUR"",""HO""]","[""BM04"",""WM13"",""BF08"",""WF06""]","[10,5,2,7]","[8,4,2,6]","","",""
"show-reward","74","177243","0.0-74.0","p866277","AD1WGUMVD6KED","3RDTX9JRTZ7MP6YQMJD0Z3DG4HK978","3QBD8R3Z23PV0QI7CC3CI1JKRRLO4F","emotion","match","uniform","","","","","","","","178700.59999990463","180701.79999995232","","","","","","","","","","","","2","","stimuli/stars_2.png","132","","","","","stimuli/BF08_SUR.jpg","",""
"explore-choice","75","178612","0.0-75.0","p866277","AD1WGUMVD6KED","3RDTX9JRTZ7MP6YQMJD0Z3DG4HK978","3QBD8R3Z23PV0QI7CC3CI1JKRRLO4F","emotion","match","uniform","","","","","","","866.1000001430511","180702.39999985695","181568.5","[""stimuli/BF08_AO.jpg"",""stimuli/BM04_HE.jpg"",""stimuli/WF06_HO.jpg"",""stimuli/WM13_SUR.jpg""]","stimuli/BF08_AO.jpg","stimuli/BM04_HE.jpg","stimuli/WF06_HO.jpg","stimuli/WM13_SUR.jpg","pos1","stimuli/BF08_AO.jpg","AO","BF08","0","3","6","8","stimuli/stars_6.png","135","[""AO"",""HE"",""HO"",""SUR""]","[""BF08"",""BM04"",""WF06"",""WM13""]","[6,6,8,1]","[8,4,6,2]","","",""
"show-reward","76","180616","0.0-76.0","p866277","AD1WGUMVD6KED","3RDTX9JRTZ7MP6YQMJD0Z3DG4HK978","3QBD8R3Z23PV0QI7CC3CI1JKRRLO4F","emotion","match","uniform","","","","","","","","182071.29999995232","184074.59999990463","","","","","","","","","","","","6","","stimuli/stars_6.png","135","","","","","stimuli/BF08_AO.jpg","",""
"explore-choice","77","182938","0.0-77.0","p866277","AD1WGUMVD6KED","3RDTX9JRTZ7MP6YQMJD0Z3DG4HK978","3QBD8R3Z23PV0QI7CC3CI1JKRRLO4F","emotion","match","uniform","","","","","","","1821.3000001907349","184075.39999985695","185896.70000004768","[""stimuli/WF06_SUR.jpg"",""stimuli/BF08_AO.jpg"",""stimuli/BM04_HO.jpg"",""stimuli/WM13_HE.jpg""]","stimuli/WF06_SUR.jpg","stimuli/BF08_AO.jpg","stimuli/BM04_HO.jpg","stimuli/WM13_HE.jpg","pos2","stimuli/BF08_AO.jpg","AO","BF08","1","3","6","8","stimuli/stars_6.png","138","[""SUR"",""AO"",""HO"",""HE""]","[""WF06"",""BF08"",""BM04"",""WM13""]","[2,6,4,3]","[2,8,6,4]","","",""
"show-reward","78","184951","0.0-78.0","p866277","AD1WGUMVD6KED","3RDTX9JRTZ7MP6YQMJD0Z3DG4HK978","3QBD8R3Z23PV0QI7CC3CI1JKRRLO4F","emotion","match","uniform","","","","","","","","186397.89999985695","188409.89999985695","","","","","","","","","","","","6","","stimuli/stars_6.png","138","","","","","stimuli/BF08_AO.jpg","",""
"explore-choice","79","186916","0.0-79.0","p866277","AD1WGUMVD6KED","3RDTX9JRTZ7MP6YQMJD0Z3DG4HK978","3QBD8R3Z23PV0QI7CC3CI1JKRRLO4F","emotion","match","uniform","","","","","","","1457.3999998569489","188410.5","189867.89999985695","[""stimuli/BF08_HO.jpg"",""stimuli/WF06_SUR.jpg"",""stimuli/BM04_AO.jpg"",""stimuli/WM13_HE.jpg""]","stimuli/BF08_HO.jpg","stimuli/WF06_SUR.jpg","stimuli/BM04_AO.jpg","stimuli/WM13_HE.jpg","pos3","stimuli/BM04_AO.jpg","AO","BM04","2","4","8","8","stimuli/stars_8.png","142","[""HO"",""SUR"",""AO"",""HE""]","[""BF08"",""WF06"",""BM04"",""WM13""]","[5,0,8,6]","[6,2,8,4]","","",""
"show-reward","80","188929","0.0-80.0","p866277","AD1WGUMVD6KED","3RDTX9JRTZ7MP6YQMJD0Z3DG4HK978","3QBD8R3Z23PV0QI7CC3CI1JKRRLO4F","emotion","match","uniform","","","","","","","","190375.70000004768","192388","","","","","","","","","","","","8","","stimuli/stars_8.png","142","","","","","stimuli/BM04_AO.jpg","",""
"explore-choice","81","191430","0.0-81.0","p866277","AD1WGUMVD6KED","3RDTX9JRTZ7MP6YQMJD0Z3DG4HK978","3QBD8R3Z23PV0QI7CC3CI1JKRRLO4F","emotion","match","uniform","","","","","","","1998.0999999046326","192388.70000004768","194386.79999995232","[""stimuli/BF08_HO.jpg"",""stimuli/BM04_AO.jpg"",""stimuli/WM13_SUR.jpg"",""stimuli/WF06_HE.jpg""]","stimuli/BF08_HO.jpg","stimuli/BM04_AO.jpg","stimuli/WM13_SUR.jpg","stimuli/WF06_HE.jpg","pos2","stimuli/BM04_AO.jpg","AO","BM04","1","4","8","8","stimuli/stars_8.png","146","[""HO"",""AO"",""SUR"",""HE""]","[""BF08"",""BM04"",""WM13"",""WF06""]","[8,8,4,4]","[6,8,2,4]","","",""
"show-reward","82","193445","0.0-82.0","p866277","AD1WGUMVD6KED","3RDTX9JRTZ7MP6YQMJD0Z3DG4HK978","3QBD8R3Z23PV0QI7CC3CI1JKRRLO4F","emotion","match","uniform","","","","","","","","194889.20000004768","196904.20000004768","","","","","","","","","","","","8","","stimuli/stars_8.png","146","","","","","stimuli/BM04_AO.jpg","",""
"explore-choice","83","195883","0.0-83.0","p866277","AD1WGUMVD6KED","3RDTX9JRTZ7MP6YQMJD0Z3DG4HK978","3QBD8R3Z23PV0QI7CC3CI1JKRRLO4F","emotion","match","uniform","","","","","","","1924","196905","198829","[""stimuli/WM13_HO.jpg"",""stimuli/BM04_SUR.jpg"",""stimuli/BF08_AO.jpg"",""stimuli/WF06_HE.jpg""]","stimuli/WM13_HO.jpg","stimuli/BM04_SUR.jpg","stimuli/BF08_AO.jpg","stimuli/WF06_HE.jpg","pos3","stimuli/BF08_AO.jpg","AO","BF08","2","5","10","8","stimuli/stars_10.png","151","[""HO"",""SUR"",""AO"",""HE""]","[""WM13"",""BM04"",""BF08"",""WF06""]","[4,3,10,6]","[6,2,8,4]","","",""
"show-reward","84","197886","0.0-84.0","p866277","AD1WGUMVD6KED","3RDTX9JRTZ7MP6YQMJD0Z3DG4HK978","3QBD8R3Z23PV0QI7CC3CI1JKRRLO4F","emotion","match","uniform","","","","","","","","199342.29999995232","201345.39999985695","","","","","","","","","","","","10","","stimuli/stars_10.png","151","","","","","stimuli/BF08_AO.jpg","",""
"explore-choice","85","201146","0.0-85.0","p866277","AD1WGUMVD6KED","3RDTX9JRTZ7MP6YQMJD0Z3DG4HK978","3QBD8R3Z23PV0QI7CC3CI1JKRRLO4F","emotion","match","uniform","","","","","","","2756.699999809265","201346.20000004768","204102.89999985695","[""stimuli/WF06_HE.jpg"",""stimuli/WM13_HO.jpg"",""stimuli/BM04_AO.jpg"",""stimuli/BF08_SUR.jpg""]","stimuli/WF06_HE.jpg","stimuli/WM13_HO.jpg","stimuli/BM04_AO.jpg","stimuli/BF08_SUR.jpg","pos3","stimuli/BM04_AO.jpg","AO","BM04","2","5","10","8","stimuli/stars_10.png","156","[""HE"",""HO"",""AO"",""SUR""]","[""WF06"",""WM13"",""BM04"",""BF08""]","[3,5,10,2]","[4,6,8,2]","","",""
"show-reward","86","203149","0.0-86.0","p866277","AD1WGUMVD6KED","3RDTX9JRTZ7MP6YQMJD0Z3DG4HK978","3QBD8R3Z23PV0QI7CC3CI1JKRRLO4F","emotion","match","uniform","","","","","","","","204606.29999995232","206608","","","","","","","","","","","","10","","stimuli/stars_10.png","156","","","","","stimuli/BM04_AO.jpg","",""
"explore-choice","87","204568","0.0-87.0","p866277","AD1WGUMVD6KED","3RDTX9JRTZ7MP6YQMJD0Z3DG4HK978","3QBD8R3Z23PV0QI7CC3CI1JKRRLO4F","emotion","match","uniform","","","","","","","903.4000000953674","206608.59999990463","207512","[""stimuli/WM13_AO.jpg"",""stimuli/WF06_SUR.jpg"",""stimuli/BM04_HO.jpg"",""stimuli/BF08_HE.jpg""]","stimuli/WM13_AO.jpg","stimuli/WF06_SUR.jpg","stimuli/BM04_HO.jpg","stimuli/BF08_HE.jpg","pos1","stimuli/WM13_AO.jpg","AO","WM13","0","5","10","8","stimuli/stars_10.png","161","[""AO"",""SUR"",""HO"",""HE""]","[""WM13"",""WF06"",""BM04"",""BF08""]","[10,0,4,4]","[8,2,6,4]","","",""
"show-reward","88","206581","0.0-88.0","p866277","AD1WGUMVD6KED","3RDTX9JRTZ7MP6YQMJD0Z3DG4HK978","3QBD8R3Z23PV0QI7CC3CI1JKRRLO4F","emotion","match","uniform","","","","","","","","208027.70000004768","210039.79999995232","","","","","","","","","","","","10","","stimuli/stars_10.png","161","","","","","stimuli/WM13_AO.jpg","",""
"explore-choice","89","208563","0.0-89.0","p866277","AD1WGUMVD6KED","3RDTX9JRTZ7MP6YQMJD0Z3DG4HK978","3QBD8R3Z23PV0QI7CC3CI1JKRRLO4F","emotion","match","uniform","","","","","","","1480.3999998569489","210040.70000004768","211521.09999990463","[""stimuli/BM04_AO.jpg"",""stimuli/WF06_HO.jpg"",""stimuli/BF08_HE.jpg"",""stimuli/WM13_SUR.jpg""]","stimuli/BM04_AO.jpg","stimuli/WF06_HO.jpg","stimuli/BF08_HE.jpg","stimuli/WM13_SUR.jpg","pos1","stimuli/BM04_AO.jpg","AO","BM04","0","4.5","9","8","stimuli/stars_9.png","165.5","[""AO"",""HO"",""HE"",""SUR""]","[""BM04"",""WF06"",""BF08"",""WM13""]","[9,5,4,1]","[8,6,4,2]","","",""
"show-reward","90","210572","0.0-90.0","p866277","AD1WGUMVD6KED","3RDTX9JRTZ7MP6YQMJD0Z3DG4HK978","3QBD8R3Z23PV0QI7CC3CI1JKRRLO4F","emotion","match","uniform","","","","","","","","212022.89999985695","214031","","","","","","","","","","","","9","","stimuli/stars_9.png","165.5","","","","","stimuli/BM04_AO.jpg","",""
"explore-choice","91","213871","0.0-91.0","p866277","AD1WGUMVD6KED","3RDTX9JRTZ7MP6YQMJD0Z3DG4HK978","3QBD8R3Z23PV0QI7CC3CI1JKRRLO4F","emotion","match","uniform","","","","","","","2795.5999999046326","214031.70000004768","216827.29999995232","[""stimuli/WF06_AO.jpg"",""stimuli/WM13_SUR.jpg"",""stimuli/BF08_HO.jpg"",""stimuli/BM04_HE.jpg""]","stimuli/WF06_AO.jpg","stimuli/WM13_SUR.jpg","stimuli/BF08_HO.jpg","stimuli/BM04_HE.jpg","pos1","stimuli/WF06_AO.jpg","AO","WF06","0","3.5","7","8","stimuli/stars_7.png","169","[""AO"",""SUR"",""HO"",""HE""]","[""WF06"",""WM13"",""BF08"",""BM04""]","[7,3,8,3]","[8,2,6,4]","","",""
"show-reward","92","215879","0.0-92.0","p866277","AD1WGUMVD6KED","3RDTX9JRTZ7MP6YQMJD0Z3DG4HK978","3QBD8R3Z23PV0QI7CC3CI1JKRRLO4F","emotion","match","uniform","","","","","","","","217330.89999985695","219337.89999985695","","","","","","","","","","","","7","","stimuli/stars_7.png","169","","","","","stimuli/WF06_AO.jpg","",""
"explore-choice","93","223377","0.0-93.0","p866277","AD1WGUMVD6KED","3RDTX9JRTZ7MP6YQMJD0Z3DG4HK978","3QBD8R3Z23PV0QI7CC3CI1JKRRLO4F","emotion","match","uniform","","","","","","","6982.299999952316","219338.59999990463","226320.89999985695","[""stimuli/WM13_HE.jpg"",""stimuli/BM04_HO.jpg"",""stimuli/BF08_SUR.jpg"",""stimuli/WF06_AO.jpg""]","stimuli/WM13_HE.jpg","stimuli/BM04_HO.jpg","stimuli/BF08_SUR.jpg","stimuli/WF06_AO.jpg","pos4","stimuli/WF06_AO.jpg","AO","WF06","3","5","10","8","stimuli/stars_10.png","174","[""HE"",""HO"",""SUR"",""AO""]","[""WM13"",""BM04"",""BF08"",""WF06""]","[3,8,4,10]","[4,6,2,8]","","",""
"show-reward","94","225379","0.0-94.0","p866277","AD1WGUMVD6KED","3RDTX9JRTZ7MP6YQMJD0Z3DG4HK978","3QBD8R3Z23PV0QI7CC3CI1JKRRLO4F","emotion","match","uniform","","","","","","","","226837.09999990463","228838.39999985695","","","","","","","","","","","","10","","stimuli/stars_10.png","174","","","","","stimuli/WF06_AO.jpg","",""
"explore-choice","95","227337","0.0-95.0","p866277","AD1WGUMVD6KED","3RDTX9JRTZ7MP6YQMJD0Z3DG4HK978","3QBD8R3Z23PV0QI7CC3CI1JKRRLO4F","emotion","match","uniform","","","","","","","1446.6000001430511","228839.09999990463","230285.70000004768","[""stimuli/WM13_SUR.jpg"",""stimuli/WF06_AO.jpg"",""stimuli/BM04_HO.jpg"",""stimuli/BF08_HE.jpg""]","stimuli/WM13_SUR.jpg","stimuli/WF06_AO.jpg","stimuli/BM04_HO.jpg","stimuli/BF08_HE.jpg","pos2","stimuli/WF06_AO.jpg","AO","WF06","1","3","6","8","stimuli/stars_6.png","177","[""SUR"",""AO"",""HO"",""HE""]","[""WM13"",""WF06"",""BM04"",""BF08""]","[0,6,5,2]","[2,8,6,4]","","",""
"show-reward","96","229354","0.0-96.0","p866277","AD1WGUMVD6KED","3RDTX9JRTZ7MP6YQMJD0Z3DG4HK978","3QBD8R3Z23PV0QI7CC3CI1JKRRLO4F","emotion","match","uniform","","","","","","","","230797.20000004768","232812.79999995232","","","","","","","","","","","","6","","stimuli/stars_6.png","177","","","","","stimuli/WF06_AO.jpg","",""
"explore-choice","97","231022","0.0-97.0","p866277","AD1WGUMVD6KED","3RDTX9JRTZ7MP6YQMJD0Z3DG4HK978","3QBD8R3Z23PV0QI7CC3CI1JKRRLO4F","emotion","match","uniform","","","","","","","1152.7000000476837","232813.5","233966.20000004768","[""stimuli/BM04_SUR.jpg"",""stimuli/BF08_HO.jpg"",""stimuli/WM13_AO.jpg"",""stimuli/WF06_HE.jpg""]","stimuli/BM04_SUR.jpg","stimuli/BF08_HO.jpg","stimuli/WM13_AO.jpg","stimuli/WF06_HE.jpg","pos3","stimuli/WM13_AO.jpg","AO","WM13","2","3.5","7","8","stimuli/stars_7.png","180.5","[""SUR"",""HO"",""AO"",""HE""]","[""BM04"",""BF08"",""WM13"",""WF06""]","[4,5,7,3]","[2,6,8,4]","","",""
"show-reward","98","233035","0.0-98.0","p866277","AD1WGUMVD6KED","3RDTX9JRTZ7MP6YQMJD0Z3DG4HK978","3QBD8R3Z23PV0QI7CC3CI1JKRRLO4F","emotion","match","uniform","","","","","","","","234482.59999990463","236494.39999985695","","","","","","","","","","","","7","","stimuli/stars_7.png","180.5","","","","","stimuli/WM13_AO.jpg","",""
"explore-choice","99","234321","0.0-99.0","p866277","AD1WGUMVD6KED","3RDTX9JRTZ7MP6YQMJD0Z3DG4HK978","3QBD8R3Z23PV0QI7CC3CI1JKRRLO4F","emotion","match","uniform","","","","","","","777","236495.89999985695","237272.89999985695","[""stimuli/BF08_AO.jpg"",""stimuli/BM04_HE.jpg"",""stimuli/WM13_HO.jpg"",""stimuli/WF06_SUR.jpg""]","stimuli/BF08_AO.jpg","stimuli/BM04_HE.jpg","stimuli/WM13_HO.jpg","stimuli/WF06_SUR.jpg","pos1","stimuli/BF08_AO.jpg","AO","BF08","0","4","8","8","stimuli/stars_8.png","184.5","[""AO"",""HE"",""HO"",""SUR""]","[""BF08"",""BM04"",""WM13"",""WF06""]","[8,4,6,1]","[8,4,6,2]","","",""
"show-reward","100","236341","0.0-100.0","p866277","AD1WGUMVD6KED","3RDTX9JRTZ7MP6YQMJD0Z3DG4HK978","3QBD8R3Z23PV0QI7CC3CI1JKRRLO4F","emotion","match","uniform","","","","","","","","237781.70000004768","239800.09999990463","","","","","","","","","","","","8","","stimuli/stars_8.png","184.5","","","","","stimuli/BF08_AO.jpg","",""
"explore-choice","101","237633","0.0-101.0","p866277","AD1WGUMVD6KED","3RDTX9JRTZ7MP6YQMJD0Z3DG4HK978","3QBD8R3Z23PV0QI7CC3CI1JKRRLO4F","emotion","match","uniform","","","","","","","777","239801.79999995232","240578.79999995232","[""stimuli/WF06_AO.jpg"",""stimuli/BF08_HO.jpg"",""stimuli/WM13_HE.jpg"",""stimuli/BM04_SUR.jpg""]","stimuli/WF06_AO.jpg","stimuli/BF08_HO.jpg","stimuli/WM13_HE.jpg","stimuli/BM04_SUR.jpg","pos1","stimuli/WF06_AO.jpg","AO","WF06","0","5","10","8","stimuli/stars_10.png","189.5","[""AO"",""HO"",""HE"",""SUR""]","[""WF06"",""BF08"",""WM13"",""BM04""]","[10,6,4,4]","[8,6,4,2]","","",""
"show-reward","102","239648","0.0-102.0","p866277","AD1WGUMVD6KED","3RDTX9JRTZ7MP6YQMJD0Z3DG4HK978","3QBD8R3Z23PV0QI7CC3CI1JKRRLO4F","emotion","match","uniform","","","","","","","","241093","243107.29999995232","","","","","","","","","","","","10","","stimuli/stars_10.png","189.5","","","","","stimuli/WF06_AO.jpg","",""
"explore-choice","103","242753","0.0-103.0","p866277","AD1WGUMVD6KED","3RDTX9JRTZ7MP6YQMJD0Z3DG4HK978","3QBD8R3Z23PV0QI7CC3CI1JKRRLO4F","emotion","match","uniform","","","","","","","2603.0999999046326","243108","245711.09999990463","[""stimuli/AM09_CC.jpg"",""stimuli/HF10_FO.jpg"",""stimuli/BM03_DO.jpg"",""stimuli/HM02_SC.jpg""]","stimuli/AM09_CC.jpg","stimuli/HF10_FO.jpg","stimuli/BM03_DO.jpg","stimuli/HM02_SC.jpg","pos2","stimuli/HF10_FO.jpg","FO","HF10","1","3.5","7","8","stimuli/stars_7.png","193","[""CC"",""FO"",""DO"",""SC""]","[""AM09"",""HF10"",""BM03"",""HM02""]","[2,7,2,8]","[2,8,4,6]","","",""
"show-reward","104","244756","0.0-104.0","p866277","AD1WGUMVD6KED","3RDTX9JRTZ7MP6YQMJD0Z3DG4HK978","3QBD8R3Z23PV0QI7CC3CI1JKRRLO4F","emotion","match","uniform","","","","","","","","246212.89999985695","248215.39999985695","","","","","","","","","","","","7","","stimuli/stars_7.png","193","","","","","stimuli/HF10_FO.jpg","",""
"explore-choice","105","248460","0.0-105.0","p866277","AD1WGUMVD6KED","3RDTX9JRTZ7MP6YQMJD0Z3DG4HK978","3QBD8R3Z23PV0QI7CC3CI1JKRRLO4F","emotion","match","uniform","","","","","","","3194.100000143051","248217.09999990463","251411.20000004768","[""stimuli/BM03_CC.jpg"",""stimuli/AM09_FO.jpg"",""stimuli/HF10_SC.jpg"",""stimuli/HM02_DO.jpg""]","stimuli/BM03_CC.jpg","stimuli/AM09_FO.jpg","stimuli/HF10_SC.jpg","stimuli/HM02_DO.jpg","pos3","stimuli/HF10_SC.jpg","SC","HF10","2","2","4","6","stimuli/stars_4.png","195","[""CC"",""FO"",""SC"",""DO""]","[""BM03"",""AM09"",""HF10"",""HM02""]","[4,7,4,6]","[2,8,6,4]","","",""
"show-reward","106","250462","0.0-106.0","p866277","AD1WGUMVD6KED","3RDTX9JRTZ7MP6YQMJD0Z3DG4HK978","3QBD8R3Z23PV0QI7CC3CI1JKRRLO4F","emotion","match","uniform","","","","","","","","251919.89999985695","253921.70000004768","","","","","","","","","","","","4","","stimuli/stars_4.png","195","","","","","stimuli/HF10_SC.jpg","",""
"explore-choice","107","253335","0.0-107.0","p866277","AD1WGUMVD6KED","3RDTX9JRTZ7MP6YQMJD0Z3DG4HK978","3QBD8R3Z23PV0QI7CC3CI1JKRRLO4F","emotion","match","uniform","","","","","","","2364.399999856949","253922.20000004768","256286.59999990463","[""stimuli/HM02_SC.jpg"",""stimuli/AM09_CC.jpg"",""stimuli/BM03_FO.jpg"",""stimuli/HF10_DO.jpg""]","stimuli/HM02_SC.jpg","stimuli/AM09_CC.jpg","stimuli/BM03_FO.jpg","stimuli/HF10_DO.jpg","pos3","stimuli/BM03_FO.jpg","FO","BM03","2","3.5","7","8","stimuli/stars_7.png","198.5","[""SC"",""CC"",""FO"",""DO""]","[""HM02"",""AM09"",""BM03"",""HF10""]","[4,2,7,3]","[6,2,8,4]","","",""
"show-reward","108","255349","0.0-108.0","p866277","AD1WGUMVD6KED","3RDTX9JRTZ7MP6YQMJD0Z3DG4HK978","3QBD8R3Z23PV0QI7CC3CI1JKRRLO4F","emotion","match","uniform","","","","","","","","256794.79999995232","258807.70000004768","","","","","","","","","","","","7","","stimuli/stars_7.png","198.5","","","","","stimuli/BM03_FO.jpg","",""
"explore-choice","109","258632","0.0-109.0","p866277","AD1WGUMVD6KED","3RDTX9JRTZ7MP6YQMJD0Z3DG4HK978","3QBD8R3Z23PV0QI7CC3CI1JKRRLO4F","emotion","match","uniform","","","","","","","2778.899999856949","258808.5","261587.39999985695","[""stimuli/HM02_SC.jpg"",""stimuli/AM09_FO.jpg"",""stimuli/BM03_DO.jpg"",""stimuli/HF10_CC.jpg""]","stimuli/HM02_SC.jpg","stimuli/AM09_FO.jpg","stimuli/BM03_DO.jpg","stimuli/HF10_CC.jpg","pos2","stimuli/AM09_FO.jpg","FO","AM09","1","4.5","9","8","stimuli/stars_9.png","203","[""SC"",""FO"",""DO"",""CC""]","[""HM02"",""AM09"",""BM03"",""HF10""]","[7,9,6,2]","[6,8,4,2]","","",""
"show-reward","110","260650","0.0-110.0","p866277","AD1WGUMVD6KED","3RDTX9JRTZ7MP6YQMJD0Z3DG4HK978","3QBD8R3Z23PV0QI7CC3CI1JKRRLO4F","emotion","match","uniform","","","","","","","","262092.29999995232","264108.89999985695","","","","","","","","","","","","9","","stimuli/stars_9.png","203","","","","","stimuli/AM09_FO.jpg","",""
"explore-choice","111","262394","0.0-111.0","p866277","AD1WGUMVD6KED","3RDTX9JRTZ7MP6YQMJD0Z3DG4HK978","3QBD8R3Z23PV0QI7CC3CI1JKRRLO4F","emotion","match","uniform","","","","","","","1236.5999999046326","264109.5","265346.09999990463","[""stimuli/AM09_CC.jpg"",""stimuli/HF10_SC.jpg"",""stimuli/BM03_DO.jpg"",""stimuli/HM02_FO.jpg""]","stimuli/AM09_CC.jpg","stimuli/HF10_SC.jpg","stimuli/BM03_DO.jpg","stimuli/HM02_FO.jpg","pos4","stimuli/HM02_FO.jpg","FO","HM02","3","4.5","9","8","stimuli/stars_9.png","207.5","[""CC"",""SC"",""DO"",""FO""]","[""AM09"",""HF10"",""BM03"",""HM02""]","[4,6,5,9]","[2,6,4,8]","","",""
"show-reward","112","264400","0.0-112.0","p866277","AD1WGUMVD6KED","3RDTX9JRTZ7MP6YQMJD0Z3DG4HK978","3QBD8R3Z23PV0QI7CC3CI1JKRRLO4F","emotion","match","uniform","","","","","","","","265853.59999990463","267858.89999985695","","","","","","","","","","","","9","","stimuli/stars_9.png","207.5","","","","","stimuli/HM02_FO.jpg","",""
"explore-choice","113","266554","0.0-113.0","p866277","AD1WGUMVD6KED","3RDTX9JRTZ7MP6YQMJD0Z3DG4HK978","3QBD8R3Z23PV0QI7CC3CI1JKRRLO4F","emotion","match","uniform","","","","","","","1644.9000000953674","267860.39999985695","269505.2999999523","[""stimuli/BM03_CC.jpg"",""stimuli/HF10_DO.jpg"",""stimuli/HM02_SC.jpg"",""stimuli/AM09_FO.jpg""]","stimuli/BM03_CC.jpg","stimuli/HF10_DO.jpg","stimuli/HM02_SC.jpg","stimuli/AM09_FO.jpg","pos4","stimuli/AM09_FO.jpg","FO","AM09","3","3.5","7","8","stimuli/stars_7.png","211","[""CC"",""DO"",""SC"",""FO""]","[""BM03"",""HF10"",""HM02"",""AM09""]","[1,6,8,7]","[2,4,6,8]","","",""
"show-reward","114","268559","0.0-114.0","p866277","AD1WGUMVD6KED","3RDTX9JRTZ7MP6YQMJD0Z3DG4HK978","3QBD8R3Z23PV0QI7CC3CI1JKRRLO4F","emotion","match","uniform","","","","","","","","270014.2999999523","272018.5","","","","","","","","","","","","7","","stimuli/stars_7.png","211","","","","","stimuli/AM09_FO.jpg","",""
"explore-choice","115","270217","0.0-115.0","p866277","AD1WGUMVD6KED","3RDTX9JRTZ7MP6YQMJD0Z3DG4HK978","3QBD8R3Z23PV0QI7CC3CI1JKRRLO4F","emotion","match","uniform","","","","","","","1151.9000000953674","272019.09999990463","273171","[""stimuli/HF10_DO.jpg"",""stimuli/BM03_CC.jpg"",""stimuli/AM09_SC.jpg"",""stimuli/HM02_FO.jpg""]","stimuli/HF10_DO.jpg","stimuli/BM03_CC.jpg","stimuli/AM09_SC.jpg","stimuli/HM02_FO.jpg","pos4","stimuli/HM02_FO.jpg","FO","HM02","3","3.5","7","8","stimuli/stars_7.png","214.5","[""DO"",""CC"",""SC"",""FO""]","[""HF10"",""BM03"",""AM09"",""HM02""]","[4,2,4,7]","[4,2,6,8]","","",""
"show-reward","116","272229","0.0-116.0","p866277","AD1WGUMVD6KED","3RDTX9JRTZ7MP6YQMJD0Z3DG4HK978","3QBD8R3Z23PV0QI7CC3CI1JKRRLO4F","emotion","match","uniform","","","","","","","","273677.7000000477","275688","","","","","","","","","","","","7","","stimuli/stars_7.png","214.5","","","","","stimuli/HM02_FO.jpg","",""
"explore-choice","117","274173","0.0-117.0","p866277","AD1WGUMVD6KED","3RDTX9JRTZ7MP6YQMJD0Z3DG4HK978","3QBD8R3Z23PV0QI7CC3CI1JKRRLO4F","emotion","match","uniform","","","","","","","1427.2999999523163","275689.59999990463","277116.89999985695","[""stimuli/HF10_SC.jpg"",""stimuli/BM03_FO.jpg"",""stimuli/AM09_CC.jpg"",""stimuli/HM02_DO.jpg""]","stimuli/HF10_SC.jpg","stimuli/BM03_FO.jpg","stimuli/AM09_CC.jpg","stimuli/HM02_DO.jpg","pos2","stimuli/BM03_FO.jpg","FO","BM03","1","3.5","7","8","stimuli/stars_7.png","218","[""SC"",""FO"",""CC"",""DO""]","[""HF10"",""BM03"",""AM09"",""HM02""]","[6,7,1,3]","[6,8,2,4]","","",""
"show-reward","118","276191","0.0-118.0","p866277","AD1WGUMVD6KED","3RDTX9JRTZ7MP6YQMJD0Z3DG4HK978","3QBD8R3Z23PV0QI7CC3CI1JKRRLO4F","emotion","match","uniform","","","","","","","","277633.59999990463","279649.89999985695","","","","","","","","","","","","7","","stimuli/stars_7.png","218","","","","","stimuli/BM03_FO.jpg","",""
"explore-choice","119","278699","0.0-119.0","p866277","AD1WGUMVD6KED","3RDTX9JRTZ7MP6YQMJD0Z3DG4HK978","3QBD8R3Z23PV0QI7CC3CI1JKRRLO4F","emotion","match","uniform","","","","","","","2005","279651.39999985695","281656.39999985695","[""stimuli/HF10_FO.jpg"",""stimuli/AM09_DO.jpg"",""stimuli/HM02_CC.jpg"",""stimuli/BM03_SC.jpg""]","stimuli/HF10_FO.jpg","stimuli/AM09_DO.jpg","stimuli/HM02_CC.jpg","stimuli/BM03_SC.jpg","pos1","stimuli/HF10_FO.jpg","FO","HF10","0","4.5","9","8","stimuli/stars_9.png","222.5","[""FO"",""DO"",""CC"",""SC""]","[""HF10"",""AM09"",""HM02"",""BM03""]","[9,4,4,4]","[8,4,2,6]","","",""
"show-reward","120","280702","0.0-120.0","p866277","AD1WGUMVD6KED","3RDTX9JRTZ7MP6YQMJD0Z3DG4HK978","3QBD8R3Z23PV0QI7CC3CI1JKRRLO4F","emotion","match","uniform","","","","","","","","282159.2000000477","284161","","","","","","","","","","","","9","","stimuli/stars_9.png","222.5","","","","","stimuli/HF10_FO.jpg","",""
"explore-choice","121","282680","0.0-121.0","p866277","AD1WGUMVD6KED","3RDTX9JRTZ7MP6YQMJD0Z3DG4HK978","3QBD8R3Z23PV0QI7CC3CI1JKRRLO4F","emotion","match","uniform","","","","","","","1471.2000000476837","284163","285634.2000000477","[""stimuli/HF10_SC.jpg"",""stimuli/BM03_DO.jpg"",""stimuli/AM09_FO.jpg"",""stimuli/HM02_CC.jpg""]","stimuli/HF10_SC.jpg","stimuli/BM03_DO.jpg","stimuli/AM09_FO.jpg","stimuli/HM02_CC.jpg","pos3","stimuli/AM09_FO.jpg","FO","AM09","2","4.5","9","8","stimuli/stars_9.png","227","[""SC"",""DO"",""FO"",""CC""]","[""HF10"",""BM03"",""AM09"",""HM02""]","[8,6,9,4]","[6,4,8,2]","","",""
"show-reward","122","284688","0.0-122.0","p866277","AD1WGUMVD6KED","3RDTX9JRTZ7MP6YQMJD0Z3DG4HK978","3QBD8R3Z23PV0QI7CC3CI1JKRRLO4F","emotion","match","uniform","","","","","","","","286140.39999985695","288147.59999990463","","","","","","","","","","","","9","","stimuli/stars_9.png","227","","","","","stimuli/AM09_FO.jpg","",""
"explore-choice","123","286560","0.0-123.0","p866277","AD1WGUMVD6KED","3RDTX9JRTZ7MP6YQMJD0Z3DG4HK978","3QBD8R3Z23PV0QI7CC3CI1JKRRLO4F","emotion","match","uniform","","","","","","","1358.2999999523163","288148.2999999523","289506.59999990463","[""stimuli/HF10_SC.jpg"",""stimuli/AM09_DO.jpg"",""stimuli/HM02_FO.jpg"",""stimuli/BM03_CC.jpg""]","stimuli/HF10_SC.jpg","stimuli/AM09_DO.jpg","stimuli/HM02_FO.jpg","stimuli/BM03_CC.jpg","pos3","stimuli/HM02_FO.jpg","FO","HM02","2","3.5","7","8","stimuli/stars_7.png","230.5","[""SC"",""DO"",""FO"",""CC""]","[""HF10"",""AM09"",""HM02"",""BM03""]","[4,6,7,0]","[6,4,8,2]","","",""
"show-reward","124","288576","0.0-124.0","p866277","AD1WGUMVD6KED","3RDTX9JRTZ7MP6YQMJD0Z3DG4HK978","3QBD8R3Z23PV0QI7CC3CI1JKRRLO4F","emotion","match","uniform","","","","","","","","290020.39999985695","292034.59999990463","","","","","","","","","","","","7","","stimuli/stars_7.png","230.5","","","","","stimuli/HM02_FO.jpg","",""
"explore-choice","125","290313","0.0-125.0","p866277","AD1WGUMVD6KED","3RDTX9JRTZ7MP6YQMJD0Z3DG4HK978","3QBD8R3Z23PV0QI7CC3CI1JKRRLO4F","emotion","match","uniform","","","","","","","1236.1999998092651","292035.2000000477","293271.39999985695","[""stimuli/HM02_FO.jpg"",""stimuli/AM09_CC.jpg"",""stimuli/HF10_DO.jpg"",""stimuli/BM03_SC.jpg""]","stimuli/HM02_FO.jpg","stimuli/AM09_CC.jpg","stimuli/HF10_DO.jpg","stimuli/BM03_SC.jpg","pos1","stimuli/HM02_FO.jpg","FO","HM02","0","3.5","7","8","stimuli/stars_7.png","234","[""FO"",""CC"",""DO"",""SC""]","[""HM02"",""AM09"",""HF10"",""BM03""]","[7,2,2,8]","[8,2,4,6]","","",""
"show-reward","126","292318","0.0-126.0","p866277","AD1WGUMVD6KED","3RDTX9JRTZ7MP6YQMJD0Z3DG4HK978","3QBD8R3Z23PV0QI7CC3CI1JKRRLO4F","emotion","match","uniform","","","","","","","","293773","295777.2000000477","","","","","","","","","","","","7","","stimuli/stars_7.png","234","","","","","stimuli/HM02_FO.jpg","",""
"explore-choice","127","293744","0.0-127.0","p866277","AD1WGUMVD6KED","3RDTX9JRTZ7MP6YQMJD0Z3DG4HK978","3QBD8R3Z23PV0QI7CC3CI1JKRRLO4F","emotion","match","uniform","","","","","","","916.2000000476837","295777.89999985695","296694.09999990463","[""stimuli/BM03_SC.jpg"",""stimuli/AM09_DO.jpg"",""stimuli/HF10_CC.jpg"",""stimuli/HM02_FO.jpg""]","stimuli/BM03_SC.jpg","stimuli/AM09_DO.jpg","stimuli/HF10_CC.jpg","stimuli/HM02_FO.jpg","pos4","stimuli/HM02_FO.jpg","FO","HM02","3","3.5","7","8","stimuli/stars_7.png","237.5","[""SC"",""DO"",""CC"",""FO""]","[""BM03"",""AM09"",""HF10"",""HM02""]","[6,5,1,7]","[6,4,2,8]","","",""
"show-reward","128","295759","0.0-128.0","p866277","AD1WGUMVD6KED","3RDTX9JRTZ7MP6YQMJD0Z3DG4HK978","3QBD8R3Z23PV0QI7CC3CI1JKRRLO4F","emotion","match","uniform","","","","","","","","297204.2999999523","299217.7999999523","","","","","","","","","","","","7","","stimuli/stars_7.png","237.5","","","","","stimuli/HM02_FO.jpg","",""
"explore-choice","129","298351","0.0-129.0","p866277","AD1WGUMVD6KED","3RDTX9JRTZ7MP6YQMJD0Z3DG4HK978","3QBD8R3Z23PV0QI7CC3CI1JKRRLO4F","emotion","match","uniform","","","","","","","2086.7999999523163","299219.2999999523","301306.09999990463","[""stimuli/BM03_SC.jpg"",""stimuli/HM02_CC.jpg"",""stimuli/HF10_DO.jpg"",""stimuli/AM09_FO.jpg""]","stimuli/BM03_SC.jpg","stimuli/HM02_CC.jpg","stimuli/HF10_DO.jpg","stimuli/AM09_FO.jpg","pos4","stimuli/AM09_FO.jpg","FO","AM09","3","3","6","8","stimuli/stars_6.png","240.5","[""SC"",""CC"",""DO"",""FO""]","[""BM03"",""HM02"",""HF10"",""AM09""]","[6,1,2,6]","[6,2,4,8]","","",""
"show-reward","130","300357","0.0-130.0","p866277","AD1WGUMVD6KED","3RDTX9JRTZ7MP6YQMJD0Z3DG4HK978","3QBD8R3Z23PV0QI7CC3CI1JKRRLO4F","emotion","match","uniform","","","","","","","","301810.7000000477","303816.39999985695","","","","","","","","","","","","6","","stimuli/stars_6.png","240.5","","","","","stimuli/AM09_FO.jpg","",""
"explore-choice","131","302296","0.0-131.0","p866277","AD1WGUMVD6KED","3RDTX9JRTZ7MP6YQMJD0Z3DG4HK978","3QBD8R3Z23PV0QI7CC3CI1JKRRLO4F","emotion","match","uniform","","","","","","","1430.7000000476837","303817.09999990463","305247.7999999523","[""stimuli/HM02_DO.jpg"",""stimuli/HF10_FO.jpg"",""stimuli/AM09_CC.jpg"",""stimuli/BM03_SC.jpg""]","stimuli/HM02_DO.jpg","stimuli/HF10_FO.jpg","stimuli/AM09_CC.jpg","stimuli/BM03_SC.jpg","pos2","stimuli/HF10_FO.jpg","FO","HF10","1","4","8","8","stimuli/stars_8.png","244.5","[""DO"",""FO"",""CC"",""SC""]","[""HM02"",""HF10"",""AM09"",""BM03""]","[4,8,3,5]","[4,8,2,6]","","",""
"show-reward","132","304314","0.0-132.0","p866277","AD1WGUMVD6KED","3RDTX9JRTZ7MP6YQMJD0Z3DG4HK978","3QBD8R3Z23PV0QI7CC3CI1JKRRLO4F","emotion","match","uniform","","","","","","","","305756.2999999523","307773.2999999523","","","","","","","","","","","","8","","stimuli/stars_8.png","244.5","","","","","stimuli/HF10_FO.jpg","",""
"explore-choice","133","306456","0.0-133.0","p866277","AD1WGUMVD6KED","3RDTX9JRTZ7MP6YQMJD0Z3DG4HK978","3QBD8R3Z23PV0QI7CC3CI1JKRRLO4F","emotion","match","uniform","","","","","","","1636.7000000476837","307774.7999999523","309411.5","[""stimuli/BM03_CC.jpg"",""stimuli/AM09_SC.jpg"",""stimuli/HF10_FO.jpg"",""stimuli/HM02_DO.jpg""]","stimuli/BM03_CC.jpg","stimuli/AM09_SC.jpg","stimuli/HF10_FO.jpg","stimuli/HM02_DO.jpg","pos3","stimuli/HF10_FO.jpg","FO","HF10","2","3.5","7","8","stimuli/stars_7.png","248","[""CC"",""SC"",""FO"",""DO""]","[""BM03"",""AM09"",""HF10"",""HM02""]","[0,4,7,6]","[2,6,8,4]","","",""
"show-reward","134","308468","0.0-134.0","p866277","AD1WGUMVD6KED","3RDTX9JRTZ7MP6YQMJD0Z3DG4HK978","3QBD8R3Z23PV0QI7CC3CI1JKRRLO4F","emotion","match","uniform","","","","","","","","309915.2999999523","311927.09999990463","","","","","","","","","","","","7","","stimuli/stars_7.png","248","","","","","stimuli/HF10_FO.jpg","",""
"explore-choice","135","310305","0.0-135.0","p866277","AD1WGUMVD6KED","3RDTX9JRTZ7MP6YQMJD0Z3DG4HK978","3QBD8R3Z23PV0QI7CC3CI1JKRRLO4F","emotion","match","uniform","","","","","","","1325.5","311928.09999990463","313253.59999990463","[""stimuli/AM09_SC.jpg"",""stimuli/BM03_DO.jpg"",""stimuli/HM02_CC.jpg"",""stimuli/HF10_FO.jpg""]","stimuli/AM09_SC.jpg","stimuli/BM03_DO.jpg","stimuli/HM02_CC.jpg","stimuli/HF10_FO.jpg","pos4","stimuli/HF10_FO.jpg","FO","HF10","3","3.5","7","8","stimuli/stars_7.png","251.5","[""SC"",""DO"",""CC"",""FO""]","[""AM09"",""BM03"",""HM02"",""HF10""]","[5,4,1,7]","[6,4,2,8]","","",""
"show-reward","136","312322","0.0-136.0","p866277","AD1WGUMVD6KED","3RDTX9JRTZ7MP6YQMJD0Z3DG4HK978","3QBD8R3Z23PV0QI7CC3CI1JKRRLO4F","emotion","match","uniform","","","","","","","","313764.89999985695","315780.5","","","","","","","","","","","","7","","stimuli/stars_7.png","251.5","","","","","stimuli/HF10_FO.jpg","",""
"explore-choice","137","314039","0.0-137.0","p866277","AD1WGUMVD6KED","3RDTX9JRTZ7MP6YQMJD0Z3DG4HK978","3QBD8R3Z23PV0QI7CC3CI1JKRRLO4F","emotion","match","uniform","","","","","","","1213.8999998569489","315782.2000000477","316996.09999990463","[""stimuli/HM02_FO.jpg"",""stimuli/HF10_CC.jpg"",""stimuli/AM09_SC.jpg"",""stimuli/BM03_DO.jpg""]","stimuli/HM02_FO.jpg","stimuli/HF10_CC.jpg","stimuli/AM09_SC.jpg","stimuli/BM03_DO.jpg","pos1","stimuli/HM02_FO.jpg","FO","HM02","0","3","6","8","stimuli/stars_6.png","254.5","[""FO"",""CC"",""SC"",""DO""]","[""HM02"",""HF10"",""AM09"",""BM03""]","[6,0,6,2]","[8,2,6,4]","","",""
"show-reward","138","316050","0.0-138.0","p866277","AD1WGUMVD6KED","3RDTX9JRTZ7MP6YQMJD0Z3DG4HK978","3QBD8R3Z23PV0QI7CC3CI1JKRRLO4F","emotion","match","uniform","","","","","","","","317498.7000000477","319509.39999985695","","","","","","","","","","","","6","","stimuli/stars_6.png","254.5","","","","","stimuli/HM02_FO.jpg","",""
"explore-choice","139","317591","0.0-139.0","p866277","AD1WGUMVD6KED","3RDTX9JRTZ7MP6YQMJD0Z3DG4HK978","3QBD8R3Z23PV0QI7CC3CI1JKRRLO4F","emotion","match","uniform","","","","","","","1037.5","319510.09999990463","320547.59999990463","[""stimuli/BM03_FO.jpg"",""stimuli/HM02_SC.jpg"",""stimuli/AM09_DO.jpg"",""stimuli/HF10_CC.jpg""]","stimuli/BM03_FO.jpg","stimuli/HM02_SC.jpg","stimuli/AM09_DO.jpg","stimuli/HF10_CC.jpg","pos1","stimuli/BM03_FO.jpg","FO","BM03","0","4","8","8","stimuli/stars_8.png","258.5","[""FO"",""SC"",""DO"",""CC""]","[""BM03"",""HM02"",""AM09"",""HF10""]","[8,6,6,2]","[8,6,4,2]","","",""
"show-reward","140","319606","0.0-140.0","p866277","AD1WGUMVD6KED","3RDTX9JRTZ7MP6YQMJD0Z3DG4HK978","3QBD8R3Z23PV0QI7CC3CI1JKRRLO4F","emotion","match","uniform","","","","","","","","321050.7999999523","323065.39999985695","","","","","","","","","","","","8","","stimuli/stars_8.png","258.5","","","","","stimuli/BM03_FO.jpg","",""
"explore-choice","141","321821","0.0-141.0","p866277","AD1WGUMVD6KED","3RDTX9JRTZ7MP6YQMJD0Z3DG4HK978","3QBD8R3Z23PV0QI7CC3CI1JKRRLO4F","emotion","match","uniform","","","","","","","1709.5","323066.2000000477","324775.7000000477","[""stimuli/BM03_SC.jpg"",""stimuli/HF10_CC.jpg"",""stimuli/AM09_FO.jpg"",""stimuli/HM02_DO.jpg""]","stimuli/BM03_SC.jpg","stimuli/HF10_CC.jpg","stimuli/AM09_FO.jpg","stimuli/HM02_DO.jpg","pos3","stimuli/AM09_FO.jpg","FO","AM09","2","3.5","7","8","stimuli/stars_7.png","262","[""SC"",""CC"",""FO"",""DO""]","[""BM03"",""HF10"",""AM09"",""HM02""]","[5,0,7,4]","[6,2,8,4]","","",""
"show-reward","142","323832","0.0-142.0","p866277","AD1WGUMVD6KED","3RDTX9JRTZ7MP6YQMJD0Z3DG4HK978","3QBD8R3Z23PV0QI7CC3CI1JKRRLO4F","emotion","match","uniform","","","","","","","","325281.2000000477","327290.59999990463","","","","","","","","","","","","7","","stimuli/stars_7.png","262","","","","","stimuli/AM09_FO.jpg","",""
"explore-choice","143","325260","0.0-143.0","p866277","AD1WGUMVD6KED","3RDTX9JRTZ7MP6YQMJD0Z3DG4HK978","3QBD8R3Z23PV0QI7CC3CI1JKRRLO4F","emotion","match","uniform","","","","","","","921.4000000953674","327291.39999985695","328212.7999999523","[""stimuli/HF10_SC.jpg"",""stimuli/AM09_DO.jpg"",""stimuli/BM03_FO.jpg"",""stimuli/HM02_CC.jpg""]","stimuli/HF10_SC.jpg","stimuli/AM09_DO.jpg","stimuli/BM03_FO.jpg","stimuli/HM02_CC.jpg","pos3","stimuli/BM03_FO.jpg","FO","BM03","2","4","8","8","stimuli/stars_8.png","266","[""SC"",""DO"",""FO"",""CC""]","[""HF10"",""AM09"",""BM03"",""HM02""]","[4,6,8,3]","[6,4,8,2]","","",""
"show-reward","144","327269","0.0-144.0","p866277","AD1WGUMVD6KED","3RDTX9JRTZ7MP6YQMJD0Z3DG4HK978","3QBD8R3Z23PV0QI7CC3CI1JKRRLO4F","emotion","match","uniform","","","","","","","","328719.5","330727.7000000477","","","","","","","","","","","","8","","stimuli/stars_8.png","266","","","","","stimuli/BM03_FO.jpg","",""
"explore-choice","145","328799","0.0-145.0","p866277","AD1WGUMVD6KED","3RDTX9JRTZ7MP6YQMJD0Z3DG4HK978","3QBD8R3Z23PV0QI7CC3CI1JKRRLO4F","emotion","match","uniform","","","","","","","1020.2999999523163","330728.2999999523","331748.59999990463","[""stimuli/HM02_DO.jpg"",""stimuli/HF10_CC.jpg"",""stimuli/AM09_SC.jpg"",""stimuli/BM03_FO.jpg""]","stimuli/HM02_DO.jpg","stimuli/HF10_CC.jpg","stimuli/AM09_SC.jpg","stimuli/BM03_FO.jpg","pos4","stimuli/BM03_FO.jpg","FO","BM03","3","5","10","8","stimuli/stars_10.png","271","[""DO"",""CC"",""SC"",""FO""]","[""HM02"",""HF10"",""AM09"",""BM03""]","[2,2,8,10]","[4,2,6,8]","","",""
"show-reward","146","330817","0.0-146.0","p866277","AD1WGUMVD6KED","3RDTX9JRTZ7MP6YQMJD0Z3DG4HK978","3QBD8R3Z23PV0QI7CC3CI1JKRRLO4F","emotion","match","uniform","","","","","","","","332258.59999990463","334275.7000000477","","","","","","","","","","","","10","","stimuli/stars_10.png","271","","","","","stimuli/BM03_FO.jpg","",""
"explore-choice","147","332361","0.0-147.0","p866277","AD1WGUMVD6KED","3RDTX9JRTZ7MP6YQMJD0Z3DG4HK978","3QBD8R3Z23PV0QI7CC3CI1JKRRLO4F","emotion","match","uniform","","","","","","","1037.1000001430511","334276.39999985695","335313.5","[""stimuli/HF10_DO.jpg"",""stimuli/HM02_CC.jpg"",""stimuli/BM03_FO.jpg"",""stimuli/AM09_SC.jpg""]","stimuli/HF10_DO.jpg","stimuli/HM02_CC.jpg","stimuli/BM03_FO.jpg","stimuli/AM09_SC.jpg","pos3","stimuli/BM03_FO.jpg","FO","BM03","2","5","10","8","stimuli/stars_10.png","276","[""DO"",""CC"",""FO"",""SC""]","[""HF10"",""HM02"",""BM03"",""AM09""]","[3,2,10,5]","[4,2,8,6]","","",""
"show-reward","148","334367","0.0-148.0","p866277","AD1WGUMVD6KED","3RDTX9JRTZ7MP6YQMJD0Z3DG4HK978","3QBD8R3Z23PV0QI7CC3CI1JKRRLO4F","emotion","match","uniform","","","","","","","","335821.2000000477","337826","","","","","","","","","","","","10","","stimuli/stars_10.png","276","","","","","stimuli/BM03_FO.jpg","",""
"explore-choice","149","336625","0.0-149.0","p866277","AD1WGUMVD6KED","3RDTX9JRTZ7MP6YQMJD0Z3DG4HK978","3QBD8R3Z23PV0QI7CC3CI1JKRRLO4F","emotion","match","uniform","","","","","","","1749.9000000953674","337826.7999999523","339576.7000000477","[""stimuli/AM09_DO.jpg"",""stimuli/BM03_CC.jpg"",""stimuli/HM02_SC.jpg"",""stimuli/HF10_FO.jpg""]","stimuli/AM09_DO.jpg","stimuli/BM03_CC.jpg","stimuli/HM02_SC.jpg","stimuli/HF10_FO.jpg","pos4","stimuli/HF10_FO.jpg","FO","HF10","3","5","10","8","stimuli/stars_10.png","281","[""DO"",""CC"",""SC"",""FO""]","[""AM09"",""BM03"",""HM02"",""HF10""]","[5,4,8,10]","[4,2,6,8]","","",""
"show-reward","150","338640","0.0-150.0","p866277","AD1WGUMVD6KED","3RDTX9JRTZ7MP6YQMJD0Z3DG4HK978","3QBD8R3Z23PV0QI7CC3CI1JKRRLO4F","emotion","match","uniform","","","","","","","","340084.5","342098.7000000477","","","","","","","","","","","","10","","stimuli/stars_10.png","281","","","","","stimuli/HF10_FO.jpg","",""
"explore-choice","151","340206","0.0-151.0","p866277","AD1WGUMVD6KED","3RDTX9JRTZ7MP6YQMJD0Z3DG4HK978","3QBD8R3Z23PV0QI7CC3CI1JKRRLO4F","emotion","match","uniform","","","","","","","1050.7000000476837","342099.39999985695","343150.09999990463","[""stimuli/HM02_DO.jpg"",""stimuli/AM09_CC.jpg"",""stimuli/HF10_FO.jpg"",""stimuli/BM03_SC.jpg""]","stimuli/HM02_DO.jpg","stimuli/AM09_CC.jpg","stimuli/HF10_FO.jpg","stimuli/BM03_SC.jpg","pos3","stimuli/HF10_FO.jpg","FO","HF10","2","4","8","8","stimuli/stars_8.png","285","[""DO"",""CC"",""FO"",""SC""]","[""HM02"",""AM09"",""HF10"",""BM03""]","[4,3,8,5]","[4,2,8,6]","","",""
"show-reward","152","342220","0.0-152.0","p866277","AD1WGUMVD6KED","3RDTX9JRTZ7MP6YQMJD0Z3DG4HK978","3QBD8R3Z23PV0QI7CC3CI1JKRRLO4F","emotion","match","uniform","","","","","","","","343666.7999999523","345678.89999985695","","","","","","","","","","","","8","","stimuli/stars_8.png","285","","","","","stimuli/HF10_FO.jpg","",""
"explore-choice","153","343822","0.0-153.0","p866277","AD1WGUMVD6KED","3RDTX9JRTZ7MP6YQMJD0Z3DG4HK978","3QBD8R3Z23PV0QI7CC3CI1JKRRLO4F","emotion","match","uniform","","","","","","","1099.5999999046326","345680.5","346780.09999990463","[""stimuli/AM09_CC.jpg"",""stimuli/BM03_DO.jpg"",""stimuli/HF10_FO.jpg"",""stimuli/HM02_SC.jpg""]","stimuli/AM09_CC.jpg","stimuli/BM03_DO.jpg","stimuli/HF10_FO.jpg","stimuli/HM02_SC.jpg","pos3","stimuli/HF10_FO.jpg","FO","HF10","2","3.5","7","8","stimuli/stars_7.png","288.5","[""CC"",""DO"",""FO"",""SC""]","[""AM09"",""BM03"",""HF10"",""HM02""]","[2,2,7,8]","[2,4,8,6]","","",""
"show-reward","154","345826","0.0-154.0","p866277","AD1WGUMVD6KED","3RDTX9JRTZ7MP6YQMJD0Z3DG4HK978","3QBD8R3Z23PV0QI7CC3CI1JKRRLO4F","emotion","match","uniform","","","","","","","","347282","349284.59999990463","","","","","","","","","","","","7","","stimuli/stars_7.png","288.5","","","","","stimuli/HF10_FO.jpg","",""
"explore-choice","155","347301","0.0-155.0","p866277","AD1WGUMVD6KED","3RDTX9JRTZ7MP6YQMJD0Z3DG4HK978","3QBD8R3Z23PV0QI7CC3CI1JKRRLO4F","emotion","match","uniform","","","","","","","966.8999998569489","349285.2000000477","350252.09999990463","[""stimuli/HM02_SC.jpg"",""stimuli/HF10_CC.jpg"",""stimuli/BM03_FO.jpg"",""stimuli/AM09_DO.jpg""]","stimuli/HM02_SC.jpg","stimuli/HF10_CC.jpg","stimuli/BM03_FO.jpg","stimuli/AM09_DO.jpg","pos3","stimuli/BM03_FO.jpg","FO","BM03","2","4","8","8","stimuli/stars_8.png","292.5","[""SC"",""CC"",""FO"",""DO""]","[""HM02"",""HF10"",""BM03"",""AM09""]","[6,2,8,6]","[6,2,8,4]","","",""
"show-reward","156","349313","0.0-156.0","p866277","AD1WGUMVD6KED","3RDTX9JRTZ7MP6YQMJD0Z3DG4HK978","3QBD8R3Z23PV0QI7CC3CI1JKRRLO4F","emotion","match","uniform","","","","","","","","350760.59999990463","352771.7000000477","","","","","","","","","","","","8","","stimuli/stars_8.png","292.5","","","","","stimuli/BM03_FO.jpg","",""
"explore-choice","157","351579","0.0-157.0","p866277","AD1WGUMVD6KED","3RDTX9JRTZ7MP6YQMJD0Z3DG4HK978","3QBD8R3Z23PV0QI7CC3CI1JKRRLO4F","emotion","match","uniform","","","","","","","1755.9000000953674","352772.39999985695","354528.2999999523","[""stimuli/BM03_DO.jpg"",""stimuli/AM09_SC.jpg"",""stimuli/HF10_FO.jpg"",""stimuli/HM02_CC.jpg""]","stimuli/BM03_DO.jpg","stimuli/AM09_SC.jpg","stimuli/HF10_FO.jpg","stimuli/HM02_CC.jpg","pos3","stimuli/HF10_FO.jpg","FO","HF10","2","3.5","7","8","stimuli/stars_7.png","296","[""DO"",""SC"",""FO"",""CC""]","[""BM03"",""AM09"",""HF10"",""HM02""]","[4,5,7,1]","[4,6,8,2]","","",""
"show-reward","158","353597","0.0-158.0","p866277","AD1WGUMVD6KED","3RDTX9JRTZ7MP6YQMJD0Z3DG4HK978","3QBD8R3Z23PV0QI7CC3CI1JKRRLO4F","emotion","match","uniform","","","","","","","","355038.2999999523","357055.89999985695","","","","","","","","","","","","7","","stimuli/stars_7.png","296","","","","","stimuli/HF10_FO.jpg","",""
"explore-choice","159","356771","0.0-159.0","p866277","AD1WGUMVD6KED","3RDTX9JRTZ7MP6YQMJD0Z3DG4HK978","3QBD8R3Z23PV0QI7CC3CI1JKRRLO4F","emotion","match","uniform","","","","","","","2661.7000000476837","357057.2999999523","359719","[""stimuli/BM03_CC.jpg"",""stimuli/HM02_DO.jpg"",""stimuli/AM09_FO.jpg"",""stimuli/HF10_SC.jpg""]","stimuli/BM03_CC.jpg","stimuli/HM02_DO.jpg","stimuli/AM09_FO.jpg","stimuli/HF10_SC.jpg","pos3","stimuli/AM09_FO.jpg","FO","AM09","2","3.5","7","8","stimuli/stars_7.png","299.5","[""CC"",""DO"",""FO"",""SC""]","[""BM03"",""HM02"",""AM09"",""HF10""]","[4,6,7,4]","[2,4,8,6]","","",""
"show-reward","160","358785","0.0-160.0","p866277","AD1WGUMVD6KED","3RDTX9JRTZ7MP6YQMJD0Z3DG4HK978","3QBD8R3Z23PV0QI7CC3CI1JKRRLO4F","emotion","match","uniform","","","","","","","","360230.39999985695","362243.7999999523","","","","","","","","","","","","7","","stimuli/stars_7.png","299.5","","","","","stimuli/AM09_FO.jpg","",""
"explore-choice","161","360388","0.0-161.0","p866277","AD1WGUMVD6KED","3RDTX9JRTZ7MP6YQMJD0Z3DG4HK978","3QBD8R3Z23PV0QI7CC3CI1JKRRLO4F","emotion","match","uniform","","","","","","","1101.5999999046326","362245.5","363347.09999990463","[""stimuli/HF10_SC.jpg"",""stimuli/AM09_DO.jpg"",""stimuli/HM02_CC.jpg"",""stimuli/BM03_FO.jpg""]","stimuli/HF10_SC.jpg","stimuli/AM09_DO.jpg","stimuli/HM02_CC.jpg","stimuli/BM03_FO.jpg","pos4","stimuli/BM03_FO.jpg","FO","BM03","3","4","8","8","stimuli/stars_8.png","303.5","[""SC"",""DO"",""CC"",""FO""]","[""HF10"",""AM09"",""HM02"",""BM03""]","[4,6,3,8]","[6,4,2,8]","","",""
"show-reward","162","362402","0.0-162.0","p866277","AD1WGUMVD6KED","3RDTX9JRTZ7MP6YQMJD0Z3DG4HK978","3QBD8R3Z23PV0QI7CC3CI1JKRRLO4F","emotion","match","uniform","","","","","","","","363848.09999990463","365861.2000000477","","","","","","","","","","","","8","","stimuli/stars_8.png","303.5","","","","","stimuli/BM03_FO.jpg","",""
"explore-choice","163","363825","0.0-163.0","p866277","AD1WGUMVD6KED","3RDTX9JRTZ7MP6YQMJD0Z3DG4HK978","3QBD8R3Z23PV0QI7CC3CI1JKRRLO4F","emotion","match","uniform","","","","","","","906.5999999046326","365862.7999999523","366769.39999985695","[""stimuli/HF10_FO.jpg"",""stimuli/BM03_CC.jpg"",""stimuli/HM02_DO.jpg"",""stimuli/AM09_SC.jpg""]","stimuli/HF10_FO.jpg","stimuli/BM03_CC.jpg","stimuli/HM02_DO.jpg","stimuli/AM09_SC.jpg","pos1","stimuli/HF10_FO.jpg","FO","HF10","0","3.5","7","8","stimuli/stars_7.png","307","[""FO"",""CC"",""DO"",""SC""]","[""HF10"",""BM03"",""HM02"",""AM09""]","[7,0,6,4]","[8,2,4,6]","","",""
"show-reward","164","365836","0.0-164.0","p866277","AD1WGUMVD6KED","3RDTX9JRTZ7MP6YQMJD0Z3DG4HK978","3QBD8R3Z23PV0QI7CC3CI1JKRRLO4F","emotion","match","uniform","","","","","","","","367284.39999985695","369295.2999999523","","","","","","","","","","","","7","","stimuli/stars_7.png","307","","","","","stimuli/HF10_FO.jpg","",""
"explore-choice","165","367658","0.0-165.0","p866277","AD1WGUMVD6KED","3RDTX9JRTZ7MP6YQMJD0Z3DG4HK978","3QBD8R3Z23PV0QI7CC3CI1JKRRLO4F","emotion","match","uniform","","","","","","","1309.3999998569489","369296","370605.39999985695","[""stimuli/BM03_SC.jpg"",""stimuli/HF10_DO.jpg"",""stimuli/HM02_CC.jpg"",""stimuli/AM09_FO.jpg""]","stimuli/BM03_SC.jpg","stimuli/HF10_DO.jpg","stimuli/HM02_CC.jpg","stimuli/AM09_FO.jpg","pos4","stimuli/AM09_FO.jpg","FO","AM09","3","3","6","8","stimuli/stars_6.png","310","[""SC"",""DO"",""CC"",""FO""]","[""BM03"",""HF10"",""HM02"",""AM09""]","[6,2,1,6]","[6,4,2,8]","","",""
"show-reward","166","369661","0.0-166.0","p866277","AD1WGUMVD6KED","3RDTX9JRTZ7MP6YQMJD0Z3DG4HK978","3QBD8R3Z23PV0QI7CC3CI1JKRRLO4F","emotion","match","uniform","","","","","","","","371117.89999985695","373120.5","","","","","","","","","","","","6","","stimuli/stars_6.png","310","","","","","stimuli/AM09_FO.jpg","",""
"explore-choice","167","371119","0.0-167.0","p866277","AD1WGUMVD6KED","3RDTX9JRTZ7MP6YQMJD0Z3DG4HK978","3QBD8R3Z23PV0QI7CC3CI1JKRRLO4F","emotion","match","uniform","","","","","","","951.1999998092651","373121.2000000477","374072.39999985695","[""stimuli/HF10_CC.jpg"",""stimuli/BM03_DO.jpg"",""stimuli/AM09_FO.jpg"",""stimuli/HM02_SC.jpg""]","stimuli/HF10_CC.jpg","stimuli/BM03_DO.jpg","stimuli/AM09_FO.jpg","stimuli/HM02_SC.jpg","pos3","stimuli/AM09_FO.jpg","FO","AM09","2","4.5","9","8","stimuli/stars_9.png","314.5","[""CC"",""DO"",""FO"",""SC""]","[""HF10"",""BM03"",""AM09"",""HM02""]","[2,6,9,7]","[2,4,8,6]","","",""
"show-reward","168","373127","0.0-168.0","p866277","AD1WGUMVD6KED","3RDTX9JRTZ7MP6YQMJD0Z3DG4HK978","3QBD8R3Z23PV0QI7CC3CI1JKRRLO4F","emotion","match","uniform","","","","","","","","374579.2000000477","376585.7999999523","","","","","","","","","","","","9","","stimuli/stars_9.png","314.5","","","","","stimuli/AM09_FO.jpg","",""
"explore-choice","169","374915","0.0-169.0","p866277","AD1WGUMVD6KED","3RDTX9JRTZ7MP6YQMJD0Z3DG4HK978","3QBD8R3Z23PV0QI7CC3CI1JKRRLO4F","emotion","match","uniform","","","","","","","1286.2999999523163","376586.5","377872.7999999523","[""stimuli/AM09_DO.jpg"",""stimuli/HM02_FO.jpg"",""stimuli/BM03_SC.jpg"",""stimuli/HF10_CC.jpg""]","stimuli/AM09_DO.jpg","stimuli/HM02_FO.jpg","stimuli/BM03_SC.jpg","stimuli/HF10_CC.jpg","pos2","stimuli/HM02_FO.jpg","FO","HM02","1","3.5","7","8","stimuli/stars_7.png","318","[""DO"",""FO"",""SC"",""CC""]","[""AM09"",""HM02"",""BM03"",""HF10""]","[5,7,6,1]","[4,8,6,2]","","",""
"show-reward","170","376927","0.0-170.0","p866277","AD1WGUMVD6KED","3RDTX9JRTZ7MP6YQMJD0Z3DG4HK978","3QBD8R3Z23PV0QI7CC3CI1JKRRLO4F","emotion","match","uniform","","","","","","","","378374.7000000477","380386.09999990463","","","","","","","","","","","","7","","stimuli/stars_7.png","318","","","","","stimuli/HM02_FO.jpg","",""
"explore-choice","171","379588","0.0-171.0","p866277","AD1WGUMVD6KED","3RDTX9JRTZ7MP6YQMJD0Z3DG4HK978","3QBD8R3Z23PV0QI7CC3CI1JKRRLO4F","emotion","match","uniform","","","","","","","2160.5","380386.7999999523","382547.2999999523","[""stimuli/HM02_DO.jpg"",""stimuli/AM09_FO.jpg"",""stimuli/BM03_SC.jpg"",""stimuli/HF10_CC.jpg""]","stimuli/HM02_DO.jpg","stimuli/AM09_FO.jpg","stimuli/BM03_SC.jpg","stimuli/HF10_CC.jpg","pos2","stimuli/AM09_FO.jpg","FO","AM09","1","3.5","7","8","stimuli/stars_7.png","321.5","[""DO"",""FO"",""SC"",""CC""]","[""HM02"",""AM09"",""BM03"",""HF10""]","[4,7,5,0]","[4,8,6,2]","","",""
"show-reward","172","381593","0.0-172.0","p866277","AD1WGUMVD6KED","3RDTX9JRTZ7MP6YQMJD0Z3DG4HK978","3QBD8R3Z23PV0QI7CC3CI1JKRRLO4F","emotion","match","uniform","","","","","","","","383048.2999999523","385052","","","","","","","","","","","","7","","stimuli/stars_7.png","321.5","","","","","stimuli/AM09_FO.jpg","",""
"explore-choice","173","384144","0.0-173.0","p866277","AD1WGUMVD6KED","3RDTX9JRTZ7MP6YQMJD0Z3DG4HK978","3QBD8R3Z23PV0QI7CC3CI1JKRRLO4F","emotion","match","uniform","","","","","","","2042.2999999523163","385052.7000000477","387095","[""stimuli/HF10_DO.jpg"",""stimuli/BM03_CC.jpg"",""stimuli/AM09_FO.jpg"",""stimuli/HM02_SC.jpg""]","stimuli/HF10_DO.jpg","stimuli/BM03_CC.jpg","stimuli/AM09_FO.jpg","stimuli/HM02_SC.jpg","pos3","stimuli/AM09_FO.jpg","FO","AM09","2","3.5","7","8","stimuli/stars_7.png","325","[""DO"",""CC"",""FO"",""SC""]","[""HF10"",""BM03"",""AM09"",""HM02""]","[6,1,7,8]","[4,2,8,6]","","",""
"show-reward","174","386150","0.0-174.0","p866277","AD1WGUMVD6KED","3RDTX9JRTZ7MP6YQMJD0Z3DG4HK978","3QBD8R3Z23PV0QI7CC3CI1JKRRLO4F","emotion","match","uniform","","","","","","","","387603.5","389609","","","","","","","","","","","","7","","stimuli/stars_7.png","325","","","","","stimuli/AM09_FO.jpg","",""
"explore-choice","175","387959","0.0-175.0","p866277","AD1WGUMVD6KED","3RDTX9JRTZ7MP6YQMJD0Z3DG4HK978","3QBD8R3Z23PV0QI7CC3CI1JKRRLO4F","emotion","match","uniform","","","","","","","1308.1000001430511","389609.59999990463","390917.7000000477","[""stimuli/BM03_DO.jpg"",""stimuli/HM02_FO.jpg"",""stimuli/HF10_CC.jpg"",""stimuli/AM09_SC.jpg""]","stimuli/BM03_DO.jpg","stimuli/HM02_FO.jpg","stimuli/HF10_CC.jpg","stimuli/AM09_SC.jpg","pos2","stimuli/HM02_FO.jpg","FO","HM02","1","3","6","8","stimuli/stars_6.png","328","[""DO"",""FO"",""CC"",""SC""]","[""BM03"",""HM02"",""HF10"",""AM09""]","[2,6,0,6]","[4,8,2,6]","","",""
"show-reward","176","389967","0.0-176.0","p866277","AD1WGUMVD6KED","3RDTX9JRTZ7MP6YQMJD0Z3DG4HK978","3QBD8R3Z23PV0QI7CC3CI1JKRRLO4F","emotion","match","uniform","","","","","","","","391418.89999985695","393426.39999985695","","","","","","","","","","","","6","","stimuli/stars_6.png","328","","","","","stimuli/HM02_FO.jpg","",""
"explore-choice","177","391562","0.0-177.0","p866277","AD1WGUMVD6KED","3RDTX9JRTZ7MP6YQMJD0Z3DG4HK978","3QBD8R3Z23PV0QI7CC3CI1JKRRLO4F","emotion","match","uniform","","","","","","","1091.7999999523163","393427","394518.7999999523","[""stimuli/HM02_FO.jpg"",""stimuli/BM03_DO.jpg"",""stimuli/HF10_SC.jpg"",""stimuli/AM09_CC.jpg""]","stimuli/HM02_FO.jpg","stimuli/BM03_DO.jpg","stimuli/HF10_SC.jpg","stimuli/AM09_CC.jpg","pos1","stimuli/HM02_FO.jpg","FO","HM02","0","4.5","9","8","stimuli/stars_9.png","332.5","[""FO"",""DO"",""SC"",""CC""]","[""HM02"",""BM03"",""HF10"",""AM09""]","[9,5,6,4]","[8,4,6,2]","","",""
"show-reward","178","393576","0.0-178.0","p866277","AD1WGUMVD6KED","3RDTX9JRTZ7MP6YQMJD0Z3DG4HK978","3QBD8R3Z23PV0QI7CC3CI1JKRRLO4F","emotion","match","uniform","","","","","","","","395022.09999990463","397034.5","","","","","","","","","","","","9","","stimuli/stars_9.png","332.5","","","","","stimuli/HM02_FO.jpg","",""
"explore-choice","179","395104","0.0-179.0","p866277","AD1WGUMVD6KED","3RDTX9JRTZ7MP6YQMJD0Z3DG4HK978","3QBD8R3Z23PV0QI7CC3CI1JKRRLO4F","emotion","match","uniform","","","","","","","1011.7999999523163","397036.2000000477","398048","[""stimuli/HF10_DO.jpg"",""stimuli/HM02_CC.jpg"",""stimuli/AM09_SC.jpg"",""stimuli/BM03_FO.jpg""]","stimuli/HF10_DO.jpg","stimuli/HM02_CC.jpg","stimuli/AM09_SC.jpg","stimuli/BM03_FO.jpg","pos4","stimuli/BM03_FO.jpg","FO","BM03","3","5","10","8","stimuli/stars_10.png","337.5","[""DO"",""CC"",""SC"",""FO""]","[""HF10"",""HM02"",""AM09"",""BM03""]","[3,2,5,10]","[4,2,6,8]","","",""
"show-reward","180","397115","0.0-180.0","p866277","AD1WGUMVD6KED","3RDTX9JRTZ7MP6YQMJD0Z3DG4HK978","3QBD8R3Z23PV0QI7CC3CI1JKRRLO4F","emotion","match","uniform","","","","","","","","398563.89999985695","400574","","","","","","","","","","","","10","","stimuli/stars_10.png","337.5","","","","","stimuli/BM03_FO.jpg","",""
"explore-choice","181","398508","0.0-181.0","p866277","AD1WGUMVD6KED","3RDTX9JRTZ7MP6YQMJD0Z3DG4HK978","3QBD8R3Z23PV0QI7CC3CI1JKRRLO4F","emotion","match","uniform","","","","","","","880.7000000476837","400575.89999985695","401456.59999990463","[""stimuli/BM03_FO.jpg"",""stimuli/HM02_SC.jpg"",""stimuli/AM09_CC.jpg"",""stimuli/HF10_DO.jpg""]","stimuli/BM03_FO.jpg","stimuli/HM02_SC.jpg","stimuli/AM09_CC.jpg","stimuli/HF10_DO.jpg","pos1","stimuli/BM03_FO.jpg","FO","BM03","0","3.5","7","8","stimuli/stars_7.png","341","[""FO"",""SC"",""CC"",""DO""]","[""BM03"",""HM02"",""AM09"",""HF10""]","[7,4,2,3]","[8,6,2,4]","","",""
"show-reward","182","400513","0.0-182.0","p866277","AD1WGUMVD6KED","3RDTX9JRTZ7MP6YQMJD0Z3DG4HK978","3QBD8R3Z23PV0QI7CC3CI1JKRRLO4F","emotion","match","uniform","","","","","","","","401968.89999985695","403971.59999990463","","","","","","","","","","","","7","","stimuli/stars_7.png","341","","","","","stimuli/BM03_FO.jpg","",""
"explore-choice","183","402469","0.0-183.0","p866277","AD1WGUMVD6KED","3RDTX9JRTZ7MP6YQMJD0Z3DG4HK978","3QBD8R3Z23PV0QI7CC3CI1JKRRLO4F","emotion","match","uniform","","","","","","","1441.5","403972.2000000477","405413.7000000477","[""stimuli/AM09_DO.jpg"",""stimuli/HM02_FO.jpg"",""stimuli/HF10_SC.jpg"",""stimuli/BM03_CC.jpg""]","stimuli/AM09_DO.jpg","stimuli/HM02_FO.jpg","stimuli/HF10_SC.jpg","stimuli/BM03_CC.jpg","pos2","stimuli/HM02_FO.jpg","FO","HM02","1","3.5","7","8","stimuli/stars_7.png","344.5","[""DO"",""FO"",""SC"",""CC""]","[""AM09"",""HM02"",""HF10"",""BM03""]","[6,7,4,0]","[4,8,6,2]","","",""
"show-reward","184","404483","0.0-184.0","p866277","AD1WGUMVD6KED","3RDTX9JRTZ7MP6YQMJD0Z3DG4HK978","3QBD8R3Z23PV0QI7CC3CI1JKRRLO4F","emotion","match","uniform","","","","","","","","405928.89999985695","407941.59999990463","","","","","","","","","","","","7","","stimuli/stars_7.png","344.5","","","","","stimuli/HM02_FO.jpg","",""
"explore-choice","185","405793","0.0-185.0","p866277","AD1WGUMVD6KED","3RDTX9JRTZ7MP6YQMJD0Z3DG4HK978","3QBD8R3Z23PV0QI7CC3CI1JKRRLO4F","emotion","match","uniform","","","","","","","801.5999999046326","407943.2000000477","408744.7999999523","[""stimuli/HF10_FO.jpg"",""stimuli/HM02_CC.jpg"",""stimuli/AM09_DO.jpg"",""stimuli/BM03_SC.jpg""]","stimuli/HF10_FO.jpg","stimuli/HM02_CC.jpg","stimuli/AM09_DO.jpg","stimuli/BM03_SC.jpg","pos1","stimuli/HF10_FO.jpg","FO","HF10","0","4.5","9","8","stimuli/stars_9.png","349","[""FO"",""CC"",""DO"",""SC""]","[""HF10"",""HM02"",""AM09"",""BM03""]","[9,4,4,4]","[8,2,4,6]","","",""
"show-reward","186","407797","0.0-186.0","p866277","AD1WGUMVD6KED","3RDTX9JRTZ7MP6YQMJD0Z3DG4HK978","3QBD8R3Z23PV0QI7CC3CI1JKRRLO4F","emotion","match","uniform","","","","","","","","409253.09999990463","411256.2000000477","","","","","","","","","","","","9","","stimuli/stars_9.png","349","","","","","stimuli/HF10_FO.jpg","",""
"explore-choice","187","409415","0.0-187.0","p866277","AD1WGUMVD6KED","3RDTX9JRTZ7MP6YQMJD0Z3DG4HK978","3QBD8R3Z23PV0QI7CC3CI1JKRRLO4F","emotion","match","uniform","","","","","","","1117.3000001907349","411256.89999985695","412374.2000000477","[""stimuli/HF10_CC.jpg"",""stimuli/BM03_FO.jpg"",""stimuli/AM09_SC.jpg"",""stimuli/HM02_DO.jpg""]","stimuli/HF10_CC.jpg","stimuli/BM03_FO.jpg","stimuli/AM09_SC.jpg","stimuli/HM02_DO.jpg","pos2","stimuli/BM03_FO.jpg","FO","BM03","1","5","10","8","stimuli/stars_10.png","354","[""CC"",""FO"",""SC"",""DO""]","[""HF10"",""BM03"",""AM09"",""HM02""]","[2,10,8,2]","[2,8,6,4]","","",""
"show-reward","188","411431","0.0-188.0","p866277","AD1WGUMVD6KED","3RDTX9JRTZ7MP6YQMJD0Z3DG4HK978","3QBD8R3Z23PV0QI7CC3CI1JKRRLO4F","emotion","match","uniform","","","","","","","","412875.2999999523","414889.7000000477","","","","","","","","","","","","10","","stimuli/stars_10.png","354","","","","","stimuli/BM03_FO.jpg","",""
"explore-choice","189","412894","0.0-189.0","p866277","AD1WGUMVD6KED","3RDTX9JRTZ7MP6YQMJD0Z3DG4HK978","3QBD8R3Z23PV0QI7CC3CI1JKRRLO4F","emotion","match","uniform","","","","","","","956.4000000953674","414890.39999985695","415846.7999999523","[""stimuli/HF10_SC.jpg"",""stimuli/BM03_FO.jpg"",""stimuli/HM02_DO.jpg"",""stimuli/AM09_CC.jpg""]","stimuli/HF10_SC.jpg","stimuli/BM03_FO.jpg","stimuli/HM02_DO.jpg","stimuli/AM09_CC.jpg","pos2","stimuli/BM03_FO.jpg","FO","BM03","1","3.5","7","8","stimuli/stars_7.png","357.5","[""SC"",""FO"",""DO"",""CC""]","[""HF10"",""BM03"",""HM02"",""AM09""]","[6,7,3,1]","[6,8,4,2]","","",""
"show-reward","190","414897","0.0-190.0","p866277","AD1WGUMVD6KED","3RDTX9JRTZ7MP6YQMJD0Z3DG4HK978","3QBD8R3Z23PV0QI7CC3CI1JKRRLO4F","emotion","match","uniform","","","","","","","","416354.2000000477","418356.09999990463","","","","","","","","","","","","7","","stimuli/stars_7.png","357.5","","","","","stimuli/BM03_FO.jpg","",""
"explore-choice","191","416539","0.0-191.0","p866277","AD1WGUMVD6KED","3RDTX9JRTZ7MP6YQMJD0Z3DG4HK978","3QBD8R3Z23PV0QI7CC3CI1JKRRLO4F","emotion","match","uniform","","","","","","","1140.4000000953674","418356.7999999523","419497.2000000477","[""stimuli/BM03_CC.jpg"",""stimuli/HM02_FO.jpg"",""stimuli/AM09_SC.jpg"",""stimuli/HF10_DO.jpg""]","stimuli/BM03_CC.jpg","stimuli/HM02_FO.jpg","stimuli/AM09_SC.jpg","stimuli/HF10_DO.jpg","pos2","stimuli/HM02_FO.jpg","FO","HM02","1","3.5","7","8","stimuli/stars_7.png","361","[""CC"",""FO"",""SC"",""DO""]","[""BM03"",""HM02"",""AM09"",""HF10""]","[2,7,4,4]","[2,8,6,4]","","",""
"show-reward","192","418545","0.0-192.0","p866277","AD1WGUMVD6KED","3RDTX9JRTZ7MP6YQMJD0Z3DG4HK978","3QBD8R3Z23PV0QI7CC3CI1JKRRLO4F","emotion","match","uniform","","","","","","","","419998.89999985695","422004.59999990463","","","","","","","","","","","","7","","stimuli/stars_7.png","361","","","","","stimuli/HM02_FO.jpg","",""
"explore-choice","193","420555","0.0-193.0","p866277","AD1WGUMVD6KED","3RDTX9JRTZ7MP6YQMJD0Z3DG4HK978","3QBD8R3Z23PV0QI7CC3CI1JKRRLO4F","emotion","match","uniform","","","","","","","1498.1999998092651","422005.2000000477","423503.39999985695","[""stimuli/BM03_DO.jpg"",""stimuli/AM09_FO.jpg"",""stimuli/HF10_SC.jpg"",""stimuli/HM02_CC.jpg""]","stimuli/BM03_DO.jpg","stimuli/AM09_FO.jpg","stimuli/HF10_SC.jpg","stimuli/HM02_CC.jpg","pos2","stimuli/AM09_FO.jpg","FO","AM09","1","4.5","9","8","stimuli/stars_9.png","365.5","[""DO"",""FO"",""SC"",""CC""]","[""BM03"",""AM09"",""HF10"",""HM02""]","[6,9,8,4]","[4,8,6,2]","","",""
"show-reward","194","422568","0.0-194.0","p866277","AD1WGUMVD6KED","3RDTX9JRTZ7MP6YQMJD0Z3DG4HK978","3QBD8R3Z23PV0QI7CC3CI1JKRRLO4F","emotion","match","uniform","","","","","","","","424014.7000000477","426027.2999999523","","","","","","","","","","","","9","","stimuli/stars_9.png","365.5","","","","","stimuli/AM09_FO.jpg","",""
"explore-choice","195","424417","0.0-195.0","p866277","AD1WGUMVD6KED","3RDTX9JRTZ7MP6YQMJD0Z3DG4HK978","3QBD8R3Z23PV0QI7CC3CI1JKRRLO4F","emotion","match","uniform","","","","","","","1340.2000000476837","426028.09999990463","427368.2999999523","[""stimuli/BM03_CC.jpg"",""stimuli/HF10_FO.jpg"",""stimuli/AM09_DO.jpg"",""stimuli/HM02_SC.jpg""]","stimuli/BM03_CC.jpg","stimuli/HF10_FO.jpg","stimuli/AM09_DO.jpg","stimuli/HM02_SC.jpg","pos2","stimuli/HF10_FO.jpg","FO","HF10","1","5","10","8","stimuli/stars_10.png","370.5","[""CC"",""FO"",""DO"",""SC""]","[""BM03"",""HF10"",""AM09"",""HM02""]","[4,10,5,8]","[2,8,4,6]","","",""
"show-reward","196","426426","0.0-196.0","p866277","AD1WGUMVD6KED","3RDTX9JRTZ7MP6YQMJD0Z3DG4HK978","3QBD8R3Z23PV0QI7CC3CI1JKRRLO4F","emotion","match","uniform","","","","","","","","427876.7000000477","429884.89999985695","","","","","","","","","","","","10","","stimuli/stars_10.png","370.5","","","","","stimuli/HF10_FO.jpg","",""
"explore-choice","197","427863","0.0-197.0","p866277","AD1WGUMVD6KED","3RDTX9JRTZ7MP6YQMJD0Z3DG4HK978","3QBD8R3Z23PV0QI7CC3CI1JKRRLO4F","emotion","match","uniform","","","","","","","927.8999998569489","429885.5","430813.39999985695","[""stimuli/AM09_CC.jpg"",""stimuli/HM02_FO.jpg"",""stimuli/BM03_SC.jpg"",""stimuli/HF10_DO.jpg""]","stimuli/AM09_CC.jpg","stimuli/HM02_FO.jpg","stimuli/BM03_SC.jpg","stimuli/HF10_DO.jpg","pos2","stimuli/HM02_FO.jpg","FO","HM02","1","3.5","7","8","stimuli/stars_7.png","374","[""CC"",""FO"",""SC"",""DO""]","[""AM09"",""HM02"",""BM03"",""HF10""]","[2,7,8,2]","[2,8,6,4]","","",""
"show-reward","198","429866","0.0-198.0","p866277","AD1WGUMVD6KED","3RDTX9JRTZ7MP6YQMJD0Z3DG4HK978","3QBD8R3Z23PV0QI7CC3CI1JKRRLO4F","emotion","match","uniform","","","","","","","","431322.7999999523","433325.09999990463","","","","","","","","","","","","7","","stimuli/stars_7.png","374","","","","","stimuli/HM02_FO.jpg","",""
"instructions","199","435628","0.0-199.0","p866277","AD1WGUMVD6KED","3RDTX9JRTZ7MP6YQMJD0Z3DG4HK978","3QBD8R3Z23PV0QI7CC3CI1JKRRLO4F","emotion","match","uniform","","","","","","[{""page_index"":0,""viewing_time"":5761.399999856949}]","5761.899999856949","","","","","","","","","","","","","","","","","","","","","","","",""
"survey-text","200","438011","0.0-200.0-0.0","p866277","AD1WGUMVD6KED","3RDTX9JRTZ7MP6YQMJD0Z3DG4HK978","3QBD8R3Z23PV0QI7CC3CI1JKRRLO4F","emotion","match","uniform","","","","","","","2377.899999856949","","","","","","","","","","","","","","","","","","","","","","","{""age"":""40""}",""
"survey-text","201","440273","0.0-200.0-1.0","p866277","AD1WGUMVD6KED","3RDTX9JRTZ7MP6YQMJD0Z3DG4HK978","3QBD8R3Z23PV0QI7CC3CI1JKRRLO4F","emotion","match","uniform","","","","","","","2260","","","","","","","","","","","","","","","","","","","","","","","{""gender"":""female""}",""
"survey-text","202","443549","0.0-200.0-2.0","p866277","AD1WGUMVD6KED","3RDTX9JRTZ7MP6YQMJD0Z3DG4HK978","3QBD8R3Z23PV0QI7CC3CI1JKRRLO4F","emotion","match","uniform","","","","","","","3273.300000190735","","","","","","","","","","","","","","","","","","","","","","","{""country"":""USA""}",""
"survey-text","203","448352","0.0-200.0-3.0","p866277","AD1WGUMVD6KED","3RDTX9JRTZ7MP6YQMJD0Z3DG4HK978","3QBD8R3Z23PV0QI7CC3CI1JKRRLO4F","emotion","match","uniform","","","","","","","4800.699999809265","","","","","","","","","","","","","","","","","","","","","","","{""language"":""English"",""other_languages"":""n/a""}",""
"survey-multi-select","204","449869","0.0-201.0","p866277","AD1WGUMVD6KED","3RDTX9JRTZ7MP6YQMJD0Z3DG4HK978","3QBD8R3Z23PV0QI7CC3CI1JKRRLO4F","emotion","match","uniform","","","","","","","1513.1999998092651","","","","","","","","","","","","","","","","","","","","","","","{""race"":[""White""]}","[0]"
"survey-multi-choice","205","451759","0.0-202.0","p866277","AD1WGUMVD6KED","3RDTX9JRTZ7MP6YQMJD0Z3DG4HK978","3QBD8R3Z23PV0QI7CC3CI1JKRRLO4F","emotion","match","uniform","","","","","","","1886.5999999046326","","","","","","","","","","","","","","","","","","","","","","","{""education"":""High school""}","[0]"
"survey-text","206","541582","0.0-203.0","p866277","AD1WGUMVD6KED","3RDTX9JRTZ7MP6YQMJD0Z3DG4HK978","3QBD8R3Z23PV0QI7CC3CI1JKRRLO4F","emotion","match","uniform","","","","","","","89818.29999995232","","","","","","","","","","","","","","","","","","","","","","","{""patterns"":""It seemed that certain facial expressions consistently gave more stars. Such as the \""surprised\"" face. It didn't matter if it was different people, but any surprised facial expression seemed to give more stars."",""strategy"":""I picked until I got a face that gave over 5 stars, then I kept choosing that facial expression."",""comments"":""""}",""
