"trial_type","trial_index","time_elapsed","internal_node_id","subject","workerId","hitId","assignmentId","structure_condition","match_condition","noise_type","success","timeout","failed_images","failed_audio","failed_video","view_history","rt","start_time","end_time","stimuli","image1","image2","image3","image4","choiceLocation","choiceImage","choiceEmotion","choiceModel","choice_index","reward_score","reward","reward_score_unadjusted","reward_image","score_after_trial","emotions","models","rewards","rewards_unadjusted","stimulus","response","question_order"
"pavlovia","0","12","0.0-0.0","p822174","AB09F0Q4T10TE","3WRBLBQ2GSENM5LEFQY1C5PG0GV0GC","37Z929RLGBEUF3PQYULTAE5D4DESTH","emotion","mismatch","uniform","","","","","","","","","","","","","","","","","","","","","","","","","","","","","","",""
"preload","1","22162","0.0-1.0","p822174","AB09F0Q4T10TE","3WRBLBQ2GSENM5LEFQY1C5PG0GV0GC","37Z929RLGBEUF3PQYULTAE5D4DESTH","emotion","mismatch","uniform","true","false","[]","[]","[]","","","","","","","","","","","","","","","","","","","","","","","","","",""
"fullscreen","2","110896","0.0-2.0","p822174","AB09F0Q4T10TE","3WRBLBQ2GSENM5LEFQY1C5PG0GV0GC","37Z929RLGBEUF3PQYULTAE5D4DESTH","emotion","mismatch","uniform","true","","","","","","","","","","","","","","","","","","","","","","","","","","","","","",""
"instructions","3","114907","0.0-3.0","p822174","AB09F0Q4T10TE","3WRBLBQ2GSENM5LEFQY1C5PG0GV0GC","37Z929RLGBEUF3PQYULTAE5D4DESTH","emotion","mismatch","uniform","","","","","","[{""page_index"":0,""viewing_time"":4008.5999999046326}]","4009.399999856949","","","","","","","","","","","","","","","","","","","","","","","",""
"explore-choice","4","117627","0.0-4.0","p822174","AB09F0Q4T10TE","3WRBLBQ2GSENM5LEFQY1C5PG0GV0GC","37Z929RLGBEUF3PQYULTAE5D4DESTH","emotion","mismatch","uniform","","","","","","","2210","116488.90000009537","118698.90000009537","[""stimuli/sheep.jpg"",""stimuli/hammer.jpg"",""stimuli/basketball.jpg"",""stimuli/horse.jpg""]","stimuli/sheep.jpg","stimuli/hammer.jpg","stimuli/basketball.jpg","stimuli/horse.jpg","pos4","stimuli/horse.jpg","","","3","64","64","64","stimuli/stars_8.png","65","","","","","","",""
"explore-choice","5","119417","0.0-5.0","p822174","AB09F0Q4T10TE","3WRBLBQ2GSENM5LEFQY1C5PG0GV0GC","37Z929RLGBEUF3PQYULTAE5D4DESTH","emotion","mismatch","uniform","","","","","","","1283.6000001430511","119208.79999995232","120492.40000009537","[""stimuli/hammer.jpg"",""stimuli/basketball.jpg"",""stimuli/horse.jpg"",""stimuli/sheep.jpg""]","stimuli/hammer.jpg","stimuli/basketball.jpg","stimuli/horse.jpg","stimuli/sheep.jpg","pos1","stimuli/hammer.jpg","","","0","8","8","8","stimuli/stars_2.png","9","","","","","","",""
"instructions","6","130814","0.0-6.0","p822174","AB09F0Q4T10TE","3WRBLBQ2GSENM5LEFQY1C5PG0GV0GC","37Z929RLGBEUF3PQYULTAE5D4DESTH","emotion","mismatch","uniform","","","","","","[{""page_index"":0,""viewing_time"":11395.400000095367}]","11395.700000047684","","","","","","","","","","","","","","","","","","","","","","","",""
"explore-choice","7","136223","0.0-7.0","p822174","AB09F0Q4T10TE","3WRBLBQ2GSENM5LEFQY1C5PG0GV0GC","37Z929RLGBEUF3PQYULTAE5D4DESTH","emotion","mismatch","uniform","","","","","","","4890.899999856949","132396.40000009537","137287.29999995232","[""stimuli/BF04_HO.jpg"",""stimuli/BM16_AO.jpg"",""stimuli/AM05_CC.jpg"",""stimuli/HM10_DO.jpg""]","stimuli/BF04_HO.jpg","stimuli/BM16_AO.jpg","stimuli/AM05_CC.jpg","stimuli/HM10_DO.jpg","pos1","stimuli/BF04_HO.jpg","HO","BF04","0","0","0","2","stimuli/stars_0.png","1","[""HO"",""AO"",""CC"",""DO""]","[""BF04"",""BM16"",""AM05"",""HM10""]","[0,7,10,5]","[2,6,8,4]","","",""
"show-reward","8","138230","0.0-8.0","p822174","AB09F0Q4T10TE","3WRBLBQ2GSENM5LEFQY1C5PG0GV0GC","37Z929RLGBEUF3PQYULTAE5D4DESTH","emotion","mismatch","uniform","","","","","","","","137807","139810.20000004768","","","","","","","","","","","","0","","stimuli/stars_0.png","1","","","","","stimuli/BF04_HO.jpg","",""
"explore-choice","9","142216","0.0-9.0","p822174","AB09F0Q4T10TE","3WRBLBQ2GSENM5LEFQY1C5PG0GV0GC","37Z929RLGBEUF3PQYULTAE5D4DESTH","emotion","mismatch","uniform","","","","","","","3483.7000000476837","139811.5","143295.20000004768","[""stimuli/BM16_AO.jpg"",""stimuli/HM10_CC.jpg"",""stimuli/BF04_DO.jpg"",""stimuli/AM05_HO.jpg""]","stimuli/BM16_AO.jpg","stimuli/HM10_CC.jpg","stimuli/BF04_DO.jpg","stimuli/AM05_HO.jpg","pos4","stimuli/AM05_HO.jpg","HO","AM05","3","1","2","2","stimuli/stars_2.png","2","[""AO"",""CC"",""DO"",""HO""]","[""BM16"",""HM10"",""BF04"",""AM05""]","[7,9,6,2]","[6,8,4,2]","","",""
"show-reward","10","144233","0.0-10.0","p822174","AB09F0Q4T10TE","3WRBLBQ2GSENM5LEFQY1C5PG0GV0GC","37Z929RLGBEUF3PQYULTAE5D4DESTH","emotion","mismatch","uniform","","","","","","","","143797.90000009537","145813.59999990463","","","","","","","","","","","","2","","stimuli/stars_2.png","2","","","","","stimuli/AM05_HO.jpg","",""
"explore-choice","11","146096","0.0-11.0","p822174","AB09F0Q4T10TE","3WRBLBQ2GSENM5LEFQY1C5PG0GV0GC","37Z929RLGBEUF3PQYULTAE5D4DESTH","emotion","mismatch","uniform","","","","","","","1351.5999999046326","145814.70000004768","147166.29999995232","[""stimuli/HM10_DO.jpg"",""stimuli/BF04_CC.jpg"",""stimuli/BM16_AO.jpg"",""stimuli/AM05_HO.jpg""]","stimuli/HM10_DO.jpg","stimuli/BF04_CC.jpg","stimuli/BM16_AO.jpg","stimuli/AM05_HO.jpg","pos1","stimuli/HM10_DO.jpg","DO","HM10","0","1.5","3","4","stimuli/stars_3.png","3.5","[""DO"",""CC"",""AO"",""HO""]","[""HM10"",""BF04"",""BM16"",""AM05""]","[3,10,4,4]","[4,8,6,2]","","",""
"show-reward","12","148102","0.0-12.0","p822174","AB09F0Q4T10TE","3WRBLBQ2GSENM5LEFQY1C5PG0GV0GC","37Z929RLGBEUF3PQYULTAE5D4DESTH","emotion","mismatch","uniform","","","","","","","","147678","149682.5","","","","","","","","","","","","3","","stimuli/stars_3.png","3.5","","","","","stimuli/HM10_DO.jpg","",""
"explore-choice","13","149866","0.0-13.0","p822174","AB09F0Q4T10TE","3WRBLBQ2GSENM5LEFQY1C5PG0GV0GC","37Z929RLGBEUF3PQYULTAE5D4DESTH","emotion","mismatch","uniform","","","","","","","1249.7999999523163","149683.40000009537","150933.20000004768","[""stimuli/BM16_HO.jpg"",""stimuli/BF04_DO.jpg"",""stimuli/AM05_CC.jpg"",""stimuli/HM10_AO.jpg""]","stimuli/BM16_HO.jpg","stimuli/BF04_DO.jpg","stimuli/AM05_CC.jpg","stimuli/HM10_AO.jpg","pos1","stimuli/BM16_HO.jpg","HO","BM16","0","0","0","2","stimuli/stars_0.png","3.5","[""HO"",""DO"",""CC"",""AO""]","[""BM16"",""BF04"",""AM05"",""HM10""]","[0,6,7,4]","[2,4,8,6]","","",""
"show-reward","14","151875","0.0-14.0","p822174","AB09F0Q4T10TE","3WRBLBQ2GSENM5LEFQY1C5PG0GV0GC","37Z929RLGBEUF3PQYULTAE5D4DESTH","emotion","mismatch","uniform","","","","","","","","151448.29999995232","153455.70000004768","","","","","","","","","","","","0","","stimuli/stars_0.png","3.5","","","","","stimuli/BM16_HO.jpg","",""
"explore-choice","15","156333","0.0-15.0","p822174","AB09F0Q4T10TE","3WRBLBQ2GSENM5LEFQY1C5PG0GV0GC","37Z929RLGBEUF3PQYULTAE5D4DESTH","emotion","mismatch","uniform","","","","","","","3952.0999999046326","153457.20000004768","157409.29999995232","[""stimuli/BF04_CC.jpg"",""stimuli/BM16_HO.jpg"",""stimuli/AM05_DO.jpg"",""stimuli/HM10_AO.jpg""]","stimuli/BF04_CC.jpg","stimuli/BM16_HO.jpg","stimuli/AM05_DO.jpg","stimuli/HM10_AO.jpg","pos3","stimuli/AM05_DO.jpg","DO","AM05","2","1.5","3","4","stimuli/stars_3.png","5","[""CC"",""HO"",""DO"",""AO""]","[""BF04"",""BM16"",""AM05"",""HM10""]","[9,4,3,6]","[8,2,4,6]","","",""
"show-reward","16","158338","0.0-16.0","p822174","AB09F0Q4T10TE","3WRBLBQ2GSENM5LEFQY1C5PG0GV0GC","37Z929RLGBEUF3PQYULTAE5D4DESTH","emotion","mismatch","uniform","","","","","","","","157914.90000009537","159918.70000004768","","","","","","","","","","","","3","","stimuli/stars_3.png","5","","","","","stimuli/AM05_DO.jpg","",""
"explore-choice","17","164366","0.0-17.0","p822174","AB09F0Q4T10TE","3WRBLBQ2GSENM5LEFQY1C5PG0GV0GC","37Z929RLGBEUF3PQYULTAE5D4DESTH","emotion","mismatch","uniform","","","","","","","5518.399999856949","159919.70000004768","165438.09999990463","[""stimuli/HM10_HO.jpg"",""stimuli/AM05_CC.jpg"",""stimuli/BF04_DO.jpg"",""stimuli/BM16_AO.jpg""]","stimuli/HM10_HO.jpg","stimuli/AM05_CC.jpg","stimuli/BF04_DO.jpg","stimuli/BM16_AO.jpg","pos1","stimuli/HM10_HO.jpg","HO","HM10","0","2","4","2","stimuli/stars_4.png","7","[""HO"",""CC"",""DO"",""AO""]","[""HM10"",""AM05"",""BF04"",""BM16""]","[4,10,5,5]","[2,8,4,6]","","",""
"show-reward","18","166371","0.0-18.0","p822174","AB09F0Q4T10TE","3WRBLBQ2GSENM5LEFQY1C5PG0GV0GC","37Z929RLGBEUF3PQYULTAE5D4DESTH","emotion","mismatch","uniform","","","","","","","","165947.20000004768","167951.29999995232","","","","","","","","","","","","4","","stimuli/stars_4.png","7","","","","","stimuli/HM10_HO.jpg","",""
"explore-choice","19","168010","0.0-19.0","p822174","AB09F0Q4T10TE","3WRBLBQ2GSENM5LEFQY1C5PG0GV0GC","37Z929RLGBEUF3PQYULTAE5D4DESTH","emotion","mismatch","uniform","","","","","","","1128.0999999046326","167952.20000004768","169080.29999995232","[""stimuli/AM05_AO.jpg"",""stimuli/BM16_CC.jpg"",""stimuli/HM10_DO.jpg"",""stimuli/BF04_HO.jpg""]","stimuli/AM05_AO.jpg","stimuli/BM16_CC.jpg","stimuli/HM10_DO.jpg","stimuli/BF04_HO.jpg","pos3","stimuli/HM10_DO.jpg","DO","HM10","2","1","2","4","stimuli/stars_2.png","8","[""AO"",""CC"",""DO"",""HO""]","[""AM05"",""BM16"",""HM10"",""BF04""]","[4,7,2,2]","[6,8,4,2]","","",""
"show-reward","20","170013","0.0-20.0","p822174","AB09F0Q4T10TE","3WRBLBQ2GSENM5LEFQY1C5PG0GV0GC","37Z929RLGBEUF3PQYULTAE5D4DESTH","emotion","mismatch","uniform","","","","","","","","169591.59999990463","171593.79999995232","","","","","","","","","","","","2","","stimuli/stars_2.png","8","","","","","stimuli/HM10_DO.jpg","",""
"explore-choice","21","175720","0.0-21.0","p822174","AB09F0Q4T10TE","3WRBLBQ2GSENM5LEFQY1C5PG0GV0GC","37Z929RLGBEUF3PQYULTAE5D4DESTH","emotion","mismatch","uniform","","","","","","","5203.099999904633","171595","176798.09999990463","[""stimuli/BF04_AO.jpg"",""stimuli/HM10_DO.jpg"",""stimuli/AM05_CC.jpg"",""stimuli/BM16_HO.jpg""]","stimuli/BF04_AO.jpg","stimuli/HM10_DO.jpg","stimuli/AM05_CC.jpg","stimuli/BM16_HO.jpg","pos3","stimuli/AM05_CC.jpg","CC","AM05","2","3.5","7","8","stimuli/stars_7.png","11.5","[""AO"",""DO"",""CC"",""HO""]","[""BF04"",""HM10"",""AM05"",""BM16""]","[8,3,7,1]","[6,4,8,2]","","",""
"show-reward","22","177725","0.0-22.0","p822174","AB09F0Q4T10TE","3WRBLBQ2GSENM5LEFQY1C5PG0GV0GC","37Z929RLGBEUF3PQYULTAE5D4DESTH","emotion","mismatch","uniform","","","","","","","","177302.90000009537","179305.90000009537","","","","","","","","","","","","7","","stimuli/stars_7.png","11.5","","","","","stimuli/AM05_CC.jpg","",""
"explore-choice","23","180019","0.0-23.0","p822174","AB09F0Q4T10TE","3WRBLBQ2GSENM5LEFQY1C5PG0GV0GC","37Z929RLGBEUF3PQYULTAE5D4DESTH","emotion","mismatch","uniform","","","","","","","1786.7999999523163","179307.20000004768","181094","[""stimuli/AM05_CC.jpg"",""stimuli/BM16_DO.jpg"",""stimuli/BF04_AO.jpg"",""stimuli/HM10_HO.jpg""]","stimuli/AM05_CC.jpg","stimuli/BM16_DO.jpg","stimuli/BF04_AO.jpg","stimuli/HM10_HO.jpg","pos1","stimuli/AM05_CC.jpg","CC","AM05","0","3.5","7","8","stimuli/stars_7.png","15","[""CC"",""DO"",""AO"",""HO""]","[""AM05"",""BM16"",""BF04"",""HM10""]","[7,2,8,0]","[8,4,6,2]","","",""
"show-reward","24","182027","0.0-24.0","p822174","AB09F0Q4T10TE","3WRBLBQ2GSENM5LEFQY1C5PG0GV0GC","37Z929RLGBEUF3PQYULTAE5D4DESTH","emotion","mismatch","uniform","","","","","","","","181600.70000004768","183608.09999990463","","","","","","","","","","","","7","","stimuli/stars_7.png","15","","","","","stimuli/AM05_CC.jpg","",""
"explore-choice","25","185425","0.0-25.0","p822174","AB09F0Q4T10TE","3WRBLBQ2GSENM5LEFQY1C5PG0GV0GC","37Z929RLGBEUF3PQYULTAE5D4DESTH","emotion","mismatch","uniform","","","","","","","2883.7000000476837","183609.29999995232","186493","[""stimuli/BM16_HO.jpg"",""stimuli/BF04_AO.jpg"",""stimuli/AM05_DO.jpg"",""stimuli/HM10_CC.jpg""]","stimuli/BM16_HO.jpg","stimuli/BF04_AO.jpg","stimuli/AM05_DO.jpg","stimuli/HM10_CC.jpg","pos4","stimuli/HM10_CC.jpg","CC","HM10","3","3.5","7","8","stimuli/stars_7.png","18.5","[""HO"",""AO"",""DO"",""CC""]","[""BM16"",""BF04"",""AM05"",""HM10""]","[1,5,3,7]","[2,6,4,8]","","",""
"show-reward","26","187431","0.0-26.0","p822174","AB09F0Q4T10TE","3WRBLBQ2GSENM5LEFQY1C5PG0GV0GC","37Z929RLGBEUF3PQYULTAE5D4DESTH","emotion","mismatch","uniform","","","","","","","","187007.09999990463","189011.59999990463","","","","","","","","","","","","7","","stimuli/stars_7.png","18.5","","","","","stimuli/HM10_CC.jpg","",""
"explore-choice","27","190078","0.0-27.0","p822174","AB09F0Q4T10TE","3WRBLBQ2GSENM5LEFQY1C5PG0GV0GC","37Z929RLGBEUF3PQYULTAE5D4DESTH","emotion","mismatch","uniform","","","","","","","2144","189012.79999995232","191156.79999995232","[""stimuli/AM05_HO.jpg"",""stimuli/HM10_DO.jpg"",""stimuli/BF04_AO.jpg"",""stimuli/BM16_CC.jpg""]","stimuli/AM05_HO.jpg","stimuli/HM10_DO.jpg","stimuli/BF04_AO.jpg","stimuli/BM16_CC.jpg","pos4","stimuli/BM16_CC.jpg","CC","BM16","3","4","8","8","stimuli/stars_8.png","22.5","[""HO"",""DO"",""AO"",""CC""]","[""AM05"",""HM10"",""BF04"",""BM16""]","[2,3,5,8]","[2,4,6,8]","","",""
"show-reward","28","192093","0.0-28.0","p822174","AB09F0Q4T10TE","3WRBLBQ2GSENM5LEFQY1C5PG0GV0GC","37Z929RLGBEUF3PQYULTAE5D4DESTH","emotion","mismatch","uniform","","","","","","","","191659.70000004768","193674","","","","","","","","","","","","8","","stimuli/stars_8.png","22.5","","","","","stimuli/BM16_CC.jpg","",""
"explore-choice","29","194533","0.0-29.0","p822174","AB09F0Q4T10TE","3WRBLBQ2GSENM5LEFQY1C5PG0GV0GC","37Z929RLGBEUF3PQYULTAE5D4DESTH","emotion","mismatch","uniform","","","","","","","1929.4000000953674","193675.5","195604.90000009537","[""stimuli/BF04_DO.jpg"",""stimuli/AM05_AO.jpg"",""stimuli/HM10_HO.jpg"",""stimuli/BM16_CC.jpg""]","stimuli/BF04_DO.jpg","stimuli/AM05_AO.jpg","stimuli/HM10_HO.jpg","stimuli/BM16_CC.jpg","pos1","stimuli/BF04_DO.jpg","DO","BF04","0","2.5","5","4","stimuli/stars_5.png","25","[""DO"",""AO"",""HO"",""CC""]","[""BF04"",""AM05"",""HM10"",""BM16""]","[5,7,0,9]","[4,6,2,8]","","",""
"show-reward","30","196551","0.0-30.0","p822174","AB09F0Q4T10TE","3WRBLBQ2GSENM5LEFQY1C5PG0GV0GC","37Z929RLGBEUF3PQYULTAE5D4DESTH","emotion","mismatch","uniform","","","","","","","","196114.40000009537","198131.70000004768","","","","","","","","","","","","5","","stimuli/stars_5.png","25","","","","","stimuli/BF04_DO.jpg","",""
"explore-choice","31","199526","0.0-31.0","p822174","AB09F0Q4T10TE","3WRBLBQ2GSENM5LEFQY1C5PG0GV0GC","37Z929RLGBEUF3PQYULTAE5D4DESTH","emotion","mismatch","uniform","","","","","","","2464.800000190735","198133.09999990463","200597.90000009537","[""stimuli/HM10_AO.jpg"",""stimuli/BF04_HO.jpg"",""stimuli/BM16_CC.jpg"",""stimuli/AM05_DO.jpg""]","stimuli/HM10_AO.jpg","stimuli/BF04_HO.jpg","stimuli/BM16_CC.jpg","stimuli/AM05_DO.jpg","pos4","stimuli/AM05_DO.jpg","DO","AM05","3","2.5","5","4","stimuli/stars_5.png","27.5","[""AO"",""HO"",""CC"",""DO""]","[""HM10"",""BF04"",""BM16"",""AM05""]","[5,3,9,5]","[6,2,8,4]","","",""
"show-reward","32","201532","0.0-32.0","p822174","AB09F0Q4T10TE","3WRBLBQ2GSENM5LEFQY1C5PG0GV0GC","37Z929RLGBEUF3PQYULTAE5D4DESTH","emotion","mismatch","uniform","","","","","","","","201108.5","203112.70000004768","","","","","","","","","","","","5","","stimuli/stars_5.png","27.5","","","","","stimuli/AM05_DO.jpg","",""
"explore-choice","33","204477","0.0-33.0","p822174","AB09F0Q4T10TE","3WRBLBQ2GSENM5LEFQY1C5PG0GV0GC","37Z929RLGBEUF3PQYULTAE5D4DESTH","emotion","mismatch","uniform","","","","","","","2444.0999999046326","203113.70000004768","205557.79999995232","[""stimuli/HM10_CC.jpg"",""stimuli/BF04_HO.jpg"",""stimuli/AM05_AO.jpg"",""stimuli/BM16_DO.jpg""]","stimuli/HM10_CC.jpg","stimuli/BF04_HO.jpg","stimuli/AM05_AO.jpg","stimuli/BM16_DO.jpg","pos1","stimuli/HM10_CC.jpg","CC","HM10","0","3.5","7","8","stimuli/stars_7.png","31","[""CC"",""HO"",""AO"",""DO""]","[""HM10"",""BF04"",""AM05"",""BM16""]","[7,4,5,5]","[8,2,6,4]","","",""
"show-reward","34","206492","0.0-34.0","p822174","AB09F0Q4T10TE","3WRBLBQ2GSENM5LEFQY1C5PG0GV0GC","37Z929RLGBEUF3PQYULTAE5D4DESTH","emotion","mismatch","uniform","","","","","","","","206059.29999995232","208072.5","","","","","","","","","","","","7","","stimuli/stars_7.png","31","","","","","stimuli/HM10_CC.jpg","",""
"explore-choice","35","209322","0.0-35.0","p822174","AB09F0Q4T10TE","3WRBLBQ2GSENM5LEFQY1C5PG0GV0GC","37Z929RLGBEUF3PQYULTAE5D4DESTH","emotion","mismatch","uniform","","","","","","","2320.0999999046326","208073.70000004768","210393.79999995232","[""stimuli/AM05_CC.jpg"",""stimuli/BM16_DO.jpg"",""stimuli/HM10_AO.jpg"",""stimuli/BF04_HO.jpg""]","stimuli/AM05_CC.jpg","stimuli/BM16_DO.jpg","stimuli/HM10_AO.jpg","stimuli/BF04_HO.jpg","pos4","stimuli/BF04_HO.jpg","HO","BF04","3","0","0","2","stimuli/stars_0.png","31","[""CC"",""DO"",""AO"",""HO""]","[""AM05"",""BM16"",""HM10"",""BF04""]","[7,3,5,0]","[8,4,6,2]","","",""
"show-reward","36","211332","0.0-36.0","p822174","AB09F0Q4T10TE","3WRBLBQ2GSENM5LEFQY1C5PG0GV0GC","37Z929RLGBEUF3PQYULTAE5D4DESTH","emotion","mismatch","uniform","","","","","","","","210903.79999995232","212913.20000004768","","","","","","","","","","","","0","","stimuli/stars_0.png","31","","","","","stimuli/BF04_HO.jpg","",""
"explore-choice","37","213213","0.0-37.0","p822174","AB09F0Q4T10TE","3WRBLBQ2GSENM5LEFQY1C5PG0GV0GC","37Z929RLGBEUF3PQYULTAE5D4DESTH","emotion","mismatch","uniform","","","","","","","1376.1000001430511","212916.59999990463","214292.70000004768","[""stimuli/BM16_AO.jpg"",""stimuli/AM05_DO.jpg"",""stimuli/HM10_CC.jpg"",""stimuli/BF04_HO.jpg""]","stimuli/BM16_AO.jpg","stimuli/AM05_DO.jpg","stimuli/HM10_CC.jpg","stimuli/BF04_HO.jpg","pos2","stimuli/AM05_DO.jpg","DO","AM05","1","2","4","4","stimuli/stars_4.png","33","[""AO"",""DO"",""CC"",""HO""]","[""BM16"",""AM05"",""HM10"",""BF04""]","[7,4,8,3]","[6,4,8,2]","","",""
"show-reward","38","215220","0.0-38.0","p822174","AB09F0Q4T10TE","3WRBLBQ2GSENM5LEFQY1C5PG0GV0GC","37Z929RLGBEUF3PQYULTAE5D4DESTH","emotion","mismatch","uniform","","","","","","","","214795.20000004768","216800.29999995232","","","","","","","","","","","","4","","stimuli/stars_4.png","33","","","","","stimuli/AM05_DO.jpg","",""
"explore-choice","39","217762","0.0-39.0","p822174","AB09F0Q4T10TE","3WRBLBQ2GSENM5LEFQY1C5PG0GV0GC","37Z929RLGBEUF3PQYULTAE5D4DESTH","emotion","mismatch","uniform","","","","","","","2029.7999999523163","216801.79999995232","218831.59999990463","[""stimuli/AM05_AO.jpg"",""stimuli/HM10_DO.jpg"",""stimuli/BM16_HO.jpg"",""stimuli/BF04_CC.jpg""]","stimuli/AM05_AO.jpg","stimuli/HM10_DO.jpg","stimuli/BM16_HO.jpg","stimuli/BF04_CC.jpg","pos2","stimuli/HM10_DO.jpg","DO","HM10","1","2.5","5","4","stimuli/stars_5.png","35.5","[""AO"",""DO"",""HO"",""CC""]","[""AM05"",""HM10"",""BM16"",""BF04""]","[7,5,1,9]","[6,4,2,8]","","",""
"show-reward","40","219772","0.0-40.0","p822174","AB09F0Q4T10TE","3WRBLBQ2GSENM5LEFQY1C5PG0GV0GC","37Z929RLGBEUF3PQYULTAE5D4DESTH","emotion","mismatch","uniform","","","","","","","","219344","221352.5","","","","","","","","","","","","5","","stimuli/stars_5.png","35.5","","","","","stimuli/HM10_DO.jpg","",""
"explore-choice","41","222652","0.0-41.0","p822174","AB09F0Q4T10TE","3WRBLBQ2GSENM5LEFQY1C5PG0GV0GC","37Z929RLGBEUF3PQYULTAE5D4DESTH","emotion","mismatch","uniform","","","","","","","2364.899999856949","221353.70000004768","223718.59999990463","[""stimuli/BM16_CC.jpg"",""stimuli/HM10_HO.jpg"",""stimuli/AM05_DO.jpg"",""stimuli/BF04_AO.jpg""]","stimuli/BM16_CC.jpg","stimuli/HM10_HO.jpg","stimuli/AM05_DO.jpg","stimuli/BF04_AO.jpg","pos3","stimuli/AM05_DO.jpg","DO","AM05","2","2.5","5","4","stimuli/stars_5.png","38","[""CC"",""HO"",""DO"",""AO""]","[""BM16"",""HM10"",""AM05"",""BF04""]","[7,0,5,4]","[8,2,4,6]","","",""
"show-reward","42","224667","0.0-42.0","p822174","AB09F0Q4T10TE","3WRBLBQ2GSENM5LEFQY1C5PG0GV0GC","37Z929RLGBEUF3PQYULTAE5D4DESTH","emotion","mismatch","uniform","","","","","","","","224234.29999995232","226247.90000009537","","","","","","","","","","","","5","","stimuli/stars_5.png","38","","","","","stimuli/AM05_DO.jpg","",""
"explore-choice","43","228131","0.0-43.0","p822174","AB09F0Q4T10TE","3WRBLBQ2GSENM5LEFQY1C5PG0GV0GC","37Z929RLGBEUF3PQYULTAE5D4DESTH","emotion","mismatch","uniform","","","","","","","2962.7999999523163","226248.90000009537","229211.70000004768","[""stimuli/BM16_HO.jpg"",""stimuli/BF04_DO.jpg"",""stimuli/HM10_CC.jpg"",""stimuli/AM05_AO.jpg""]","stimuli/BM16_HO.jpg","stimuli/BF04_DO.jpg","stimuli/HM10_CC.jpg","stimuli/AM05_AO.jpg","pos3","stimuli/HM10_CC.jpg","CC","HM10","2","4","8","8","stimuli/stars_8.png","42","[""HO"",""DO"",""CC"",""AO""]","[""BM16"",""BF04"",""HM10"",""AM05""]","[1,4,8,6]","[2,4,8,6]","","",""
"show-reward","44","230134","0.0-44.0","p822174","AB09F0Q4T10TE","3WRBLBQ2GSENM5LEFQY1C5PG0GV0GC","37Z929RLGBEUF3PQYULTAE5D4DESTH","emotion","mismatch","uniform","","","","","","","","229713.09999990463","231715","","","","","","","","","","","","8","","stimuli/stars_8.png","42","","","","","stimuli/HM10_CC.jpg","",""
"explore-choice","45","231793","0.0-45.0","p822174","AB09F0Q4T10TE","3WRBLBQ2GSENM5LEFQY1C5PG0GV0GC","37Z929RLGBEUF3PQYULTAE5D4DESTH","emotion","mismatch","uniform","","","","","","","1152.5","231716.20000004768","232868.70000004768","[""stimuli/BF04_AO.jpg"",""stimuli/HM10_CC.jpg"",""stimuli/AM05_HO.jpg"",""stimuli/BM16_DO.jpg""]","stimuli/BF04_AO.jpg","stimuli/HM10_CC.jpg","stimuli/AM05_HO.jpg","stimuli/BM16_DO.jpg","pos3","stimuli/AM05_HO.jpg","HO","AM05","2","2","4","2","stimuli/stars_4.png","44","[""AO"",""CC"",""HO"",""DO""]","[""BF04"",""HM10"",""AM05"",""BM16""]","[4,8,4,6]","[6,8,2,4]","","",""
"show-reward","46","233797","0.0-46.0","p822174","AB09F0Q4T10TE","3WRBLBQ2GSENM5LEFQY1C5PG0GV0GC","37Z929RLGBEUF3PQYULTAE5D4DESTH","emotion","mismatch","uniform","","","","","","","","233374.59999990463","235378","","","","","","","","","","","","4","","stimuli/stars_4.png","44","","","","","stimuli/AM05_HO.jpg","",""
"explore-choice","47","235573","0.0-47.0","p822174","AB09F0Q4T10TE","3WRBLBQ2GSENM5LEFQY1C5PG0GV0GC","37Z929RLGBEUF3PQYULTAE5D4DESTH","emotion","mismatch","uniform","","","","","","","1262.3999998569489","235379.20000004768","236641.59999990463","[""stimuli/BF04_DO.jpg"",""stimuli/AM05_HO.jpg"",""stimuli/HM10_AO.jpg"",""stimuli/BM16_CC.jpg""]","stimuli/BF04_DO.jpg","stimuli/AM05_HO.jpg","stimuli/HM10_AO.jpg","stimuli/BM16_CC.jpg","pos2","stimuli/AM05_HO.jpg","HO","AM05","1","2","4","2","stimuli/stars_4.png","46","[""DO"",""HO"",""AO"",""CC""]","[""BF04"",""AM05"",""HM10"",""BM16""]","[6,4,4,10]","[4,2,6,8]","","",""
"show-reward","48","237577","0.0-48.0","p822174","AB09F0Q4T10TE","3WRBLBQ2GSENM5LEFQY1C5PG0GV0GC","37Z929RLGBEUF3PQYULTAE5D4DESTH","emotion","mismatch","uniform","","","","","","","","237155","239157.79999995232","","","","","","","","","","","","4","","stimuli/stars_4.png","46","","","","","stimuli/AM05_HO.jpg","",""
"explore-choice","49","240658","0.0-49.0","p822174","AB09F0Q4T10TE","3WRBLBQ2GSENM5LEFQY1C5PG0GV0GC","37Z929RLGBEUF3PQYULTAE5D4DESTH","emotion","mismatch","uniform","","","","","","","2578.699999809265","239158.90000009537","241737.59999990463","[""stimuli/BF04_CC.jpg"",""stimuli/BM16_DO.jpg"",""stimuli/AM05_AO.jpg"",""stimuli/HM10_HO.jpg""]","stimuli/BF04_CC.jpg","stimuli/BM16_DO.jpg","stimuli/AM05_AO.jpg","stimuli/HM10_HO.jpg","pos1","stimuli/BF04_CC.jpg","CC","BF04","0","5","10","8","stimuli/stars_10.png","51","[""CC"",""DO"",""AO"",""HO""]","[""BF04"",""BM16"",""AM05"",""HM10""]","[10,3,6,2]","[8,4,6,2]","","",""
"show-reward","50","242665","0.0-50.0","p822174","AB09F0Q4T10TE","3WRBLBQ2GSENM5LEFQY1C5PG0GV0GC","37Z929RLGBEUF3PQYULTAE5D4DESTH","emotion","mismatch","uniform","","","","","","","","242239.90000009537","244246.09999990463","","","","","","","","","","","","10","","stimuli/stars_10.png","51","","","","","stimuli/BF04_CC.jpg","",""
"explore-choice","51","244104","0.0-51.0","p822174","AB09F0Q4T10TE","3WRBLBQ2GSENM5LEFQY1C5PG0GV0GC","37Z929RLGBEUF3PQYULTAE5D4DESTH","emotion","mismatch","uniform","","","","","","","936.5","244247.09999990463","245183.59999990463","[""stimuli/BF04_CC.jpg"",""stimuli/BM16_DO.jpg"",""stimuli/AM05_HO.jpg"",""stimuli/HM10_AO.jpg""]","stimuli/BF04_CC.jpg","stimuli/BM16_DO.jpg","stimuli/AM05_HO.jpg","stimuli/HM10_AO.jpg","pos2","stimuli/BM16_DO.jpg","DO","BM16","1","1.5","3","4","stimuli/stars_3.png","52.5","[""CC"",""DO"",""HO"",""AO""]","[""BF04"",""BM16"",""AM05"",""HM10""]","[6,3,4,8]","[8,4,2,6]","","",""
"show-reward","52","246121","0.0-52.0","p822174","AB09F0Q4T10TE","3WRBLBQ2GSENM5LEFQY1C5PG0GV0GC","37Z929RLGBEUF3PQYULTAE5D4DESTH","emotion","mismatch","uniform","","","","","","","","245685.40000009537","247701.59999990463","","","","","","","","","","","","3","","stimuli/stars_3.png","52.5","","","","","stimuli/BM16_DO.jpg","",""
"explore-choice","53","247375","0.0-53.0","p822174","AB09F0Q4T10TE","3WRBLBQ2GSENM5LEFQY1C5PG0GV0GC","37Z929RLGBEUF3PQYULTAE5D4DESTH","emotion","mismatch","uniform","","","","","","","753","247702.40000009537","248455.40000009537","[""stimuli/AM05_DO.jpg"",""stimuli/BM16_AO.jpg"",""stimuli/BF04_CC.jpg"",""stimuli/HM10_HO.jpg""]","stimuli/AM05_DO.jpg","stimuli/BM16_AO.jpg","stimuli/BF04_CC.jpg","stimuli/HM10_HO.jpg","pos4","stimuli/HM10_HO.jpg","HO","HM10","3","1.5","3","2","stimuli/stars_3.png","54","[""DO"",""AO"",""CC"",""HO""]","[""AM05"",""BM16"",""BF04"",""HM10""]","[6,8,9,3]","[4,6,8,2]","","",""
"show-reward","54","249380","0.0-54.0","p822174","AB09F0Q4T10TE","3WRBLBQ2GSENM5LEFQY1C5PG0GV0GC","37Z929RLGBEUF3PQYULTAE5D4DESTH","emotion","mismatch","uniform","","","","","","","","248956.90000009537","250960.79999995232","","","","","","","","","","","","3","","stimuli/stars_3.png","54","","","","","stimuli/HM10_HO.jpg","",""
"explore-choice","55","251426","0.0-55.0","p822174","AB09F0Q4T10TE","3WRBLBQ2GSENM5LEFQY1C5PG0GV0GC","37Z929RLGBEUF3PQYULTAE5D4DESTH","emotion","mismatch","uniform","","","","","","","1532.7000000476837","250961.70000004768","252494.40000009537","[""stimuli/BM16_CC.jpg"",""stimuli/HM10_DO.jpg"",""stimuli/BF04_HO.jpg"",""stimuli/AM05_AO.jpg""]","stimuli/BM16_CC.jpg","stimuli/HM10_DO.jpg","stimuli/BF04_HO.jpg","stimuli/AM05_AO.jpg","pos3","stimuli/BF04_HO.jpg","HO","BF04","2","1","2","2","stimuli/stars_2.png","55","[""CC"",""DO"",""HO"",""AO""]","[""BM16"",""HM10"",""BF04"",""AM05""]","[7,2,2,4]","[8,4,2,6]","","",""
"show-reward","56","253430","0.0-56.0","p822174","AB09F0Q4T10TE","3WRBLBQ2GSENM5LEFQY1C5PG0GV0GC","37Z929RLGBEUF3PQYULTAE5D4DESTH","emotion","mismatch","uniform","","","","","","","","253008","255011.29999995232","","","","","","","","","","","","2","","stimuli/stars_2.png","55","","","","","stimuli/BF04_HO.jpg","",""
"explore-choice","57","254794","0.0-57.0","p822174","AB09F0Q4T10TE","3WRBLBQ2GSENM5LEFQY1C5PG0GV0GC","37Z929RLGBEUF3PQYULTAE5D4DESTH","emotion","mismatch","uniform","","","","","","","860.1999998092651","255012.40000009537","255872.59999990463","[""stimuli/BF04_HO.jpg"",""stimuli/BM16_AO.jpg"",""stimuli/HM10_DO.jpg"",""stimuli/AM05_CC.jpg""]","stimuli/BF04_HO.jpg","stimuli/BM16_AO.jpg","stimuli/HM10_DO.jpg","stimuli/AM05_CC.jpg","pos4","stimuli/AM05_CC.jpg","CC","AM05","3","5","10","8","stimuli/stars_10.png","60","[""HO"",""AO"",""DO"",""CC""]","[""BF04"",""BM16"",""HM10"",""AM05""]","[0,7,5,10]","[2,6,4,8]","","",""
"show-reward","58","256808","0.0-58.0","p822174","AB09F0Q4T10TE","3WRBLBQ2GSENM5LEFQY1C5PG0GV0GC","37Z929RLGBEUF3PQYULTAE5D4DESTH","emotion","mismatch","uniform","","","","","","","","256375.70000004768","258389.09999990463","","","","","","","","","","","","10","","stimuli/stars_10.png","60","","","","","stimuli/AM05_CC.jpg","",""
"explore-choice","59","259035","0.0-59.0","p822174","AB09F0Q4T10TE","3WRBLBQ2GSENM5LEFQY1C5PG0GV0GC","37Z929RLGBEUF3PQYULTAE5D4DESTH","emotion","mismatch","uniform","","","","","","","1720","258390.29999995232","260110.29999995232","[""stimuli/AM05_AO.jpg"",""stimuli/BF04_CC.jpg"",""stimuli/HM10_HO.jpg"",""stimuli/BM16_DO.jpg""]","stimuli/AM05_AO.jpg","stimuli/BF04_CC.jpg","stimuli/HM10_HO.jpg","stimuli/BM16_DO.jpg","pos3","stimuli/HM10_HO.jpg","HO","HM10","2","1","2","2","stimuli/stars_2.png","61","[""AO"",""CC"",""HO"",""DO""]","[""AM05"",""BF04"",""HM10"",""BM16""]","[6,10,2,3]","[6,8,2,4]","","",""
"show-reward","60","261039","0.0-60.0","p822174","AB09F0Q4T10TE","3WRBLBQ2GSENM5LEFQY1C5PG0GV0GC","37Z929RLGBEUF3PQYULTAE5D4DESTH","emotion","mismatch","uniform","","","","","","","","260617","262620.2999999523","","","","","","","","","","","","2","","stimuli/stars_2.png","61","","","","","stimuli/HM10_HO.jpg","",""
"explore-choice","61","262784","0.0-61.0","p822174","AB09F0Q4T10TE","3WRBLBQ2GSENM5LEFQY1C5PG0GV0GC","37Z929RLGBEUF3PQYULTAE5D4DESTH","emotion","mismatch","uniform","","","","","","","1242.2000000476837","262621.5","263863.7000000477","[""stimuli/BF04_DO.jpg"",""stimuli/BM16_HO.jpg"",""stimuli/AM05_CC.jpg"",""stimuli/HM10_AO.jpg""]","stimuli/BF04_DO.jpg","stimuli/BM16_HO.jpg","stimuli/AM05_CC.jpg","stimuli/HM10_AO.jpg","pos4","stimuli/HM10_AO.jpg","AO","HM10","3","2","4","6","stimuli/stars_4.png","63","[""DO"",""HO"",""CC"",""AO""]","[""BF04"",""BM16"",""AM05"",""HM10""]","[6,0,7,4]","[4,2,8,6]","","",""
"show-reward","62","264790","0.0-62.0","p822174","AB09F0Q4T10TE","3WRBLBQ2GSENM5LEFQY1C5PG0GV0GC","37Z929RLGBEUF3PQYULTAE5D4DESTH","emotion","mismatch","uniform","","","","","","","","264366.2000000477","266370.59999990463","","","","","","","","","","","","4","","stimuli/stars_4.png","63","","","","","stimuli/HM10_AO.jpg","",""
"explore-choice","63","266029","0.0-63.0","p822174","AB09F0Q4T10TE","3WRBLBQ2GSENM5LEFQY1C5PG0GV0GC","37Z929RLGBEUF3PQYULTAE5D4DESTH","emotion","mismatch","uniform","","","","","","","737.7999999523163","266371.7999999523","267109.59999990463","[""stimuli/AM05_CC.jpg"",""stimuli/BF04_AO.jpg"",""stimuli/HM10_DO.jpg"",""stimuli/BM16_HO.jpg""]","stimuli/AM05_CC.jpg","stimuli/BF04_AO.jpg","stimuli/HM10_DO.jpg","stimuli/BM16_HO.jpg","pos2","stimuli/BF04_AO.jpg","AO","BF04","1","4","8","6","stimuli/stars_8.png","67","[""CC"",""AO"",""DO"",""HO""]","[""AM05"",""BF04"",""HM10"",""BM16""]","[7,8,3,1]","[8,6,4,2]","","",""
"show-reward","64","268047","0.0-64.0","p822174","AB09F0Q4T10TE","3WRBLBQ2GSENM5LEFQY1C5PG0GV0GC","37Z929RLGBEUF3PQYULTAE5D4DESTH","emotion","mismatch","uniform","","","","","","","","267611.2000000477","269627.90000009537","","","","","","","","","","","","8","","stimuli/stars_8.png","67","","","","","stimuli/BF04_AO.jpg","",""
"explore-choice","65","270043","0.0-65.0","p822174","AB09F0Q4T10TE","3WRBLBQ2GSENM5LEFQY1C5PG0GV0GC","37Z929RLGBEUF3PQYULTAE5D4DESTH","emotion","mismatch","uniform","","","","","","","1491.7000000476837","269628.7999999523","271120.5","[""stimuli/HM10_HO.jpg"",""stimuli/AM05_DO.jpg"",""stimuli/BM16_CC.jpg"",""stimuli/BF04_AO.jpg""]","stimuli/HM10_HO.jpg","stimuli/AM05_DO.jpg","stimuli/BM16_CC.jpg","stimuli/BF04_AO.jpg","pos4","stimuli/BF04_AO.jpg","AO","BF04","3","2","4","6","stimuli/stars_4.png","69","[""HO"",""DO"",""CC"",""AO""]","[""HM10"",""AM05"",""BM16"",""BF04""]","[0,5,7,4]","[2,4,8,6]","","",""
"show-reward","66","272062","0.0-66.0","p822174","AB09F0Q4T10TE","3WRBLBQ2GSENM5LEFQY1C5PG0GV0GC","37Z929RLGBEUF3PQYULTAE5D4DESTH","emotion","mismatch","uniform","","","","","","","","271625.40000009537","273642.59999990463","","","","","","","","","","","","4","","stimuli/stars_4.png","69","","","","","stimuli/BF04_AO.jpg","",""
"explore-choice","67","276201","0.0-67.0","p822174","AB09F0Q4T10TE","3WRBLBQ2GSENM5LEFQY1C5PG0GV0GC","37Z929RLGBEUF3PQYULTAE5D4DESTH","emotion","mismatch","uniform","","","","","","","3624.5","273643.7999999523","277268.2999999523","[""stimuli/AM05_DO.jpg"",""stimuli/BF04_CC.jpg"",""stimuli/BM16_AO.jpg"",""stimuli/HM10_HO.jpg""]","stimuli/AM05_DO.jpg","stimuli/BF04_CC.jpg","stimuli/BM16_AO.jpg","stimuli/HM10_HO.jpg","pos1","stimuli/AM05_DO.jpg","DO","AM05","0","3","6","4","stimuli/stars_6.png","72","[""DO"",""CC"",""AO"",""HO""]","[""AM05"",""BF04"",""BM16"",""HM10""]","[6,9,8,3]","[4,8,6,2]","","",""
"show-reward","68","278213","0.0-68.0","p822174","AB09F0Q4T10TE","3WRBLBQ2GSENM5LEFQY1C5PG0GV0GC","37Z929RLGBEUF3PQYULTAE5D4DESTH","emotion","mismatch","uniform","","","","","","","","277783.2999999523","279793.7999999523","","","","","","","","","","","","6","","stimuli/stars_6.png","72","","","","","stimuli/AM05_DO.jpg","",""
"explore-choice","69","280274","0.0-69.0","p822174","AB09F0Q4T10TE","3WRBLBQ2GSENM5LEFQY1C5PG0GV0GC","37Z929RLGBEUF3PQYULTAE5D4DESTH","emotion","mismatch","uniform","","","","","","","1549","279795.2000000477","281344.2000000477","[""stimuli/BM16_DO.jpg"",""stimuli/HM10_CC.jpg"",""stimuli/AM05_AO.jpg"",""stimuli/BF04_HO.jpg""]","stimuli/BM16_DO.jpg","stimuli/HM10_CC.jpg","stimuli/AM05_AO.jpg","stimuli/BF04_HO.jpg","pos1","stimuli/BM16_DO.jpg","DO","BM16","0","2.5","5","4","stimuli/stars_5.png","74.5","[""DO"",""CC"",""AO"",""HO""]","[""BM16"",""HM10"",""AM05"",""BF04""]","[5,7,5,4]","[4,8,6,2]","","",""
"show-reward","70","282279","0.0-70.0","p822174","AB09F0Q4T10TE","3WRBLBQ2GSENM5LEFQY1C5PG0GV0GC","37Z929RLGBEUF3PQYULTAE5D4DESTH","emotion","mismatch","uniform","","","","","","","","281856.40000009537","283860.2000000477","","","","","","","","","","","","5","","stimuli/stars_5.png","74.5","","","","","stimuli/BM16_DO.jpg","",""
"explore-choice","71","284749","0.0-71.0","p822174","AB09F0Q4T10TE","3WRBLBQ2GSENM5LEFQY1C5PG0GV0GC","37Z929RLGBEUF3PQYULTAE5D4DESTH","emotion","mismatch","uniform","","","","","","","1957.1000001430511","283861.09999990463","285818.2000000477","[""stimuli/BM16_AO.jpg"",""stimuli/AM05_HO.jpg"",""stimuli/HM10_DO.jpg"",""stimuli/BF04_CC.jpg""]","stimuli/BM16_AO.jpg","stimuli/AM05_HO.jpg","stimuli/HM10_DO.jpg","stimuli/BF04_CC.jpg","pos3","stimuli/HM10_DO.jpg","DO","HM10","2","1.5","3","4","stimuli/stars_3.png","76","[""AO"",""HO"",""DO"",""CC""]","[""BM16"",""AM05"",""HM10"",""BF04""]","[4,4,3,10]","[6,2,4,8]","","",""
"show-reward","72","286759","0.0-72.0","p822174","AB09F0Q4T10TE","3WRBLBQ2GSENM5LEFQY1C5PG0GV0GC","37Z929RLGBEUF3PQYULTAE5D4DESTH","emotion","mismatch","uniform","","","","","","","","286330.90000009537","288340","","","","","","","","","","","","3","","stimuli/stars_3.png","76","","","","","stimuli/HM10_DO.jpg","",""
"explore-choice","73","289087","0.0-73.0","p822174","AB09F0Q4T10TE","3WRBLBQ2GSENM5LEFQY1C5PG0GV0GC","37Z929RLGBEUF3PQYULTAE5D4DESTH","emotion","mismatch","uniform","","","","","","","1824.6999998092651","288341.40000009537","290166.09999990463","[""stimuli/AM05_HO.jpg"",""stimuli/BM16_AO.jpg"",""stimuli/BF04_DO.jpg"",""stimuli/HM10_CC.jpg""]","stimuli/AM05_HO.jpg","stimuli/BM16_AO.jpg","stimuli/BF04_DO.jpg","stimuli/HM10_CC.jpg","pos4","stimuli/HM10_CC.jpg","CC","HM10","3","4.5","9","8","stimuli/stars_9.png","80.5","[""HO"",""AO"",""DO"",""CC""]","[""AM05"",""BM16"",""BF04"",""HM10""]","[2,7,6,9]","[2,6,4,8]","","",""
"show-reward","74","291093","0.0-74.0","p822174","AB09F0Q4T10TE","3WRBLBQ2GSENM5LEFQY1C5PG0GV0GC","37Z929RLGBEUF3PQYULTAE5D4DESTH","emotion","mismatch","uniform","","","","","","","","290669.09999990463","292673.2999999523","","","","","","","","","","","","9","","stimuli/stars_9.png","80.5","","","","","stimuli/HM10_CC.jpg","",""
"explore-choice","75","292560","0.0-75.0","p822174","AB09F0Q4T10TE","3WRBLBQ2GSENM5LEFQY1C5PG0GV0GC","37Z929RLGBEUF3PQYULTAE5D4DESTH","emotion","mismatch","uniform","","","","","","","965.5999999046326","292674.7000000477","293640.2999999523","[""stimuli/BF04_CC.jpg"",""stimuli/HM10_AO.jpg"",""stimuli/AM05_DO.jpg"",""stimuli/BM16_HO.jpg""]","stimuli/BF04_CC.jpg","stimuli/HM10_AO.jpg","stimuli/AM05_DO.jpg","stimuli/BM16_HO.jpg","pos4","stimuli/BM16_HO.jpg","HO","BM16","3","2","4","2","stimuli/stars_4.png","82.5","[""CC"",""AO"",""DO"",""HO""]","[""BF04"",""HM10"",""AM05"",""BM16""]","[9,6,3,4]","[8,6,4,2]","","",""
"show-reward","76","294564","0.0-76.0","p822174","AB09F0Q4T10TE","3WRBLBQ2GSENM5LEFQY1C5PG0GV0GC","37Z929RLGBEUF3PQYULTAE5D4DESTH","emotion","mismatch","uniform","","","","","","","","294141.7999999523","296144.90000009537","","","","","","","","","","","","4","","stimuli/stars_4.png","82.5","","","","","stimuli/BM16_HO.jpg","",""
"explore-choice","77","296038","0.0-77.0","p822174","AB09F0Q4T10TE","3WRBLBQ2GSENM5LEFQY1C5PG0GV0GC","37Z929RLGBEUF3PQYULTAE5D4DESTH","emotion","mismatch","uniform","","","","","","","964.2000000476837","296146.09999990463","297110.2999999523","[""stimuli/AM05_DO.jpg"",""stimuli/BF04_AO.jpg"",""stimuli/HM10_CC.jpg"",""stimuli/BM16_HO.jpg""]","stimuli/AM05_DO.jpg","stimuli/BF04_AO.jpg","stimuli/HM10_CC.jpg","stimuli/BM16_HO.jpg","pos1","stimuli/AM05_DO.jpg","DO","AM05","0","1.5","3","4","stimuli/stars_3.png","84","[""DO"",""AO"",""CC"",""HO""]","[""AM05"",""BF04"",""HM10"",""BM16""]","[3,5,7,1]","[4,6,8,2]","","",""
"show-reward","78","298046","0.0-78.0","p822174","AB09F0Q4T10TE","3WRBLBQ2GSENM5LEFQY1C5PG0GV0GC","37Z929RLGBEUF3PQYULTAE5D4DESTH","emotion","mismatch","uniform","","","","","","","","297619.7000000477","299627","","","","","","","","","","","","3","","stimuli/stars_3.png","84","","","","","stimuli/AM05_DO.jpg","",""
"explore-choice","79","301551","0.0-79.0","p822174","AB09F0Q4T10TE","3WRBLBQ2GSENM5LEFQY1C5PG0GV0GC","37Z929RLGBEUF3PQYULTAE5D4DESTH","emotion","mismatch","uniform","","","","","","","2990.7999999523163","299628.2000000477","302619","[""stimuli/BF04_HO.jpg"",""stimuli/AM05_DO.jpg"",""stimuli/BM16_AO.jpg"",""stimuli/HM10_CC.jpg""]","stimuli/BF04_HO.jpg","stimuli/AM05_DO.jpg","stimuli/BM16_AO.jpg","stimuli/HM10_CC.jpg","pos1","stimuli/BF04_HO.jpg","HO","BF04","0","1.5","3","2","stimuli/stars_3.png","85.5","[""HO"",""DO"",""AO"",""CC""]","[""BF04"",""AM05"",""BM16"",""HM10""]","[3,4,7,8]","[2,4,6,8]","","",""
"show-reward","80","303560","0.0-80.0","p822174","AB09F0Q4T10TE","3WRBLBQ2GSENM5LEFQY1C5PG0GV0GC","37Z929RLGBEUF3PQYULTAE5D4DESTH","emotion","mismatch","uniform","","","","","","","","303132.40000009537","305140.40000009537","","","","","","","","","","","","3","","stimuli/stars_3.png","85.5","","","","","stimuli/BF04_HO.jpg","",""
"explore-choice","81","305257","0.0-81.0","p822174","AB09F0Q4T10TE","3WRBLBQ2GSENM5LEFQY1C5PG0GV0GC","37Z929RLGBEUF3PQYULTAE5D4DESTH","emotion","mismatch","uniform","","","","","","","1190","305141.90000009537","306331.90000009537","[""stimuli/BF04_AO.jpg"",""stimuli/AM05_CC.jpg"",""stimuli/HM10_HO.jpg"",""stimuli/BM16_DO.jpg""]","stimuli/BF04_AO.jpg","stimuli/AM05_CC.jpg","stimuli/HM10_HO.jpg","stimuli/BM16_DO.jpg","pos4","stimuli/BM16_DO.jpg","DO","BM16","3","1","2","4","stimuli/stars_2.png","86.5","[""AO"",""CC"",""HO"",""DO""]","[""BF04"",""AM05"",""HM10"",""BM16""]","[8,7,0,2]","[6,8,2,4]","","",""
"show-reward","82","307275","0.0-82.0","p822174","AB09F0Q4T10TE","3WRBLBQ2GSENM5LEFQY1C5PG0GV0GC","37Z929RLGBEUF3PQYULTAE5D4DESTH","emotion","mismatch","uniform","","","","","","","","306838.5","308855.7999999523","","","","","","","","","","","","2","","stimuli/stars_2.png","86.5","","","","","stimuli/BM16_DO.jpg","",""
"explore-choice","83","309730","0.0-83.0","p822174","AB09F0Q4T10TE","3WRBLBQ2GSENM5LEFQY1C5PG0GV0GC","37Z929RLGBEUF3PQYULTAE5D4DESTH","emotion","mismatch","uniform","","","","","","","1945","308856.90000009537","310801.90000009537","[""stimuli/AM05_AO.jpg"",""stimuli/BF04_CC.jpg"",""stimuli/BM16_HO.jpg"",""stimuli/HM10_DO.jpg""]","stimuli/AM05_AO.jpg","stimuli/BF04_CC.jpg","stimuli/BM16_HO.jpg","stimuli/HM10_DO.jpg","pos4","stimuli/HM10_DO.jpg","DO","HM10","3","2.5","5","4","stimuli/stars_5.png","89","[""AO"",""CC"",""HO"",""DO""]","[""AM05"",""BF04"",""BM16"",""HM10""]","[7,9,1,5]","[6,8,2,4]","","",""
"show-reward","84","311749","0.0-84.0","p822174","AB09F0Q4T10TE","3WRBLBQ2GSENM5LEFQY1C5PG0GV0GC","37Z929RLGBEUF3PQYULTAE5D4DESTH","emotion","mismatch","uniform","","","","","","","","311312.09999990463","313329.5","","","","","","","","","","","","5","","stimuli/stars_5.png","89","","","","","stimuli/HM10_DO.jpg","",""
"explore-choice","85","314294","0.0-85.0","p822174","AB09F0Q4T10TE","3WRBLBQ2GSENM5LEFQY1C5PG0GV0GC","37Z929RLGBEUF3PQYULTAE5D4DESTH","emotion","mismatch","uniform","","","","","","","2036.4000000953674","313330.59999990463","315367","[""stimuli/AM05_HO.jpg"",""stimuli/HM10_DO.jpg"",""stimuli/BM16_CC.jpg"",""stimuli/BF04_AO.jpg""]","stimuli/AM05_HO.jpg","stimuli/HM10_DO.jpg","stimuli/BM16_CC.jpg","stimuli/BF04_AO.jpg","pos4","stimuli/BF04_AO.jpg","AO","BF04","3","2.5","5","6","stimuli/stars_5.png","91.5","[""HO"",""DO"",""CC"",""AO""]","[""AM05"",""HM10"",""BM16"",""BF04""]","[2,3,8,5]","[2,4,8,6]","","",""
"show-reward","86","316303","0.0-86.0","p822174","AB09F0Q4T10TE","3WRBLBQ2GSENM5LEFQY1C5PG0GV0GC","37Z929RLGBEUF3PQYULTAE5D4DESTH","emotion","mismatch","uniform","","","","","","","","315875.59999990463","317883.59999990463","","","","","","","","","","","","5","","stimuli/stars_5.png","91.5","","","","","stimuli/BF04_AO.jpg","",""
"explore-choice","87","318434","0.0-87.0","p822174","AB09F0Q4T10TE","3WRBLBQ2GSENM5LEFQY1C5PG0GV0GC","37Z929RLGBEUF3PQYULTAE5D4DESTH","emotion","mismatch","uniform","","","","","","","1616.5999999046326","317884.40000009537","319501","[""stimuli/BM16_CC.jpg"",""stimuli/AM05_HO.jpg"",""stimuli/BF04_DO.jpg"",""stimuli/HM10_AO.jpg""]","stimuli/BM16_CC.jpg","stimuli/AM05_HO.jpg","stimuli/BF04_DO.jpg","stimuli/HM10_AO.jpg","pos3","stimuli/BF04_DO.jpg","DO","BF04","2","3","6","4","stimuli/stars_6.png","94.5","[""CC"",""HO"",""DO"",""AO""]","[""BM16"",""AM05"",""BF04"",""HM10""]","[10,4,6,4]","[8,2,4,6]","","",""
"show-reward","88","320457","0.0-88.0","p822174","AB09F0Q4T10TE","3WRBLBQ2GSENM5LEFQY1C5PG0GV0GC","37Z929RLGBEUF3PQYULTAE5D4DESTH","emotion","mismatch","uniform","","","","","","","","320015.7999999523","322037.2000000477","","","","","","","","","","","","6","","stimuli/stars_6.png","94.5","","","","","stimuli/BF04_DO.jpg","",""
"explore-choice","89","322108","0.0-89.0","p822174","AB09F0Q4T10TE","3WRBLBQ2GSENM5LEFQY1C5PG0GV0GC","37Z929RLGBEUF3PQYULTAE5D4DESTH","emotion","mismatch","uniform","","","","","","","1136","322039","323175","[""stimuli/BF04_CC.jpg"",""stimuli/HM10_AO.jpg"",""stimuli/AM05_HO.jpg"",""stimuli/BM16_DO.jpg""]","stimuli/BF04_CC.jpg","stimuli/HM10_AO.jpg","stimuli/AM05_HO.jpg","stimuli/BM16_DO.jpg","pos3","stimuli/AM05_HO.jpg","HO","AM05","2","2","4","2","stimuli/stars_4.png","96.5","[""CC"",""AO"",""HO"",""DO""]","[""BF04"",""HM10"",""AM05"",""BM16""]","[6,8,4,3]","[8,6,2,4]","","",""
"show-reward","90","324114","0.0-90.0","p822174","AB09F0Q4T10TE","3WRBLBQ2GSENM5LEFQY1C5PG0GV0GC","37Z929RLGBEUF3PQYULTAE5D4DESTH","emotion","mismatch","uniform","","","","","","","","323689.7999999523","325695.2000000477","","","","","","","","","","","","4","","stimuli/stars_4.png","96.5","","","","","stimuli/AM05_HO.jpg","",""
"explore-choice","91","325212","0.0-91.0","p822174","AB09F0Q4T10TE","3WRBLBQ2GSENM5LEFQY1C5PG0GV0GC","37Z929RLGBEUF3PQYULTAE5D4DESTH","emotion","mismatch","uniform","","","","","","","585.8000001907349","325696.09999990463","326281.90000009537","[""stimuli/HM10_HO.jpg"",""stimuli/AM05_AO.jpg"",""stimuli/BM16_CC.jpg"",""stimuli/BF04_DO.jpg""]","stimuli/HM10_HO.jpg","stimuli/AM05_AO.jpg","stimuli/BM16_CC.jpg","stimuli/BF04_DO.jpg","pos1","stimuli/HM10_HO.jpg","HO","HM10","0","0","0","2","stimuli/stars_0.png","96.5","[""HO"",""AO"",""CC"",""DO""]","[""HM10"",""AM05"",""BM16"",""BF04""]","[0,7,9,5]","[2,6,8,4]","","",""
"show-reward","92","327230","0.0-92.0","p822174","AB09F0Q4T10TE","3WRBLBQ2GSENM5LEFQY1C5PG0GV0GC","37Z929RLGBEUF3PQYULTAE5D4DESTH","emotion","mismatch","uniform","","","","","","","","326793.40000009537","328811","","","","","","","","","","","","0","","stimuli/stars_0.png","96.5","","","","","stimuli/HM10_HO.jpg","",""
"explore-choice","93","328384","0.0-93.0","p822174","AB09F0Q4T10TE","3WRBLBQ2GSENM5LEFQY1C5PG0GV0GC","37Z929RLGBEUF3PQYULTAE5D4DESTH","emotion","mismatch","uniform","","","","","","","647.7000000476837","328812.09999990463","329459.7999999523","[""stimuli/BM16_CC.jpg"",""stimuli/AM05_DO.jpg"",""stimuli/BF04_HO.jpg"",""stimuli/HM10_AO.jpg""]","stimuli/BM16_CC.jpg","stimuli/AM05_DO.jpg","stimuli/BF04_HO.jpg","stimuli/HM10_AO.jpg","pos2","stimuli/AM05_DO.jpg","DO","AM05","1","2.5","5","4","stimuli/stars_5.png","99","[""CC"",""DO"",""HO"",""AO""]","[""BM16"",""AM05"",""BF04"",""HM10""]","[9,5,3,5]","[8,4,2,6]","","",""
"show-reward","94","330387","0.0-94.0","p822174","AB09F0Q4T10TE","3WRBLBQ2GSENM5LEFQY1C5PG0GV0GC","37Z929RLGBEUF3PQYULTAE5D4DESTH","emotion","mismatch","uniform","","","","","","","","329965.5","331967.2999999523","","","","","","","","","","","","5","","stimuli/stars_5.png","99","","","","","stimuli/AM05_DO.jpg","",""
"explore-choice","95","332734","0.0-95.0","p822174","AB09F0Q4T10TE","3WRBLBQ2GSENM5LEFQY1C5PG0GV0GC","37Z929RLGBEUF3PQYULTAE5D4DESTH","emotion","mismatch","uniform","","","","","","","1844.2000000476837","331968.59999990463","333812.7999999523","[""stimuli/BF04_DO.jpg"",""stimuli/AM05_AO.jpg"",""stimuli/HM10_CC.jpg"",""stimuli/BM16_HO.jpg""]","stimuli/BF04_DO.jpg","stimuli/AM05_AO.jpg","stimuli/HM10_CC.jpg","stimuli/BM16_HO.jpg","pos1","stimuli/BF04_DO.jpg","DO","BF04","0","2","4","4","stimuli/stars_4.png","101","[""DO"",""AO"",""CC"",""HO""]","[""BF04"",""AM05"",""HM10"",""BM16""]","[4,6,8,1]","[4,6,8,2]","","",""
"show-reward","96","334740","0.0-96.0","p822174","AB09F0Q4T10TE","3WRBLBQ2GSENM5LEFQY1C5PG0GV0GC","37Z929RLGBEUF3PQYULTAE5D4DESTH","emotion","mismatch","uniform","","","","","","","","334315.7000000477","336321.2999999523","","","","","","","","","","","","4","","stimuli/stars_4.png","101","","","","","stimuli/BF04_DO.jpg","",""
"explore-choice","97","336617","0.0-97.0","p822174","AB09F0Q4T10TE","3WRBLBQ2GSENM5LEFQY1C5PG0GV0GC","37Z929RLGBEUF3PQYULTAE5D4DESTH","emotion","mismatch","uniform","","","","","","","1370.5","336322.40000009537","337692.90000009537","[""stimuli/HM10_HO.jpg"",""stimuli/BM16_AO.jpg"",""stimuli/AM05_CC.jpg"",""stimuli/BF04_DO.jpg""]","stimuli/HM10_HO.jpg","stimuli/BM16_AO.jpg","stimuli/AM05_CC.jpg","stimuli/BF04_DO.jpg","pos3","stimuli/AM05_CC.jpg","CC","AM05","2","5","10","8","stimuli/stars_10.png","106","[""HO"",""AO"",""CC"",""DO""]","[""HM10"",""BM16"",""AM05"",""BF04""]","[4,5,10,5]","[2,6,8,4]","","",""
"show-reward","98","338621","0.0-98.0","p822174","AB09F0Q4T10TE","3WRBLBQ2GSENM5LEFQY1C5PG0GV0GC","37Z929RLGBEUF3PQYULTAE5D4DESTH","emotion","mismatch","uniform","","","","","","","","338199.09999990463","340201.59999990463","","","","","","","","","","","","10","","stimuli/stars_10.png","106","","","","","stimuli/AM05_CC.jpg","",""
"explore-choice","99","340063","0.0-99.0","p822174","AB09F0Q4T10TE","3WRBLBQ2GSENM5LEFQY1C5PG0GV0GC","37Z929RLGBEUF3PQYULTAE5D4DESTH","emotion","mismatch","uniform","","","","","","","931.9000000953674","340203","341134.90000009537","[""stimuli/BF04_HO.jpg"",""stimuli/HM10_AO.jpg"",""stimuli/BM16_DO.jpg"",""stimuli/AM05_CC.jpg""]","stimuli/BF04_HO.jpg","stimuli/HM10_AO.jpg","stimuli/BM16_DO.jpg","stimuli/AM05_CC.jpg","pos4","stimuli/AM05_CC.jpg","CC","AM05","3","3.5","7","8","stimuli/stars_7.png","109.5","[""HO"",""AO"",""DO"",""CC""]","[""BF04"",""HM10"",""BM16"",""AM05""]","[0,5,3,7]","[2,6,4,8]","","",""
"show-reward","100","342073","0.0-100.0","p822174","AB09F0Q4T10TE","3WRBLBQ2GSENM5LEFQY1C5PG0GV0GC","37Z929RLGBEUF3PQYULTAE5D4DESTH","emotion","mismatch","uniform","","","","","","","","341645.09999990463","343653.5","","","","","","","","","","","","7","","stimuli/stars_7.png","109.5","","","","","stimuli/AM05_CC.jpg","",""
"explore-choice","101","344802","0.0-101.0","p822174","AB09F0Q4T10TE","3WRBLBQ2GSENM5LEFQY1C5PG0GV0GC","37Z929RLGBEUF3PQYULTAE5D4DESTH","emotion","mismatch","uniform","","","","","","","2215.2000000476837","343654.7000000477","345869.90000009537","[""stimuli/BM16_DO.jpg"",""stimuli/HM10_CC.jpg"",""stimuli/AM05_HO.jpg"",""stimuli/BF04_AO.jpg""]","stimuli/BM16_DO.jpg","stimuli/HM10_CC.jpg","stimuli/AM05_HO.jpg","stimuli/BF04_AO.jpg","pos2","stimuli/HM10_CC.jpg","CC","HM10","1","4","8","8","stimuli/stars_8.png","113.5","[""DO"",""CC"",""HO"",""AO""]","[""BM16"",""HM10"",""AM05"",""BF04""]","[6,8,4,4]","[4,8,2,6]","","",""
"show-reward","102","346818","0.0-102.0","p822174","AB09F0Q4T10TE","3WRBLBQ2GSENM5LEFQY1C5PG0GV0GC","37Z929RLGBEUF3PQYULTAE5D4DESTH","emotion","mismatch","uniform","","","","","","","","346384.2000000477","348399","","","","","","","","","","","","8","","stimuli/stars_8.png","113.5","","","","","stimuli/HM10_CC.jpg","",""
"explore-choice","103","353835","0.0-103.0","p822174","AB09F0Q4T10TE","3WRBLBQ2GSENM5LEFQY1C5PG0GV0GC","37Z929RLGBEUF3PQYULTAE5D4DESTH","emotion","mismatch","uniform","","","","","","","6509.300000190735","348400.09999990463","354909.40000009537","[""stimuli/WM09_SUR.jpg"",""stimuli/AM03_SC.jpg"",""stimuli/WF06_FO.jpg"",""stimuli/WM11_HE.jpg""]","stimuli/WM09_SUR.jpg","stimuli/AM03_SC.jpg","stimuli/WF06_FO.jpg","stimuli/WM11_HE.jpg","pos1","stimuli/WM09_SUR.jpg","SUR","WM09","0","4","8","8","stimuli/stars_8.png","117.5","[""SUR"",""SC"",""FO"",""HE""]","[""WM09"",""AM03"",""WF06"",""WM11""]","[8,5,4,5]","[8,6,2,4]","","",""
"show-reward","104","355850","0.0-104.0","p822174","AB09F0Q4T10TE","3WRBLBQ2GSENM5LEFQY1C5PG0GV0GC","37Z929RLGBEUF3PQYULTAE5D4DESTH","emotion","mismatch","uniform","","","","","","","","355418.2999999523","357431.2000000477","","","","","","","","","","","","8","","stimuli/stars_8.png","117.5","","","","","stimuli/WM09_SUR.jpg","",""
"explore-choice","105","358616","0.0-105.0","p822174","AB09F0Q4T10TE","3WRBLBQ2GSENM5LEFQY1C5PG0GV0GC","37Z929RLGBEUF3PQYULTAE5D4DESTH","emotion","mismatch","uniform","","","","","","","2257.399999856949","357432.2000000477","359689.59999990463","[""stimuli/WF06_SUR.jpg"",""stimuli/AM03_SC.jpg"",""stimuli/WM09_HE.jpg"",""stimuli/WM11_FO.jpg""]","stimuli/WF06_SUR.jpg","stimuli/AM03_SC.jpg","stimuli/WM09_HE.jpg","stimuli/WM11_FO.jpg","pos1","stimuli/WF06_SUR.jpg","SUR","WF06","0","1.5","3","2","stimuli/stars_3.png","119","[""SUR"",""SC"",""HE"",""FO""]","[""WF06"",""AM03"",""WM09"",""WM11""]","[3,4,6,5]","[2,6,8,4]","","",""
"show-reward","106","360625","0.0-106.0","p822174","AB09F0Q4T10TE","3WRBLBQ2GSENM5LEFQY1C5PG0GV0GC","37Z929RLGBEUF3PQYULTAE5D4DESTH","emotion","mismatch","uniform","","","","","","","","360198.09999990463","362206","","","","","","","","","","","","3","","stimuli/stars_3.png","119","","","","","stimuli/WF06_SUR.jpg","",""
"explore-choice","107","362163","0.0-107.0","p822174","AB09F0Q4T10TE","3WRBLBQ2GSENM5LEFQY1C5PG0GV0GC","37Z929RLGBEUF3PQYULTAE5D4DESTH","emotion","mismatch","uniform","","","","","","","1021.7000000476837","362207","363228.7000000477","[""stimuli/WM11_FO.jpg"",""stimuli/AM03_SUR.jpg"",""stimuli/WF06_HE.jpg"",""stimuli/WM09_SC.jpg""]","stimuli/WM11_FO.jpg","stimuli/AM03_SUR.jpg","stimuli/WF06_HE.jpg","stimuli/WM09_SC.jpg","pos1","stimuli/WM11_FO.jpg","FO","WM11","0","1.5","3","4","stimuli/stars_3.png","120.5","[""FO"",""SUR"",""HE"",""SC""]","[""WM11"",""AM03"",""WF06"",""WM09""]","[3,8,2,6]","[4,6,2,8]","","",""
"show-reward","108","364180","0.0-108.0","p822174","AB09F0Q4T10TE","3WRBLBQ2GSENM5LEFQY1C5PG0GV0GC","37Z929RLGBEUF3PQYULTAE5D4DESTH","emotion","mismatch","uniform","","","","","","","","363746.09999990463","365761.2999999523","","","","","","","","","","","","3","","stimuli/stars_3.png","120.5","","","","","stimuli/WM11_FO.jpg","",""
"explore-choice","109","365811","0.0-109.0","p822174","AB09F0Q4T10TE","3WRBLBQ2GSENM5LEFQY1C5PG0GV0GC","37Z929RLGBEUF3PQYULTAE5D4DESTH","emotion","mismatch","uniform","","","","","","","1128","365763.5","366891.5","[""stimuli/AM03_SUR.jpg"",""stimuli/WF06_FO.jpg"",""stimuli/WM09_HE.jpg"",""stimuli/WM11_SC.jpg""]","stimuli/AM03_SUR.jpg","stimuli/WF06_FO.jpg","stimuli/WM09_HE.jpg","stimuli/WM11_SC.jpg","pos2","stimuli/WF06_FO.jpg","FO","WF06","1","0","0","2","stimuli/stars_0.png","120.5","[""SUR"",""FO"",""HE"",""SC""]","[""AM03"",""WF06"",""WM09"",""WM11""]","[7,0,6,2]","[6,2,8,4]","","",""
"show-reward","110","367824","0.0-110.0","p822174","AB09F0Q4T10TE","3WRBLBQ2GSENM5LEFQY1C5PG0GV0GC","37Z929RLGBEUF3PQYULTAE5D4DESTH","emotion","mismatch","uniform","","","","","","","","367392.90000009537","369405.2999999523","","","","","","","","","","","","0","","stimuli/stars_0.png","120.5","","","","","stimuli/WF06_FO.jpg","",""
"explore-choice","111","369038","0.0-111.0","p822174","AB09F0Q4T10TE","3WRBLBQ2GSENM5LEFQY1C5PG0GV0GC","37Z929RLGBEUF3PQYULTAE5D4DESTH","emotion","mismatch","uniform","","","","","","","709.6000001430511","369406.09999990463","370115.7000000477","[""stimuli/WM11_SUR.jpg"",""stimuli/WF06_FO.jpg"",""stimuli/AM03_HE.jpg"",""stimuli/WM09_SC.jpg""]","stimuli/WM11_SUR.jpg","stimuli/WF06_FO.jpg","stimuli/AM03_HE.jpg","stimuli/WM09_SC.jpg","pos4","stimuli/WM09_SC.jpg","SC","WM09","3","3","6","8","stimuli/stars_6.png","123.5","[""SUR"",""FO"",""HE"",""SC""]","[""WM11"",""WF06"",""AM03"",""WM09""]","[5,0,5,6]","[4,2,6,8]","","",""
"show-reward","112","371040","0.0-112.0","p822174","AB09F0Q4T10TE","3WRBLBQ2GSENM5LEFQY1C5PG0GV0GC","37Z929RLGBEUF3PQYULTAE5D4DESTH","emotion","mismatch","uniform","","","","","","","","370620","372622.09999990463","","","","","","","","","","","","6","","stimuli/stars_6.png","123.5","","","","","stimuli/WM09_SC.jpg","",""
"explore-choice","113","372023","0.0-113.0","p822174","AB09F0Q4T10TE","3WRBLBQ2GSENM5LEFQY1C5PG0GV0GC","37Z929RLGBEUF3PQYULTAE5D4DESTH","emotion","mismatch","uniform","","","","","","","469.7999999523163","372622.7999999523","373092.59999990463","[""stimuli/WF06_SUR.jpg"",""stimuli/WM11_SC.jpg"",""stimuli/AM03_FO.jpg"",""stimuli/WM09_HE.jpg""]","stimuli/WF06_SUR.jpg","stimuli/WM11_SC.jpg","stimuli/AM03_FO.jpg","stimuli/WM09_HE.jpg","pos3","stimuli/AM03_FO.jpg","FO","AM03","2","3","6","6","stimuli/stars_6.png","126.5","[""SUR"",""SC"",""FO"",""HE""]","[""WF06"",""WM11"",""AM03"",""WM09""]","[0,6,6,9]","[2,4,6,8]","","",""
"show-reward","114","374029","0.0-114.0","p822174","AB09F0Q4T10TE","3WRBLBQ2GSENM5LEFQY1C5PG0GV0GC","37Z929RLGBEUF3PQYULTAE5D4DESTH","emotion","mismatch","uniform","","","","","","","","373606.2000000477","375610.5","","","","","","","","","","","","6","","stimuli/stars_6.png","126.5","","","","","stimuli/AM03_FO.jpg","",""
"explore-choice","115","375003","0.0-115.0","p822174","AB09F0Q4T10TE","3WRBLBQ2GSENM5LEFQY1C5PG0GV0GC","37Z929RLGBEUF3PQYULTAE5D4DESTH","emotion","mismatch","uniform","","","","","","","472.90000009536743","375611.59999990463","376084.5","[""stimuli/WM09_SUR.jpg"",""stimuli/WF06_SC.jpg"",""stimuli/WM11_FO.jpg"",""stimuli/AM03_HE.jpg""]","stimuli/WM09_SUR.jpg","stimuli/WF06_SC.jpg","stimuli/WM11_FO.jpg","stimuli/AM03_HE.jpg","pos1","stimuli/WM09_SUR.jpg","SUR","WM09","0","5","10","8","stimuli/stars_10.png","131.5","[""SUR"",""SC"",""FO"",""HE""]","[""WM09"",""WF06"",""WM11"",""AM03""]","[10,1,3,6]","[8,2,4,6]","","",""
"show-reward","116","377006","0.0-116.0","p822174","AB09F0Q4T10TE","3WRBLBQ2GSENM5LEFQY1C5PG0GV0GC","37Z929RLGBEUF3PQYULTAE5D4DESTH","emotion","mismatch","uniform","","","","","","","","376585.59999990463","378587.40000009537","","","","","","","","","","","","10","","stimuli/stars_10.png","131.5","","","","","stimuli/WM09_SUR.jpg","",""
"explore-choice","117","377789","0.0-117.0","p822174","AB09F0Q4T10TE","3WRBLBQ2GSENM5LEFQY1C5PG0GV0GC","37Z929RLGBEUF3PQYULTAE5D4DESTH","emotion","mismatch","uniform","","","","","","","281","378588.40000009537","378869.40000009537","[""stimuli/WM09_SUR.jpg"",""stimuli/AM03_HE.jpg"",""stimuli/WM11_SC.jpg"",""stimuli/WF06_FO.jpg""]","stimuli/WM09_SUR.jpg","stimuli/AM03_HE.jpg","stimuli/WM11_SC.jpg","stimuli/WF06_FO.jpg","pos2","stimuli/AM03_HE.jpg","HE","AM03","1","3","6","6","stimuli/stars_6.png","134.5","[""SUR"",""HE"",""SC"",""FO""]","[""WM09"",""AM03"",""WM11"",""WF06""]","[10,6,6,3]","[8,6,4,2]","","",""
"show-reward","118","379793","0.0-118.0","p822174","AB09F0Q4T10TE","3WRBLBQ2GSENM5LEFQY1C5PG0GV0GC","37Z929RLGBEUF3PQYULTAE5D4DESTH","emotion","mismatch","uniform","","","","","","","","379371.09999990463","381374.5","","","","","","","","","","","","6","","stimuli/stars_6.png","134.5","","","","","stimuli/AM03_HE.jpg","",""
"explore-choice","119","380588","0.0-119.0","p822174","AB09F0Q4T10TE","3WRBLBQ2GSENM5LEFQY1C5PG0GV0GC","37Z929RLGBEUF3PQYULTAE5D4DESTH","emotion","mismatch","uniform","","","","","","","293.19999980926514","381375.40000009537","381668.59999990463","[""stimuli/WM09_HE.jpg"",""stimuli/WF06_SC.jpg"",""stimuli/AM03_SUR.jpg"",""stimuli/WM11_FO.jpg""]","stimuli/WM09_HE.jpg","stimuli/WF06_SC.jpg","stimuli/AM03_SUR.jpg","stimuli/WM11_FO.jpg","pos4","stimuli/WM11_FO.jpg","FO","WM11","3","1.5","3","4","stimuli/stars_3.png","136","[""HE"",""SC"",""SUR"",""FO""]","[""WM09"",""WF06"",""AM03"",""WM11""]","[9,2,4,3]","[8,2,6,4]","","",""
"show-reward","120","382605","0.0-120.0","p822174","AB09F0Q4T10TE","3WRBLBQ2GSENM5LEFQY1C5PG0GV0GC","37Z929RLGBEUF3PQYULTAE5D4DESTH","emotion","mismatch","uniform","","","","","","","","382170","384186.90000009537","","","","","","","","","","","","3","","stimuli/stars_3.png","136","","","","","stimuli/WM11_FO.jpg","",""
"explore-choice","121","383476","0.0-121.0","p822174","AB09F0Q4T10TE","3WRBLBQ2GSENM5LEFQY1C5PG0GV0GC","37Z929RLGBEUF3PQYULTAE5D4DESTH","emotion","mismatch","uniform","","","","","","","352.5","384192.09999990463","384544.59999990463","[""stimuli/WM09_SC.jpg"",""stimuli/WF06_HE.jpg"",""stimuli/AM03_FO.jpg"",""stimuli/WM11_SUR.jpg""]","stimuli/WM09_SC.jpg","stimuli/WF06_HE.jpg","stimuli/AM03_FO.jpg","stimuli/WM11_SUR.jpg","pos3","stimuli/AM03_FO.jpg","FO","AM03","2","3","6","6","stimuli/stars_6.png","139","[""SC"",""HE"",""FO"",""SUR""]","[""WM09"",""WF06"",""AM03"",""WM11""]","[10,2,6,6]","[8,2,6,4]","","",""
"show-reward","122","385480","0.0-122.0","p822174","AB09F0Q4T10TE","3WRBLBQ2GSENM5LEFQY1C5PG0GV0GC","37Z929RLGBEUF3PQYULTAE5D4DESTH","emotion","mismatch","uniform","","","","","","","","385058.7999999523","387061.2999999523","","","","","","","","","","","","6","","stimuli/stars_6.png","139","","","","","stimuli/AM03_FO.jpg","",""
"explore-choice","123","386347","0.0-123.0","p822174","AB09F0Q4T10TE","3WRBLBQ2GSENM5LEFQY1C5PG0GV0GC","37Z929RLGBEUF3PQYULTAE5D4DESTH","emotion","mismatch","uniform","","","","","","","353.5","387062","387415.5","[""stimuli/WM09_HE.jpg"",""stimuli/AM03_SC.jpg"",""stimuli/WF06_FO.jpg"",""stimuli/WM11_SUR.jpg""]","stimuli/WM09_HE.jpg","stimuli/AM03_SC.jpg","stimuli/WF06_FO.jpg","stimuli/WM11_SUR.jpg","pos4","stimuli/WM11_SUR.jpg","SUR","WM11","3","3","6","4","stimuli/stars_6.png","142","[""HE"",""SC"",""FO"",""SUR""]","[""WM09"",""AM03"",""WF06"",""WM11""]","[10,4,3,6]","[8,6,2,4]","","",""
"show-reward","124","388350","0.0-124.0","p822174","AB09F0Q4T10TE","3WRBLBQ2GSENM5LEFQY1C5PG0GV0GC","37Z929RLGBEUF3PQYULTAE5D4DESTH","emotion","mismatch","uniform","","","","","","","","387929.2000000477","389931.5","","","","","","","","","","","","6","","stimuli/stars_6.png","142","","","","","stimuli/WM11_SUR.jpg","",""
"explore-choice","125","389335","0.0-125.0","p822174","AB09F0Q4T10TE","3WRBLBQ2GSENM5LEFQY1C5PG0GV0GC","37Z929RLGBEUF3PQYULTAE5D4DESTH","emotion","mismatch","uniform","","","","","","","477.2000000476837","389932.2000000477","390409.40000009537","[""stimuli/AM03_SC.jpg"",""stimuli/WM09_SUR.jpg"",""stimuli/WM11_FO.jpg"",""stimuli/WF06_HE.jpg""]","stimuli/AM03_SC.jpg","stimuli/WM09_SUR.jpg","stimuli/WM11_FO.jpg","stimuli/WF06_HE.jpg","pos2","stimuli/WM09_SUR.jpg","SUR","WM09","1","3.5","7","8","stimuli/stars_7.png","145.5","[""SC"",""SUR"",""FO"",""HE""]","[""AM03"",""WM09"",""WM11"",""WF06""]","[8,7,4,1]","[6,8,4,2]","","",""
"show-reward","126","391338","0.0-126.0","p822174","AB09F0Q4T10TE","3WRBLBQ2GSENM5LEFQY1C5PG0GV0GC","37Z929RLGBEUF3PQYULTAE5D4DESTH","emotion","mismatch","uniform","","","","","","","","390917.2000000477","392920","","","","","","","","","","","","7","","stimuli/stars_7.png","145.5","","","","","stimuli/WM09_SUR.jpg","",""
"explore-choice","127","392340","0.0-127.0","p822174","AB09F0Q4T10TE","3WRBLBQ2GSENM5LEFQY1C5PG0GV0GC","37Z929RLGBEUF3PQYULTAE5D4DESTH","emotion","mismatch","uniform","","","","","","","484.7000000476837","392920.7999999523","393405.5","[""stimuli/WM11_SC.jpg"",""stimuli/WF06_SUR.jpg"",""stimuli/AM03_HE.jpg"",""stimuli/WM09_FO.jpg""]","stimuli/WM11_SC.jpg","stimuli/WF06_SUR.jpg","stimuli/AM03_HE.jpg","stimuli/WM09_FO.jpg","pos1","stimuli/WM11_SC.jpg","SC","WM11","0","2.5","5","4","stimuli/stars_5.png","148","[""SC"",""SUR"",""HE"",""FO""]","[""WM11"",""WF06"",""AM03"",""WM09""]","[5,2,4,8]","[4,2,6,8]","","",""
"show-reward","128","394352","0.0-128.0","p822174","AB09F0Q4T10TE","3WRBLBQ2GSENM5LEFQY1C5PG0GV0GC","37Z929RLGBEUF3PQYULTAE5D4DESTH","emotion","mismatch","uniform","","","","","","","","393922.09999990463","395933.90000009537","","","","","","","","","","","","5","","stimuli/stars_5.png","148","","","","","stimuli/WM11_SC.jpg","",""
"explore-choice","129","395512","0.0-129.0","p822174","AB09F0Q4T10TE","3WRBLBQ2GSENM5LEFQY1C5PG0GV0GC","37Z929RLGBEUF3PQYULTAE5D4DESTH","emotion","mismatch","uniform","","","","","","","652.5","395935","396587.5","[""stimuli/AM03_SUR.jpg"",""stimuli/WF06_SC.jpg"",""stimuli/WM09_FO.jpg"",""stimuli/WM11_HE.jpg""]","stimuli/AM03_SUR.jpg","stimuli/WF06_SC.jpg","stimuli/WM09_FO.jpg","stimuli/WM11_HE.jpg","pos3","stimuli/WM09_FO.jpg","FO","WM09","2","4.5","9","8","stimuli/stars_9.png","152.5","[""SUR"",""SC"",""FO"",""HE""]","[""AM03"",""WF06"",""WM09"",""WM11""]","[7,4,9,4]","[6,2,8,4]","","",""
"show-reward","130","397516","0.0-130.0","p822174","AB09F0Q4T10TE","3WRBLBQ2GSENM5LEFQY1C5PG0GV0GC","37Z929RLGBEUF3PQYULTAE5D4DESTH","emotion","mismatch","uniform","","","","","","","","397094.2000000477","399097.7000000477","","","","","","","","","","","","9","","stimuli/stars_9.png","152.5","","","","","stimuli/WM09_FO.jpg","",""
"explore-choice","131","398693","0.0-131.0","p822174","AB09F0Q4T10TE","3WRBLBQ2GSENM5LEFQY1C5PG0GV0GC","37Z929RLGBEUF3PQYULTAE5D4DESTH","emotion","mismatch","uniform","","","","","","","664.9000000953674","399098.5","399763.40000009537","[""stimuli/AM03_FO.jpg"",""stimuli/WM11_SUR.jpg"",""stimuli/WM09_HE.jpg"",""stimuli/WF06_SC.jpg""]","stimuli/AM03_FO.jpg","stimuli/WM11_SUR.jpg","stimuli/WM09_HE.jpg","stimuli/WF06_SC.jpg","pos4","stimuli/WF06_SC.jpg","SC","WF06","3","2","4","2","stimuli/stars_4.png","154.5","[""FO"",""SUR"",""HE"",""SC""]","[""AM03"",""WM11"",""WM09"",""WF06""]","[8,3,7,4]","[6,4,8,2]","","",""
"show-reward","132","400696","0.0-132.0","p822174","AB09F0Q4T10TE","3WRBLBQ2GSENM5LEFQY1C5PG0GV0GC","37Z929RLGBEUF3PQYULTAE5D4DESTH","emotion","mismatch","uniform","","","","","","","","400275.90000009537","402277.90000009537","","","","","","","","","","","","4","","stimuli/stars_4.png","154.5","","","","","stimuli/WF06_SC.jpg","",""
"explore-choice","133","401699","0.0-133.0","p822174","AB09F0Q4T10TE","3WRBLBQ2GSENM5LEFQY1C5PG0GV0GC","37Z929RLGBEUF3PQYULTAE5D4DESTH","emotion","mismatch","uniform","","","","","","","494.7999999523163","402278.5","402773.2999999523","[""stimuli/AM03_HE.jpg"",""stimuli/WF06_SUR.jpg"",""stimuli/WM09_SC.jpg"",""stimuli/WM11_FO.jpg""]","stimuli/AM03_HE.jpg","stimuli/WF06_SUR.jpg","stimuli/WM09_SC.jpg","stimuli/WM11_FO.jpg","pos2","stimuli/WF06_SUR.jpg","SUR","WF06","1","0","0","2","stimuli/stars_0.png","154.5","[""HE"",""SUR"",""SC"",""FO""]","[""AM03"",""WF06"",""WM09"",""WM11""]","[6,0,9,3]","[6,2,8,4]","","",""
"show-reward","134","403714","0.0-134.0","p822174","AB09F0Q4T10TE","3WRBLBQ2GSENM5LEFQY1C5PG0GV0GC","37Z929RLGBEUF3PQYULTAE5D4DESTH","emotion","mismatch","uniform","","","","","","","","403280.90000009537","405296","","","","","","","","","","","","0","","stimuli/stars_0.png","154.5","","","","","stimuli/WF06_SUR.jpg","",""
"explore-choice","135","404918","0.0-135.0","p822174","AB09F0Q4T10TE","3WRBLBQ2GSENM5LEFQY1C5PG0GV0GC","37Z929RLGBEUF3PQYULTAE5D4DESTH","emotion","mismatch","uniform","","","","","","","700.5","405296.90000009537","405997.40000009537","[""stimuli/WF06_SC.jpg"",""stimuli/WM11_HE.jpg"",""stimuli/AM03_FO.jpg"",""stimuli/WM09_SUR.jpg""]","stimuli/WF06_SC.jpg","stimuli/WM11_HE.jpg","stimuli/AM03_FO.jpg","stimuli/WM09_SUR.jpg","pos4","stimuli/WM09_SUR.jpg","SUR","WM09","3","3","6","8","stimuli/stars_6.png","157.5","[""SC"",""HE"",""FO"",""SUR""]","[""WF06"",""WM11"",""AM03"",""WM09""]","[4,5,6,6]","[2,4,6,8]","","",""
"show-reward","136","406923","0.0-136.0","p822174","AB09F0Q4T10TE","3WRBLBQ2GSENM5LEFQY1C5PG0GV0GC","37Z929RLGBEUF3PQYULTAE5D4DESTH","emotion","mismatch","uniform","","","","","","","","406501","408504.2000000477","","","","","","","","","","","","6","","stimuli/stars_6.png","157.5","","","","","stimuli/WM09_SUR.jpg","",""
"explore-choice","137","407799","0.0-137.0","p822174","AB09F0Q4T10TE","3WRBLBQ2GSENM5LEFQY1C5PG0GV0GC","37Z929RLGBEUF3PQYULTAE5D4DESTH","emotion","mismatch","uniform","","","","","","","375","408505.2999999523","408880.2999999523","[""stimuli/AM03_SUR.jpg"",""stimuli/WM11_SC.jpg"",""stimuli/WM09_FO.jpg"",""stimuli/WF06_HE.jpg""]","stimuli/AM03_SUR.jpg","stimuli/WM11_SC.jpg","stimuli/WM09_FO.jpg","stimuli/WF06_HE.jpg","pos3","stimuli/WM09_FO.jpg","FO","WM09","2","4.5","9","8","stimuli/stars_9.png","162","[""SUR"",""SC"",""FO"",""HE""]","[""AM03"",""WM11"",""WM09"",""WF06""]","[6,2,9,2]","[6,4,8,2]","","",""
"show-reward","138","409804","0.0-138.0","p822174","AB09F0Q4T10TE","3WRBLBQ2GSENM5LEFQY1C5PG0GV0GC","37Z929RLGBEUF3PQYULTAE5D4DESTH","emotion","mismatch","uniform","","","","","","","","409382","411385.7999999523","","","","","","","","","","","","9","","stimuli/stars_9.png","162","","","","","stimuli/WM09_FO.jpg","",""
"explore-choice","139","410679","0.0-139.0","p822174","AB09F0Q4T10TE","3WRBLBQ2GSENM5LEFQY1C5PG0GV0GC","37Z929RLGBEUF3PQYULTAE5D4DESTH","emotion","mismatch","uniform","","","","","","","372.7999999523163","411386.40000009537","411759.2000000477","[""stimuli/WF06_SUR.jpg"",""stimuli/WM09_SC.jpg"",""stimuli/AM03_FO.jpg"",""stimuli/WM11_HE.jpg""]","stimuli/WF06_SUR.jpg","stimuli/WM09_SC.jpg","stimuli/AM03_FO.jpg","stimuli/WM11_HE.jpg","pos1","stimuli/WF06_SUR.jpg","SUR","WF06","0","0.5","1","2","stimuli/stars_1.png","162.5","[""SUR"",""SC"",""FO"",""HE""]","[""WF06"",""WM09"",""AM03"",""WM11""]","[1,7,5,6]","[2,8,6,4]","","",""
"show-reward","140","412682","0.0-140.0","p822174","AB09F0Q4T10TE","3WRBLBQ2GSENM5LEFQY1C5PG0GV0GC","37Z929RLGBEUF3PQYULTAE5D4DESTH","emotion","mismatch","uniform","","","","","","","","412261.90000009537","414263.2000000477","","","","","","","","","","","","1","","stimuli/stars_1.png","162.5","","","","","stimuli/WF06_SUR.jpg","",""
"explore-choice","141","413623","0.0-141.0","p822174","AB09F0Q4T10TE","3WRBLBQ2GSENM5LEFQY1C5PG0GV0GC","37Z929RLGBEUF3PQYULTAE5D4DESTH","emotion","mismatch","uniform","","","","","","","426.2999999523163","414264","414690.2999999523","[""stimuli/WF06_SC.jpg"",""stimuli/AM03_HE.jpg"",""stimuli/WM11_SUR.jpg"",""stimuli/WM09_FO.jpg""]","stimuli/WF06_SC.jpg","stimuli/AM03_HE.jpg","stimuli/WM11_SUR.jpg","stimuli/WM09_FO.jpg","pos3","stimuli/WM11_SUR.jpg","SUR","WM11","2","1","2","4","stimuli/stars_2.png","163.5","[""SC"",""HE"",""SUR"",""FO""]","[""WF06"",""AM03"",""WM11"",""WM09""]","[1,7,2,6]","[2,6,4,8]","","",""
"show-reward","142","415627","0.0-142.0","p822174","AB09F0Q4T10TE","3WRBLBQ2GSENM5LEFQY1C5PG0GV0GC","37Z929RLGBEUF3PQYULTAE5D4DESTH","emotion","mismatch","uniform","","","","","","","","415204.7000000477","417208","","","","","","","","","","","","2","","stimuli/stars_2.png","163.5","","","","","stimuli/WM11_SUR.jpg","",""
"explore-choice","143","416594","0.0-143.0","p822174","AB09F0Q4T10TE","3WRBLBQ2GSENM5LEFQY1C5PG0GV0GC","37Z929RLGBEUF3PQYULTAE5D4DESTH","emotion","mismatch","uniform","","","","","","","464.10000014305115","417209.09999990463","417673.2000000477","[""stimuli/AM03_SC.jpg"",""stimuli/WM09_FO.jpg"",""stimuli/WF06_HE.jpg"",""stimuli/WM11_SUR.jpg""]","stimuli/AM03_SC.jpg","stimuli/WM09_FO.jpg","stimuli/WF06_HE.jpg","stimuli/WM11_SUR.jpg","pos4","stimuli/WM11_SUR.jpg","SUR","WM11","3","2.5","5","4","stimuli/stars_5.png","166","[""SC"",""FO"",""HE"",""SUR""]","[""AM03"",""WM09"",""WF06"",""WM11""]","[6,7,2,5]","[6,8,2,4]","","",""
"show-reward","144","418607","0.0-144.0","p822174","AB09F0Q4T10TE","3WRBLBQ2GSENM5LEFQY1C5PG0GV0GC","37Z929RLGBEUF3PQYULTAE5D4DESTH","emotion","mismatch","uniform","","","","","","","","418176.09999990463","420187.7000000477","","","","","","","","","","","","5","","stimuli/stars_5.png","166","","","","","stimuli/WM11_SUR.jpg","",""
"explore-choice","145","419447","0.0-145.0","p822174","AB09F0Q4T10TE","3WRBLBQ2GSENM5LEFQY1C5PG0GV0GC","37Z929RLGBEUF3PQYULTAE5D4DESTH","emotion","mismatch","uniform","","","","","","","325.5","420188.7000000477","420514.2000000477","[""stimuli/AM03_SUR.jpg"",""stimuli/WM11_HE.jpg"",""stimuli/WF06_FO.jpg"",""stimuli/WM09_SC.jpg""]","stimuli/AM03_SUR.jpg","stimuli/WM11_HE.jpg","stimuli/WF06_FO.jpg","stimuli/WM09_SC.jpg","pos2","stimuli/WM11_HE.jpg","HE","WM11","1","1","2","4","stimuli/stars_2.png","167","[""SUR"",""HE"",""FO"",""SC""]","[""AM03"",""WM11"",""WF06"",""WM09""]","[7,2,1,6]","[6,4,2,8]","","",""
"show-reward","146","421452","0.0-146.0","p822174","AB09F0Q4T10TE","3WRBLBQ2GSENM5LEFQY1C5PG0GV0GC","37Z929RLGBEUF3PQYULTAE5D4DESTH","emotion","mismatch","uniform","","","","","","","","421029.09999990463","423033.2000000477","","","","","","","","","","","","2","","stimuli/stars_2.png","167","","","","","stimuli/WM11_HE.jpg","",""
"explore-choice","147","422535","0.0-147.0","p822174","AB09F0Q4T10TE","3WRBLBQ2GSENM5LEFQY1C5PG0GV0GC","37Z929RLGBEUF3PQYULTAE5D4DESTH","emotion","mismatch","uniform","","","","","","","580.6000001430511","423033.7999999523","423614.40000009537","[""stimuli/AM03_FO.jpg"",""stimuli/WM09_SUR.jpg"",""stimuli/WM11_SC.jpg"",""stimuli/WF06_HE.jpg""]","stimuli/AM03_FO.jpg","stimuli/WM09_SUR.jpg","stimuli/WM11_SC.jpg","stimuli/WF06_HE.jpg","pos1","stimuli/AM03_FO.jpg","FO","AM03","0","4","8","6","stimuli/stars_8.png","171","[""FO"",""SUR"",""SC"",""HE""]","[""AM03"",""WM09"",""WM11"",""WF06""]","[8,6,6,3]","[6,8,4,2]","","",""
"show-reward","148","424541","0.0-148.0","p822174","AB09F0Q4T10TE","3WRBLBQ2GSENM5LEFQY1C5PG0GV0GC","37Z929RLGBEUF3PQYULTAE5D4DESTH","emotion","mismatch","uniform","","","","","","","","424117.7000000477","426121.59999990463","","","","","","","","","","","","8","","stimuli/stars_8.png","171","","","","","stimuli/AM03_FO.jpg","",""
"explore-choice","149","425260","0.0-149.0","p822174","AB09F0Q4T10TE","3WRBLBQ2GSENM5LEFQY1C5PG0GV0GC","37Z929RLGBEUF3PQYULTAE5D4DESTH","emotion","mismatch","uniform","","","","","","","207.60000014305115","426122.59999990463","426330.2000000477","[""stimuli/WM09_FO.jpg"",""stimuli/WF06_SUR.jpg"",""stimuli/AM03_SC.jpg"",""stimuli/WM11_HE.jpg""]","stimuli/WM09_FO.jpg","stimuli/WF06_SUR.jpg","stimuli/AM03_SC.jpg","stimuli/WM11_HE.jpg","pos3","stimuli/AM03_SC.jpg","SC","AM03","2","3","6","6","stimuli/stars_6.png","174","[""FO"",""SUR"",""SC"",""HE""]","[""WM09"",""WF06"",""AM03"",""WM11""]","[7,3,6,5]","[8,2,6,4]","","",""
"show-reward","150","427264","0.0-150.0","p822174","AB09F0Q4T10TE","3WRBLBQ2GSENM5LEFQY1C5PG0GV0GC","37Z929RLGBEUF3PQYULTAE5D4DESTH","emotion","mismatch","uniform","","","","","","","","426841.90000009537","428845","","","","","","","","","","","","6","","stimuli/stars_6.png","174","","","","","stimuli/AM03_SC.jpg","",""
"explore-choice","151","428151","0.0-151.0","p822174","AB09F0Q4T10TE","3WRBLBQ2GSENM5LEFQY1C5PG0GV0GC","37Z929RLGBEUF3PQYULTAE5D4DESTH","emotion","mismatch","uniform","","","","","","","383.5","428845.59999990463","429229.09999990463","[""stimuli/WM09_HE.jpg"",""stimuli/WM11_SUR.jpg"",""stimuli/WF06_SC.jpg"",""stimuli/AM03_FO.jpg""]","stimuli/WM09_HE.jpg","stimuli/WM11_SUR.jpg","stimuli/WF06_SC.jpg","stimuli/AM03_FO.jpg","pos4","stimuli/AM03_FO.jpg","FO","AM03","3","4","8","6","stimuli/stars_8.png","178","[""HE"",""SUR"",""SC"",""FO""]","[""WM09"",""WM11"",""WF06"",""AM03""]","[7,3,4,8]","[8,4,2,6]","","",""
"show-reward","152","430154","0.0-152.0","p822174","AB09F0Q4T10TE","3WRBLBQ2GSENM5LEFQY1C5PG0GV0GC","37Z929RLGBEUF3PQYULTAE5D4DESTH","emotion","mismatch","uniform","","","","","","","","429733","431735.59999990463","","","","","","","","","","","","8","","stimuli/stars_8.png","178","","","","","stimuli/AM03_FO.jpg","",""
"explore-choice","153","431154","0.0-153.0","p822174","AB09F0Q4T10TE","3WRBLBQ2GSENM5LEFQY1C5PG0GV0GC","37Z929RLGBEUF3PQYULTAE5D4DESTH","emotion","mismatch","uniform","","","","","","","497.90000009536743","431736.2999999523","432234.2000000477","[""stimuli/WM11_FO.jpg"",""stimuli/WF06_SC.jpg"",""stimuli/WM09_HE.jpg"",""stimuli/AM03_SUR.jpg""]","stimuli/WM11_FO.jpg","stimuli/WF06_SC.jpg","stimuli/WM09_HE.jpg","stimuli/AM03_SUR.jpg","pos3","stimuli/WM09_HE.jpg","HE","WM09","2","4.5","9","8","stimuli/stars_9.png","182.5","[""FO"",""SC"",""HE"",""SUR""]","[""WM11"",""WF06"",""WM09"",""AM03""]","[3,2,9,4]","[4,2,8,6]","","",""
"show-reward","154","433160","0.0-154.0","p822174","AB09F0Q4T10TE","3WRBLBQ2GSENM5LEFQY1C5PG0GV0GC","37Z929RLGBEUF3PQYULTAE5D4DESTH","emotion","mismatch","uniform","","","","","","","","432735.90000009537","434740.7999999523","","","","","","","","","","","","9","","stimuli/stars_9.png","182.5","","","","","stimuli/WM09_HE.jpg","",""
"explore-choice","155","434310","0.0-155.0","p822174","AB09F0Q4T10TE","3WRBLBQ2GSENM5LEFQY1C5PG0GV0GC","37Z929RLGBEUF3PQYULTAE5D4DESTH","emotion","mismatch","uniform","","","","","","","634.8999998569489","434742.2000000477","435377.09999990463","[""stimuli/WM11_HE.jpg"",""stimuli/AM03_FO.jpg"",""stimuli/WF06_SUR.jpg"",""stimuli/WM09_SC.jpg""]","stimuli/WM11_HE.jpg","stimuli/AM03_FO.jpg","stimuli/WF06_SUR.jpg","stimuli/WM09_SC.jpg","pos1","stimuli/WM11_HE.jpg","HE","WM11","0","3","6","4","stimuli/stars_6.png","185.5","[""HE"",""FO"",""SUR"",""SC""]","[""WM11"",""AM03"",""WF06"",""WM09""]","[6,5,1,7]","[4,6,2,8]","","",""
"show-reward","156","436314","0.0-156.0","p822174","AB09F0Q4T10TE","3WRBLBQ2GSENM5LEFQY1C5PG0GV0GC","37Z929RLGBEUF3PQYULTAE5D4DESTH","emotion","mismatch","uniform","","","","","","","","435892","437894.7000000477","","","","","","","","","","","","6","","stimuli/stars_6.png","185.5","","","","","stimuli/WM11_HE.jpg","",""
"explore-choice","157","437205","0.0-157.0","p822174","AB09F0Q4T10TE","3WRBLBQ2GSENM5LEFQY1C5PG0GV0GC","37Z929RLGBEUF3PQYULTAE5D4DESTH","emotion","mismatch","uniform","","","","","","","388.69999980926514","437895.40000009537","438284.09999990463","[""stimuli/WM09_HE.jpg"",""stimuli/WF06_SUR.jpg"",""stimuli/AM03_SC.jpg"",""stimuli/WM11_FO.jpg""]","stimuli/WM09_HE.jpg","stimuli/WF06_SUR.jpg","stimuli/AM03_SC.jpg","stimuli/WM11_FO.jpg","pos3","stimuli/AM03_SC.jpg","SC","AM03","2","2","4","6","stimuli/stars_4.png","187.5","[""HE"",""SUR"",""SC"",""FO""]","[""WM09"",""WF06"",""AM03"",""WM11""]","[6,3,4,5]","[8,2,6,4]","","",""
"show-reward","158","439212","0.0-158.0","p822174","AB09F0Q4T10TE","3WRBLBQ2GSENM5LEFQY1C5PG0GV0GC","37Z929RLGBEUF3PQYULTAE5D4DESTH","emotion","mismatch","uniform","","","","","","","","438786.7999999523","440792.59999990463","","","","","","","","","","","","4","","stimuli/stars_4.png","187.5","","","","","stimuli/AM03_SC.jpg","",""
"explore-choice","159","440295","0.0-159.0","p822174","AB09F0Q4T10TE","3WRBLBQ2GSENM5LEFQY1C5PG0GV0GC","37Z929RLGBEUF3PQYULTAE5D4DESTH","emotion","mismatch","uniform","","","","","","","576.4000000953674","440793.59999990463","441370","[""stimuli/WF06_SC.jpg"",""stimuli/AM03_HE.jpg"",""stimuli/WM11_SUR.jpg"",""stimuli/WM09_FO.jpg""]","stimuli/WF06_SC.jpg","stimuli/AM03_HE.jpg","stimuli/WM11_SUR.jpg","stimuli/WM09_FO.jpg","pos4","stimuli/WM09_FO.jpg","FO","WM09","3","3","6","8","stimuli/stars_6.png","190.5","[""SC"",""HE"",""SUR"",""FO""]","[""WF06"",""AM03"",""WM11"",""WM09""]","[1,7,2,6]","[2,6,4,8]","","",""
"show-reward","160","442304","0.0-160.0","p822174","AB09F0Q4T10TE","3WRBLBQ2GSENM5LEFQY1C5PG0GV0GC","37Z929RLGBEUF3PQYULTAE5D4DESTH","emotion","mismatch","uniform","","","","","","","","441877.2000000477","443885.2000000477","","","","","","","","","","","","6","","stimuli/stars_6.png","190.5","","","","","stimuli/WM09_FO.jpg","",""
"explore-choice","161","443274","0.0-161.0","p822174","AB09F0Q4T10TE","3WRBLBQ2GSENM5LEFQY1C5PG0GV0GC","37Z929RLGBEUF3PQYULTAE5D4DESTH","emotion","mismatch","uniform","","","","","","","461.10000014305115","443886.09999990463","444347.2000000477","[""stimuli/AM03_HE.jpg"",""stimuli/WM09_SC.jpg"",""stimuli/WM11_SUR.jpg"",""stimuli/WF06_FO.jpg""]","stimuli/AM03_HE.jpg","stimuli/WM09_SC.jpg","stimuli/WM11_SUR.jpg","stimuli/WF06_FO.jpg","pos3","stimuli/WM11_SUR.jpg","SUR","WM11","2","2.5","5","4","stimuli/stars_5.png","193","[""HE"",""SC"",""SUR"",""FO""]","[""AM03"",""WM09"",""WM11"",""WF06""]","[5,6,5,0]","[6,8,4,2]","","",""
"show-reward","162","445285","0.0-162.0","p822174","AB09F0Q4T10TE","3WRBLBQ2GSENM5LEFQY1C5PG0GV0GC","37Z929RLGBEUF3PQYULTAE5D4DESTH","emotion","mismatch","uniform","","","","","","","","444856.2000000477","446866.09999990463","","","","","","","","","","","","5","","stimuli/stars_5.png","193","","","","","stimuli/WM11_SUR.jpg","",""
"explore-choice","163","446269","0.0-163.0","p822174","AB09F0Q4T10TE","3WRBLBQ2GSENM5LEFQY1C5PG0GV0GC","37Z929RLGBEUF3PQYULTAE5D4DESTH","emotion","mismatch","uniform","","","","","","","477","446867.09999990463","447344.09999990463","[""stimuli/AM03_SUR.jpg"",""stimuli/WM11_HE.jpg"",""stimuli/WF06_SC.jpg"",""stimuli/WM09_FO.jpg""]","stimuli/AM03_SUR.jpg","stimuli/WM11_HE.jpg","stimuli/WF06_SC.jpg","stimuli/WM09_FO.jpg","pos1","stimuli/AM03_SUR.jpg","SUR","AM03","0","3.5","7","6","stimuli/stars_7.png","196.5","[""SUR"",""HE"",""SC"",""FO""]","[""AM03"",""WM11"",""WF06"",""WM09""]","[7,4,4,9]","[6,4,2,8]","","",""
"show-reward","164","448283","0.0-164.0","p822174","AB09F0Q4T10TE","3WRBLBQ2GSENM5LEFQY1C5PG0GV0GC","37Z929RLGBEUF3PQYULTAE5D4DESTH","emotion","mismatch","uniform","","","","","","","","447850.59999990463","449863.59999990463","","","","","","","","","","","","7","","stimuli/stars_7.png","196.5","","","","","stimuli/AM03_SUR.jpg","",""
"explore-choice","165","449849","0.0-165.0","p822174","AB09F0Q4T10TE","3WRBLBQ2GSENM5LEFQY1C5PG0GV0GC","37Z929RLGBEUF3PQYULTAE5D4DESTH","emotion","mismatch","uniform","","","","","","","1055.5999999046326","449864.5","450920.09999990463","[""stimuli/WM11_FO.jpg"",""stimuli/AM03_HE.jpg"",""stimuli/WF06_SC.jpg"",""stimuli/WM09_SUR.jpg""]","stimuli/WM11_FO.jpg","stimuli/AM03_HE.jpg","stimuli/WF06_SC.jpg","stimuli/WM09_SUR.jpg","pos3","stimuli/WF06_SC.jpg","SC","WF06","2","0.5","1","2","stimuli/stars_1.png","197","[""FO"",""HE"",""SC"",""SUR""]","[""WM11"",""AM03"",""WF06"",""WM09""]","[3,6,1,10]","[4,6,2,8]","","",""
"show-reward","166","451859","0.0-166.0","p822174","AB09F0Q4T10TE","3WRBLBQ2GSENM5LEFQY1C5PG0GV0GC","37Z929RLGBEUF3PQYULTAE5D4DESTH","emotion","mismatch","uniform","","","","","","","","451431.2000000477","453440.7000000477","","","","","","","","","","","","1","","stimuli/stars_1.png","197","","","","","stimuli/WF06_SC.jpg","",""
"explore-choice","167","452744","0.0-167.0","p822174","AB09F0Q4T10TE","3WRBLBQ2GSENM5LEFQY1C5PG0GV0GC","37Z929RLGBEUF3PQYULTAE5D4DESTH","emotion","mismatch","uniform","","","","","","","374.5","453441.40000009537","453815.90000009537","[""stimuli/WM09_HE.jpg"",""stimuli/WM11_SC.jpg"",""stimuli/AM03_FO.jpg"",""stimuli/WF06_SUR.jpg""]","stimuli/WM09_HE.jpg","stimuli/WM11_SC.jpg","stimuli/AM03_FO.jpg","stimuli/WF06_SUR.jpg","pos4","stimuli/WF06_SUR.jpg","SUR","WF06","3","0","0","2","stimuli/stars_0.png","197","[""HE"",""SC"",""FO"",""SUR""]","[""WM09"",""WM11"",""AM03"",""WF06""]","[9,6,6,0]","[8,4,6,2]","","",""
"show-reward","168","454747","0.0-168.0","p822174","AB09F0Q4T10TE","3WRBLBQ2GSENM5LEFQY1C5PG0GV0GC","37Z929RLGBEUF3PQYULTAE5D4DESTH","emotion","mismatch","uniform","","","","","","","","454326","456328.59999990463","","","","","","","","","","","","0","","stimuli/stars_0.png","197","","","","","stimuli/WF06_SUR.jpg","",""
"explore-choice","169","455563","0.0-169.0","p822174","AB09F0Q4T10TE","3WRBLBQ2GSENM5LEFQY1C5PG0GV0GC","37Z929RLGBEUF3PQYULTAE5D4DESTH","emotion","mismatch","uniform","","","","","","","313.7000000476837","456329.2999999523","456643","[""stimuli/AM03_SC.jpg"",""stimuli/WF06_HE.jpg"",""stimuli/WM09_SUR.jpg"",""stimuli/WM11_FO.jpg""]","stimuli/AM03_SC.jpg","stimuli/WF06_HE.jpg","stimuli/WM09_SUR.jpg","stimuli/WM11_FO.jpg","pos2","stimuli/WF06_HE.jpg","HE","WF06","1","0.5","1","2","stimuli/stars_1.png","197.5","[""SC"",""HE"",""SUR"",""FO""]","[""AM03"",""WF06"",""WM09"",""WM11""]","[8,1,7,4]","[6,2,8,4]","","",""
"show-reward","170","457578","0.0-170.0","p822174","AB09F0Q4T10TE","3WRBLBQ2GSENM5LEFQY1C5PG0GV0GC","37Z929RLGBEUF3PQYULTAE5D4DESTH","emotion","mismatch","uniform","","","","","","","","457145.09999990463","459158","","","","","","","","","","","","1","","stimuli/stars_1.png","197.5","","","","","stimuli/WF06_HE.jpg","",""
"explore-choice","171","458684","0.0-171.0","p822174","AB09F0Q4T10TE","3WRBLBQ2GSENM5LEFQY1C5PG0GV0GC","37Z929RLGBEUF3PQYULTAE5D4DESTH","emotion","mismatch","uniform","","","","","","","596.5","459160.40000009537","459756.90000009537","[""stimuli/AM03_SC.jpg"",""stimuli/WM11_SUR.jpg"",""stimuli/WM09_FO.jpg"",""stimuli/WF06_HE.jpg""]","stimuli/AM03_SC.jpg","stimuli/WM11_SUR.jpg","stimuli/WM09_FO.jpg","stimuli/WF06_HE.jpg","pos3","stimuli/WM09_FO.jpg","FO","WM09","2","3.5","7","8","stimuli/stars_7.png","201","[""SC"",""SUR"",""FO"",""HE""]","[""AM03"",""WM11"",""WM09"",""WF06""]","[6,5,7,2]","[6,4,8,2]","","",""
"show-reward","172","460722","0.0-172.0","p822174","AB09F0Q4T10TE","3WRBLBQ2GSENM5LEFQY1C5PG0GV0GC","37Z929RLGBEUF3PQYULTAE5D4DESTH","emotion","mismatch","uniform","","","","","","","","460266.59999990463","462303.5","","","","","","","","","","","","7","","stimuli/stars_7.png","201","","","","","stimuli/WM09_FO.jpg","",""
"explore-choice","173","461718","0.0-173.0","p822174","AB09F0Q4T10TE","3WRBLBQ2GSENM5LEFQY1C5PG0GV0GC","37Z929RLGBEUF3PQYULTAE5D4DESTH","emotion","mismatch","uniform","","","","","","","484.7000000476837","462304.2999999523","462789","[""stimuli/WM09_FO.jpg"",""stimuli/WM11_HE.jpg"",""stimuli/AM03_SC.jpg"",""stimuli/WF06_SUR.jpg""]","stimuli/WM09_FO.jpg","stimuli/WM11_HE.jpg","stimuli/AM03_SC.jpg","stimuli/WF06_SUR.jpg","pos1","stimuli/WM09_FO.jpg","FO","WM09","0","3.5","7","8","stimuli/stars_7.png","204.5","[""FO"",""HE"",""SC"",""SUR""]","[""WM09"",""WM11"",""AM03"",""WF06""]","[7,5,6,3]","[8,4,6,2]","","",""
"show-reward","174","463721","0.0-174.0","p822174","AB09F0Q4T10TE","3WRBLBQ2GSENM5LEFQY1C5PG0GV0GC","37Z929RLGBEUF3PQYULTAE5D4DESTH","emotion","mismatch","uniform","","","","","","","","463299.7000000477","465301.59999990463","","","","","","","","","","","","7","","stimuli/stars_7.png","204.5","","","","","stimuli/WM09_FO.jpg","",""
"explore-choice","175","464612","0.0-175.0","p822174","AB09F0Q4T10TE","3WRBLBQ2GSENM5LEFQY1C5PG0GV0GC","37Z929RLGBEUF3PQYULTAE5D4DESTH","emotion","mismatch","uniform","","","","","","","384.7000000476837","465302.2999999523","465687","[""stimuli/WM11_FO.jpg"",""stimuli/WM09_SC.jpg"",""stimuli/AM03_HE.jpg"",""stimuli/WF06_SUR.jpg""]","stimuli/WM11_FO.jpg","stimuli/WM09_SC.jpg","stimuli/AM03_HE.jpg","stimuli/WF06_SUR.jpg","pos2","stimuli/WM09_SC.jpg","SC","WM09","1","4.5","9","8","stimuli/stars_9.png","209","[""FO"",""SC"",""HE"",""SUR""]","[""WM11"",""WM09"",""AM03"",""WF06""]","[3,9,6,0]","[4,8,6,2]","","",""
"show-reward","176","466622","0.0-176.0","p822174","AB09F0Q4T10TE","3WRBLBQ2GSENM5LEFQY1C5PG0GV0GC","37Z929RLGBEUF3PQYULTAE5D4DESTH","emotion","mismatch","uniform","","","","","","","","466193.7999999523","468203.59999990463","","","","","","","","","","","","9","","stimuli/stars_9.png","209","","","","","stimuli/WM09_SC.jpg","",""
"explore-choice","177","467552","0.0-177.0","p822174","AB09F0Q4T10TE","3WRBLBQ2GSENM5LEFQY1C5PG0GV0GC","37Z929RLGBEUF3PQYULTAE5D4DESTH","emotion","mismatch","uniform","","","","","","","418.2999999523163","468204.5","468622.7999999523","[""stimuli/WM09_SC.jpg"",""stimuli/WM11_FO.jpg"",""stimuli/WF06_HE.jpg"",""stimuli/AM03_SUR.jpg""]","stimuli/WM09_SC.jpg","stimuli/WM11_FO.jpg","stimuli/WF06_HE.jpg","stimuli/AM03_SUR.jpg","pos3","stimuli/WF06_HE.jpg","HE","WF06","2","1","2","2","stimuli/stars_2.png","210","[""SC"",""FO"",""HE"",""SUR""]","[""WM09"",""WM11"",""WF06"",""AM03""]","[6,3,2,8]","[8,4,2,6]","","",""
"show-reward","178","469555","0.0-178.0","p822174","AB09F0Q4T10TE","3WRBLBQ2GSENM5LEFQY1C5PG0GV0GC","37Z929RLGBEUF3PQYULTAE5D4DESTH","emotion","mismatch","uniform","","","","","","","","469134.2000000477","471136.59999990463","","","","","","","","","","","","2","","stimuli/stars_2.png","210","","","","","stimuli/WF06_HE.jpg","",""
"explore-choice","179","470470","0.0-179.0","p822174","AB09F0Q4T10TE","3WRBLBQ2GSENM5LEFQY1C5PG0GV0GC","37Z929RLGBEUF3PQYULTAE5D4DESTH","emotion","mismatch","uniform","","","","","","","406.40000009536743","471137.2999999523","471543.7000000477","[""stimuli/WM11_SUR.jpg"",""stimuli/AM03_SC.jpg"",""stimuli/WF06_FO.jpg"",""stimuli/WM09_HE.jpg""]","stimuli/WM11_SUR.jpg","stimuli/AM03_SC.jpg","stimuli/WF06_FO.jpg","stimuli/WM09_HE.jpg","pos4","stimuli/WM09_HE.jpg","HE","WM09","3","5","10","8","stimuli/stars_10.png","215","[""SUR"",""SC"",""FO"",""HE""]","[""WM11"",""AM03"",""WF06"",""WM09""]","[6,4,3,10]","[4,6,2,8]","","",""
"show-reward","180","472488","0.0-180.0","p822174","AB09F0Q4T10TE","3WRBLBQ2GSENM5LEFQY1C5PG0GV0GC","37Z929RLGBEUF3PQYULTAE5D4DESTH","emotion","mismatch","uniform","","","","","","","","472052.2999999523","474069.40000009537","","","","","","","","","","","","10","","stimuli/stars_10.png","215","","","","","stimuli/WM09_HE.jpg","",""
"explore-choice","181","473574","0.0-181.0","p822174","AB09F0Q4T10TE","3WRBLBQ2GSENM5LEFQY1C5PG0GV0GC","37Z929RLGBEUF3PQYULTAE5D4DESTH","emotion","mismatch","uniform","","","","","","","582.3000001907349","474070.59999990463","474652.90000009537","[""stimuli/WM09_SC.jpg"",""stimuli/WF06_FO.jpg"",""stimuli/WM11_HE.jpg"",""stimuli/AM03_SUR.jpg""]","stimuli/WM09_SC.jpg","stimuli/WF06_FO.jpg","stimuli/WM11_HE.jpg","stimuli/AM03_SUR.jpg","pos1","stimuli/WM09_SC.jpg","SC","WM09","0","3","6","8","stimuli/stars_6.png","218","[""SC"",""FO"",""HE"",""SUR""]","[""WM09"",""WF06"",""WM11"",""AM03""]","[6,1,2,7]","[8,2,4,6]","","",""
"show-reward","182","475581","0.0-182.0","p822174","AB09F0Q4T10TE","3WRBLBQ2GSENM5LEFQY1C5PG0GV0GC","37Z929RLGBEUF3PQYULTAE5D4DESTH","emotion","mismatch","uniform","","","","","","","","475156.2999999523","477162.7000000477","","","","","","","","","","","","6","","stimuli/stars_6.png","218","","","","","stimuli/WM09_SC.jpg","",""
"explore-choice","183","476618","0.0-183.0","p822174","AB09F0Q4T10TE","3WRBLBQ2GSENM5LEFQY1C5PG0GV0GC","37Z929RLGBEUF3PQYULTAE5D4DESTH","emotion","mismatch","uniform","","","","","","","522.9000000953674","477163.7999999523","477686.7000000477","[""stimuli/WF06_HE.jpg"",""stimuli/WM11_SC.jpg"",""stimuli/AM03_FO.jpg"",""stimuli/WM09_SUR.jpg""]","stimuli/WF06_HE.jpg","stimuli/WM11_SC.jpg","stimuli/AM03_FO.jpg","stimuli/WM09_SUR.jpg","pos2","stimuli/WM11_SC.jpg","SC","WM11","1","3","6","4","stimuli/stars_6.png","221","[""HE"",""SC"",""FO"",""SUR""]","[""WF06"",""WM11"",""AM03"",""WM09""]","[3,6,8,6]","[2,4,6,8]","","",""
"show-reward","184","478621","0.0-184.0","p822174","AB09F0Q4T10TE","3WRBLBQ2GSENM5LEFQY1C5PG0GV0GC","37Z929RLGBEUF3PQYULTAE5D4DESTH","emotion","mismatch","uniform","","","","","","","","478200.7000000477","480202.59999990463","","","","","","","","","","","","6","","stimuli/stars_6.png","221","","","","","stimuli/WM11_SC.jpg","",""
"explore-choice","185","479326","0.0-185.0","p822174","AB09F0Q4T10TE","3WRBLBQ2GSENM5LEFQY1C5PG0GV0GC","37Z929RLGBEUF3PQYULTAE5D4DESTH","emotion","mismatch","uniform","","","","","","","201.29999995231628","480203.5","480404.7999999523","[""stimuli/WF06_HE.jpg"",""stimuli/WM09_SC.jpg"",""stimuli/AM03_FO.jpg"",""stimuli/WM11_SUR.jpg""]","stimuli/WF06_HE.jpg","stimuli/WM09_SC.jpg","stimuli/AM03_FO.jpg","stimuli/WM11_SUR.jpg","pos4","stimuli/WM11_SUR.jpg","SUR","WM11","3","3","6","4","stimuli/stars_6.png","224","[""HE"",""SC"",""FO"",""SUR""]","[""WF06"",""WM09"",""AM03"",""WM11""]","[2,10,6,6]","[2,8,6,4]","","",""
"show-reward","186","481330","0.0-186.0","p822174","AB09F0Q4T10TE","3WRBLBQ2GSENM5LEFQY1C5PG0GV0GC","37Z929RLGBEUF3PQYULTAE5D4DESTH","emotion","mismatch","uniform","","","","","","","","480908.7999999523","482911.2000000477","","","","","","","","","","","","6","","stimuli/stars_6.png","224","","","","","stimuli/WM11_SUR.jpg","",""
"explore-choice","187","482279","0.0-187.0","p822174","AB09F0Q4T10TE","3WRBLBQ2GSENM5LEFQY1C5PG0GV0GC","37Z929RLGBEUF3PQYULTAE5D4DESTH","emotion","mismatch","uniform","","","","","","","446","482911.7999999523","483357.7999999523","[""stimuli/AM03_HE.jpg"",""stimuli/WM11_SC.jpg"",""stimuli/WM09_FO.jpg"",""stimuli/WF06_SUR.jpg""]","stimuli/AM03_HE.jpg","stimuli/WM11_SC.jpg","stimuli/WM09_FO.jpg","stimuli/WF06_SUR.jpg","pos1","stimuli/AM03_HE.jpg","HE","AM03","0","2","4","6","stimuli/stars_4.png","226","[""HE"",""SC"",""FO"",""SUR""]","[""AM03"",""WM11"",""WM09"",""WF06""]","[4,5,8,2]","[6,4,8,2]","","",""
"show-reward","188","484282","0.0-188.0","p822174","AB09F0Q4T10TE","3WRBLBQ2GSENM5LEFQY1C5PG0GV0GC","37Z929RLGBEUF3PQYULTAE5D4DESTH","emotion","mismatch","uniform","","","","","","","","483861.40000009537","485863.7000000477","","","","","","","","","","","","4","","stimuli/stars_4.png","226","","","","","stimuli/AM03_HE.jpg","",""
"explore-choice","189","485173","0.0-189.0","p822174","AB09F0Q4T10TE","3WRBLBQ2GSENM5LEFQY1C5PG0GV0GC","37Z929RLGBEUF3PQYULTAE5D4DESTH","emotion","mismatch","uniform","","","","","","","388.2000000476837","485864.7000000477","486252.90000009537","[""stimuli/WM11_HE.jpg"",""stimuli/AM03_SC.jpg"",""stimuli/WM09_SUR.jpg"",""stimuli/WF06_FO.jpg""]","stimuli/WM11_HE.jpg","stimuli/AM03_SC.jpg","stimuli/WM09_SUR.jpg","stimuli/WF06_FO.jpg","pos3","stimuli/WM09_SUR.jpg","SUR","WM09","2","4","8","8","stimuli/stars_8.png","230","[""HE"",""SC"",""SUR"",""FO""]","[""WM11"",""AM03"",""WM09"",""WF06""]","[5,5,8,4]","[4,6,8,2]","","",""
"show-reward","190","487181","0.0-190.0","p822174","AB09F0Q4T10TE","3WRBLBQ2GSENM5LEFQY1C5PG0GV0GC","37Z929RLGBEUF3PQYULTAE5D4DESTH","emotion","mismatch","uniform","","","","","","","","486755.59999990463","488762.09999990463","","","","","","","","","","","","8","","stimuli/stars_8.png","230","","","","","stimuli/WM09_SUR.jpg","",""
"explore-choice","191","488267","0.0-191.0","p822174","AB09F0Q4T10TE","3WRBLBQ2GSENM5LEFQY1C5PG0GV0GC","37Z929RLGBEUF3PQYULTAE5D4DESTH","emotion","mismatch","uniform","","","","","","","570.4000000953674","488763.2999999523","489333.7000000477","[""stimuli/WM09_FO.jpg"",""stimuli/WM11_SC.jpg"",""stimuli/WF06_HE.jpg"",""stimuli/AM03_SUR.jpg""]","stimuli/WM09_FO.jpg","stimuli/WM11_SC.jpg","stimuli/WF06_HE.jpg","stimuli/AM03_SUR.jpg","pos2","stimuli/WM11_SC.jpg","SC","WM11","1","1","2","4","stimuli/stars_2.png","231","[""FO"",""SC"",""HE"",""SUR""]","[""WM09"",""WM11"",""WF06"",""AM03""]","[9,2,2,6]","[8,4,2,6]","","",""
"show-reward","192","490278","0.0-192.0","p822174","AB09F0Q4T10TE","3WRBLBQ2GSENM5LEFQY1C5PG0GV0GC","37Z929RLGBEUF3PQYULTAE5D4DESTH","emotion","mismatch","uniform","","","","","","","","489849.59999990463","491859.90000009537","","","","","","","","","","","","2","","stimuli/stars_2.png","231","","","","","stimuli/WM11_SC.jpg","",""
"explore-choice","193","491188","0.0-193.0","p822174","AB09F0Q4T10TE","3WRBLBQ2GSENM5LEFQY1C5PG0GV0GC","37Z929RLGBEUF3PQYULTAE5D4DESTH","emotion","mismatch","uniform","","","","","","","399.90000009536743","491861.7999999523","492261.7000000477","[""stimuli/AM03_HE.jpg"",""stimuli/WM09_SUR.jpg"",""stimuli/WM11_SC.jpg"",""stimuli/WF06_FO.jpg""]","stimuli/AM03_HE.jpg","stimuli/WM09_SUR.jpg","stimuli/WM11_SC.jpg","stimuli/WF06_FO.jpg","pos4","stimuli/WF06_FO.jpg","FO","WF06","3","1.5","3","2","stimuli/stars_3.png","232.5","[""HE"",""SUR"",""SC"",""FO""]","[""AM03"",""WM09"",""WM11"",""WF06""]","[6,10,6,3]","[6,8,4,2]","","",""
"show-reward","194","493192","0.0-194.0","p822174","AB09F0Q4T10TE","3WRBLBQ2GSENM5LEFQY1C5PG0GV0GC","37Z929RLGBEUF3PQYULTAE5D4DESTH","emotion","mismatch","uniform","","","","","","","","492771","494773.7999999523","","","","","","","","","","","","3","","stimuli/stars_3.png","232.5","","","","","stimuli/WF06_FO.jpg","",""
"explore-choice","195","494263","0.0-195.0","p822174","AB09F0Q4T10TE","3WRBLBQ2GSENM5LEFQY1C5PG0GV0GC","37Z929RLGBEUF3PQYULTAE5D4DESTH","emotion","mismatch","uniform","","","","","","","556.5","494775.2000000477","495331.7000000477","[""stimuli/AM03_SUR.jpg"",""stimuli/WM09_HE.jpg"",""stimuli/WF06_FO.jpg"",""stimuli/WM11_SC.jpg""]","stimuli/AM03_SUR.jpg","stimuli/WM09_HE.jpg","stimuli/WF06_FO.jpg","stimuli/WM11_SC.jpg","pos1","stimuli/AM03_SUR.jpg","SUR","AM03","0","3.5","7","6","stimuli/stars_7.png","236","[""SUR"",""HE"",""FO"",""SC""]","[""AM03"",""WM09"",""WF06"",""WM11""]","[7,6,0,2]","[6,8,2,4]","","",""
"show-reward","196","496267","0.0-196.0","p822174","AB09F0Q4T10TE","3WRBLBQ2GSENM5LEFQY1C5PG0GV0GC","37Z929RLGBEUF3PQYULTAE5D4DESTH","emotion","mismatch","uniform","","","","","","","","495846.2000000477","497848.40000009537","","","","","","","","","","","","7","","stimuli/stars_7.png","236","","","","","stimuli/AM03_SUR.jpg","",""
"explore-choice","197","497144","0.0-197.0","p822174","AB09F0Q4T10TE","3WRBLBQ2GSENM5LEFQY1C5PG0GV0GC","37Z929RLGBEUF3PQYULTAE5D4DESTH","emotion","mismatch","uniform","","","","","","","371.40000009536743","497849.09999990463","498220.5","[""stimuli/WM09_SUR.jpg"",""stimuli/WM11_HE.jpg"",""stimuli/AM03_FO.jpg"",""stimuli/WF06_SC.jpg""]","stimuli/WM09_SUR.jpg","stimuli/WM11_HE.jpg","stimuli/AM03_FO.jpg","stimuli/WF06_SC.jpg","pos3","stimuli/AM03_FO.jpg","FO","AM03","2","3","6","6","stimuli/stars_6.png","239","[""SUR"",""HE"",""FO"",""SC""]","[""WM09"",""WM11"",""AM03"",""WF06""]","[6,5,6,4]","[8,4,6,2]","","",""
"show-reward","198","499149","0.0-198.0","p822174","AB09F0Q4T10TE","3WRBLBQ2GSENM5LEFQY1C5PG0GV0GC","37Z929RLGBEUF3PQYULTAE5D4DESTH","emotion","mismatch","uniform","","","","","","","","498726.90000009537","500730.7000000477","","","","","","","","","","","","6","","stimuli/stars_6.png","239","","","","","stimuli/AM03_FO.jpg","",""
"instructions","199","515086","0.0-199.0","p822174","AB09F0Q4T10TE","3WRBLBQ2GSENM5LEFQY1C5PG0GV0GC","37Z929RLGBEUF3PQYULTAE5D4DESTH","emotion","mismatch","uniform","","","","","","[{""page_index"":0,""viewing_time"":15934.5}]","15935.200000047684","","","","","","","","","","","","","","","","","","","","","","","",""
"survey-text","200","520332","0.0-200.0-0.0","p822174","AB09F0Q4T10TE","3WRBLBQ2GSENM5LEFQY1C5PG0GV0GC","37Z929RLGBEUF3PQYULTAE5D4DESTH","emotion","mismatch","uniform","","","","","","","5242.899999856949","","","","","","","","","","","","","","","","","","","","","","","{""age"":""40""}",""
"survey-text","201","523607","0.0-200.0-1.0","p822174","AB09F0Q4T10TE","3WRBLBQ2GSENM5LEFQY1C5PG0GV0GC","37Z929RLGBEUF3PQYULTAE5D4DESTH","emotion","mismatch","uniform","","","","","","","3272.5","","","","","","","","","","","","","","","","","","","","","","","{""gender"":""male""}",""
"survey-text","202","528221","0.0-200.0-2.0","p822174","AB09F0Q4T10TE","3WRBLBQ2GSENM5LEFQY1C5PG0GV0GC","37Z929RLGBEUF3PQYULTAE5D4DESTH","emotion","mismatch","uniform","","","","","","","4611.5","","","","","","","","","","","","","","","","","","","","","","","{""country"":""United States""}",""
"survey-text","203","532499","0.0-200.0-3.0","p822174","AB09F0Q4T10TE","3WRBLBQ2GSENM5LEFQY1C5PG0GV0GC","37Z929RLGBEUF3PQYULTAE5D4DESTH","emotion","mismatch","uniform","","","","","","","4275","","","","","","","","","","","","","","","","","","","","","","","{""language"":""English"",""other_languages"":""""}",""
"survey-multi-select","204","535532","0.0-201.0","p822174","AB09F0Q4T10TE","3WRBLBQ2GSENM5LEFQY1C5PG0GV0GC","37Z929RLGBEUF3PQYULTAE5D4DESTH","emotion","mismatch","uniform","","","","","","","3028.100000143051","","","","","","","","","","","","","","","","","","","","","","","{""race"":[""White""]}","[0]"
"survey-multi-choice","205","551871","0.0-202.0","p822174","AB09F0Q4T10TE","3WRBLBQ2GSENM5LEFQY1C5PG0GV0GC","37Z929RLGBEUF3PQYULTAE5D4DESTH","emotion","mismatch","uniform","","","","","","","16336.099999904633","","","","","","","","","","","","","","","","","","","","","","","{""education"":""Some college/ university""}","[0]"
"survey-text","206","574019","0.0-203.0","p822174","AB09F0Q4T10TE","3WRBLBQ2GSENM5LEFQY1C5PG0GV0GC","37Z929RLGBEUF3PQYULTAE5D4DESTH","emotion","mismatch","uniform","","","","","","","22143.700000047684","","","","","","","","","","","","","","","","","","","","","","","{""patterns"":"""",""strategy"":"""",""comments"":""""}",""
