"trial_type","trial_index","time_elapsed","internal_node_id","subject","workerId","hitId","assignmentId","structure_condition","match_condition","noise_type","success","timeout","failed_images","failed_audio","failed_video","view_history","rt","start_time","end_time","stimuli","image1","image2","image3","image4","choiceLocation","choiceImage","choiceEmotion","choiceModel","choice_index","reward_score","reward","reward_score_unadjusted","reward_image","score_after_trial","emotions","models","rewards","rewards_unadjusted","stimulus","response","question_order"
"pavlovia","0","24","0.0-0.0","p316922","AGQ38QZYDWFO8","3FVBZG9CLKK1M1GPZWGJX51HFG80HB","39JEC7537W7TLE4J63V8WRPGFV8VC6","model","mismatch","uniform","","","","","","","","","","","","","","","","","","","","","","","","","","","","","","",""
"preload","1","76868","0.0-1.0","p316922","AGQ38QZYDWFO8","3FVBZG9CLKK1M1GPZWGJX51HFG80HB","39JEC7537W7TLE4J63V8WRPGFV8VC6","model","mismatch","uniform","true","false","[]","[]","[]","","","","","","","","","","","","","","","","","","","","","","","","","",""
"fullscreen","2","556099","0.0-2.0","p316922","AGQ38QZYDWFO8","3FVBZG9CLKK1M1GPZWGJX51HFG80HB","39JEC7537W7TLE4J63V8WRPGFV8VC6","model","mismatch","uniform","true","","","","","","","","","","","","","","","","","","","","","","","","","","","","","",""
"instructions","3","558475","0.0-3.0","p316922","AGQ38QZYDWFO8","3FVBZG9CLKK1M1GPZWGJX51HFG80HB","39JEC7537W7TLE4J63V8WRPGFV8VC6","model","mismatch","uniform","","","","","","[{""page_index"":0,""viewing_time"":2354}]","2355","","","","","","","","","","","","","","","","","","","","","","","",""
"explore-choice","4","562288","0.0-4.0","p316922","AGQ38QZYDWFO8","3FVBZG9CLKK1M1GPZWGJX51HFG80HB","39JEC7537W7TLE4J63V8WRPGFV8VC6","model","mismatch","uniform","","","","","","","3299","563405","566704","[""stimuli/sheep.jpg"",""stimuli/hammer.jpg"",""stimuli/basketball.jpg"",""stimuli/horse.jpg""]","stimuli/sheep.jpg","stimuli/hammer.jpg","stimuli/basketball.jpg","stimuli/horse.jpg","pos4","stimuli/horse.jpg","","","3","64","64","64","stimuli/stars_8.png","65","","","","","","",""
"explore-choice","5","564376","0.0-5.0","p316922","AGQ38QZYDWFO8","3FVBZG9CLKK1M1GPZWGJX51HFG80HB","39JEC7537W7TLE4J63V8WRPGFV8VC6","model","mismatch","uniform","","","","","","","1575","567216","568791","[""stimuli/hammer.jpg"",""stimuli/basketball.jpg"",""stimuli/horse.jpg"",""stimuli/sheep.jpg""]","stimuli/hammer.jpg","stimuli/basketball.jpg","stimuli/horse.jpg","stimuli/sheep.jpg","pos1","stimuli/hammer.jpg","","","0","8","8","8","stimuli/stars_2.png","9","","","","","","",""
"instructions","6","583147","0.0-6.0","p316922","AGQ38QZYDWFO8","3FVBZG9CLKK1M1GPZWGJX51HFG80HB","39JEC7537W7TLE4J63V8WRPGFV8VC6","model","mismatch","uniform","","","","","","[{""page_index"":0,""viewing_time"":18768}]","18768","","","","","","","","","","","","","","","","","","","","","","","",""
"explore-choice","7","586519","0.0-7.0","p316922","AGQ38QZYDWFO8","3FVBZG9CLKK1M1GPZWGJX51HFG80HB","39JEC7537W7TLE4J63V8WRPGFV8VC6","model","mismatch","uniform","","","","","","","2852","588082","590934","[""stimuli/WF11_SUR.jpg"",""stimuli/HM10_AO.jpg"",""stimuli/HF09_FO.jpg"",""stimuli/WM13_SC.jpg""]","stimuli/WF11_SUR.jpg","stimuli/HM10_AO.jpg","stimuli/HF09_FO.jpg","stimuli/WM13_SC.jpg","pos1","stimuli/WF11_SUR.jpg","SUR","WF11","0","0.5","1","2","stimuli/stars_1.png","1.5","[""SUR"",""AO"",""FO"",""SC""]","[""WF11"",""HM10"",""HF09"",""WM13""]","[1,6,7,4]","[2,4,8,6]","","",""
"show-reward","8","588551","0.0-8.0","p316922","AGQ38QZYDWFO8","3FVBZG9CLKK1M1GPZWGJX51HFG80HB","39JEC7537W7TLE4J63V8WRPGFV8VC6","model","mismatch","uniform","","","","","","","","591449","593465","","","","","","","","","","","","1","","stimuli/stars_1.png","1.5","","","","","stimuli/WF11_SUR.jpg","",""
"explore-choice","9","590705","0.0-9.0","p316922","AGQ38QZYDWFO8","3FVBZG9CLKK1M1GPZWGJX51HFG80HB","39JEC7537W7TLE4J63V8WRPGFV8VC6","model","mismatch","uniform","","","","","","","1609","593517","595126","[""stimuli/WM13_AO.jpg"",""stimuli/HM10_FO.jpg"",""stimuli/WF11_SC.jpg"",""stimuli/HF09_SUR.jpg""]","stimuli/WM13_AO.jpg","stimuli/HM10_FO.jpg","stimuli/WF11_SC.jpg","stimuli/HF09_SUR.jpg","pos2","stimuli/HM10_FO.jpg","FO","HM10","1","2","4","4","stimuli/stars_4.png","3.5","[""AO"",""FO"",""SC"",""SUR""]","[""WM13"",""HM10"",""WF11"",""HF09""]","[7,4,0,9]","[6,4,2,8]","","",""
"show-reward","10","592722","0.0-10.0","p316922","AGQ38QZYDWFO8","3FVBZG9CLKK1M1GPZWGJX51HFG80HB","39JEC7537W7TLE4J63V8WRPGFV8VC6","model","mismatch","uniform","","","","","","","","595635","597639","","","","","","","","","","","","4","","stimuli/stars_4.png","3.5","","","","","stimuli/HM10_FO.jpg","",""
"explore-choice","11","594896","0.0-11.0","p316922","AGQ38QZYDWFO8","3FVBZG9CLKK1M1GPZWGJX51HFG80HB","39JEC7537W7TLE4J63V8WRPGFV8VC6","model","mismatch","uniform","","","","","","","1663","597651","599314","[""stimuli/HF09_SUR.jpg"",""stimuli/WM13_FO.jpg"",""stimuli/HM10_SC.jpg"",""stimuli/WF11_AO.jpg""]","stimuli/HF09_SUR.jpg","stimuli/WM13_FO.jpg","stimuli/HM10_SC.jpg","stimuli/WF11_AO.jpg","pos4","stimuli/WF11_AO.jpg","AO","WF11","3","0","0","2","stimuli/stars_0.png","3.5","[""SUR"",""FO"",""SC"",""AO""]","[""HF09"",""WM13"",""HM10"",""WF11""]","[6,6,5,0]","[8,6,4,2]","","",""
"show-reward","12","596925","0.0-12.0","p316922","AGQ38QZYDWFO8","3FVBZG9CLKK1M1GPZWGJX51HFG80HB","39JEC7537W7TLE4J63V8WRPGFV8VC6","model","mismatch","uniform","","","","","","","","599832","601852","","","","","","","","","","","","0","","stimuli/stars_0.png","3.5","","","","","stimuli/WF11_AO.jpg","",""
"explore-choice","13","598971","0.0-13.0","p316922","AGQ38QZYDWFO8","3FVBZG9CLKK1M1GPZWGJX51HFG80HB","39JEC7537W7TLE4J63V8WRPGFV8VC6","model","mismatch","uniform","","","","","","","1537","601854","603391","[""stimuli/WF11_AO.jpg"",""stimuli/HF09_SUR.jpg"",""stimuli/WM13_SC.jpg"",""stimuli/HM10_FO.jpg""]","stimuli/WF11_AO.jpg","stimuli/HF09_SUR.jpg","stimuli/WM13_SC.jpg","stimuli/HM10_FO.jpg","pos2","stimuli/HF09_SUR.jpg","SUR","HF09","1","3.5","7","8","stimuli/stars_7.png","7","[""AO"",""SUR"",""SC"",""FO""]","[""WF11"",""HF09"",""WM13"",""HM10""]","[4,7,4,2]","[2,8,6,4]","","",""
"show-reward","14","601144","0.0-14.0","p316922","AGQ38QZYDWFO8","3FVBZG9CLKK1M1GPZWGJX51HFG80HB","39JEC7537W7TLE4J63V8WRPGFV8VC6","model","mismatch","uniform","","","","","","","","603899","606068","","","","","","","","","","","","7","","stimuli/stars_7.png","7","","","","","stimuli/HF09_SUR.jpg","",""
"explore-choice","15","603190","0.0-15.0","p316922","AGQ38QZYDWFO8","3FVBZG9CLKK1M1GPZWGJX51HFG80HB","39JEC7537W7TLE4J63V8WRPGFV8VC6","model","mismatch","uniform","","","","","","","1491","606080","607571","[""stimuli/WF11_SC.jpg"",""stimuli/HF09_AO.jpg"",""stimuli/WM13_SUR.jpg"",""stimuli/HM10_FO.jpg""]","stimuli/WF11_SC.jpg","stimuli/HF09_AO.jpg","stimuli/WM13_SUR.jpg","stimuli/HM10_FO.jpg","pos3","stimuli/WM13_SUR.jpg","SUR","WM13","2","2.5","5","6","stimuli/stars_5.png","9.5","[""SC"",""AO"",""SUR"",""FO""]","[""WF11"",""HF09"",""WM13"",""HM10""]","[4,8,5,3]","[2,8,6,4]","","",""
"show-reward","16","605259","0.0-16.0","p316922","AGQ38QZYDWFO8","3FVBZG9CLKK1M1GPZWGJX51HFG80HB","39JEC7537W7TLE4J63V8WRPGFV8VC6","model","mismatch","uniform","","","","","","","","608140","610180","","","","","","","","","","","","5","","stimuli/stars_5.png","9.5","","","","","stimuli/WM13_SUR.jpg","",""
"explore-choice","17","607226","0.0-17.0","p316922","AGQ38QZYDWFO8","3FVBZG9CLKK1M1GPZWGJX51HFG80HB","39JEC7537W7TLE4J63V8WRPGFV8VC6","model","mismatch","uniform","","","","","","","1464","610187","611651","[""stimuli/WM13_AO.jpg"",""stimuli/HF09_FO.jpg"",""stimuli/HM10_SUR.jpg"",""stimuli/WF11_SC.jpg""]","stimuli/WM13_AO.jpg","stimuli/HF09_FO.jpg","stimuli/HM10_SUR.jpg","stimuli/WF11_SC.jpg","pos4","stimuli/WF11_SC.jpg","SC","WF11","3","2","4","2","stimuli/stars_4.png","11.5","[""AO"",""FO"",""SUR"",""SC""]","[""WM13"",""HF09"",""HM10"",""WF11""]","[6,9,4,4]","[6,8,4,2]","","",""
"show-reward","18","609389","0.0-18.0","p316922","AGQ38QZYDWFO8","3FVBZG9CLKK1M1GPZWGJX51HFG80HB","39JEC7537W7TLE4J63V8WRPGFV8VC6","model","mismatch","uniform","","","","","","","","612155","614315","","","","","","","","","","","","4","","stimuli/stars_4.png","11.5","","","","","stimuli/WF11_SC.jpg","",""
"explore-choice","19","612639","0.0-19.0","p316922","AGQ38QZYDWFO8","3FVBZG9CLKK1M1GPZWGJX51HFG80HB","39JEC7537W7TLE4J63V8WRPGFV8VC6","model","mismatch","uniform","","","","","","","2747","614318","617065","[""stimuli/HF09_SC.jpg"",""stimuli/WM13_SUR.jpg"",""stimuli/HM10_AO.jpg"",""stimuli/WF11_FO.jpg""]","stimuli/HF09_SC.jpg","stimuli/WM13_SUR.jpg","stimuli/HM10_AO.jpg","stimuli/WF11_FO.jpg","pos2","stimuli/WM13_SUR.jpg","SUR","WM13","1","3","6","6","stimuli/stars_6.png","14.5","[""SC"",""SUR"",""AO"",""FO""]","[""HF09"",""WM13"",""HM10"",""WF11""]","[9,6,5,1]","[8,6,4,2]","","",""
"show-reward","20","614645","0.0-20.0","p316922","AGQ38QZYDWFO8","3FVBZG9CLKK1M1GPZWGJX51HFG80HB","39JEC7537W7TLE4J63V8WRPGFV8VC6","model","mismatch","uniform","","","","","","","","617567","619568","","","","","","","","","","","","6","","stimuli/stars_6.png","14.5","","","","","stimuli/WM13_SUR.jpg","",""
"explore-choice","21","618327","0.0-21.0","p316922","AGQ38QZYDWFO8","3FVBZG9CLKK1M1GPZWGJX51HFG80HB","39JEC7537W7TLE4J63V8WRPGFV8VC6","model","mismatch","uniform","","","","","","","3179","619573","622752","[""stimuli/HF09_SUR.jpg"",""stimuli/HM10_SC.jpg"",""stimuli/WF11_FO.jpg"",""stimuli/WM13_AO.jpg""]","stimuli/HF09_SUR.jpg","stimuli/HM10_SC.jpg","stimuli/WF11_FO.jpg","stimuli/WM13_AO.jpg","pos1","stimuli/HF09_SUR.jpg","SUR","HF09","0","5","10","8","stimuli/stars_10.png","19.5","[""SUR"",""SC"",""FO"",""AO""]","[""HF09"",""HM10"",""WF11"",""WM13""]","[10,3,2,5]","[8,4,2,6]","","",""
"show-reward","22","620438","0.0-22.0","p316922","AGQ38QZYDWFO8","3FVBZG9CLKK1M1GPZWGJX51HFG80HB","39JEC7537W7TLE4J63V8WRPGFV8VC6","model","mismatch","uniform","","","","","","","","623255","625351","","","","","","","","","","","","10","","stimuli/stars_10.png","19.5","","","","","stimuli/HF09_SUR.jpg","",""
"explore-choice","23","622521","0.0-23.0","p316922","AGQ38QZYDWFO8","3FVBZG9CLKK1M1GPZWGJX51HFG80HB","39JEC7537W7TLE4J63V8WRPGFV8VC6","model","mismatch","uniform","","","","","","","1550","625366","626916","[""stimuli/WM13_FO.jpg"",""stimuli/HM10_SUR.jpg"",""stimuli/HF09_AO.jpg"",""stimuli/WF11_SC.jpg""]","stimuli/WM13_FO.jpg","stimuli/HM10_SUR.jpg","stimuli/HF09_AO.jpg","stimuli/WF11_SC.jpg","pos2","stimuli/HM10_SUR.jpg","SUR","HM10","1","2.5","5","4","stimuli/stars_5.png","22","[""FO"",""SUR"",""AO"",""SC""]","[""WM13"",""HM10"",""HF09"",""WF11""]","[5,5,7,4]","[6,4,8,2]","","",""
"show-reward","24","624541","0.0-24.0","p316922","AGQ38QZYDWFO8","3FVBZG9CLKK1M1GPZWGJX51HFG80HB","39JEC7537W7TLE4J63V8WRPGFV8VC6","model","mismatch","uniform","","","","","","","","627450","629466","","","","","","","","","","","","5","","stimuli/stars_5.png","22","","","","","stimuli/HM10_SUR.jpg","",""
"explore-choice","25","626462","0.0-25.0","p316922","AGQ38QZYDWFO8","3FVBZG9CLKK1M1GPZWGJX51HFG80HB","39JEC7537W7TLE4J63V8WRPGFV8VC6","model","mismatch","uniform","","","","","","","1404","629469","630873","[""stimuli/WM13_SUR.jpg"",""stimuli/HM10_FO.jpg"",""stimuli/WF11_AO.jpg"",""stimuli/HF09_SC.jpg""]","stimuli/WM13_SUR.jpg","stimuli/HM10_FO.jpg","stimuli/WF11_AO.jpg","stimuli/HF09_SC.jpg","pos2","stimuli/HM10_FO.jpg","FO","HM10","1","2","4","4","stimuli/stars_4.png","24","[""SUR"",""FO"",""AO"",""SC""]","[""WM13"",""HM10"",""WF11"",""HF09""]","[8,4,4,9]","[6,4,2,8]","","",""
"show-reward","26","628491","0.0-26.0","p316922","AGQ38QZYDWFO8","3FVBZG9CLKK1M1GPZWGJX51HFG80HB","39JEC7537W7TLE4J63V8WRPGFV8VC6","model","mismatch","uniform","","","","","","","","631393","633408","","","","","","","","","","","","4","","stimuli/stars_4.png","24","","","","","stimuli/HM10_FO.jpg","",""
"explore-choice","27","631085","0.0-27.0","p316922","AGQ38QZYDWFO8","3FVBZG9CLKK1M1GPZWGJX51HFG80HB","39JEC7537W7TLE4J63V8WRPGFV8VC6","model","mismatch","uniform","","","","","","","2087","633419","635506","[""stimuli/WM13_SC.jpg"",""stimuli/WF11_SUR.jpg"",""stimuli/HF09_AO.jpg"",""stimuli/HM10_FO.jpg""]","stimuli/WM13_SC.jpg","stimuli/WF11_SUR.jpg","stimuli/HF09_AO.jpg","stimuli/HM10_FO.jpg","pos3","stimuli/HF09_AO.jpg","AO","HF09","2","3","6","8","stimuli/stars_6.png","27","[""SC"",""SUR"",""AO"",""FO""]","[""WM13"",""WF11"",""HF09"",""HM10""]","[6,2,6,4]","[6,2,8,4]","","",""
"show-reward","28","633109","0.0-28.0","p316922","AGQ38QZYDWFO8","3FVBZG9CLKK1M1GPZWGJX51HFG80HB","39JEC7537W7TLE4J63V8WRPGFV8VC6","model","mismatch","uniform","","","","","","","","636014","638033","","","","","","","","","","","","6","","stimuli/stars_6.png","27","","","","","stimuli/HF09_AO.jpg","",""
"explore-choice","29","637601","0.0-29.0","p316922","AGQ38QZYDWFO8","3FVBZG9CLKK1M1GPZWGJX51HFG80HB","39JEC7537W7TLE4J63V8WRPGFV8VC6","model","mismatch","uniform","","","","","","","3975","638038","642013","[""stimuli/WF11_SUR.jpg"",""stimuli/HM10_SC.jpg"",""stimuli/HF09_AO.jpg"",""stimuli/WM13_FO.jpg""]","stimuli/WF11_SUR.jpg","stimuli/HM10_SC.jpg","stimuli/HF09_AO.jpg","stimuli/WM13_FO.jpg","pos2","stimuli/HM10_SC.jpg","SC","HM10","1","3","6","4","stimuli/stars_6.png","30","[""SUR"",""SC"",""AO"",""FO""]","[""WF11"",""HM10"",""HF09"",""WM13""]","[0,6,9,5]","[2,4,8,6]","","",""
"show-reward","30","639612","0.0-30.0","p316922","AGQ38QZYDWFO8","3FVBZG9CLKK1M1GPZWGJX51HFG80HB","39JEC7537W7TLE4J63V8WRPGFV8VC6","model","mismatch","uniform","","","","","","","","642529","644537","","","","","","","","","","","","6","","stimuli/stars_6.png","30","","","","","stimuli/HM10_SC.jpg","",""
"explore-choice","31","641504","0.0-31.0","p316922","AGQ38QZYDWFO8","3FVBZG9CLKK1M1GPZWGJX51HFG80HB","39JEC7537W7TLE4J63V8WRPGFV8VC6","model","mismatch","uniform","","","","","","","1387","644539","645926","[""stimuli/WF11_SUR.jpg"",""stimuli/HF09_SC.jpg"",""stimuli/WM13_AO.jpg"",""stimuli/HM10_FO.jpg""]","stimuli/WF11_SUR.jpg","stimuli/HF09_SC.jpg","stimuli/WM13_AO.jpg","stimuli/HM10_FO.jpg","pos2","stimuli/HF09_SC.jpg","SC","HF09","1","4","8","8","stimuli/stars_8.png","34","[""SUR"",""SC"",""AO"",""FO""]","[""WF11"",""HF09"",""WM13"",""HM10""]","[3,8,4,2]","[2,8,6,4]","","",""
"show-reward","32","643510","0.0-32.0","p316922","AGQ38QZYDWFO8","3FVBZG9CLKK1M1GPZWGJX51HFG80HB","39JEC7537W7TLE4J63V8WRPGFV8VC6","model","mismatch","uniform","","","","","","","","646432","648436","","","","","","","","","","","","8","","stimuli/stars_8.png","34","","","","","stimuli/HF09_SC.jpg","",""
"explore-choice","33","645559","0.0-33.0","p316922","AGQ38QZYDWFO8","3FVBZG9CLKK1M1GPZWGJX51HFG80HB","39JEC7537W7TLE4J63V8WRPGFV8VC6","model","mismatch","uniform","","","","","","","1547","648437","649984","[""stimuli/WM13_SC.jpg"",""stimuli/HM10_SUR.jpg"",""stimuli/HF09_FO.jpg"",""stimuli/WF11_AO.jpg""]","stimuli/WM13_SC.jpg","stimuli/HM10_SUR.jpg","stimuli/HF09_FO.jpg","stimuli/WF11_AO.jpg","pos3","stimuli/HF09_FO.jpg","FO","HF09","2","3.5","7","8","stimuli/stars_7.png","37.5","[""SC"",""SUR"",""FO"",""AO""]","[""WM13"",""HM10"",""HF09"",""WF11""]","[6,5,7,4]","[6,4,8,2]","","",""
"show-reward","34","647591","0.0-34.0","p316922","AGQ38QZYDWFO8","3FVBZG9CLKK1M1GPZWGJX51HFG80HB","39JEC7537W7TLE4J63V8WRPGFV8VC6","model","mismatch","uniform","","","","","","","","650486","652517","","","","","","","","","","","","7","","stimuli/stars_7.png","37.5","","","","","stimuli/HF09_FO.jpg","",""
"explore-choice","35","650574","0.0-35.0","p316922","AGQ38QZYDWFO8","3FVBZG9CLKK1M1GPZWGJX51HFG80HB","39JEC7537W7TLE4J63V8WRPGFV8VC6","model","mismatch","uniform","","","","","","","2480","652519","654999","[""stimuli/WF11_FO.jpg"",""stimuli/HF09_AO.jpg"",""stimuli/HM10_SUR.jpg"",""stimuli/WM13_SC.jpg""]","stimuli/WF11_FO.jpg","stimuli/HF09_AO.jpg","stimuli/HM10_SUR.jpg","stimuli/WM13_SC.jpg","pos2","stimuli/HF09_AO.jpg","AO","HF09","1","4.5","9","8","stimuli/stars_9.png","42","[""FO"",""AO"",""SUR"",""SC""]","[""WF11"",""HF09"",""HM10"",""WM13""]","[3,9,4,7]","[2,8,4,6]","","",""
"show-reward","36","652582","0.0-36.0","p316922","AGQ38QZYDWFO8","3FVBZG9CLKK1M1GPZWGJX51HFG80HB","39JEC7537W7TLE4J63V8WRPGFV8VC6","model","mismatch","uniform","","","","","","","","655503","657508","","","","","","","","","","","","9","","stimuli/stars_9.png","42","","","","","stimuli/HF09_AO.jpg","",""
"explore-choice","37","655359","0.0-37.0","p316922","AGQ38QZYDWFO8","3FVBZG9CLKK1M1GPZWGJX51HFG80HB","39JEC7537W7TLE4J63V8WRPGFV8VC6","model","mismatch","uniform","","","","","","","2224","657512","659736","[""stimuli/HF09_SUR.jpg"",""stimuli/WM13_FO.jpg"",""stimuli/WF11_SC.jpg"",""stimuli/HM10_AO.jpg""]","stimuli/HF09_SUR.jpg","stimuli/WM13_FO.jpg","stimuli/WF11_SC.jpg","stimuli/HM10_AO.jpg","pos4","stimuli/HM10_AO.jpg","AO","HM10","3","2.5","5","4","stimuli/stars_5.png","44.5","[""SUR"",""FO"",""SC"",""AO""]","[""HF09"",""WM13"",""WF11"",""HM10""]","[9,5,0,5]","[8,6,2,4]","","",""
"show-reward","38","657482","0.0-38.0","p316922","AGQ38QZYDWFO8","3FVBZG9CLKK1M1GPZWGJX51HFG80HB","39JEC7537W7TLE4J63V8WRPGFV8VC6","model","mismatch","uniform","","","","","","","","660289","662407","","","","","","","","","","","","5","","stimuli/stars_5.png","44.5","","","","","stimuli/HM10_AO.jpg","",""
"explore-choice","39","689707","0.0-39.0","p316922","AGQ38QZYDWFO8","3FVBZG9CLKK1M1GPZWGJX51HFG80HB","39JEC7537W7TLE4J63V8WRPGFV8VC6","model","mismatch","uniform","","","","","","","31710","662409","694119","[""stimuli/HF09_SC.jpg"",""stimuli/WF11_AO.jpg"",""stimuli/HM10_SUR.jpg"",""stimuli/WM13_FO.jpg""]","stimuli/HF09_SC.jpg","stimuli/WF11_AO.jpg","stimuli/HM10_SUR.jpg","stimuli/WM13_FO.jpg","pos1","stimuli/HF09_SC.jpg","SC","HF09","0","4","8","8","stimuli/stars_8.png","48.5","[""SC"",""AO"",""SUR"",""FO""]","[""HF09"",""WF11"",""HM10"",""WM13""]","[8,3,3,4]","[8,2,4,6]","","",""
"show-reward","40","691722","0.0-40.0","p316922","AGQ38QZYDWFO8","3FVBZG9CLKK1M1GPZWGJX51HFG80HB","39JEC7537W7TLE4J63V8WRPGFV8VC6","model","mismatch","uniform","","","","","","","","694636","696646","","","","","","","","","","","","8","","stimuli/stars_8.png","48.5","","","","","stimuli/HF09_SC.jpg","",""
"explore-choice","41","694454","0.0-41.0","p316922","AGQ38QZYDWFO8","3FVBZG9CLKK1M1GPZWGJX51HFG80HB","39JEC7537W7TLE4J63V8WRPGFV8VC6","model","mismatch","uniform","","","","","","","2215","696650","698865","[""stimuli/HM10_SC.jpg"",""stimuli/HF09_FO.jpg"",""stimuli/WF11_AO.jpg"",""stimuli/WM13_SUR.jpg""]","stimuli/HM10_SC.jpg","stimuli/HF09_FO.jpg","stimuli/WF11_AO.jpg","stimuli/WM13_SUR.jpg","pos2","stimuli/HF09_FO.jpg","FO","HF09","1","3","6","8","stimuli/stars_6.png","51.5","[""SC"",""FO"",""AO"",""SUR""]","[""HM10"",""HF09"",""WF11"",""WM13""]","[4,6,1,4]","[4,8,2,6]","","",""
"show-reward","42","696517","0.0-42.0","p316922","AGQ38QZYDWFO8","3FVBZG9CLKK1M1GPZWGJX51HFG80HB","39JEC7537W7TLE4J63V8WRPGFV8VC6","model","mismatch","uniform","","","","","","","","699382","701443","","","","","","","","","","","","6","","stimuli/stars_6.png","51.5","","","","","stimuli/HF09_FO.jpg","",""
"explore-choice","43","698732","0.0-43.0","p316922","AGQ38QZYDWFO8","3FVBZG9CLKK1M1GPZWGJX51HFG80HB","39JEC7537W7TLE4J63V8WRPGFV8VC6","model","mismatch","uniform","","","","","","","1667","701445","703112","[""stimuli/HF09_AO.jpg"",""stimuli/WM13_SUR.jpg"",""stimuli/HM10_SC.jpg"",""stimuli/WF11_FO.jpg""]","stimuli/HF09_AO.jpg","stimuli/WM13_SUR.jpg","stimuli/HM10_SC.jpg","stimuli/WF11_FO.jpg","pos4","stimuli/WF11_FO.jpg","FO","WF11","3","0","0","2","stimuli/stars_0.png","51.5","[""AO"",""SUR"",""SC"",""FO""]","[""HF09"",""WM13"",""HM10"",""WF11""]","[7,5,6,0]","[8,6,4,2]","","",""
"show-reward","44","700741","0.0-44.0","p316922","AGQ38QZYDWFO8","3FVBZG9CLKK1M1GPZWGJX51HFG80HB","39JEC7537W7TLE4J63V8WRPGFV8VC6","model","mismatch","uniform","","","","","","","","703661","705666","","","","","","","","","","","","0","","stimuli/stars_0.png","51.5","","","","","stimuli/WF11_FO.jpg","",""
"explore-choice","45","705458","0.0-45.0","p316922","AGQ38QZYDWFO8","3FVBZG9CLKK1M1GPZWGJX51HFG80HB","39JEC7537W7TLE4J63V8WRPGFV8VC6","model","mismatch","uniform","","","","","","","4216","705668","709884","[""stimuli/HM10_AO.jpg"",""stimuli/HF09_SUR.jpg"",""stimuli/WF11_FO.jpg"",""stimuli/WM13_SC.jpg""]","stimuli/HM10_AO.jpg","stimuli/HF09_SUR.jpg","stimuli/WF11_FO.jpg","stimuli/WM13_SC.jpg","pos2","stimuli/HF09_SUR.jpg","SUR","HF09","1","4.5","9","8","stimuli/stars_9.png","56","[""AO"",""SUR"",""FO"",""SC""]","[""HM10"",""HF09"",""WF11"",""WM13""]","[2,9,2,4]","[4,8,2,6]","","",""
"show-reward","46","707472","0.0-46.0","p316922","AGQ38QZYDWFO8","3FVBZG9CLKK1M1GPZWGJX51HFG80HB","39JEC7537W7TLE4J63V8WRPGFV8VC6","model","mismatch","uniform","","","","","","","","710385","712395","","","","","","","","","","","","9","","stimuli/stars_9.png","56","","","","","stimuli/HF09_SUR.jpg","",""
"explore-choice","47","709589","0.0-47.0","p316922","AGQ38QZYDWFO8","3FVBZG9CLKK1M1GPZWGJX51HFG80HB","39JEC7537W7TLE4J63V8WRPGFV8VC6","model","mismatch","uniform","","","","","","","1607","712400","714007","[""stimuli/HM10_AO.jpg"",""stimuli/WM13_FO.jpg"",""stimuli/WF11_SUR.jpg"",""stimuli/HF09_SC.jpg""]","stimuli/HM10_AO.jpg","stimuli/WM13_FO.jpg","stimuli/WF11_SUR.jpg","stimuli/HF09_SC.jpg","pos1","stimuli/HM10_AO.jpg","AO","HM10","0","1","2","4","stimuli/stars_2.png","57","[""AO"",""FO"",""SUR"",""SC""]","[""HM10"",""WM13"",""WF11"",""HF09""]","[2,6,0,6]","[4,6,2,8]","","",""
"show-reward","48","711627","0.0-48.0","p316922","AGQ38QZYDWFO8","3FVBZG9CLKK1M1GPZWGJX51HFG80HB","39JEC7537W7TLE4J63V8WRPGFV8VC6","model","mismatch","uniform","","","","","","","","714517","716552","","","","","","","","","","","","2","","stimuli/stars_2.png","57","","","","","stimuli/HM10_AO.jpg","",""
"explore-choice","49","721271","0.0-49.0","p316922","AGQ38QZYDWFO8","3FVBZG9CLKK1M1GPZWGJX51HFG80HB","39JEC7537W7TLE4J63V8WRPGFV8VC6","model","mismatch","uniform","","","","","","","8949","716555","725504","[""stimuli/HM10_SUR.jpg"",""stimuli/WM13_AO.jpg"",""stimuli/HF09_SC.jpg"",""stimuli/WF11_FO.jpg""]","stimuli/HM10_SUR.jpg","stimuli/WM13_AO.jpg","stimuli/HF09_SC.jpg","stimuli/WF11_FO.jpg","pos1","stimuli/HM10_SUR.jpg","SUR","HM10","0","3","6","4","stimuli/stars_6.png","60","[""SUR"",""AO"",""SC"",""FO""]","[""HM10"",""WM13"",""HF09"",""WF11""]","[6,8,9,2]","[4,6,8,2]","","",""
"show-reward","50","723327","0.0-50.0","p316922","AGQ38QZYDWFO8","3FVBZG9CLKK1M1GPZWGJX51HFG80HB","39JEC7537W7TLE4J63V8WRPGFV8VC6","model","mismatch","uniform","","","","","","","","726199","728252","","","","","","","","","","","","6","","stimuli/stars_6.png","60","","","","","stimuli/HM10_SUR.jpg","",""
"explore-choice","51","836878","0.0-51.0","p316922","AGQ38QZYDWFO8","3FVBZG9CLKK1M1GPZWGJX51HFG80HB","39JEC7537W7TLE4J63V8WRPGFV8VC6","model","mismatch","uniform","","","","","","","112939","728254","841193","[""stimuli/HF09_FO.jpg"",""stimuli/WF11_SUR.jpg"",""stimuli/WM13_AO.jpg"",""stimuli/HM10_SC.jpg""]","stimuli/HF09_FO.jpg","stimuli/WF11_SUR.jpg","stimuli/WM13_AO.jpg","stimuli/HM10_SC.jpg","pos2","stimuli/WF11_SUR.jpg","SUR","WF11","1","0","0","2","stimuli/stars_0.png","60","[""FO"",""SUR"",""AO"",""SC""]","[""HF09"",""WF11"",""WM13"",""HM10""]","[10,0,4,4]","[8,2,6,4]","","",""
"show-reward","52","838885","0.0-52.0","p316922","AGQ38QZYDWFO8","3FVBZG9CLKK1M1GPZWGJX51HFG80HB","39JEC7537W7TLE4J63V8WRPGFV8VC6","model","mismatch","uniform","","","","","","","","841806","843811","","","","","","","","","","","","0","","stimuli/stars_0.png","60","","","","","stimuli/WF11_SUR.jpg","",""
"explore-choice","53","840986","0.0-53.0","p316922","AGQ38QZYDWFO8","3FVBZG9CLKK1M1GPZWGJX51HFG80HB","39JEC7537W7TLE4J63V8WRPGFV8VC6","model","mismatch","uniform","","","","","","","1597","843814","845411","[""stimuli/HF09_FO.jpg"",""stimuli/HM10_AO.jpg"",""stimuli/WF11_SC.jpg"",""stimuli/WM13_SUR.jpg""]","stimuli/HF09_FO.jpg","stimuli/HM10_AO.jpg","stimuli/WF11_SC.jpg","stimuli/WM13_SUR.jpg","pos2","stimuli/HM10_AO.jpg","AO","HM10","1","2","4","4","stimuli/stars_4.png","62","[""FO"",""AO"",""SC"",""SUR""]","[""HF09"",""HM10"",""WF11"",""WM13""]","[9,4,4,4]","[8,4,2,6]","","",""
"show-reward","54","843014","0.0-54.0","p316922","AGQ38QZYDWFO8","3FVBZG9CLKK1M1GPZWGJX51HFG80HB","39JEC7537W7TLE4J63V8WRPGFV8VC6","model","mismatch","uniform","","","","","","","","845914","847922","","","","","","","","","","","","4","","stimuli/stars_4.png","62","","","","","stimuli/HM10_AO.jpg","",""
"explore-choice","55","845234","0.0-55.0","p316922","AGQ38QZYDWFO8","3FVBZG9CLKK1M1GPZWGJX51HFG80HB","39JEC7537W7TLE4J63V8WRPGFV8VC6","model","mismatch","uniform","","","","","","","1714","847942","849656","[""stimuli/HF09_SUR.jpg"",""stimuli/WM13_FO.jpg"",""stimuli/HM10_AO.jpg"",""stimuli/WF11_SC.jpg""]","stimuli/HF09_SUR.jpg","stimuli/WM13_FO.jpg","stimuli/HM10_AO.jpg","stimuli/WF11_SC.jpg","pos1","stimuli/HF09_SUR.jpg","SUR","HF09","0","4.5","9","8","stimuli/stars_9.png","66.5","[""SUR"",""FO"",""AO"",""SC""]","[""HF09"",""WM13"",""HM10"",""WF11""]","[9,5,5,0]","[8,6,4,2]","","",""
"show-reward","56","847245","0.0-56.0","p316922","AGQ38QZYDWFO8","3FVBZG9CLKK1M1GPZWGJX51HFG80HB","39JEC7537W7TLE4J63V8WRPGFV8VC6","model","mismatch","uniform","","","","","","","","850161","852170","","","","","","","","","","","","9","","stimuli/stars_9.png","66.5","","","","","stimuli/HF09_SUR.jpg","",""
"explore-choice","57","849393","0.0-57.0","p316922","AGQ38QZYDWFO8","3FVBZG9CLKK1M1GPZWGJX51HFG80HB","39JEC7537W7TLE4J63V8WRPGFV8VC6","model","mismatch","uniform","","","","","","","1640","852175","853815","[""stimuli/WM13_SC.jpg"",""stimuli/HF09_FO.jpg"",""stimuli/HM10_AO.jpg"",""stimuli/WF11_SUR.jpg""]","stimuli/WM13_SC.jpg","stimuli/HF09_FO.jpg","stimuli/HM10_AO.jpg","stimuli/WF11_SUR.jpg","pos2","stimuli/HF09_FO.jpg","FO","HF09","1","3.5","7","8","stimuli/stars_7.png","70","[""SC"",""FO"",""AO"",""SUR""]","[""WM13"",""HF09"",""HM10"",""WF11""]","[4,7,6,1]","[6,8,4,2]","","",""
"show-reward","58","851413","0.0-58.0","p316922","AGQ38QZYDWFO8","3FVBZG9CLKK1M1GPZWGJX51HFG80HB","39JEC7537W7TLE4J63V8WRPGFV8VC6","model","mismatch","uniform","","","","","","","","854324","856338","","","","","","","","","","","","7","","stimuli/stars_7.png","70","","","","","stimuli/HF09_FO.jpg","",""
"explore-choice","59","918765","0.0-59.0","p316922","AGQ38QZYDWFO8","3FVBZG9CLKK1M1GPZWGJX51HFG80HB","39JEC7537W7TLE4J63V8WRPGFV8VC6","model","mismatch","uniform","","","","","","","66850","856341","923191","[""stimuli/HF09_FO.jpg"",""stimuli/WF11_SC.jpg"",""stimuli/HM10_SUR.jpg"",""stimuli/WM13_AO.jpg""]","stimuli/HF09_FO.jpg","stimuli/WF11_SC.jpg","stimuli/HM10_SUR.jpg","stimuli/WM13_AO.jpg","pos1","stimuli/HF09_FO.jpg","FO","HF09","0","4.5","9","8","stimuli/stars_9.png","74.5","[""FO"",""SC"",""SUR"",""AO""]","[""HF09"",""WF11"",""HM10"",""WM13""]","[9,4,4,6]","[8,2,4,6]","","",""
"show-reward","60","920787","0.0-60.0","p316922","AGQ38QZYDWFO8","3FVBZG9CLKK1M1GPZWGJX51HFG80HB","39JEC7537W7TLE4J63V8WRPGFV8VC6","model","mismatch","uniform","","","","","","","","923693","925711","","","","","","","","","","","","9","","stimuli/stars_9.png","74.5","","","","","stimuli/HF09_FO.jpg","",""
"explore-choice","61","923553","0.0-61.0","p316922","AGQ38QZYDWFO8","3FVBZG9CLKK1M1GPZWGJX51HFG80HB","39JEC7537W7TLE4J63V8WRPGFV8VC6","model","mismatch","uniform","","","","","","","2196","925727","927923","[""stimuli/HM10_SC.jpg"",""stimuli/WM13_FO.jpg"",""stimuli/WF11_SUR.jpg"",""stimuli/HF09_AO.jpg""]","stimuli/HM10_SC.jpg","stimuli/WM13_FO.jpg","stimuli/WF11_SUR.jpg","stimuli/HF09_AO.jpg","pos2","stimuli/WM13_FO.jpg","FO","WM13","1","2.5","5","6","stimuli/stars_5.png","77","[""SC"",""FO"",""SUR"",""AO""]","[""HM10"",""WM13"",""WF11"",""HF09""]","[6,5,0,9]","[4,6,2,8]","","",""
"show-reward","62","925566","0.0-62.0","p316922","AGQ38QZYDWFO8","3FVBZG9CLKK1M1GPZWGJX51HFG80HB","39JEC7537W7TLE4J63V8WRPGFV8VC6","model","mismatch","uniform","","","","","","","","928480","930491","","","","","","","","","","","","5","","stimuli/stars_5.png","77","","","","","stimuli/WM13_FO.jpg","",""
"explore-choice","63","928229","0.0-63.0","p316922","AGQ38QZYDWFO8","3FVBZG9CLKK1M1GPZWGJX51HFG80HB","39JEC7537W7TLE4J63V8WRPGFV8VC6","model","mismatch","uniform","","","","","","","2149","930495","932644","[""stimuli/HM10_FO.jpg"",""stimuli/HF09_AO.jpg"",""stimuli/WM13_SUR.jpg"",""stimuli/WF11_SC.jpg""]","stimuli/HM10_FO.jpg","stimuli/HF09_AO.jpg","stimuli/WM13_SUR.jpg","stimuli/WF11_SC.jpg","pos2","stimuli/HF09_AO.jpg","AO","HF09","1","4","8","8","stimuli/stars_8.png","81","[""FO"",""AO"",""SUR"",""SC""]","[""HM10"",""HF09"",""WM13"",""WF11""]","[3,8,5,4]","[4,8,6,2]","","",""
"show-reward","64","930244","0.0-64.0","p316922","AGQ38QZYDWFO8","3FVBZG9CLKK1M1GPZWGJX51HFG80HB","39JEC7537W7TLE4J63V8WRPGFV8VC6","model","mismatch","uniform","","","","","","","","933157","935169","","","","","","","","","","","","8","","stimuli/stars_8.png","81","","","","","stimuli/HF09_AO.jpg","",""
"explore-choice","65","979791","0.0-65.0","p316922","AGQ38QZYDWFO8","3FVBZG9CLKK1M1GPZWGJX51HFG80HB","39JEC7537W7TLE4J63V8WRPGFV8VC6","model","mismatch","uniform","","","","","","","49029","935179","984208","[""stimuli/WM13_SC.jpg"",""stimuli/HM10_SUR.jpg"",""stimuli/WF11_FO.jpg"",""stimuli/HF09_AO.jpg""]","stimuli/WM13_SC.jpg","stimuli/HM10_SUR.jpg","stimuli/WF11_FO.jpg","stimuli/HF09_AO.jpg","pos2","stimuli/HM10_SUR.jpg","SUR","HM10","1","2","4","4","stimuli/stars_4.png","83","[""SC"",""SUR"",""FO"",""AO""]","[""WM13"",""HM10"",""WF11"",""HF09""]","[7,4,3,9]","[6,4,2,8]","","",""
"show-reward","66","981802","0.0-66.0","p316922","AGQ38QZYDWFO8","3FVBZG9CLKK1M1GPZWGJX51HFG80HB","39JEC7537W7TLE4J63V8WRPGFV8VC6","model","mismatch","uniform","","","","","","","","984721","986727","","","","","","","","","","","","4","","stimuli/stars_4.png","83","","","","","stimuli/HM10_SUR.jpg","",""
"explore-choice","67","984525","0.0-67.0","p316922","AGQ38QZYDWFO8","3FVBZG9CLKK1M1GPZWGJX51HFG80HB","39JEC7537W7TLE4J63V8WRPGFV8VC6","model","mismatch","uniform","","","","","","","2204","986730","988934","[""stimuli/HM10_FO.jpg"",""stimuli/WM13_SC.jpg"",""stimuli/WF11_AO.jpg"",""stimuli/HF09_SUR.jpg""]","stimuli/HM10_FO.jpg","stimuli/WM13_SC.jpg","stimuli/WF11_AO.jpg","stimuli/HF09_SUR.jpg","pos1","stimuli/HM10_FO.jpg","FO","HM10","0","1","2","4","stimuli/stars_2.png","84","[""FO"",""SC"",""AO"",""SUR""]","[""HM10"",""WM13"",""WF11"",""HF09""]","[2,4,4,7]","[4,6,2,8]","","",""
"show-reward","68","986538","0.0-68.0","p316922","AGQ38QZYDWFO8","3FVBZG9CLKK1M1GPZWGJX51HFG80HB","39JEC7537W7TLE4J63V8WRPGFV8VC6","model","mismatch","uniform","","","","","","","","989452","991460","","","","","","","","","","","","2","","stimuli/stars_2.png","84","","","","","stimuli/HM10_FO.jpg","",""
"explore-choice","69","1021808","0.0-69.0","p316922","AGQ38QZYDWFO8","3FVBZG9CLKK1M1GPZWGJX51HFG80HB","39JEC7537W7TLE4J63V8WRPGFV8VC6","model","mismatch","uniform","","","","","","","34765","991468","1026233","[""stimuli/HM10_AO.jpg"",""stimuli/WM13_SUR.jpg"",""stimuli/WF11_SC.jpg"",""stimuli/HF09_FO.jpg""]","stimuli/HM10_AO.jpg","stimuli/WM13_SUR.jpg","stimuli/WF11_SC.jpg","stimuli/HF09_FO.jpg","pos2","stimuli/WM13_SUR.jpg","SUR","WM13","1","2","4","6","stimuli/stars_4.png","86","[""AO"",""SUR"",""SC"",""FO""]","[""HM10"",""WM13"",""WF11"",""HF09""]","[4,4,4,9]","[4,6,2,8]","","",""
"show-reward","70","1023844","0.0-70.0","p316922","AGQ38QZYDWFO8","3FVBZG9CLKK1M1GPZWGJX51HFG80HB","39JEC7537W7TLE4J63V8WRPGFV8VC6","model","mismatch","uniform","","","","","","","","1026735","1028760","","","","","","","","","","","","4","","stimuli/stars_4.png","86","","","","","stimuli/WM13_SUR.jpg","",""
"explore-choice","71","1025770","0.0-71.0","p316922","AGQ38QZYDWFO8","3FVBZG9CLKK1M1GPZWGJX51HFG80HB","39JEC7537W7TLE4J63V8WRPGFV8VC6","model","mismatch","uniform","","","","","","","1405","1028775","1030180","[""stimuli/HF09_SUR.jpg"",""stimuli/HM10_SC.jpg"",""stimuli/WF11_AO.jpg"",""stimuli/WM13_FO.jpg""]","stimuli/HF09_SUR.jpg","stimuli/HM10_SC.jpg","stimuli/WF11_AO.jpg","stimuli/WM13_FO.jpg","pos1","stimuli/HF09_SUR.jpg","SUR","HF09","0","3","6","8","stimuli/stars_6.png","89","[""SUR"",""SC"",""AO"",""FO""]","[""HF09"",""HM10"",""WF11"",""WM13""]","[6,5,0,6]","[8,4,2,6]","","",""
"show-reward","72","1027773","0.0-72.0","p316922","AGQ38QZYDWFO8","3FVBZG9CLKK1M1GPZWGJX51HFG80HB","39JEC7537W7TLE4J63V8WRPGFV8VC6","model","mismatch","uniform","","","","","","","","1030697","1032699","","","","","","","","","","","","6","","stimuli/stars_6.png","89","","","","","stimuli/HF09_SUR.jpg","",""
"explore-choice","73","1029519","0.0-73.0","p316922","AGQ38QZYDWFO8","3FVBZG9CLKK1M1GPZWGJX51HFG80HB","39JEC7537W7TLE4J63V8WRPGFV8VC6","model","mismatch","uniform","","","","","","","1232","1032700","1033932","[""stimuli/HF09_SC.jpg"",""stimuli/WM13_AO.jpg"",""stimuli/HM10_FO.jpg"",""stimuli/WF11_SUR.jpg""]","stimuli/HF09_SC.jpg","stimuli/WM13_AO.jpg","stimuli/HM10_FO.jpg","stimuli/WF11_SUR.jpg","pos2","stimuli/WM13_AO.jpg","AO","WM13","1","2","4","6","stimuli/stars_4.png","91","[""SC"",""AO"",""FO"",""SUR""]","[""HF09"",""WM13"",""HM10"",""WF11""]","[8,4,2,3]","[8,6,4,2]","","",""
"show-reward","74","1031539","0.0-74.0","p316922","AGQ38QZYDWFO8","3FVBZG9CLKK1M1GPZWGJX51HFG80HB","39JEC7537W7TLE4J63V8WRPGFV8VC6","model","mismatch","uniform","","","","","","","","1034447","1036455","","","","","","","","","","","","4","","stimuli/stars_4.png","91","","","","","stimuli/WM13_AO.jpg","",""
"explore-choice","75","1033239","0.0-75.0","p316922","AGQ38QZYDWFO8","3FVBZG9CLKK1M1GPZWGJX51HFG80HB","39JEC7537W7TLE4J63V8WRPGFV8VC6","model","mismatch","uniform","","","","","","","1196","1036468","1037664","[""stimuli/WM13_SUR.jpg"",""stimuli/HM10_SC.jpg"",""stimuli/WF11_FO.jpg"",""stimuli/HF09_AO.jpg""]","stimuli/WM13_SUR.jpg","stimuli/HM10_SC.jpg","stimuli/WF11_FO.jpg","stimuli/HF09_AO.jpg","pos1","stimuli/WM13_SUR.jpg","SUR","WM13","0","2.5","5","6","stimuli/stars_5.png","93.5","[""SUR"",""SC"",""FO"",""AO""]","[""WM13"",""HM10"",""WF11"",""HF09""]","[5,6,0,7]","[6,4,2,8]","","",""
"show-reward","76","1035255","0.0-76.0","p316922","AGQ38QZYDWFO8","3FVBZG9CLKK1M1GPZWGJX51HFG80HB","39JEC7537W7TLE4J63V8WRPGFV8VC6","model","mismatch","uniform","","","","","","","","1038166","1040180","","","","","","","","","","","","5","","stimuli/stars_5.png","93.5","","","","","stimuli/WM13_SUR.jpg","",""
"explore-choice","77","1040600","0.0-77.0","p316922","AGQ38QZYDWFO8","3FVBZG9CLKK1M1GPZWGJX51HFG80HB","39JEC7537W7TLE4J63V8WRPGFV8VC6","model","mismatch","uniform","","","","","","","4822","1040183","1045005","[""stimuli/WM13_AO.jpg"",""stimuli/HM10_SUR.jpg"",""stimuli/WF11_FO.jpg"",""stimuli/HF09_SC.jpg""]","stimuli/WM13_AO.jpg","stimuli/HM10_SUR.jpg","stimuli/WF11_FO.jpg","stimuli/HF09_SC.jpg","pos1","stimuli/WM13_AO.jpg","AO","WM13","0","4","8","6","stimuli/stars_8.png","97.5","[""AO"",""SUR"",""FO"",""SC""]","[""WM13"",""HM10"",""WF11"",""HF09""]","[8,6,2,9]","[6,4,2,8]","","",""
"show-reward","78","1042735","0.0-78.0","p316922","AGQ38QZYDWFO8","3FVBZG9CLKK1M1GPZWGJX51HFG80HB","39JEC7537W7TLE4J63V8WRPGFV8VC6","model","mismatch","uniform","","","","","","","","1045529","1047616","","","","","","","","","","","","8","","stimuli/stars_8.png","97.5","","","","","stimuli/WM13_AO.jpg","",""
"explore-choice","79","1053977","0.0-79.0","p316922","AGQ38QZYDWFO8","3FVBZG9CLKK1M1GPZWGJX51HFG80HB","39JEC7537W7TLE4J63V8WRPGFV8VC6","model","mismatch","uniform","","","","","","","10737","1047665","1058402","[""stimuli/HF09_SUR.jpg"",""stimuli/WF11_FO.jpg"",""stimuli/WM13_SC.jpg"",""stimuli/HM10_AO.jpg""]","stimuli/HF09_SUR.jpg","stimuli/WF11_FO.jpg","stimuli/WM13_SC.jpg","stimuli/HM10_AO.jpg","pos2","stimuli/WF11_FO.jpg","FO","WF11","1","1","2","2","stimuli/stars_2.png","98.5","[""SUR"",""FO"",""SC"",""AO""]","[""HF09"",""WF11"",""WM13"",""HM10""]","[9,2,4,2]","[8,2,6,4]","","",""
"show-reward","80","1055990","0.0-80.0","p316922","AGQ38QZYDWFO8","3FVBZG9CLKK1M1GPZWGJX51HFG80HB","39JEC7537W7TLE4J63V8WRPGFV8VC6","model","mismatch","uniform","","","","","","","","1058905","1060914","","","","","","","","","","","","2","","stimuli/stars_2.png","98.5","","","","","stimuli/WF11_FO.jpg","",""
"explore-choice","81","1058230","0.0-81.0","p316922","AGQ38QZYDWFO8","3FVBZG9CLKK1M1GPZWGJX51HFG80HB","39JEC7537W7TLE4J63V8WRPGFV8VC6","model","mismatch","uniform","","","","","","","1735","1060919","1062654","[""stimuli/HM10_SUR.jpg"",""stimuli/HF09_FO.jpg"",""stimuli/WM13_SC.jpg"",""stimuli/WF11_AO.jpg""]","stimuli/HM10_SUR.jpg","stimuli/HF09_FO.jpg","stimuli/WM13_SC.jpg","stimuli/WF11_AO.jpg","pos1","stimuli/HM10_SUR.jpg","SUR","HM10","0","2.5","5","4","stimuli/stars_5.png","101","[""SUR"",""FO"",""SC"",""AO""]","[""HM10"",""HF09"",""WM13"",""WF11""]","[5,7,6,4]","[4,8,6,2]","","",""
"show-reward","82","1060245","0.0-82.0","p316922","AGQ38QZYDWFO8","3FVBZG9CLKK1M1GPZWGJX51HFG80HB","39JEC7537W7TLE4J63V8WRPGFV8VC6","model","mismatch","uniform","","","","","","","","1063159","1065171","","","","","","","","","","","","5","","stimuli/stars_5.png","101","","","","","stimuli/HM10_SUR.jpg","",""
"explore-choice","83","1062103","0.0-83.0","p316922","AGQ38QZYDWFO8","3FVBZG9CLKK1M1GPZWGJX51HFG80HB","39JEC7537W7TLE4J63V8WRPGFV8VC6","model","mismatch","uniform","","","","","","","1337","1065174","1066511","[""stimuli/WM13_SUR.jpg"",""stimuli/HM10_FO.jpg"",""stimuli/WF11_AO.jpg"",""stimuli/HF09_SC.jpg""]","stimuli/WM13_SUR.jpg","stimuli/HM10_FO.jpg","stimuli/WF11_AO.jpg","stimuli/HF09_SC.jpg","pos2","stimuli/HM10_FO.jpg","FO","HM10","1","2","4","4","stimuli/stars_4.png","103","[""SUR"",""FO"",""AO"",""SC""]","[""WM13"",""HM10"",""WF11"",""HF09""]","[8,4,4,9]","[6,4,2,8]","","",""
"show-reward","84","1064136","0.0-84.0","p316922","AGQ38QZYDWFO8","3FVBZG9CLKK1M1GPZWGJX51HFG80HB","39JEC7537W7TLE4J63V8WRPGFV8VC6","model","mismatch","uniform","","","","","","","","1067050","1069060","","","","","","","","","","","","4","","stimuli/stars_4.png","103","","","","","stimuli/HM10_FO.jpg","",""
"explore-choice","85","1071266","0.0-85.0","p316922","AGQ38QZYDWFO8","3FVBZG9CLKK1M1GPZWGJX51HFG80HB","39JEC7537W7TLE4J63V8WRPGFV8VC6","model","mismatch","uniform","","","","","","","6583","1069063","1075646","[""stimuli/HM10_SUR.jpg"",""stimuli/HF09_SC.jpg"",""stimuli/WM13_FO.jpg"",""stimuli/WF11_AO.jpg""]","stimuli/HM10_SUR.jpg","stimuli/HF09_SC.jpg","stimuli/WM13_FO.jpg","stimuli/WF11_AO.jpg","pos2","stimuli/HF09_SC.jpg","SC","HF09","1","4","8","8","stimuli/stars_8.png","107","[""SUR"",""SC"",""FO"",""AO""]","[""HM10"",""HF09"",""WM13"",""WF11""]","[3,8,4,3]","[4,8,6,2]","","",""
"show-reward","86","1073294","0.0-86.0","p316922","AGQ38QZYDWFO8","3FVBZG9CLKK1M1GPZWGJX51HFG80HB","39JEC7537W7TLE4J63V8WRPGFV8VC6","model","mismatch","uniform","","","","","","","","1076195","1078220","","","","","","","","","","","","8","","stimuli/stars_8.png","107","","","","","stimuli/HF09_SC.jpg","",""
"explore-choice","87","1081491","0.0-87.0","p316922","AGQ38QZYDWFO8","3FVBZG9CLKK1M1GPZWGJX51HFG80HB","39JEC7537W7TLE4J63V8WRPGFV8VC6","model","mismatch","uniform","","","","","","","7676","1078222","1085898","[""stimuli/WF11_SUR.jpg"",""stimuli/HF09_FO.jpg"",""stimuli/WM13_AO.jpg"",""stimuli/HM10_SC.jpg""]","stimuli/WF11_SUR.jpg","stimuli/HF09_FO.jpg","stimuli/WM13_AO.jpg","stimuli/HM10_SC.jpg","pos1","stimuli/WF11_SUR.jpg","SUR","WF11","0","0","0","2","stimuli/stars_0.png","107","[""SUR"",""FO"",""AO"",""SC""]","[""WF11"",""HF09"",""WM13"",""HM10""]","[0,10,4,4]","[2,8,6,4]","","",""
"show-reward","88","1083496","0.0-88.0","p316922","AGQ38QZYDWFO8","3FVBZG9CLKK1M1GPZWGJX51HFG80HB","39JEC7537W7TLE4J63V8WRPGFV8VC6","model","mismatch","uniform","","","","","","","","1086419","1088421","","","","","","","","","","","","0","","stimuli/stars_0.png","107","","","","","stimuli/WF11_SUR.jpg","",""
"explore-choice","89","1085567","0.0-89.0","p316922","AGQ38QZYDWFO8","3FVBZG9CLKK1M1GPZWGJX51HFG80HB","39JEC7537W7TLE4J63V8WRPGFV8VC6","model","mismatch","uniform","","","","","","","1557","1088427","1089984","[""stimuli/WF11_SC.jpg"",""stimuli/WM13_AO.jpg"",""stimuli/HM10_FO.jpg"",""stimuli/HF09_SUR.jpg""]","stimuli/WF11_SC.jpg","stimuli/WM13_AO.jpg","stimuli/HM10_FO.jpg","stimuli/HF09_SUR.jpg","pos2","stimuli/WM13_AO.jpg","AO","WM13","1","3.5","7","6","stimuli/stars_7.png","110.5","[""SC"",""AO"",""FO"",""SUR""]","[""WF11"",""WM13"",""HM10"",""HF09""]","[0,7,4,9]","[2,6,4,8]","","",""
"show-reward","90","1087608","0.0-90.0","p316922","AGQ38QZYDWFO8","3FVBZG9CLKK1M1GPZWGJX51HFG80HB","39JEC7537W7TLE4J63V8WRPGFV8VC6","model","mismatch","uniform","","","","","","","","1090494","1092523","","","","","","","","","","","","7","","stimuli/stars_7.png","110.5","","","","","stimuli/WM13_AO.jpg","",""
"explore-choice","91","1106718","0.0-91.0","p316922","AGQ38QZYDWFO8","3FVBZG9CLKK1M1GPZWGJX51HFG80HB","39JEC7537W7TLE4J63V8WRPGFV8VC6","model","mismatch","uniform","","","","","","","18599","1092537","1111136","[""stimuli/WF11_AO.jpg"",""stimuli/HF09_FO.jpg"",""stimuli/WM13_SUR.jpg"",""stimuli/HM10_SC.jpg""]","stimuli/WF11_AO.jpg","stimuli/HF09_FO.jpg","stimuli/WM13_SUR.jpg","stimuli/HM10_SC.jpg","pos2","stimuli/HF09_FO.jpg","FO","HF09","1","3","6","8","stimuli/stars_6.png","113.5","[""AO"",""FO"",""SUR"",""SC""]","[""WF11"",""HF09"",""WM13"",""HM10""]","[1,6,4,4]","[2,8,6,4]","","",""
"show-reward","92","1108759","0.0-92.0","p316922","AGQ38QZYDWFO8","3FVBZG9CLKK1M1GPZWGJX51HFG80HB","39JEC7537W7TLE4J63V8WRPGFV8VC6","model","mismatch","uniform","","","","","","","","1111646","1113685","","","","","","","","","","","","6","","stimuli/stars_6.png","113.5","","","","","stimuli/HF09_FO.jpg","",""
"explore-choice","93","1110754","0.0-93.0","p316922","AGQ38QZYDWFO8","3FVBZG9CLKK1M1GPZWGJX51HFG80HB","39JEC7537W7TLE4J63V8WRPGFV8VC6","model","mismatch","uniform","","","","","","","1488","1113689","1115177","[""stimuli/WF11_FO.jpg"",""stimuli/WM13_AO.jpg"",""stimuli/HM10_SC.jpg"",""stimuli/HF09_SUR.jpg""]","stimuli/WF11_FO.jpg","stimuli/WM13_AO.jpg","stimuli/HM10_SC.jpg","stimuli/HF09_SUR.jpg","pos1","stimuli/WF11_FO.jpg","FO","WF11","0","1","2","2","stimuli/stars_2.png","114.5","[""FO"",""AO"",""SC"",""SUR""]","[""WF11"",""WM13"",""HM10"",""HF09""]","[2,5,3,10]","[2,6,4,8]","","",""
"show-reward","94","1112782","0.0-94.0","p316922","AGQ38QZYDWFO8","3FVBZG9CLKK1M1GPZWGJX51HFG80HB","39JEC7537W7TLE4J63V8WRPGFV8VC6","model","mismatch","uniform","","","","","","","","1115681","1117692","","","","","","","","","","","","2","","stimuli/stars_2.png","114.5","","","","","stimuli/WF11_FO.jpg","",""
"explore-choice","95","1114574","0.0-95.0","p316922","AGQ38QZYDWFO8","3FVBZG9CLKK1M1GPZWGJX51HFG80HB","39JEC7537W7TLE4J63V8WRPGFV8VC6","model","mismatch","uniform","","","","","","","1191","1117792","1118983","[""stimuli/HF09_SC.jpg"",""stimuli/WM13_SUR.jpg"",""stimuli/HM10_AO.jpg"",""stimuli/WF11_FO.jpg""]","stimuli/HF09_SC.jpg","stimuli/WM13_SUR.jpg","stimuli/HM10_AO.jpg","stimuli/WF11_FO.jpg","pos2","stimuli/WM13_SUR.jpg","SUR","WM13","1","3","6","6","stimuli/stars_6.png","117.5","[""SC"",""SUR"",""AO"",""FO""]","[""HF09"",""WM13"",""HM10"",""WF11""]","[9,6,5,1]","[8,6,4,2]","","",""
"show-reward","96","1116655","0.0-96.0","p316922","AGQ38QZYDWFO8","3FVBZG9CLKK1M1GPZWGJX51HFG80HB","39JEC7537W7TLE4J63V8WRPGFV8VC6","model","mismatch","uniform","","","","","","","","1119501","1121573","","","","","","","","","","","","6","","stimuli/stars_6.png","117.5","","","","","stimuli/WM13_SUR.jpg","",""
"explore-choice","97","1118948","0.0-97.0","p316922","AGQ38QZYDWFO8","3FVBZG9CLKK1M1GPZWGJX51HFG80HB","39JEC7537W7TLE4J63V8WRPGFV8VC6","model","mismatch","uniform","","","","","","","1777","1121585","1123362","[""stimuli/WF11_SC.jpg"",""stimuli/WM13_FO.jpg"",""stimuli/HM10_SUR.jpg"",""stimuli/HF09_AO.jpg""]","stimuli/WF11_SC.jpg","stimuli/WM13_FO.jpg","stimuli/HM10_SUR.jpg","stimuli/HF09_AO.jpg","pos2","stimuli/WM13_FO.jpg","FO","WM13","1","2.5","5","6","stimuli/stars_5.png","120","[""SC"",""FO"",""SUR"",""AO""]","[""WF11"",""WM13"",""HM10"",""HF09""]","[4,5,5,7]","[2,6,4,8]","","",""
"show-reward","98","1120959","0.0-98.0","p316922","AGQ38QZYDWFO8","3FVBZG9CLKK1M1GPZWGJX51HFG80HB","39JEC7537W7TLE4J63V8WRPGFV8VC6","model","mismatch","uniform","","","","","","","","1123876","1125885","","","","","","","","","","","","5","","stimuli/stars_5.png","120","","","","","stimuli/WM13_FO.jpg","",""
"explore-choice","99","1122902","0.0-99.0","p316922","AGQ38QZYDWFO8","3FVBZG9CLKK1M1GPZWGJX51HFG80HB","39JEC7537W7TLE4J63V8WRPGFV8VC6","model","mismatch","uniform","","","","","","","1439","1125888","1127327","[""stimuli/HM10_AO.jpg"",""stimuli/WF11_SUR.jpg"",""stimuli/WM13_FO.jpg"",""stimuli/HF09_SC.jpg""]","stimuli/HM10_AO.jpg","stimuli/WF11_SUR.jpg","stimuli/WM13_FO.jpg","stimuli/HF09_SC.jpg","pos1","stimuli/HM10_AO.jpg","AO","HM10","0","1","2","4","stimuli/stars_2.png","121","[""AO"",""SUR"",""FO"",""SC""]","[""HM10"",""WF11"",""WM13"",""HF09""]","[2,0,6,6]","[4,2,6,8]","","",""
"show-reward","100","1124906","0.0-100.0","p316922","AGQ38QZYDWFO8","3FVBZG9CLKK1M1GPZWGJX51HFG80HB","39JEC7537W7TLE4J63V8WRPGFV8VC6","model","mismatch","uniform","","","","","","","","1127829","1129831","","","","","","","","","","","","2","","stimuli/stars_2.png","121","","","","","stimuli/HM10_AO.jpg","",""
"explore-choice","101","1145072","0.0-101.0","p316922","AGQ38QZYDWFO8","3FVBZG9CLKK1M1GPZWGJX51HFG80HB","39JEC7537W7TLE4J63V8WRPGFV8VC6","model","mismatch","uniform","","","","","","","19601","1129835","1149436","[""stimuli/WF11_SUR.jpg"",""stimuli/HM10_FO.jpg"",""stimuli/HF09_AO.jpg"",""stimuli/WM13_SC.jpg""]","stimuli/WF11_SUR.jpg","stimuli/HM10_FO.jpg","stimuli/HF09_AO.jpg","stimuli/WM13_SC.jpg","pos2","stimuli/HM10_FO.jpg","FO","HM10","1","2","4","4","stimuli/stars_4.png","123","[""SUR"",""FO"",""AO"",""SC""]","[""WF11"",""HM10"",""HF09"",""WM13""]","[2,4,6,6]","[2,4,8,6]","","",""
"show-reward","102","1147077","0.0-102.0","p316922","AGQ38QZYDWFO8","3FVBZG9CLKK1M1GPZWGJX51HFG80HB","39JEC7537W7TLE4J63V8WRPGFV8VC6","model","mismatch","uniform","","","","","","","","1150000","1152003","","","","","","","","","","","","4","","stimuli/stars_4.png","123","","","","","stimuli/HM10_FO.jpg","",""
"explore-choice","103","1150330","0.0-103.0","p316922","AGQ38QZYDWFO8","3FVBZG9CLKK1M1GPZWGJX51HFG80HB","39JEC7537W7TLE4J63V8WRPGFV8VC6","model","mismatch","uniform","","","","","","","2749","1152005","1154754","[""stimuli/AF10_DO.jpg"",""stimuli/BF06_CC.jpg"",""stimuli/BF05_HE.jpg"",""stimuli/BM03_HO.jpg""]","stimuli/AF10_DO.jpg","stimuli/BF06_CC.jpg","stimuli/BF05_HE.jpg","stimuli/BM03_HO.jpg","pos1","stimuli/AF10_DO.jpg","DO","AF10","0","2","4","4","stimuli/stars_4.png","125","[""DO"",""CC"",""HE"",""HO""]","[""AF10"",""BF06"",""BF05"",""BM03""]","[4,6,10,2]","[4,6,8,2]","","",""
"show-reward","104","1152425","0.0-104.0","p316922","AGQ38QZYDWFO8","3FVBZG9CLKK1M1GPZWGJX51HFG80HB","39JEC7537W7TLE4J63V8WRPGFV8VC6","model","mismatch","uniform","","","","","","","","1155347","1157349","","","","","","","","","","","","4","","stimuli/stars_4.png","125","","","","","stimuli/AF10_DO.jpg","",""
"explore-choice","105","1155005","0.0-105.0","p316922","AGQ38QZYDWFO8","3FVBZG9CLKK1M1GPZWGJX51HFG80HB","39JEC7537W7TLE4J63V8WRPGFV8VC6","model","mismatch","uniform","","","","","","","2007","1157355","1159362","[""stimuli/BF06_DO.jpg"",""stimuli/BF05_CC.jpg"",""stimuli/BM03_HO.jpg"",""stimuli/AF10_HE.jpg""]","stimuli/BF06_DO.jpg","stimuli/BF05_CC.jpg","stimuli/BM03_HO.jpg","stimuli/AF10_HE.jpg","pos2","stimuli/BF05_CC.jpg","CC","BF05","1","2.5","5","6","stimuli/stars_5.png","127.5","[""DO"",""CC"",""HO"",""HE""]","[""BF06"",""BF05"",""BM03"",""AF10""]","[5,5,4,7]","[4,6,2,8]","","",""
"show-reward","106","1157018","0.0-106.0","p316922","AGQ38QZYDWFO8","3FVBZG9CLKK1M1GPZWGJX51HFG80HB","39JEC7537W7TLE4J63V8WRPGFV8VC6","model","mismatch","uniform","","","","","","","","1159934","1161941","","","","","","","","","","","","5","","stimuli/stars_5.png","127.5","","","","","stimuli/BF05_CC.jpg","",""
"explore-choice","107","1178082","0.0-107.0","p316922","AGQ38QZYDWFO8","3FVBZG9CLKK1M1GPZWGJX51HFG80HB","39JEC7537W7TLE4J63V8WRPGFV8VC6","model","mismatch","uniform","","","","","","","20508","1161947","1182455","[""stimuli/AF10_HE.jpg"",""stimuli/BM03_DO.jpg"",""stimuli/BF05_HO.jpg"",""stimuli/BF06_CC.jpg""]","stimuli/AF10_HE.jpg","stimuli/BM03_DO.jpg","stimuli/BF05_HO.jpg","stimuli/BF06_CC.jpg","pos2","stimuli/BM03_DO.jpg","DO","BM03","1","2.5","5","4","stimuli/stars_5.png","130","[""HE"",""DO"",""HO"",""CC""]","[""AF10"",""BM03"",""BF05"",""BF06""]","[8,5,3,8]","[8,4,2,6]","","",""
"show-reward","108","1180133","0.0-108.0","p316922","AGQ38QZYDWFO8","3FVBZG9CLKK1M1GPZWGJX51HFG80HB","39JEC7537W7TLE4J63V8WRPGFV8VC6","model","mismatch","uniform","","","","","","","","1183010","1185049","","","","","","","","","","","","5","","stimuli/stars_5.png","130","","","","","stimuli/BM03_DO.jpg","",""
"explore-choice","109","1182762","0.0-109.0","p316922","AGQ38QZYDWFO8","3FVBZG9CLKK1M1GPZWGJX51HFG80HB","39JEC7537W7TLE4J63V8WRPGFV8VC6","model","mismatch","uniform","","","","","","","2111","1185061","1187172","[""stimuli/BF05_HO.jpg"",""stimuli/BF06_DO.jpg"",""stimuli/AF10_HE.jpg"",""stimuli/BM03_CC.jpg""]","stimuli/BF05_HO.jpg","stimuli/BF06_DO.jpg","stimuli/AF10_HE.jpg","stimuli/BM03_CC.jpg","pos1","stimuli/BF05_HO.jpg","HO","BF05","0","1","2","2","stimuli/stars_2.png","131","[""HO"",""DO"",""HE"",""CC""]","[""BF05"",""BF06"",""AF10"",""BM03""]","[2,2,9,7]","[2,4,8,6]","","",""
"show-reward","110","1184784","0.0-110.0","p316922","AGQ38QZYDWFO8","3FVBZG9CLKK1M1GPZWGJX51HFG80HB","39JEC7537W7TLE4J63V8WRPGFV8VC6","model","mismatch","uniform","","","","","","","","1187689","1189709","","","","","","","","","","","","2","","stimuli/stars_2.png","131","","","","","stimuli/BF05_HO.jpg","",""
"explore-choice","111","1187357","0.0-111.0","p316922","AGQ38QZYDWFO8","3FVBZG9CLKK1M1GPZWGJX51HFG80HB","39JEC7537W7TLE4J63V8WRPGFV8VC6","model","mismatch","uniform","","","","","","","2062","1189713","1191775","[""stimuli/BM03_HE.jpg"",""stimuli/BF05_DO.jpg"",""stimuli/AF10_CC.jpg"",""stimuli/BF06_HO.jpg""]","stimuli/BM03_HE.jpg","stimuli/BF05_DO.jpg","stimuli/AF10_CC.jpg","stimuli/BF06_HO.jpg","pos2","stimuli/BF05_DO.jpg","DO","BF05","1","2.5","5","4","stimuli/stars_5.png","133.5","[""HE"",""DO"",""CC"",""HO""]","[""BM03"",""BF05"",""AF10"",""BF06""]","[7,5,7,0]","[8,4,6,2]","","",""
"show-reward","112","1189373","0.0-112.0","p316922","AGQ38QZYDWFO8","3FVBZG9CLKK1M1GPZWGJX51HFG80HB","39JEC7537W7TLE4J63V8WRPGFV8VC6","model","mismatch","uniform","","","","","","","","1192286","1194297","","","","","","","","","","","","5","","stimuli/stars_5.png","133.5","","","","","stimuli/BF05_DO.jpg","",""
"explore-choice","113","1218555","0.0-113.0","p316922","AGQ38QZYDWFO8","3FVBZG9CLKK1M1GPZWGJX51HFG80HB","39JEC7537W7TLE4J63V8WRPGFV8VC6","model","mismatch","uniform","","","","","","","28643","1194302","1222945","[""stimuli/BF06_HE.jpg"",""stimuli/BF05_CC.jpg"",""stimuli/BM03_DO.jpg"",""stimuli/AF10_HO.jpg""]","stimuli/BF06_HE.jpg","stimuli/BF05_CC.jpg","stimuli/BM03_DO.jpg","stimuli/AF10_HO.jpg","pos2","stimuli/BF05_CC.jpg","CC","BF05","1","3","6","6","stimuli/stars_6.png","136.5","[""HE"",""CC"",""DO"",""HO""]","[""BF06"",""BF05"",""BM03"",""AF10""]","[8,6,4,2]","[8,6,4,2]","","",""
"show-reward","114","1220586","0.0-114.0","p316922","AGQ38QZYDWFO8","3FVBZG9CLKK1M1GPZWGJX51HFG80HB","39JEC7537W7TLE4J63V8WRPGFV8VC6","model","mismatch","uniform","","","","","","","","1223482","1225504","","","","","","","","","","","","6","","stimuli/stars_6.png","136.5","","","","","stimuli/BF05_CC.jpg","",""
"explore-choice","115","1226983","0.0-115.0","p316922","AGQ38QZYDWFO8","3FVBZG9CLKK1M1GPZWGJX51HFG80HB","39JEC7537W7TLE4J63V8WRPGFV8VC6","model","mismatch","uniform","","","","","","","5794","1225519","1231313","[""stimuli/BF06_HO.jpg"",""stimuli/AF10_CC.jpg"",""stimuli/BM03_DO.jpg"",""stimuli/BF05_HE.jpg""]","stimuli/BF06_HO.jpg","stimuli/AF10_CC.jpg","stimuli/BM03_DO.jpg","stimuli/BF05_HE.jpg","pos1","stimuli/BF06_HO.jpg","HO","BF06","0","1.5","3","2","stimuli/stars_3.png","138","[""HO"",""CC"",""DO"",""HE""]","[""BF06"",""AF10"",""BM03"",""BF05""]","[3,6,3,9]","[2,6,4,8]","","",""
"show-reward","116","1229017","0.0-116.0","p316922","AGQ38QZYDWFO8","3FVBZG9CLKK1M1GPZWGJX51HFG80HB","39JEC7537W7TLE4J63V8WRPGFV8VC6","model","mismatch","uniform","","","","","","","","1231921","1233941","","","","","","","","","","","","3","","stimuli/stars_3.png","138","","","","","stimuli/BF06_HO.jpg","",""
"explore-choice","117","1231345","0.0-117.0","p316922","AGQ38QZYDWFO8","3FVBZG9CLKK1M1GPZWGJX51HFG80HB","39JEC7537W7TLE4J63V8WRPGFV8VC6","model","mismatch","uniform","","","","","","","1817","1233946","1235763","[""stimuli/AF10_DO.jpg"",""stimuli/BF05_HE.jpg"",""stimuli/BM03_CC.jpg"",""stimuli/BF06_HO.jpg""]","stimuli/AF10_DO.jpg","stimuli/BF05_HE.jpg","stimuli/BM03_CC.jpg","stimuli/BF06_HO.jpg","pos2","stimuli/BF05_HE.jpg","HE","BF05","1","4","8","8","stimuli/stars_8.png","142","[""DO"",""HE"",""CC"",""HO""]","[""AF10"",""BF05"",""BM03"",""BF06""]","[5,8,8,1]","[4,8,6,2]","","",""
"show-reward","118","1233352","0.0-118.0","p316922","AGQ38QZYDWFO8","3FVBZG9CLKK1M1GPZWGJX51HFG80HB","39JEC7537W7TLE4J63V8WRPGFV8VC6","model","mismatch","uniform","","","","","","","","1236273","1238278","","","","","","","","","","","","8","","stimuli/stars_8.png","142","","","","","stimuli/BF05_HE.jpg","",""
"explore-choice","119","1238097","0.0-119.0","p316922","AGQ38QZYDWFO8","3FVBZG9CLKK1M1GPZWGJX51HFG80HB","39JEC7537W7TLE4J63V8WRPGFV8VC6","model","mismatch","uniform","","","","","","","4191","1238281","1242472","[""stimuli/AF10_DO.jpg"",""stimuli/BM03_HO.jpg"",""stimuli/BF06_HE.jpg"",""stimuli/BF05_CC.jpg""]","stimuli/AF10_DO.jpg","stimuli/BM03_HO.jpg","stimuli/BF06_HE.jpg","stimuli/BF05_CC.jpg","pos1","stimuli/AF10_DO.jpg","DO","AF10","0","3","6","4","stimuli/stars_6.png","145","[""DO"",""HO"",""HE"",""CC""]","[""AF10"",""BM03"",""BF06"",""BF05""]","[6,3,8,5]","[4,2,8,6]","","",""
"show-reward","120","1240105","0.0-120.0","p316922","AGQ38QZYDWFO8","3FVBZG9CLKK1M1GPZWGJX51HFG80HB","39JEC7537W7TLE4J63V8WRPGFV8VC6","model","mismatch","uniform","","","","","","","","1243024","1245030","","","","","","","","","","","","6","","stimuli/stars_6.png","145","","","","","stimuli/AF10_DO.jpg","",""
"explore-choice","121","1246632","0.0-121.0","p316922","AGQ38QZYDWFO8","3FVBZG9CLKK1M1GPZWGJX51HFG80HB","39JEC7537W7TLE4J63V8WRPGFV8VC6","model","mismatch","uniform","","","","","","","6019","1245033","1251052","[""stimuli/BM03_DO.jpg"",""stimuli/BF06_HE.jpg"",""stimuli/AF10_CC.jpg"",""stimuli/BF05_HO.jpg""]","stimuli/BM03_DO.jpg","stimuli/BF06_HE.jpg","stimuli/AF10_CC.jpg","stimuli/BF05_HO.jpg","pos2","stimuli/BF06_HE.jpg","HE","BF06","1","3","6","8","stimuli/stars_6.png","148","[""DO"",""HE"",""CC"",""HO""]","[""BM03"",""BF06"",""AF10"",""BF05""]","[4,6,6,3]","[4,8,6,2]","","",""
"show-reward","122","1248653","0.0-122.0","p316922","AGQ38QZYDWFO8","3FVBZG9CLKK1M1GPZWGJX51HFG80HB","39JEC7537W7TLE4J63V8WRPGFV8VC6","model","mismatch","uniform","","","","","","","","1251560","1253563","","","","","","","","","","","","6","","stimuli/stars_6.png","148","","","","","stimuli/BF06_HE.jpg","",""
"explore-choice","123","1250824","0.0-123.0","p316922","AGQ38QZYDWFO8","3FVBZG9CLKK1M1GPZWGJX51HFG80HB","39JEC7537W7TLE4J63V8WRPGFV8VC6","model","mismatch","uniform","","","","","","","1666","1253580","1255246","[""stimuli/BM03_DO.jpg"",""stimuli/BF05_HE.jpg"",""stimuli/BF06_CC.jpg"",""stimuli/AF10_HO.jpg""]","stimuli/BM03_DO.jpg","stimuli/BF05_HE.jpg","stimuli/BF06_CC.jpg","stimuli/AF10_HO.jpg","pos1","stimuli/BM03_DO.jpg","DO","BM03","0","2","4","4","stimuli/stars_4.png","150","[""DO"",""HE"",""CC"",""HO""]","[""BM03"",""BF05"",""BF06"",""AF10""]","[4,10,5,1]","[4,8,6,2]","","",""
"show-reward","124","1252831","0.0-124.0","p316922","AGQ38QZYDWFO8","3FVBZG9CLKK1M1GPZWGJX51HFG80HB","39JEC7537W7TLE4J63V8WRPGFV8VC6","model","mismatch","uniform","","","","","","","","1255754","1257757","","","","","","","","","","","","4","","stimuli/stars_4.png","150","","","","","stimuli/BM03_DO.jpg","",""
"explore-choice","125","1255361","0.0-125.0","p316922","AGQ38QZYDWFO8","3FVBZG9CLKK1M1GPZWGJX51HFG80HB","39JEC7537W7TLE4J63V8WRPGFV8VC6","model","mismatch","uniform","","","","","","","2028","1257757","1259785","[""stimuli/BM03_HO.jpg"",""stimuli/BF06_CC.jpg"",""stimuli/BF05_DO.jpg"",""stimuli/AF10_HE.jpg""]","stimuli/BM03_HO.jpg","stimuli/BF06_CC.jpg","stimuli/BF05_DO.jpg","stimuli/AF10_HE.jpg","pos2","stimuli/BF06_CC.jpg","CC","BF06","1","3.5","7","6","stimuli/stars_7.png","153.5","[""HO"",""CC"",""DO"",""HE""]","[""BM03"",""BF06"",""BF05"",""AF10""]","[4,7,5,8]","[2,6,4,8]","","",""
"show-reward","126","1257369","0.0-126.0","p316922","AGQ38QZYDWFO8","3FVBZG9CLKK1M1GPZWGJX51HFG80HB","39JEC7537W7TLE4J63V8WRPGFV8VC6","model","mismatch","uniform","","","","","","","","1260291","1262295","","","","","","","","","","","","7","","stimuli/stars_7.png","153.5","","","","","stimuli/BF06_CC.jpg","",""
"explore-choice","127","1259225","0.0-127.0","p316922","AGQ38QZYDWFO8","3FVBZG9CLKK1M1GPZWGJX51HFG80HB","39JEC7537W7TLE4J63V8WRPGFV8VC6","model","mismatch","uniform","","","","","","","1350","1262296","1263646","[""stimuli/BM03_CC.jpg"",""stimuli/BF05_DO.jpg"",""stimuli/BF06_HE.jpg"",""stimuli/AF10_HO.jpg""]","stimuli/BM03_CC.jpg","stimuli/BF05_DO.jpg","stimuli/BF06_HE.jpg","stimuli/AF10_HO.jpg","pos1","stimuli/BM03_CC.jpg","CC","BM03","0","3","6","6","stimuli/stars_6.png","156.5","[""CC"",""DO"",""HE"",""HO""]","[""BM03"",""BF05"",""BF06"",""AF10""]","[6,5,9,3]","[6,4,8,2]","","",""
"show-reward","128","1261240","0.0-128.0","p316922","AGQ38QZYDWFO8","3FVBZG9CLKK1M1GPZWGJX51HFG80HB","39JEC7537W7TLE4J63V8WRPGFV8VC6","model","mismatch","uniform","","","","","","","","1264154","1266163","","","","","","","","","","","","6","","stimuli/stars_6.png","156.5","","","","","stimuli/BM03_CC.jpg","",""
"explore-choice","129","1265002","0.0-129.0","p316922","AGQ38QZYDWFO8","3FVBZG9CLKK1M1GPZWGJX51HFG80HB","39JEC7537W7TLE4J63V8WRPGFV8VC6","model","mismatch","uniform","","","","","","","3254","1266168","1269422","[""stimuli/AF10_HE.jpg"",""stimuli/BM03_CC.jpg"",""stimuli/BF06_HO.jpg"",""stimuli/BF05_DO.jpg""]","stimuli/AF10_HE.jpg","stimuli/BM03_CC.jpg","stimuli/BF06_HO.jpg","stimuli/BF05_DO.jpg","pos2","stimuli/BM03_CC.jpg","CC","BM03","1","4","8","6","stimuli/stars_8.png","160.5","[""HE"",""CC"",""HO"",""DO""]","[""AF10"",""BM03"",""BF06"",""BF05""]","[7,8,2,6]","[8,6,2,4]","","",""
"show-reward","130","1267032","0.0-130.0","p316922","AGQ38QZYDWFO8","3FVBZG9CLKK1M1GPZWGJX51HFG80HB","39JEC7537W7TLE4J63V8WRPGFV8VC6","model","mismatch","uniform","","","","","","","","1269929","1271958","","","","","","","","","","","","8","","stimuli/stars_8.png","160.5","","","","","stimuli/BM03_CC.jpg","",""
"explore-choice","131","1269168","0.0-131.0","p316922","AGQ38QZYDWFO8","3FVBZG9CLKK1M1GPZWGJX51HFG80HB","39JEC7537W7TLE4J63V8WRPGFV8VC6","model","mismatch","uniform","","","","","","","1631","1271960","1273591","[""stimuli/BM03_HE.jpg"",""stimuli/BF05_HO.jpg"",""stimuli/AF10_DO.jpg"",""stimuli/BF06_CC.jpg""]","stimuli/BM03_HE.jpg","stimuli/BF05_HO.jpg","stimuli/AF10_DO.jpg","stimuli/BF06_CC.jpg","pos1","stimuli/BM03_HE.jpg","HE","BM03","0","4","8","8","stimuli/stars_8.png","164.5","[""HE"",""HO"",""DO"",""CC""]","[""BM03"",""BF05"",""AF10"",""BF06""]","[8,0,2,5]","[8,2,4,6]","","",""
"show-reward","132","1271270","0.0-132.0","p316922","AGQ38QZYDWFO8","3FVBZG9CLKK1M1GPZWGJX51HFG80HB","39JEC7537W7TLE4J63V8WRPGFV8VC6","model","mismatch","uniform","","","","","","","","1274096","1276192","","","","","","","","","","","","8","","stimuli/stars_8.png","164.5","","","","","stimuli/BM03_HE.jpg","",""
"explore-choice","133","1301263","0.0-133.0","p316922","AGQ38QZYDWFO8","3FVBZG9CLKK1M1GPZWGJX51HFG80HB","39JEC7537W7TLE4J63V8WRPGFV8VC6","model","mismatch","uniform","","","","","","","29476","1276199","1305675","[""stimuli/BF06_HO.jpg"",""stimuli/BF05_CC.jpg"",""stimuli/AF10_DO.jpg"",""stimuli/BM03_HE.jpg""]","stimuli/BF06_HO.jpg","stimuli/BF05_CC.jpg","stimuli/AF10_DO.jpg","stimuli/BM03_HE.jpg","pos2","stimuli/BF05_CC.jpg","CC","BF05","1","4","8","6","stimuli/stars_8.png","168.5","[""HO"",""CC"",""DO"",""HE""]","[""BF06"",""BF05"",""AF10"",""BM03""]","[4,8,6,6]","[2,6,4,8]","","",""
"show-reward","134","1303290","0.0-134.0","p316922","AGQ38QZYDWFO8","3FVBZG9CLKK1M1GPZWGJX51HFG80HB","39JEC7537W7TLE4J63V8WRPGFV8VC6","model","mismatch","uniform","","","","","","","","1306191","1308211","","","","","","","","","","","","8","","stimuli/stars_8.png","168.5","","","","","stimuli/BF05_CC.jpg","",""
"explore-choice","135","1312942","0.0-135.0","p316922","AGQ38QZYDWFO8","3FVBZG9CLKK1M1GPZWGJX51HFG80HB","39JEC7537W7TLE4J63V8WRPGFV8VC6","model","mismatch","uniform","","","","","","","9130","1308225","1317355","[""stimuli/BF05_CC.jpg"",""stimuli/BF06_HO.jpg"",""stimuli/BM03_DO.jpg"",""stimuli/AF10_HE.jpg""]","stimuli/BF05_CC.jpg","stimuli/BF06_HO.jpg","stimuli/BM03_DO.jpg","stimuli/AF10_HE.jpg","pos1","stimuli/BF05_CC.jpg","CC","BF05","0","3.5","7","6","stimuli/stars_7.png","172","[""CC"",""HO"",""DO"",""HE""]","[""BF05"",""BF06"",""BM03"",""AF10""]","[7,4,2,6]","[6,2,4,8]","","",""
"show-reward","136","1314961","0.0-136.0","p316922","AGQ38QZYDWFO8","3FVBZG9CLKK1M1GPZWGJX51HFG80HB","39JEC7537W7TLE4J63V8WRPGFV8VC6","model","mismatch","uniform","","","","","","","","1317870","1319886","","","","","","","","","","","","7","","stimuli/stars_7.png","172","","","","","stimuli/BF05_CC.jpg","",""
"explore-choice","137","1317343","0.0-137.0","p316922","AGQ38QZYDWFO8","3FVBZG9CLKK1M1GPZWGJX51HFG80HB","39JEC7537W7TLE4J63V8WRPGFV8VC6","model","mismatch","uniform","","","","","","","1860","1319890","1321750","[""stimuli/AF10_HO.jpg"",""stimuli/BM03_HE.jpg"",""stimuli/BF05_DO.jpg"",""stimuli/BF06_CC.jpg""]","stimuli/AF10_HO.jpg","stimuli/BM03_HE.jpg","stimuli/BF05_DO.jpg","stimuli/BF06_CC.jpg","pos2","stimuli/BM03_HE.jpg","HE","BM03","1","4.5","9","8","stimuli/stars_9.png","176.5","[""HO"",""HE"",""DO"",""CC""]","[""AF10"",""BM03"",""BF05"",""BF06""]","[4,9,4,4]","[2,8,4,6]","","",""
"show-reward","138","1319363","0.0-138.0","p316922","AGQ38QZYDWFO8","3FVBZG9CLKK1M1GPZWGJX51HFG80HB","39JEC7537W7TLE4J63V8WRPGFV8VC6","model","mismatch","uniform","","","","","","","","1322274","1324287","","","","","","","","","","","","9","","stimuli/stars_9.png","176.5","","","","","stimuli/BM03_HE.jpg","",""
"explore-choice","139","1327874","0.0-139.0","p316922","AGQ38QZYDWFO8","3FVBZG9CLKK1M1GPZWGJX51HFG80HB","39JEC7537W7TLE4J63V8WRPGFV8VC6","model","mismatch","uniform","","","","","","","7972","1324290","1332262","[""stimuli/AF10_CC.jpg"",""stimuli/BM03_HO.jpg"",""stimuli/BF06_DO.jpg"",""stimuli/BF05_HE.jpg""]","stimuli/AF10_CC.jpg","stimuli/BM03_HO.jpg","stimuli/BF06_DO.jpg","stimuli/BF05_HE.jpg","pos2","stimuli/BM03_HO.jpg","HO","BM03","1","0.5","1","2","stimuli/stars_1.png","177","[""CC"",""HO"",""DO"",""HE""]","[""AF10"",""BM03"",""BF06"",""BF05""]","[7,1,2,9]","[6,2,4,8]","","",""
"show-reward","140","1329929","0.0-140.0","p316922","AGQ38QZYDWFO8","3FVBZG9CLKK1M1GPZWGJX51HFG80HB","39JEC7537W7TLE4J63V8WRPGFV8VC6","model","mismatch","uniform","","","","","","","","1332844","1334854","","","","","","","","","","","","1","","stimuli/stars_1.png","177","","","","","stimuli/BM03_HO.jpg","",""
"explore-choice","141","1332743","0.0-141.0","p316922","AGQ38QZYDWFO8","3FVBZG9CLKK1M1GPZWGJX51HFG80HB","39JEC7537W7TLE4J63V8WRPGFV8VC6","model","mismatch","uniform","","","","","","","2298","1334856","1337154","[""stimuli/BF06_DO.jpg"",""stimuli/AF10_HO.jpg"",""stimuli/BF05_CC.jpg"",""stimuli/BM03_HE.jpg""]","stimuli/BF06_DO.jpg","stimuli/AF10_HO.jpg","stimuli/BF05_CC.jpg","stimuli/BM03_HE.jpg","pos1","stimuli/BF06_DO.jpg","DO","BF06","0","2.5","5","4","stimuli/stars_5.png","179.5","[""DO"",""HO"",""CC"",""HE""]","[""BF06"",""AF10"",""BF05"",""BM03""]","[5,2,5,10]","[4,2,6,8]","","",""
"show-reward","142","1334751","0.0-142.0","p316922","AGQ38QZYDWFO8","3FVBZG9CLKK1M1GPZWGJX51HFG80HB","39JEC7537W7TLE4J63V8WRPGFV8VC6","model","mismatch","uniform","","","","","","","","1337671","1339675","","","","","","","","","","","","5","","stimuli/stars_5.png","179.5","","","","","stimuli/BF06_DO.jpg","",""
"explore-choice","143","1338313","0.0-143.0","p316922","AGQ38QZYDWFO8","3FVBZG9CLKK1M1GPZWGJX51HFG80HB","39JEC7537W7TLE4J63V8WRPGFV8VC6","model","mismatch","uniform","","","","","","","3048","1339679","1342727","[""stimuli/BF05_HE.jpg"",""stimuli/BM03_CC.jpg"",""stimuli/BF06_DO.jpg"",""stimuli/AF10_HO.jpg""]","stimuli/BF05_HE.jpg","stimuli/BM03_CC.jpg","stimuli/BF06_DO.jpg","stimuli/AF10_HO.jpg","pos2","stimuli/BM03_CC.jpg","CC","BM03","1","2","4","6","stimuli/stars_4.png","181.5","[""HE"",""CC"",""DO"",""HO""]","[""BF05"",""BM03"",""BF06"",""AF10""]","[6,4,4,0]","[8,6,4,2]","","",""
"show-reward","144","1340320","0.0-144.0","p316922","AGQ38QZYDWFO8","3FVBZG9CLKK1M1GPZWGJX51HFG80HB","39JEC7537W7TLE4J63V8WRPGFV8VC6","model","mismatch","uniform","","","","","","","","1343241","1345245","","","","","","","","","","","","4","","stimuli/stars_4.png","181.5","","","","","stimuli/BM03_CC.jpg","",""
"explore-choice","145","1346694","0.0-145.0","p316922","AGQ38QZYDWFO8","3FVBZG9CLKK1M1GPZWGJX51HFG80HB","39JEC7537W7TLE4J63V8WRPGFV8VC6","model","mismatch","uniform","","","","","","","5866","1345248","1351114","[""stimuli/AF10_CC.jpg"",""stimuli/BM03_HE.jpg"",""stimuli/BF06_DO.jpg"",""stimuli/BF05_HO.jpg""]","stimuli/AF10_CC.jpg","stimuli/BM03_HE.jpg","stimuli/BF06_DO.jpg","stimuli/BF05_HO.jpg","pos1","stimuli/AF10_CC.jpg","CC","AF10","0","3.5","7","6","stimuli/stars_7.png","185","[""CC"",""HE"",""DO"",""HO""]","[""AF10"",""BM03"",""BF06"",""BF05""]","[7,7,5,1]","[6,8,4,2]","","",""
"show-reward","146","1348701","0.0-146.0","p316922","AGQ38QZYDWFO8","3FVBZG9CLKK1M1GPZWGJX51HFG80HB","39JEC7537W7TLE4J63V8WRPGFV8VC6","model","mismatch","uniform","","","","","","","","1351623","1353627","","","","","","","","","","","","7","","stimuli/stars_7.png","185","","","","","stimuli/AF10_CC.jpg","",""
"explore-choice","147","1358677","0.0-147.0","p316922","AGQ38QZYDWFO8","3FVBZG9CLKK1M1GPZWGJX51HFG80HB","39JEC7537W7TLE4J63V8WRPGFV8VC6","model","mismatch","uniform","","","","","","","9460","1353632","1363092","[""stimuli/BF06_HE.jpg"",""stimuli/AF10_CC.jpg"",""stimuli/BF05_DO.jpg"",""stimuli/BM03_HO.jpg""]","stimuli/BF06_HE.jpg","stimuli/AF10_CC.jpg","stimuli/BF05_DO.jpg","stimuli/BM03_HO.jpg","pos2","stimuli/AF10_CC.jpg","CC","AF10","1","4","8","6","stimuli/stars_8.png","189","[""HE"",""CC"",""DO"",""HO""]","[""BF06"",""AF10"",""BF05"",""BM03""]","[8,8,5,1]","[8,6,4,2]","","",""
"show-reward","148","1360699","0.0-148.0","p316922","AGQ38QZYDWFO8","3FVBZG9CLKK1M1GPZWGJX51HFG80HB","39JEC7537W7TLE4J63V8WRPGFV8VC6","model","mismatch","uniform","","","","","","","","1363606","1365624","","","","","","","","","","","","8","","stimuli/stars_8.png","189","","","","","stimuli/AF10_CC.jpg","",""
"explore-choice","149","1364391","0.0-149.0","p316922","AGQ38QZYDWFO8","3FVBZG9CLKK1M1GPZWGJX51HFG80HB","39JEC7537W7TLE4J63V8WRPGFV8VC6","model","mismatch","uniform","","","","","","","3173","1365627","1368800","[""stimuli/BF05_HO.jpg"",""stimuli/BM03_CC.jpg"",""stimuli/BF06_HE.jpg"",""stimuli/AF10_DO.jpg""]","stimuli/BF05_HO.jpg","stimuli/BM03_CC.jpg","stimuli/BF06_HE.jpg","stimuli/AF10_DO.jpg","pos1","stimuli/BF05_HO.jpg","HO","BF05","0","2","4","2","stimuli/stars_4.png","191","[""HO"",""CC"",""HE"",""DO""]","[""BF05"",""BM03"",""BF06"",""AF10""]","[4,8,9,3]","[2,6,8,4]","","",""
"show-reward","150","1366432","0.0-150.0","p316922","AGQ38QZYDWFO8","3FVBZG9CLKK1M1GPZWGJX51HFG80HB","39JEC7537W7TLE4J63V8WRPGFV8VC6","model","mismatch","uniform","","","","","","","","1369335","1371357","","","","","","","","","","","","4","","stimuli/stars_4.png","191","","","","","stimuli/BF05_HO.jpg","",""
"explore-choice","151","1381942","0.0-151.0","p316922","AGQ38QZYDWFO8","3FVBZG9CLKK1M1GPZWGJX51HFG80HB","39JEC7537W7TLE4J63V8WRPGFV8VC6","model","mismatch","uniform","","","","","","","14951","1371361","1386312","[""stimuli/BF06_DO.jpg"",""stimuli/AF10_HO.jpg"",""stimuli/BM03_HE.jpg"",""stimuli/BF05_CC.jpg""]","stimuli/BF06_DO.jpg","stimuli/AF10_HO.jpg","stimuli/BM03_HE.jpg","stimuli/BF05_CC.jpg","pos2","stimuli/AF10_HO.jpg","HO","AF10","1","1","2","2","stimuli/stars_2.png","192","[""DO"",""HO"",""HE"",""CC""]","[""BF06"",""AF10"",""BM03"",""BF05""]","[5,2,10,5]","[4,2,8,6]","","",""
"show-reward","152","1383961","0.0-152.0","p316922","AGQ38QZYDWFO8","3FVBZG9CLKK1M1GPZWGJX51HFG80HB","39JEC7537W7TLE4J63V8WRPGFV8VC6","model","mismatch","uniform","","","","","","","","1386870","1388887","","","","","","","","","","","","2","","stimuli/stars_2.png","192","","","","","stimuli/AF10_HO.jpg","",""
"explore-choice","153","1386231","0.0-153.0","p316922","AGQ38QZYDWFO8","3FVBZG9CLKK1M1GPZWGJX51HFG80HB","39JEC7537W7TLE4J63V8WRPGFV8VC6","model","mismatch","uniform","","","","","","","1721","1388888","1390609","[""stimuli/AF10_CC.jpg"",""stimuli/BF06_HE.jpg"",""stimuli/BF05_DO.jpg"",""stimuli/BM03_HO.jpg""]","stimuli/AF10_CC.jpg","stimuli/BF06_HE.jpg","stimuli/BF05_DO.jpg","stimuli/BM03_HO.jpg","pos1","stimuli/AF10_CC.jpg","CC","AF10","0","4","8","6","stimuli/stars_8.png","196","[""CC"",""HE"",""DO"",""HO""]","[""AF10"",""BF06"",""BF05"",""BM03""]","[8,8,5,1]","[6,8,4,2]","","",""
"show-reward","154","1388404","0.0-154.0","p316922","AGQ38QZYDWFO8","3FVBZG9CLKK1M1GPZWGJX51HFG80HB","39JEC7537W7TLE4J63V8WRPGFV8VC6","model","mismatch","uniform","","","","","","","","1391182","1393322","","","","","","","","","","","","8","","stimuli/stars_8.png","196","","","","","stimuli/AF10_CC.jpg","",""
"explore-choice","155","1391867","0.0-155.0","p316922","AGQ38QZYDWFO8","3FVBZG9CLKK1M1GPZWGJX51HFG80HB","39JEC7537W7TLE4J63V8WRPGFV8VC6","model","mismatch","uniform","","","","","","","2851","1393373","1396224","[""stimuli/BF06_CC.jpg"",""stimuli/AF10_HE.jpg"",""stimuli/BF05_HO.jpg"",""stimuli/BM03_DO.jpg""]","stimuli/BF06_CC.jpg","stimuli/AF10_HE.jpg","stimuli/BF05_HO.jpg","stimuli/BM03_DO.jpg","pos2","stimuli/AF10_HE.jpg","HE","AF10","1","4","8","8","stimuli/stars_8.png","200","[""CC"",""HE"",""HO"",""DO""]","[""BF06"",""AF10"",""BF05"",""BM03""]","[8,8,3,5]","[6,8,2,4]","","",""
"show-reward","156","1393870","0.0-156.0","p316922","AGQ38QZYDWFO8","3FVBZG9CLKK1M1GPZWGJX51HFG80HB","39JEC7537W7TLE4J63V8WRPGFV8VC6","model","mismatch","uniform","","","","","","","","1396794","1398796","","","","","","","","","","","","8","","stimuli/stars_8.png","200","","","","","stimuli/AF10_HE.jpg","",""
"explore-choice","157","1396195","0.0-157.0","p316922","AGQ38QZYDWFO8","3FVBZG9CLKK1M1GPZWGJX51HFG80HB","39JEC7537W7TLE4J63V8WRPGFV8VC6","model","mismatch","uniform","","","","","","","1822","1398798","1400620","[""stimuli/BF05_HO.jpg"",""stimuli/AF10_CC.jpg"",""stimuli/BM03_DO.jpg"",""stimuli/BF06_HE.jpg""]","stimuli/BF05_HO.jpg","stimuli/AF10_CC.jpg","stimuli/BM03_DO.jpg","stimuli/BF06_HE.jpg","pos1","stimuli/BF05_HO.jpg","HO","BF05","0","1.5","3","2","stimuli/stars_3.png","201.5","[""HO"",""CC"",""DO"",""HE""]","[""BF05"",""AF10"",""BM03"",""BF06""]","[3,6,4,6]","[2,6,4,8]","","",""
"show-reward","158","1398210","0.0-158.0","p316922","AGQ38QZYDWFO8","3FVBZG9CLKK1M1GPZWGJX51HFG80HB","39JEC7537W7TLE4J63V8WRPGFV8VC6","model","mismatch","uniform","","","","","","","","1401123","1403136","","","","","","","","","","","","3","","stimuli/stars_3.png","201.5","","","","","stimuli/BF05_HO.jpg","",""
"explore-choice","159","1400085","0.0-159.0","p316922","AGQ38QZYDWFO8","3FVBZG9CLKK1M1GPZWGJX51HFG80HB","39JEC7537W7TLE4J63V8WRPGFV8VC6","model","mismatch","uniform","","","","","","","1213","1403140","1404353","[""stimuli/BF06_HE.jpg"",""stimuli/BF05_CC.jpg"",""stimuli/BM03_HO.jpg"",""stimuli/AF10_DO.jpg""]","stimuli/BF06_HE.jpg","stimuli/BF05_CC.jpg","stimuli/BM03_HO.jpg","stimuli/AF10_DO.jpg","pos2","stimuli/BF05_CC.jpg","CC","BF05","1","2.5","5","6","stimuli/stars_5.png","204","[""HE"",""CC"",""HO"",""DO""]","[""BF06"",""BF05"",""BM03"",""AF10""]","[8,5,3,6]","[8,6,2,4]","","",""
"show-reward","160","1402091","0.0-160.0","p316922","AGQ38QZYDWFO8","3FVBZG9CLKK1M1GPZWGJX51HFG80HB","39JEC7537W7TLE4J63V8WRPGFV8VC6","model","mismatch","uniform","","","","","","","","1405012","1407015","","","","","","","","","","","","5","","stimuli/stars_5.png","204","","","","","stimuli/BF05_CC.jpg","",""
"explore-choice","161","1405082","0.0-161.0","p316922","AGQ38QZYDWFO8","3FVBZG9CLKK1M1GPZWGJX51HFG80HB","39JEC7537W7TLE4J63V8WRPGFV8VC6","model","mismatch","uniform","","","","","","","2332","1407022","1409354","[""stimuli/BF05_DO.jpg"",""stimuli/BM03_CC.jpg"",""stimuli/BF06_HO.jpg"",""stimuli/AF10_HE.jpg""]","stimuli/BF05_DO.jpg","stimuli/BM03_CC.jpg","stimuli/BF06_HO.jpg","stimuli/AF10_HE.jpg","pos2","stimuli/BM03_CC.jpg","CC","BM03","1","4","8","6","stimuli/stars_8.png","208","[""DO"",""CC"",""HO"",""HE""]","[""BF05"",""BM03"",""BF06"",""AF10""]","[6,8,2,7]","[4,6,2,8]","","",""
"show-reward","162","1407120","0.0-162.0","p316922","AGQ38QZYDWFO8","3FVBZG9CLKK1M1GPZWGJX51HFG80HB","39JEC7537W7TLE4J63V8WRPGFV8VC6","model","mismatch","uniform","","","","","","","","1410011","1412036","","","","","","","","","","","","8","","stimuli/stars_8.png","208","","","","","stimuli/BM03_CC.jpg","",""
"explore-choice","163","1412684","0.0-163.0","p316922","AGQ38QZYDWFO8","3FVBZG9CLKK1M1GPZWGJX51HFG80HB","39JEC7537W7TLE4J63V8WRPGFV8VC6","model","mismatch","uniform","","","","","","","5039","1412052","1417091","[""stimuli/AF10_DO.jpg"",""stimuli/BM03_HE.jpg"",""stimuli/BF06_CC.jpg"",""stimuli/BF05_HO.jpg""]","stimuli/AF10_DO.jpg","stimuli/BM03_HE.jpg","stimuli/BF06_CC.jpg","stimuli/BF05_HO.jpg","pos1","stimuli/AF10_DO.jpg","DO","AF10","0","1","2","4","stimuli/stars_2.png","209","[""DO"",""HE"",""CC"",""HO""]","[""AF10"",""BM03"",""BF06"",""BF05""]","[2,8,5,0]","[4,8,6,2]","","",""
"show-reward","164","1414838","0.0-164.0","p316922","AGQ38QZYDWFO8","3FVBZG9CLKK1M1GPZWGJX51HFG80HB","39JEC7537W7TLE4J63V8WRPGFV8VC6","model","mismatch","uniform","","","","","","","","1417611","1419755","","","","","","","","","","","","2","","stimuli/stars_2.png","209","","","","","stimuli/AF10_DO.jpg","",""
"explore-choice","165","1446168","0.0-165.0","p316922","AGQ38QZYDWFO8","3FVBZG9CLKK1M1GPZWGJX51HFG80HB","39JEC7537W7TLE4J63V8WRPGFV8VC6","model","mismatch","uniform","","","","","","","30824","1419769","1450593","[""stimuli/BF06_CC.jpg"",""stimuli/BF05_DO.jpg"",""stimuli/AF10_HE.jpg"",""stimuli/BM03_HO.jpg""]","stimuli/BF06_CC.jpg","stimuli/BF05_DO.jpg","stimuli/AF10_HE.jpg","stimuli/BM03_HO.jpg","pos2","stimuli/BF05_DO.jpg","DO","BF05","1","2.5","5","4","stimuli/stars_5.png","211.5","[""CC"",""DO"",""HE"",""HO""]","[""BF06"",""BF05"",""AF10"",""BM03""]","[7,5,8,4]","[6,4,8,2]","","",""
"show-reward","166","1448174","0.0-166.0","p316922","AGQ38QZYDWFO8","3FVBZG9CLKK1M1GPZWGJX51HFG80HB","39JEC7537W7TLE4J63V8WRPGFV8VC6","model","mismatch","uniform","","","","","","","","1451096","1453099","","","","","","","","","","","","5","","stimuli/stars_5.png","211.5","","","","","stimuli/BF05_DO.jpg","",""
"explore-choice","167","1452542","0.0-167.0","p316922","AGQ38QZYDWFO8","3FVBZG9CLKK1M1GPZWGJX51HFG80HB","39JEC7537W7TLE4J63V8WRPGFV8VC6","model","mismatch","uniform","","","","","","","3862","1453101","1456963","[""stimuli/AF10_DO.jpg"",""stimuli/BF05_HO.jpg"",""stimuli/BF06_HE.jpg"",""stimuli/BM03_CC.jpg""]","stimuli/AF10_DO.jpg","stimuli/BF05_HO.jpg","stimuli/BF06_HE.jpg","stimuli/BM03_CC.jpg","pos1","stimuli/AF10_DO.jpg","DO","AF10","0","1.5","3","4","stimuli/stars_3.png","213","[""DO"",""HO"",""HE"",""CC""]","[""AF10"",""BF05"",""BF06"",""BM03""]","[3,4,9,8]","[4,2,8,6]","","",""
"show-reward","168","1454546","0.0-168.0","p316922","AGQ38QZYDWFO8","3FVBZG9CLKK1M1GPZWGJX51HFG80HB","39JEC7537W7TLE4J63V8WRPGFV8VC6","model","mismatch","uniform","","","","","","","","1457470","1459472","","","","","","","","","","","","3","","stimuli/stars_3.png","213","","","","","stimuli/AF10_DO.jpg","",""
"explore-choice","169","1456845","0.0-169.0","p316922","AGQ38QZYDWFO8","3FVBZG9CLKK1M1GPZWGJX51HFG80HB","39JEC7537W7TLE4J63V8WRPGFV8VC6","model","mismatch","uniform","","","","","","","1783","1459474","1461257","[""stimuli/BM03_HE.jpg"",""stimuli/BF05_DO.jpg"",""stimuli/AF10_HO.jpg"",""stimuli/BF06_CC.jpg""]","stimuli/BM03_HE.jpg","stimuli/BF05_DO.jpg","stimuli/AF10_HO.jpg","stimuli/BF06_CC.jpg","pos2","stimuli/BF05_DO.jpg","DO","BF05","1","2","4","4","stimuli/stars_4.png","215","[""HE"",""DO"",""HO"",""CC""]","[""BM03"",""BF05"",""AF10"",""BF06""]","[9,4,4,4]","[8,4,2,6]","","",""
"show-reward","170","1458860","0.0-170.0","p316922","AGQ38QZYDWFO8","3FVBZG9CLKK1M1GPZWGJX51HFG80HB","39JEC7537W7TLE4J63V8WRPGFV8VC6","model","mismatch","uniform","","","","","","","","1461772","1463786","","","","","","","","","","","","4","","stimuli/stars_4.png","215","","","","","stimuli/BF05_DO.jpg","",""
"explore-choice","171","1460642","0.0-171.0","p316922","AGQ38QZYDWFO8","3FVBZG9CLKK1M1GPZWGJX51HFG80HB","39JEC7537W7TLE4J63V8WRPGFV8VC6","model","mismatch","uniform","","","","","","","1277","1463789","1465066","[""stimuli/BF06_CC.jpg"",""stimuli/BF05_HE.jpg"",""stimuli/AF10_HO.jpg"",""stimuli/BM03_DO.jpg""]","stimuli/BF06_CC.jpg","stimuli/BF05_HE.jpg","stimuli/AF10_HO.jpg","stimuli/BM03_DO.jpg","pos2","stimuli/BF05_HE.jpg","HE","BF05","1","5","10","8","stimuli/stars_10.png","220","[""CC"",""HE"",""HO"",""DO""]","[""BF06"",""BF05"",""AF10"",""BM03""]","[5,10,1,4]","[6,8,2,4]","","",""
"show-reward","172","1462650","0.0-172.0","p316922","AGQ38QZYDWFO8","3FVBZG9CLKK1M1GPZWGJX51HFG80HB","39JEC7537W7TLE4J63V8WRPGFV8VC6","model","mismatch","uniform","","","","","","","","1465571","1467576","","","","","","","","","","","","10","","stimuli/stars_10.png","220","","","","","stimuli/BF05_HE.jpg","",""
"explore-choice","173","1464387","0.0-173.0","p316922","AGQ38QZYDWFO8","3FVBZG9CLKK1M1GPZWGJX51HFG80HB","39JEC7537W7TLE4J63V8WRPGFV8VC6","model","mismatch","uniform","","","","","","","1213","1467578","1468791","[""stimuli/AF10_HO.jpg"",""stimuli/BF05_CC.jpg"",""stimuli/BM03_DO.jpg"",""stimuli/BF06_HE.jpg""]","stimuli/AF10_HO.jpg","stimuli/BF05_CC.jpg","stimuli/BM03_DO.jpg","stimuli/BF06_HE.jpg","pos1","stimuli/AF10_HO.jpg","HO","AF10","0","1","2","2","stimuli/stars_2.png","221","[""HO"",""CC"",""DO"",""HE""]","[""AF10"",""BF05"",""BM03"",""BF06""]","[2,6,4,8]","[2,6,4,8]","","",""
"show-reward","174","1466390","0.0-174.0","p316922","AGQ38QZYDWFO8","3FVBZG9CLKK1M1GPZWGJX51HFG80HB","39JEC7537W7TLE4J63V8WRPGFV8VC6","model","mismatch","uniform","","","","","","","","1469314","1471316","","","","","","","","","","","","2","","stimuli/stars_2.png","221","","","","","stimuli/AF10_HO.jpg","",""
"explore-choice","175","1468469","0.0-175.0","p316922","AGQ38QZYDWFO8","3FVBZG9CLKK1M1GPZWGJX51HFG80HB","39JEC7537W7TLE4J63V8WRPGFV8VC6","model","mismatch","uniform","","","","","","","1575","1471318","1472893","[""stimuli/BF05_HE.jpg"",""stimuli/AF10_HO.jpg"",""stimuli/BM03_CC.jpg"",""stimuli/BF06_DO.jpg""]","stimuli/BF05_HE.jpg","stimuli/AF10_HO.jpg","stimuli/BM03_CC.jpg","stimuli/BF06_DO.jpg","pos2","stimuli/AF10_HO.jpg","HO","AF10","1","0","0","2","stimuli/stars_0.png","221","[""HE"",""HO"",""CC"",""DO""]","[""BF05"",""AF10"",""BM03"",""BF06""]","[6,0,4,4]","[8,2,6,4]","","",""
"show-reward","176","1470487","0.0-176.0","p316922","AGQ38QZYDWFO8","3FVBZG9CLKK1M1GPZWGJX51HFG80HB","39JEC7537W7TLE4J63V8WRPGFV8VC6","model","mismatch","uniform","","","","","","","","1473396","1475411","","","","","","","","","","","","0","","stimuli/stars_0.png","221","","","","","stimuli/AF10_HO.jpg","",""
"explore-choice","177","1472119","0.0-177.0","p316922","AGQ38QZYDWFO8","3FVBZG9CLKK1M1GPZWGJX51HFG80HB","39JEC7537W7TLE4J63V8WRPGFV8VC6","model","mismatch","uniform","","","","","","","1086","1475415","1476501","[""stimuli/BF05_DO.jpg"",""stimuli/AF10_HO.jpg"",""stimuli/BM03_CC.jpg"",""stimuli/BF06_HE.jpg""]","stimuli/BF05_DO.jpg","stimuli/AF10_HO.jpg","stimuli/BM03_CC.jpg","stimuli/BF06_HE.jpg","pos1","stimuli/BF05_DO.jpg","DO","BF05","0","2.5","5","4","stimuli/stars_5.png","223.5","[""DO"",""HO"",""CC"",""HE""]","[""BF05"",""AF10"",""BM03"",""BF06""]","[5,3,6,9]","[4,2,6,8]","","",""
"show-reward","178","1474130","0.0-178.0","p316922","AGQ38QZYDWFO8","3FVBZG9CLKK1M1GPZWGJX51HFG80HB","39JEC7537W7TLE4J63V8WRPGFV8VC6","model","mismatch","uniform","","","","","","","","1477047","1479056","","","","","","","","","","","","5","","stimuli/stars_5.png","223.5","","","","","stimuli/BF05_DO.jpg","",""
"explore-choice","179","1476222","0.0-179.0","p316922","AGQ38QZYDWFO8","3FVBZG9CLKK1M1GPZWGJX51HFG80HB","39JEC7537W7TLE4J63V8WRPGFV8VC6","model","mismatch","uniform","","","","","","","1579","1479063","1480642","[""stimuli/BM03_CC.jpg"",""stimuli/AF10_DO.jpg"",""stimuli/BF06_HO.jpg"",""stimuli/BF05_HE.jpg""]","stimuli/BM03_CC.jpg","stimuli/AF10_DO.jpg","stimuli/BF06_HO.jpg","stimuli/BF05_HE.jpg","pos2","stimuli/AF10_DO.jpg","DO","AF10","1","2.5","5","4","stimuli/stars_5.png","226","[""CC"",""DO"",""HO"",""HE""]","[""BM03"",""AF10"",""BF06"",""BF05""]","[8,5,1,8]","[6,4,2,8]","","",""
"show-reward","180","1478238","0.0-180.0","p316922","AGQ38QZYDWFO8","3FVBZG9CLKK1M1GPZWGJX51HFG80HB","39JEC7537W7TLE4J63V8WRPGFV8VC6","model","mismatch","uniform","","","","","","","","1481150","1483163","","","","","","","","","","","","5","","stimuli/stars_5.png","226","","","","","stimuli/AF10_DO.jpg","",""
"explore-choice","181","1480206","0.0-181.0","p316922","AGQ38QZYDWFO8","3FVBZG9CLKK1M1GPZWGJX51HFG80HB","39JEC7537W7TLE4J63V8WRPGFV8VC6","model","mismatch","uniform","","","","","","","1455","1483167","1484622","[""stimuli/AF10_HE.jpg"",""stimuli/BF06_DO.jpg"",""stimuli/BM03_HO.jpg"",""stimuli/BF05_CC.jpg""]","stimuli/AF10_HE.jpg","stimuli/BF06_DO.jpg","stimuli/BM03_HO.jpg","stimuli/BF05_CC.jpg","pos1","stimuli/AF10_HE.jpg","HE","AF10","0","3.5","7","8","stimuli/stars_7.png","229.5","[""HE"",""DO"",""HO"",""CC""]","[""AF10"",""BF06"",""BM03"",""BF05""]","[7,5,4,5]","[8,4,2,6]","","",""
"show-reward","182","1482234","0.0-182.0","p316922","AGQ38QZYDWFO8","3FVBZG9CLKK1M1GPZWGJX51HFG80HB","39JEC7537W7TLE4J63V8WRPGFV8VC6","model","mismatch","uniform","","","","","","","","1485134","1487153","","","","","","","","","","","","7","","stimuli/stars_7.png","229.5","","","","","stimuli/AF10_HE.jpg","",""
"explore-choice","183","1483931","0.0-183.0","p316922","AGQ38QZYDWFO8","3FVBZG9CLKK1M1GPZWGJX51HFG80HB","39JEC7537W7TLE4J63V8WRPGFV8VC6","model","mismatch","uniform","","","","","","","1152","1487161","1488313","[""stimuli/AF10_HE.jpg"",""stimuli/BF06_HO.jpg"",""stimuli/BM03_DO.jpg"",""stimuli/BF05_CC.jpg""]","stimuli/AF10_HE.jpg","stimuli/BF06_HO.jpg","stimuli/BM03_DO.jpg","stimuli/BF05_CC.jpg","pos2","stimuli/BF06_HO.jpg","HO","BF06","1","2","4","2","stimuli/stars_4.png","231.5","[""HE"",""HO"",""DO"",""CC""]","[""AF10"",""BF06"",""BM03"",""BF05""]","[6,4,2,7]","[8,2,4,6]","","",""
"show-reward","184","1486019","0.0-184.0","p316922","AGQ38QZYDWFO8","3FVBZG9CLKK1M1GPZWGJX51HFG80HB","39JEC7537W7TLE4J63V8WRPGFV8VC6","model","mismatch","uniform","","","","","","","","1488935","1490944","","","","","","","","","","","","4","","stimuli/stars_4.png","231.5","","","","","stimuli/BF06_HO.jpg","",""
"explore-choice","185","1487720","0.0-185.0","p316922","AGQ38QZYDWFO8","3FVBZG9CLKK1M1GPZWGJX51HFG80HB","39JEC7537W7TLE4J63V8WRPGFV8VC6","model","mismatch","uniform","","","","","","","1148","1490946","1492094","[""stimuli/AF10_CC.jpg"",""stimuli/BF05_DO.jpg"",""stimuli/BM03_HE.jpg"",""stimuli/BF06_HO.jpg""]","stimuli/AF10_CC.jpg","stimuli/BF05_DO.jpg","stimuli/BM03_HE.jpg","stimuli/BF06_HO.jpg","pos1","stimuli/AF10_CC.jpg","CC","AF10","0","3.5","7","6","stimuli/stars_7.png","235","[""CC"",""DO"",""HE"",""HO""]","[""AF10"",""BF05"",""BM03"",""BF06""]","[7,5,7,0]","[6,4,8,2]","","",""
"show-reward","186","1489848","0.0-186.0","p316922","AGQ38QZYDWFO8","3FVBZG9CLKK1M1GPZWGJX51HFG80HB","39JEC7537W7TLE4J63V8WRPGFV8VC6","model","mismatch","uniform","","","","","","","","1492647","1494712","","","","","","","","","","","","7","","stimuli/stars_7.png","235","","","","","stimuli/AF10_CC.jpg","",""
"explore-choice","187","1491527","0.0-187.0","p316922","AGQ38QZYDWFO8","3FVBZG9CLKK1M1GPZWGJX51HFG80HB","39JEC7537W7TLE4J63V8WRPGFV8VC6","model","mismatch","uniform","","","","","","","1144","1494778","1495922","[""stimuli/BF05_HE.jpg"",""stimuli/BM03_HO.jpg"",""stimuli/AF10_DO.jpg"",""stimuli/BF06_CC.jpg""]","stimuli/BF05_HE.jpg","stimuli/BM03_HO.jpg","stimuli/AF10_DO.jpg","stimuli/BF06_CC.jpg","pos2","stimuli/BM03_HO.jpg","HO","BM03","1","1","2","2","stimuli/stars_2.png","236","[""HE"",""HO"",""DO"",""CC""]","[""BF05"",""BM03"",""AF10"",""BF06""]","[10,2,4,6]","[8,2,4,6]","","",""
"show-reward","188","1493530","0.0-188.0","p316922","AGQ38QZYDWFO8","3FVBZG9CLKK1M1GPZWGJX51HFG80HB","39JEC7537W7TLE4J63V8WRPGFV8VC6","model","mismatch","uniform","","","","","","","","1496454","1498456","","","","","","","","","","","","2","","stimuli/stars_2.png","236","","","","","stimuli/BM03_HO.jpg","",""
"explore-choice","189","1495600","0.0-189.0","p316922","AGQ38QZYDWFO8","3FVBZG9CLKK1M1GPZWGJX51HFG80HB","39JEC7537W7TLE4J63V8WRPGFV8VC6","model","mismatch","uniform","","","","","","","1553","1498458","1500011","[""stimuli/BF05_HO.jpg"",""stimuli/AF10_CC.jpg"",""stimuli/BM03_HE.jpg"",""stimuli/BF06_DO.jpg""]","stimuli/BF05_HO.jpg","stimuli/AF10_CC.jpg","stimuli/BM03_HE.jpg","stimuli/BF06_DO.jpg","pos3","stimuli/BM03_HE.jpg","HE","BM03","2","3.5","7","8","stimuli/stars_7.png","239.5","[""HO"",""CC"",""HE"",""DO""]","[""BF05"",""AF10"",""BM03"",""BF06""]","[1,7,7,5]","[2,6,8,4]","","",""
"show-reward","190","1497611","0.0-190.0","p316922","AGQ38QZYDWFO8","3FVBZG9CLKK1M1GPZWGJX51HFG80HB","39JEC7537W7TLE4J63V8WRPGFV8VC6","model","mismatch","uniform","","","","","","","","1500528","1502536","","","","","","","","","","","","7","","stimuli/stars_7.png","239.5","","","","","stimuli/BM03_HE.jpg","",""
"explore-choice","191","1499352","0.0-191.0","p316922","AGQ38QZYDWFO8","3FVBZG9CLKK1M1GPZWGJX51HFG80HB","39JEC7537W7TLE4J63V8WRPGFV8VC6","model","mismatch","uniform","","","","","","","1226","1502540","1503766","[""stimuli/AF10_DO.jpg"",""stimuli/BM03_HE.jpg"",""stimuli/BF05_CC.jpg"",""stimuli/BF06_HO.jpg""]","stimuli/AF10_DO.jpg","stimuli/BM03_HE.jpg","stimuli/BF05_CC.jpg","stimuli/BF06_HO.jpg","pos4","stimuli/BF06_HO.jpg","HO","BF06","3","2","4","2","stimuli/stars_4.png","241.5","[""DO"",""HE"",""CC"",""HO""]","[""AF10"",""BM03"",""BF05"",""BF06""]","[6,6,8,4]","[4,8,6,2]","","",""
"show-reward","192","1501360","0.0-192.0","p316922","AGQ38QZYDWFO8","3FVBZG9CLKK1M1GPZWGJX51HFG80HB","39JEC7537W7TLE4J63V8WRPGFV8VC6","model","mismatch","uniform","","","","","","","","1504279","1506286","","","","","","","","","","","","4","","stimuli/stars_4.png","241.5","","","","","stimuli/BF06_HO.jpg","",""
"explore-choice","193","1503171","0.0-193.0","p316922","AGQ38QZYDWFO8","3FVBZG9CLKK1M1GPZWGJX51HFG80HB","39JEC7537W7TLE4J63V8WRPGFV8VC6","model","mismatch","uniform","","","","","","","1293","1506290","1507583","[""stimuli/BM03_DO.jpg"",""stimuli/AF10_CC.jpg"",""stimuli/BF06_HO.jpg"",""stimuli/BF05_HE.jpg""]","stimuli/BM03_DO.jpg","stimuli/AF10_CC.jpg","stimuli/BF06_HO.jpg","stimuli/BF05_HE.jpg","pos1","stimuli/BM03_DO.jpg","DO","BM03","0","1.5","3","4","stimuli/stars_3.png","243","[""DO"",""CC"",""HO"",""HE""]","[""BM03"",""AF10"",""BF06"",""BF05""]","[3,6,3,9]","[4,6,2,8]","","",""
"show-reward","194","1505197","0.0-194.0","p316922","AGQ38QZYDWFO8","3FVBZG9CLKK1M1GPZWGJX51HFG80HB","39JEC7537W7TLE4J63V8WRPGFV8VC6","model","mismatch","uniform","","","","","","","","1508099","1510104","","","","","","","","","","","","3","","stimuli/stars_3.png","243","","","","","stimuli/BM03_DO.jpg","",""
"explore-choice","195","1508526","0.0-195.0","p316922","AGQ38QZYDWFO8","3FVBZG9CLKK1M1GPZWGJX51HFG80HB","39JEC7537W7TLE4J63V8WRPGFV8VC6","model","mismatch","uniform","","","","","","","2819","1510124","1512943","[""stimuli/BM03_HO.jpg"",""stimuli/BF06_DO.jpg"",""stimuli/AF10_CC.jpg"",""stimuli/BF05_HE.jpg""]","stimuli/BM03_HO.jpg","stimuli/BF06_DO.jpg","stimuli/AF10_CC.jpg","stimuli/BF05_HE.jpg","pos4","stimuli/BF05_HE.jpg","HE","BF05","3","4.5","9","8","stimuli/stars_9.png","247.5","[""HO"",""DO"",""CC"",""HE""]","[""BM03"",""BF06"",""AF10"",""BF05""]","[1,2,7,9]","[2,4,6,8]","","",""
"show-reward","196","1510533","0.0-196.0","p316922","AGQ38QZYDWFO8","3FVBZG9CLKK1M1GPZWGJX51HFG80HB","39JEC7537W7TLE4J63V8WRPGFV8VC6","model","mismatch","uniform","","","","","","","","1513454","1515457","","","","","","","","","","","","9","","stimuli/stars_9.png","247.5","","","","","stimuli/BF05_HE.jpg","",""
"explore-choice","197","1512182","0.0-197.0","p316922","AGQ38QZYDWFO8","3FVBZG9CLKK1M1GPZWGJX51HFG80HB","39JEC7537W7TLE4J63V8WRPGFV8VC6","model","mismatch","uniform","","","","","","","1133","1515461","1516594","[""stimuli/BF05_HO.jpg"",""stimuli/AF10_HE.jpg"",""stimuli/BM03_CC.jpg"",""stimuli/BF06_DO.jpg""]","stimuli/BF05_HO.jpg","stimuli/AF10_HE.jpg","stimuli/BM03_CC.jpg","stimuli/BF06_DO.jpg","pos1","stimuli/BF05_HO.jpg","HO","BF05","0","1","2","2","stimuli/stars_2.png","248.5","[""HO"",""HE"",""CC"",""DO""]","[""BF05"",""AF10"",""BM03"",""BF06""]","[2,9,7,2]","[2,8,6,4]","","",""
"show-reward","198","1514275","0.0-198.0","p316922","AGQ38QZYDWFO8","3FVBZG9CLKK1M1GPZWGJX51HFG80HB","39JEC7537W7TLE4J63V8WRPGFV8VC6","model","mismatch","uniform","","","","","","","","1517109","1519195","","","","","","","","","","","","2","","stimuli/stars_2.png","248.5","","","","","stimuli/BF05_HO.jpg","",""
"instructions","199","1518262","0.0-199.0","p316922","AGQ38QZYDWFO8","3FVBZG9CLKK1M1GPZWGJX51HFG80HB","39JEC7537W7TLE4J63V8WRPGFV8VC6","model","mismatch","uniform","","","","","","[{""page_index"":0,""viewing_time"":3981}]","3984","","","","","","","","","","","","","","","","","","","","","","","",""
"survey-text","200","1524998","0.0-200.0-0.0","p316922","AGQ38QZYDWFO8","3FVBZG9CLKK1M1GPZWGJX51HFG80HB","39JEC7537W7TLE4J63V8WRPGFV8VC6","model","mismatch","uniform","","","","","","","6711","","","","","","","","","","","","","","","","","","","","","","","{""age"":""29""}",""
"survey-text","201","1529728","0.0-200.0-1.0","p316922","AGQ38QZYDWFO8","3FVBZG9CLKK1M1GPZWGJX51HFG80HB","39JEC7537W7TLE4J63V8WRPGFV8VC6","model","mismatch","uniform","","","","","","","4716","","","","","","","","","","","","","","","","","","","","","","","{""gender"":""Female""}",""
"survey-text","202","1539770","0.0-200.0-2.0","p316922","AGQ38QZYDWFO8","3FVBZG9CLKK1M1GPZWGJX51HFG80HB","39JEC7537W7TLE4J63V8WRPGFV8VC6","model","mismatch","uniform","","","","","","","10028","","","","","","","","","","","","","","","","","","","","","","","{""country"":""USA""}",""
"survey-text","203","1554020","0.0-200.0-3.0","p316922","AGQ38QZYDWFO8","3FVBZG9CLKK1M1GPZWGJX51HFG80HB","39JEC7537W7TLE4J63V8WRPGFV8VC6","model","mismatch","uniform","","","","","","","14237","","","","","","","","","","","","","","","","","","","","","","","{""language"":""English"",""other_languages"":""N/A""}",""
"survey-multi-select","204","1557134","0.0-201.0","p316922","AGQ38QZYDWFO8","3FVBZG9CLKK1M1GPZWGJX51HFG80HB","39JEC7537W7TLE4J63V8WRPGFV8VC6","model","mismatch","uniform","","","","","","","3106","","","","","","","","","","","","","","","","","","","","","","","{""race"":[""White""]}","[0]"
"survey-multi-choice","205","1560644","0.0-202.0","p316922","AGQ38QZYDWFO8","3FVBZG9CLKK1M1GPZWGJX51HFG80HB","39JEC7537W7TLE4J63V8WRPGFV8VC6","model","mismatch","uniform","","","","","","","3498","","","","","","","","","","","","","","","","","","","","","","","{""education"":""Bachelor's degree""}","[0]"
"survey-text","206","1568691","0.0-203.0","p316922","AGQ38QZYDWFO8","3FVBZG9CLKK1M1GPZWGJX51HFG80HB","39JEC7537W7TLE4J63V8WRPGFV8VC6","model","mismatch","uniform","","","","","","","8024","","","","","","","","","","","","","","","","","","","","","","","{""patterns"":""n/a"",""strategy"":""n/a"",""comments"":""n/a""}",""
