"trial_type","trial_index","time_elapsed","internal_node_id","subject","workerId","hitId","assignmentId","structure_condition","match_condition","noise_type","success","timeout","failed_images","failed_audio","failed_video","view_history","rt","start_time","end_time","stimuli","image1","image2","image3","image4","choiceLocation","choiceImage","choiceEmotion","choiceModel","choice_index","reward_score","reward","reward_score_unadjusted","reward_image","score_after_trial","emotions","models","rewards","rewards_unadjusted","stimulus","response","question_order"
"pavlovia","0","12","0.0-0.0","p884256","A2IQ0QCTQ3KWLT","3P888QFVX40Z2B7BK75OWKP045JQOK","3U4J9857OGH80JBHA5WXFT3VBS27BK","model","match","uniform","","","","","","","","","","","","","","","","","","","","","","","","","","","","","","",""
"preload","1","3663","0.0-1.0","p884256","A2IQ0QCTQ3KWLT","3P888QFVX40Z2B7BK75OWKP045JQOK","3U4J9857OGH80JBHA5WXFT3VBS27BK","model","match","uniform","true","false","[]","[]","[]","","","","","","","","","","","","","","","","","","","","","","","","","",""
"fullscreen","2","6249","0.0-2.0","p884256","A2IQ0QCTQ3KWLT","3P888QFVX40Z2B7BK75OWKP045JQOK","3U4J9857OGH80JBHA5WXFT3VBS27BK","model","match","uniform","true","","","","","","","","","","","","","","","","","","","","","","","","","","","","","",""
"instructions","3","12883","0.0-3.0","p884256","A2IQ0QCTQ3KWLT","3P888QFVX40Z2B7BK75OWKP045JQOK","3U4J9857OGH80JBHA5WXFT3VBS27BK","model","match","uniform","","","","","","[{""page_index"":0,""viewing_time"":6632.300000000745}]","6632.89999999851","","","","","","","","","","","","","","","","","","","","","","","",""
"explore-choice","4","15337","0.0-4.0","p884256","A2IQ0QCTQ3KWLT","3P888QFVX40Z2B7BK75OWKP045JQOK","3U4J9857OGH80JBHA5WXFT3VBS27BK","model","match","uniform","","","","","","","1950","14335.599999997765","16285.599999997765","[""stimuli/sheep.jpg"",""stimuli/hammer.jpg"",""stimuli/basketball.jpg"",""stimuli/horse.jpg""]","stimuli/sheep.jpg","stimuli/hammer.jpg","stimuli/basketball.jpg","stimuli/horse.jpg","pos4","stimuli/horse.jpg","","","3","64","64","64","stimuli/stars_8.png","65","","","","","","",""
"explore-choice","5","17063","0.0-5.0","p884256","A2IQ0QCTQ3KWLT","3P888QFVX40Z2B7BK75OWKP045JQOK","3U4J9857OGH80JBHA5WXFT3VBS27BK","model","match","uniform","","","","","","","1222.300000000745","16789.599999997765","18011.89999999851","[""stimuli/hammer.jpg"",""stimuli/basketball.jpg"",""stimuli/horse.jpg"",""stimuli/sheep.jpg""]","stimuli/hammer.jpg","stimuli/basketball.jpg","stimuli/horse.jpg","stimuli/sheep.jpg","pos1","stimuli/hammer.jpg","","","0","8","8","8","stimuli/stars_2.png","9","","","","","","",""
"instructions","6","25229","0.0-6.0","p884256","A2IQ0QCTQ3KWLT","3P888QFVX40Z2B7BK75OWKP045JQOK","3U4J9857OGH80JBHA5WXFT3VBS27BK","model","match","uniform","","","","","","[{""page_index"":0,""viewing_time"":8165.20000000298}]","8165.400000002235","","","","","","","","","","","","","","","","","","","","","","","",""
"explore-choice","7","28609","0.0-7.0","p884256","A2IQ0QCTQ3KWLT","3P888QFVX40Z2B7BK75OWKP045JQOK","3U4J9857OGH80JBHA5WXFT3VBS27BK","model","match","uniform","","","","","","","2878.5","26682.5","29561","[""stimuli/AF10_FO.jpg"",""stimuli/WF06_SC.jpg"",""stimuli/BM03_AO.jpg"",""stimuli/HM07_HE.jpg""]","stimuli/AF10_FO.jpg","stimuli/WF06_SC.jpg","stimuli/BM03_AO.jpg","stimuli/HM07_HE.jpg","pos3","stimuli/BM03_AO.jpg","AO","BM03","2","4","8","8","stimuli/stars_8.png","5","[""FO"",""SC"",""AO"",""HE""]","[""AF10"",""WF06"",""BM03"",""HM07""]","[8,5,8,0]","[6,4,8,2]","","",""
"show-reward","8","30614","0.0-8.0","p884256","A2IQ0QCTQ3KWLT","3P888QFVX40Z2B7BK75OWKP045JQOK","3U4J9857OGH80JBHA5WXFT3VBS27BK","model","match","uniform","","","","","","","","30063.5","32066.5","","","","","","","","","","","","8","","stimuli/stars_8.png","5","","","","","stimuli/BM03_AO.jpg","",""
"explore-choice","9","32659","0.0-9.0","p884256","A2IQ0QCTQ3KWLT","3P888QFVX40Z2B7BK75OWKP045JQOK","3U4J9857OGH80JBHA5WXFT3VBS27BK","model","match","uniform","","","","","","","1543.5","32067.599999997765","33611.099999997765","[""stimuli/WF06_SC.jpg"",""stimuli/HM07_AO.jpg"",""stimuli/BM03_FO.jpg"",""stimuli/AF10_HE.jpg""]","stimuli/WF06_SC.jpg","stimuli/HM07_AO.jpg","stimuli/BM03_FO.jpg","stimuli/AF10_HE.jpg","pos2","stimuli/HM07_AO.jpg","AO","HM07","1","2","4","2","stimuli/stars_4.png","7","[""SC"",""AO"",""FO"",""HE""]","[""WF06"",""HM07"",""BM03"",""AF10""]","[6,4,9,6]","[4,2,8,6]","","",""
"show-reward","10","34662","0.0-10.0","p884256","A2IQ0QCTQ3KWLT","3P888QFVX40Z2B7BK75OWKP045JQOK","3U4J9857OGH80JBHA5WXFT3VBS27BK","model","match","uniform","","","","","","","","34112.300000000745","36114.39999999851","","","","","","","","","","","","4","","stimuli/stars_4.png","7","","","","","stimuli/HM07_AO.jpg","",""
"explore-choice","11","36214","0.0-11.0","p884256","A2IQ0QCTQ3KWLT","3P888QFVX40Z2B7BK75OWKP045JQOK","3U4J9857OGH80JBHA5WXFT3VBS27BK","model","match","uniform","","","","","","","1050.699999999255","36115.39999999851","37166.099999997765","[""stimuli/BM03_SC.jpg"",""stimuli/HM07_AO.jpg"",""stimuli/WF06_HE.jpg"",""stimuli/AF10_FO.jpg""]","stimuli/BM03_SC.jpg","stimuli/HM07_AO.jpg","stimuli/WF06_HE.jpg","stimuli/AF10_FO.jpg","pos1","stimuli/BM03_SC.jpg","SC","BM03","0","4","8","8","stimuli/stars_8.png","11","[""SC"",""AO"",""HE"",""FO""]","[""BM03"",""HM07"",""WF06"",""AF10""]","[8,4,4,6]","[8,2,4,6]","","",""
"show-reward","12","38218","0.0-12.0","p884256","A2IQ0QCTQ3KWLT","3P888QFVX40Z2B7BK75OWKP045JQOK","3U4J9857OGH80JBHA5WXFT3VBS27BK","model","match","uniform","","","","","","","","37667.89999999851","39670.800000000745","","","","","","","","","","","","8","","stimuli/stars_8.png","11","","","","","stimuli/BM03_SC.jpg","",""
"explore-choice","13","39682","0.0-13.0","p884256","A2IQ0QCTQ3KWLT","3P888QFVX40Z2B7BK75OWKP045JQOK","3U4J9857OGH80JBHA5WXFT3VBS27BK","model","match","uniform","","","","","","","959.8000000007451","39671.699999999255","40631.5","[""stimuli/WF06_HE.jpg"",""stimuli/HM07_AO.jpg"",""stimuli/BM03_FO.jpg"",""stimuli/AF10_SC.jpg""]","stimuli/WF06_HE.jpg","stimuli/HM07_AO.jpg","stimuli/BM03_FO.jpg","stimuli/AF10_SC.jpg","pos3","stimuli/BM03_FO.jpg","FO","BM03","2","4.5","9","8","stimuli/stars_9.png","15.5","[""HE"",""AO"",""FO"",""SC""]","[""WF06"",""HM07"",""BM03"",""AF10""]","[6,2,9,4]","[4,2,8,6]","","",""
"show-reward","14","41689","0.0-14.0","p884256","A2IQ0QCTQ3KWLT","3P888QFVX40Z2B7BK75OWKP045JQOK","3U4J9857OGH80JBHA5WXFT3VBS27BK","model","match","uniform","","","","","","","","41135.599999997765","43141.699999999255","","","","","","","","","","","","9","","stimuli/stars_9.png","15.5","","","","","stimuli/BM03_FO.jpg","",""
"explore-choice","15","43042","0.0-15.0","p884256","A2IQ0QCTQ3KWLT","3P888QFVX40Z2B7BK75OWKP045JQOK","3U4J9857OGH80JBHA5WXFT3VBS27BK","model","match","uniform","","","","","","","848.9000000022352","43142.89999999851","43991.800000000745","[""stimuli/WF06_HE.jpg"",""stimuli/AF10_AO.jpg"",""stimuli/BM03_FO.jpg"",""stimuli/HM07_SC.jpg""]","stimuli/WF06_HE.jpg","stimuli/AF10_AO.jpg","stimuli/BM03_FO.jpg","stimuli/HM07_SC.jpg","pos3","stimuli/BM03_FO.jpg","FO","BM03","2","4","8","8","stimuli/stars_8.png","19.5","[""HE"",""AO"",""FO"",""SC""]","[""WF06"",""AF10"",""BM03"",""HM07""]","[2,4,8,1]","[4,6,8,2]","","",""
"show-reward","16","45046","0.0-16.0","p884256","A2IQ0QCTQ3KWLT","3P888QFVX40Z2B7BK75OWKP045JQOK","3U4J9857OGH80JBHA5WXFT3VBS27BK","model","match","uniform","","","","","","","","44495.39999999851","46498.39999999851","","","","","","","","","","","","8","","stimuli/stars_8.png","19.5","","","","","stimuli/BM03_FO.jpg","",""
"explore-choice","17","47674","0.0-17.0","p884256","A2IQ0QCTQ3KWLT","3P888QFVX40Z2B7BK75OWKP045JQOK","3U4J9857OGH80JBHA5WXFT3VBS27BK","model","match","uniform","","","","","","","2127.60000000149","46499.39999999851","48627","[""stimuli/BM03_HE.jpg"",""stimuli/AF10_SC.jpg"",""stimuli/WF06_AO.jpg"",""stimuli/HM07_FO.jpg""]","stimuli/BM03_HE.jpg","stimuli/AF10_SC.jpg","stimuli/WF06_AO.jpg","stimuli/HM07_FO.jpg","pos1","stimuli/BM03_HE.jpg","HE","BM03","0","5","10","8","stimuli/stars_10.png","24.5","[""HE"",""SC"",""AO"",""FO""]","[""BM03"",""AF10"",""WF06"",""HM07""]","[10,7,3,1]","[8,6,4,2]","","",""
"show-reward","18","49678","0.0-18.0","p884256","A2IQ0QCTQ3KWLT","3P888QFVX40Z2B7BK75OWKP045JQOK","3U4J9857OGH80JBHA5WXFT3VBS27BK","model","match","uniform","","","","","","","","49128.300000000745","51130.300000000745","","","","","","","","","","","","10","","stimuli/stars_10.png","24.5","","","","","stimuli/BM03_HE.jpg","",""
"explore-choice","19","54980","0.0-19.0","p884256","A2IQ0QCTQ3KWLT","3P888QFVX40Z2B7BK75OWKP045JQOK","3U4J9857OGH80JBHA5WXFT3VBS27BK","model","match","uniform","","","","","","","4801.300000000745","51131","55932.300000000745","[""stimuli/BM03_HE.jpg"",""stimuli/HM07_SC.jpg"",""stimuli/AF10_FO.jpg"",""stimuli/WF06_AO.jpg""]","stimuli/BM03_HE.jpg","stimuli/HM07_SC.jpg","stimuli/AF10_FO.jpg","stimuli/WF06_AO.jpg","pos1","stimuli/BM03_HE.jpg","HE","BM03","0","3.5","7","8","stimuli/stars_7.png","28","[""HE"",""SC"",""FO"",""AO""]","[""BM03"",""HM07"",""AF10"",""WF06""]","[7,4,5,3]","[8,2,6,4]","","",""
"show-reward","20","56985","0.0-20.0","p884256","A2IQ0QCTQ3KWLT","3P888QFVX40Z2B7BK75OWKP045JQOK","3U4J9857OGH80JBHA5WXFT3VBS27BK","model","match","uniform","","","","","","","","56434","58438.300000000745","","","","","","","","","","","","7","","stimuli/stars_7.png","28","","","","","stimuli/BM03_HE.jpg","",""
"explore-choice","21","58673","0.0-21.0","p884256","A2IQ0QCTQ3KWLT","3P888QFVX40Z2B7BK75OWKP045JQOK","3U4J9857OGH80JBHA5WXFT3VBS27BK","model","match","uniform","","","","","","","1183.800000000745","58439","59622.800000000745","[""stimuli/WF06_FO.jpg"",""stimuli/AF10_SC.jpg"",""stimuli/HM07_HE.jpg"",""stimuli/BM03_AO.jpg""]","stimuli/WF06_FO.jpg","stimuli/AF10_SC.jpg","stimuli/HM07_HE.jpg","stimuli/BM03_AO.jpg","pos1","stimuli/WF06_FO.jpg","FO","WF06","0","2.5","5","4","stimuli/stars_5.png","30.5","[""FO"",""SC"",""HE"",""AO""]","[""WF06"",""AF10"",""HM07"",""BM03""]","[5,4,0,6]","[4,6,2,8]","","",""
"show-reward","22","60677","0.0-22.0","p884256","A2IQ0QCTQ3KWLT","3P888QFVX40Z2B7BK75OWKP045JQOK","3U4J9857OGH80JBHA5WXFT3VBS27BK","model","match","uniform","","","","","","","","60126.5","62129.89999999851","","","","","","","","","","","","5","","stimuli/stars_5.png","30.5","","","","","stimuli/WF06_FO.jpg","",""
"explore-choice","23","62468","0.0-23.0","p884256","A2IQ0QCTQ3KWLT","3P888QFVX40Z2B7BK75OWKP045JQOK","3U4J9857OGH80JBHA5WXFT3VBS27BK","model","match","uniform","","","","","","","1287.0999999977648","62130.5","63417.599999997765","[""stimuli/AF10_SC.jpg"",""stimuli/BM03_AO.jpg"",""stimuli/WF06_HE.jpg"",""stimuli/HM07_FO.jpg""]","stimuli/AF10_SC.jpg","stimuli/BM03_AO.jpg","stimuli/WF06_HE.jpg","stimuli/HM07_FO.jpg","pos2","stimuli/BM03_AO.jpg","AO","BM03","1","5","10","8","stimuli/stars_10.png","35.5","[""SC"",""AO"",""HE"",""FO""]","[""AF10"",""BM03"",""WF06"",""HM07""]","[4,10,6,4]","[6,8,4,2]","","",""
"show-reward","24","64478","0.0-24.0","p884256","A2IQ0QCTQ3KWLT","3P888QFVX40Z2B7BK75OWKP045JQOK","3U4J9857OGH80JBHA5WXFT3VBS27BK","model","match","uniform","","","","","","","","63921.89999999851","65931.19999999925","","","","","","","","","","","","10","","stimuli/stars_10.png","35.5","","","","","stimuli/BM03_AO.jpg","",""
"explore-choice","25","66338","0.0-25.0","p884256","A2IQ0QCTQ3KWLT","3P888QFVX40Z2B7BK75OWKP045JQOK","3U4J9857OGH80JBHA5WXFT3VBS27BK","model","match","uniform","","","","","","","1355.300000000745","65931.89999999851","67287.19999999925","[""stimuli/BM03_SC.jpg"",""stimuli/WF06_AO.jpg"",""stimuli/HM07_HE.jpg"",""stimuli/AF10_FO.jpg""]","stimuli/BM03_SC.jpg","stimuli/WF06_AO.jpg","stimuli/HM07_HE.jpg","stimuli/AF10_FO.jpg","pos1","stimuli/BM03_SC.jpg","SC","BM03","0","5","10","8","stimuli/stars_10.png","40.5","[""SC"",""AO"",""HE"",""FO""]","[""BM03"",""WF06"",""HM07"",""AF10""]","[10,4,3,8]","[8,4,2,6]","","",""
"show-reward","26","68345","0.0-26.0","p884256","A2IQ0QCTQ3KWLT","3P888QFVX40Z2B7BK75OWKP045JQOK","3U4J9857OGH80JBHA5WXFT3VBS27BK","model","match","uniform","","","","","","","","67792.5","69798.39999999851","","","","","","","","","","","","10","","stimuli/stars_10.png","40.5","","","","","stimuli/BM03_SC.jpg","",""
"explore-choice","27","69681","0.0-27.0","p884256","A2IQ0QCTQ3KWLT","3P888QFVX40Z2B7BK75OWKP045JQOK","3U4J9857OGH80JBHA5WXFT3VBS27BK","model","match","uniform","","","","","","","834.3000000007451","69799","70633.30000000075","[""stimuli/WF06_SC.jpg"",""stimuli/BM03_FO.jpg"",""stimuli/AF10_AO.jpg"",""stimuli/HM07_HE.jpg""]","stimuli/WF06_SC.jpg","stimuli/BM03_FO.jpg","stimuli/AF10_AO.jpg","stimuli/HM07_HE.jpg","pos2","stimuli/BM03_FO.jpg","FO","BM03","1","3.5","7","8","stimuli/stars_7.png","44","[""SC"",""FO"",""AO"",""HE""]","[""WF06"",""BM03"",""AF10"",""HM07""]","[6,7,8,0]","[4,8,6,2]","","",""
"show-reward","28","71685","0.0-28.0","p884256","A2IQ0QCTQ3KWLT","3P888QFVX40Z2B7BK75OWKP045JQOK","3U4J9857OGH80JBHA5WXFT3VBS27BK","model","match","uniform","","","","","","","","71135.30000000075","73138.39999999851","","","","","","","","","","","","7","","stimuli/stars_7.png","44","","","","","stimuli/BM03_FO.jpg","",""
"explore-choice","29","75637","0.0-29.0","p884256","A2IQ0QCTQ3KWLT","3P888QFVX40Z2B7BK75OWKP045JQOK","3U4J9857OGH80JBHA5WXFT3VBS27BK","model","match","uniform","","","","","","","3449.5","73139.39999999851","76588.89999999851","[""stimuli/HM07_AO.jpg"",""stimuli/BM03_HE.jpg"",""stimuli/WF06_SC.jpg"",""stimuli/AF10_FO.jpg""]","stimuli/HM07_AO.jpg","stimuli/BM03_HE.jpg","stimuli/WF06_SC.jpg","stimuli/AF10_FO.jpg","pos2","stimuli/BM03_HE.jpg","HE","BM03","1","5","10","8","stimuli/stars_10.png","49","[""AO"",""HE"",""SC"",""FO""]","[""HM07"",""BM03"",""WF06"",""AF10""]","[2,10,4,5]","[2,8,4,6]","","",""
"show-reward","30","77641","0.0-30.0","p884256","A2IQ0QCTQ3KWLT","3P888QFVX40Z2B7BK75OWKP045JQOK","3U4J9857OGH80JBHA5WXFT3VBS27BK","model","match","uniform","","","","","","","","77091.59999999776","79094.30000000075","","","","","","","","","","","","10","","stimuli/stars_10.png","49","","","","","stimuli/BM03_HE.jpg","",""
"explore-choice","31","79911","0.0-31.0","p884256","A2IQ0QCTQ3KWLT","3P888QFVX40Z2B7BK75OWKP045JQOK","3U4J9857OGH80JBHA5WXFT3VBS27BK","model","match","uniform","","","","","","","1769","79095.19999999925","80864.19999999925","[""stimuli/AF10_HE.jpg"",""stimuli/HM07_AO.jpg"",""stimuli/WF06_FO.jpg"",""stimuli/BM03_SC.jpg""]","stimuli/AF10_HE.jpg","stimuli/HM07_AO.jpg","stimuli/WF06_FO.jpg","stimuli/BM03_SC.jpg","pos4","stimuli/BM03_SC.jpg","SC","BM03","3","3","6","8","stimuli/stars_6.png","52","[""HE"",""AO"",""FO"",""SC""]","[""AF10"",""HM07"",""WF06"",""BM03""]","[7,3,5,6]","[6,2,4,8]","","",""
"show-reward","32","81914","0.0-32.0","p884256","A2IQ0QCTQ3KWLT","3P888QFVX40Z2B7BK75OWKP045JQOK","3U4J9857OGH80JBHA5WXFT3VBS27BK","model","match","uniform","","","","","","","","81365.5","83367.39999999851","","","","","","","","","","","","6","","stimuli/stars_6.png","52","","","","","stimuli/BM03_SC.jpg","",""
"explore-choice","33","83301","0.0-33.0","p884256","A2IQ0QCTQ3KWLT","3P888QFVX40Z2B7BK75OWKP045JQOK","3U4J9857OGH80JBHA5WXFT3VBS27BK","model","match","uniform","","","","","","","885.8000000007451","83368.19999999925","84254","[""stimuli/AF10_HE.jpg"",""stimuli/HM07_SC.jpg"",""stimuli/WF06_AO.jpg"",""stimuli/BM03_FO.jpg""]","stimuli/AF10_HE.jpg","stimuli/HM07_SC.jpg","stimuli/WF06_AO.jpg","stimuli/BM03_FO.jpg","pos4","stimuli/BM03_FO.jpg","FO","BM03","3","4.5","9","8","stimuli/stars_9.png","56.5","[""HE"",""SC"",""AO"",""FO""]","[""AF10"",""HM07"",""WF06"",""BM03""]","[5,0,6,9]","[6,2,4,8]","","",""
"show-reward","34","85303","0.0-34.0","p884256","A2IQ0QCTQ3KWLT","3P888QFVX40Z2B7BK75OWKP045JQOK","3U4J9857OGH80JBHA5WXFT3VBS27BK","model","match","uniform","","","","","","","","84755","86756.89999999851","","","","","","","","","","","","9","","stimuli/stars_9.png","56.5","","","","","stimuli/BM03_FO.jpg","",""
"explore-choice","35","86665","0.0-35.0","p884256","A2IQ0QCTQ3KWLT","3P888QFVX40Z2B7BK75OWKP045JQOK","3U4J9857OGH80JBHA5WXFT3VBS27BK","model","match","uniform","","","","","","","856.3999999985099","86757.69999999925","87614.09999999776","[""stimuli/AF10_SC.jpg"",""stimuli/HM07_AO.jpg"",""stimuli/WF06_FO.jpg"",""stimuli/BM03_HE.jpg""]","stimuli/AF10_SC.jpg","stimuli/HM07_AO.jpg","stimuli/WF06_FO.jpg","stimuli/BM03_HE.jpg","pos4","stimuli/BM03_HE.jpg","HE","BM03","3","3.5","7","8","stimuli/stars_7.png","60","[""SC"",""AO"",""FO"",""HE""]","[""AF10"",""HM07"",""WF06"",""BM03""]","[5,2,6,7]","[6,2,4,8]","","",""
"show-reward","36","88671","0.0-36.0","p884256","A2IQ0QCTQ3KWLT","3P888QFVX40Z2B7BK75OWKP045JQOK","3U4J9857OGH80JBHA5WXFT3VBS27BK","model","match","uniform","","","","","","","","88119.5","90125","","","","","","","","","","","","7","","stimuli/stars_7.png","60","","","","","stimuli/BM03_HE.jpg","",""
"explore-choice","37","89976","0.0-37.0","p884256","A2IQ0QCTQ3KWLT","3P888QFVX40Z2B7BK75OWKP045JQOK","3U4J9857OGH80JBHA5WXFT3VBS27BK","model","match","uniform","","","","","","","803.8999999985099","90125.80000000075","90929.69999999925","[""stimuli/WF06_FO.jpg"",""stimuli/HM07_SC.jpg"",""stimuli/BM03_HE.jpg"",""stimuli/AF10_AO.jpg""]","stimuli/WF06_FO.jpg","stimuli/HM07_SC.jpg","stimuli/BM03_HE.jpg","stimuli/AF10_AO.jpg","pos3","stimuli/BM03_HE.jpg","HE","BM03","2","3.5","7","8","stimuli/stars_7.png","63.5","[""FO"",""SC"",""HE"",""AO""]","[""WF06"",""HM07"",""BM03"",""AF10""]","[2,0,7,4]","[4,2,8,6]","","",""
"show-reward","38","91980","0.0-38.0","p884256","A2IQ0QCTQ3KWLT","3P888QFVX40Z2B7BK75OWKP045JQOK","3U4J9857OGH80JBHA5WXFT3VBS27BK","model","match","uniform","","","","","","","","91430.80000000075","93434.30000000075","","","","","","","","","","","","7","","stimuli/stars_7.png","63.5","","","","","stimuli/BM03_HE.jpg","",""
"explore-choice","39","93306","0.0-39.0","p884256","A2IQ0QCTQ3KWLT","3P888QFVX40Z2B7BK75OWKP045JQOK","3U4J9857OGH80JBHA5WXFT3VBS27BK","model","match","uniform","","","","","","","824.4000000022352","93435.09999999776","94259.5","[""stimuli/BM03_HE.jpg"",""stimuli/WF06_SC.jpg"",""stimuli/HM07_FO.jpg"",""stimuli/AF10_AO.jpg""]","stimuli/BM03_HE.jpg","stimuli/WF06_SC.jpg","stimuli/HM07_FO.jpg","stimuli/AF10_AO.jpg","pos1","stimuli/BM03_HE.jpg","HE","BM03","0","5","10","8","stimuli/stars_10.png","68.5","[""HE"",""SC"",""FO"",""AO""]","[""BM03"",""WF06"",""HM07"",""AF10""]","[10,5,0,4]","[8,4,2,6]","","",""
"show-reward","40","95308","0.0-40.0","p884256","A2IQ0QCTQ3KWLT","3P888QFVX40Z2B7BK75OWKP045JQOK","3U4J9857OGH80JBHA5WXFT3VBS27BK","model","match","uniform","","","","","","","","94760.39999999851","96762.30000000075","","","","","","","","","","","","10","","stimuli/stars_10.png","68.5","","","","","stimuli/BM03_HE.jpg","",""
"explore-choice","41","96906","0.0-41.0","p884256","A2IQ0QCTQ3KWLT","3P888QFVX40Z2B7BK75OWKP045JQOK","3U4J9857OGH80JBHA5WXFT3VBS27BK","model","match","uniform","","","","","","","1096.9000000022352","96763.09999999776","97860","[""stimuli/BM03_SC.jpg"",""stimuli/AF10_HE.jpg"",""stimuli/WF06_AO.jpg"",""stimuli/HM07_FO.jpg""]","stimuli/BM03_SC.jpg","stimuli/AF10_HE.jpg","stimuli/WF06_AO.jpg","stimuli/HM07_FO.jpg","pos1","stimuli/BM03_SC.jpg","SC","BM03","0","3","6","8","stimuli/stars_6.png","71.5","[""SC"",""HE"",""AO"",""FO""]","[""BM03"",""AF10"",""WF06"",""HM07""]","[6,4,3,3]","[8,6,4,2]","","",""
"show-reward","42","98909","0.0-42.0","p884256","A2IQ0QCTQ3KWLT","3P888QFVX40Z2B7BK75OWKP045JQOK","3U4J9857OGH80JBHA5WXFT3VBS27BK","model","match","uniform","","","","","","","","98361.30000000075","100363.09999999776","","","","","","","","","","","","6","","stimuli/stars_6.png","71.5","","","","","stimuli/BM03_SC.jpg","",""
"explore-choice","43","100312","0.0-43.0","p884256","A2IQ0QCTQ3KWLT","3P888QFVX40Z2B7BK75OWKP045JQOK","3U4J9857OGH80JBHA5WXFT3VBS27BK","model","match","uniform","","","","","","","901.5","100363.69999999925","101265.19999999925","[""stimuli/WF06_FO.jpg"",""stimuli/HM07_HE.jpg"",""stimuli/AF10_AO.jpg"",""stimuli/BM03_SC.jpg""]","stimuli/WF06_FO.jpg","stimuli/HM07_HE.jpg","stimuli/AF10_AO.jpg","stimuli/BM03_SC.jpg","pos2","stimuli/HM07_HE.jpg","HE","HM07","1","0","0","2","stimuli/stars_0.png","71.5","[""FO"",""HE"",""AO"",""SC""]","[""WF06"",""HM07"",""AF10"",""BM03""]","[3,0,4,8]","[4,2,6,8]","","",""
"show-reward","44","102316","0.0-44.0","p884256","A2IQ0QCTQ3KWLT","3P888QFVX40Z2B7BK75OWKP045JQOK","3U4J9857OGH80JBHA5WXFT3VBS27BK","model","match","uniform","","","","","","","","101766.80000000075","103770.5","","","","","","","","","","","","0","","stimuli/stars_0.png","71.5","","","","","stimuli/HM07_HE.jpg","",""
"explore-choice","45","103432","0.0-45.0","p884256","A2IQ0QCTQ3KWLT","3P888QFVX40Z2B7BK75OWKP045JQOK","3U4J9857OGH80JBHA5WXFT3VBS27BK","model","match","uniform","","","","","","","614","103771.30000000075","104385.30000000075","[""stimuli/WF06_SC.jpg"",""stimuli/HM07_FO.jpg"",""stimuli/BM03_AO.jpg"",""stimuli/AF10_HE.jpg""]","stimuli/WF06_SC.jpg","stimuli/HM07_FO.jpg","stimuli/BM03_AO.jpg","stimuli/AF10_HE.jpg","pos3","stimuli/BM03_AO.jpg","AO","BM03","2","4.5","9","8","stimuli/stars_9.png","76","[""SC"",""FO"",""AO"",""HE""]","[""WF06"",""HM07"",""BM03"",""AF10""]","[2,4,9,5]","[4,2,8,6]","","",""
"show-reward","46","105440","0.0-46.0","p884256","A2IQ0QCTQ3KWLT","3P888QFVX40Z2B7BK75OWKP045JQOK","3U4J9857OGH80JBHA5WXFT3VBS27BK","model","match","uniform","","","","","","","","104887.5","106894.30000000075","","","","","","","","","","","","9","","stimuli/stars_9.png","76","","","","","stimuli/BM03_AO.jpg","",""
"explore-choice","47","107271","0.0-47.0","p884256","A2IQ0QCTQ3KWLT","3P888QFVX40Z2B7BK75OWKP045JQOK","3U4J9857OGH80JBHA5WXFT3VBS27BK","model","match","uniform","","","","","","","1329.199999999255","106895.30000000075","108224.5","[""stimuli/AF10_AO.jpg"",""stimuli/BM03_SC.jpg"",""stimuli/WF06_HE.jpg"",""stimuli/HM07_FO.jpg""]","stimuli/AF10_AO.jpg","stimuli/BM03_SC.jpg","stimuli/WF06_HE.jpg","stimuli/HM07_FO.jpg","pos2","stimuli/BM03_SC.jpg","SC","BM03","1","3","6","8","stimuli/stars_6.png","79","[""AO"",""SC"",""HE"",""FO""]","[""AF10"",""BM03"",""WF06"",""HM07""]","[6,6,4,1]","[6,8,4,2]","","",""
"show-reward","48","109277","0.0-48.0","p884256","A2IQ0QCTQ3KWLT","3P888QFVX40Z2B7BK75OWKP045JQOK","3U4J9857OGH80JBHA5WXFT3VBS27BK","model","match","uniform","","","","","","","","108726.19999999925","110731.19999999925","","","","","","","","","","","","6","","stimuli/stars_6.png","79","","","","","stimuli/BM03_SC.jpg","",""
"explore-choice","49","113528","0.0-49.0","p884256","A2IQ0QCTQ3KWLT","3P888QFVX40Z2B7BK75OWKP045JQOK","3U4J9857OGH80JBHA5WXFT3VBS27BK","model","match","uniform","","","","","","","3749.099999997765","110732","114481.09999999776","[""stimuli/WF06_FO.jpg"",""stimuli/BM03_AO.jpg"",""stimuli/AF10_HE.jpg"",""stimuli/HM07_SC.jpg""]","stimuli/WF06_FO.jpg","stimuli/BM03_AO.jpg","stimuli/AF10_HE.jpg","stimuli/HM07_SC.jpg","pos2","stimuli/BM03_AO.jpg","AO","BM03","1","3","6","8","stimuli/stars_6.png","82","[""FO"",""AO"",""HE"",""SC""]","[""WF06"",""BM03"",""AF10"",""HM07""]","[6,6,7,0]","[4,8,6,2]","","",""
"show-reward","50","115535","0.0-50.0","p884256","A2IQ0QCTQ3KWLT","3P888QFVX40Z2B7BK75OWKP045JQOK","3U4J9857OGH80JBHA5WXFT3VBS27BK","model","match","uniform","","","","","","","","114983.59999999776","116989.80000000075","","","","","","","","","","","","6","","stimuli/stars_6.png","82","","","","","stimuli/BM03_AO.jpg","",""
"explore-choice","51","116920","0.0-51.0","p884256","A2IQ0QCTQ3KWLT","3P888QFVX40Z2B7BK75OWKP045JQOK","3U4J9857OGH80JBHA5WXFT3VBS27BK","model","match","uniform","","","","","","","880.8999999985099","116990.69999999925","117871.59999999776","[""stimuli/BM03_FO.jpg"",""stimuli/HM07_HE.jpg"",""stimuli/WF06_AO.jpg"",""stimuli/AF10_SC.jpg""]","stimuli/BM03_FO.jpg","stimuli/HM07_HE.jpg","stimuli/WF06_AO.jpg","stimuli/AF10_SC.jpg","pos1","stimuli/BM03_FO.jpg","FO","BM03","0","4","8","8","stimuli/stars_8.png","86","[""FO"",""HE"",""AO"",""SC""]","[""BM03"",""HM07"",""WF06"",""AF10""]","[8,2,5,5]","[8,2,4,6]","","",""
"show-reward","52","118924","0.0-52.0","p884256","A2IQ0QCTQ3KWLT","3P888QFVX40Z2B7BK75OWKP045JQOK","3U4J9857OGH80JBHA5WXFT3VBS27BK","model","match","uniform","","","","","","","","118375.19999999925","120378.39999999851","","","","","","","","","","","","8","","stimuli/stars_8.png","86","","","","","stimuli/BM03_FO.jpg","",""
"explore-choice","53","120412","0.0-53.0","p884256","A2IQ0QCTQ3KWLT","3P888QFVX40Z2B7BK75OWKP045JQOK","3U4J9857OGH80JBHA5WXFT3VBS27BK","model","match","uniform","","","","","","","987.0999999977648","120379.30000000075","121366.39999999851","[""stimuli/AF10_FO.jpg"",""stimuli/BM03_AO.jpg"",""stimuli/WF06_HE.jpg"",""stimuli/HM07_SC.jpg""]","stimuli/AF10_FO.jpg","stimuli/BM03_AO.jpg","stimuli/WF06_HE.jpg","stimuli/HM07_SC.jpg","pos2","stimuli/BM03_AO.jpg","AO","BM03","1","4","8","8","stimuli/stars_8.png","90","[""FO"",""AO"",""HE"",""SC""]","[""AF10"",""BM03"",""WF06"",""HM07""]","[5,8,4,1]","[6,8,4,2]","","",""
"show-reward","54","122415","0.0-54.0","p884256","A2IQ0QCTQ3KWLT","3P888QFVX40Z2B7BK75OWKP045JQOK","3U4J9857OGH80JBHA5WXFT3VBS27BK","model","match","uniform","","","","","","","","121867.59999999776","123869.80000000075","","","","","","","","","","","","8","","stimuli/stars_8.png","90","","","","","stimuli/BM03_AO.jpg","",""
"explore-choice","55","123730","0.0-55.0","p884256","A2IQ0QCTQ3KWLT","3P888QFVX40Z2B7BK75OWKP045JQOK","3U4J9857OGH80JBHA5WXFT3VBS27BK","model","match","uniform","","","","","","","810.5","123870.69999999925","124681.19999999925","[""stimuli/BM03_AO.jpg"",""stimuli/AF10_FO.jpg"",""stimuli/WF06_HE.jpg"",""stimuli/HM07_SC.jpg""]","stimuli/BM03_AO.jpg","stimuli/AF10_FO.jpg","stimuli/WF06_HE.jpg","stimuli/HM07_SC.jpg","pos1","stimuli/BM03_AO.jpg","AO","BM03","0","4","8","8","stimuli/stars_8.png","94","[""AO"",""FO"",""HE"",""SC""]","[""BM03"",""AF10"",""WF06"",""HM07""]","[8,5,4,1]","[8,6,4,2]","","",""
"show-reward","56","125735","0.0-56.0","p884256","A2IQ0QCTQ3KWLT","3P888QFVX40Z2B7BK75OWKP045JQOK","3U4J9857OGH80JBHA5WXFT3VBS27BK","model","match","uniform","","","","","","","","125185.30000000075","127190","","","","","","","","","","","","8","","stimuli/stars_8.png","94","","","","","stimuli/BM03_AO.jpg","",""
"explore-choice","57","126956","0.0-57.0","p884256","A2IQ0QCTQ3KWLT","3P888QFVX40Z2B7BK75OWKP045JQOK","3U4J9857OGH80JBHA5WXFT3VBS27BK","model","match","uniform","","","","","","","716.3999999985099","127190.5","127906.89999999851","[""stimuli/BM03_HE.jpg"",""stimuli/AF10_FO.jpg"",""stimuli/WF06_SC.jpg"",""stimuli/HM07_AO.jpg""]","stimuli/BM03_HE.jpg","stimuli/AF10_FO.jpg","stimuli/WF06_SC.jpg","stimuli/HM07_AO.jpg","pos1","stimuli/BM03_HE.jpg","HE","BM03","0","5","10","8","stimuli/stars_10.png","99","[""HE"",""FO"",""SC"",""AO""]","[""BM03"",""AF10"",""WF06"",""HM07""]","[10,5,4,2]","[8,6,4,2]","","",""
"show-reward","58","128963","0.0-58.0","p884256","A2IQ0QCTQ3KWLT","3P888QFVX40Z2B7BK75OWKP045JQOK","3U4J9857OGH80JBHA5WXFT3VBS27BK","model","match","uniform","","","","","","","","128411.69999999925","130417.59999999776","","","","","","","","","","","","10","","stimuli/stars_10.png","99","","","","","stimuli/BM03_HE.jpg","",""
"explore-choice","59","130661","0.0-59.0","p884256","A2IQ0QCTQ3KWLT","3P888QFVX40Z2B7BK75OWKP045JQOK","3U4J9857OGH80JBHA5WXFT3VBS27BK","model","match","uniform","","","","","","","1193.699999999255","130418.19999999925","131611.8999999985","[""stimuli/HM07_HE.jpg"",""stimuli/WF06_SC.jpg"",""stimuli/AF10_AO.jpg"",""stimuli/BM03_FO.jpg""]","stimuli/HM07_HE.jpg","stimuli/WF06_SC.jpg","stimuli/AF10_AO.jpg","stimuli/BM03_FO.jpg","pos4","stimuli/BM03_FO.jpg","FO","BM03","3","3.5","7","8","stimuli/stars_7.png","102.5","[""HE"",""SC"",""AO"",""FO""]","[""HM07"",""WF06"",""AF10"",""BM03""]","[0,6,8,7]","[2,4,6,8]","","",""
"show-reward","60","132667","0.0-60.0","p884256","A2IQ0QCTQ3KWLT","3P888QFVX40Z2B7BK75OWKP045JQOK","3U4J9857OGH80JBHA5WXFT3VBS27BK","model","match","uniform","","","","","","","","132116.30000000075","134122.3999999985","","","","","","","","","","","","7","","stimuli/stars_7.png","102.5","","","","","stimuli/BM03_FO.jpg","",""
"explore-choice","61","135776","0.0-61.0","p884256","A2IQ0QCTQ3KWLT","3P888QFVX40Z2B7BK75OWKP045JQOK","3U4J9857OGH80JBHA5WXFT3VBS27BK","model","match","uniform","","","","","","","2603.2999999970198","134123.30000000075","136726.59999999776","[""stimuli/AF10_SC.jpg"",""stimuli/WF06_AO.jpg"",""stimuli/HM07_FO.jpg"",""stimuli/BM03_HE.jpg""]","stimuli/AF10_SC.jpg","stimuli/WF06_AO.jpg","stimuli/HM07_FO.jpg","stimuli/BM03_HE.jpg","pos4","stimuli/BM03_HE.jpg","HE","BM03","3","5","10","8","stimuli/stars_10.png","107.5","[""SC"",""AO"",""FO"",""HE""]","[""AF10"",""WF06"",""HM07"",""BM03""]","[7,3,1,10]","[6,4,2,8]","","",""
"show-reward","62","137779","0.0-62.0","p884256","A2IQ0QCTQ3KWLT","3P888QFVX40Z2B7BK75OWKP045JQOK","3U4J9857OGH80JBHA5WXFT3VBS27BK","model","match","uniform","","","","","","","","137231.69999999925","139233.80000000075","","","","","","","","","","","","10","","stimuli/stars_10.png","107.5","","","","","stimuli/BM03_HE.jpg","",""
"explore-choice","63","139104","0.0-63.0","p884256","A2IQ0QCTQ3KWLT","3P888QFVX40Z2B7BK75OWKP045JQOK","3U4J9857OGH80JBHA5WXFT3VBS27BK","model","match","uniform","","","","","","","823.3000000007451","139234.3999999985","140057.69999999925","[""stimuli/HM07_SC.jpg"",""stimuli/BM03_HE.jpg"",""stimuli/AF10_AO.jpg"",""stimuli/WF06_FO.jpg""]","stimuli/HM07_SC.jpg","stimuli/BM03_HE.jpg","stimuli/AF10_AO.jpg","stimuli/WF06_FO.jpg","pos2","stimuli/BM03_HE.jpg","HE","BM03","1","3.5","7","8","stimuli/stars_7.png","111","[""SC"",""HE"",""AO"",""FO""]","[""HM07"",""BM03"",""AF10"",""WF06""]","[0,7,4,2]","[2,8,6,4]","","",""
"show-reward","64","141107","0.0-64.0","p884256","A2IQ0QCTQ3KWLT","3P888QFVX40Z2B7BK75OWKP045JQOK","3U4J9857OGH80JBHA5WXFT3VBS27BK","model","match","uniform","","","","","","","","140559.5","142562","","","","","","","","","","","","7","","stimuli/stars_7.png","111","","","","","stimuli/BM03_HE.jpg","",""
"explore-choice","65","142658","0.0-65.0","p884256","A2IQ0QCTQ3KWLT","3P888QFVX40Z2B7BK75OWKP045JQOK","3U4J9857OGH80JBHA5WXFT3VBS27BK","model","match","uniform","","","","","","","1049.699999999255","142562.8999999985","143612.59999999776","[""stimuli/AF10_AO.jpg"",""stimuli/WF06_HE.jpg"",""stimuli/BM03_SC.jpg"",""stimuli/HM07_FO.jpg""]","stimuli/AF10_AO.jpg","stimuli/WF06_HE.jpg","stimuli/BM03_SC.jpg","stimuli/HM07_FO.jpg","pos3","stimuli/BM03_SC.jpg","SC","BM03","2","3","6","8","stimuli/stars_6.png","114","[""AO"",""HE"",""SC"",""FO""]","[""AF10"",""WF06"",""BM03"",""HM07""]","[6,4,6,1]","[6,4,8,2]","","",""
"show-reward","66","144663","0.0-66.0","p884256","A2IQ0QCTQ3KWLT","3P888QFVX40Z2B7BK75OWKP045JQOK","3U4J9857OGH80JBHA5WXFT3VBS27BK","model","match","uniform","","","","","","","","144114.19999999925","146118.3999999985","","","","","","","","","","","","6","","stimuli/stars_6.png","114","","","","","stimuli/BM03_SC.jpg","",""
"explore-choice","67","146603","0.0-67.0","p884256","A2IQ0QCTQ3KWLT","3P888QFVX40Z2B7BK75OWKP045JQOK","3U4J9857OGH80JBHA5WXFT3VBS27BK","model","match","uniform","","","","","","","1438.699999999255","146119.30000000075","147558","[""stimuli/HM07_HE.jpg"",""stimuli/AF10_AO.jpg"",""stimuli/WF06_FO.jpg"",""stimuli/BM03_SC.jpg""]","stimuli/HM07_HE.jpg","stimuli/AF10_AO.jpg","stimuli/WF06_FO.jpg","stimuli/BM03_SC.jpg","pos4","stimuli/BM03_SC.jpg","SC","BM03","3","4","8","8","stimuli/stars_8.png","118","[""HE"",""AO"",""FO"",""SC""]","[""HM07"",""AF10"",""WF06"",""BM03""]","[0,4,3,8]","[2,6,4,8]","","",""
"show-reward","68","148607","0.0-68.0","p884256","A2IQ0QCTQ3KWLT","3P888QFVX40Z2B7BK75OWKP045JQOK","3U4J9857OGH80JBHA5WXFT3VBS27BK","model","match","uniform","","","","","","","","148059.5","150062.19999999925","","","","","","","","","","","","8","","stimuli/stars_8.png","118","","","","","stimuli/BM03_SC.jpg","",""
"explore-choice","69","149935","0.0-69.0","p884256","A2IQ0QCTQ3KWLT","3P888QFVX40Z2B7BK75OWKP045JQOK","3U4J9857OGH80JBHA5WXFT3VBS27BK","model","match","uniform","","","","","","","825.3000000007451","150063.09999999776","150888.3999999985","[""stimuli/BM03_HE.jpg"",""stimuli/WF06_FO.jpg"",""stimuli/HM07_AO.jpg"",""stimuli/AF10_SC.jpg""]","stimuli/BM03_HE.jpg","stimuli/WF06_FO.jpg","stimuli/HM07_AO.jpg","stimuli/AF10_SC.jpg","pos1","stimuli/BM03_HE.jpg","HE","BM03","0","3.5","7","8","stimuli/stars_7.png","121.5","[""HE"",""FO"",""AO"",""SC""]","[""BM03"",""WF06"",""HM07"",""AF10""]","[7,6,2,5]","[8,4,2,6]","","",""
"show-reward","70","151939","0.0-70.0","p884256","A2IQ0QCTQ3KWLT","3P888QFVX40Z2B7BK75OWKP045JQOK","3U4J9857OGH80JBHA5WXFT3VBS27BK","model","match","uniform","","","","","","","","151390.8999999985","153394.3999999985","","","","","","","","","","","","7","","stimuli/stars_7.png","121.5","","","","","stimuli/BM03_HE.jpg","",""
"explore-choice","71","153132","0.0-71.0","p884256","A2IQ0QCTQ3KWLT","3P888QFVX40Z2B7BK75OWKP045JQOK","3U4J9857OGH80JBHA5WXFT3VBS27BK","model","match","uniform","","","","","","","688.7000000029802","153395.09999999776","154083.80000000075","[""stimuli/BM03_FO.jpg"",""stimuli/WF06_HE.jpg"",""stimuli/HM07_SC.jpg"",""stimuli/AF10_AO.jpg""]","stimuli/BM03_FO.jpg","stimuli/WF06_HE.jpg","stimuli/HM07_SC.jpg","stimuli/AF10_AO.jpg","pos1","stimuli/BM03_FO.jpg","FO","BM03","0","4","8","8","stimuli/stars_8.png","125.5","[""FO"",""HE"",""SC"",""AO""]","[""BM03"",""WF06"",""HM07"",""AF10""]","[8,2,1,4]","[8,4,2,6]","","",""
"show-reward","72","155135","0.0-72.0","p884256","A2IQ0QCTQ3KWLT","3P888QFVX40Z2B7BK75OWKP045JQOK","3U4J9857OGH80JBHA5WXFT3VBS27BK","model","match","uniform","","","","","","","","154588.19999999925","156590.30000000075","","","","","","","","","","","","8","","stimuli/stars_8.png","125.5","","","","","stimuli/BM03_FO.jpg","",""
"explore-choice","73","156504","0.0-73.0","p884256","A2IQ0QCTQ3KWLT","3P888QFVX40Z2B7BK75OWKP045JQOK","3U4J9857OGH80JBHA5WXFT3VBS27BK","model","match","uniform","","","","","","","866.7999999970198","156591.30000000075","157458.09999999776","[""stimuli/AF10_SC.jpg"",""stimuli/HM07_HE.jpg"",""stimuli/WF06_AO.jpg"",""stimuli/BM03_FO.jpg""]","stimuli/AF10_SC.jpg","stimuli/HM07_HE.jpg","stimuli/WF06_AO.jpg","stimuli/BM03_FO.jpg","pos4","stimuli/BM03_FO.jpg","FO","BM03","3","4","8","8","stimuli/stars_8.png","129.5","[""SC"",""HE"",""AO"",""FO""]","[""AF10"",""HM07"",""WF06"",""BM03""]","[5,2,5,8]","[6,2,4,8]","","",""
"show-reward","74","158507","0.0-74.0","p884256","A2IQ0QCTQ3KWLT","3P888QFVX40Z2B7BK75OWKP045JQOK","3U4J9857OGH80JBHA5WXFT3VBS27BK","model","match","uniform","","","","","","","","157960","159962.5","","","","","","","","","","","","8","","stimuli/stars_8.png","129.5","","","","","stimuli/BM03_FO.jpg","",""
"explore-choice","75","159686","0.0-75.0","p884256","A2IQ0QCTQ3KWLT","3P888QFVX40Z2B7BK75OWKP045JQOK","3U4J9857OGH80JBHA5WXFT3VBS27BK","model","match","uniform","","","","","","","675.1000000014901","159963.3999999985","160638.5","[""stimuli/WF06_SC.jpg"",""stimuli/HM07_AO.jpg"",""stimuli/AF10_HE.jpg"",""stimuli/BM03_FO.jpg""]","stimuli/WF06_SC.jpg","stimuli/HM07_AO.jpg","stimuli/AF10_HE.jpg","stimuli/BM03_FO.jpg","pos4","stimuli/BM03_FO.jpg","FO","BM03","3","4.5","9","8","stimuli/stars_9.png","134","[""SC"",""AO"",""HE"",""FO""]","[""WF06"",""HM07"",""AF10"",""BM03""]","[6,4,6,9]","[4,2,6,8]","","",""
"show-reward","76","161689","0.0-76.0","p884256","A2IQ0QCTQ3KWLT","3P888QFVX40Z2B7BK75OWKP045JQOK","3U4J9857OGH80JBHA5WXFT3VBS27BK","model","match","uniform","","","","","","","","161142.8999999985","163145.09999999776","","","","","","","","","","","","9","","stimuli/stars_9.png","134","","","","","stimuli/BM03_FO.jpg","",""
"explore-choice","77","162999","0.0-77.0","p884256","A2IQ0QCTQ3KWLT","3P888QFVX40Z2B7BK75OWKP045JQOK","3U4J9857OGH80JBHA5WXFT3VBS27BK","model","match","uniform","","","","","","","808.0999999977648","163146","163954.09999999776","[""stimuli/AF10_HE.jpg"",""stimuli/BM03_SC.jpg"",""stimuli/WF06_AO.jpg"",""stimuli/HM07_FO.jpg""]","stimuli/AF10_HE.jpg","stimuli/BM03_SC.jpg","stimuli/WF06_AO.jpg","stimuli/HM07_FO.jpg","pos2","stimuli/BM03_SC.jpg","SC","BM03","1","3","6","8","stimuli/stars_6.png","137","[""HE"",""SC"",""AO"",""FO""]","[""AF10"",""BM03"",""WF06"",""HM07""]","[4,6,3,3]","[6,8,4,2]","","",""
"show-reward","78","165003","0.0-78.0","p884256","A2IQ0QCTQ3KWLT","3P888QFVX40Z2B7BK75OWKP045JQOK","3U4J9857OGH80JBHA5WXFT3VBS27BK","model","match","uniform","","","","","","","","164455.5","166458.3999999985","","","","","","","","","","","","6","","stimuli/stars_6.png","137","","","","","stimuli/BM03_SC.jpg","",""
"explore-choice","79","166630","0.0-79.0","p884256","A2IQ0QCTQ3KWLT","3P888QFVX40Z2B7BK75OWKP045JQOK","3U4J9857OGH80JBHA5WXFT3VBS27BK","model","match","uniform","","","","","","","1125.5","166459.09999999776","167584.59999999776","[""stimuli/HM07_SC.jpg"",""stimuli/BM03_HE.jpg"",""stimuli/WF06_AO.jpg"",""stimuli/AF10_FO.jpg""]","stimuli/HM07_SC.jpg","stimuli/BM03_HE.jpg","stimuli/WF06_AO.jpg","stimuli/AF10_FO.jpg","pos2","stimuli/BM03_HE.jpg","HE","BM03","1","3.5","7","8","stimuli/stars_7.png","140.5","[""SC"",""HE"",""AO"",""FO""]","[""HM07"",""BM03"",""WF06"",""AF10""]","[4,7,3,5]","[2,8,4,6]","","",""
"show-reward","80","168635","0.0-80.0","p884256","A2IQ0QCTQ3KWLT","3P888QFVX40Z2B7BK75OWKP045JQOK","3U4J9857OGH80JBHA5WXFT3VBS27BK","model","match","uniform","","","","","","","","168086.59999999776","170090.3999999985","","","","","","","","","","","","7","","stimuli/stars_7.png","140.5","","","","","stimuli/BM03_HE.jpg","",""
"explore-choice","81","170784","0.0-81.0","p884256","A2IQ0QCTQ3KWLT","3P888QFVX40Z2B7BK75OWKP045JQOK","3U4J9857OGH80JBHA5WXFT3VBS27BK","model","match","uniform","","","","","","","1648.6000000014901","170091.19999999925","171739.80000000075","[""stimuli/WF06_AO.jpg"",""stimuli/AF10_FO.jpg"",""stimuli/HM07_HE.jpg"",""stimuli/BM03_SC.jpg""]","stimuli/WF06_AO.jpg","stimuli/AF10_FO.jpg","stimuli/HM07_HE.jpg","stimuli/BM03_SC.jpg","pos4","stimuli/BM03_SC.jpg","SC","BM03","3","5","10","8","stimuli/stars_10.png","145.5","[""AO"",""FO"",""HE"",""SC""]","[""WF06"",""AF10"",""HM07"",""BM03""]","[4,8,3,10]","[4,6,2,8]","","",""
"show-reward","82","172791","0.0-82.0","p884256","A2IQ0QCTQ3KWLT","3P888QFVX40Z2B7BK75OWKP045JQOK","3U4J9857OGH80JBHA5WXFT3VBS27BK","model","match","uniform","","","","","","","","172240.8999999985","174246.3999999985","","","","","","","","","","","","10","","stimuli/stars_10.png","145.5","","","","","stimuli/BM03_SC.jpg","",""
"explore-choice","83","174146","0.0-83.0","p884256","A2IQ0QCTQ3KWLT","3P888QFVX40Z2B7BK75OWKP045JQOK","3U4J9857OGH80JBHA5WXFT3VBS27BK","model","match","uniform","","","","","","","852.8999999985099","174247.30000000075","175100.19999999925","[""stimuli/BM03_FO.jpg"",""stimuli/HM07_SC.jpg"",""stimuli/WF06_AO.jpg"",""stimuli/AF10_HE.jpg""]","stimuli/BM03_FO.jpg","stimuli/HM07_SC.jpg","stimuli/WF06_AO.jpg","stimuli/AF10_HE.jpg","pos1","stimuli/BM03_FO.jpg","FO","BM03","0","4.5","9","8","stimuli/stars_9.png","150","[""FO"",""SC"",""AO"",""HE""]","[""BM03"",""HM07"",""WF06"",""AF10""]","[9,0,6,5]","[8,2,4,6]","","",""
"show-reward","84","176151","0.0-84.0","p884256","A2IQ0QCTQ3KWLT","3P888QFVX40Z2B7BK75OWKP045JQOK","3U4J9857OGH80JBHA5WXFT3VBS27BK","model","match","uniform","","","","","","","","175602.8999999985","177606.8999999985","","","","","","","","","","","","9","","stimuli/stars_9.png","150","","","","","stimuli/BM03_FO.jpg","",""
"explore-choice","85","177462","0.0-85.0","p884256","A2IQ0QCTQ3KWLT","3P888QFVX40Z2B7BK75OWKP045JQOK","3U4J9857OGH80JBHA5WXFT3VBS27BK","model","match","uniform","","","","","","","806.2999999970198","177607.80000000075","178414.09999999776","[""stimuli/AF10_SC.jpg"",""stimuli/BM03_FO.jpg"",""stimuli/HM07_AO.jpg"",""stimuli/WF06_HE.jpg""]","stimuli/AF10_SC.jpg","stimuli/BM03_FO.jpg","stimuli/HM07_AO.jpg","stimuli/WF06_HE.jpg","pos2","stimuli/BM03_FO.jpg","FO","BM03","1","4.5","9","8","stimuli/stars_9.png","154.5","[""SC"",""FO"",""AO"",""HE""]","[""AF10"",""BM03"",""HM07"",""WF06""]","[4,9,2,6]","[6,8,2,4]","","",""
"show-reward","86","179467","0.0-86.0","p884256","A2IQ0QCTQ3KWLT","3P888QFVX40Z2B7BK75OWKP045JQOK","3U4J9857OGH80JBHA5WXFT3VBS27BK","model","match","uniform","","","","","","","","178919.09999999776","180922.5","","","","","","","","","","","","9","","stimuli/stars_9.png","154.5","","","","","stimuli/BM03_FO.jpg","",""
"explore-choice","87","180687","0.0-87.0","p884256","A2IQ0QCTQ3KWLT","3P888QFVX40Z2B7BK75OWKP045JQOK","3U4J9857OGH80JBHA5WXFT3VBS27BK","model","match","uniform","","","","","","","716.8000000007451","180923.3999999985","181640.19999999925","[""stimuli/HM07_FO.jpg"",""stimuli/BM03_HE.jpg"",""stimuli/AF10_AO.jpg"",""stimuli/WF06_SC.jpg""]","stimuli/HM07_FO.jpg","stimuli/BM03_HE.jpg","stimuli/AF10_AO.jpg","stimuli/WF06_SC.jpg","pos2","stimuli/BM03_HE.jpg","HE","BM03","1","5","10","8","stimuli/stars_10.png","159.5","[""FO"",""HE"",""AO"",""SC""]","[""HM07"",""BM03"",""AF10"",""WF06""]","[0,10,4,5]","[2,8,6,4]","","",""
"show-reward","88","182694","0.0-88.0","p884256","A2IQ0QCTQ3KWLT","3P888QFVX40Z2B7BK75OWKP045JQOK","3U4J9857OGH80JBHA5WXFT3VBS27BK","model","match","uniform","","","","","","","","182143.69999999925","184149.69999999925","","","","","","","","","","","","10","","stimuli/stars_10.png","159.5","","","","","stimuli/BM03_HE.jpg","",""
"explore-choice","89","184198","0.0-89.0","p884256","A2IQ0QCTQ3KWLT","3P888QFVX40Z2B7BK75OWKP045JQOK","3U4J9857OGH80JBHA5WXFT3VBS27BK","model","match","uniform","","","","","","","999","184150.80000000075","185149.80000000075","[""stimuli/BM03_SC.jpg"",""stimuli/HM07_AO.jpg"",""stimuli/WF06_FO.jpg"",""stimuli/AF10_HE.jpg""]","stimuli/BM03_SC.jpg","stimuli/HM07_AO.jpg","stimuli/WF06_FO.jpg","stimuli/AF10_HE.jpg","pos1","stimuli/BM03_SC.jpg","SC","BM03","0","3","6","8","stimuli/stars_6.png","162.5","[""SC"",""AO"",""FO"",""HE""]","[""BM03"",""HM07"",""WF06"",""AF10""]","[6,3,5,7]","[8,2,4,6]","","",""
"show-reward","90","186202","0.0-90.0","p884256","A2IQ0QCTQ3KWLT","3P888QFVX40Z2B7BK75OWKP045JQOK","3U4J9857OGH80JBHA5WXFT3VBS27BK","model","match","uniform","","","","","","","","185655.30000000075","187658.5","","","","","","","","","","","","6","","stimuli/stars_6.png","162.5","","","","","stimuli/BM03_SC.jpg","",""
"explore-choice","91","187795","0.0-91.0","p884256","A2IQ0QCTQ3KWLT","3P888QFVX40Z2B7BK75OWKP045JQOK","3U4J9857OGH80JBHA5WXFT3VBS27BK","model","match","uniform","","","","","","","1091.6000000014901","187659.3999999985","188751","[""stimuli/HM07_SC.jpg"",""stimuli/AF10_HE.jpg"",""stimuli/BM03_AO.jpg"",""stimuli/WF06_FO.jpg""]","stimuli/HM07_SC.jpg","stimuli/AF10_HE.jpg","stimuli/BM03_AO.jpg","stimuli/WF06_FO.jpg","pos3","stimuli/BM03_AO.jpg","AO","BM03","2","3","6","8","stimuli/stars_6.png","165.5","[""SC"",""HE"",""AO"",""FO""]","[""HM07"",""AF10"",""BM03"",""WF06""]","[0,7,6,6]","[2,6,8,4]","","",""
"show-reward","92","189802","0.0-92.0","p884256","A2IQ0QCTQ3KWLT","3P888QFVX40Z2B7BK75OWKP045JQOK","3U4J9857OGH80JBHA5WXFT3VBS27BK","model","match","uniform","","","","","","","","189252.19999999925","191258.5","","","","","","","","","","","","6","","stimuli/stars_6.png","165.5","","","","","stimuli/BM03_AO.jpg","",""
"explore-choice","93","191262","0.0-93.0","p884256","A2IQ0QCTQ3KWLT","3P888QFVX40Z2B7BK75OWKP045JQOK","3U4J9857OGH80JBHA5WXFT3VBS27BK","model","match","uniform","","","","","","","956.8000000007451","191259.19999999925","192216","[""stimuli/BM03_AO.jpg"",""stimuli/AF10_FO.jpg"",""stimuli/HM07_HE.jpg"",""stimuli/WF06_SC.jpg""]","stimuli/BM03_AO.jpg","stimuli/AF10_FO.jpg","stimuli/HM07_HE.jpg","stimuli/WF06_SC.jpg","pos1","stimuli/BM03_AO.jpg","AO","BM03","0","4","8","8","stimuli/stars_8.png","169.5","[""AO"",""FO"",""HE"",""SC""]","[""BM03"",""AF10"",""HM07"",""WF06""]","[8,8,0,5]","[8,6,2,4]","","",""
"show-reward","94","193266","0.0-94.0","p884256","A2IQ0QCTQ3KWLT","3P888QFVX40Z2B7BK75OWKP045JQOK","3U4J9857OGH80JBHA5WXFT3VBS27BK","model","match","uniform","","","","","","","","192718.8999999985","194722.3999999985","","","","","","","","","","","","8","","stimuli/stars_8.png","169.5","","","","","stimuli/BM03_AO.jpg","",""
"explore-choice","95","194502","0.0-95.0","p884256","A2IQ0QCTQ3KWLT","3P888QFVX40Z2B7BK75OWKP045JQOK","3U4J9857OGH80JBHA5WXFT3VBS27BK","model","match","uniform","","","","","","","732.8999999985099","194723","195455.8999999985","[""stimuli/WF06_SC.jpg"",""stimuli/BM03_AO.jpg"",""stimuli/AF10_HE.jpg"",""stimuli/HM07_FO.jpg""]","stimuli/WF06_SC.jpg","stimuli/BM03_AO.jpg","stimuli/AF10_HE.jpg","stimuli/HM07_FO.jpg","pos2","stimuli/BM03_AO.jpg","AO","BM03","1","4.5","9","8","stimuli/stars_9.png","174","[""SC"",""AO"",""HE"",""FO""]","[""WF06"",""BM03"",""AF10"",""HM07""]","[2,9,5,4]","[4,8,6,2]","","",""
"show-reward","96","196505","0.0-96.0","p884256","A2IQ0QCTQ3KWLT","3P888QFVX40Z2B7BK75OWKP045JQOK","3U4J9857OGH80JBHA5WXFT3VBS27BK","model","match","uniform","","","","","","","","195959.5","197961.80000000075","","","","","","","","","","","","9","","stimuli/stars_9.png","174","","","","","stimuli/BM03_AO.jpg","",""
"explore-choice","97","197802","0.0-97.0","p884256","A2IQ0QCTQ3KWLT","3P888QFVX40Z2B7BK75OWKP045JQOK","3U4J9857OGH80JBHA5WXFT3VBS27BK","model","match","uniform","","","","","","","793.5","197962.59999999776","198756.09999999776","[""stimuli/BM03_AO.jpg"",""stimuli/WF06_HE.jpg"",""stimuli/AF10_SC.jpg"",""stimuli/HM07_FO.jpg""]","stimuli/BM03_AO.jpg","stimuli/WF06_HE.jpg","stimuli/AF10_SC.jpg","stimuli/HM07_FO.jpg","pos1","stimuli/BM03_AO.jpg","AO","BM03","0","5","10","8","stimuli/stars_10.png","179","[""AO"",""HE"",""SC"",""FO""]","[""BM03"",""WF06"",""AF10"",""HM07""]","[10,6,4,4]","[8,4,6,2]","","",""
"show-reward","98","199805","0.0-98.0","p884256","A2IQ0QCTQ3KWLT","3P888QFVX40Z2B7BK75OWKP045JQOK","3U4J9857OGH80JBHA5WXFT3VBS27BK","model","match","uniform","","","","","","","","199259.5","201261.8999999985","","","","","","","","","","","","10","","stimuli/stars_10.png","179","","","","","stimuli/BM03_AO.jpg","",""
"explore-choice","99","201010","0.0-99.0","p884256","A2IQ0QCTQ3KWLT","3P888QFVX40Z2B7BK75OWKP045JQOK","3U4J9857OGH80JBHA5WXFT3VBS27BK","model","match","uniform","","","","","","","703.6999999992549","201262.69999999925","201966.3999999985","[""stimuli/BM03_AO.jpg"",""stimuli/WF06_FO.jpg"",""stimuli/HM07_HE.jpg"",""stimuli/AF10_SC.jpg""]","stimuli/BM03_AO.jpg","stimuli/WF06_FO.jpg","stimuli/HM07_HE.jpg","stimuli/AF10_SC.jpg","pos1","stimuli/BM03_AO.jpg","AO","BM03","0","3","6","8","stimuli/stars_6.png","182","[""AO"",""FO"",""HE"",""SC""]","[""BM03"",""WF06"",""HM07"",""AF10""]","[6,5,0,4]","[8,4,2,6]","","",""
"show-reward","100","203013","0.0-100.0","p884256","A2IQ0QCTQ3KWLT","3P888QFVX40Z2B7BK75OWKP045JQOK","3U4J9857OGH80JBHA5WXFT3VBS27BK","model","match","uniform","","","","","","","","202467.5","204469.80000000075","","","","","","","","","","","","6","","stimuli/stars_6.png","182","","","","","stimuli/BM03_AO.jpg","",""
"explore-choice","101","204310","0.0-101.0","p884256","A2IQ0QCTQ3KWLT","3P888QFVX40Z2B7BK75OWKP045JQOK","3U4J9857OGH80JBHA5WXFT3VBS27BK","model","match","uniform","","","","","","","796","204470.59999999776","205266.59999999776","[""stimuli/HM07_AO.jpg"",""stimuli/BM03_SC.jpg"",""stimuli/WF06_HE.jpg"",""stimuli/AF10_FO.jpg""]","stimuli/HM07_AO.jpg","stimuli/BM03_SC.jpg","stimuli/WF06_HE.jpg","stimuli/AF10_FO.jpg","pos2","stimuli/BM03_SC.jpg","SC","BM03","1","4","8","8","stimuli/stars_8.png","186","[""AO"",""SC"",""HE"",""FO""]","[""HM07"",""BM03"",""WF06"",""AF10""]","[4,8,4,6]","[2,8,4,6]","","",""
"show-reward","102","206314","0.0-102.0","p884256","A2IQ0QCTQ3KWLT","3P888QFVX40Z2B7BK75OWKP045JQOK","3U4J9857OGH80JBHA5WXFT3VBS27BK","model","match","uniform","","","","","","","","205767.59999999776","207770.3999999985","","","","","","","","","","","","8","","stimuli/stars_8.png","186","","","","","stimuli/BM03_SC.jpg","",""
"explore-choice","103","209066","0.0-103.0","p884256","A2IQ0QCTQ3KWLT","3P888QFVX40Z2B7BK75OWKP045JQOK","3U4J9857OGH80JBHA5WXFT3VBS27BK","model","match","uniform","","","","","","","2250.7000000029802","207771.09999999776","210021.80000000075","[""stimuli/BF04_CC.jpg"",""stimuli/HF02_SUR.jpg"",""stimuli/HM02_DO.jpg"",""stimuli/BM04_HO.jpg""]","stimuli/BF04_CC.jpg","stimuli/HF02_SUR.jpg","stimuli/HM02_DO.jpg","stimuli/BM04_HO.jpg","pos4","stimuli/BM04_HO.jpg","HO","BM04","3","0.5","1","2","stimuli/stars_1.png","186.5","[""CC"",""SUR"",""DO"",""HO""]","[""BF04"",""HF02"",""HM02"",""BM04""]","[8,6,8,1]","[8,4,6,2]","","",""
"show-reward","104","211074","0.0-104.0","p884256","A2IQ0QCTQ3KWLT","3P888QFVX40Z2B7BK75OWKP045JQOK","3U4J9857OGH80JBHA5WXFT3VBS27BK","model","match","uniform","","","","","","","","210524","212530.30000000075","","","","","","","","","","","","1","","stimuli/stars_1.png","186.5","","","","","stimuli/BM04_HO.jpg","",""
"explore-choice","105","213373","0.0-105.0","p884256","A2IQ0QCTQ3KWLT","3P888QFVX40Z2B7BK75OWKP045JQOK","3U4J9857OGH80JBHA5WXFT3VBS27BK","model","match","uniform","","","","","","","1795.699999999255","212531.19999999925","214326.8999999985","[""stimuli/HM02_SUR.jpg"",""stimuli/HF02_CC.jpg"",""stimuli/BF04_HO.jpg"",""stimuli/BM04_DO.jpg""]","stimuli/HM02_SUR.jpg","stimuli/HF02_CC.jpg","stimuli/BF04_HO.jpg","stimuli/BM04_DO.jpg","pos3","stimuli/BF04_HO.jpg","HO","BF04","2","3.5","7","8","stimuli/stars_7.png","190","[""SUR"",""CC"",""HO"",""DO""]","[""HM02"",""HF02"",""BF04"",""BM04""]","[8,5,7,3]","[6,4,8,2]","","",""
"show-reward","106","215377","0.0-106.0","p884256","A2IQ0QCTQ3KWLT","3P888QFVX40Z2B7BK75OWKP045JQOK","3U4J9857OGH80JBHA5WXFT3VBS27BK","model","match","uniform","","","","","","","","214830.30000000075","216834.3999999985","","","","","","","","","","","","7","","stimuli/stars_7.png","190","","","","","stimuli/BF04_HO.jpg","",""
"explore-choice","107","217435","0.0-107.0","p884256","A2IQ0QCTQ3KWLT","3P888QFVX40Z2B7BK75OWKP045JQOK","3U4J9857OGH80JBHA5WXFT3VBS27BK","model","match","uniform","","","","","","","1556.5999999977648","216835.30000000075","218391.8999999985","[""stimuli/HF02_SUR.jpg"",""stimuli/BF04_DO.jpg"",""stimuli/BM04_HO.jpg"",""stimuli/HM02_CC.jpg""]","stimuli/HF02_SUR.jpg","stimuli/BF04_DO.jpg","stimuli/BM04_HO.jpg","stimuli/HM02_CC.jpg","pos2","stimuli/BF04_DO.jpg","DO","BF04","1","4","8","8","stimuli/stars_8.png","194","[""SUR"",""DO"",""HO"",""CC""]","[""HF02"",""BF04"",""BM04"",""HM02""]","[3,8,1,4]","[4,8,2,6]","","",""
"show-reward","108","219440","0.0-108.0","p884256","A2IQ0QCTQ3KWLT","3P888QFVX40Z2B7BK75OWKP045JQOK","3U4J9857OGH80JBHA5WXFT3VBS27BK","model","match","uniform","","","","","","","","218893.3999999985","220896.5","","","","","","","","","","","","8","","stimuli/stars_8.png","194","","","","","stimuli/BF04_DO.jpg","",""
"explore-choice","109","223169","0.0-109.0","p884256","A2IQ0QCTQ3KWLT","3P888QFVX40Z2B7BK75OWKP045JQOK","3U4J9857OGH80JBHA5WXFT3VBS27BK","model","match","uniform","","","","","","","3225.800000000745","220897.3999999985","224123.19999999925","[""stimuli/BM04_DO.jpg"",""stimuli/HF02_SUR.jpg"",""stimuli/BF04_HO.jpg"",""stimuli/HM02_CC.jpg""]","stimuli/BM04_DO.jpg","stimuli/HF02_SUR.jpg","stimuli/BF04_HO.jpg","stimuli/HM02_CC.jpg","pos3","stimuli/BF04_HO.jpg","HO","BF04","2","3","6","8","stimuli/stars_6.png","197","[""DO"",""SUR"",""HO"",""CC""]","[""BM04"",""HF02"",""BF04"",""HM02""]","[2,5,6,4]","[2,4,8,6]","","",""
"show-reward","110","225173","0.0-110.0","p884256","A2IQ0QCTQ3KWLT","3P888QFVX40Z2B7BK75OWKP045JQOK","3U4J9857OGH80JBHA5WXFT3VBS27BK","model","match","uniform","","","","","","","","224627","226630.3999999985","","","","","","","","","","","","6","","stimuli/stars_6.png","197","","","","","stimuli/BF04_HO.jpg","",""
"explore-choice","111","226993","0.0-111.0","p884256","A2IQ0QCTQ3KWLT","3P888QFVX40Z2B7BK75OWKP045JQOK","3U4J9857OGH80JBHA5WXFT3VBS27BK","model","match","uniform","","","","","","","1317.199999999255","226631.30000000075","227948.5","[""stimuli/HM02_DO.jpg"",""stimuli/BM04_CC.jpg"",""stimuli/HF02_HO.jpg"",""stimuli/BF04_SUR.jpg""]","stimuli/HM02_DO.jpg","stimuli/BM04_CC.jpg","stimuli/HF02_HO.jpg","stimuli/BF04_SUR.jpg","pos4","stimuli/BF04_SUR.jpg","SUR","BF04","3","4","8","8","stimuli/stars_8.png","201","[""DO"",""CC"",""HO"",""SUR""]","[""HM02"",""BM04"",""HF02"",""BF04""]","[4,0,5,8]","[6,2,4,8]","","",""
"show-reward","112","228997","0.0-112.0","p884256","A2IQ0QCTQ3KWLT","3P888QFVX40Z2B7BK75OWKP045JQOK","3U4J9857OGH80JBHA5WXFT3VBS27BK","model","match","uniform","","","","","","","","228451.59999999776","230454.3999999985","","","","","","","","","","","","8","","stimuli/stars_8.png","201","","","","","stimuli/BF04_SUR.jpg","",""
"explore-choice","113","230849","0.0-113.0","p884256","A2IQ0QCTQ3KWLT","3P888QFVX40Z2B7BK75OWKP045JQOK","3U4J9857OGH80JBHA5WXFT3VBS27BK","model","match","uniform","","","","","","","1348.5","230455.30000000075","231803.80000000075","[""stimuli/HF02_SUR.jpg"",""stimuli/HM02_HO.jpg"",""stimuli/BF04_DO.jpg"",""stimuli/BM04_CC.jpg""]","stimuli/HF02_SUR.jpg","stimuli/HM02_HO.jpg","stimuli/BF04_DO.jpg","stimuli/BM04_CC.jpg","pos3","stimuli/BF04_DO.jpg","DO","BF04","2","3","6","8","stimuli/stars_6.png","204","[""SUR"",""HO"",""DO"",""CC""]","[""HF02"",""HM02"",""BF04"",""BM04""]","[3,5,6,4]","[4,6,8,2]","","",""
"show-reward","114","232853","0.0-114.0","p884256","A2IQ0QCTQ3KWLT","3P888QFVX40Z2B7BK75OWKP045JQOK","3U4J9857OGH80JBHA5WXFT3VBS27BK","model","match","uniform","","","","","","","","232307.59999999776","234310.30000000075","","","","","","","","","","","","6","","stimuli/stars_6.png","204","","","","","stimuli/BF04_DO.jpg","",""
"explore-choice","115","236007","0.0-115.0","p884256","A2IQ0QCTQ3KWLT","3P888QFVX40Z2B7BK75OWKP045JQOK","3U4J9857OGH80JBHA5WXFT3VBS27BK","model","match","uniform","","","","","","","2652.89999999851","234311.30000000075","236964.19999999925","[""stimuli/BM04_SUR.jpg"",""stimuli/BF04_DO.jpg"",""stimuli/HF02_HO.jpg"",""stimuli/HM02_CC.jpg""]","stimuli/BM04_SUR.jpg","stimuli/BF04_DO.jpg","stimuli/HF02_HO.jpg","stimuli/HM02_CC.jpg","pos2","stimuli/BF04_DO.jpg","DO","BF04","1","4","8","8","stimuli/stars_8.png","208","[""SUR"",""DO"",""HO"",""CC""]","[""BM04"",""BF04"",""HF02"",""HM02""]","[2,8,5,4]","[2,8,4,6]","","",""
"show-reward","116","238010","0.0-116.0","p884256","A2IQ0QCTQ3KWLT","3P888QFVX40Z2B7BK75OWKP045JQOK","3U4J9857OGH80JBHA5WXFT3VBS27BK","model","match","uniform","","","","","","","","237465.5","239467.30000000075","","","","","","","","","","","","8","","stimuli/stars_8.png","208","","","","","stimuli/BF04_DO.jpg","",""
"explore-choice","117","239745","0.0-117.0","p884256","A2IQ0QCTQ3KWLT","3P888QFVX40Z2B7BK75OWKP045JQOK","3U4J9857OGH80JBHA5WXFT3VBS27BK","model","match","uniform","","","","","","","1230.800000000745","239468.19999999925","240699","[""stimuli/HM02_CC.jpg"",""stimuli/BM04_DO.jpg"",""stimuli/BF04_SUR.jpg"",""stimuli/HF02_HO.jpg""]","stimuli/HM02_CC.jpg","stimuli/BM04_DO.jpg","stimuli/BF04_SUR.jpg","stimuli/HF02_HO.jpg","pos3","stimuli/BF04_SUR.jpg","SUR","BF04","2","4","8","8","stimuli/stars_8.png","212","[""CC"",""DO"",""SUR"",""HO""]","[""HM02"",""BM04"",""BF04"",""HF02""]","[7,4,8,5]","[6,2,8,4]","","",""
"show-reward","118","241747","0.0-118.0","p884256","A2IQ0QCTQ3KWLT","3P888QFVX40Z2B7BK75OWKP045JQOK","3U4J9857OGH80JBHA5WXFT3VBS27BK","model","match","uniform","","","","","","","","241202.80000000075","243204.19999999925","","","","","","","","","","","","8","","stimuli/stars_8.png","212","","","","","stimuli/BF04_SUR.jpg","",""
"explore-choice","119","243102","0.0-119.0","p884256","A2IQ0QCTQ3KWLT","3P888QFVX40Z2B7BK75OWKP045JQOK","3U4J9857OGH80JBHA5WXFT3VBS27BK","model","match","uniform","","","","","","","854.6999999992549","243204.8999999985","244059.59999999776","[""stimuli/BM04_HO.jpg"",""stimuli/HM02_DO.jpg"",""stimuli/BF04_SUR.jpg"",""stimuli/HF02_CC.jpg""]","stimuli/BM04_HO.jpg","stimuli/HM02_DO.jpg","stimuli/BF04_SUR.jpg","stimuli/HF02_CC.jpg","pos3","stimuli/BF04_SUR.jpg","SUR","BF04","2","4","8","8","stimuli/stars_8.png","216","[""HO"",""DO"",""SUR"",""CC""]","[""BM04"",""HM02"",""BF04"",""HF02""]","[3,8,8,3]","[2,6,8,4]","","",""
"show-reward","120","245105","0.0-120.0","p884256","A2IQ0QCTQ3KWLT","3P888QFVX40Z2B7BK75OWKP045JQOK","3U4J9857OGH80JBHA5WXFT3VBS27BK","model","match","uniform","","","","","","","","244560.69999999925","246562.59999999776","","","","","","","","","","","","8","","stimuli/stars_8.png","216","","","","","stimuli/BF04_SUR.jpg","",""
"explore-choice","121","249178","0.0-121.0","p884256","A2IQ0QCTQ3KWLT","3P888QFVX40Z2B7BK75OWKP045JQOK","3U4J9857OGH80JBHA5WXFT3VBS27BK","model","match","uniform","","","","","","","3571.10000000149","246563.3999999985","250134.5","[""stimuli/BM04_SUR.jpg"",""stimuli/BF04_HO.jpg"",""stimuli/HM02_CC.jpg"",""stimuli/HF02_DO.jpg""]","stimuli/BM04_SUR.jpg","stimuli/BF04_HO.jpg","stimuli/HM02_CC.jpg","stimuli/HF02_DO.jpg","pos2","stimuli/BF04_HO.jpg","HO","BF04","1","4.5","9","8","stimuli/stars_9.png","220.5","[""SUR"",""HO"",""CC"",""DO""]","[""BM04"",""BF04"",""HM02"",""HF02""]","[1,9,5,5]","[2,8,6,4]","","",""
"show-reward","122","251181","0.0-122.0","p884256","A2IQ0QCTQ3KWLT","3P888QFVX40Z2B7BK75OWKP045JQOK","3U4J9857OGH80JBHA5WXFT3VBS27BK","model","match","uniform","","","","","","","","250636.80000000075","252638.59999999776","","","","","","","","","","","","9","","stimuli/stars_9.png","220.5","","","","","stimuli/BF04_HO.jpg","",""
"explore-choice","123","252913","0.0-123.0","p884256","A2IQ0QCTQ3KWLT","3P888QFVX40Z2B7BK75OWKP045JQOK","3U4J9857OGH80JBHA5WXFT3VBS27BK","model","match","uniform","","","","","","","1229","252639.59999999776","253868.59999999776","[""stimuli/BF04_CC.jpg"",""stimuli/HF02_DO.jpg"",""stimuli/HM02_SUR.jpg"",""stimuli/BM04_HO.jpg""]","stimuli/BF04_CC.jpg","stimuli/HF02_DO.jpg","stimuli/HM02_SUR.jpg","stimuli/BM04_HO.jpg","pos1","stimuli/BF04_CC.jpg","CC","BF04","0","3","6","8","stimuli/stars_6.png","223.5","[""CC"",""DO"",""SUR"",""HO""]","[""BF04"",""HF02"",""HM02"",""BM04""]","[6,3,8,1]","[8,4,6,2]","","",""
"show-reward","124","254916","0.0-124.0","p884256","A2IQ0QCTQ3KWLT","3P888QFVX40Z2B7BK75OWKP045JQOK","3U4J9857OGH80JBHA5WXFT3VBS27BK","model","match","uniform","","","","","","","","254371.19999999925","256374.3999999985","","","","","","","","","","","","6","","stimuli/stars_6.png","223.5","","","","","stimuli/BF04_CC.jpg","",""
"explore-choice","125","257697","0.0-125.0","p884256","A2IQ0QCTQ3KWLT","3P888QFVX40Z2B7BK75OWKP045JQOK","3U4J9857OGH80JBHA5WXFT3VBS27BK","model","match","uniform","","","","","","","2279.89999999851","256375.19999999925","258655.09999999776","[""stimuli/BM04_HO.jpg"",""stimuli/HF02_DO.jpg"",""stimuli/BF04_SUR.jpg"",""stimuli/HM02_CC.jpg""]","stimuli/BM04_HO.jpg","stimuli/HF02_DO.jpg","stimuli/BF04_SUR.jpg","stimuli/HM02_CC.jpg","pos3","stimuli/BF04_SUR.jpg","SUR","BF04","2","4","8","8","stimuli/stars_8.png","227.5","[""HO"",""DO"",""SUR"",""CC""]","[""BM04"",""HF02"",""BF04"",""HM02""]","[2,3,8,8]","[2,4,8,6]","","",""
"show-reward","126","259701","0.0-126.0","p884256","A2IQ0QCTQ3KWLT","3P888QFVX40Z2B7BK75OWKP045JQOK","3U4J9857OGH80JBHA5WXFT3VBS27BK","model","match","uniform","","","","","","","","259156.3999999985","261158.59999999776","","","","","","","","","","","","8","","stimuli/stars_8.png","227.5","","","","","stimuli/BF04_SUR.jpg","",""
"explore-choice","127","263443","0.0-127.0","p884256","A2IQ0QCTQ3KWLT","3P888QFVX40Z2B7BK75OWKP045JQOK","3U4J9857OGH80JBHA5WXFT3VBS27BK","model","match","uniform","","","","","","","3240.5","261159.5","264400","[""stimuli/HM02_SUR.jpg"",""stimuli/BF04_HO.jpg"",""stimuli/BM04_CC.jpg"",""stimuli/HF02_DO.jpg""]","stimuli/HM02_SUR.jpg","stimuli/BF04_HO.jpg","stimuli/BM04_CC.jpg","stimuli/HF02_DO.jpg","pos2","stimuli/BF04_HO.jpg","HO","BF04","1","4.5","9","8","stimuli/stars_9.png","232","[""SUR"",""HO"",""CC"",""DO""]","[""HM02"",""BF04"",""BM04"",""HF02""]","[8,9,0,6]","[6,8,2,4]","","",""
"show-reward","128","265446","0.0-128.0","p884256","A2IQ0QCTQ3KWLT","3P888QFVX40Z2B7BK75OWKP045JQOK","3U4J9857OGH80JBHA5WXFT3VBS27BK","model","match","uniform","","","","","","","","264901.69999999925","266903.80000000075","","","","","","","","","","","","9","","stimuli/stars_9.png","232","","","","","stimuli/BF04_HO.jpg","",""
"explore-choice","129","267328","0.0-129.0","p884256","A2IQ0QCTQ3KWLT","3P888QFVX40Z2B7BK75OWKP045JQOK","3U4J9857OGH80JBHA5WXFT3VBS27BK","model","match","uniform","","","","","","","1380.199999999255","266904.8999999985","268285.09999999776","[""stimuli/HM02_HO.jpg"",""stimuli/HF02_DO.jpg"",""stimuli/BF04_CC.jpg"",""stimuli/BM04_SUR.jpg""]","stimuli/HM02_HO.jpg","stimuli/HF02_DO.jpg","stimuli/BF04_CC.jpg","stimuli/BM04_SUR.jpg","pos3","stimuli/BF04_CC.jpg","CC","BF04","2","3.5","7","8","stimuli/stars_7.png","235.5","[""HO"",""DO"",""CC"",""SUR""]","[""HM02"",""HF02"",""BF04"",""BM04""]","[4,3,7,2]","[6,4,8,2]","","",""
"show-reward","130","269332","0.0-130.0","p884256","A2IQ0QCTQ3KWLT","3P888QFVX40Z2B7BK75OWKP045JQOK","3U4J9857OGH80JBHA5WXFT3VBS27BK","model","match","uniform","","","","","","","","268787","270790.3999999985","","","","","","","","","","","","7","","stimuli/stars_7.png","235.5","","","","","stimuli/BF04_CC.jpg","",""
"explore-choice","131","270974","0.0-131.0","p884256","A2IQ0QCTQ3KWLT","3P888QFVX40Z2B7BK75OWKP045JQOK","3U4J9857OGH80JBHA5WXFT3VBS27BK","model","match","uniform","","","","","","","1141","270791.19999999925","271932.19999999925","[""stimuli/HF02_CC.jpg"",""stimuli/BM04_SUR.jpg"",""stimuli/BF04_HO.jpg"",""stimuli/HM02_DO.jpg""]","stimuli/HF02_CC.jpg","stimuli/BM04_SUR.jpg","stimuli/BF04_HO.jpg","stimuli/HM02_DO.jpg","pos3","stimuli/BF04_HO.jpg","HO","BF04","2","3","6","8","stimuli/stars_6.png","238.5","[""CC"",""SUR"",""HO"",""DO""]","[""HF02"",""BM04"",""BF04"",""HM02""]","[6,3,6,4]","[4,2,8,6]","","",""
"show-reward","132","272976","0.0-132.0","p884256","A2IQ0QCTQ3KWLT","3P888QFVX40Z2B7BK75OWKP045JQOK","3U4J9857OGH80JBHA5WXFT3VBS27BK","model","match","uniform","","","","","","","","272433.09999999776","274434.3999999985","","","","","","","","","","","","6","","stimuli/stars_6.png","238.5","","","","","stimuli/BF04_HO.jpg","",""
"explore-choice","133","274592","0.0-133.0","p884256","A2IQ0QCTQ3KWLT","3P888QFVX40Z2B7BK75OWKP045JQOK","3U4J9857OGH80JBHA5WXFT3VBS27BK","model","match","uniform","","","","","","","1114.4000000022352","274435.09999999776","275549.5","[""stimuli/HM02_SUR.jpg"",""stimuli/BF04_DO.jpg"",""stimuli/HF02_HO.jpg"",""stimuli/BM04_CC.jpg""]","stimuli/HM02_SUR.jpg","stimuli/BF04_DO.jpg","stimuli/HF02_HO.jpg","stimuli/BM04_CC.jpg","pos2","stimuli/BF04_DO.jpg","DO","BF04","1","4.5","9","8","stimuli/stars_9.png","243","[""SUR"",""DO"",""HO"",""CC""]","[""HM02"",""BF04"",""HF02"",""BM04""]","[7,9,4,0]","[6,8,4,2]","","",""
"show-reward","134","276597","0.0-134.0","p884256","A2IQ0QCTQ3KWLT","3P888QFVX40Z2B7BK75OWKP045JQOK","3U4J9857OGH80JBHA5WXFT3VBS27BK","model","match","uniform","","","","","","","","276050.69999999925","278055","","","","","","","","","","","","9","","stimuli/stars_9.png","243","","","","","stimuli/BF04_DO.jpg","",""
"explore-choice","135","278432","0.0-135.0","p884256","A2IQ0QCTQ3KWLT","3P888QFVX40Z2B7BK75OWKP045JQOK","3U4J9857OGH80JBHA5WXFT3VBS27BK","model","match","uniform","","","","","","","1330.5999999977648","278056","279386.59999999776","[""stimuli/BM04_SUR.jpg"",""stimuli/HM02_DO.jpg"",""stimuli/HF02_HO.jpg"",""stimuli/BF04_CC.jpg""]","stimuli/BM04_SUR.jpg","stimuli/HM02_DO.jpg","stimuli/HF02_HO.jpg","stimuli/BF04_CC.jpg","pos4","stimuli/BF04_CC.jpg","CC","BF04","3","5","10","8","stimuli/stars_10.png","248","[""SUR"",""DO"",""HO"",""CC""]","[""BM04"",""HM02"",""HF02"",""BF04""]","[4,4,3,10]","[2,6,4,8]","","",""
"show-reward","136","280440","0.0-136.0","p884256","A2IQ0QCTQ3KWLT","3P888QFVX40Z2B7BK75OWKP045JQOK","3U4J9857OGH80JBHA5WXFT3VBS27BK","model","match","uniform","","","","","","","","279891.69999999925","281898.3999999985","","","","","","","","","","","","10","","stimuli/stars_10.png","248","","","","","stimuli/BF04_CC.jpg","",""
"explore-choice","137","281942","0.0-137.0","p884256","A2IQ0QCTQ3KWLT","3P888QFVX40Z2B7BK75OWKP045JQOK","3U4J9857OGH80JBHA5WXFT3VBS27BK","model","match","uniform","","","","","","","997.7999999970198","281899.30000000075","282897.09999999776","[""stimuli/BF04_CC.jpg"",""stimuli/BM04_DO.jpg"",""stimuli/HF02_SUR.jpg"",""stimuli/HM02_HO.jpg""]","stimuli/BF04_CC.jpg","stimuli/BM04_DO.jpg","stimuli/HF02_SUR.jpg","stimuli/HM02_HO.jpg","pos1","stimuli/BF04_CC.jpg","CC","BF04","0","4.5","9","8","stimuli/stars_9.png","252.5","[""CC"",""DO"",""SUR"",""HO""]","[""BF04"",""BM04"",""HF02"",""HM02""]","[9,3,5,5]","[8,2,4,6]","","",""
"show-reward","138","283947","0.0-138.0","p884256","A2IQ0QCTQ3KWLT","3P888QFVX40Z2B7BK75OWKP045JQOK","3U4J9857OGH80JBHA5WXFT3VBS27BK","model","match","uniform","","","","","","","","283401.3999999985","285405.8999999985","","","","","","","","","","","","9","","stimuli/stars_9.png","252.5","","","","","stimuli/BF04_CC.jpg","",""
"explore-choice","139","285433","0.0-139.0","p884256","A2IQ0QCTQ3KWLT","3P888QFVX40Z2B7BK75OWKP045JQOK","3U4J9857OGH80JBHA5WXFT3VBS27BK","model","match","uniform","","","","","","","984.2000000029802","285407.09999999776","286391.30000000075","[""stimuli/HF02_SUR.jpg"",""stimuli/BF04_HO.jpg"",""stimuli/BM04_CC.jpg"",""stimuli/HM02_DO.jpg""]","stimuli/HF02_SUR.jpg","stimuli/BF04_HO.jpg","stimuli/BM04_CC.jpg","stimuli/HM02_DO.jpg","pos2","stimuli/BF04_HO.jpg","HO","BF04","1","4","8","8","stimuli/stars_8.png","256.5","[""SUR"",""HO"",""CC"",""DO""]","[""HF02"",""BF04"",""BM04"",""HM02""]","[2,8,3,4]","[4,8,2,6]","","",""
"show-reward","140","287436","0.0-140.0","p884256","A2IQ0QCTQ3KWLT","3P888QFVX40Z2B7BK75OWKP045JQOK","3U4J9857OGH80JBHA5WXFT3VBS27BK","model","match","uniform","","","","","","","","286892.3999999985","288894.3999999985","","","","","","","","","","","","8","","stimuli/stars_8.png","256.5","","","","","stimuli/BF04_HO.jpg","",""
"explore-choice","141","288616","0.0-141.0","p884256","A2IQ0QCTQ3KWLT","3P888QFVX40Z2B7BK75OWKP045JQOK","3U4J9857OGH80JBHA5WXFT3VBS27BK","model","match","uniform","","","","","","","677","288895.3999999985","289572.3999999985","[""stimuli/HM02_SUR.jpg"",""stimuli/BF04_CC.jpg"",""stimuli/BM04_DO.jpg"",""stimuli/HF02_HO.jpg""]","stimuli/HM02_SUR.jpg","stimuli/BF04_CC.jpg","stimuli/BM04_DO.jpg","stimuli/HF02_HO.jpg","pos2","stimuli/BF04_CC.jpg","CC","BF04","1","5","10","8","stimuli/stars_10.png","261.5","[""SUR"",""CC"",""DO"",""HO""]","[""HM02"",""BF04"",""BM04"",""HF02""]","[8,10,3,3]","[6,8,2,4]","","",""
"show-reward","142","290620","0.0-142.0","p884256","A2IQ0QCTQ3KWLT","3P888QFVX40Z2B7BK75OWKP045JQOK","3U4J9857OGH80JBHA5WXFT3VBS27BK","model","match","uniform","","","","","","","","290075.59999999776","292078.3999999985","","","","","","","","","","","","10","","stimuli/stars_10.png","261.5","","","","","stimuli/BF04_CC.jpg","",""
"explore-choice","143","291868","0.0-143.0","p884256","A2IQ0QCTQ3KWLT","3P888QFVX40Z2B7BK75OWKP045JQOK","3U4J9857OGH80JBHA5WXFT3VBS27BK","model","match","uniform","","","","","","","746.9000000022352","292079.3999999985","292826.30000000075","[""stimuli/HM02_HO.jpg"",""stimuli/BF04_SUR.jpg"",""stimuli/BM04_CC.jpg"",""stimuli/HF02_DO.jpg""]","stimuli/HM02_HO.jpg","stimuli/BF04_SUR.jpg","stimuli/BM04_CC.jpg","stimuli/HF02_DO.jpg","pos2","stimuli/BF04_SUR.jpg","SUR","BF04","1","4","8","8","stimuli/stars_8.png","265.5","[""HO"",""SUR"",""CC"",""DO""]","[""HM02"",""BF04"",""BM04"",""HF02""]","[5,8,2,4]","[6,8,2,4]","","",""
"show-reward","144","293875","0.0-144.0","p884256","A2IQ0QCTQ3KWLT","3P888QFVX40Z2B7BK75OWKP045JQOK","3U4J9857OGH80JBHA5WXFT3VBS27BK","model","match","uniform","","","","","","","","293327.5","295333.59999999776","","","","","","","","","","","","8","","stimuli/stars_8.png","265.5","","","","","stimuli/BF04_SUR.jpg","",""
"explore-choice","145","295424","0.0-145.0","p884256","A2IQ0QCTQ3KWLT","3P888QFVX40Z2B7BK75OWKP045JQOK","3U4J9857OGH80JBHA5WXFT3VBS27BK","model","match","uniform","","","","","","","1048.300000000745","295334.5","296382.80000000075","[""stimuli/BM04_HO.jpg"",""stimuli/HM02_SUR.jpg"",""stimuli/HF02_CC.jpg"",""stimuli/BF04_DO.jpg""]","stimuli/BM04_HO.jpg","stimuli/HM02_SUR.jpg","stimuli/HF02_CC.jpg","stimuli/BF04_DO.jpg","pos4","stimuli/BF04_DO.jpg","DO","BF04","3","3","6","8","stimuli/stars_6.png","268.5","[""HO"",""SUR"",""CC"",""DO""]","[""BM04"",""HM02"",""HF02"",""BF04""]","[3,4,6,6]","[2,6,4,8]","","",""
"show-reward","146","297427","0.0-146.0","p884256","A2IQ0QCTQ3KWLT","3P888QFVX40Z2B7BK75OWKP045JQOK","3U4J9857OGH80JBHA5WXFT3VBS27BK","model","match","uniform","","","","","","","","296883.80000000075","298885.69999999925","","","","","","","","","","","","6","","stimuli/stars_6.png","268.5","","","","","stimuli/BF04_DO.jpg","",""
"explore-choice","147","299024","0.0-147.0","p884256","A2IQ0QCTQ3KWLT","3P888QFVX40Z2B7BK75OWKP045JQOK","3U4J9857OGH80JBHA5WXFT3VBS27BK","model","match","uniform","","","","","","","1095.300000000745","298887","299982.30000000075","[""stimuli/BM04_SUR.jpg"",""stimuli/HM02_HO.jpg"",""stimuli/BF04_DO.jpg"",""stimuli/HF02_CC.jpg""]","stimuli/BM04_SUR.jpg","stimuli/HM02_HO.jpg","stimuli/BF04_DO.jpg","stimuli/HF02_CC.jpg","pos3","stimuli/BF04_DO.jpg","DO","BF04","2","5","10","8","stimuli/stars_10.png","273.5","[""SUR"",""HO"",""DO"",""CC""]","[""BM04"",""HM02"",""BF04"",""HF02""]","[0,8,10,5]","[2,6,8,4]","","",""
"show-reward","148","301028","0.0-148.0","p884256","A2IQ0QCTQ3KWLT","3P888QFVX40Z2B7BK75OWKP045JQOK","3U4J9857OGH80JBHA5WXFT3VBS27BK","model","match","uniform","","","","","","","","300483.30000000075","302487.30000000075","","","","","","","","","","","","10","","stimuli/stars_10.png","273.5","","","","","stimuli/BF04_DO.jpg","",""
"explore-choice","149","302536","0.0-149.0","p884256","A2IQ0QCTQ3KWLT","3P888QFVX40Z2B7BK75OWKP045JQOK","3U4J9857OGH80JBHA5WXFT3VBS27BK","model","match","uniform","","","","","","","1005.1000000014901","302488.19999999925","303493.30000000075","[""stimuli/HM02_HO.jpg"",""stimuli/BM04_DO.jpg"",""stimuli/HF02_CC.jpg"",""stimuli/BF04_SUR.jpg""]","stimuli/HM02_HO.jpg","stimuli/BM04_DO.jpg","stimuli/HF02_CC.jpg","stimuli/BF04_SUR.jpg","pos4","stimuli/BF04_SUR.jpg","SUR","BF04","3","4.5","9","8","stimuli/stars_9.png","278","[""HO"",""DO"",""CC"",""SUR""]","[""HM02"",""BM04"",""HF02"",""BF04""]","[5,4,5,9]","[6,2,4,8]","","",""
"show-reward","150","304543","0.0-150.0","p884256","A2IQ0QCTQ3KWLT","3P888QFVX40Z2B7BK75OWKP045JQOK","3U4J9857OGH80JBHA5WXFT3VBS27BK","model","match","uniform","","","","","","","","303995.69999999925","306002.3999999985","","","","","","","","","","","","9","","stimuli/stars_9.png","278","","","","","stimuli/BF04_SUR.jpg","",""
"explore-choice","151","306183","0.0-151.0","p884256","A2IQ0QCTQ3KWLT","3P888QFVX40Z2B7BK75OWKP045JQOK","3U4J9857OGH80JBHA5WXFT3VBS27BK","model","match","uniform","","","","","","","1137","306003.19999999925","307140.19999999925","[""stimuli/BM04_SUR.jpg"",""stimuli/BF04_CC.jpg"",""stimuli/HM02_DO.jpg"",""stimuli/HF02_HO.jpg""]","stimuli/BM04_SUR.jpg","stimuli/BF04_CC.jpg","stimuli/HM02_DO.jpg","stimuli/HF02_HO.jpg","pos2","stimuli/BF04_CC.jpg","CC","BF04","1","5","10","8","stimuli/stars_10.png","283","[""SUR"",""CC"",""DO"",""HO""]","[""BM04"",""BF04"",""HM02"",""HF02""]","[4,10,4,3]","[2,8,6,4]","","",""
"show-reward","152","308186","0.0-152.0","p884256","A2IQ0QCTQ3KWLT","3P888QFVX40Z2B7BK75OWKP045JQOK","3U4J9857OGH80JBHA5WXFT3VBS27BK","model","match","uniform","","","","","","","","307643","309645.19999999925","","","","","","","","","","","","10","","stimuli/stars_10.png","283","","","","","stimuli/BF04_CC.jpg","",""
"explore-choice","153","309811","0.0-153.0","p884256","A2IQ0QCTQ3KWLT","3P888QFVX40Z2B7BK75OWKP045JQOK","3U4J9857OGH80JBHA5WXFT3VBS27BK","model","match","uniform","","","","","","","1122.699999999255","309646","310768.69999999925","[""stimuli/BF04_SUR.jpg"",""stimuli/HM02_CC.jpg"",""stimuli/BM04_HO.jpg"",""stimuli/HF02_DO.jpg""]","stimuli/BF04_SUR.jpg","stimuli/HM02_CC.jpg","stimuli/BM04_HO.jpg","stimuli/HF02_DO.jpg","pos1","stimuli/BF04_SUR.jpg","SUR","BF04","0","4","8","8","stimuli/stars_8.png","287","[""SUR"",""CC"",""HO"",""DO""]","[""BF04"",""HM02"",""BM04"",""HF02""]","[8,8,2,3]","[8,6,2,4]","","",""
"show-reward","154","311816","0.0-154.0","p884256","A2IQ0QCTQ3KWLT","3P888QFVX40Z2B7BK75OWKP045JQOK","3U4J9857OGH80JBHA5WXFT3VBS27BK","model","match","uniform","","","","","","","","311271.59999999776","313275.30000000075","","","","","","","","","","","","8","","stimuli/stars_8.png","287","","","","","stimuli/BF04_SUR.jpg","",""
"explore-choice","155","313575","0.0-155.0","p884256","A2IQ0QCTQ3KWLT","3P888QFVX40Z2B7BK75OWKP045JQOK","3U4J9857OGH80JBHA5WXFT3VBS27BK","model","match","uniform","","","","","","","1257.199999999255","313276.19999999925","314533.3999999985","[""stimuli/HM02_CC.jpg"",""stimuli/BF04_HO.jpg"",""stimuli/BM04_SUR.jpg"",""stimuli/HF02_DO.jpg""]","stimuli/HM02_CC.jpg","stimuli/BF04_HO.jpg","stimuli/BM04_SUR.jpg","stimuli/HF02_DO.jpg","pos2","stimuli/BF04_HO.jpg","HO","BF04","1","4.5","9","8","stimuli/stars_9.png","291.5","[""CC"",""HO"",""SUR"",""DO""]","[""HM02"",""BF04"",""BM04"",""HF02""]","[5,9,1,5]","[6,8,2,4]","","",""
"show-reward","156","315579","0.0-156.0","p884256","A2IQ0QCTQ3KWLT","3P888QFVX40Z2B7BK75OWKP045JQOK","3U4J9857OGH80JBHA5WXFT3VBS27BK","model","match","uniform","","","","","","","","315035.5","317038.3999999985","","","","","","","","","","","","9","","stimuli/stars_9.png","291.5","","","","","stimuli/BF04_HO.jpg","",""
"explore-choice","157","316892","0.0-157.0","p884256","A2IQ0QCTQ3KWLT","3P888QFVX40Z2B7BK75OWKP045JQOK","3U4J9857OGH80JBHA5WXFT3VBS27BK","model","match","uniform","","","","","","","809.8999999985099","317039.19999999925","317849.09999999776","[""stimuli/BF04_CC.jpg"",""stimuli/HF02_DO.jpg"",""stimuli/HM02_SUR.jpg"",""stimuli/BM04_HO.jpg""]","stimuli/BF04_CC.jpg","stimuli/HF02_DO.jpg","stimuli/HM02_SUR.jpg","stimuli/BM04_HO.jpg","pos1","stimuli/BF04_CC.jpg","CC","BF04","0","3","6","8","stimuli/stars_6.png","294.5","[""CC"",""DO"",""SUR"",""HO""]","[""BF04"",""HF02"",""HM02"",""BM04""]","[6,3,8,1]","[8,4,6,2]","","",""
"show-reward","158","318899","0.0-158.0","p884256","A2IQ0QCTQ3KWLT","3P888QFVX40Z2B7BK75OWKP045JQOK","3U4J9857OGH80JBHA5WXFT3VBS27BK","model","match","uniform","","","","","","","","318352","320358.3999999985","","","","","","","","","","","","6","","stimuli/stars_6.png","294.5","","","","","stimuli/BF04_CC.jpg","",""
"explore-choice","159","320479","0.0-159.0","p884256","A2IQ0QCTQ3KWLT","3P888QFVX40Z2B7BK75OWKP045JQOK","3U4J9857OGH80JBHA5WXFT3VBS27BK","model","match","uniform","","","","","","","1073","320361.30000000075","321434.30000000075","[""stimuli/BM04_HO.jpg"",""stimuli/HF02_CC.jpg"",""stimuli/BF04_DO.jpg"",""stimuli/HM02_SUR.jpg""]","stimuli/BM04_HO.jpg","stimuli/HF02_CC.jpg","stimuli/BF04_DO.jpg","stimuli/HM02_SUR.jpg","pos3","stimuli/BF04_DO.jpg","DO","BF04","2","3","6","8","stimuli/stars_6.png","297.5","[""HO"",""CC"",""DO"",""SUR""]","[""BM04"",""HF02"",""BF04"",""HM02""]","[3,6,6,4]","[2,4,8,6]","","",""
"show-reward","160","322487","0.0-160.0","p884256","A2IQ0QCTQ3KWLT","3P888QFVX40Z2B7BK75OWKP045JQOK","3U4J9857OGH80JBHA5WXFT3VBS27BK","model","match","uniform","","","","","","","","321939.59999999776","323946.3999999985","","","","","","","","","","","","6","","stimuli/stars_6.png","297.5","","","","","stimuli/BF04_DO.jpg","",""
"explore-choice","161","324047","0.0-161.0","p884256","A2IQ0QCTQ3KWLT","3P888QFVX40Z2B7BK75OWKP045JQOK","3U4J9857OGH80JBHA5WXFT3VBS27BK","model","match","uniform","","","","","","","1057.300000000745","323947.19999999925","325004.5","[""stimuli/HF02_CC.jpg"",""stimuli/BM04_SUR.jpg"",""stimuli/HM02_DO.jpg"",""stimuli/BF04_HO.jpg""]","stimuli/HF02_CC.jpg","stimuli/BM04_SUR.jpg","stimuli/HM02_DO.jpg","stimuli/BF04_HO.jpg","pos4","stimuli/BF04_HO.jpg","HO","BF04","3","3","6","8","stimuli/stars_6.png","300.5","[""CC"",""SUR"",""DO"",""HO""]","[""HF02"",""BM04"",""HM02"",""BF04""]","[6,3,4,6]","[4,2,6,8]","","",""
"show-reward","162","326055","0.0-162.0","p884256","A2IQ0QCTQ3KWLT","3P888QFVX40Z2B7BK75OWKP045JQOK","3U4J9857OGH80JBHA5WXFT3VBS27BK","model","match","uniform","","","","","","","","325507.59999999776","327514.30000000075","","","","","","","","","","","","6","","stimuli/stars_6.png","300.5","","","","","stimuli/BF04_HO.jpg","",""
"explore-choice","163","328367","0.0-163.0","p884256","A2IQ0QCTQ3KWLT","3P888QFVX40Z2B7BK75OWKP045JQOK","3U4J9857OGH80JBHA5WXFT3VBS27BK","model","match","uniform","","","","","","","1808.8999999985099","327515.30000000075","329324.19999999925","[""stimuli/BM04_SUR.jpg"",""stimuli/HM02_CC.jpg"",""stimuli/BF04_DO.jpg"",""stimuli/HF02_HO.jpg""]","stimuli/BM04_SUR.jpg","stimuli/HM02_CC.jpg","stimuli/BF04_DO.jpg","stimuli/HF02_HO.jpg","pos3","stimuli/BF04_DO.jpg","DO","BF04","2","4","8","8","stimuli/stars_8.png","304.5","[""SUR"",""CC"",""DO"",""HO""]","[""BM04"",""HM02"",""BF04"",""HF02""]","[2,4,8,5]","[2,6,8,4]","","",""
"show-reward","164","330375","0.0-164.0","p884256","A2IQ0QCTQ3KWLT","3P888QFVX40Z2B7BK75OWKP045JQOK","3U4J9857OGH80JBHA5WXFT3VBS27BK","model","match","uniform","","","","","","","","329827.5","331834.3999999985","","","","","","","","","","","","8","","stimuli/stars_8.png","304.5","","","","","stimuli/BF04_DO.jpg","",""
"explore-choice","165","332254","0.0-165.0","p884256","A2IQ0QCTQ3KWLT","3P888QFVX40Z2B7BK75OWKP045JQOK","3U4J9857OGH80JBHA5WXFT3VBS27BK","model","match","uniform","","","","","","","1374.8999999985099","331835.30000000075","333210.19999999925","[""stimuli/BF04_DO.jpg"",""stimuli/HM02_CC.jpg"",""stimuli/HF02_SUR.jpg"",""stimuli/BM04_HO.jpg""]","stimuli/BF04_DO.jpg","stimuli/HM02_CC.jpg","stimuli/HF02_SUR.jpg","stimuli/BM04_HO.jpg","pos1","stimuli/BF04_DO.jpg","DO","BF04","0","4","8","8","stimuli/stars_8.png","308.5","[""DO"",""CC"",""SUR"",""HO""]","[""BF04"",""HM02"",""HF02"",""BM04""]","[8,4,3,1]","[8,6,4,2]","","",""
"show-reward","166","334259","0.0-166.0","p884256","A2IQ0QCTQ3KWLT","3P888QFVX40Z2B7BK75OWKP045JQOK","3U4J9857OGH80JBHA5WXFT3VBS27BK","model","match","uniform","","","","","","","","333714.3999999985","335718.30000000075","","","","","","","","","","","","8","","stimuli/stars_8.png","308.5","","","","","stimuli/BF04_DO.jpg","",""
"explore-choice","167","335971","0.0-167.0","p884256","A2IQ0QCTQ3KWLT","3P888QFVX40Z2B7BK75OWKP045JQOK","3U4J9857OGH80JBHA5WXFT3VBS27BK","model","match","uniform","","","","","","","1210.5999999977648","335719.30000000075","336929.8999999985","[""stimuli/HM02_HO.jpg"",""stimuli/BM04_SUR.jpg"",""stimuli/HF02_CC.jpg"",""stimuli/BF04_DO.jpg""]","stimuli/HM02_HO.jpg","stimuli/BM04_SUR.jpg","stimuli/HF02_CC.jpg","stimuli/BF04_DO.jpg","pos4","stimuli/BF04_DO.jpg","DO","BF04","3","5","10","8","stimuli/stars_10.png","313.5","[""HO"",""SUR"",""CC"",""DO""]","[""HM02"",""BM04"",""HF02"",""BF04""]","[8,0,5,10]","[6,2,4,8]","","",""
"show-reward","168","337975","0.0-168.0","p884256","A2IQ0QCTQ3KWLT","3P888QFVX40Z2B7BK75OWKP045JQOK","3U4J9857OGH80JBHA5WXFT3VBS27BK","model","match","uniform","","","","","","","","337431.69999999925","339435.19999999925","","","","","","","","","","","","10","","stimuli/stars_10.png","313.5","","","","","stimuli/BF04_DO.jpg","",""
"explore-choice","169","339347","0.0-169.0","p884256","A2IQ0QCTQ3KWLT","3P888QFVX40Z2B7BK75OWKP045JQOK","3U4J9857OGH80JBHA5WXFT3VBS27BK","model","match","uniform","","","","","","","869.8000000007451","339436.09999999776","340305.8999999985","[""stimuli/HM02_CC.jpg"",""stimuli/BF04_SUR.jpg"",""stimuli/BM04_DO.jpg"",""stimuli/HF02_HO.jpg""]","stimuli/HM02_CC.jpg","stimuli/BF04_SUR.jpg","stimuli/BM04_DO.jpg","stimuli/HF02_HO.jpg","pos2","stimuli/BF04_SUR.jpg","SUR","BF04","1","4","8","8","stimuli/stars_8.png","317.5","[""CC"",""SUR"",""DO"",""HO""]","[""HM02"",""BF04"",""BM04"",""HF02""]","[7,8,4,5]","[6,8,2,4]","","",""
"show-reward","170","341354","0.0-170.0","p884256","A2IQ0QCTQ3KWLT","3P888QFVX40Z2B7BK75OWKP045JQOK","3U4J9857OGH80JBHA5WXFT3VBS27BK","model","match","uniform","","","","","","","","340808","342814.30000000075","","","","","","","","","","","","8","","stimuli/stars_8.png","317.5","","","","","stimuli/BF04_SUR.jpg","",""
"explore-choice","171","342947","0.0-171.0","p884256","A2IQ0QCTQ3KWLT","3P888QFVX40Z2B7BK75OWKP045JQOK","3U4J9857OGH80JBHA5WXFT3VBS27BK","model","match","uniform","","","","","","","1090.5999999977648","342815.30000000075","343905.8999999985","[""stimuli/BM04_CC.jpg"",""stimuli/HM02_SUR.jpg"",""stimuli/BF04_DO.jpg"",""stimuli/HF02_HO.jpg""]","stimuli/BM04_CC.jpg","stimuli/HM02_SUR.jpg","stimuli/BF04_DO.jpg","stimuli/HF02_HO.jpg","pos3","stimuli/BF04_DO.jpg","DO","BF04","2","4.5","9","8","stimuli/stars_9.png","322","[""CC"",""SUR"",""DO"",""HO""]","[""BM04"",""HM02"",""BF04"",""HF02""]","[0,7,9,4]","[2,6,8,4]","","",""
"show-reward","172","344950","0.0-172.0","p884256","A2IQ0QCTQ3KWLT","3P888QFVX40Z2B7BK75OWKP045JQOK","3U4J9857OGH80JBHA5WXFT3VBS27BK","model","match","uniform","","","","","","","","344407.5","346410.5","","","","","","","","","","","","9","","stimuli/stars_9.png","322","","","","","stimuli/BF04_DO.jpg","",""
"explore-choice","173","346579","0.0-173.0","p884256","A2IQ0QCTQ3KWLT","3P888QFVX40Z2B7BK75OWKP045JQOK","3U4J9857OGH80JBHA5WXFT3VBS27BK","model","match","uniform","","","","","","","1125.0999999977648","346411","347536.09999999776","[""stimuli/BF04_CC.jpg"",""stimuli/HM02_HO.jpg"",""stimuli/HF02_SUR.jpg"",""stimuli/BM04_DO.jpg""]","stimuli/BF04_CC.jpg","stimuli/HM02_HO.jpg","stimuli/HF02_SUR.jpg","stimuli/BM04_DO.jpg","pos1","stimuli/BF04_CC.jpg","CC","BF04","0","4.5","9","8","stimuli/stars_9.png","326.5","[""CC"",""HO"",""SUR"",""DO""]","[""BF04"",""HM02"",""HF02"",""BM04""]","[9,5,5,3]","[8,6,4,2]","","",""
"show-reward","174","348582","0.0-174.0","p884256","A2IQ0QCTQ3KWLT","3P888QFVX40Z2B7BK75OWKP045JQOK","3U4J9857OGH80JBHA5WXFT3VBS27BK","model","match","uniform","","","","","","","","348040","350042.5","","","","","","","","","","","","9","","stimuli/stars_9.png","326.5","","","","","stimuli/BF04_CC.jpg","",""
"explore-choice","175","349998","0.0-175.0","p884256","A2IQ0QCTQ3KWLT","3P888QFVX40Z2B7BK75OWKP045JQOK","3U4J9857OGH80JBHA5WXFT3VBS27BK","model","match","uniform","","","","","","","913","350043.3999999985","350956.3999999985","[""stimuli/HF02_HO.jpg"",""stimuli/BM04_CC.jpg"",""stimuli/BF04_SUR.jpg"",""stimuli/HM02_DO.jpg""]","stimuli/HF02_HO.jpg","stimuli/BM04_CC.jpg","stimuli/BF04_SUR.jpg","stimuli/HM02_DO.jpg","pos3","stimuli/BF04_SUR.jpg","SUR","BF04","2","4","8","8","stimuli/stars_8.png","330.5","[""HO"",""CC"",""SUR"",""DO""]","[""HF02"",""BM04"",""BF04"",""HM02""]","[5,0,8,4]","[4,2,8,6]","","",""
"show-reward","176","352001","0.0-176.0","p884256","A2IQ0QCTQ3KWLT","3P888QFVX40Z2B7BK75OWKP045JQOK","3U4J9857OGH80JBHA5WXFT3VBS27BK","model","match","uniform","","","","","","","","351459.5","353461.3999999985","","","","","","","","","","","","8","","stimuli/stars_8.png","330.5","","","","","stimuli/BF04_SUR.jpg","",""
"explore-choice","177","353462","0.0-177.0","p884256","A2IQ0QCTQ3KWLT","3P888QFVX40Z2B7BK75OWKP045JQOK","3U4J9857OGH80JBHA5WXFT3VBS27BK","model","match","uniform","","","","","","","959.2999999970198","353462.30000000075","354421.59999999776","[""stimuli/BM04_CC.jpg"",""stimuli/BF04_SUR.jpg"",""stimuli/HF02_DO.jpg"",""stimuli/HM02_HO.jpg""]","stimuli/BM04_CC.jpg","stimuli/BF04_SUR.jpg","stimuli/HF02_DO.jpg","stimuli/HM02_HO.jpg","pos2","stimuli/BF04_SUR.jpg","SUR","BF04","1","4","8","8","stimuli/stars_8.png","334.5","[""CC"",""SUR"",""DO"",""HO""]","[""BM04"",""BF04"",""HF02"",""HM02""]","[2,8,4,5]","[2,8,4,6]","","",""
"show-reward","178","355470","0.0-178.0","p884256","A2IQ0QCTQ3KWLT","3P888QFVX40Z2B7BK75OWKP045JQOK","3U4J9857OGH80JBHA5WXFT3VBS27BK","model","match","uniform","","","","","","","","354923.5","356930.5","","","","","","","","","","","","8","","stimuli/stars_8.png","334.5","","","","","stimuli/BF04_SUR.jpg","",""
"explore-choice","179","357002","0.0-179.0","p884256","A2IQ0QCTQ3KWLT","3P888QFVX40Z2B7BK75OWKP045JQOK","3U4J9857OGH80JBHA5WXFT3VBS27BK","model","match","uniform","","","","","","","1030.300000000745","356931.3999999985","357961.69999999925","[""stimuli/HF02_SUR.jpg"",""stimuli/BF04_HO.jpg"",""stimuli/HM02_DO.jpg"",""stimuli/BM04_CC.jpg""]","stimuli/HF02_SUR.jpg","stimuli/BF04_HO.jpg","stimuli/HM02_DO.jpg","stimuli/BM04_CC.jpg","pos2","stimuli/BF04_HO.jpg","HO","BF04","1","4","8","8","stimuli/stars_8.png","338.5","[""SUR"",""HO"",""DO"",""CC""]","[""HF02"",""BF04"",""HM02"",""BM04""]","[2,8,4,3]","[4,8,6,2]","","",""
"show-reward","180","359006","0.0-180.0","p884256","A2IQ0QCTQ3KWLT","3P888QFVX40Z2B7BK75OWKP045JQOK","3U4J9857OGH80JBHA5WXFT3VBS27BK","model","match","uniform","","","","","","","","358463.09999999776","360466.3999999985","","","","","","","","","","","","8","","stimuli/stars_8.png","338.5","","","","","stimuli/BF04_HO.jpg","",""
"explore-choice","181","360994","0.0-181.0","p884256","A2IQ0QCTQ3KWLT","3P888QFVX40Z2B7BK75OWKP045JQOK","3U4J9857OGH80JBHA5WXFT3VBS27BK","model","match","uniform","","","","","","","1485","360467.30000000075","361952.30000000075","[""stimuli/BF04_DO.jpg"",""stimuli/HF02_SUR.jpg"",""stimuli/HM02_HO.jpg"",""stimuli/BM04_CC.jpg""]","stimuli/BF04_DO.jpg","stimuli/HF02_SUR.jpg","stimuli/HM02_HO.jpg","stimuli/BM04_CC.jpg","pos1","stimuli/BF04_DO.jpg","DO","BF04","0","3","6","8","stimuli/stars_6.png","341.5","[""DO"",""SUR"",""HO"",""CC""]","[""BF04"",""HF02"",""HM02"",""BM04""]","[6,3,5,4]","[8,4,6,2]","","",""
"show-reward","182","362996","0.0-182.0","p884256","A2IQ0QCTQ3KWLT","3P888QFVX40Z2B7BK75OWKP045JQOK","3U4J9857OGH80JBHA5WXFT3VBS27BK","model","match","uniform","","","","","","","","362455","364457","","","","","","","","","","","","6","","stimuli/stars_6.png","341.5","","","","","stimuli/BF04_DO.jpg","",""
"explore-choice","183","365119","0.0-183.0","p884256","A2IQ0QCTQ3KWLT","3P888QFVX40Z2B7BK75OWKP045JQOK","3U4J9857OGH80JBHA5WXFT3VBS27BK","model","match","uniform","","","","","","","1619.4000000022352","364457.8999999985","366077.30000000075","[""stimuli/BF04_SUR.jpg"",""stimuli/BM04_DO.jpg"",""stimuli/HM02_HO.jpg"",""stimuli/HF02_CC.jpg""]","stimuli/BF04_SUR.jpg","stimuli/BM04_DO.jpg","stimuli/HM02_HO.jpg","stimuli/HF02_CC.jpg","pos1","stimuli/BF04_SUR.jpg","SUR","BF04","0","4.5","9","8","stimuli/stars_9.png","346","[""SUR"",""DO"",""HO"",""CC""]","[""BF04"",""BM04"",""HM02"",""HF02""]","[9,4,5,5]","[8,2,6,4]","","",""
"show-reward","184","367126","0.0-184.0","p884256","A2IQ0QCTQ3KWLT","3P888QFVX40Z2B7BK75OWKP045JQOK","3U4J9857OGH80JBHA5WXFT3VBS27BK","model","match","uniform","","","","","","","","366580","368586.3999999985","","","","","","","","","","","","9","","stimuli/stars_9.png","346","","","","","stimuli/BF04_SUR.jpg","",""
"explore-choice","185","370354","0.0-185.0","p884256","A2IQ0QCTQ3KWLT","3P888QFVX40Z2B7BK75OWKP045JQOK","3U4J9857OGH80JBHA5WXFT3VBS27BK","model","match","uniform","","","","","","","2725.099999997765","368587.30000000075","371312.3999999985","[""stimuli/HM02_HO.jpg"",""stimuli/HF02_DO.jpg"",""stimuli/BM04_SUR.jpg"",""stimuli/BF04_CC.jpg""]","stimuli/HM02_HO.jpg","stimuli/HF02_DO.jpg","stimuli/BM04_SUR.jpg","stimuli/BF04_CC.jpg","pos4","stimuli/BF04_CC.jpg","CC","BF04","3","3.5","7","8","stimuli/stars_7.png","349.5","[""HO"",""DO"",""SUR"",""CC""]","[""HM02"",""HF02"",""BM04"",""BF04""]","[4,3,2,7]","[6,4,2,8]","","",""
"show-reward","186","372358","0.0-186.0","p884256","A2IQ0QCTQ3KWLT","3P888QFVX40Z2B7BK75OWKP045JQOK","3U4J9857OGH80JBHA5WXFT3VBS27BK","model","match","uniform","","","","","","","","371815.69999999925","373818.5","","","","","","","","","","","","7","","stimuli/stars_7.png","349.5","","","","","stimuli/BF04_CC.jpg","",""
"explore-choice","187","375859","0.0-187.0","p884256","A2IQ0QCTQ3KWLT","3P888QFVX40Z2B7BK75OWKP045JQOK","3U4J9857OGH80JBHA5WXFT3VBS27BK","model","match","uniform","","","","","","","2998.5","373819.3999999985","376817.8999999985","[""stimuli/HF02_CC.jpg"",""stimuli/HM02_SUR.jpg"",""stimuli/BF04_HO.jpg"",""stimuli/BM04_DO.jpg""]","stimuli/HF02_CC.jpg","stimuli/HM02_SUR.jpg","stimuli/BF04_HO.jpg","stimuli/BM04_DO.jpg","pos3","stimuli/BF04_HO.jpg","HO","BF04","2","3.5","7","8","stimuli/stars_7.png","353","[""CC"",""SUR"",""HO"",""DO""]","[""HF02"",""HM02"",""BF04"",""BM04""]","[5,8,7,3]","[4,6,8,2]","","",""
"show-reward","188","377865","0.0-188.0","p884256","A2IQ0QCTQ3KWLT","3P888QFVX40Z2B7BK75OWKP045JQOK","3U4J9857OGH80JBHA5WXFT3VBS27BK","model","match","uniform","","","","","","","","377320.69999999925","379325.59999999776","","","","","","","","","","","","7","","stimuli/stars_7.png","353","","","","","stimuli/BF04_HO.jpg","",""
"explore-choice","189","380390","0.0-189.0","p884256","A2IQ0QCTQ3KWLT","3P888QFVX40Z2B7BK75OWKP045JQOK","3U4J9857OGH80JBHA5WXFT3VBS27BK","model","match","uniform","","","","","","","2020.9000000022352","379326.3999999985","381347.30000000075","[""stimuli/BF04_HO.jpg"",""stimuli/BM04_DO.jpg"",""stimuli/HF02_SUR.jpg"",""stimuli/HM02_CC.jpg""]","stimuli/BF04_HO.jpg","stimuli/BM04_DO.jpg","stimuli/HF02_SUR.jpg","stimuli/HM02_CC.jpg","pos1","stimuli/BF04_HO.jpg","HO","BF04","0","3","6","8","stimuli/stars_6.png","356","[""HO"",""DO"",""SUR"",""CC""]","[""BF04"",""BM04"",""HF02"",""HM02""]","[6,2,5,4]","[8,2,4,6]","","",""
"show-reward","190","382397","0.0-190.0","p884256","A2IQ0QCTQ3KWLT","3P888QFVX40Z2B7BK75OWKP045JQOK","3U4J9857OGH80JBHA5WXFT3VBS27BK","model","match","uniform","","","","","","","","381851.69999999925","383858.3999999985","","","","","","","","","","","","6","","stimuli/stars_6.png","356","","","","","stimuli/BF04_HO.jpg","",""
"explore-choice","191","384303","0.0-191.0","p884256","A2IQ0QCTQ3KWLT","3P888QFVX40Z2B7BK75OWKP045JQOK","3U4J9857OGH80JBHA5WXFT3VBS27BK","model","match","uniform","","","","","","","1404.4000000022352","383859.3999999985","385263.80000000075","[""stimuli/HF02_HO.jpg"",""stimuli/BF04_CC.jpg"",""stimuli/BM04_DO.jpg"",""stimuli/HM02_SUR.jpg""]","stimuli/HF02_HO.jpg","stimuli/BF04_CC.jpg","stimuli/BM04_DO.jpg","stimuli/HM02_SUR.jpg","pos2","stimuli/BF04_CC.jpg","CC","BF04","1","5","10","8","stimuli/stars_10.png","361","[""HO"",""CC"",""DO"",""SUR""]","[""HF02"",""BF04"",""BM04"",""HM02""]","[3,10,3,8]","[4,8,2,6]","","",""
"show-reward","192","386306","0.0-192.0","p884256","A2IQ0QCTQ3KWLT","3P888QFVX40Z2B7BK75OWKP045JQOK","3U4J9857OGH80JBHA5WXFT3VBS27BK","model","match","uniform","","","","","","","","385765.09999999776","387767.19999999925","","","","","","","","","","","","10","","stimuli/stars_10.png","361","","","","","stimuli/BF04_CC.jpg","",""
"explore-choice","193","389133","0.0-193.0","p884256","A2IQ0QCTQ3KWLT","3P888QFVX40Z2B7BK75OWKP045JQOK","3U4J9857OGH80JBHA5WXFT3VBS27BK","model","match","uniform","","","","","","","2325.800000000745","387768.19999999925","390094","[""stimuli/HF02_CC.jpg"",""stimuli/HM02_DO.jpg"",""stimuli/BF04_SUR.jpg"",""stimuli/BM04_HO.jpg""]","stimuli/HF02_CC.jpg","stimuli/HM02_DO.jpg","stimuli/BF04_SUR.jpg","stimuli/BM04_HO.jpg","pos3","stimuli/BF04_SUR.jpg","SUR","BF04","2","4","8","8","stimuli/stars_8.png","365","[""CC"",""DO"",""SUR"",""HO""]","[""HF02"",""HM02"",""BF04"",""BM04""]","[3,8,8,3]","[4,6,8,2]","","",""
"show-reward","194","391137","0.0-194.0","p884256","A2IQ0QCTQ3KWLT","3P888QFVX40Z2B7BK75OWKP045JQOK","3U4J9857OGH80JBHA5WXFT3VBS27BK","model","match","uniform","","","","","","","","390595.59999999776","392598.30000000075","","","","","","","","","","","","8","","stimuli/stars_8.png","365","","","","","stimuli/BF04_SUR.jpg","",""
"explore-choice","195","394593","0.0-195.0","p884256","A2IQ0QCTQ3KWLT","3P888QFVX40Z2B7BK75OWKP045JQOK","3U4J9857OGH80JBHA5WXFT3VBS27BK","model","match","uniform","","","","","","","2954.300000000745","392599.3999999985","395553.69999999925","[""stimuli/HF02_SUR.jpg"",""stimuli/BF04_CC.jpg"",""stimuli/BM04_HO.jpg"",""stimuli/HM02_DO.jpg""]","stimuli/HF02_SUR.jpg","stimuli/BF04_CC.jpg","stimuli/BM04_HO.jpg","stimuli/HM02_DO.jpg","pos2","stimuli/BF04_CC.jpg","CC","BF04","1","4","8","8","stimuli/stars_8.png","369","[""SUR"",""CC"",""HO"",""DO""]","[""HF02"",""BF04"",""BM04"",""HM02""]","[6,8,1,8]","[4,8,2,6]","","",""
"show-reward","196","396596","0.0-196.0","p884256","A2IQ0QCTQ3KWLT","3P888QFVX40Z2B7BK75OWKP045JQOK","3U4J9857OGH80JBHA5WXFT3VBS27BK","model","match","uniform","","","","","","","","396055.8999999985","398057.69999999925","","","","","","","","","","","","8","","stimuli/stars_8.png","369","","","","","stimuli/BF04_CC.jpg","",""
"explore-choice","197","400433","0.0-197.0","p884256","A2IQ0QCTQ3KWLT","3P888QFVX40Z2B7BK75OWKP045JQOK","3U4J9857OGH80JBHA5WXFT3VBS27BK","model","match","uniform","","","","","","","3332","398058.59999999776","401390.59999999776","[""stimuli/BM04_CC.jpg"",""stimuli/HF02_DO.jpg"",""stimuli/HM02_SUR.jpg"",""stimuli/BF04_HO.jpg""]","stimuli/BM04_CC.jpg","stimuli/HF02_DO.jpg","stimuli/HM02_SUR.jpg","stimuli/BF04_HO.jpg","pos4","stimuli/BF04_HO.jpg","HO","BF04","3","4.5","9","8","stimuli/stars_9.png","373.5","[""CC"",""DO"",""SUR"",""HO""]","[""BM04"",""HF02"",""HM02"",""BF04""]","[0,6,8,9]","[2,4,6,8]","","",""
"show-reward","198","402437","0.0-198.0","p884256","A2IQ0QCTQ3KWLT","3P888QFVX40Z2B7BK75OWKP045JQOK","3U4J9857OGH80JBHA5WXFT3VBS27BK","model","match","uniform","","","","","","","","401895.59999999776","403898.30000000075","","","","","","","","","","","","9","","stimuli/stars_9.png","373.5","","","","","stimuli/BF04_HO.jpg","",""
"instructions","199","407404","0.0-199.0","p884256","A2IQ0QCTQ3KWLT","3P888QFVX40Z2B7BK75OWKP045JQOK","3U4J9857OGH80JBHA5WXFT3VBS27BK","model","match","uniform","","","","","","[{""page_index"":0,""viewing_time"":4966.699999999255}]","4967","","","","","","","","","","","","","","","","","","","","","","","",""
"survey-text","200","413971","0.0-200.0-0.0","p884256","A2IQ0QCTQ3KWLT","3P888QFVX40Z2B7BK75OWKP045JQOK","3U4J9857OGH80JBHA5WXFT3VBS27BK","model","match","uniform","","","","","","","6564.199999999255","","","","","","","","","","","","","","","","","","","","","","","{""age"":""51""}",""
"survey-text","201","418634","0.0-200.0-1.0","p884256","A2IQ0QCTQ3KWLT","3P888QFVX40Z2B7BK75OWKP045JQOK","3U4J9857OGH80JBHA5WXFT3VBS27BK","model","match","uniform","","","","","","","4661.60000000149","","","","","","","","","","","","","","","","","","","","","","","{""gender"":""female""}",""
"survey-text","202","423330","0.0-200.0-2.0","p884256","A2IQ0QCTQ3KWLT","3P888QFVX40Z2B7BK75OWKP045JQOK","3U4J9857OGH80JBHA5WXFT3VBS27BK","model","match","uniform","","","","","","","4694.300000000745","","","","","","","","","","","","","","","","","","","","","","","{""country"":""usa""}",""
"survey-text","203","432780","0.0-200.0-3.0","p884256","A2IQ0QCTQ3KWLT","3P888QFVX40Z2B7BK75OWKP045JQOK","3U4J9857OGH80JBHA5WXFT3VBS27BK","model","match","uniform","","","","","","","9448.29999999702","","","","","","","","","","","","","","","","","","","","","","","{""language"":""english"",""other_languages"":""none""}",""
"survey-multi-select","204","435360","0.0-201.0","p884256","A2IQ0QCTQ3KWLT","3P888QFVX40Z2B7BK75OWKP045JQOK","3U4J9857OGH80JBHA5WXFT3VBS27BK","model","match","uniform","","","","","","","2575.199999999255","","","","","","","","","","","","","","","","","","","","","","","{""race"":[""White""]}","[0]"
"survey-multi-choice","205","438075","0.0-202.0","p884256","A2IQ0QCTQ3KWLT","3P888QFVX40Z2B7BK75OWKP045JQOK","3U4J9857OGH80JBHA5WXFT3VBS27BK","model","match","uniform","","","","","","","2710.199999999255","","","","","","","","","","","","","","","","","","","","","","","{""education"":""High school""}","[0]"
"survey-text","206","455340","0.0-203.0","p884256","A2IQ0QCTQ3KWLT","3P888QFVX40Z2B7BK75OWKP045JQOK","3U4J9857OGH80JBHA5WXFT3VBS27BK","model","match","uniform","","","","","","","17258.300000000745","","","","","","","","","","","","","","","","","","","","","","","{""patterns"":""seemed like it was the same person that got most stars"",""strategy"":""no"",""comments"":""""}",""
