"trial_type","trial_index","time_elapsed","internal_node_id","subject","workerId","hitId","assignmentId","structure_condition","match_condition","noise_type","success","timeout","failed_images","failed_audio","failed_video","view_history","rt","start_time","end_time","stimuli","image1","image2","image3","image4","choiceLocation","choiceImage","choiceEmotion","choiceModel","choice_index","reward_score","reward","reward_score_unadjusted","reward_image","score_after_trial","emotions","models","rewards","rewards_unadjusted","stimulus","response","question_order"
"pavlovia","0","31","0.0-0.0","p533640","A7204W9E8IR1R","3WPCIUYH1BELQU8EB2L3QVOOKYBTD4","3M81GAB8A2PI61GW6453FKKQGIUBQM","model","match","uniform","","","","","","","","","","","","","","","","","","","","","","","","","","","","","","",""
"preload","1","4673","0.0-1.0","p533640","A7204W9E8IR1R","3WPCIUYH1BELQU8EB2L3QVOOKYBTD4","3M81GAB8A2PI61GW6453FKKQGIUBQM","model","match","uniform","true","false","[]","[]","[]","","","","","","","","","","","","","","","","","","","","","","","","","",""
"fullscreen","2","224641","0.0-2.0","p533640","A7204W9E8IR1R","3WPCIUYH1BELQU8EB2L3QVOOKYBTD4","3M81GAB8A2PI61GW6453FKKQGIUBQM","model","match","uniform","true","","","","","","","","","","","","","","","","","","","","","","","","","","","","","",""
"instructions","3","229680","0.0-3.0","p533640","A7204W9E8IR1R","3WPCIUYH1BELQU8EB2L3QVOOKYBTD4","3M81GAB8A2PI61GW6453FKKQGIUBQM","model","match","uniform","","","","","","[{""page_index"":0,""viewing_time"":5036.199999928474}]","5036.899999976158","","","","","","","","","","","","","","","","","","","","","","","",""
"explore-choice","4","232508","0.0-4.0","p533640","A7204W9E8IR1R","3WPCIUYH1BELQU8EB2L3QVOOKYBTD4","3M81GAB8A2PI61GW6453FKKQGIUBQM","model","match","uniform","","","","","","","2325.7999999523163","231247.5","233573.29999995232","[""stimuli/sheep.jpg"",""stimuli/hammer.jpg"",""stimuli/basketball.jpg"",""stimuli/horse.jpg""]","stimuli/sheep.jpg","stimuli/hammer.jpg","stimuli/basketball.jpg","stimuli/horse.jpg","pos4","stimuli/horse.jpg","","","3","64","64","64","stimuli/stars_8.png","65","","","","","","",""
"explore-choice","5","233982","0.0-5.0","p533640","A7204W9E8IR1R","3WPCIUYH1BELQU8EB2L3QVOOKYBTD4","3M81GAB8A2PI61GW6453FKKQGIUBQM","model","match","uniform","","","","","","","969.2999999523163","234075.60000002384","235044.89999997616","[""stimuli/hammer.jpg"",""stimuli/basketball.jpg"",""stimuli/horse.jpg"",""stimuli/sheep.jpg""]","stimuli/hammer.jpg","stimuli/basketball.jpg","stimuli/horse.jpg","stimuli/sheep.jpg","pos1","stimuli/hammer.jpg","","","0","8","8","8","stimuli/stars_2.png","9","","","","","","",""
"instructions","6","253293","0.0-6.0","p533640","A7204W9E8IR1R","3WPCIUYH1BELQU8EB2L3QVOOKYBTD4","3M81GAB8A2PI61GW6453FKKQGIUBQM","model","match","uniform","","","","","","[{""page_index"":0,""viewing_time"":19309.299999952316}]","19309.599999904633","","","","","","","","","","","","","","","","","","","","","","","",""
"explore-choice","7","258401","0.0-7.0","p533640","A7204W9E8IR1R","3WPCIUYH1BELQU8EB2L3QVOOKYBTD4","3M81GAB8A2PI61GW6453FKKQGIUBQM","model","match","uniform","","","","","","","4597.899999976158","254861.89999997616","259459.79999995232","[""stimuli/AF09_FO.jpg"",""stimuli/AF10_DO.jpg"",""stimuli/HF10_SC.jpg"",""stimuli/AM06_CC.jpg""]","stimuli/AF09_FO.jpg","stimuli/AF10_DO.jpg","stimuli/HF10_SC.jpg","stimuli/AM06_CC.jpg","pos4","stimuli/AM06_CC.jpg","CC","AM06","3","2.5","5","6","stimuli/stars_5.png","3.5","[""FO"",""DO"",""SC"",""CC""]","[""AF09"",""AF10"",""HF10"",""AM06""]","[4,3,10,5]","[4,2,8,6]","","",""
"show-reward","8","260406","0.0-8.0","p533640","A7204W9E8IR1R","3WPCIUYH1BELQU8EB2L3QVOOKYBTD4","3M81GAB8A2PI61GW6453FKKQGIUBQM","model","match","uniform","","","","","","","","259969.5","261973","","","","","","","","","","","","5","","stimuli/stars_5.png","3.5","","","","","stimuli/AM06_CC.jpg","",""
"explore-choice","9","265102","0.0-9.0","p533640","A7204W9E8IR1R","3WPCIUYH1BELQU8EB2L3QVOOKYBTD4","3M81GAB8A2PI61GW6453FKKQGIUBQM","model","match","uniform","","","","","","","4192.5","261974.20000004768","266166.7000000477","[""stimuli/AF09_DO.jpg"",""stimuli/AF10_CC.jpg"",""stimuli/AM06_FO.jpg"",""stimuli/HF10_SC.jpg""]","stimuli/AF09_DO.jpg","stimuli/AF10_CC.jpg","stimuli/AM06_FO.jpg","stimuli/HF10_SC.jpg","pos3","stimuli/AM06_FO.jpg","FO","AM06","2","2.5","5","6","stimuli/stars_5.png","6","[""DO"",""CC"",""FO"",""SC""]","[""AF09"",""AF10"",""AM06"",""HF10""]","[4,3,5,9]","[4,2,6,8]","","",""
"show-reward","10","267122","0.0-10.0","p533640","A7204W9E8IR1R","3WPCIUYH1BELQU8EB2L3QVOOKYBTD4","3M81GAB8A2PI61GW6453FKKQGIUBQM","model","match","uniform","","","","","","","","266671","268688.60000002384","","","","","","","","","","","","5","","stimuli/stars_5.png","6","","","","","stimuli/AM06_FO.jpg","",""
"explore-choice","11","270837","0.0-11.0","p533640","A7204W9E8IR1R","3WPCIUYH1BELQU8EB2L3QVOOKYBTD4","3M81GAB8A2PI61GW6453FKKQGIUBQM","model","match","uniform","","","","","","","3201.899999976158","268690.7000000477","271892.60000002384","[""stimuli/HF10_CC.jpg"",""stimuli/AM06_DO.jpg"",""stimuli/AF10_SC.jpg"",""stimuli/AF09_FO.jpg""]","stimuli/HF10_CC.jpg","stimuli/AM06_DO.jpg","stimuli/AF10_SC.jpg","stimuli/AF09_FO.jpg","pos4","stimuli/AF09_FO.jpg","FO","AF09","3","1.5","3","4","stimuli/stars_3.png","7.5","[""CC"",""DO"",""SC"",""FO""]","[""HF10"",""AM06"",""AF10"",""AF09""]","[6,5,0,3]","[8,6,2,4]","","",""
"show-reward","12","272842","0.0-12.0","p533640","A7204W9E8IR1R","3WPCIUYH1BELQU8EB2L3QVOOKYBTD4","3M81GAB8A2PI61GW6453FKKQGIUBQM","model","match","uniform","","","","","","","","272404.7999999523","274409.10000002384","","","","","","","","","","","","3","","stimuli/stars_3.png","7.5","","","","","stimuli/AF09_FO.jpg","",""
"explore-choice","13","275251","0.0-13.0","p533640","A7204W9E8IR1R","3WPCIUYH1BELQU8EB2L3QVOOKYBTD4","3M81GAB8A2PI61GW6453FKKQGIUBQM","model","match","uniform","","","","","","","1903.6999999284744","274410.2000000477","276313.89999997616","[""stimuli/AF09_CC.jpg"",""stimuli/AM06_SC.jpg"",""stimuli/AF10_DO.jpg"",""stimuli/HF10_FO.jpg""]","stimuli/AF09_CC.jpg","stimuli/AM06_SC.jpg","stimuli/AF10_DO.jpg","stimuli/HF10_FO.jpg","pos4","stimuli/HF10_FO.jpg","FO","HF10","3","3.5","7","8","stimuli/stars_7.png","11","[""CC"",""SC"",""DO"",""FO""]","[""AF09"",""AM06"",""AF10"",""HF10""]","[2,4,4,7]","[4,6,2,8]","","",""
"show-reward","14","277258","0.0-14.0","p533640","A7204W9E8IR1R","3WPCIUYH1BELQU8EB2L3QVOOKYBTD4","3M81GAB8A2PI61GW6453FKKQGIUBQM","model","match","uniform","","","","","","","","276819","278824.39999997616","","","","","","","","","","","","7","","stimuli/stars_7.png","11","","","","","stimuli/HF10_FO.jpg","",""
"explore-choice","15","278898","0.0-15.0","p533640","A7204W9E8IR1R","3WPCIUYH1BELQU8EB2L3QVOOKYBTD4","3M81GAB8A2PI61GW6453FKKQGIUBQM","model","match","uniform","","","","","","","1135.3000000715256","278825.7999999523","279961.10000002384","[""stimuli/HF10_CC.jpg"",""stimuli/AM06_DO.jpg"",""stimuli/AF09_SC.jpg"",""stimuli/AF10_FO.jpg""]","stimuli/HF10_CC.jpg","stimuli/AM06_DO.jpg","stimuli/AF09_SC.jpg","stimuli/AF10_FO.jpg","pos1","stimuli/HF10_CC.jpg","CC","HF10","0","3.5","7","8","stimuli/stars_7.png","14.5","[""CC"",""DO"",""SC"",""FO""]","[""HF10"",""AM06"",""AF09"",""AF10""]","[7,8,3,2]","[8,6,4,2]","","",""
"show-reward","16","280912","0.0-16.0","p533640","A7204W9E8IR1R","3WPCIUYH1BELQU8EB2L3QVOOKYBTD4","3M81GAB8A2PI61GW6453FKKQGIUBQM","model","match","uniform","","","","","","","","280465.7999999523","282479","","","","","","","","","","","","7","","stimuli/stars_7.png","14.5","","","","","stimuli/HF10_CC.jpg","",""
"explore-choice","17","283443","0.0-17.0","p533640","A7204W9E8IR1R","3WPCIUYH1BELQU8EB2L3QVOOKYBTD4","3M81GAB8A2PI61GW6453FKKQGIUBQM","model","match","uniform","","","","","","","2022.6999999284744","282480.2000000477","284502.89999997616","[""stimuli/AM06_SC.jpg"",""stimuli/AF10_CC.jpg"",""stimuli/HF10_FO.jpg"",""stimuli/AF09_DO.jpg""]","stimuli/AM06_SC.jpg","stimuli/AF10_CC.jpg","stimuli/HF10_FO.jpg","stimuli/AF09_DO.jpg","pos2","stimuli/AF10_CC.jpg","CC","AF10","1","0","0","2","stimuli/stars_0.png","14.5","[""SC"",""CC"",""FO"",""DO""]","[""AM06"",""AF10"",""HF10"",""AF09""]","[7,0,10,3]","[6,2,8,4]","","",""
"show-reward","18","285455","0.0-18.0","p533640","A7204W9E8IR1R","3WPCIUYH1BELQU8EB2L3QVOOKYBTD4","3M81GAB8A2PI61GW6453FKKQGIUBQM","model","match","uniform","","","","","","","","285010.5","287021","","","","","","","","","","","","0","","stimuli/stars_0.png","14.5","","","","","stimuli/AF10_CC.jpg","",""
"explore-choice","19","287045","0.0-19.0","p533640","A7204W9E8IR1R","3WPCIUYH1BELQU8EB2L3QVOOKYBTD4","3M81GAB8A2PI61GW6453FKKQGIUBQM","model","match","uniform","","","","","","","1085.8000000715256","287022.89999997616","288108.7000000477","[""stimuli/HF10_DO.jpg"",""stimuli/AF10_CC.jpg"",""stimuli/AF09_FO.jpg"",""stimuli/AM06_SC.jpg""]","stimuli/HF10_DO.jpg","stimuli/AF10_CC.jpg","stimuli/AF09_FO.jpg","stimuli/AM06_SC.jpg","pos1","stimuli/HF10_DO.jpg","DO","HF10","0","3.5","7","8","stimuli/stars_7.png","18","[""DO"",""CC"",""FO"",""SC""]","[""HF10"",""AF10"",""AF09"",""AM06""]","[7,4,5,7]","[8,2,4,6]","","",""
"show-reward","20","289051","0.0-20.0","p533640","A7204W9E8IR1R","3WPCIUYH1BELQU8EB2L3QVOOKYBTD4","3M81GAB8A2PI61GW6453FKKQGIUBQM","model","match","uniform","","","","","","","","288612.89999997616","290617.5","","","","","","","","","","","","7","","stimuli/stars_7.png","18","","","","","stimuli/HF10_DO.jpg","",""
"explore-choice","21","291015","0.0-21.0","p533640","A7204W9E8IR1R","3WPCIUYH1BELQU8EB2L3QVOOKYBTD4","3M81GAB8A2PI61GW6453FKKQGIUBQM","model","match","uniform","","","","","","","1455.7000000476837","290619.2999999523","292075","[""stimuli/AM06_SC.jpg"",""stimuli/AF09_FO.jpg"",""stimuli/HF10_CC.jpg"",""stimuli/AF10_DO.jpg""]","stimuli/AM06_SC.jpg","stimuli/AF09_FO.jpg","stimuli/HF10_CC.jpg","stimuli/AF10_DO.jpg","pos3","stimuli/HF10_CC.jpg","CC","HF10","2","3.5","7","8","stimuli/stars_7.png","21.5","[""SC"",""FO"",""CC"",""DO""]","[""AM06"",""AF09"",""HF10"",""AF10""]","[6,3,7,3]","[6,4,8,2]","","",""
"show-reward","22","293028","0.0-22.0","p533640","A7204W9E8IR1R","3WPCIUYH1BELQU8EB2L3QVOOKYBTD4","3M81GAB8A2PI61GW6453FKKQGIUBQM","model","match","uniform","","","","","","","","292582.7999999523","294594.10000002384","","","","","","","","","","","","7","","stimuli/stars_7.png","21.5","","","","","stimuli/HF10_CC.jpg","",""
"explore-choice","23","294412","0.0-23.0","p533640","A7204W9E8IR1R","3WPCIUYH1BELQU8EB2L3QVOOKYBTD4","3M81GAB8A2PI61GW6453FKKQGIUBQM","model","match","uniform","","","","","","","878.6000000238419","294595.2999999523","295473.89999997616","[""stimuli/AF10_CC.jpg"",""stimuli/AF09_FO.jpg"",""stimuli/HF10_SC.jpg"",""stimuli/AM06_DO.jpg""]","stimuli/AF10_CC.jpg","stimuli/AF09_FO.jpg","stimuli/HF10_SC.jpg","stimuli/AM06_DO.jpg","pos3","stimuli/HF10_SC.jpg","SC","HF10","2","3","6","8","stimuli/stars_6.png","24.5","[""CC"",""FO"",""SC"",""DO""]","[""AF10"",""AF09"",""HF10"",""AM06""]","[3,4,6,8]","[2,4,8,6]","","",""
"show-reward","24","296424","0.0-24.0","p533640","A7204W9E8IR1R","3WPCIUYH1BELQU8EB2L3QVOOKYBTD4","3M81GAB8A2PI61GW6453FKKQGIUBQM","model","match","uniform","","","","","","","","295979.2000000477","297990.39999997616","","","","","","","","","","","","6","","stimuli/stars_6.png","24.5","","","","","stimuli/HF10_SC.jpg","",""
"explore-choice","25","297838","0.0-25.0","p533640","A7204W9E8IR1R","3WPCIUYH1BELQU8EB2L3QVOOKYBTD4","3M81GAB8A2PI61GW6453FKKQGIUBQM","model","match","uniform","","","","","","","904.5","297991.39999997616","298895.89999997616","[""stimuli/AM06_CC.jpg"",""stimuli/AF09_DO.jpg"",""stimuli/AF10_SC.jpg"",""stimuli/HF10_FO.jpg""]","stimuli/AM06_CC.jpg","stimuli/AF09_DO.jpg","stimuli/AF10_SC.jpg","stimuli/HF10_FO.jpg","pos4","stimuli/HF10_FO.jpg","FO","HF10","3","5","10","8","stimuli/stars_10.png","29.5","[""CC"",""DO"",""SC"",""FO""]","[""AM06"",""AF09"",""AF10"",""HF10""]","[5,4,4,10]","[6,4,2,8]","","",""
"show-reward","26","299843","0.0-26.0","p533640","A7204W9E8IR1R","3WPCIUYH1BELQU8EB2L3QVOOKYBTD4","3M81GAB8A2PI61GW6453FKKQGIUBQM","model","match","uniform","","","","","","","","299405.2999999523","301409.5","","","","","","","","","","","","10","","stimuli/stars_10.png","29.5","","","","","stimuli/HF10_FO.jpg","",""
"explore-choice","27","301240","0.0-27.0","p533640","A7204W9E8IR1R","3WPCIUYH1BELQU8EB2L3QVOOKYBTD4","3M81GAB8A2PI61GW6453FKKQGIUBQM","model","match","uniform","","","","","","","892.3999999761581","301410.60000002384","302303","[""stimuli/AF10_SC.jpg"",""stimuli/AF09_CC.jpg"",""stimuli/HF10_DO.jpg"",""stimuli/AM06_FO.jpg""]","stimuli/AF10_SC.jpg","stimuli/AF09_CC.jpg","stimuli/HF10_DO.jpg","stimuli/AM06_FO.jpg","pos3","stimuli/HF10_DO.jpg","DO","HF10","2","3","6","8","stimuli/stars_6.png","32.5","[""SC"",""CC"",""DO"",""FO""]","[""AF10"",""AF09"",""HF10"",""AM06""]","[0,2,6,6]","[2,4,8,6]","","",""
"show-reward","28","303247","0.0-28.0","p533640","A7204W9E8IR1R","3WPCIUYH1BELQU8EB2L3QVOOKYBTD4","3M81GAB8A2PI61GW6453FKKQGIUBQM","model","match","uniform","","","","","","","","302807.89999997616","304813","","","","","","","","","","","","6","","stimuli/stars_6.png","32.5","","","","","stimuli/HF10_DO.jpg","",""
"explore-choice","29","307557","0.0-29.0","p533640","A7204W9E8IR1R","3WPCIUYH1BELQU8EB2L3QVOOKYBTD4","3M81GAB8A2PI61GW6453FKKQGIUBQM","model","match","uniform","","","","","","","3797.6999999284744","304814.60000002384","308612.2999999523","[""stimuli/AM06_DO.jpg"",""stimuli/AF09_CC.jpg"",""stimuli/HF10_SC.jpg"",""stimuli/AF10_FO.jpg""]","stimuli/AM06_DO.jpg","stimuli/AF09_CC.jpg","stimuli/HF10_SC.jpg","stimuli/AF10_FO.jpg","pos3","stimuli/HF10_SC.jpg","SC","HF10","2","4","8","8","stimuli/stars_8.png","36.5","[""DO"",""CC"",""SC"",""FO""]","[""AM06"",""AF09"",""HF10"",""AF10""]","[8,5,8,2]","[6,4,8,2]","","",""
"show-reward","30","309573","0.0-30.0","p533640","A7204W9E8IR1R","3WPCIUYH1BELQU8EB2L3QVOOKYBTD4","3M81GAB8A2PI61GW6453FKKQGIUBQM","model","match","uniform","","","","","","","","309124.7999999523","311139.7000000477","","","","","","","","","","","","8","","stimuli/stars_8.png","36.5","","","","","stimuli/HF10_SC.jpg","",""
"explore-choice","31","313096","0.0-31.0","p533640","A7204W9E8IR1R","3WPCIUYH1BELQU8EB2L3QVOOKYBTD4","3M81GAB8A2PI61GW6453FKKQGIUBQM","model","match","uniform","","","","","","","3012.399999976158","311141.5","314153.89999997616","[""stimuli/AF10_CC.jpg"",""stimuli/AF09_SC.jpg"",""stimuli/AM06_FO.jpg"",""stimuli/HF10_DO.jpg""]","stimuli/AF10_CC.jpg","stimuli/AF09_SC.jpg","stimuli/AM06_FO.jpg","stimuli/HF10_DO.jpg","pos4","stimuli/HF10_DO.jpg","DO","HF10","3","4","8","8","stimuli/stars_8.png","40.5","[""CC"",""SC"",""FO"",""DO""]","[""AF10"",""AF09"",""AM06"",""HF10""]","[2,2,6,8]","[2,4,6,8]","","",""
"show-reward","32","315101","0.0-32.0","p533640","A7204W9E8IR1R","3WPCIUYH1BELQU8EB2L3QVOOKYBTD4","3M81GAB8A2PI61GW6453FKKQGIUBQM","model","match","uniform","","","","","","","","314663.5","316667.10000002384","","","","","","","","","","","","8","","stimuli/stars_8.png","40.5","","","","","stimuli/HF10_DO.jpg","",""
"explore-choice","33","318160","0.0-33.0","p533640","A7204W9E8IR1R","3WPCIUYH1BELQU8EB2L3QVOOKYBTD4","3M81GAB8A2PI61GW6453FKKQGIUBQM","model","match","uniform","","","","","","","2554.5","316668.2000000477","319222.7000000477","[""stimuli/AF09_SC.jpg"",""stimuli/AF10_FO.jpg"",""stimuli/HF10_DO.jpg"",""stimuli/AM06_CC.jpg""]","stimuli/AF09_SC.jpg","stimuli/AF10_FO.jpg","stimuli/HF10_DO.jpg","stimuli/AM06_CC.jpg","pos3","stimuli/HF10_DO.jpg","DO","HF10","2","4.5","9","8","stimuli/stars_9.png","45","[""SC"",""FO"",""DO"",""CC""]","[""AF09"",""AF10"",""HF10"",""AM06""]","[3,3,9,6]","[4,2,8,6]","","",""
"show-reward","34","320167","0.0-34.0","p533640","A7204W9E8IR1R","3WPCIUYH1BELQU8EB2L3QVOOKYBTD4","3M81GAB8A2PI61GW6453FKKQGIUBQM","model","match","uniform","","","","","","","","319727.60000002384","321733.7999999523","","","","","","","","","","","","9","","stimuli/stars_9.png","45","","","","","stimuli/HF10_DO.jpg","",""
"explore-choice","35","322016","0.0-35.0","p533640","A7204W9E8IR1R","3WPCIUYH1BELQU8EB2L3QVOOKYBTD4","3M81GAB8A2PI61GW6453FKKQGIUBQM","model","match","uniform","","","","","","","1342.2999999523163","321735.60000002384","323077.89999997616","[""stimuli/AF09_DO.jpg"",""stimuli/AM06_SC.jpg"",""stimuli/AF10_FO.jpg"",""stimuli/HF10_CC.jpg""]","stimuli/AF09_DO.jpg","stimuli/AM06_SC.jpg","stimuli/AF10_FO.jpg","stimuli/HF10_CC.jpg","pos4","stimuli/HF10_CC.jpg","CC","HF10","3","4.5","9","8","stimuli/stars_9.png","49.5","[""DO"",""SC"",""FO"",""CC""]","[""AF09"",""AM06"",""AF10"",""HF10""]","[2,7,2,9]","[4,6,2,8]","","",""
"show-reward","36","324021","0.0-36.0","p533640","A7204W9E8IR1R","3WPCIUYH1BELQU8EB2L3QVOOKYBTD4","3M81GAB8A2PI61GW6453FKKQGIUBQM","model","match","uniform","","","","","","","","323583.7000000477","325586.7000000477","","","","","","","","","","","","9","","stimuli/stars_9.png","49.5","","","","","stimuli/HF10_CC.jpg","",""
"explore-choice","37","326135","0.0-37.0","p533640","A7204W9E8IR1R","3WPCIUYH1BELQU8EB2L3QVOOKYBTD4","3M81GAB8A2PI61GW6453FKKQGIUBQM","model","match","uniform","","","","","","","1607.1999999284744","325588.7000000477","327195.89999997616","[""stimuli/AF10_SC.jpg"",""stimuli/AF09_DO.jpg"",""stimuli/HF10_CC.jpg"",""stimuli/AM06_FO.jpg""]","stimuli/AF10_SC.jpg","stimuli/AF09_DO.jpg","stimuli/HF10_CC.jpg","stimuli/AM06_FO.jpg","pos3","stimuli/HF10_CC.jpg","CC","HF10","2","4","8","8","stimuli/stars_8.png","53.5","[""SC"",""DO"",""CC"",""FO""]","[""AF10"",""AF09"",""HF10"",""AM06""]","[1,3,8,6]","[2,4,8,6]","","",""
"show-reward","38","328147","0.0-38.0","p533640","A7204W9E8IR1R","3WPCIUYH1BELQU8EB2L3QVOOKYBTD4","3M81GAB8A2PI61GW6453FKKQGIUBQM","model","match","uniform","","","","","","","","327702.2999999523","329713.2000000477","","","","","","","","","","","","8","","stimuli/stars_8.png","53.5","","","","","stimuli/HF10_CC.jpg","",""
"explore-choice","39","331457","0.0-39.0","p533640","A7204W9E8IR1R","3WPCIUYH1BELQU8EB2L3QVOOKYBTD4","3M81GAB8A2PI61GW6453FKKQGIUBQM","model","match","uniform","","","","","","","2805.2999999523163","329715.7000000477","332521","[""stimuli/AM06_CC.jpg"",""stimuli/HF10_FO.jpg"",""stimuli/AF10_DO.jpg"",""stimuli/AF09_SC.jpg""]","stimuli/AM06_CC.jpg","stimuli/HF10_FO.jpg","stimuli/AF10_DO.jpg","stimuli/AF09_SC.jpg","pos2","stimuli/HF10_FO.jpg","FO","HF10","1","4","8","8","stimuli/stars_8.png","57.5","[""CC"",""FO"",""DO"",""SC""]","[""AM06"",""HF10"",""AF10"",""AF09""]","[6,8,2,2]","[6,8,2,4]","","",""
"show-reward","40","333476","0.0-40.0","p533640","A7204W9E8IR1R","3WPCIUYH1BELQU8EB2L3QVOOKYBTD4","3M81GAB8A2PI61GW6453FKKQGIUBQM","model","match","uniform","","","","","","","","333025.2999999523","335042.7999999523","","","","","","","","","","","","8","","stimuli/stars_8.png","57.5","","","","","stimuli/HF10_FO.jpg","",""
"explore-choice","41","335410","0.0-41.0","p533640","A7204W9E8IR1R","3WPCIUYH1BELQU8EB2L3QVOOKYBTD4","3M81GAB8A2PI61GW6453FKKQGIUBQM","model","match","uniform","","","","","","","1427.7000000476837","335043.89999997616","336471.60000002384","[""stimuli/AM06_SC.jpg"",""stimuli/AF09_CC.jpg"",""stimuli/AF10_FO.jpg"",""stimuli/HF10_DO.jpg""]","stimuli/AM06_SC.jpg","stimuli/AF09_CC.jpg","stimuli/AF10_FO.jpg","stimuli/HF10_DO.jpg","pos4","stimuli/HF10_DO.jpg","DO","HF10","3","4.5","9","8","stimuli/stars_9.png","62","[""SC"",""CC"",""FO"",""DO""]","[""AM06"",""AF09"",""AF10"",""HF10""]","[5,3,4,9]","[6,4,2,8]","","",""
"show-reward","42","337417","0.0-42.0","p533640","A7204W9E8IR1R","3WPCIUYH1BELQU8EB2L3QVOOKYBTD4","3M81GAB8A2PI61GW6453FKKQGIUBQM","model","match","uniform","","","","","","","","336977.39999997616","338982.7999999523","","","","","","","","","","","","9","","stimuli/stars_9.png","62","","","","","stimuli/HF10_DO.jpg","",""
"explore-choice","43","338857","0.0-43.0","p533640","A7204W9E8IR1R","3WPCIUYH1BELQU8EB2L3QVOOKYBTD4","3M81GAB8A2PI61GW6453FKKQGIUBQM","model","match","uniform","","","","","","","924.3999999761581","338985.5","339909.89999997616","[""stimuli/AM06_DO.jpg"",""stimuli/AF10_SC.jpg"",""stimuli/HF10_FO.jpg"",""stimuli/AF09_CC.jpg""]","stimuli/AM06_DO.jpg","stimuli/AF10_SC.jpg","stimuli/HF10_FO.jpg","stimuli/AF09_CC.jpg","pos3","stimuli/HF10_FO.jpg","FO","HF10","2","4","8","8","stimuli/stars_8.png","66","[""DO"",""SC"",""FO"",""CC""]","[""AM06"",""AF10"",""HF10"",""AF09""]","[4,2,8,2]","[6,2,8,4]","","",""
"show-reward","44","340877","0.0-44.0","p533640","A7204W9E8IR1R","3WPCIUYH1BELQU8EB2L3QVOOKYBTD4","3M81GAB8A2PI61GW6453FKKQGIUBQM","model","match","uniform","","","","","","","","340424.39999997616","342443.10000002384","","","","","","","","","","","","8","","stimuli/stars_8.png","66","","","","","stimuli/HF10_FO.jpg","",""
"explore-choice","45","345201","0.0-45.0","p533640","A7204W9E8IR1R","3WPCIUYH1BELQU8EB2L3QVOOKYBTD4","3M81GAB8A2PI61GW6453FKKQGIUBQM","model","match","uniform","","","","","","","3822.600000023842","342444","346266.60000002384","[""stimuli/HF10_FO.jpg"",""stimuli/AF10_CC.jpg"",""stimuli/AM06_DO.jpg"",""stimuli/AF09_SC.jpg""]","stimuli/HF10_FO.jpg","stimuli/AF10_CC.jpg","stimuli/AM06_DO.jpg","stimuli/AF09_SC.jpg","pos1","stimuli/HF10_FO.jpg","FO","HF10","0","3","6","8","stimuli/stars_6.png","69","[""FO"",""CC"",""DO"",""SC""]","[""HF10"",""AF10"",""AM06"",""AF09""]","[6,3,6,5]","[8,2,6,4]","","",""
"show-reward","46","347211","0.0-46.0","p533640","A7204W9E8IR1R","3WPCIUYH1BELQU8EB2L3QVOOKYBTD4","3M81GAB8A2PI61GW6453FKKQGIUBQM","model","match","uniform","","","","","","","","346769.39999997616","348777.7000000477","","","","","","","","","","","","6","","stimuli/stars_6.png","69","","","","","stimuli/HF10_FO.jpg","",""
"explore-choice","47","348855","0.0-47.0","p533640","A7204W9E8IR1R","3WPCIUYH1BELQU8EB2L3QVOOKYBTD4","3M81GAB8A2PI61GW6453FKKQGIUBQM","model","match","uniform","","","","","","","1134.2999999523163","348779.5","349913.7999999523","[""stimuli/HF10_DO.jpg"",""stimuli/AF09_FO.jpg"",""stimuli/AM06_CC.jpg"",""stimuli/AF10_SC.jpg""]","stimuli/HF10_DO.jpg","stimuli/AF09_FO.jpg","stimuli/AM06_CC.jpg","stimuli/AF10_SC.jpg","pos1","stimuli/HF10_DO.jpg","DO","HF10","0","4.5","9","8","stimuli/stars_9.png","73.5","[""DO"",""FO"",""CC"",""SC""]","[""HF10"",""AF09"",""AM06"",""AF10""]","[9,5,4,4]","[8,4,6,2]","","",""
"show-reward","48","350867","0.0-48.0","p533640","A7204W9E8IR1R","3WPCIUYH1BELQU8EB2L3QVOOKYBTD4","3M81GAB8A2PI61GW6453FKKQGIUBQM","model","match","uniform","","","","","","","","350423.2000000477","352434.2000000477","","","","","","","","","","","","9","","stimuli/stars_9.png","73.5","","","","","stimuli/HF10_DO.jpg","",""
"explore-choice","49","352383","0.0-49.0","p533640","A7204W9E8IR1R","3WPCIUYH1BELQU8EB2L3QVOOKYBTD4","3M81GAB8A2PI61GW6453FKKQGIUBQM","model","match","uniform","","","","","","","1012.7000000476837","352435.2999999523","353448","[""stimuli/AM06_FO.jpg"",""stimuli/AF10_DO.jpg"",""stimuli/AF09_CC.jpg"",""stimuli/HF10_SC.jpg""]","stimuli/AM06_FO.jpg","stimuli/AF10_DO.jpg","stimuli/AF09_CC.jpg","stimuli/HF10_SC.jpg","pos4","stimuli/HF10_SC.jpg","SC","HF10","3","3","6","8","stimuli/stars_6.png","76.5","[""FO"",""DO"",""CC"",""SC""]","[""AM06"",""AF10"",""AF09"",""HF10""]","[7,1,3,6]","[6,2,4,8]","","",""
"show-reward","50","354393","0.0-50.0","p533640","A7204W9E8IR1R","3WPCIUYH1BELQU8EB2L3QVOOKYBTD4","3M81GAB8A2PI61GW6453FKKQGIUBQM","model","match","uniform","","","","","","","","353950.7000000477","355959.60000002384","","","","","","","","","","","","6","","stimuli/stars_6.png","76.5","","","","","stimuli/HF10_SC.jpg","",""
"explore-choice","51","355834","0.0-51.0","p533640","A7204W9E8IR1R","3WPCIUYH1BELQU8EB2L3QVOOKYBTD4","3M81GAB8A2PI61GW6453FKKQGIUBQM","model","match","uniform","","","","","","","935.1000000238419","355960.60000002384","356895.7000000477","[""stimuli/AF09_DO.jpg"",""stimuli/HF10_SC.jpg"",""stimuli/AF10_FO.jpg"",""stimuli/AM06_CC.jpg""]","stimuli/AF09_DO.jpg","stimuli/HF10_SC.jpg","stimuli/AF10_FO.jpg","stimuli/AM06_CC.jpg","pos4","stimuli/AM06_CC.jpg","CC","AM06","3","4","8","6","stimuli/stars_8.png","80.5","[""DO"",""SC"",""FO"",""CC""]","[""AF09"",""HF10"",""AF10"",""AM06""]","[6,9,2,8]","[4,8,2,6]","","",""
"show-reward","52","357845","0.0-52.0","p533640","A7204W9E8IR1R","3WPCIUYH1BELQU8EB2L3QVOOKYBTD4","3M81GAB8A2PI61GW6453FKKQGIUBQM","model","match","uniform","","","","","","","","357402.2000000477","359411.89999997616","","","","","","","","","","","","8","","stimuli/stars_8.png","80.5","","","","","stimuli/AM06_CC.jpg","",""
"explore-choice","53","359240","0.0-53.0","p533640","A7204W9E8IR1R","3WPCIUYH1BELQU8EB2L3QVOOKYBTD4","3M81GAB8A2PI61GW6453FKKQGIUBQM","model","match","uniform","","","","","","","887.3999999761581","359413.39999997616","360300.7999999523","[""stimuli/AF10_DO.jpg"",""stimuli/AF09_SC.jpg"",""stimuli/HF10_CC.jpg"",""stimuli/AM06_FO.jpg""]","stimuli/AF10_DO.jpg","stimuli/AF09_SC.jpg","stimuli/HF10_CC.jpg","stimuli/AM06_FO.jpg","pos4","stimuli/AM06_FO.jpg","FO","AM06","3","3.5","7","6","stimuli/stars_7.png","84","[""DO"",""SC"",""CC"",""FO""]","[""AF10"",""AF09"",""HF10"",""AM06""]","[3,3,10,7]","[2,4,8,6]","","",""
"show-reward","54","361259","0.0-54.0","p533640","A7204W9E8IR1R","3WPCIUYH1BELQU8EB2L3QVOOKYBTD4","3M81GAB8A2PI61GW6453FKKQGIUBQM","model","match","uniform","","","","","","","","360808.2999999523","362826.2999999523","","","","","","","","","","","","7","","stimuli/stars_7.png","84","","","","","stimuli/AM06_FO.jpg","",""
"explore-choice","55","362786","0.0-55.0","p533640","A7204W9E8IR1R","3WPCIUYH1BELQU8EB2L3QVOOKYBTD4","3M81GAB8A2PI61GW6453FKKQGIUBQM","model","match","uniform","","","","","","","1014.7000000476837","362827.89999997616","363842.60000002384","[""stimuli/AF10_DO.jpg"",""stimuli/AM06_CC.jpg"",""stimuli/AF09_SC.jpg"",""stimuli/HF10_FO.jpg""]","stimuli/AF10_DO.jpg","stimuli/AM06_CC.jpg","stimuli/AF09_SC.jpg","stimuli/HF10_FO.jpg","pos4","stimuli/HF10_FO.jpg","FO","HF10","3","4","8","8","stimuli/stars_8.png","88","[""DO"",""CC"",""SC"",""FO""]","[""AF10"",""AM06"",""AF09"",""HF10""]","[2,6,2,8]","[2,6,4,8]","","",""
"show-reward","56","364802","0.0-56.0","p533640","A7204W9E8IR1R","3WPCIUYH1BELQU8EB2L3QVOOKYBTD4","3M81GAB8A2PI61GW6453FKKQGIUBQM","model","match","uniform","","","","","","","","364353.60000002384","366369.2000000477","","","","","","","","","","","","8","","stimuli/stars_8.png","88","","","","","stimuli/HF10_FO.jpg","",""
"explore-choice","57","366270","0.0-57.0","p533640","A7204W9E8IR1R","3WPCIUYH1BELQU8EB2L3QVOOKYBTD4","3M81GAB8A2PI61GW6453FKKQGIUBQM","model","match","uniform","","","","","","","950.8000000715256","366370.7999999523","367321.60000002384","[""stimuli/AM06_DO.jpg"",""stimuli/HF10_FO.jpg"",""stimuli/AF10_CC.jpg"",""stimuli/AF09_SC.jpg""]","stimuli/AM06_DO.jpg","stimuli/HF10_FO.jpg","stimuli/AF10_CC.jpg","stimuli/AF09_SC.jpg","pos2","stimuli/HF10_FO.jpg","FO","HF10","1","3","6","8","stimuli/stars_6.png","91","[""DO"",""FO"",""CC"",""SC""]","[""AM06"",""HF10"",""AF10"",""AF09""]","[6,6,3,5]","[6,8,2,4]","","",""
"show-reward","58","368293","0.0-58.0","p533640","A7204W9E8IR1R","3WPCIUYH1BELQU8EB2L3QVOOKYBTD4","3M81GAB8A2PI61GW6453FKKQGIUBQM","model","match","uniform","","","","","","","","367837.60000002384","369859.7999999523","","","","","","","","","","","","6","","stimuli/stars_6.png","91","","","","","stimuli/HF10_FO.jpg","",""
"explore-choice","59","369826","0.0-59.0","p533640","A7204W9E8IR1R","3WPCIUYH1BELQU8EB2L3QVOOKYBTD4","3M81GAB8A2PI61GW6453FKKQGIUBQM","model","match","uniform","","","","","","","1017.6999999284744","369861.7000000477","370879.39999997616","[""stimuli/AF10_FO.jpg"",""stimuli/HF10_DO.jpg"",""stimuli/AF09_CC.jpg"",""stimuli/AM06_SC.jpg""]","stimuli/AF10_FO.jpg","stimuli/HF10_DO.jpg","stimuli/AF09_CC.jpg","stimuli/AM06_SC.jpg","pos2","stimuli/HF10_DO.jpg","DO","HF10","1","4.5","9","8","stimuli/stars_9.png","95.5","[""FO"",""DO"",""CC"",""SC""]","[""AF10"",""HF10"",""AF09"",""AM06""]","[4,9,3,5]","[2,8,4,6]","","",""
"show-reward","60","371844","0.0-60.0","p533640","A7204W9E8IR1R","3WPCIUYH1BELQU8EB2L3QVOOKYBTD4","3M81GAB8A2PI61GW6453FKKQGIUBQM","model","match","uniform","","","","","","","","371394.89999997616","373410","","","","","","","","","","","","9","","stimuli/stars_9.png","95.5","","","","","stimuli/HF10_DO.jpg","",""
"explore-choice","61","373481","0.0-61.0","p533640","A7204W9E8IR1R","3WPCIUYH1BELQU8EB2L3QVOOKYBTD4","3M81GAB8A2PI61GW6453FKKQGIUBQM","model","match","uniform","","","","","","","1130.5","373412","374542.5","[""stimuli/AM06_CC.jpg"",""stimuli/HF10_DO.jpg"",""stimuli/AF09_SC.jpg"",""stimuli/AF10_FO.jpg""]","stimuli/AM06_CC.jpg","stimuli/HF10_DO.jpg","stimuli/AF09_SC.jpg","stimuli/AF10_FO.jpg","pos1","stimuli/AM06_CC.jpg","CC","AM06","0","3","6","6","stimuli/stars_6.png","98.5","[""CC"",""DO"",""SC"",""FO""]","[""AM06"",""HF10"",""AF09"",""AF10""]","[6,9,3,3]","[6,8,4,2]","","",""
"show-reward","62","375487","0.0-62.0","p533640","A7204W9E8IR1R","3WPCIUYH1BELQU8EB2L3QVOOKYBTD4","3M81GAB8A2PI61GW6453FKKQGIUBQM","model","match","uniform","","","","","","","","375049.2000000477","377053.5","","","","","","","","","","","","6","","stimuli/stars_6.png","98.5","","","","","stimuli/AM06_CC.jpg","",""
"explore-choice","63","377119","0.0-63.0","p533640","A7204W9E8IR1R","3WPCIUYH1BELQU8EB2L3QVOOKYBTD4","3M81GAB8A2PI61GW6453FKKQGIUBQM","model","match","uniform","","","","","","","1125.0999999046326","377055.7000000477","378180.7999999523","[""stimuli/AF10_SC.jpg"",""stimuli/AF09_CC.jpg"",""stimuli/HF10_DO.jpg"",""stimuli/AM06_FO.jpg""]","stimuli/AF10_SC.jpg","stimuli/AF09_CC.jpg","stimuli/HF10_DO.jpg","stimuli/AM06_FO.jpg","pos4","stimuli/AM06_FO.jpg","FO","AM06","3","3","6","6","stimuli/stars_6.png","101.5","[""SC"",""CC"",""DO"",""FO""]","[""AF10"",""AF09"",""HF10"",""AM06""]","[0,2,6,6]","[2,4,8,6]","","",""
"show-reward","64","379132","0.0-64.0","p533640","A7204W9E8IR1R","3WPCIUYH1BELQU8EB2L3QVOOKYBTD4","3M81GAB8A2PI61GW6453FKKQGIUBQM","model","match","uniform","","","","","","","","378687.60000002384","380699.2999999523","","","","","","","","","","","","6","","stimuli/stars_6.png","101.5","","","","","stimuli/AM06_FO.jpg","",""
"explore-choice","65","381055","0.0-65.0","p533640","A7204W9E8IR1R","3WPCIUYH1BELQU8EB2L3QVOOKYBTD4","3M81GAB8A2PI61GW6453FKKQGIUBQM","model","match","uniform","","","","","","","1409.8999999761581","380701","382110.89999997616","[""stimuli/AF09_FO.jpg"",""stimuli/HF10_SC.jpg"",""stimuli/AM06_CC.jpg"",""stimuli/AF10_DO.jpg""]","stimuli/AF09_FO.jpg","stimuli/HF10_SC.jpg","stimuli/AM06_CC.jpg","stimuli/AF10_DO.jpg","pos2","stimuli/HF10_SC.jpg","SC","HF10","1","5","10","8","stimuli/stars_10.png","106.5","[""FO"",""SC"",""CC"",""DO""]","[""AF09"",""HF10"",""AM06"",""AF10""]","[4,10,5,3]","[4,8,6,2]","","",""
"show-reward","66","383060","0.0-66.0","p533640","A7204W9E8IR1R","3WPCIUYH1BELQU8EB2L3QVOOKYBTD4","3M81GAB8A2PI61GW6453FKKQGIUBQM","model","match","uniform","","","","","","","","382622.7000000477","384627","","","","","","","","","","","","10","","stimuli/stars_10.png","106.5","","","","","stimuli/HF10_SC.jpg","",""
"explore-choice","67","384526","0.0-67.0","p533640","A7204W9E8IR1R","3WPCIUYH1BELQU8EB2L3QVOOKYBTD4","3M81GAB8A2PI61GW6453FKKQGIUBQM","model","match","uniform","","","","","","","949.1999999284744","384628.7000000477","385577.89999997616","[""stimuli/AF09_DO.jpg"",""stimuli/AM06_FO.jpg"",""stimuli/AF10_CC.jpg"",""stimuli/HF10_SC.jpg""]","stimuli/AF09_DO.jpg","stimuli/AM06_FO.jpg","stimuli/AF10_CC.jpg","stimuli/HF10_SC.jpg","pos4","stimuli/HF10_SC.jpg","SC","HF10","3","4.5","9","8","stimuli/stars_9.png","111","[""DO"",""FO"",""CC"",""SC""]","[""AF09"",""AM06"",""AF10"",""HF10""]","[4,5,3,9]","[4,6,2,8]","","",""
"show-reward","68","386530","0.0-68.0","p533640","A7204W9E8IR1R","3WPCIUYH1BELQU8EB2L3QVOOKYBTD4","3M81GAB8A2PI61GW6453FKKQGIUBQM","model","match","uniform","","","","","","","","386094.10000002384","388096.7000000477","","","","","","","","","","","","9","","stimuli/stars_9.png","111","","","","","stimuli/HF10_SC.jpg","",""
"explore-choice","69","388607","0.0-69.0","p533640","A7204W9E8IR1R","3WPCIUYH1BELQU8EB2L3QVOOKYBTD4","3M81GAB8A2PI61GW6453FKKQGIUBQM","model","match","uniform","","","","","","","1566.1000000238419","388097.7999999523","389663.89999997616","[""stimuli/HF10_FO.jpg"",""stimuli/AF09_DO.jpg"",""stimuli/AM06_CC.jpg"",""stimuli/AF10_SC.jpg""]","stimuli/HF10_FO.jpg","stimuli/AF09_DO.jpg","stimuli/AM06_CC.jpg","stimuli/AF10_SC.jpg","pos1","stimuli/HF10_FO.jpg","FO","HF10","0","5","10","8","stimuli/stars_10.png","116","[""FO"",""DO"",""CC"",""SC""]","[""HF10"",""AF09"",""AM06"",""AF10""]","[10,4,5,4]","[8,4,6,2]","","",""
"show-reward","70","390610","0.0-70.0","p533640","A7204W9E8IR1R","3WPCIUYH1BELQU8EB2L3QVOOKYBTD4","3M81GAB8A2PI61GW6453FKKQGIUBQM","model","match","uniform","","","","","","","","390174.39999997616","392177","","","","","","","","","","","","10","","stimuli/stars_10.png","116","","","","","stimuli/HF10_FO.jpg","",""
"explore-choice","71","392484","0.0-71.0","p533640","A7204W9E8IR1R","3WPCIUYH1BELQU8EB2L3QVOOKYBTD4","3M81GAB8A2PI61GW6453FKKQGIUBQM","model","match","uniform","","","","","","","1364.4000000953674","392177.7999999523","393542.2000000477","[""stimuli/HF10_SC.jpg"",""stimuli/AF09_FO.jpg"",""stimuli/AF10_CC.jpg"",""stimuli/AM06_DO.jpg""]","stimuli/HF10_SC.jpg","stimuli/AF09_FO.jpg","stimuli/AF10_CC.jpg","stimuli/AM06_DO.jpg","pos1","stimuli/HF10_SC.jpg","SC","HF10","0","3","6","8","stimuli/stars_6.png","119","[""SC"",""FO"",""CC"",""DO""]","[""HF10"",""AF09"",""AF10"",""AM06""]","[6,4,3,8]","[8,4,2,6]","","",""
"show-reward","72","394488","0.0-72.0","p533640","A7204W9E8IR1R","3WPCIUYH1BELQU8EB2L3QVOOKYBTD4","3M81GAB8A2PI61GW6453FKKQGIUBQM","model","match","uniform","","","","","","","","394051.89999997616","396055.10000002384","","","","","","","","","","","","6","","stimuli/stars_6.png","119","","","","","stimuli/HF10_SC.jpg","",""
"explore-choice","73","396880","0.0-73.0","p533640","A7204W9E8IR1R","3WPCIUYH1BELQU8EB2L3QVOOKYBTD4","3M81GAB8A2PI61GW6453FKKQGIUBQM","model","match","uniform","","","","","","","1883.5","396056.2999999523","397939.7999999523","[""stimuli/AF09_DO.jpg"",""stimuli/HF10_FO.jpg"",""stimuli/AM06_SC.jpg"",""stimuli/AF10_CC.jpg""]","stimuli/AF09_DO.jpg","stimuli/HF10_FO.jpg","stimuli/AM06_SC.jpg","stimuli/AF10_CC.jpg","pos3","stimuli/AM06_SC.jpg","SC","AM06","2","3.5","7","6","stimuli/stars_7.png","122.5","[""DO"",""FO"",""SC"",""CC""]","[""AF09"",""HF10"",""AM06"",""AF10""]","[3,10,7,0]","[4,8,6,2]","","",""
"show-reward","74","398897","0.0-74.0","p533640","A7204W9E8IR1R","3WPCIUYH1BELQU8EB2L3QVOOKYBTD4","3M81GAB8A2PI61GW6453FKKQGIUBQM","model","match","uniform","","","","","","","","398447.7000000477","400463.2999999523","","","","","","","","","","","","7","","stimuli/stars_7.png","122.5","","","","","stimuli/AM06_SC.jpg","",""
"explore-choice","75","401829","0.0-75.0","p533640","A7204W9E8IR1R","3WPCIUYH1BELQU8EB2L3QVOOKYBTD4","3M81GAB8A2PI61GW6453FKKQGIUBQM","model","match","uniform","","","","","","","2425","400464.7000000477","402889.7000000477","[""stimuli/AM06_CC.jpg"",""stimuli/AF10_SC.jpg"",""stimuli/HF10_DO.jpg"",""stimuli/AF09_FO.jpg""]","stimuli/AM06_CC.jpg","stimuli/AF10_SC.jpg","stimuli/HF10_DO.jpg","stimuli/AF09_FO.jpg","pos1","stimuli/AM06_CC.jpg","CC","AM06","0","2","4","6","stimuli/stars_4.png","124.5","[""CC"",""SC"",""DO"",""FO""]","[""AM06"",""AF10"",""HF10"",""AF09""]","[4,4,9,5]","[6,2,8,4]","","",""
"show-reward","76","403846","0.0-76.0","p533640","A7204W9E8IR1R","3WPCIUYH1BELQU8EB2L3QVOOKYBTD4","3M81GAB8A2PI61GW6453FKKQGIUBQM","model","match","uniform","","","","","","","","403397.89999997616","405412.2999999523","","","","","","","","","","","","4","","stimuli/stars_4.png","124.5","","","","","stimuli/AM06_CC.jpg","",""
"explore-choice","77","405399","0.0-77.0","p533640","A7204W9E8IR1R","3WPCIUYH1BELQU8EB2L3QVOOKYBTD4","3M81GAB8A2PI61GW6453FKKQGIUBQM","model","match","uniform","","","","","","","1041.0999999046326","405414.2000000477","406455.2999999523","[""stimuli/AF10_SC.jpg"",""stimuli/AF09_FO.jpg"",""stimuli/AM06_DO.jpg"",""stimuli/HF10_CC.jpg""]","stimuli/AF10_SC.jpg","stimuli/AF09_FO.jpg","stimuli/AM06_DO.jpg","stimuli/HF10_CC.jpg","pos4","stimuli/HF10_CC.jpg","CC","HF10","3","3","6","8","stimuli/stars_6.png","127.5","[""SC"",""FO"",""DO"",""CC""]","[""AF10"",""AF09"",""AM06"",""HF10""]","[0,3,5,6]","[2,4,6,8]","","",""
"show-reward","78","407422","0.0-78.0","p533640","A7204W9E8IR1R","3WPCIUYH1BELQU8EB2L3QVOOKYBTD4","3M81GAB8A2PI61GW6453FKKQGIUBQM","model","match","uniform","","","","","","","","406967.60000002384","408987","","","","","","","","","","","","6","","stimuli/stars_6.png","127.5","","","","","stimuli/HF10_CC.jpg","",""
"explore-choice","79","409518","0.0-79.0","p533640","A7204W9E8IR1R","3WPCIUYH1BELQU8EB2L3QVOOKYBTD4","3M81GAB8A2PI61GW6453FKKQGIUBQM","model","match","uniform","","","","","","","1591.9000000953674","408990.7999999523","410582.7000000477","[""stimuli/AM06_SC.jpg"",""stimuli/AF09_CC.jpg"",""stimuli/HF10_FO.jpg"",""stimuli/AF10_DO.jpg""]","stimuli/AM06_SC.jpg","stimuli/AF09_CC.jpg","stimuli/HF10_FO.jpg","stimuli/AF10_DO.jpg","pos2","stimuli/AF09_CC.jpg","CC","AF09","1","1","2","4","stimuli/stars_2.png","128.5","[""SC"",""CC"",""FO"",""DO""]","[""AM06"",""AF09"",""HF10"",""AF10""]","[4,2,7,4]","[6,4,8,2]","","",""
"show-reward","80","411539","0.0-80.0","p533640","A7204W9E8IR1R","3WPCIUYH1BELQU8EB2L3QVOOKYBTD4","3M81GAB8A2PI61GW6453FKKQGIUBQM","model","match","uniform","","","","","","","","411087.2999999523","413105.89999997616","","","","","","","","","","","","2","","stimuli/stars_2.png","128.5","","","","","stimuli/AF09_CC.jpg","",""
"explore-choice","81","413136","0.0-81.0","p533640","A7204W9E8IR1R","3WPCIUYH1BELQU8EB2L3QVOOKYBTD4","3M81GAB8A2PI61GW6453FKKQGIUBQM","model","match","uniform","","","","","","","1080.8999999761581","413107.7000000477","414188.60000002384","[""stimuli/HF10_CC.jpg"",""stimuli/AF10_SC.jpg"",""stimuli/AM06_FO.jpg"",""stimuli/AF09_DO.jpg""]","stimuli/HF10_CC.jpg","stimuli/AF10_SC.jpg","stimuli/AM06_FO.jpg","stimuli/AF09_DO.jpg","pos1","stimuli/HF10_CC.jpg","CC","HF10","0","4","8","8","stimuli/stars_8.png","132.5","[""CC"",""SC"",""FO"",""DO""]","[""HF10"",""AF10"",""AM06"",""AF09""]","[8,1,6,3]","[8,2,6,4]","","",""
"show-reward","82","415151","0.0-82.0","p533640","A7204W9E8IR1R","3WPCIUYH1BELQU8EB2L3QVOOKYBTD4","3M81GAB8A2PI61GW6453FKKQGIUBQM","model","match","uniform","","","","","","","","414704.60000002384","416717.60000002384","","","","","","","","","","","","8","","stimuli/stars_8.png","132.5","","","","","stimuli/HF10_CC.jpg","",""
"explore-choice","83","416222","0.0-83.0","p533640","A7204W9E8IR1R","3WPCIUYH1BELQU8EB2L3QVOOKYBTD4","3M81GAB8A2PI61GW6453FKKQGIUBQM","model","match","uniform","","","","","","","564.3000000715256","416719.39999997616","417283.7000000477","[""stimuli/HF10_CC.jpg"",""stimuli/AF09_DO.jpg"",""stimuli/AF10_FO.jpg"",""stimuli/AM06_SC.jpg""]","stimuli/HF10_CC.jpg","stimuli/AF09_DO.jpg","stimuli/AF10_FO.jpg","stimuli/AM06_SC.jpg","pos1","stimuli/HF10_CC.jpg","CC","HF10","0","4.5","9","8","stimuli/stars_9.png","137","[""CC"",""DO"",""FO"",""SC""]","[""HF10"",""AF09"",""AF10"",""AM06""]","[9,2,2,7]","[8,4,2,6]","","",""
"show-reward","84","418235","0.0-84.0","p533640","A7204W9E8IR1R","3WPCIUYH1BELQU8EB2L3QVOOKYBTD4","3M81GAB8A2PI61GW6453FKKQGIUBQM","model","match","uniform","","","","","","","","417790","419801.60000002384","","","","","","","","","","","","9","","stimuli/stars_9.png","137","","","","","stimuli/HF10_CC.jpg","",""
"explore-choice","85","419638","0.0-85.0","p533640","A7204W9E8IR1R","3WPCIUYH1BELQU8EB2L3QVOOKYBTD4","3M81GAB8A2PI61GW6453FKKQGIUBQM","model","match","uniform","","","","","","","886.7000000476837","419802.7999999523","420689.5","[""stimuli/AF09_SC.jpg"",""stimuli/AM06_FO.jpg"",""stimuli/AF10_CC.jpg"",""stimuli/HF10_DO.jpg""]","stimuli/AF09_SC.jpg","stimuli/AM06_FO.jpg","stimuli/AF10_CC.jpg","stimuli/HF10_DO.jpg","pos4","stimuli/HF10_DO.jpg","DO","HF10","3","4","8","8","stimuli/stars_8.png","141","[""SC"",""FO"",""CC"",""DO""]","[""AF09"",""AM06"",""AF10"",""HF10""]","[2,6,2,8]","[4,6,2,8]","","",""
"show-reward","86","421655","0.0-86.0","p533640","A7204W9E8IR1R","3WPCIUYH1BELQU8EB2L3QVOOKYBTD4","3M81GAB8A2PI61GW6453FKKQGIUBQM","model","match","uniform","","","","","","","","421205.7999999523","423221.60000002384","","","","","","","","","","","","8","","stimuli/stars_8.png","141","","","","","stimuli/HF10_DO.jpg","",""
"explore-choice","87","422905","0.0-87.0","p533640","A7204W9E8IR1R","3WPCIUYH1BELQU8EB2L3QVOOKYBTD4","3M81GAB8A2PI61GW6453FKKQGIUBQM","model","match","uniform","","","","","","","737.3999999761581","423223.39999997616","423960.7999999523","[""stimuli/AM06_CC.jpg"",""stimuli/AF10_FO.jpg"",""stimuli/AF09_DO.jpg"",""stimuli/HF10_SC.jpg""]","stimuli/AM06_CC.jpg","stimuli/AF10_FO.jpg","stimuli/AF09_DO.jpg","stimuli/HF10_SC.jpg","pos4","stimuli/HF10_SC.jpg","SC","HF10","3","4.5","9","8","stimuli/stars_9.png","145.5","[""CC"",""FO"",""DO"",""SC""]","[""AM06"",""AF10"",""AF09"",""HF10""]","[8,2,6,9]","[6,2,4,8]","","",""
"show-reward","88","424914","0.0-88.0","p533640","A7204W9E8IR1R","3WPCIUYH1BELQU8EB2L3QVOOKYBTD4","3M81GAB8A2PI61GW6453FKKQGIUBQM","model","match","uniform","","","","","","","","424472.7999999523","426480.10000002384","","","","","","","","","","","","9","","stimuli/stars_9.png","145.5","","","","","stimuli/HF10_SC.jpg","",""
"explore-choice","89","427644","0.0-89.0","p533640","A7204W9E8IR1R","3WPCIUYH1BELQU8EB2L3QVOOKYBTD4","3M81GAB8A2PI61GW6453FKKQGIUBQM","model","match","uniform","","","","","","","2216.7000000476837","426481.39999997616","428698.10000002384","[""stimuli/AM06_FO.jpg"",""stimuli/HF10_CC.jpg"",""stimuli/AF10_DO.jpg"",""stimuli/AF09_SC.jpg""]","stimuli/AM06_FO.jpg","stimuli/HF10_CC.jpg","stimuli/AF10_DO.jpg","stimuli/AF09_SC.jpg","pos2","stimuli/HF10_CC.jpg","CC","HF10","1","5","10","8","stimuli/stars_10.png","150.5","[""FO"",""CC"",""DO"",""SC""]","[""AM06"",""HF10"",""AF10"",""AF09""]","[7,10,3,3]","[6,8,2,4]","","",""
"show-reward","90","429647","0.0-90.0","p533640","A7204W9E8IR1R","3WPCIUYH1BELQU8EB2L3QVOOKYBTD4","3M81GAB8A2PI61GW6453FKKQGIUBQM","model","match","uniform","","","","","","","","429211.39999997616","431214","","","","","","","","","","","","10","","stimuli/stars_10.png","150.5","","","","","stimuli/HF10_CC.jpg","",""
"explore-choice","91","431437","0.0-91.0","p533640","A7204W9E8IR1R","3WPCIUYH1BELQU8EB2L3QVOOKYBTD4","3M81GAB8A2PI61GW6453FKKQGIUBQM","model","match","uniform","","","","","","","1284.7000000476837","431215.89999997616","432500.60000002384","[""stimuli/AF10_SC.jpg"",""stimuli/AM06_DO.jpg"",""stimuli/AF09_CC.jpg"",""stimuli/HF10_FO.jpg""]","stimuli/AF10_SC.jpg","stimuli/AM06_DO.jpg","stimuli/AF09_CC.jpg","stimuli/HF10_FO.jpg","pos2","stimuli/AM06_DO.jpg","DO","AM06","1","2","4","6","stimuli/stars_4.png","152.5","[""SC"",""DO"",""CC"",""FO""]","[""AF10"",""AM06"",""AF09"",""HF10""]","[2,4,2,8]","[2,6,4,8]","","",""
"show-reward","92","433445","0.0-92.0","p533640","A7204W9E8IR1R","3WPCIUYH1BELQU8EB2L3QVOOKYBTD4","3M81GAB8A2PI61GW6453FKKQGIUBQM","model","match","uniform","","","","","","","","433005.60000002384","435011.2999999523","","","","","","","","","","","","4","","stimuli/stars_4.png","152.5","","","","","stimuli/AM06_DO.jpg","",""
"explore-choice","93","435653","0.0-93.0","p533640","A7204W9E8IR1R","3WPCIUYH1BELQU8EB2L3QVOOKYBTD4","3M81GAB8A2PI61GW6453FKKQGIUBQM","model","match","uniform","","","","","","","1693.7999999523163","435013.10000002384","436706.89999997616","[""stimuli/AF09_FO.jpg"",""stimuli/AF10_CC.jpg"",""stimuli/AM06_SC.jpg"",""stimuli/HF10_DO.jpg""]","stimuli/AF09_FO.jpg","stimuli/AF10_CC.jpg","stimuli/AM06_SC.jpg","stimuli/HF10_DO.jpg","pos4","stimuli/HF10_DO.jpg","DO","HF10","3","3.5","7","8","stimuli/stars_7.png","156","[""FO"",""CC"",""SC"",""DO""]","[""AF09"",""AF10"",""AM06"",""HF10""]","[5,4,7,7]","[4,2,6,8]","","",""
"show-reward","94","437670","0.0-94.0","p533640","A7204W9E8IR1R","3WPCIUYH1BELQU8EB2L3QVOOKYBTD4","3M81GAB8A2PI61GW6453FKKQGIUBQM","model","match","uniform","","","","","","","","437220.7000000477","439236.2000000477","","","","","","","","","","","","7","","stimuli/stars_7.png","156","","","","","stimuli/HF10_DO.jpg","",""
"explore-choice","95","439267","0.0-95.0","p533640","A7204W9E8IR1R","3WPCIUYH1BELQU8EB2L3QVOOKYBTD4","3M81GAB8A2PI61GW6453FKKQGIUBQM","model","match","uniform","","","","","","","1090.7000000476837","439237.89999997616","440328.60000002384","[""stimuli/AF10_DO.jpg"",""stimuli/AF09_CC.jpg"",""stimuli/AM06_FO.jpg"",""stimuli/HF10_SC.jpg""]","stimuli/AF10_DO.jpg","stimuli/AF09_CC.jpg","stimuli/AM06_FO.jpg","stimuli/HF10_SC.jpg","pos4","stimuli/HF10_SC.jpg","SC","HF10","3","3","6","8","stimuli/stars_6.png","159","[""DO"",""CC"",""FO"",""SC""]","[""AF10"",""AF09"",""AM06"",""HF10""]","[1,3,7,6]","[2,4,6,8]","","",""
"show-reward","96","441273","0.0-96.0","p533640","A7204W9E8IR1R","3WPCIUYH1BELQU8EB2L3QVOOKYBTD4","3M81GAB8A2PI61GW6453FKKQGIUBQM","model","match","uniform","","","","","","","","440835","442840.2999999523","","","","","","","","","","","","6","","stimuli/stars_6.png","159","","","","","stimuli/HF10_SC.jpg","",""
"explore-choice","97","445327","0.0-97.0","p533640","A7204W9E8IR1R","3WPCIUYH1BELQU8EB2L3QVOOKYBTD4","3M81GAB8A2PI61GW6453FKKQGIUBQM","model","match","uniform","","","","","","","3548.7999999523163","442841.7000000477","446390.5","[""stimuli/AF10_FO.jpg"",""stimuli/AM06_DO.jpg"",""stimuli/AF09_CC.jpg"",""stimuli/HF10_SC.jpg""]","stimuli/AF10_FO.jpg","stimuli/AM06_DO.jpg","stimuli/AF09_CC.jpg","stimuli/HF10_SC.jpg","pos4","stimuli/HF10_SC.jpg","SC","HF10","3","4","8","8","stimuli/stars_8.png","163","[""FO"",""DO"",""CC"",""SC""]","[""AF10"",""AM06"",""AF09"",""HF10""]","[2,8,5,8]","[2,6,4,8]","","",""
"show-reward","98","447343","0.0-98.0","p533640","A7204W9E8IR1R","3WPCIUYH1BELQU8EB2L3QVOOKYBTD4","3M81GAB8A2PI61GW6453FKKQGIUBQM","model","match","uniform","","","","","","","","446896.60000002384","448909.60000002384","","","","","","","","","","","","8","","stimuli/stars_8.png","163","","","","","stimuli/HF10_SC.jpg","",""
"explore-choice","99","449618","0.0-99.0","p533640","A7204W9E8IR1R","3WPCIUYH1BELQU8EB2L3QVOOKYBTD4","3M81GAB8A2PI61GW6453FKKQGIUBQM","model","match","uniform","","","","","","","1765.6000000238419","448911.10000002384","450676.7000000477","[""stimuli/HF10_CC.jpg"",""stimuli/AM06_DO.jpg"",""stimuli/AF10_FO.jpg"",""stimuli/AF09_SC.jpg""]","stimuli/HF10_CC.jpg","stimuli/AM06_DO.jpg","stimuli/AF10_FO.jpg","stimuli/AF09_SC.jpg","pos1","stimuli/HF10_CC.jpg","CC","HF10","0","3.5","7","8","stimuli/stars_7.png","166.5","[""CC"",""DO"",""FO"",""SC""]","[""HF10"",""AM06"",""AF10"",""AF09""]","[7,8,2,3]","[8,6,2,4]","","",""
"show-reward","100","451629","0.0-100.0","p533640","A7204W9E8IR1R","3WPCIUYH1BELQU8EB2L3QVOOKYBTD4","3M81GAB8A2PI61GW6453FKKQGIUBQM","model","match","uniform","","","","","","","","451186.60000002384","453195.7000000477","","","","","","","","","","","","7","","stimuli/stars_7.png","166.5","","","","","stimuli/HF10_CC.jpg","",""
"explore-choice","101","453657","0.0-101.0","p533640","A7204W9E8IR1R","3WPCIUYH1BELQU8EB2L3QVOOKYBTD4","3M81GAB8A2PI61GW6453FKKQGIUBQM","model","match","uniform","","","","","","","1525.5","453197.10000002384","454722.60000002384","[""stimuli/HF10_CC.jpg"",""stimuli/AF10_DO.jpg"",""stimuli/AM06_SC.jpg"",""stimuli/AF09_FO.jpg""]","stimuli/HF10_CC.jpg","stimuli/AF10_DO.jpg","stimuli/AM06_SC.jpg","stimuli/AF09_FO.jpg","pos1","stimuli/HF10_CC.jpg","CC","HF10","0","3.5","7","8","stimuli/stars_7.png","170","[""CC"",""DO"",""SC"",""FO""]","[""HF10"",""AF10"",""AM06"",""AF09""]","[7,3,6,3]","[8,2,6,4]","","",""
"show-reward","102","455671","0.0-102.0","p533640","A7204W9E8IR1R","3WPCIUYH1BELQU8EB2L3QVOOKYBTD4","3M81GAB8A2PI61GW6453FKKQGIUBQM","model","match","uniform","","","","","","","","455225.2000000477","457237.7999999523","","","","","","","","","","","","7","","stimuli/stars_7.png","170","","","","","stimuli/HF10_CC.jpg","",""
"explore-choice","103","461374","0.0-103.0","p533640","A7204W9E8IR1R","3WPCIUYH1BELQU8EB2L3QVOOKYBTD4","3M81GAB8A2PI61GW6453FKKQGIUBQM","model","match","uniform","","","","","","","5200.600000023842","457239.39999997616","462440","[""stimuli/WF11_HO.jpg"",""stimuli/WM07_HE.jpg"",""stimuli/AM09_SUR.jpg"",""stimuli/BF05_AO.jpg""]","stimuli/WF11_HO.jpg","stimuli/WM07_HE.jpg","stimuli/AM09_SUR.jpg","stimuli/BF05_AO.jpg","pos2","stimuli/WM07_HE.jpg","HE","WM07","1","2","4","2","stimuli/stars_4.png","172","[""HO"",""HE"",""SUR"",""AO""]","[""WF11"",""WM07"",""AM09"",""BF05""]","[4,4,7,2]","[6,2,8,4]","","",""
"show-reward","104","463380","0.0-104.0","p533640","A7204W9E8IR1R","3WPCIUYH1BELQU8EB2L3QVOOKYBTD4","3M81GAB8A2PI61GW6453FKKQGIUBQM","model","match","uniform","","","","","","","","462942.5","464946.2000000477","","","","","","","","","","","","4","","stimuli/stars_4.png","172","","","","","stimuli/WM07_HE.jpg","",""
"explore-choice","105","466220","0.0-105.0","p533640","A7204W9E8IR1R","3WPCIUYH1BELQU8EB2L3QVOOKYBTD4","3M81GAB8A2PI61GW6453FKKQGIUBQM","model","match","uniform","","","","","","","2336.7999999523163","464947.7000000477","467284.5","[""stimuli/WM07_HO.jpg"",""stimuli/BF05_HE.jpg"",""stimuli/WF11_SUR.jpg"",""stimuli/AM09_AO.jpg""]","stimuli/WM07_HO.jpg","stimuli/BF05_HE.jpg","stimuli/WF11_SUR.jpg","stimuli/AM09_AO.jpg","pos4","stimuli/AM09_AO.jpg","AO","AM09","3","3","6","8","stimuli/stars_6.png","175","[""HO"",""HE"",""SUR"",""AO""]","[""WM07"",""BF05"",""WF11"",""AM09""]","[3,3,4,6]","[2,4,6,8]","","",""
"show-reward","106","468232","0.0-106.0","p533640","A7204W9E8IR1R","3WPCIUYH1BELQU8EB2L3QVOOKYBTD4","3M81GAB8A2PI61GW6453FKKQGIUBQM","model","match","uniform","","","","","","","","467787.89999997616","469798.7999999523","","","","","","","","","","","","6","","stimuli/stars_6.png","175","","","","","stimuli/AM09_AO.jpg","",""
"explore-choice","107","470528","0.0-107.0","p533640","A7204W9E8IR1R","3WPCIUYH1BELQU8EB2L3QVOOKYBTD4","3M81GAB8A2PI61GW6453FKKQGIUBQM","model","match","uniform","","","","","","","1779.5999999046326","469800.2000000477","471579.7999999523","[""stimuli/AM09_HE.jpg"",""stimuli/BF05_HO.jpg"",""stimuli/WF11_AO.jpg"",""stimuli/WM07_SUR.jpg""]","stimuli/AM09_HE.jpg","stimuli/BF05_HO.jpg","stimuli/WF11_AO.jpg","stimuli/WM07_SUR.jpg","pos2","stimuli/BF05_HO.jpg","HO","BF05","1","2","4","4","stimuli/stars_4.png","177","[""HE"",""HO"",""AO"",""SUR""]","[""AM09"",""BF05"",""WF11"",""WM07""]","[8,4,4,0]","[8,4,6,2]","","",""
"show-reward","108","472546","0.0-108.0","p533640","A7204W9E8IR1R","3WPCIUYH1BELQU8EB2L3QVOOKYBTD4","3M81GAB8A2PI61GW6453FKKQGIUBQM","model","match","uniform","","","","","","","","472095.5","474112.2999999523","","","","","","","","","","","","4","","stimuli/stars_4.png","177","","","","","stimuli/BF05_HO.jpg","",""
"explore-choice","109","474326","0.0-109.0","p533640","A7204W9E8IR1R","3WPCIUYH1BELQU8EB2L3QVOOKYBTD4","3M81GAB8A2PI61GW6453FKKQGIUBQM","model","match","uniform","","","","","","","1264","474113.7000000477","475377.7000000477","[""stimuli/AM09_HE.jpg"",""stimuli/WM07_SUR.jpg"",""stimuli/WF11_HO.jpg"",""stimuli/BF05_AO.jpg""]","stimuli/AM09_HE.jpg","stimuli/WM07_SUR.jpg","stimuli/WF11_HO.jpg","stimuli/BF05_AO.jpg","pos3","stimuli/WF11_HO.jpg","HO","WF11","2","2","4","6","stimuli/stars_4.png","179","[""HE"",""SUR"",""HO"",""AO""]","[""AM09"",""WM07"",""WF11"",""BF05""]","[9,2,4,5]","[8,2,6,4]","","",""
"show-reward","110","476352","0.0-110.0","p533640","A7204W9E8IR1R","3WPCIUYH1BELQU8EB2L3QVOOKYBTD4","3M81GAB8A2PI61GW6453FKKQGIUBQM","model","match","uniform","","","","","","","","475894.5","477918.2000000477","","","","","","","","","","","","4","","stimuli/stars_4.png","179","","","","","stimuli/WF11_HO.jpg","",""
"explore-choice","111","477987","0.0-111.0","p533640","A7204W9E8IR1R","3WPCIUYH1BELQU8EB2L3QVOOKYBTD4","3M81GAB8A2PI61GW6453FKKQGIUBQM","model","match","uniform","","","","","","","1127.8999999761581","477919.89999997616","479047.7999999523","[""stimuli/WF11_HE.jpg"",""stimuli/WM07_HO.jpg"",""stimuli/AM09_AO.jpg"",""stimuli/BF05_SUR.jpg""]","stimuli/WF11_HE.jpg","stimuli/WM07_HO.jpg","stimuli/AM09_AO.jpg","stimuli/BF05_SUR.jpg","pos3","stimuli/AM09_AO.jpg","AO","AM09","2","4.5","9","8","stimuli/stars_9.png","183.5","[""HE"",""HO"",""AO"",""SUR""]","[""WF11"",""WM07"",""AM09"",""BF05""]","[5,0,9,6]","[6,2,8,4]","","",""
"show-reward","112","480006","0.0-112.0","p533640","A7204W9E8IR1R","3WPCIUYH1BELQU8EB2L3QVOOKYBTD4","3M81GAB8A2PI61GW6453FKKQGIUBQM","model","match","uniform","","","","","","","","479555.7000000477","481572.89999997616","","","","","","","","","","","","9","","stimuli/stars_9.png","183.5","","","","","stimuli/AM09_AO.jpg","",""
"explore-choice","113","481741","0.0-113.0","p533640","A7204W9E8IR1R","3WPCIUYH1BELQU8EB2L3QVOOKYBTD4","3M81GAB8A2PI61GW6453FKKQGIUBQM","model","match","uniform","","","","","","","1231.6999999284744","481574.7000000477","482806.39999997616","[""stimuli/WM07_AO.jpg"",""stimuli/AM09_HO.jpg"",""stimuli/BF05_HE.jpg"",""stimuli/WF11_SUR.jpg""]","stimuli/WM07_AO.jpg","stimuli/AM09_HO.jpg","stimuli/BF05_HE.jpg","stimuli/WF11_SUR.jpg","pos2","stimuli/AM09_HO.jpg","HO","AM09","1","3.5","7","8","stimuli/stars_7.png","187","[""AO"",""HO"",""HE"",""SUR""]","[""WM07"",""AM09"",""BF05"",""WF11""]","[2,7,6,7]","[2,8,4,6]","","",""
"show-reward","114","483747","0.0-114.0","p533640","A7204W9E8IR1R","3WPCIUYH1BELQU8EB2L3QVOOKYBTD4","3M81GAB8A2PI61GW6453FKKQGIUBQM","model","match","uniform","","","","","","","","483308.60000002384","485313.7999999523","","","","","","","","","","","","7","","stimuli/stars_7.png","187","","","","","stimuli/AM09_HO.jpg","",""
"explore-choice","115","491268","0.0-115.0","p533640","A7204W9E8IR1R","3WPCIUYH1BELQU8EB2L3QVOOKYBTD4","3M81GAB8A2PI61GW6453FKKQGIUBQM","model","match","uniform","","","","","","","7006.800000071526","485314.7999999523","492321.60000002384","[""stimuli/WM07_AO.jpg"",""stimuli/BF05_HE.jpg"",""stimuli/AM09_SUR.jpg"",""stimuli/WF11_HO.jpg""]","stimuli/WM07_AO.jpg","stimuli/BF05_HE.jpg","stimuli/AM09_SUR.jpg","stimuli/WF11_HO.jpg","pos3","stimuli/AM09_SUR.jpg","SUR","AM09","2","5","10","8","stimuli/stars_10.png","192","[""AO"",""HE"",""SUR"",""HO""]","[""WM07"",""BF05"",""AM09"",""WF11""]","[0,6,10,7]","[2,4,8,6]","","",""
"show-reward","116","493278","0.0-116.0","p533640","A7204W9E8IR1R","3WPCIUYH1BELQU8EB2L3QVOOKYBTD4","3M81GAB8A2PI61GW6453FKKQGIUBQM","model","match","uniform","","","","","","","","492837.2000000477","494844.2000000477","","","","","","","","","","","","10","","stimuli/stars_10.png","192","","","","","stimuli/AM09_SUR.jpg","",""
"explore-choice","117","494833","0.0-117.0","p533640","A7204W9E8IR1R","3WPCIUYH1BELQU8EB2L3QVOOKYBTD4","3M81GAB8A2PI61GW6453FKKQGIUBQM","model","match","uniform","","","","","","","1051.2999999523163","494845.60000002384","495896.89999997616","[""stimuli/WF11_HO.jpg"",""stimuli/BF05_SUR.jpg"",""stimuli/AM09_AO.jpg"",""stimuli/WM07_HE.jpg""]","stimuli/WF11_HO.jpg","stimuli/BF05_SUR.jpg","stimuli/AM09_AO.jpg","stimuli/WM07_HE.jpg","pos3","stimuli/AM09_AO.jpg","AO","AM09","2","3","6","8","stimuli/stars_6.png","195","[""HO"",""SUR"",""AO"",""HE""]","[""WF11"",""BF05"",""AM09"",""WM07""]","[6,6,6,2]","[6,4,8,2]","","",""
"show-reward","118","496849","0.0-118.0","p533640","A7204W9E8IR1R","3WPCIUYH1BELQU8EB2L3QVOOKYBTD4","3M81GAB8A2PI61GW6453FKKQGIUBQM","model","match","uniform","","","","","","","","496405.2999999523","498415.5","","","","","","","","","","","","6","","stimuli/stars_6.png","195","","","","","stimuli/AM09_AO.jpg","",""
"explore-choice","119","499646","0.0-119.0","p533640","A7204W9E8IR1R","3WPCIUYH1BELQU8EB2L3QVOOKYBTD4","3M81GAB8A2PI61GW6453FKKQGIUBQM","model","match","uniform","","","","","","","2294","498416.60000002384","500710.60000002384","[""stimuli/AM09_HE.jpg"",""stimuli/WM07_HO.jpg"",""stimuli/WF11_AO.jpg"",""stimuli/BF05_SUR.jpg""]","stimuli/AM09_HE.jpg","stimuli/WM07_HO.jpg","stimuli/WF11_AO.jpg","stimuli/BF05_SUR.jpg","pos1","stimuli/AM09_HE.jpg","HE","AM09","0","5","10","8","stimuli/stars_10.png","200","[""HE"",""HO"",""AO"",""SUR""]","[""AM09"",""WM07"",""WF11"",""BF05""]","[10,1,7,5]","[8,2,6,4]","","",""
"show-reward","120","501665","0.0-120.0","p533640","A7204W9E8IR1R","3WPCIUYH1BELQU8EB2L3QVOOKYBTD4","3M81GAB8A2PI61GW6453FKKQGIUBQM","model","match","uniform","","","","","","","","501214.2999999523","503231.7999999523","","","","","","","","","","","","10","","stimuli/stars_10.png","200","","","","","stimuli/AM09_HE.jpg","",""
"explore-choice","121","504211","0.0-121.0","p533640","A7204W9E8IR1R","3WPCIUYH1BELQU8EB2L3QVOOKYBTD4","3M81GAB8A2PI61GW6453FKKQGIUBQM","model","match","uniform","","","","","","","2035.5","503233.2000000477","505268.7000000477","[""stimuli/BF05_HO.jpg"",""stimuli/WM07_AO.jpg"",""stimuli/WF11_SUR.jpg"",""stimuli/AM09_HE.jpg""]","stimuli/BF05_HO.jpg","stimuli/WM07_AO.jpg","stimuli/WF11_SUR.jpg","stimuli/AM09_HE.jpg","pos4","stimuli/AM09_HE.jpg","HE","AM09","3","3","6","8","stimuli/stars_6.png","203","[""HO"",""AO"",""SUR"",""HE""]","[""BF05"",""WM07"",""WF11"",""AM09""]","[3,0,7,6]","[4,2,6,8]","","",""
"show-reward","122","506217","0.0-122.0","p533640","A7204W9E8IR1R","3WPCIUYH1BELQU8EB2L3QVOOKYBTD4","3M81GAB8A2PI61GW6453FKKQGIUBQM","model","match","uniform","","","","","","","","505779.7999999523","507783.39999997616","","","","","","","","","","","","6","","stimuli/stars_6.png","203","","","","","stimuli/AM09_HE.jpg","",""
"explore-choice","123","508958","0.0-123.0","p533640","A7204W9E8IR1R","3WPCIUYH1BELQU8EB2L3QVOOKYBTD4","3M81GAB8A2PI61GW6453FKKQGIUBQM","model","match","uniform","","","","","","","2232.399999976158","507785.2000000477","510017.60000002384","[""stimuli/AM09_HO.jpg"",""stimuli/BF05_SUR.jpg"",""stimuli/WM07_HE.jpg"",""stimuli/WF11_AO.jpg""]","stimuli/AM09_HO.jpg","stimuli/BF05_SUR.jpg","stimuli/WM07_HE.jpg","stimuli/WF11_AO.jpg","pos1","stimuli/AM09_HO.jpg","HO","AM09","0","5","10","8","stimuli/stars_10.png","208","[""HO"",""SUR"",""HE"",""AO""]","[""AM09"",""BF05"",""WM07"",""WF11""]","[10,4,0,6]","[8,4,2,6]","","",""
"show-reward","124","510973","0.0-124.0","p533640","A7204W9E8IR1R","3WPCIUYH1BELQU8EB2L3QVOOKYBTD4","3M81GAB8A2PI61GW6453FKKQGIUBQM","model","match","uniform","","","","","","","","510526.10000002384","512539.60000002384","","","","","","","","","","","","10","","stimuli/stars_10.png","208","","","","","stimuli/AM09_HO.jpg","",""
"explore-choice","125","514936","0.0-125.0","p533640","A7204W9E8IR1R","3WPCIUYH1BELQU8EB2L3QVOOKYBTD4","3M81GAB8A2PI61GW6453FKKQGIUBQM","model","match","uniform","","","","","","","3457","512542.60000002384","515999.60000002384","[""stimuli/WF11_SUR.jpg"",""stimuli/BF05_HO.jpg"",""stimuli/AM09_AO.jpg"",""stimuli/WM07_HE.jpg""]","stimuli/WF11_SUR.jpg","stimuli/BF05_HO.jpg","stimuli/AM09_AO.jpg","stimuli/WM07_HE.jpg","pos3","stimuli/AM09_AO.jpg","AO","AM09","2","4","8","8","stimuli/stars_8.png","212","[""SUR"",""HO"",""AO"",""HE""]","[""WF11"",""BF05"",""AM09"",""WM07""]","[6,4,8,4]","[6,4,8,2]","","",""
"show-reward","126","516954","0.0-126.0","p533640","A7204W9E8IR1R","3WPCIUYH1BELQU8EB2L3QVOOKYBTD4","3M81GAB8A2PI61GW6453FKKQGIUBQM","model","match","uniform","","","","","","","","516505.39999997616","518520.39999997616","","","","","","","","","","","","8","","stimuli/stars_8.png","212","","","","","stimuli/AM09_AO.jpg","",""
"explore-choice","127","525752","0.0-127.0","p533640","A7204W9E8IR1R","3WPCIUYH1BELQU8EB2L3QVOOKYBTD4","3M81GAB8A2PI61GW6453FKKQGIUBQM","model","match","uniform","","","","","","","8289","518521.7000000477","526810.7000000477","[""stimuli/BF05_AO.jpg"",""stimuli/WM07_HE.jpg"",""stimuli/AM09_HO.jpg"",""stimuli/WF11_SUR.jpg""]","stimuli/BF05_AO.jpg","stimuli/WM07_HE.jpg","stimuli/AM09_HO.jpg","stimuli/WF11_SUR.jpg","pos3","stimuli/AM09_HO.jpg","HO","AM09","2","3","6","8","stimuli/stars_6.png","215","[""AO"",""HE"",""HO"",""SUR""]","[""BF05"",""WM07"",""AM09"",""WF11""]","[3,2,6,4]","[4,2,8,6]","","",""
"show-reward","128","527769","0.0-128.0","p533640","A7204W9E8IR1R","3WPCIUYH1BELQU8EB2L3QVOOKYBTD4","3M81GAB8A2PI61GW6453FKKQGIUBQM","model","match","uniform","","","","","","","","527321.1000000238","529335.3999999762","","","","","","","","","","","","6","","stimuli/stars_6.png","215","","","","","stimuli/AM09_HO.jpg","",""
"explore-choice","129","529521","0.0-129.0","p533640","A7204W9E8IR1R","3WPCIUYH1BELQU8EB2L3QVOOKYBTD4","3M81GAB8A2PI61GW6453FKKQGIUBQM","model","match","uniform","","","","","","","1248.5","529336.2999999523","530584.7999999523","[""stimuli/BF05_AO.jpg"",""stimuli/AM09_HE.jpg"",""stimuli/WM07_HO.jpg"",""stimuli/WF11_SUR.jpg""]","stimuli/BF05_AO.jpg","stimuli/AM09_HE.jpg","stimuli/WM07_HO.jpg","stimuli/WF11_SUR.jpg","pos2","stimuli/AM09_HE.jpg","HE","AM09","1","4.5","9","8","stimuli/stars_9.png","219.5","[""AO"",""HE"",""HO"",""SUR""]","[""BF05"",""AM09"",""WM07"",""WF11""]","[5,9,0,4]","[4,8,2,6]","","",""
"show-reward","130","531536","0.0-130.0","p533640","A7204W9E8IR1R","3WPCIUYH1BELQU8EB2L3QVOOKYBTD4","3M81GAB8A2PI61GW6453FKKQGIUBQM","model","match","uniform","","","","","","","","531089.2999999523","533102.2000000477","","","","","","","","","","","","9","","stimuli/stars_9.png","219.5","","","","","stimuli/AM09_HE.jpg","",""
"explore-choice","131","532858","0.0-131.0","p533640","A7204W9E8IR1R","3WPCIUYH1BELQU8EB2L3QVOOKYBTD4","3M81GAB8A2PI61GW6453FKKQGIUBQM","model","match","uniform","","","","","","","807.8999999761581","533103.7000000477","533911.6000000238","[""stimuli/WF11_AO.jpg"",""stimuli/AM09_HO.jpg"",""stimuli/BF05_HE.jpg"",""stimuli/WM07_SUR.jpg""]","stimuli/WF11_AO.jpg","stimuli/AM09_HO.jpg","stimuli/BF05_HE.jpg","stimuli/WM07_SUR.jpg","pos2","stimuli/AM09_HO.jpg","HO","AM09","1","4","8","8","stimuli/stars_8.png","223.5","[""AO"",""HO"",""HE"",""SUR""]","[""WF11"",""AM09"",""BF05"",""WM07""]","[6,8,2,3]","[6,8,4,2]","","",""
"show-reward","132","534870","0.0-132.0","p533640","A7204W9E8IR1R","3WPCIUYH1BELQU8EB2L3QVOOKYBTD4","3M81GAB8A2PI61GW6453FKKQGIUBQM","model","match","uniform","","","","","","","","534426","536437.2000000477","","","","","","","","","","","","8","","stimuli/stars_8.png","223.5","","","","","stimuli/AM09_HO.jpg","",""
"explore-choice","133","537084","0.0-133.0","p533640","A7204W9E8IR1R","3WPCIUYH1BELQU8EB2L3QVOOKYBTD4","3M81GAB8A2PI61GW6453FKKQGIUBQM","model","match","uniform","","","","","","","1703.4000000953674","536438.2999999523","538141.7000000477","[""stimuli/WM07_HO.jpg"",""stimuli/WF11_AO.jpg"",""stimuli/BF05_HE.jpg"",""stimuli/AM09_SUR.jpg""]","stimuli/WM07_HO.jpg","stimuli/WF11_AO.jpg","stimuli/BF05_HE.jpg","stimuli/AM09_SUR.jpg","pos3","stimuli/BF05_HE.jpg","HE","BF05","2","1","2","4","stimuli/stars_2.png","224.5","[""HO"",""AO"",""HE"",""SUR""]","[""WM07"",""WF11"",""BF05"",""AM09""]","[3,6,2,7]","[2,6,4,8]","","",""
"show-reward","134","539092","0.0-134.0","p533640","A7204W9E8IR1R","3WPCIUYH1BELQU8EB2L3QVOOKYBTD4","3M81GAB8A2PI61GW6453FKKQGIUBQM","model","match","uniform","","","","","","","","538651.8999999762","540658.6000000238","","","","","","","","","","","","2","","stimuli/stars_2.png","224.5","","","","","stimuli/BF05_HE.jpg","",""
"explore-choice","135","540654","0.0-135.0","p533640","A7204W9E8IR1R","3WPCIUYH1BELQU8EB2L3QVOOKYBTD4","3M81GAB8A2PI61GW6453FKKQGIUBQM","model","match","uniform","","","","","","","1056.1000000238419","540659.6000000238","541715.7000000477","[""stimuli/WM07_HE.jpg"",""stimuli/AM09_SUR.jpg"",""stimuli/WF11_AO.jpg"",""stimuli/BF05_HO.jpg""]","stimuli/WM07_HE.jpg","stimuli/AM09_SUR.jpg","stimuli/WF11_AO.jpg","stimuli/BF05_HO.jpg","pos1","stimuli/WM07_HE.jpg","HE","WM07","0","0","0","2","stimuli/stars_0.png","224.5","[""HE"",""SUR"",""AO"",""HO""]","[""WM07"",""AM09"",""WF11"",""BF05""]","[0,9,5,5]","[2,8,6,4]","","",""
"show-reward","136","542673","0.0-136.0","p533640","A7204W9E8IR1R","3WPCIUYH1BELQU8EB2L3QVOOKYBTD4","3M81GAB8A2PI61GW6453FKKQGIUBQM","model","match","uniform","","","","","","","","542222","544239.3999999762","","","","","","","","","","","","0","","stimuli/stars_0.png","224.5","","","","","stimuli/WM07_HE.jpg","",""
"explore-choice","137","543753","0.0-137.0","p533640","A7204W9E8IR1R","3WPCIUYH1BELQU8EB2L3QVOOKYBTD4","3M81GAB8A2PI61GW6453FKKQGIUBQM","model","match","uniform","","","","","","","578.2999999523163","544240.2000000477","544818.5","[""stimuli/WF11_HE.jpg"",""stimuli/WM07_SUR.jpg"",""stimuli/BF05_AO.jpg"",""stimuli/AM09_HO.jpg""]","stimuli/WF11_HE.jpg","stimuli/WM07_SUR.jpg","stimuli/BF05_AO.jpg","stimuli/AM09_HO.jpg","pos2","stimuli/WM07_SUR.jpg","SUR","WM07","1","0","0","2","stimuli/stars_0.png","224.5","[""HE"",""SUR"",""AO"",""HO""]","[""WF11"",""WM07"",""BF05"",""AM09""]","[5,0,5,10]","[6,2,4,8]","","",""
"show-reward","138","545769","0.0-138.0","p533640","A7204W9E8IR1R","3WPCIUYH1BELQU8EB2L3QVOOKYBTD4","3M81GAB8A2PI61GW6453FKKQGIUBQM","model","match","uniform","","","","","","","","545320.5","547336.2000000477","","","","","","","","","","","","0","","stimuli/stars_0.png","224.5","","","","","stimuli/WM07_SUR.jpg","",""
"explore-choice","139","547357","0.0-139.0","p533640","A7204W9E8IR1R","3WPCIUYH1BELQU8EB2L3QVOOKYBTD4","3M81GAB8A2PI61GW6453FKKQGIUBQM","model","match","uniform","","","","","","","1075.1999999284744","547337.1000000238","548412.2999999523","[""stimuli/BF05_SUR.jpg"",""stimuli/AM09_HE.jpg"",""stimuli/WF11_HO.jpg"",""stimuli/WM07_AO.jpg""]","stimuli/BF05_SUR.jpg","stimuli/AM09_HE.jpg","stimuli/WF11_HO.jpg","stimuli/WM07_AO.jpg","pos2","stimuli/AM09_HE.jpg","HE","AM09","1","4","8","8","stimuli/stars_8.png","228.5","[""SUR"",""HE"",""HO"",""AO""]","[""BF05"",""AM09"",""WF11"",""WM07""]","[3,8,4,1]","[4,8,6,2]","","",""
"show-reward","140","549376","0.0-140.0","p533640","A7204W9E8IR1R","3WPCIUYH1BELQU8EB2L3QVOOKYBTD4","3M81GAB8A2PI61GW6453FKKQGIUBQM","model","match","uniform","","","","","","","","548925.2000000477","550942.3999999762","","","","","","","","","","","","8","","stimuli/stars_8.png","228.5","","","","","stimuli/AM09_HE.jpg","",""
"explore-choice","141","550916","0.0-141.0","p533640","A7204W9E8IR1R","3WPCIUYH1BELQU8EB2L3QVOOKYBTD4","3M81GAB8A2PI61GW6453FKKQGIUBQM","model","match","uniform","","","","","","","1031.5","550944.1000000238","551975.6000000238","[""stimuli/WF11_HE.jpg"",""stimuli/WM07_AO.jpg"",""stimuli/AM09_HO.jpg"",""stimuli/BF05_SUR.jpg""]","stimuli/WF11_HE.jpg","stimuli/WM07_AO.jpg","stimuli/AM09_HO.jpg","stimuli/BF05_SUR.jpg","pos3","stimuli/AM09_HO.jpg","HO","AM09","2","3.5","7","8","stimuli/stars_7.png","232","[""HE"",""AO"",""HO"",""SUR""]","[""WF11"",""WM07"",""AM09"",""BF05""]","[7,4,7,6]","[6,2,8,4]","","",""
"show-reward","142","552932","0.0-142.0","p533640","A7204W9E8IR1R","3WPCIUYH1BELQU8EB2L3QVOOKYBTD4","3M81GAB8A2PI61GW6453FKKQGIUBQM","model","match","uniform","","","","","","","","552484.2000000477","554498.7999999523","","","","","","","","","","","","7","","stimuli/stars_7.png","232","","","","","stimuli/AM09_HO.jpg","",""
"explore-choice","143","556507","0.0-143.0","p533640","A7204W9E8IR1R","3WPCIUYH1BELQU8EB2L3QVOOKYBTD4","3M81GAB8A2PI61GW6453FKKQGIUBQM","model","match","uniform","","","","","","","3072","554500.5","557572.5","[""stimuli/AM09_AO.jpg"",""stimuli/BF05_HO.jpg"",""stimuli/WF11_HE.jpg"",""stimuli/WM07_SUR.jpg""]","stimuli/AM09_AO.jpg","stimuli/BF05_HO.jpg","stimuli/WF11_HE.jpg","stimuli/WM07_SUR.jpg","pos1","stimuli/AM09_AO.jpg","AO","AM09","0","5","10","8","stimuli/stars_10.png","237","[""AO"",""HO"",""HE"",""SUR""]","[""AM09"",""BF05"",""WF11"",""WM07""]","[10,5,5,2]","[8,4,6,2]","","",""
"show-reward","144","558519","0.0-144.0","p533640","A7204W9E8IR1R","3WPCIUYH1BELQU8EB2L3QVOOKYBTD4","3M81GAB8A2PI61GW6453FKKQGIUBQM","model","match","uniform","","","","","","","","558075.3999999762","560085.8999999762","","","","","","","","","","","","10","","stimuli/stars_10.png","237","","","","","stimuli/AM09_AO.jpg","",""
"explore-choice","145","560053","0.0-145.0","p533640","A7204W9E8IR1R","3WPCIUYH1BELQU8EB2L3QVOOKYBTD4","3M81GAB8A2PI61GW6453FKKQGIUBQM","model","match","uniform","","","","","","","1027.8999999761581","560087.5","561115.3999999762","[""stimuli/WF11_HE.jpg"",""stimuli/WM07_HO.jpg"",""stimuli/AM09_SUR.jpg"",""stimuli/BF05_AO.jpg""]","stimuli/WF11_HE.jpg","stimuli/WM07_HO.jpg","stimuli/AM09_SUR.jpg","stimuli/BF05_AO.jpg","pos3","stimuli/AM09_SUR.jpg","SUR","AM09","2","4","8","8","stimuli/stars_8.png","241","[""HE"",""HO"",""SUR"",""AO""]","[""WF11"",""WM07"",""AM09"",""BF05""]","[6,1,8,6]","[6,2,8,4]","","",""
"show-reward","146","562066","0.0-146.0","p533640","A7204W9E8IR1R","3WPCIUYH1BELQU8EB2L3QVOOKYBTD4","3M81GAB8A2PI61GW6453FKKQGIUBQM","model","match","uniform","","","","","","","","561621.7000000477","563632.8999999762","","","","","","","","","","","","8","","stimuli/stars_8.png","241","","","","","stimuli/AM09_SUR.jpg","",""
"explore-choice","147","564002","0.0-147.0","p533640","A7204W9E8IR1R","3WPCIUYH1BELQU8EB2L3QVOOKYBTD4","3M81GAB8A2PI61GW6453FKKQGIUBQM","model","match","uniform","","","","","","","1422.6000000238419","563634.6000000238","565057.2000000477","[""stimuli/WF11_HE.jpg"",""stimuli/AM09_SUR.jpg"",""stimuli/WM07_AO.jpg"",""stimuli/BF05_HO.jpg""]","stimuli/WF11_HE.jpg","stimuli/AM09_SUR.jpg","stimuli/WM07_AO.jpg","stimuli/BF05_HO.jpg","pos2","stimuli/AM09_SUR.jpg","SUR","AM09","1","4.5","9","8","stimuli/stars_9.png","245.5","[""HE"",""SUR"",""AO"",""HO""]","[""WF11"",""AM09"",""WM07"",""BF05""]","[6,9,2,6]","[6,8,2,4]","","",""
"show-reward","148","566008","0.0-148.0","p533640","A7204W9E8IR1R","3WPCIUYH1BELQU8EB2L3QVOOKYBTD4","3M81GAB8A2PI61GW6453FKKQGIUBQM","model","match","uniform","","","","","","","","565570.1000000238","567574.2999999523","","","","","","","","","","","","9","","stimuli/stars_9.png","245.5","","","","","stimuli/AM09_SUR.jpg","",""
"explore-choice","149","571458","0.0-149.0","p533640","A7204W9E8IR1R","3WPCIUYH1BELQU8EB2L3QVOOKYBTD4","3M81GAB8A2PI61GW6453FKKQGIUBQM","model","match","uniform","","","","","","","4942.100000023842","567576.2999999523","572518.3999999762","[""stimuli/WF11_HO.jpg"",""stimuli/AM09_AO.jpg"",""stimuli/BF05_HE.jpg"",""stimuli/WM07_SUR.jpg""]","stimuli/WF11_HO.jpg","stimuli/AM09_AO.jpg","stimuli/BF05_HE.jpg","stimuli/WM07_SUR.jpg","pos2","stimuli/AM09_AO.jpg","AO","AM09","1","3.5","7","8","stimuli/stars_7.png","249","[""HO"",""AO"",""HE"",""SUR""]","[""WF11"",""AM09"",""BF05"",""WM07""]","[7,7,2,4]","[6,8,4,2]","","",""
"show-reward","150","573466","0.0-150.0","p533640","A7204W9E8IR1R","3WPCIUYH1BELQU8EB2L3QVOOKYBTD4","3M81GAB8A2PI61GW6453FKKQGIUBQM","model","match","uniform","","","","","","","","573026.2999999523","575033","","","","","","","","","","","","7","","stimuli/stars_7.png","249","","","","","stimuli/AM09_AO.jpg","",""
"explore-choice","151","576249","0.0-151.0","p533640","A7204W9E8IR1R","3WPCIUYH1BELQU8EB2L3QVOOKYBTD4","3M81GAB8A2PI61GW6453FKKQGIUBQM","model","match","uniform","","","","","","","2274.399999976158","575034.1000000238","577308.5","[""stimuli/BF05_HO.jpg"",""stimuli/WM07_HE.jpg"",""stimuli/AM09_AO.jpg"",""stimuli/WF11_SUR.jpg""]","stimuli/BF05_HO.jpg","stimuli/WM07_HE.jpg","stimuli/AM09_AO.jpg","stimuli/WF11_SUR.jpg","pos3","stimuli/AM09_AO.jpg","AO","AM09","2","4","8","8","stimuli/stars_8.png","253","[""HO"",""HE"",""AO"",""SUR""]","[""BF05"",""WM07"",""AM09"",""WF11""]","[4,4,8,6]","[4,2,8,6]","","",""
"show-reward","152","578258","0.0-152.0","p533640","A7204W9E8IR1R","3WPCIUYH1BELQU8EB2L3QVOOKYBTD4","3M81GAB8A2PI61GW6453FKKQGIUBQM","model","match","uniform","","","","","","","","577817.2999999523","579824.5","","","","","","","","","","","","8","","stimuli/stars_8.png","253","","","","","stimuli/AM09_AO.jpg","",""
"explore-choice","153","580106","0.0-153.0","p533640","A7204W9E8IR1R","3WPCIUYH1BELQU8EB2L3QVOOKYBTD4","3M81GAB8A2PI61GW6453FKKQGIUBQM","model","match","uniform","","","","","","","1335.6000000238419","579826.3999999762","581162","[""stimuli/AM09_AO.jpg"",""stimuli/WF11_HO.jpg"",""stimuli/WM07_HE.jpg"",""stimuli/BF05_SUR.jpg""]","stimuli/AM09_AO.jpg","stimuli/WF11_HO.jpg","stimuli/WM07_HE.jpg","stimuli/BF05_SUR.jpg","pos1","stimuli/AM09_AO.jpg","AO","AM09","0","3","6","8","stimuli/stars_6.png","256","[""AO"",""HO"",""HE"",""SUR""]","[""AM09"",""WF11"",""WM07"",""BF05""]","[6,6,2,6]","[8,6,2,4]","","",""
"show-reward","154","582115","0.0-154.0","p533640","A7204W9E8IR1R","3WPCIUYH1BELQU8EB2L3QVOOKYBTD4","3M81GAB8A2PI61GW6453FKKQGIUBQM","model","match","uniform","","","","","","","","581674.5","583681.6000000238","","","","","","","","","","","","6","","stimuli/stars_6.png","256","","","","","stimuli/AM09_AO.jpg","",""
"explore-choice","155","584988","0.0-155.0","p533640","A7204W9E8IR1R","3WPCIUYH1BELQU8EB2L3QVOOKYBTD4","3M81GAB8A2PI61GW6453FKKQGIUBQM","model","match","uniform","","","","","","","2365.2000000476837","583683.2999999523","586048.5","[""stimuli/AM09_SUR.jpg"",""stimuli/WM07_HE.jpg"",""stimuli/WF11_HO.jpg"",""stimuli/BF05_AO.jpg""]","stimuli/AM09_SUR.jpg","stimuli/WM07_HE.jpg","stimuli/WF11_HO.jpg","stimuli/BF05_AO.jpg","pos1","stimuli/AM09_SUR.jpg","SUR","AM09","0","3.5","7","8","stimuli/stars_7.png","259.5","[""SUR"",""HE"",""HO"",""AO""]","[""AM09"",""WM07"",""WF11"",""BF05""]","[7,4,4,2]","[8,2,6,4]","","",""
"show-reward","156","586994","0.0-156.0","p533640","A7204W9E8IR1R","3WPCIUYH1BELQU8EB2L3QVOOKYBTD4","3M81GAB8A2PI61GW6453FKKQGIUBQM","model","match","uniform","","","","","","","","586556","588560.7999999523","","","","","","","","","","","","7","","stimuli/stars_7.png","259.5","","","","","stimuli/AM09_SUR.jpg","",""
"explore-choice","157","590235","0.0-157.0","p533640","A7204W9E8IR1R","3WPCIUYH1BELQU8EB2L3QVOOKYBTD4","3M81GAB8A2PI61GW6453FKKQGIUBQM","model","match","uniform","","","","","","","2739","588562.5","591301.5","[""stimuli/BF05_HE.jpg"",""stimuli/WF11_AO.jpg"",""stimuli/WM07_HO.jpg"",""stimuli/AM09_SUR.jpg""]","stimuli/BF05_HE.jpg","stimuli/WF11_AO.jpg","stimuli/WM07_HO.jpg","stimuli/AM09_SUR.jpg","pos4","stimuli/AM09_SUR.jpg","SUR","AM09","3","3.5","7","8","stimuli/stars_7.png","263","[""HE"",""AO"",""HO"",""SUR""]","[""BF05"",""WF11"",""WM07"",""AM09""]","[2,6,3,7]","[4,6,2,8]","","",""
"show-reward","158","592252","0.0-158.0","p533640","A7204W9E8IR1R","3WPCIUYH1BELQU8EB2L3QVOOKYBTD4","3M81GAB8A2PI61GW6453FKKQGIUBQM","model","match","uniform","","","","","","","","591803.7999999523","593819.3999999762","","","","","","","","","","","","7","","stimuli/stars_7.png","263","","","","","stimuli/AM09_SUR.jpg","",""
"explore-choice","159","594135","0.0-159.0","p533640","A7204W9E8IR1R","3WPCIUYH1BELQU8EB2L3QVOOKYBTD4","3M81GAB8A2PI61GW6453FKKQGIUBQM","model","match","uniform","","","","","","","1376.1000000238419","593820.2999999523","595196.3999999762","[""stimuli/AM09_SUR.jpg"",""stimuli/BF05_HO.jpg"",""stimuli/WM07_AO.jpg"",""stimuli/WF11_HE.jpg""]","stimuli/AM09_SUR.jpg","stimuli/BF05_HO.jpg","stimuli/WM07_AO.jpg","stimuli/WF11_HE.jpg","pos1","stimuli/AM09_SUR.jpg","SUR","AM09","0","4.5","9","8","stimuli/stars_9.png","267.5","[""SUR"",""HO"",""AO"",""HE""]","[""AM09"",""BF05"",""WM07"",""WF11""]","[9,6,2,6]","[8,4,2,6]","","",""
"show-reward","160","596147","0.0-160.0","p533640","A7204W9E8IR1R","3WPCIUYH1BELQU8EB2L3QVOOKYBTD4","3M81GAB8A2PI61GW6453FKKQGIUBQM","model","match","uniform","","","","","","","","595703.2999999523","597714.7000000477","","","","","","","","","","","","9","","stimuli/stars_9.png","267.5","","","","","stimuli/AM09_SUR.jpg","",""
"explore-choice","161","598488","0.0-161.0","p533640","A7204W9E8IR1R","3WPCIUYH1BELQU8EB2L3QVOOKYBTD4","3M81GAB8A2PI61GW6453FKKQGIUBQM","model","match","uniform","","","","","","","1838.6999999284744","597715.7000000477","599554.3999999762","[""stimuli/BF05_AO.jpg"",""stimuli/WM07_SUR.jpg"",""stimuli/AM09_HE.jpg"",""stimuli/WF11_HO.jpg""]","stimuli/BF05_AO.jpg","stimuli/WM07_SUR.jpg","stimuli/AM09_HE.jpg","stimuli/WF11_HO.jpg","pos4","stimuli/WF11_HO.jpg","HO","WF11","3","2","4","6","stimuli/stars_4.png","269.5","[""AO"",""SUR"",""HE"",""HO""]","[""BF05"",""WM07"",""AM09"",""WF11""]","[5,2,9,4]","[4,2,8,6]","","",""
"show-reward","162","600491","0.0-162.0","p533640","A7204W9E8IR1R","3WPCIUYH1BELQU8EB2L3QVOOKYBTD4","3M81GAB8A2PI61GW6453FKKQGIUBQM","model","match","uniform","","","","","","","","600056.3999999762","602058.6000000238","","","","","","","","","","","","4","","stimuli/stars_4.png","269.5","","","","","stimuli/WF11_HO.jpg","",""
"explore-choice","163","601965","0.0-163.0","p533640","A7204W9E8IR1R","3WPCIUYH1BELQU8EB2L3QVOOKYBTD4","3M81GAB8A2PI61GW6453FKKQGIUBQM","model","match","uniform","","","","","","","964.6000000238419","602060.1000000238","603024.7000000477","[""stimuli/BF05_HE.jpg"",""stimuli/WM07_SUR.jpg"",""stimuli/WF11_HO.jpg"",""stimuli/AM09_AO.jpg""]","stimuli/BF05_HE.jpg","stimuli/WM07_SUR.jpg","stimuli/WF11_HO.jpg","stimuli/AM09_AO.jpg","pos4","stimuli/AM09_AO.jpg","AO","AM09","3","3.5","7","8","stimuli/stars_7.png","273","[""HE"",""SUR"",""HO"",""AO""]","[""BF05"",""WM07"",""WF11"",""AM09""]","[2,4,7,7]","[4,2,6,8]","","",""
"show-reward","164","603980","0.0-164.0","p533640","A7204W9E8IR1R","3WPCIUYH1BELQU8EB2L3QVOOKYBTD4","3M81GAB8A2PI61GW6453FKKQGIUBQM","model","match","uniform","","","","","","","","603534.2000000477","605547.6000000238","","","","","","","","","","","","7","","stimuli/stars_7.png","273","","","","","stimuli/AM09_AO.jpg","",""
"explore-choice","165","606101","0.0-165.0","p533640","A7204W9E8IR1R","3WPCIUYH1BELQU8EB2L3QVOOKYBTD4","3M81GAB8A2PI61GW6453FKKQGIUBQM","model","match","uniform","","","","","","","1609.1000000238419","605549.3999999762","607158.5","[""stimuli/WM07_AO.jpg"",""stimuli/BF05_SUR.jpg"",""stimuli/WF11_HO.jpg"",""stimuli/AM09_HE.jpg""]","stimuli/WM07_AO.jpg","stimuli/BF05_SUR.jpg","stimuli/WF11_HO.jpg","stimuli/AM09_HE.jpg","pos4","stimuli/AM09_HE.jpg","HE","AM09","3","4","8","8","stimuli/stars_8.png","277","[""AO"",""SUR"",""HO"",""HE""]","[""WM07"",""BF05"",""WF11"",""AM09""]","[1,3,4,8]","[2,4,6,8]","","",""
"show-reward","166","608128","0.0-166.0","p533640","A7204W9E8IR1R","3WPCIUYH1BELQU8EB2L3QVOOKYBTD4","3M81GAB8A2PI61GW6453FKKQGIUBQM","model","match","uniform","","","","","","","","607671.6000000238","609695","","","","","","","","","","","","8","","stimuli/stars_8.png","277","","","","","stimuli/AM09_HE.jpg","",""
"explore-choice","167","609982","0.0-167.0","p533640","A7204W9E8IR1R","3WPCIUYH1BELQU8EB2L3QVOOKYBTD4","3M81GAB8A2PI61GW6453FKKQGIUBQM","model","match","uniform","","","","","","","1341.2000000476837","609696.5","611037.7000000477","[""stimuli/WF11_SUR.jpg"",""stimuli/BF05_AO.jpg"",""stimuli/AM09_HO.jpg"",""stimuli/WM07_HE.jpg""]","stimuli/WF11_SUR.jpg","stimuli/BF05_AO.jpg","stimuli/AM09_HO.jpg","stimuli/WM07_HE.jpg","pos3","stimuli/AM09_HO.jpg","HO","AM09","2","3","6","8","stimuli/stars_6.png","280","[""SUR"",""AO"",""HO"",""HE""]","[""WF11"",""BF05"",""AM09"",""WM07""]","[4,3,6,2]","[6,4,8,2]","","",""
"show-reward","168","611987","0.0-168.0","p533640","A7204W9E8IR1R","3WPCIUYH1BELQU8EB2L3QVOOKYBTD4","3M81GAB8A2PI61GW6453FKKQGIUBQM","model","match","uniform","","","","","","","","611550.8999999762","613554.1000000238","","","","","","","","","","","","6","","stimuli/stars_6.png","280","","","","","stimuli/AM09_HO.jpg","",""
"explore-choice","169","613583","0.0-169.0","p533640","A7204W9E8IR1R","3WPCIUYH1BELQU8EB2L3QVOOKYBTD4","3M81GAB8A2PI61GW6453FKKQGIUBQM","model","match","uniform","","","","","","","1081.1000000238419","613554.8999999762","614636","[""stimuli/AM09_SUR.jpg"",""stimuli/WF11_HO.jpg"",""stimuli/WM07_AO.jpg"",""stimuli/BF05_HE.jpg""]","stimuli/AM09_SUR.jpg","stimuli/WF11_HO.jpg","stimuli/WM07_AO.jpg","stimuli/BF05_HE.jpg","pos1","stimuli/AM09_SUR.jpg","SUR","AM09","0","5","10","8","stimuli/stars_10.png","285","[""SUR"",""HO"",""AO"",""HE""]","[""AM09"",""WF11"",""WM07"",""BF05""]","[10,7,0,6]","[8,6,2,4]","","",""
"show-reward","170","615601","0.0-170.0","p533640","A7204W9E8IR1R","3WPCIUYH1BELQU8EB2L3QVOOKYBTD4","3M81GAB8A2PI61GW6453FKKQGIUBQM","model","match","uniform","","","","","","","","615151.7000000477","617167.8999999762","","","","","","","","","","","","10","","stimuli/stars_10.png","285","","","","","stimuli/AM09_SUR.jpg","",""
"explore-choice","171","617205","0.0-171.0","p533640","A7204W9E8IR1R","3WPCIUYH1BELQU8EB2L3QVOOKYBTD4","3M81GAB8A2PI61GW6453FKKQGIUBQM","model","match","uniform","","","","","","","1088","617169.3999999762","618257.3999999762","[""stimuli/BF05_HO.jpg"",""stimuli/AM09_HE.jpg"",""stimuli/WF11_SUR.jpg"",""stimuli/WM07_AO.jpg""]","stimuli/BF05_HO.jpg","stimuli/AM09_HE.jpg","stimuli/WF11_SUR.jpg","stimuli/WM07_AO.jpg","pos2","stimuli/AM09_HE.jpg","HE","AM09","1","3","6","8","stimuli/stars_6.png","288","[""HO"",""HE"",""SUR"",""AO""]","[""BF05"",""AM09"",""WF11"",""WM07""]","[3,6,7,0]","[4,8,6,2]","","",""
"show-reward","172","619212","0.0-172.0","p533640","A7204W9E8IR1R","3WPCIUYH1BELQU8EB2L3QVOOKYBTD4","3M81GAB8A2PI61GW6453FKKQGIUBQM","model","match","uniform","","","","","","","","618773.2999999523","620778.8999999762","","","","","","","","","","","","6","","stimuli/stars_6.png","288","","","","","stimuli/AM09_HE.jpg","",""
"explore-choice","173","620684","0.0-173.0","p533640","A7204W9E8IR1R","3WPCIUYH1BELQU8EB2L3QVOOKYBTD4","3M81GAB8A2PI61GW6453FKKQGIUBQM","model","match","uniform","","","","","","","964","620780.5","621744.5","[""stimuli/WM07_HO.jpg"",""stimuli/AM09_HE.jpg"",""stimuli/BF05_AO.jpg"",""stimuli/WF11_SUR.jpg""]","stimuli/WM07_HO.jpg","stimuli/AM09_HE.jpg","stimuli/BF05_AO.jpg","stimuli/WF11_SUR.jpg","pos2","stimuli/AM09_HE.jpg","HE","AM09","1","4.5","9","8","stimuli/stars_9.png","292.5","[""HO"",""HE"",""AO"",""SUR""]","[""WM07"",""AM09"",""BF05"",""WF11""]","[0,9,5,4]","[2,8,4,6]","","",""
"show-reward","174","622700","0.0-174.0","p533640","A7204W9E8IR1R","3WPCIUYH1BELQU8EB2L3QVOOKYBTD4","3M81GAB8A2PI61GW6453FKKQGIUBQM","model","match","uniform","","","","","","","","622252.7999999523","624267.3999999762","","","","","","","","","","","","9","","stimuli/stars_9.png","292.5","","","","","stimuli/AM09_HE.jpg","",""
"explore-choice","175","624077","0.0-175.0","p533640","A7204W9E8IR1R","3WPCIUYH1BELQU8EB2L3QVOOKYBTD4","3M81GAB8A2PI61GW6453FKKQGIUBQM","model","match","uniform","","","","","","","864.5999999046326","624269.7000000477","625134.2999999523","[""stimuli/BF05_AO.jpg"",""stimuli/AM09_SUR.jpg"",""stimuli/WF11_HE.jpg"",""stimuli/WM07_HO.jpg""]","stimuli/BF05_AO.jpg","stimuli/AM09_SUR.jpg","stimuli/WF11_HE.jpg","stimuli/WM07_HO.jpg","pos2","stimuli/AM09_SUR.jpg","SUR","AM09","1","4","8","8","stimuli/stars_8.png","296.5","[""AO"",""SUR"",""HE"",""HO""]","[""BF05"",""AM09"",""WF11"",""WM07""]","[6,8,6,1]","[4,8,6,2]","","",""
"show-reward","176","626097","0.0-176.0","p533640","A7204W9E8IR1R","3WPCIUYH1BELQU8EB2L3QVOOKYBTD4","3M81GAB8A2PI61GW6453FKKQGIUBQM","model","match","uniform","","","","","","","","625645","627663.7000000477","","","","","","","","","","","","8","","stimuli/stars_8.png","296.5","","","","","stimuli/AM09_SUR.jpg","",""
"explore-choice","177","628254","0.0-177.0","p533640","A7204W9E8IR1R","3WPCIUYH1BELQU8EB2L3QVOOKYBTD4","3M81GAB8A2PI61GW6453FKKQGIUBQM","model","match","uniform","","","","","","","1647.7999999523163","627668.6000000238","629316.3999999762","[""stimuli/WF11_SUR.jpg"",""stimuli/WM07_AO.jpg"",""stimuli/AM09_HO.jpg"",""stimuli/BF05_HE.jpg""]","stimuli/WF11_SUR.jpg","stimuli/WM07_AO.jpg","stimuli/AM09_HO.jpg","stimuli/BF05_HE.jpg","pos3","stimuli/AM09_HO.jpg","HO","AM09","2","3.5","7","8","stimuli/stars_7.png","300","[""SUR"",""AO"",""HO"",""HE""]","[""WF11"",""WM07"",""AM09"",""BF05""]","[7,2,7,6]","[6,2,8,4]","","",""
"show-reward","178","630259","0.0-178.0","p533640","A7204W9E8IR1R","3WPCIUYH1BELQU8EB2L3QVOOKYBTD4","3M81GAB8A2PI61GW6453FKKQGIUBQM","model","match","uniform","","","","","","","","629822.6000000238","631826.6000000238","","","","","","","","","","","","7","","stimuli/stars_7.png","300","","","","","stimuli/AM09_HO.jpg","",""
"explore-choice","179","631555","0.0-179.0","p533640","A7204W9E8IR1R","3WPCIUYH1BELQU8EB2L3QVOOKYBTD4","3M81GAB8A2PI61GW6453FKKQGIUBQM","model","match","uniform","","","","","","","792.6999999284744","631827.7000000477","632620.3999999762","[""stimuli/WM07_SUR.jpg"",""stimuli/AM09_HE.jpg"",""stimuli/WF11_AO.jpg"",""stimuli/BF05_HO.jpg""]","stimuli/WM07_SUR.jpg","stimuli/AM09_HE.jpg","stimuli/WF11_AO.jpg","stimuli/BF05_HO.jpg","pos2","stimuli/AM09_HE.jpg","HE","AM09","1","4","8","8","stimuli/stars_8.png","304","[""SUR"",""HE"",""AO"",""HO""]","[""WM07"",""AM09"",""WF11"",""BF05""]","[0,8,4,4]","[2,8,6,4]","","",""
"show-reward","180","633561","0.0-180.0","p533640","A7204W9E8IR1R","3WPCIUYH1BELQU8EB2L3QVOOKYBTD4","3M81GAB8A2PI61GW6453FKKQGIUBQM","model","match","uniform","","","","","","","","633123.6000000238","635128.2999999523","","","","","","","","","","","","8","","stimuli/stars_8.png","304","","","","","stimuli/AM09_HE.jpg","",""
"explore-choice","181","635129","0.0-181.0","p533640","A7204W9E8IR1R","3WPCIUYH1BELQU8EB2L3QVOOKYBTD4","3M81GAB8A2PI61GW6453FKKQGIUBQM","model","match","uniform","","","","","","","1063.6000000238419","635129.7999999523","636193.3999999762","[""stimuli/AM09_SUR.jpg"",""stimuli/WF11_AO.jpg"",""stimuli/BF05_HO.jpg"",""stimuli/WM07_HE.jpg""]","stimuli/AM09_SUR.jpg","stimuli/WF11_AO.jpg","stimuli/BF05_HO.jpg","stimuli/WM07_HE.jpg","pos1","stimuli/AM09_SUR.jpg","SUR","AM09","0","4.5","9","8","stimuli/stars_9.png","308.5","[""SUR"",""AO"",""HO"",""HE""]","[""AM09"",""WF11"",""BF05"",""WM07""]","[9,5,5,0]","[8,6,4,2]","","",""
"show-reward","182","637135","0.0-182.0","p533640","A7204W9E8IR1R","3WPCIUYH1BELQU8EB2L3QVOOKYBTD4","3M81GAB8A2PI61GW6453FKKQGIUBQM","model","match","uniform","","","","","","","","636697.8999999762","638702","","","","","","","","","","","","9","","stimuli/stars_9.png","308.5","","","","","stimuli/AM09_SUR.jpg","",""
"explore-choice","183","639130","0.0-183.0","p533640","A7204W9E8IR1R","3WPCIUYH1BELQU8EB2L3QVOOKYBTD4","3M81GAB8A2PI61GW6453FKKQGIUBQM","model","match","uniform","","","","","","","1480.2999999523163","638703.7000000477","640184","[""stimuli/WF11_HE.jpg"",""stimuli/WM07_HO.jpg"",""stimuli/BF05_SUR.jpg"",""stimuli/AM09_AO.jpg""]","stimuli/WF11_HE.jpg","stimuli/WM07_HO.jpg","stimuli/BF05_SUR.jpg","stimuli/AM09_AO.jpg","pos4","stimuli/AM09_AO.jpg","AO","AM09","3","4.5","9","8","stimuli/stars_9.png","313","[""HE"",""HO"",""SUR"",""AO""]","[""WF11"",""WM07"",""BF05"",""AM09""]","[5,0,6,9]","[6,2,4,8]","","",""
"show-reward","184","641142","0.0-184.0","p533640","A7204W9E8IR1R","3WPCIUYH1BELQU8EB2L3QVOOKYBTD4","3M81GAB8A2PI61GW6453FKKQGIUBQM","model","match","uniform","","","","","","","","640699.2999999523","642709.7000000477","","","","","","","","","","","","9","","stimuli/stars_9.png","313","","","","","stimuli/AM09_AO.jpg","",""
"explore-choice","185","642762","0.0-185.0","p533640","A7204W9E8IR1R","3WPCIUYH1BELQU8EB2L3QVOOKYBTD4","3M81GAB8A2PI61GW6453FKKQGIUBQM","model","match","uniform","","","","","","","1102.5999999046326","642711.7000000477","643814.2999999523","[""stimuli/AM09_AO.jpg"",""stimuli/WM07_HO.jpg"",""stimuli/WF11_SUR.jpg"",""stimuli/BF05_HE.jpg""]","stimuli/AM09_AO.jpg","stimuli/WM07_HO.jpg","stimuli/WF11_SUR.jpg","stimuli/BF05_HE.jpg","pos1","stimuli/AM09_AO.jpg","AO","AM09","0","3","6","8","stimuli/stars_6.png","316","[""AO"",""HO"",""SUR"",""HE""]","[""AM09"",""WM07"",""WF11"",""BF05""]","[6,3,4,3]","[8,2,6,4]","","",""
"show-reward","186","644768","0.0-186.0","p533640","A7204W9E8IR1R","3WPCIUYH1BELQU8EB2L3QVOOKYBTD4","3M81GAB8A2PI61GW6453FKKQGIUBQM","model","match","uniform","","","","","","","","644330.1000000238","646334.8999999762","","","","","","","","","","","","6","","stimuli/stars_6.png","316","","","","","stimuli/AM09_AO.jpg","",""
"explore-choice","187","646404","0.0-187.0","p533640","A7204W9E8IR1R","3WPCIUYH1BELQU8EB2L3QVOOKYBTD4","3M81GAB8A2PI61GW6453FKKQGIUBQM","model","match","uniform","","","","","","","1133.1999999284744","646336.1000000238","647469.2999999523","[""stimuli/WM07_SUR.jpg"",""stimuli/AM09_HO.jpg"",""stimuli/WF11_AO.jpg"",""stimuli/BF05_HE.jpg""]","stimuli/WM07_SUR.jpg","stimuli/AM09_HO.jpg","stimuli/WF11_AO.jpg","stimuli/BF05_HE.jpg","pos2","stimuli/AM09_HO.jpg","HO","AM09","1","4","8","8","stimuli/stars_8.png","320","[""SUR"",""HO"",""AO"",""HE""]","[""WM07"",""AM09"",""WF11"",""BF05""]","[3,8,6,2]","[2,8,6,4]","","",""
"show-reward","188","648428","0.0-188.0","p533640","A7204W9E8IR1R","3WPCIUYH1BELQU8EB2L3QVOOKYBTD4","3M81GAB8A2PI61GW6453FKKQGIUBQM","model","match","uniform","","","","","","","","647972.2000000477","649994.5","","","","","","","","","","","","8","","stimuli/stars_8.png","320","","","","","stimuli/AM09_HO.jpg","",""
"explore-choice","189","650363","0.0-189.0","p533640","A7204W9E8IR1R","3WPCIUYH1BELQU8EB2L3QVOOKYBTD4","3M81GAB8A2PI61GW6453FKKQGIUBQM","model","match","uniform","","","","","","","1430.8000000715256","649996.2999999523","651427.1000000238","[""stimuli/AM09_HE.jpg"",""stimuli/BF05_SUR.jpg"",""stimuli/WF11_AO.jpg"",""stimuli/WM07_HO.jpg""]","stimuli/AM09_HE.jpg","stimuli/BF05_SUR.jpg","stimuli/WF11_AO.jpg","stimuli/WM07_HO.jpg","pos1","stimuli/AM09_HE.jpg","HE","AM09","0","5","10","8","stimuli/stars_10.png","325","[""HE"",""SUR"",""AO"",""HO""]","[""AM09"",""BF05"",""WF11"",""WM07""]","[10,5,7,1]","[8,4,6,2]","","",""
"show-reward","190","652380","0.0-190.0","p533640","A7204W9E8IR1R","3WPCIUYH1BELQU8EB2L3QVOOKYBTD4","3M81GAB8A2PI61GW6453FKKQGIUBQM","model","match","uniform","","","","","","","","651931.2999999523","653947","","","","","","","","","","","","10","","stimuli/stars_10.png","325","","","","","stimuli/AM09_HE.jpg","",""
"explore-choice","191","653900","0.0-191.0","p533640","A7204W9E8IR1R","3WPCIUYH1BELQU8EB2L3QVOOKYBTD4","3M81GAB8A2PI61GW6453FKKQGIUBQM","model","match","uniform","","","","","","","1005.1999999284744","653948.1000000238","654953.2999999523","[""stimuli/WM07_HE.jpg"",""stimuli/BF05_SUR.jpg"",""stimuli/WF11_AO.jpg"",""stimuli/AM09_HO.jpg""]","stimuli/WM07_HE.jpg","stimuli/BF05_SUR.jpg","stimuli/WF11_AO.jpg","stimuli/AM09_HO.jpg","pos4","stimuli/AM09_HO.jpg","HO","AM09","3","5","10","8","stimuli/stars_10.png","330","[""HE"",""SUR"",""AO"",""HO""]","[""WM07"",""BF05"",""WF11"",""AM09""]","[0,4,6,10]","[2,4,6,8]","","",""
"show-reward","192","655918","0.0-192.0","p533640","A7204W9E8IR1R","3WPCIUYH1BELQU8EB2L3QVOOKYBTD4","3M81GAB8A2PI61GW6453FKKQGIUBQM","model","match","uniform","","","","","","","","655468.1000000238","657485.3999999762","","","","","","","","","","","","10","","stimuli/stars_10.png","330","","","","","stimuli/AM09_HO.jpg","",""
"explore-choice","193","657719","0.0-193.0","p533640","A7204W9E8IR1R","3WPCIUYH1BELQU8EB2L3QVOOKYBTD4","3M81GAB8A2PI61GW6453FKKQGIUBQM","model","match","uniform","","","","","","","1288.8999999761581","657486.2000000477","658775.1000000238","[""stimuli/BF05_SUR.jpg"",""stimuli/AM09_HO.jpg"",""stimuli/WF11_HE.jpg"",""stimuli/WM07_AO.jpg""]","stimuli/BF05_SUR.jpg","stimuli/AM09_HO.jpg","stimuli/WF11_HE.jpg","stimuli/WM07_AO.jpg","pos2","stimuli/AM09_HO.jpg","HO","AM09","1","3.5","7","8","stimuli/stars_7.png","333.5","[""SUR"",""HO"",""HE"",""AO""]","[""BF05"",""AM09"",""WF11"",""WM07""]","[6,7,7,4]","[4,8,6,2]","","",""
"show-reward","194","659737","0.0-194.0","p533640","A7204W9E8IR1R","3WPCIUYH1BELQU8EB2L3QVOOKYBTD4","3M81GAB8A2PI61GW6453FKKQGIUBQM","model","match","uniform","","","","","","","","659287.6000000238","661303.6000000238","","","","","","","","","","","","7","","stimuli/stars_7.png","333.5","","","","","stimuli/AM09_HO.jpg","",""
"explore-choice","195","661417","0.0-195.0","p533640","A7204W9E8IR1R","3WPCIUYH1BELQU8EB2L3QVOOKYBTD4","3M81GAB8A2PI61GW6453FKKQGIUBQM","model","match","uniform","","","","","","","1165.3999999761581","661305.2000000477","662470.6000000238","[""stimuli/BF05_AO.jpg"",""stimuli/AM09_HO.jpg"",""stimuli/WM07_SUR.jpg"",""stimuli/WF11_HE.jpg""]","stimuli/BF05_AO.jpg","stimuli/AM09_HO.jpg","stimuli/WM07_SUR.jpg","stimuli/WF11_HE.jpg","pos2","stimuli/AM09_HO.jpg","HO","AM09","1","5","10","8","stimuli/stars_10.png","338.5","[""AO"",""HO"",""SUR"",""HE""]","[""BF05"",""AM09"",""WM07"",""WF11""]","[5,10,0,5]","[4,8,2,6]","","",""
"show-reward","196","663428","0.0-196.0","p533640","A7204W9E8IR1R","3WPCIUYH1BELQU8EB2L3QVOOKYBTD4","3M81GAB8A2PI61GW6453FKKQGIUBQM","model","match","uniform","","","","","","","","662985.8999999762","664994.5","","","","","","","","","","","","10","","stimuli/stars_10.png","338.5","","","","","stimuli/AM09_HO.jpg","",""
"explore-choice","197","665679","0.0-197.0","p533640","A7204W9E8IR1R","3WPCIUYH1BELQU8EB2L3QVOOKYBTD4","3M81GAB8A2PI61GW6453FKKQGIUBQM","model","match","uniform","","","","","","","1735.1999999284744","664997.1000000238","666732.2999999523","[""stimuli/WM07_SUR.jpg"",""stimuli/BF05_HO.jpg"",""stimuli/WF11_HE.jpg"",""stimuli/AM09_AO.jpg""]","stimuli/WM07_SUR.jpg","stimuli/BF05_HO.jpg","stimuli/WF11_HE.jpg","stimuli/AM09_AO.jpg","pos4","stimuli/AM09_AO.jpg","AO","AM09","3","5","10","8","stimuli/stars_10.png","343.5","[""SUR"",""HO"",""HE"",""AO""]","[""WM07"",""BF05"",""WF11"",""AM09""]","[2,5,5,10]","[2,4,6,8]","","",""
"show-reward","198","667697","0.0-198.0","p533640","A7204W9E8IR1R","3WPCIUYH1BELQU8EB2L3QVOOKYBTD4","3M81GAB8A2PI61GW6453FKKQGIUBQM","model","match","uniform","","","","","","","","667248.2000000477","669263.6000000238","","","","","","","","","","","","10","","stimuli/stars_10.png","343.5","","","","","stimuli/AM09_AO.jpg","",""
"instructions","199","673697","0.0-199.0","p533640","A7204W9E8IR1R","3WPCIUYH1BELQU8EB2L3QVOOKYBTD4","3M81GAB8A2PI61GW6453FKKQGIUBQM","model","match","uniform","","","","","","[{""page_index"":0,""viewing_time"":5999.199999928474}]","5999.699999928474","","","","","","","","","","","","","","","","","","","","","","","",""
"survey-text","200","676985","0.0-200.0-0.0","p533640","A7204W9E8IR1R","3WPCIUYH1BELQU8EB2L3QVOOKYBTD4","3M81GAB8A2PI61GW6453FKKQGIUBQM","model","match","uniform","","","","","","","3282.4000000953674","","","","","","","","","","","","","","","","","","","","","","","{""age"":""32""}",""
"survey-text","201","679855","0.0-200.0-1.0","p533640","A7204W9E8IR1R","3WPCIUYH1BELQU8EB2L3QVOOKYBTD4","3M81GAB8A2PI61GW6453FKKQGIUBQM","model","match","uniform","","","","","","","2864.899999976158","","","","","","","","","","","","","","","","","","","","","","","{""gender"":""female""}",""
"survey-text","202","682678","0.0-200.0-2.0","p533640","A7204W9E8IR1R","3WPCIUYH1BELQU8EB2L3QVOOKYBTD4","3M81GAB8A2PI61GW6453FKKQGIUBQM","model","match","uniform","","","","","","","2819.3000000715256","","","","","","","","","","","","","","","","","","","","","","","{""country"":""USA""}",""
"survey-text","203","686780","0.0-200.0-3.0","p533640","A7204W9E8IR1R","3WPCIUYH1BELQU8EB2L3QVOOKYBTD4","3M81GAB8A2PI61GW6453FKKQGIUBQM","model","match","uniform","","","","","","","4097.899999976158","","","","","","","","","","","","","","","","","","","","","","","{""language"":""English"",""other_languages"":""""}",""
"survey-multi-select","204","689227","0.0-201.0","p533640","A7204W9E8IR1R","3WPCIUYH1BELQU8EB2L3QVOOKYBTD4","3M81GAB8A2PI61GW6453FKKQGIUBQM","model","match","uniform","","","","","","","2439.7999999523163","","","","","","","","","","","","","","","","","","","","","","","{""race"":[""White""]}","[0]"
"survey-multi-choice","205","690762","0.0-202.0","p533640","A7204W9E8IR1R","3WPCIUYH1BELQU8EB2L3QVOOKYBTD4","3M81GAB8A2PI61GW6453FKKQGIUBQM","model","match","uniform","","","","","","","1526.1000000238419","","","","","","","","","","","","","","","","","","","","","","","{""education"":""High school""}","[0]"
"survey-text","206","715783","0.0-203.0","p533640","A7204W9E8IR1R","3WPCIUYH1BELQU8EB2L3QVOOKYBTD4","3M81GAB8A2PI61GW6453FKKQGIUBQM","model","match","uniform","","","","","","","25010","","","","","","","","","","","","","","","","","","","","","","","{""patterns"":""No I didn't notice any "",""strategy"":""I clicked each person first and whoever had the most stars I kept clicking their picture."",""comments"":""none""}",""
