"trial_type","trial_index","time_elapsed","internal_node_id","subject","workerId","hitId","assignmentId","structure_condition","match_condition","noise_type","success","timeout","failed_images","failed_audio","failed_video","view_history","rt","start_time","end_time","stimuli","image1","image2","image3","image4","choiceLocation","choiceImage","choiceEmotion","choiceModel","choice_index","reward_score","reward","reward_score_unadjusted","reward_image","score_after_trial","emotions","models","rewards","rewards_unadjusted","stimulus","response","question_order"
"pavlovia","0","13","0.0-0.0","p310416","A1P47Q6LZPLQ6P","3P888QFVX40Z2B7BK75OWKP045JQOK","3XLBSAQ9Z6I4IHEXGJC01BAY2WXZ7T","model","match","uniform","","","","","","","","","","","","","","","","","","","","","","","","","","","","","","",""
"preload","1","10000","0.0-1.0","p310416","A1P47Q6LZPLQ6P","3P888QFVX40Z2B7BK75OWKP045JQOK","3XLBSAQ9Z6I4IHEXGJC01BAY2WXZ7T","model","match","uniform","true","false","[]","[]","[]","","","","","","","","","","","","","","","","","","","","","","","","","",""
"fullscreen","2","622419","0.0-2.0","p310416","A1P47Q6LZPLQ6P","3P888QFVX40Z2B7BK75OWKP045JQOK","3XLBSAQ9Z6I4IHEXGJC01BAY2WXZ7T","model","match","uniform","true","","","","","","","","","","","","","","","","","","","","","","","","","","","","","",""
"instructions","3","625451","0.0-3.0","p310416","A1P47Q6LZPLQ6P","3P888QFVX40Z2B7BK75OWKP045JQOK","3XLBSAQ9Z6I4IHEXGJC01BAY2WXZ7T","model","match","uniform","","","","","","[{""page_index"":0,""viewing_time"":3029}]","3029","","","","","","","","","","","","","","","","","","","","","","","",""
"explore-choice","4","627298","0.0-4.0","p310416","A1P47Q6LZPLQ6P","3P888QFVX40Z2B7BK75OWKP045JQOK","3XLBSAQ9Z6I4IHEXGJC01BAY2WXZ7T","model","match","uniform","","","","","","","1339","627075","628414","[""stimuli/sheep.jpg"",""stimuli/hammer.jpg"",""stimuli/basketball.jpg"",""stimuli/horse.jpg""]","stimuli/sheep.jpg","stimuli/hammer.jpg","stimuli/basketball.jpg","stimuli/horse.jpg","pos4","stimuli/horse.jpg","","","3","64","64","64","stimuli/stars_8.png","65","","","","","","",""
"explore-choice","5","628855","0.0-5.0","p310416","A1P47Q6LZPLQ6P","3P888QFVX40Z2B7BK75OWKP045JQOK","3XLBSAQ9Z6I4IHEXGJC01BAY2WXZ7T","model","match","uniform","","","","","","","1050","628921","629971","[""stimuli/hammer.jpg"",""stimuli/basketball.jpg"",""stimuli/horse.jpg"",""stimuli/sheep.jpg""]","stimuli/hammer.jpg","stimuli/basketball.jpg","stimuli/horse.jpg","stimuli/sheep.jpg","pos1","stimuli/hammer.jpg","","","0","8","8","8","stimuli/stars_2.png","9","","","","","","",""
"instructions","6","650648","0.0-6.0","p310416","A1P47Q6LZPLQ6P","3P888QFVX40Z2B7BK75OWKP045JQOK","3XLBSAQ9Z6I4IHEXGJC01BAY2WXZ7T","model","match","uniform","","","","","","[{""page_index"":0,""viewing_time"":21791}]","21791","","","","","","","","","","","","","","","","","","","","","","","",""
"explore-choice","7","652899","0.0-7.0","p310416","A1P47Q6LZPLQ6P","3P888QFVX40Z2B7BK75OWKP045JQOK","3XLBSAQ9Z6I4IHEXGJC01BAY2WXZ7T","model","match","uniform","","","","","","","1734","652272","654006","[""stimuli/AM06_HE.jpg"",""stimuli/WM07_FO.jpg"",""stimuli/HF02_SUR.jpg"",""stimuli/BM07_AO.jpg""]","stimuli/AM06_HE.jpg","stimuli/WM07_FO.jpg","stimuli/HF02_SUR.jpg","stimuli/BM07_AO.jpg","pos1","stimuli/AM06_HE.jpg","HE","AM06","0","3","6","6","stimuli/stars_6.png","4","[""HE"",""FO"",""SUR"",""AO""]","[""AM06"",""WM07"",""HF02"",""BM07""]","[6,1,7,2]","[6,2,8,4]","","",""
"show-reward","8","654914","0.0-8.0","p310416","A1P47Q6LZPLQ6P","3P888QFVX40Z2B7BK75OWKP045JQOK","3XLBSAQ9Z6I4IHEXGJC01BAY2WXZ7T","model","match","uniform","","","","","","","","654522","656536","","","","","","","","","","","","6","","stimuli/stars_6.png","4","","","","","stimuli/AM06_HE.jpg","",""
"explore-choice","9","656503","0.0-9.0","p310416","A1P47Q6LZPLQ6P","3P888QFVX40Z2B7BK75OWKP045JQOK","3XLBSAQ9Z6I4IHEXGJC01BAY2WXZ7T","model","match","uniform","","","","","","","1073","656537","657610","[""stimuli/WM07_SUR.jpg"",""stimuli/BM07_AO.jpg"",""stimuli/HF02_FO.jpg"",""stimuli/AM06_HE.jpg""]","stimuli/WM07_SUR.jpg","stimuli/BM07_AO.jpg","stimuli/HF02_FO.jpg","stimuli/AM06_HE.jpg","pos4","stimuli/AM06_HE.jpg","HE","AM06","3","3","6","6","stimuli/stars_6.png","7","[""SUR"",""AO"",""FO"",""HE""]","[""WM07"",""BM07"",""HF02"",""AM06""]","[4,5,7,6]","[2,4,8,6]","","",""
"show-reward","10","658509","0.0-10.0","p310416","A1P47Q6LZPLQ6P","3P888QFVX40Z2B7BK75OWKP045JQOK","3XLBSAQ9Z6I4IHEXGJC01BAY2WXZ7T","model","match","uniform","","","","","","","","658126","660131","","","","","","","","","","","","6","","stimuli/stars_6.png","7","","","","","stimuli/AM06_HE.jpg","",""
"explore-choice","11","659709","0.0-11.0","p310416","A1P47Q6LZPLQ6P","3P888QFVX40Z2B7BK75OWKP045JQOK","3XLBSAQ9Z6I4IHEXGJC01BAY2WXZ7T","model","match","uniform","","","","","","","694","660132","660826","[""stimuli/BM07_FO.jpg"",""stimuli/WM07_AO.jpg"",""stimuli/HF02_HE.jpg"",""stimuli/AM06_SUR.jpg""]","stimuli/BM07_FO.jpg","stimuli/WM07_AO.jpg","stimuli/HF02_HE.jpg","stimuli/AM06_SUR.jpg","pos3","stimuli/HF02_HE.jpg","HE","HF02","2","3.5","7","8","stimuli/stars_7.png","10.5","[""FO"",""AO"",""HE"",""SUR""]","[""BM07"",""WM07"",""HF02"",""AM06""]","[3,2,7,7]","[4,2,8,6]","","",""
"show-reward","12","661718","0.0-12.0","p310416","A1P47Q6LZPLQ6P","3P888QFVX40Z2B7BK75OWKP045JQOK","3XLBSAQ9Z6I4IHEXGJC01BAY2WXZ7T","model","match","uniform","","","","","","","","661331","663340","","","","","","","","","","","","7","","stimuli/stars_7.png","10.5","","","","","stimuli/HF02_HE.jpg","",""
"explore-choice","13","664069","0.0-13.0","p310416","A1P47Q6LZPLQ6P","3P888QFVX40Z2B7BK75OWKP045JQOK","3XLBSAQ9Z6I4IHEXGJC01BAY2WXZ7T","model","match","uniform","","","","","","","1843","663341","665184","[""stimuli/BM07_HE.jpg"",""stimuli/AM06_AO.jpg"",""stimuli/HF02_FO.jpg"",""stimuli/WM07_SUR.jpg""]","stimuli/BM07_HE.jpg","stimuli/AM06_AO.jpg","stimuli/HF02_FO.jpg","stimuli/WM07_SUR.jpg","pos4","stimuli/WM07_SUR.jpg","SUR","WM07","3","0","0","2","stimuli/stars_0.png","10.5","[""HE"",""AO"",""FO"",""SUR""]","[""BM07"",""AM06"",""HF02"",""WM07""]","[6,7,10,0]","[4,6,8,2]","","",""
"show-reward","14","666080","0.0-14.0","p310416","A1P47Q6LZPLQ6P","3P888QFVX40Z2B7BK75OWKP045JQOK","3XLBSAQ9Z6I4IHEXGJC01BAY2WXZ7T","model","match","uniform","","","","","","","","665691","667702","","","","","","","","","","","","0","","stimuli/stars_0.png","10.5","","","","","stimuli/WM07_SUR.jpg","",""
"explore-choice","15","668284","0.0-15.0","p310416","A1P47Q6LZPLQ6P","3P888QFVX40Z2B7BK75OWKP045JQOK","3XLBSAQ9Z6I4IHEXGJC01BAY2WXZ7T","model","match","uniform","","","","","","","1694","667702","669396","[""stimuli/BM07_FO.jpg"",""stimuli/WM07_SUR.jpg"",""stimuli/HF02_AO.jpg"",""stimuli/AM06_HE.jpg""]","stimuli/BM07_FO.jpg","stimuli/WM07_SUR.jpg","stimuli/HF02_AO.jpg","stimuli/AM06_HE.jpg","pos4","stimuli/AM06_HE.jpg","HE","AM06","3","2.5","5","6","stimuli/stars_5.png","13","[""FO"",""SUR"",""AO"",""HE""]","[""BM07"",""WM07"",""HF02"",""AM06""]","[4,1,6,5]","[4,2,8,6]","","",""
"show-reward","16","670293","0.0-16.0","p310416","A1P47Q6LZPLQ6P","3P888QFVX40Z2B7BK75OWKP045JQOK","3XLBSAQ9Z6I4IHEXGJC01BAY2WXZ7T","model","match","uniform","","","","","","","","669906","671915","","","","","","","","","","","","5","","stimuli/stars_5.png","13","","","","","stimuli/AM06_HE.jpg","",""
"explore-choice","17","671880","0.0-17.0","p310416","A1P47Q6LZPLQ6P","3P888QFVX40Z2B7BK75OWKP045JQOK","3XLBSAQ9Z6I4IHEXGJC01BAY2WXZ7T","model","match","uniform","","","","","","","1074","671916","672990","[""stimuli/AM06_SUR.jpg"",""stimuli/WM07_HE.jpg"",""stimuli/BM07_FO.jpg"",""stimuli/HF02_AO.jpg""]","stimuli/AM06_SUR.jpg","stimuli/WM07_HE.jpg","stimuli/BM07_FO.jpg","stimuli/HF02_AO.jpg","pos2","stimuli/WM07_HE.jpg","HE","WM07","1","0","0","2","stimuli/stars_0.png","13","[""SUR"",""HE"",""FO"",""AO""]","[""AM06"",""WM07"",""BM07"",""HF02""]","[7,0,2,8]","[6,2,4,8]","","",""
"show-reward","18","673894","0.0-18.0","p310416","A1P47Q6LZPLQ6P","3P888QFVX40Z2B7BK75OWKP045JQOK","3XLBSAQ9Z6I4IHEXGJC01BAY2WXZ7T","model","match","uniform","","","","","","","","673503","675515","","","","","","","","","","","","0","","stimuli/stars_0.png","13","","","","","stimuli/WM07_HE.jpg","",""
"explore-choice","19","675260","0.0-19.0","p310416","A1P47Q6LZPLQ6P","3P888QFVX40Z2B7BK75OWKP045JQOK","3XLBSAQ9Z6I4IHEXGJC01BAY2WXZ7T","model","match","uniform","","","","","","","859","675516","676375","[""stimuli/AM06_FO.jpg"",""stimuli/WM07_HE.jpg"",""stimuli/HF02_AO.jpg"",""stimuli/BM07_SUR.jpg""]","stimuli/AM06_FO.jpg","stimuli/WM07_HE.jpg","stimuli/HF02_AO.jpg","stimuli/BM07_SUR.jpg","pos3","stimuli/HF02_AO.jpg","AO","HF02","2","4","8","8","stimuli/stars_8.png","17","[""FO"",""HE"",""AO"",""SUR""]","[""AM06"",""WM07"",""HF02"",""BM07""]","[7,3,8,5]","[6,2,8,4]","","",""
"show-reward","20","677278","0.0-20.0","p310416","A1P47Q6LZPLQ6P","3P888QFVX40Z2B7BK75OWKP045JQOK","3XLBSAQ9Z6I4IHEXGJC01BAY2WXZ7T","model","match","uniform","","","","","","","","676883","678900","","","","","","","","","","","","8","","stimuli/stars_8.png","17","","","","","stimuli/HF02_AO.jpg","",""
"explore-choice","21","678681","0.0-21.0","p310416","A1P47Q6LZPLQ6P","3P888QFVX40Z2B7BK75OWKP045JQOK","3XLBSAQ9Z6I4IHEXGJC01BAY2WXZ7T","model","match","uniform","","","","","","","896","678900","679796","[""stimuli/HF02_AO.jpg"",""stimuli/BM07_SUR.jpg"",""stimuli/WM07_FO.jpg"",""stimuli/AM06_HE.jpg""]","stimuli/HF02_AO.jpg","stimuli/BM07_SUR.jpg","stimuli/WM07_FO.jpg","stimuli/AM06_HE.jpg","pos1","stimuli/HF02_AO.jpg","AO","HF02","0","3","6","8","stimuli/stars_6.png","20","[""AO"",""SUR"",""FO"",""HE""]","[""HF02"",""BM07"",""WM07"",""AM06""]","[6,6,1,6]","[8,4,2,6]","","",""
"show-reward","22","680685","0.0-22.0","p310416","A1P47Q6LZPLQ6P","3P888QFVX40Z2B7BK75OWKP045JQOK","3XLBSAQ9Z6I4IHEXGJC01BAY2WXZ7T","model","match","uniform","","","","","","","","680304","682307","","","","","","","","","","","","6","","stimuli/stars_6.png","20","","","","","stimuli/HF02_AO.jpg","",""
"explore-choice","23","682090","0.0-23.0","p310416","A1P47Q6LZPLQ6P","3P888QFVX40Z2B7BK75OWKP045JQOK","3XLBSAQ9Z6I4IHEXGJC01BAY2WXZ7T","model","match","uniform","","","","","","","892","682308","683200","[""stimuli/AM06_AO.jpg"",""stimuli/BM07_FO.jpg"",""stimuli/WM07_HE.jpg"",""stimuli/HF02_SUR.jpg""]","stimuli/AM06_AO.jpg","stimuli/BM07_FO.jpg","stimuli/WM07_HE.jpg","stimuli/HF02_SUR.jpg","pos4","stimuli/HF02_SUR.jpg","SUR","HF02","3","3.5","7","8","stimuli/stars_7.png","23.5","[""AO"",""FO"",""HE"",""SUR""]","[""AM06"",""BM07"",""WM07"",""HF02""]","[4,5,3,7]","[6,4,2,8]","","",""
"show-reward","24","684094","0.0-24.0","p310416","A1P47Q6LZPLQ6P","3P888QFVX40Z2B7BK75OWKP045JQOK","3XLBSAQ9Z6I4IHEXGJC01BAY2WXZ7T","model","match","uniform","","","","","","","","683713","685716","","","","","","","","","","","","7","","stimuli/stars_7.png","23.5","","","","","stimuli/HF02_SUR.jpg","",""
"explore-choice","25","685454","0.0-25.0","p310416","A1P47Q6LZPLQ6P","3P888QFVX40Z2B7BK75OWKP045JQOK","3XLBSAQ9Z6I4IHEXGJC01BAY2WXZ7T","model","match","uniform","","","","","","","847","685716","686563","[""stimuli/WM07_FO.jpg"",""stimuli/BM07_SUR.jpg"",""stimuli/HF02_HE.jpg"",""stimuli/AM06_AO.jpg""]","stimuli/WM07_FO.jpg","stimuli/BM07_SUR.jpg","stimuli/HF02_HE.jpg","stimuli/AM06_AO.jpg","pos3","stimuli/HF02_HE.jpg","HE","HF02","2","3.5","7","8","stimuli/stars_7.png","27","[""FO"",""SUR"",""HE"",""AO""]","[""WM07"",""BM07"",""HF02"",""AM06""]","[2,4,7,4]","[2,4,8,6]","","",""
"show-reward","26","687459","0.0-26.0","p310416","A1P47Q6LZPLQ6P","3P888QFVX40Z2B7BK75OWKP045JQOK","3XLBSAQ9Z6I4IHEXGJC01BAY2WXZ7T","model","match","uniform","","","","","","","","687077","689081","","","","","","","","","","","","7","","stimuli/stars_7.png","27","","","","","stimuli/HF02_HE.jpg","",""
"explore-choice","27","688659","0.0-27.0","p310416","A1P47Q6LZPLQ6P","3P888QFVX40Z2B7BK75OWKP045JQOK","3XLBSAQ9Z6I4IHEXGJC01BAY2WXZ7T","model","match","uniform","","","","","","","692","689082","689774","[""stimuli/HF02_FO.jpg"",""stimuli/BM07_SUR.jpg"",""stimuli/WM07_HE.jpg"",""stimuli/AM06_AO.jpg""]","stimuli/HF02_FO.jpg","stimuli/BM07_SUR.jpg","stimuli/WM07_HE.jpg","stimuli/AM06_AO.jpg","pos1","stimuli/HF02_FO.jpg","FO","HF02","0","5","10","8","stimuli/stars_10.png","32","[""FO"",""SUR"",""HE"",""AO""]","[""HF02"",""BM07"",""WM07"",""AM06""]","[10,2,3,6]","[8,4,2,6]","","",""
"show-reward","28","690673","0.0-28.0","p310416","A1P47Q6LZPLQ6P","3P888QFVX40Z2B7BK75OWKP045JQOK","3XLBSAQ9Z6I4IHEXGJC01BAY2WXZ7T","model","match","uniform","","","","","","","","690282","692295","","","","","","","","","","","","10","","stimuli/stars_10.png","32","","","","","stimuli/HF02_FO.jpg","",""
"explore-choice","29","691993","0.0-29.0","p310416","A1P47Q6LZPLQ6P","3P888QFVX40Z2B7BK75OWKP045JQOK","3XLBSAQ9Z6I4IHEXGJC01BAY2WXZ7T","model","match","uniform","","","","","","","814","692295","693109","[""stimuli/WM07_SUR.jpg"",""stimuli/BM07_HE.jpg"",""stimuli/HF02_AO.jpg"",""stimuli/AM06_FO.jpg""]","stimuli/WM07_SUR.jpg","stimuli/BM07_HE.jpg","stimuli/HF02_AO.jpg","stimuli/AM06_FO.jpg","pos3","stimuli/HF02_AO.jpg","AO","HF02","2","3","6","8","stimuli/stars_6.png","35","[""SUR"",""HE"",""AO"",""FO""]","[""WM07"",""BM07"",""HF02"",""AM06""]","[4,4,6,5]","[2,4,8,6]","","",""
"show-reward","30","694004","0.0-30.0","p310416","A1P47Q6LZPLQ6P","3P888QFVX40Z2B7BK75OWKP045JQOK","3XLBSAQ9Z6I4IHEXGJC01BAY2WXZ7T","model","match","uniform","","","","","","","","693615","695625","","","","","","","","","","","","6","","stimuli/stars_6.png","35","","","","","stimuli/HF02_AO.jpg","",""
"explore-choice","31","695370","0.0-31.0","p310416","A1P47Q6LZPLQ6P","3P888QFVX40Z2B7BK75OWKP045JQOK","3XLBSAQ9Z6I4IHEXGJC01BAY2WXZ7T","model","match","uniform","","","","","","","854","695626","696480","[""stimuli/BM07_SUR.jpg"",""stimuli/HF02_HE.jpg"",""stimuli/AM06_FO.jpg"",""stimuli/WM07_AO.jpg""]","stimuli/BM07_SUR.jpg","stimuli/HF02_HE.jpg","stimuli/AM06_FO.jpg","stimuli/WM07_AO.jpg","pos2","stimuli/HF02_HE.jpg","HE","HF02","1","3","6","8","stimuli/stars_6.png","38","[""SUR"",""HE"",""FO"",""AO""]","[""BM07"",""HF02"",""AM06"",""WM07""]","[4,6,8,2]","[4,8,6,2]","","",""
"show-reward","32","697384","0.0-32.0","p310416","A1P47Q6LZPLQ6P","3P888QFVX40Z2B7BK75OWKP045JQOK","3XLBSAQ9Z6I4IHEXGJC01BAY2WXZ7T","model","match","uniform","","","","","","","","696993","699006","","","","","","","","","","","","6","","stimuli/stars_6.png","38","","","","","stimuli/HF02_HE.jpg","",""
"explore-choice","33","698615","0.0-33.0","p310416","A1P47Q6LZPLQ6P","3P888QFVX40Z2B7BK75OWKP045JQOK","3XLBSAQ9Z6I4IHEXGJC01BAY2WXZ7T","model","match","uniform","","","","","","","727","699007","699734","[""stimuli/HF02_AO.jpg"",""stimuli/AM06_SUR.jpg"",""stimuli/BM07_HE.jpg"",""stimuli/WM07_FO.jpg""]","stimuli/HF02_AO.jpg","stimuli/AM06_SUR.jpg","stimuli/BM07_HE.jpg","stimuli/WM07_FO.jpg","pos3","stimuli/BM07_HE.jpg","HE","BM07","2","1.5","3","4","stimuli/stars_3.png","39.5","[""AO"",""SUR"",""HE"",""FO""]","[""HF02"",""AM06"",""BM07"",""WM07""]","[8,6,3,0]","[8,6,4,2]","","",""
"show-reward","34","700626","0.0-34.0","p310416","A1P47Q6LZPLQ6P","3P888QFVX40Z2B7BK75OWKP045JQOK","3XLBSAQ9Z6I4IHEXGJC01BAY2WXZ7T","model","match","uniform","","","","","","","","700238","702248","","","","","","","","","","","","3","","stimuli/stars_3.png","39.5","","","","","stimuli/BM07_HE.jpg","",""
"explore-choice","35","702361","0.0-35.0","p310416","A1P47Q6LZPLQ6P","3P888QFVX40Z2B7BK75OWKP045JQOK","3XLBSAQ9Z6I4IHEXGJC01BAY2WXZ7T","model","match","uniform","","","","","","","1233","702248","703481","[""stimuli/HF02_FO.jpg"",""stimuli/AM06_SUR.jpg"",""stimuli/WM07_HE.jpg"",""stimuli/BM07_AO.jpg""]","stimuli/HF02_FO.jpg","stimuli/AM06_SUR.jpg","stimuli/WM07_HE.jpg","stimuli/BM07_AO.jpg","pos4","stimuli/BM07_AO.jpg","AO","BM07","3","2.5","5","4","stimuli/stars_5.png","42","[""FO"",""SUR"",""HE"",""AO""]","[""HF02"",""AM06"",""WM07"",""BM07""]","[10,6,1,5]","[8,6,2,4]","","",""
"show-reward","36","704374","0.0-36.0","p310416","A1P47Q6LZPLQ6P","3P888QFVX40Z2B7BK75OWKP045JQOK","3XLBSAQ9Z6I4IHEXGJC01BAY2WXZ7T","model","match","uniform","","","","","","","","703983","705996","","","","","","","","","","","","5","","stimuli/stars_5.png","42","","","","","stimuli/BM07_AO.jpg","",""
"explore-choice","37","705719","0.0-37.0","p310416","A1P47Q6LZPLQ6P","3P888QFVX40Z2B7BK75OWKP045JQOK","3XLBSAQ9Z6I4IHEXGJC01BAY2WXZ7T","model","match","uniform","","","","","","","836","705997","706833","[""stimuli/BM07_AO.jpg"",""stimuli/HF02_HE.jpg"",""stimuli/WM07_FO.jpg"",""stimuli/AM06_SUR.jpg""]","stimuli/BM07_AO.jpg","stimuli/HF02_HE.jpg","stimuli/WM07_FO.jpg","stimuli/AM06_SUR.jpg","pos2","stimuli/HF02_HE.jpg","HE","HF02","1","4","8","8","stimuli/stars_8.png","46","[""AO"",""HE"",""FO"",""SUR""]","[""BM07"",""HF02"",""WM07"",""AM06""]","[5,8,2,6]","[4,8,2,6]","","",""
"show-reward","38","707728","0.0-38.0","p310416","A1P47Q6LZPLQ6P","3P888QFVX40Z2B7BK75OWKP045JQOK","3XLBSAQ9Z6I4IHEXGJC01BAY2WXZ7T","model","match","uniform","","","","","","","","707341","709350","","","","","","","","","","","","8","","stimuli/stars_8.png","46","","","","","stimuli/HF02_HE.jpg","",""
"explore-choice","39","708908","0.0-39.0","p310416","A1P47Q6LZPLQ6P","3P888QFVX40Z2B7BK75OWKP045JQOK","3XLBSAQ9Z6I4IHEXGJC01BAY2WXZ7T","model","match","uniform","","","","","","","673","709351","710024","[""stimuli/HF02_SUR.jpg"",""stimuli/BM07_HE.jpg"",""stimuli/WM07_AO.jpg"",""stimuli/AM06_FO.jpg""]","stimuli/HF02_SUR.jpg","stimuli/BM07_HE.jpg","stimuli/WM07_AO.jpg","stimuli/AM06_FO.jpg","pos1","stimuli/HF02_SUR.jpg","SUR","HF02","0","3","6","8","stimuli/stars_6.png","49","[""SUR"",""HE"",""AO"",""FO""]","[""HF02"",""BM07"",""WM07"",""AM06""]","[6,5,2,4]","[8,4,2,6]","","",""
"show-reward","40","710912","0.0-40.0","p310416","A1P47Q6LZPLQ6P","3P888QFVX40Z2B7BK75OWKP045JQOK","3XLBSAQ9Z6I4IHEXGJC01BAY2WXZ7T","model","match","uniform","","","","","","","","710532","712534","","","","","","","","","","","","6","","stimuli/stars_6.png","49","","","","","stimuli/HF02_SUR.jpg","",""
"explore-choice","41","712190","0.0-41.0","p310416","A1P47Q6LZPLQ6P","3P888QFVX40Z2B7BK75OWKP045JQOK","3XLBSAQ9Z6I4IHEXGJC01BAY2WXZ7T","model","match","uniform","","","","","","","776","712535","713311","[""stimuli/AM06_AO.jpg"",""stimuli/BM07_FO.jpg"",""stimuli/WM07_SUR.jpg"",""stimuli/HF02_HE.jpg""]","stimuli/AM06_AO.jpg","stimuli/BM07_FO.jpg","stimuli/WM07_SUR.jpg","stimuli/HF02_HE.jpg","pos4","stimuli/HF02_HE.jpg","HE","HF02","3","3.5","7","8","stimuli/stars_7.png","52.5","[""AO"",""FO"",""SUR"",""HE""]","[""AM06"",""BM07"",""WM07"",""HF02""]","[5,2,4,7]","[6,4,2,8]","","",""
"show-reward","42","714206","0.0-42.0","p310416","A1P47Q6LZPLQ6P","3P888QFVX40Z2B7BK75OWKP045JQOK","3XLBSAQ9Z6I4IHEXGJC01BAY2WXZ7T","model","match","uniform","","","","","","","","713813","715827","","","","","","","","","","","","7","","stimuli/stars_7.png","52.5","","","","","stimuli/HF02_HE.jpg","",""
"explore-choice","43","715481","0.0-43.0","p310416","A1P47Q6LZPLQ6P","3P888QFVX40Z2B7BK75OWKP045JQOK","3XLBSAQ9Z6I4IHEXGJC01BAY2WXZ7T","model","match","uniform","","","","","","","763","715828","716591","[""stimuli/BM07_HE.jpg"",""stimuli/WM07_AO.jpg"",""stimuli/AM06_SUR.jpg"",""stimuli/HF02_FO.jpg""]","stimuli/BM07_HE.jpg","stimuli/WM07_AO.jpg","stimuli/AM06_SUR.jpg","stimuli/HF02_FO.jpg","pos4","stimuli/HF02_FO.jpg","FO","HF02","3","3","6","8","stimuli/stars_6.png","55.5","[""HE"",""AO"",""SUR"",""FO""]","[""BM07"",""WM07"",""AM06"",""HF02""]","[4,1,4,6]","[4,2,6,8]","","",""
"show-reward","44","717496","0.0-44.0","p310416","A1P47Q6LZPLQ6P","3P888QFVX40Z2B7BK75OWKP045JQOK","3XLBSAQ9Z6I4IHEXGJC01BAY2WXZ7T","model","match","uniform","","","","","","","","717104","719117","","","","","","","","","","","","6","","stimuli/stars_6.png","55.5","","","","","stimuli/HF02_FO.jpg","",""
"explore-choice","45","718564","0.0-45.0","p310416","A1P47Q6LZPLQ6P","3P888QFVX40Z2B7BK75OWKP045JQOK","3XLBSAQ9Z6I4IHEXGJC01BAY2WXZ7T","model","match","uniform","","","","","","","562","719118","719680","[""stimuli/AM06_AO.jpg"",""stimuli/BM07_HE.jpg"",""stimuli/WM07_FO.jpg"",""stimuli/HF02_SUR.jpg""]","stimuli/AM06_AO.jpg","stimuli/BM07_HE.jpg","stimuli/WM07_FO.jpg","stimuli/HF02_SUR.jpg","pos4","stimuli/HF02_SUR.jpg","SUR","HF02","3","4","8","8","stimuli/stars_8.png","59.5","[""AO"",""HE"",""FO"",""SUR""]","[""AM06"",""BM07"",""WM07"",""HF02""]","[8,2,1,8]","[6,4,2,8]","","",""
"show-reward","46","720579","0.0-46.0","p310416","A1P47Q6LZPLQ6P","3P888QFVX40Z2B7BK75OWKP045JQOK","3XLBSAQ9Z6I4IHEXGJC01BAY2WXZ7T","model","match","uniform","","","","","","","","720187","722200","","","","","","","","","","","","8","","stimuli/stars_8.png","59.5","","","","","stimuli/HF02_SUR.jpg","",""
"explore-choice","47","722246","0.0-47.0","p310416","A1P47Q6LZPLQ6P","3P888QFVX40Z2B7BK75OWKP045JQOK","3XLBSAQ9Z6I4IHEXGJC01BAY2WXZ7T","model","match","uniform","","","","","","","1154","722200","723354","[""stimuli/WM07_HE.jpg"",""stimuli/HF02_SUR.jpg"",""stimuli/AM06_FO.jpg"",""stimuli/BM07_AO.jpg""]","stimuli/WM07_HE.jpg","stimuli/HF02_SUR.jpg","stimuli/AM06_FO.jpg","stimuli/BM07_AO.jpg","pos2","stimuli/HF02_SUR.jpg","SUR","HF02","1","3.5","7","8","stimuli/stars_7.png","63","[""HE"",""SUR"",""FO"",""AO""]","[""WM07"",""HF02"",""AM06"",""BM07""]","[3,7,4,5]","[2,8,6,4]","","",""
"show-reward","48","724254","0.0-48.0","p310416","A1P47Q6LZPLQ6P","3P888QFVX40Z2B7BK75OWKP045JQOK","3XLBSAQ9Z6I4IHEXGJC01BAY2WXZ7T","model","match","uniform","","","","","","","","723868","725875","","","","","","","","","","","","7","","stimuli/stars_7.png","63","","","","","stimuli/HF02_SUR.jpg","",""
"explore-choice","49","725481","0.0-49.0","p310416","A1P47Q6LZPLQ6P","3P888QFVX40Z2B7BK75OWKP045JQOK","3XLBSAQ9Z6I4IHEXGJC01BAY2WXZ7T","model","match","uniform","","","","","","","715","725876","726591","[""stimuli/BM07_AO.jpg"",""stimuli/HF02_HE.jpg"",""stimuli/WM07_SUR.jpg"",""stimuli/AM06_FO.jpg""]","stimuli/BM07_AO.jpg","stimuli/HF02_HE.jpg","stimuli/WM07_SUR.jpg","stimuli/AM06_FO.jpg","pos2","stimuli/HF02_HE.jpg","HE","HF02","1","5","10","8","stimuli/stars_10.png","68","[""AO"",""HE"",""SUR"",""FO""]","[""BM07"",""HF02"",""WM07"",""AM06""]","[3,10,1,6]","[4,8,2,6]","","",""
"show-reward","50","727488","0.0-50.0","p310416","A1P47Q6LZPLQ6P","3P888QFVX40Z2B7BK75OWKP045JQOK","3XLBSAQ9Z6I4IHEXGJC01BAY2WXZ7T","model","match","uniform","","","","","","","","727104","729110","","","","","","","","","","","","10","","stimuli/stars_10.png","68","","","","","stimuli/HF02_HE.jpg","",""
"explore-choice","51","728936","0.0-51.0","p310416","A1P47Q6LZPLQ6P","3P888QFVX40Z2B7BK75OWKP045JQOK","3XLBSAQ9Z6I4IHEXGJC01BAY2WXZ7T","model","match","uniform","","","","","","","940","729110","730050","[""stimuli/WM07_AO.jpg"",""stimuli/BM07_SUR.jpg"",""stimuli/HF02_FO.jpg"",""stimuli/AM06_HE.jpg""]","stimuli/WM07_AO.jpg","stimuli/BM07_SUR.jpg","stimuli/HF02_FO.jpg","stimuli/AM06_HE.jpg","pos3","stimuli/HF02_FO.jpg","FO","HF02","2","3.5","7","8","stimuli/stars_7.png","71.5","[""AO"",""SUR"",""FO"",""HE""]","[""WM07"",""BM07"",""HF02"",""AM06""]","[3,4,7,4]","[2,4,8,6]","","",""
"show-reward","52","730949","0.0-52.0","p310416","A1P47Q6LZPLQ6P","3P888QFVX40Z2B7BK75OWKP045JQOK","3XLBSAQ9Z6I4IHEXGJC01BAY2WXZ7T","model","match","uniform","","","","","","","","730558","732570","","","","","","","","","","","","7","","stimuli/stars_7.png","71.5","","","","","stimuli/HF02_FO.jpg","",""
"explore-choice","53","732200","0.0-53.0","p310416","A1P47Q6LZPLQ6P","3P888QFVX40Z2B7BK75OWKP045JQOK","3XLBSAQ9Z6I4IHEXGJC01BAY2WXZ7T","model","match","uniform","","","","","","","750","732571","733321","[""stimuli/AM06_HE.jpg"",""stimuli/BM07_FO.jpg"",""stimuli/HF02_SUR.jpg"",""stimuli/WM07_AO.jpg""]","stimuli/AM06_HE.jpg","stimuli/BM07_FO.jpg","stimuli/HF02_SUR.jpg","stimuli/WM07_AO.jpg","pos3","stimuli/HF02_SUR.jpg","SUR","HF02","2","4","8","8","stimuli/stars_8.png","75.5","[""HE"",""FO"",""SUR"",""AO""]","[""AM06"",""BM07"",""HF02"",""WM07""]","[4,5,8,4]","[6,4,8,2]","","",""
"show-reward","54","734205","0.0-54.0","p310416","A1P47Q6LZPLQ6P","3P888QFVX40Z2B7BK75OWKP045JQOK","3XLBSAQ9Z6I4IHEXGJC01BAY2WXZ7T","model","match","uniform","","","","","","","","733822","735826","","","","","","","","","","","","8","","stimuli/stars_8.png","75.5","","","","","stimuli/HF02_SUR.jpg","",""
"explore-choice","55","735677","0.0-55.0","p310416","A1P47Q6LZPLQ6P","3P888QFVX40Z2B7BK75OWKP045JQOK","3XLBSAQ9Z6I4IHEXGJC01BAY2WXZ7T","model","match","uniform","","","","","","","965","735827","736792","[""stimuli/BM07_HE.jpg"",""stimuli/HF02_AO.jpg"",""stimuli/AM06_FO.jpg"",""stimuli/WM07_SUR.jpg""]","stimuli/BM07_HE.jpg","stimuli/HF02_AO.jpg","stimuli/AM06_FO.jpg","stimuli/WM07_SUR.jpg","pos2","stimuli/HF02_AO.jpg","AO","HF02","1","3","6","8","stimuli/stars_6.png","78.5","[""HE"",""AO"",""FO"",""SUR""]","[""BM07"",""HF02"",""AM06"",""WM07""]","[4,6,5,4]","[4,8,6,2]","","",""
"show-reward","56","737684","0.0-56.0","p310416","A1P47Q6LZPLQ6P","3P888QFVX40Z2B7BK75OWKP045JQOK","3XLBSAQ9Z6I4IHEXGJC01BAY2WXZ7T","model","match","uniform","","","","","","","","737300","739305","","","","","","","","","","","","6","","stimuli/stars_6.png","78.5","","","","","stimuli/HF02_AO.jpg","",""
"explore-choice","57","739018","0.0-57.0","p310416","A1P47Q6LZPLQ6P","3P888QFVX40Z2B7BK75OWKP045JQOK","3XLBSAQ9Z6I4IHEXGJC01BAY2WXZ7T","model","match","uniform","","","","","","","821","739306","740127","[""stimuli/HF02_FO.jpg"",""stimuli/WM07_HE.jpg"",""stimuli/BM07_SUR.jpg"",""stimuli/AM06_AO.jpg""]","stimuli/HF02_FO.jpg","stimuli/WM07_HE.jpg","stimuli/BM07_SUR.jpg","stimuli/AM06_AO.jpg","pos1","stimuli/HF02_FO.jpg","FO","HF02","0","5","10","8","stimuli/stars_10.png","83.5","[""FO"",""HE"",""SUR"",""AO""]","[""HF02"",""WM07"",""BM07"",""AM06""]","[10,3,2,6]","[8,2,4,6]","","",""
"show-reward","58","741033","0.0-58.0","p310416","A1P47Q6LZPLQ6P","3P888QFVX40Z2B7BK75OWKP045JQOK","3XLBSAQ9Z6I4IHEXGJC01BAY2WXZ7T","model","match","uniform","","","","","","","","740641","742655","","","","","","","","","","","","10","","stimuli/stars_10.png","83.5","","","","","stimuli/HF02_FO.jpg","",""
"explore-choice","59","742263","0.0-59.0","p310416","A1P47Q6LZPLQ6P","3P888QFVX40Z2B7BK75OWKP045JQOK","3XLBSAQ9Z6I4IHEXGJC01BAY2WXZ7T","model","match","uniform","","","","","","","720","742656","743376","[""stimuli/WM07_FO.jpg"",""stimuli/BM07_HE.jpg"",""stimuli/AM06_AO.jpg"",""stimuli/HF02_SUR.jpg""]","stimuli/WM07_FO.jpg","stimuli/BM07_HE.jpg","stimuli/AM06_AO.jpg","stimuli/HF02_SUR.jpg","pos4","stimuli/HF02_SUR.jpg","SUR","HF02","3","4","8","8","stimuli/stars_8.png","87.5","[""FO"",""HE"",""AO"",""SUR""]","[""WM07"",""BM07"",""AM06"",""HF02""]","[1,2,8,8]","[2,4,6,8]","","",""
"show-reward","60","744266","0.0-60.0","p310416","A1P47Q6LZPLQ6P","3P888QFVX40Z2B7BK75OWKP045JQOK","3XLBSAQ9Z6I4IHEXGJC01BAY2WXZ7T","model","match","uniform","","","","","","","","743885","745888","","","","","","","","","","","","8","","stimuli/stars_8.png","87.5","","","","","stimuli/HF02_SUR.jpg","",""
"explore-choice","61","745494","0.0-61.0","p310416","A1P47Q6LZPLQ6P","3P888QFVX40Z2B7BK75OWKP045JQOK","3XLBSAQ9Z6I4IHEXGJC01BAY2WXZ7T","model","match","uniform","","","","","","","713","745888","746601","[""stimuli/HF02_FO.jpg"",""stimuli/AM06_HE.jpg"",""stimuli/WM07_AO.jpg"",""stimuli/BM07_SUR.jpg""]","stimuli/HF02_FO.jpg","stimuli/AM06_HE.jpg","stimuli/WM07_AO.jpg","stimuli/BM07_SUR.jpg","pos1","stimuli/HF02_FO.jpg","FO","HF02","0","3.5","7","8","stimuli/stars_7.png","91","[""FO"",""HE"",""AO"",""SUR""]","[""HF02"",""AM06"",""WM07"",""BM07""]","[7,4,3,4]","[8,6,2,4]","","",""
"show-reward","62","747506","0.0-62.0","p310416","A1P47Q6LZPLQ6P","3P888QFVX40Z2B7BK75OWKP045JQOK","3XLBSAQ9Z6I4IHEXGJC01BAY2WXZ7T","model","match","uniform","","","","","","","","747117","749128","","","","","","","","","","","","7","","stimuli/stars_7.png","91","","","","","stimuli/HF02_FO.jpg","",""
"explore-choice","63","748812","0.0-63.0","p310416","A1P47Q6LZPLQ6P","3P888QFVX40Z2B7BK75OWKP045JQOK","3XLBSAQ9Z6I4IHEXGJC01BAY2WXZ7T","model","match","uniform","","","","","","","791","749129","749920","[""stimuli/AM06_HE.jpg"",""stimuli/WM07_SUR.jpg"",""stimuli/BM07_AO.jpg"",""stimuli/HF02_FO.jpg""]","stimuli/AM06_HE.jpg","stimuli/WM07_SUR.jpg","stimuli/BM07_AO.jpg","stimuli/HF02_FO.jpg","pos4","stimuli/HF02_FO.jpg","FO","HF02","3","3.5","7","8","stimuli/stars_7.png","94.5","[""HE"",""SUR"",""AO"",""FO""]","[""AM06"",""WM07"",""BM07"",""HF02""]","[6,4,5,7]","[6,2,4,8]","","",""
"show-reward","64","750817","0.0-64.0","p310416","A1P47Q6LZPLQ6P","3P888QFVX40Z2B7BK75OWKP045JQOK","3XLBSAQ9Z6I4IHEXGJC01BAY2WXZ7T","model","match","uniform","","","","","","","","750435","752439","","","","","","","","","","","","7","","stimuli/stars_7.png","94.5","","","","","stimuli/HF02_FO.jpg","",""
"explore-choice","65","752427","0.0-65.0","p310416","A1P47Q6LZPLQ6P","3P888QFVX40Z2B7BK75OWKP045JQOK","3XLBSAQ9Z6I4IHEXGJC01BAY2WXZ7T","model","match","uniform","","","","","","","1095","752440","753535","[""stimuli/AM06_FO.jpg"",""stimuli/HF02_HE.jpg"",""stimuli/BM07_AO.jpg"",""stimuli/WM07_SUR.jpg""]","stimuli/AM06_FO.jpg","stimuli/HF02_HE.jpg","stimuli/BM07_AO.jpg","stimuli/WM07_SUR.jpg","pos2","stimuli/HF02_HE.jpg","HE","HF02","1","5","10","8","stimuli/stars_10.png","99.5","[""FO"",""HE"",""AO"",""SUR""]","[""AM06"",""HF02"",""BM07"",""WM07""]","[6,10,3,1]","[6,8,4,2]","","",""
"show-reward","66","754441","0.0-66.0","p310416","A1P47Q6LZPLQ6P","3P888QFVX40Z2B7BK75OWKP045JQOK","3XLBSAQ9Z6I4IHEXGJC01BAY2WXZ7T","model","match","uniform","","","","","","","","754050","756063","","","","","","","","","","","","10","","stimuli/stars_10.png","99.5","","","","","stimuli/HF02_HE.jpg","",""
"explore-choice","67","755630","0.0-67.0","p310416","A1P47Q6LZPLQ6P","3P888QFVX40Z2B7BK75OWKP045JQOK","3XLBSAQ9Z6I4IHEXGJC01BAY2WXZ7T","model","match","uniform","","","","","","","686","756064","756750","[""stimuli/BM07_AO.jpg"",""stimuli/HF02_FO.jpg"",""stimuli/AM06_SUR.jpg"",""stimuli/WM07_HE.jpg""]","stimuli/BM07_AO.jpg","stimuli/HF02_FO.jpg","stimuli/AM06_SUR.jpg","stimuli/WM07_HE.jpg","pos2","stimuli/HF02_FO.jpg","FO","HF02","1","5","10","8","stimuli/stars_10.png","104.5","[""AO"",""FO"",""SUR"",""HE""]","[""BM07"",""HF02"",""AM06"",""WM07""]","[5,10,6,1]","[4,8,6,2]","","",""
"show-reward","68","757644","0.0-68.0","p310416","A1P47Q6LZPLQ6P","3P888QFVX40Z2B7BK75OWKP045JQOK","3XLBSAQ9Z6I4IHEXGJC01BAY2WXZ7T","model","match","uniform","","","","","","","","757253","759266","","","","","","","","","","","","10","","stimuli/stars_10.png","104.5","","","","","stimuli/HF02_FO.jpg","",""
"explore-choice","69","758963","0.0-69.0","p310416","A1P47Q6LZPLQ6P","3P888QFVX40Z2B7BK75OWKP045JQOK","3XLBSAQ9Z6I4IHEXGJC01BAY2WXZ7T","model","match","uniform","","","","","","","815","759267","760082","[""stimuli/AM06_AO.jpg"",""stimuli/WM07_SUR.jpg"",""stimuli/HF02_HE.jpg"",""stimuli/BM07_FO.jpg""]","stimuli/AM06_AO.jpg","stimuli/WM07_SUR.jpg","stimuli/HF02_HE.jpg","stimuli/BM07_FO.jpg","pos3","stimuli/HF02_HE.jpg","HE","HF02","2","3.5","7","8","stimuli/stars_7.png","108","[""AO"",""SUR"",""HE"",""FO""]","[""AM06"",""WM07"",""HF02"",""BM07""]","[5,4,7,2]","[6,2,8,4]","","",""
"show-reward","70","760971","0.0-70.0","p310416","A1P47Q6LZPLQ6P","3P888QFVX40Z2B7BK75OWKP045JQOK","3XLBSAQ9Z6I4IHEXGJC01BAY2WXZ7T","model","match","uniform","","","","","","","","760585","762592","","","","","","","","","","","","7","","stimuli/stars_7.png","108","","","","","stimuli/HF02_HE.jpg","",""
"explore-choice","71","762166","0.0-71.0","p310416","A1P47Q6LZPLQ6P","3P888QFVX40Z2B7BK75OWKP045JQOK","3XLBSAQ9Z6I4IHEXGJC01BAY2WXZ7T","model","match","uniform","","","","","","","682","762593","763275","[""stimuli/BM07_FO.jpg"",""stimuli/WM07_SUR.jpg"",""stimuli/AM06_HE.jpg"",""stimuli/HF02_AO.jpg""]","stimuli/BM07_FO.jpg","stimuli/WM07_SUR.jpg","stimuli/AM06_HE.jpg","stimuli/HF02_AO.jpg","pos4","stimuli/HF02_AO.jpg","AO","HF02","3","3","6","8","stimuli/stars_6.png","111","[""FO"",""SUR"",""HE"",""AO""]","[""BM07"",""WM07"",""AM06"",""HF02""]","[4,1,5,6]","[4,2,6,8]","","",""
"show-reward","72","764181","0.0-72.0","p310416","A1P47Q6LZPLQ6P","3P888QFVX40Z2B7BK75OWKP045JQOK","3XLBSAQ9Z6I4IHEXGJC01BAY2WXZ7T","model","match","uniform","","","","","","","","763789","765803","","","","","","","","","","","","6","","stimuli/stars_6.png","111","","","","","stimuli/HF02_AO.jpg","",""
"explore-choice","73","765406","0.0-73.0","p310416","A1P47Q6LZPLQ6P","3P888QFVX40Z2B7BK75OWKP045JQOK","3XLBSAQ9Z6I4IHEXGJC01BAY2WXZ7T","model","match","uniform","","","","","","","722","765804","766526","[""stimuli/WM07_AO.jpg"",""stimuli/AM06_SUR.jpg"",""stimuli/BM07_FO.jpg"",""stimuli/HF02_HE.jpg""]","stimuli/WM07_AO.jpg","stimuli/AM06_SUR.jpg","stimuli/BM07_FO.jpg","stimuli/HF02_HE.jpg","pos4","stimuli/HF02_HE.jpg","HE","HF02","3","3.5","7","8","stimuli/stars_7.png","114.5","[""AO"",""SUR"",""FO"",""HE""]","[""WM07"",""AM06"",""BM07"",""HF02""]","[2,7,3,7]","[2,6,4,8]","","",""
"show-reward","74","767409","0.0-74.0","p310416","A1P47Q6LZPLQ6P","3P888QFVX40Z2B7BK75OWKP045JQOK","3XLBSAQ9Z6I4IHEXGJC01BAY2WXZ7T","model","match","uniform","","","","","","","","767028","769030","","","","","","","","","","","","7","","stimuli/stars_7.png","114.5","","","","","stimuli/HF02_HE.jpg","",""
"explore-choice","75","769155","0.0-75.0","p310416","A1P47Q6LZPLQ6P","3P888QFVX40Z2B7BK75OWKP045JQOK","3XLBSAQ9Z6I4IHEXGJC01BAY2WXZ7T","model","match","uniform","","","","","","","1235","769031","770266","[""stimuli/BM07_AO.jpg"",""stimuli/AM06_HE.jpg"",""stimuli/HF02_SUR.jpg"",""stimuli/WM07_FO.jpg""]","stimuli/BM07_AO.jpg","stimuli/AM06_HE.jpg","stimuli/HF02_SUR.jpg","stimuli/WM07_FO.jpg","pos3","stimuli/HF02_SUR.jpg","SUR","HF02","2","3.5","7","8","stimuli/stars_7.png","118","[""AO"",""HE"",""SUR"",""FO""]","[""BM07"",""AM06"",""HF02"",""WM07""]","[2,6,7,1]","[4,6,8,2]","","",""
"show-reward","76","771167","0.0-76.0","p310416","A1P47Q6LZPLQ6P","3P888QFVX40Z2B7BK75OWKP045JQOK","3XLBSAQ9Z6I4IHEXGJC01BAY2WXZ7T","model","match","uniform","","","","","","","","770777","772788","","","","","","","","","","","","7","","stimuli/stars_7.png","118","","","","","stimuli/HF02_SUR.jpg","",""
"explore-choice","77","772762","0.0-77.0","p310416","A1P47Q6LZPLQ6P","3P888QFVX40Z2B7BK75OWKP045JQOK","3XLBSAQ9Z6I4IHEXGJC01BAY2WXZ7T","model","match","uniform","","","","","","","1083","772789","773872","[""stimuli/AM06_SUR.jpg"",""stimuli/WM07_AO.jpg"",""stimuli/BM07_HE.jpg"",""stimuli/HF02_FO.jpg""]","stimuli/AM06_SUR.jpg","stimuli/WM07_AO.jpg","stimuli/BM07_HE.jpg","stimuli/HF02_FO.jpg","pos4","stimuli/HF02_FO.jpg","FO","HF02","3","3","6","8","stimuli/stars_6.png","121","[""SUR"",""AO"",""HE"",""FO""]","[""AM06"",""WM07"",""BM07"",""HF02""]","[4,1,4,6]","[6,2,4,8]","","",""
"show-reward","78","774773","0.0-78.0","p310416","A1P47Q6LZPLQ6P","3P888QFVX40Z2B7BK75OWKP045JQOK","3XLBSAQ9Z6I4IHEXGJC01BAY2WXZ7T","model","match","uniform","","","","","","","","774385","776394","","","","","","","","","","","","6","","stimuli/stars_6.png","121","","","","","stimuli/HF02_FO.jpg","",""
"explore-choice","79","776035","0.0-79.0","p310416","A1P47Q6LZPLQ6P","3P888QFVX40Z2B7BK75OWKP045JQOK","3XLBSAQ9Z6I4IHEXGJC01BAY2WXZ7T","model","match","uniform","","","","","","","755","776396","777151","[""stimuli/AM06_HE.jpg"",""stimuli/HF02_AO.jpg"",""stimuli/WM07_FO.jpg"",""stimuli/BM07_SUR.jpg""]","stimuli/AM06_HE.jpg","stimuli/HF02_AO.jpg","stimuli/WM07_FO.jpg","stimuli/BM07_SUR.jpg","pos2","stimuli/HF02_AO.jpg","AO","HF02","1","3","6","8","stimuli/stars_6.png","124","[""HE"",""AO"",""FO"",""SUR""]","[""AM06"",""HF02"",""WM07"",""BM07""]","[6,6,1,6]","[6,8,2,4]","","",""
"show-reward","80","778042","0.0-80.0","p310416","A1P47Q6LZPLQ6P","3P888QFVX40Z2B7BK75OWKP045JQOK","3XLBSAQ9Z6I4IHEXGJC01BAY2WXZ7T","model","match","uniform","","","","","","","","777657","779665","","","","","","","","","","","","6","","stimuli/stars_6.png","124","","","","","stimuli/HF02_AO.jpg","",""
"explore-choice","81","779302","0.0-81.0","p310416","A1P47Q6LZPLQ6P","3P888QFVX40Z2B7BK75OWKP045JQOK","3XLBSAQ9Z6I4IHEXGJC01BAY2WXZ7T","model","match","uniform","","","","","","","757","779665","780422","[""stimuli/HF02_SUR.jpg"",""stimuli/AM06_HE.jpg"",""stimuli/BM07_FO.jpg"",""stimuli/WM07_AO.jpg""]","stimuli/HF02_SUR.jpg","stimuli/AM06_HE.jpg","stimuli/BM07_FO.jpg","stimuli/WM07_AO.jpg","pos1","stimuli/HF02_SUR.jpg","SUR","HF02","0","4","8","8","stimuli/stars_8.png","128","[""SUR"",""HE"",""FO"",""AO""]","[""HF02"",""AM06"",""BM07"",""WM07""]","[8,4,5,4]","[8,6,4,2]","","",""
"show-reward","82","781312","0.0-82.0","p310416","A1P47Q6LZPLQ6P","3P888QFVX40Z2B7BK75OWKP045JQOK","3XLBSAQ9Z6I4IHEXGJC01BAY2WXZ7T","model","match","uniform","","","","","","","","780924","782933","","","","","","","","","","","","8","","stimuli/stars_8.png","128","","","","","stimuli/HF02_SUR.jpg","",""
"explore-choice","83","782732","0.0-83.0","p310416","A1P47Q6LZPLQ6P","3P888QFVX40Z2B7BK75OWKP045JQOK","3XLBSAQ9Z6I4IHEXGJC01BAY2WXZ7T","model","match","uniform","","","","","","","911","782934","783845","[""stimuli/HF02_HE.jpg"",""stimuli/AM06_AO.jpg"",""stimuli/BM07_SUR.jpg"",""stimuli/WM07_FO.jpg""]","stimuli/HF02_HE.jpg","stimuli/AM06_AO.jpg","stimuli/BM07_SUR.jpg","stimuli/WM07_FO.jpg","pos1","stimuli/HF02_HE.jpg","HE","HF02","0","3.5","7","8","stimuli/stars_7.png","131.5","[""HE"",""AO"",""SUR"",""FO""]","[""HF02"",""AM06"",""BM07"",""WM07""]","[7,4,4,2]","[8,6,4,2]","","",""
"show-reward","84","784746","0.0-84.0","p310416","A1P47Q6LZPLQ6P","3P888QFVX40Z2B7BK75OWKP045JQOK","3XLBSAQ9Z6I4IHEXGJC01BAY2WXZ7T","model","match","uniform","","","","","","","","784354","786369","","","","","","","","","","","","7","","stimuli/stars_7.png","131.5","","","","","stimuli/HF02_HE.jpg","",""
"explore-choice","85","785955","0.0-85.0","p310416","A1P47Q6LZPLQ6P","3P888QFVX40Z2B7BK75OWKP045JQOK","3XLBSAQ9Z6I4IHEXGJC01BAY2WXZ7T","model","match","uniform","","","","","","","704","786370","787074","[""stimuli/HF02_AO.jpg"",""stimuli/AM06_SUR.jpg"",""stimuli/WM07_HE.jpg"",""stimuli/BM07_FO.jpg""]","stimuli/HF02_AO.jpg","stimuli/AM06_SUR.jpg","stimuli/WM07_HE.jpg","stimuli/BM07_FO.jpg","pos1","stimuli/HF02_AO.jpg","AO","HF02","0","4","8","8","stimuli/stars_8.png","135.5","[""AO"",""SUR"",""HE"",""FO""]","[""HF02"",""AM06"",""WM07"",""BM07""]","[8,7,0,2]","[8,6,2,4]","","",""
"show-reward","86","787971","0.0-86.0","p310416","A1P47Q6LZPLQ6P","3P888QFVX40Z2B7BK75OWKP045JQOK","3XLBSAQ9Z6I4IHEXGJC01BAY2WXZ7T","model","match","uniform","","","","","","","","787577","789594","","","","","","","","","","","","8","","stimuli/stars_8.png","135.5","","","","","stimuli/HF02_AO.jpg","",""
"explore-choice","87","789222","0.0-87.0","p310416","A1P47Q6LZPLQ6P","3P888QFVX40Z2B7BK75OWKP045JQOK","3XLBSAQ9Z6I4IHEXGJC01BAY2WXZ7T","model","match","uniform","","","","","","","734","789594","790328","[""stimuli/WM07_SUR.jpg"",""stimuli/BM07_HE.jpg"",""stimuli/HF02_FO.jpg"",""stimuli/AM06_AO.jpg""]","stimuli/WM07_SUR.jpg","stimuli/BM07_HE.jpg","stimuli/HF02_FO.jpg","stimuli/AM06_AO.jpg","pos3","stimuli/HF02_FO.jpg","FO","HF02","2","5","10","8","stimuli/stars_10.png","140.5","[""SUR"",""HE"",""FO"",""AO""]","[""WM07"",""BM07"",""HF02"",""AM06""]","[0,6,10,7]","[2,4,8,6]","","",""
"show-reward","88","791224","0.0-88.0","p310416","A1P47Q6LZPLQ6P","3P888QFVX40Z2B7BK75OWKP045JQOK","3XLBSAQ9Z6I4IHEXGJC01BAY2WXZ7T","model","match","uniform","","","","","","","","790843","792846","","","","","","","","","","","","10","","stimuli/stars_10.png","140.5","","","","","stimuli/HF02_FO.jpg","",""
"explore-choice","89","792467","0.0-89.0","p310416","A1P47Q6LZPLQ6P","3P888QFVX40Z2B7BK75OWKP045JQOK","3XLBSAQ9Z6I4IHEXGJC01BAY2WXZ7T","model","match","uniform","","","","","","","739","792847","793586","[""stimuli/HF02_SUR.jpg"",""stimuli/BM07_AO.jpg"",""stimuli/WM07_HE.jpg"",""stimuli/AM06_FO.jpg""]","stimuli/HF02_SUR.jpg","stimuli/BM07_AO.jpg","stimuli/WM07_HE.jpg","stimuli/AM06_FO.jpg","pos1","stimuli/HF02_SUR.jpg","SUR","HF02","0","3.5","7","8","stimuli/stars_7.png","144","[""SUR"",""AO"",""HE"",""FO""]","[""HF02"",""BM07"",""WM07"",""AM06""]","[7,5,3,4]","[8,4,2,6]","","",""
"show-reward","90","794473","0.0-90.0","p310416","A1P47Q6LZPLQ6P","3P888QFVX40Z2B7BK75OWKP045JQOK","3XLBSAQ9Z6I4IHEXGJC01BAY2WXZ7T","model","match","uniform","","","","","","","","794089","796095","","","","","","","","","","","","7","","stimuli/stars_7.png","144","","","","","stimuli/HF02_SUR.jpg","",""
"explore-choice","91","795734","0.0-91.0","p310416","A1P47Q6LZPLQ6P","3P888QFVX40Z2B7BK75OWKP045JQOK","3XLBSAQ9Z6I4IHEXGJC01BAY2WXZ7T","model","match","uniform","","","","","","","748","796096","796844","[""stimuli/WM07_HE.jpg"",""stimuli/BM07_SUR.jpg"",""stimuli/HF02_AO.jpg"",""stimuli/AM06_FO.jpg""]","stimuli/WM07_HE.jpg","stimuli/BM07_SUR.jpg","stimuli/HF02_AO.jpg","stimuli/AM06_FO.jpg","pos3","stimuli/HF02_AO.jpg","AO","HF02","2","4","8","8","stimuli/stars_8.png","148","[""HE"",""SUR"",""AO"",""FO""]","[""WM07"",""BM07"",""HF02"",""AM06""]","[3,5,8,7]","[2,4,8,6]","","",""
"show-reward","92","797745","0.0-92.0","p310416","A1P47Q6LZPLQ6P","3P888QFVX40Z2B7BK75OWKP045JQOK","3XLBSAQ9Z6I4IHEXGJC01BAY2WXZ7T","model","match","uniform","","","","","","","","797357","799367","","","","","","","","","","","","8","","stimuli/stars_8.png","148","","","","","stimuli/HF02_AO.jpg","",""
"explore-choice","93","799013","0.0-93.0","p310416","A1P47Q6LZPLQ6P","3P888QFVX40Z2B7BK75OWKP045JQOK","3XLBSAQ9Z6I4IHEXGJC01BAY2WXZ7T","model","match","uniform","","","","","","","766","799368","800134","[""stimuli/AM06_FO.jpg"",""stimuli/WM07_AO.jpg"",""stimuli/BM07_HE.jpg"",""stimuli/HF02_SUR.jpg""]","stimuli/AM06_FO.jpg","stimuli/WM07_AO.jpg","stimuli/BM07_HE.jpg","stimuli/HF02_SUR.jpg","pos4","stimuli/HF02_SUR.jpg","SUR","HF02","3","3","6","8","stimuli/stars_6.png","151","[""FO"",""AO"",""HE"",""SUR""]","[""AM06"",""WM07"",""BM07"",""HF02""]","[4,2,5,6]","[6,2,4,8]","","",""
"show-reward","94","801015","0.0-94.0","p310416","A1P47Q6LZPLQ6P","3P888QFVX40Z2B7BK75OWKP045JQOK","3XLBSAQ9Z6I4IHEXGJC01BAY2WXZ7T","model","match","uniform","","","","","","","","800636","802638","","","","","","","","","","","","6","","stimuli/stars_6.png","151","","","","","stimuli/HF02_SUR.jpg","",""
"explore-choice","95","802545","0.0-95.0","p310416","A1P47Q6LZPLQ6P","3P888QFVX40Z2B7BK75OWKP045JQOK","3XLBSAQ9Z6I4IHEXGJC01BAY2WXZ7T","model","match","uniform","","","","","","","1015","802638","803653","[""stimuli/HF02_SUR.jpg"",""stimuli/AM06_AO.jpg"",""stimuli/WM07_HE.jpg"",""stimuli/BM07_FO.jpg""]","stimuli/HF02_SUR.jpg","stimuli/AM06_AO.jpg","stimuli/WM07_HE.jpg","stimuli/BM07_FO.jpg","pos1","stimuli/HF02_SUR.jpg","SUR","HF02","0","3.5","7","8","stimuli/stars_7.png","154.5","[""SUR"",""AO"",""HE"",""FO""]","[""HF02"",""AM06"",""WM07"",""BM07""]","[7,4,3,5]","[8,6,2,4]","","",""
"show-reward","96","804556","0.0-96.0","p310416","A1P47Q6LZPLQ6P","3P888QFVX40Z2B7BK75OWKP045JQOK","3XLBSAQ9Z6I4IHEXGJC01BAY2WXZ7T","model","match","uniform","","","","","","","","804167","806178","","","","","","","","","","","","7","","stimuli/stars_7.png","154.5","","","","","stimuli/HF02_SUR.jpg","",""
"explore-choice","97","805841","0.0-97.0","p310416","A1P47Q6LZPLQ6P","3P888QFVX40Z2B7BK75OWKP045JQOK","3XLBSAQ9Z6I4IHEXGJC01BAY2WXZ7T","model","match","uniform","","","","","","","781","806179","806960","[""stimuli/WM07_AO.jpg"",""stimuli/AM06_FO.jpg"",""stimuli/HF02_HE.jpg"",""stimuli/BM07_SUR.jpg""]","stimuli/WM07_AO.jpg","stimuli/AM06_FO.jpg","stimuli/HF02_HE.jpg","stimuli/BM07_SUR.jpg","pos3","stimuli/HF02_HE.jpg","HE","HF02","2","3","6","8","stimuli/stars_6.png","157.5","[""AO"",""FO"",""HE"",""SUR""]","[""WM07"",""AM06"",""HF02"",""BM07""]","[2,8,6,4]","[2,6,8,4]","","",""
"show-reward","98","807854","0.0-98.0","p310416","A1P47Q6LZPLQ6P","3P888QFVX40Z2B7BK75OWKP045JQOK","3XLBSAQ9Z6I4IHEXGJC01BAY2WXZ7T","model","match","uniform","","","","","","","","807464","809475","","","","","","","","","","","","6","","stimuli/stars_6.png","157.5","","","","","stimuli/HF02_HE.jpg","",""
"explore-choice","99","809133","0.0-99.0","p310416","A1P47Q6LZPLQ6P","3P888QFVX40Z2B7BK75OWKP045JQOK","3XLBSAQ9Z6I4IHEXGJC01BAY2WXZ7T","model","match","uniform","","","","","","","776","809476","810252","[""stimuli/BM07_HE.jpg"",""stimuli/AM06_SUR.jpg"",""stimuli/HF02_AO.jpg"",""stimuli/WM07_FO.jpg""]","stimuli/BM07_HE.jpg","stimuli/AM06_SUR.jpg","stimuli/HF02_AO.jpg","stimuli/WM07_FO.jpg","pos3","stimuli/HF02_AO.jpg","AO","HF02","2","4","8","8","stimuli/stars_8.png","161.5","[""HE"",""SUR"",""AO"",""FO""]","[""BM07"",""AM06"",""HF02"",""WM07""]","[3,6,8,0]","[4,6,8,2]","","",""
"show-reward","100","811138","0.0-100.0","p310416","A1P47Q6LZPLQ6P","3P888QFVX40Z2B7BK75OWKP045JQOK","3XLBSAQ9Z6I4IHEXGJC01BAY2WXZ7T","model","match","uniform","","","","","","","","810756","812761","","","","","","","","","","","","8","","stimuli/stars_8.png","161.5","","","","","stimuli/HF02_AO.jpg","",""
"explore-choice","101","812352","0.0-101.0","p310416","A1P47Q6LZPLQ6P","3P888QFVX40Z2B7BK75OWKP045JQOK","3XLBSAQ9Z6I4IHEXGJC01BAY2WXZ7T","model","match","uniform","","","","","","","706","812762","813468","[""stimuli/BM07_AO.jpg"",""stimuli/HF02_HE.jpg"",""stimuli/WM07_FO.jpg"",""stimuli/AM06_SUR.jpg""]","stimuli/BM07_AO.jpg","stimuli/HF02_HE.jpg","stimuli/WM07_FO.jpg","stimuli/AM06_SUR.jpg","pos2","stimuli/HF02_HE.jpg","HE","HF02","1","4","8","8","stimuli/stars_8.png","165.5","[""AO"",""HE"",""FO"",""SUR""]","[""BM07"",""HF02"",""WM07"",""AM06""]","[5,8,2,6]","[4,8,2,6]","","",""
"show-reward","102","814365","0.0-102.0","p310416","A1P47Q6LZPLQ6P","3P888QFVX40Z2B7BK75OWKP045JQOK","3XLBSAQ9Z6I4IHEXGJC01BAY2WXZ7T","model","match","uniform","","","","","","","","813975","815987","","","","","","","","","","","","8","","stimuli/stars_8.png","165.5","","","","","stimuli/HF02_HE.jpg","",""
"explore-choice","103","817820","0.0-103.0","p310416","A1P47Q6LZPLQ6P","3P888QFVX40Z2B7BK75OWKP045JQOK","3XLBSAQ9Z6I4IHEXGJC01BAY2WXZ7T","model","match","uniform","","","","","","","2949","815988","818937","[""stimuli/AF11_HO.jpg"",""stimuli/AF02_DO.jpg"",""stimuli/WF04_SC.jpg"",""stimuli/WF06_CC.jpg""]","stimuli/AF11_HO.jpg","stimuli/AF02_DO.jpg","stimuli/WF04_SC.jpg","stimuli/WF06_CC.jpg","pos1","stimuli/AF11_HO.jpg","HO","AF11","0","3","6","6","stimuli/stars_6.png","168.5","[""HO"",""DO"",""SC"",""CC""]","[""AF11"",""AF02"",""WF04"",""WF06""]","[6,2,7,2]","[6,4,8,2]","","",""
"show-reward","104","819829","0.0-104.0","p310416","A1P47Q6LZPLQ6P","3P888QFVX40Z2B7BK75OWKP045JQOK","3XLBSAQ9Z6I4IHEXGJC01BAY2WXZ7T","model","match","uniform","","","","","","","","819442","821451","","","","","","","","","","","","6","","stimuli/stars_6.png","168.5","","","","","stimuli/AF11_HO.jpg","",""
"explore-choice","105","821165","0.0-105.0","p310416","A1P47Q6LZPLQ6P","3P888QFVX40Z2B7BK75OWKP045JQOK","3XLBSAQ9Z6I4IHEXGJC01BAY2WXZ7T","model","match","uniform","","","","","","","833","821452","822285","[""stimuli/AF11_HO.jpg"",""stimuli/WF04_DO.jpg"",""stimuli/WF06_SC.jpg"",""stimuli/AF02_CC.jpg""]","stimuli/AF11_HO.jpg","stimuli/WF04_DO.jpg","stimuli/WF06_SC.jpg","stimuli/AF02_CC.jpg","pos1","stimuli/AF11_HO.jpg","HO","AF11","0","2","4","6","stimuli/stars_4.png","170.5","[""HO"",""DO"",""SC"",""CC""]","[""AF11"",""WF04"",""WF06"",""AF02""]","[4,9,0,2]","[6,8,2,4]","","",""
"show-reward","106","823170","0.0-106.0","p310416","A1P47Q6LZPLQ6P","3P888QFVX40Z2B7BK75OWKP045JQOK","3XLBSAQ9Z6I4IHEXGJC01BAY2WXZ7T","model","match","uniform","","","","","","","","822787","824791","","","","","","","","","","","","4","","stimuli/stars_4.png","170.5","","","","","stimuli/AF11_HO.jpg","",""
"explore-choice","107","825072","0.0-107.0","p310416","A1P47Q6LZPLQ6P","3P888QFVX40Z2B7BK75OWKP045JQOK","3XLBSAQ9Z6I4IHEXGJC01BAY2WXZ7T","model","match","uniform","","","","","","","1389","824792","826181","[""stimuli/AF11_SC.jpg"",""stimuli/AF02_DO.jpg"",""stimuli/WF04_CC.jpg"",""stimuli/WF06_HO.jpg""]","stimuli/AF11_SC.jpg","stimuli/AF02_DO.jpg","stimuli/WF04_CC.jpg","stimuli/WF06_HO.jpg","pos3","stimuli/WF04_CC.jpg","CC","WF04","2","4","8","8","stimuli/stars_8.png","174.5","[""SC"",""DO"",""CC"",""HO""]","[""AF11"",""AF02"",""WF04"",""WF06""]","[8,6,8,4]","[6,4,8,2]","","",""
"show-reward","108","827075","0.0-108.0","p310416","A1P47Q6LZPLQ6P","3P888QFVX40Z2B7BK75OWKP045JQOK","3XLBSAQ9Z6I4IHEXGJC01BAY2WXZ7T","model","match","uniform","","","","","","","","826695","828696","","","","","","","","","","","","8","","stimuli/stars_8.png","174.5","","","","","stimuli/WF04_CC.jpg","",""
"explore-choice","109","828923","0.0-109.0","p310416","A1P47Q6LZPLQ6P","3P888QFVX40Z2B7BK75OWKP045JQOK","3XLBSAQ9Z6I4IHEXGJC01BAY2WXZ7T","model","match","uniform","","","","","","","1346","828697","830043","[""stimuli/AF02_SC.jpg"",""stimuli/AF11_CC.jpg"",""stimuli/WF06_HO.jpg"",""stimuli/WF04_DO.jpg""]","stimuli/AF02_SC.jpg","stimuli/AF11_CC.jpg","stimuli/WF06_HO.jpg","stimuli/WF04_DO.jpg","pos4","stimuli/WF04_DO.jpg","DO","WF04","3","4.5","9","8","stimuli/stars_9.png","179","[""SC"",""CC"",""HO"",""DO""]","[""AF02"",""AF11"",""WF06"",""WF04""]","[2,6,1,9]","[4,6,2,8]","","",""
"show-reward","110","830932","0.0-110.0","p310416","A1P47Q6LZPLQ6P","3P888QFVX40Z2B7BK75OWKP045JQOK","3XLBSAQ9Z6I4IHEXGJC01BAY2WXZ7T","model","match","uniform","","","","","","","","830546","832553","","","","","","","","","","","","9","","stimuli/stars_9.png","179","","","","","stimuli/WF04_DO.jpg","",""
"explore-choice","111","832681","0.0-111.0","p310416","A1P47Q6LZPLQ6P","3P888QFVX40Z2B7BK75OWKP045JQOK","3XLBSAQ9Z6I4IHEXGJC01BAY2WXZ7T","model","match","uniform","","","","","","","1233","832554","833787","[""stimuli/AF11_CC.jpg"",""stimuli/WF04_HO.jpg"",""stimuli/WF06_SC.jpg"",""stimuli/AF02_DO.jpg""]","stimuli/AF11_CC.jpg","stimuli/WF04_HO.jpg","stimuli/WF06_SC.jpg","stimuli/AF02_DO.jpg","pos2","stimuli/WF04_HO.jpg","HO","WF04","1","3.5","7","8","stimuli/stars_7.png","182.5","[""CC"",""HO"",""SC"",""DO""]","[""AF11"",""WF04"",""WF06"",""AF02""]","[5,7,0,3]","[6,8,2,4]","","",""
"show-reward","112","834697","0.0-112.0","p310416","A1P47Q6LZPLQ6P","3P888QFVX40Z2B7BK75OWKP045JQOK","3XLBSAQ9Z6I4IHEXGJC01BAY2WXZ7T","model","match","uniform","","","","","","","","834303","836318","","","","","","","","","","","","7","","stimuli/stars_7.png","182.5","","","","","stimuli/WF04_HO.jpg","",""
"explore-choice","113","836041","0.0-113.0","p310416","A1P47Q6LZPLQ6P","3P888QFVX40Z2B7BK75OWKP045JQOK","3XLBSAQ9Z6I4IHEXGJC01BAY2WXZ7T","model","match","uniform","","","","","","","828","836319","837147","[""stimuli/AF11_DO.jpg"",""stimuli/WF04_HO.jpg"",""stimuli/AF02_SC.jpg"",""stimuli/WF06_CC.jpg""]","stimuli/AF11_DO.jpg","stimuli/WF04_HO.jpg","stimuli/AF02_SC.jpg","stimuli/WF06_CC.jpg","pos2","stimuli/WF04_HO.jpg","HO","WF04","1","5","10","8","stimuli/stars_10.png","187.5","[""DO"",""HO"",""SC"",""CC""]","[""AF11"",""WF04"",""AF02"",""WF06""]","[5,10,3,0]","[6,8,4,2]","","",""
"show-reward","114","838057","0.0-114.0","p310416","A1P47Q6LZPLQ6P","3P888QFVX40Z2B7BK75OWKP045JQOK","3XLBSAQ9Z6I4IHEXGJC01BAY2WXZ7T","model","match","uniform","","","","","","","","837664","839679","","","","","","","","","","","","10","","stimuli/stars_10.png","187.5","","","","","stimuli/WF04_HO.jpg","",""
"explore-choice","115","839553","0.0-115.0","p310416","A1P47Q6LZPLQ6P","3P888QFVX40Z2B7BK75OWKP045JQOK","3XLBSAQ9Z6I4IHEXGJC01BAY2WXZ7T","model","match","uniform","","","","","","","985","839680","840665","[""stimuli/AF11_DO.jpg"",""stimuli/AF02_CC.jpg"",""stimuli/WF04_SC.jpg"",""stimuli/WF06_HO.jpg""]","stimuli/AF11_DO.jpg","stimuli/AF02_CC.jpg","stimuli/WF04_SC.jpg","stimuli/WF06_HO.jpg","pos3","stimuli/WF04_SC.jpg","SC","WF04","2","3.5","7","8","stimuli/stars_7.png","191","[""DO"",""CC"",""SC"",""HO""]","[""AF11"",""AF02"",""WF04"",""WF06""]","[7,3,7,1]","[6,4,8,2]","","",""
"show-reward","116","841557","0.0-116.0","p310416","A1P47Q6LZPLQ6P","3P888QFVX40Z2B7BK75OWKP045JQOK","3XLBSAQ9Z6I4IHEXGJC01BAY2WXZ7T","model","match","uniform","","","","","","","","841175","843179","","","","","","","","","","","","7","","stimuli/stars_7.png","191","","","","","stimuli/WF04_SC.jpg","",""
"explore-choice","117","843209","0.0-117.0","p310416","A1P47Q6LZPLQ6P","3P888QFVX40Z2B7BK75OWKP045JQOK","3XLBSAQ9Z6I4IHEXGJC01BAY2WXZ7T","model","match","uniform","","","","","","","1144","843180","844324","[""stimuli/AF02_HO.jpg"",""stimuli/AF11_SC.jpg"",""stimuli/WF06_CC.jpg"",""stimuli/WF04_DO.jpg""]","stimuli/AF02_HO.jpg","stimuli/AF11_SC.jpg","stimuli/WF06_CC.jpg","stimuli/WF04_DO.jpg","pos4","stimuli/WF04_DO.jpg","DO","WF04","3","3","6","8","stimuli/stars_6.png","194","[""HO"",""SC"",""CC"",""DO""]","[""AF02"",""AF11"",""WF06"",""WF04""]","[6,8,0,6]","[4,6,2,8]","","",""
"show-reward","118","845215","0.0-118.0","p310416","A1P47Q6LZPLQ6P","3P888QFVX40Z2B7BK75OWKP045JQOK","3XLBSAQ9Z6I4IHEXGJC01BAY2WXZ7T","model","match","uniform","","","","","","","","844832","846837","","","","","","","","","","","","6","","stimuli/stars_6.png","194","","","","","stimuli/WF04_DO.jpg","",""
"explore-choice","119","846664","0.0-119.0","p310416","A1P47Q6LZPLQ6P","3P888QFVX40Z2B7BK75OWKP045JQOK","3XLBSAQ9Z6I4IHEXGJC01BAY2WXZ7T","model","match","uniform","","","","","","","946","846837","847783","[""stimuli/WF06_SC.jpg"",""stimuli/WF04_CC.jpg"",""stimuli/AF11_DO.jpg"",""stimuli/AF02_HO.jpg""]","stimuli/WF06_SC.jpg","stimuli/WF04_CC.jpg","stimuli/AF11_DO.jpg","stimuli/AF02_HO.jpg","pos2","stimuli/WF04_CC.jpg","CC","WF04","1","4","8","8","stimuli/stars_8.png","198","[""SC"",""CC"",""DO"",""HO""]","[""WF06"",""WF04"",""AF11"",""AF02""]","[3,8,6,6]","[2,8,6,4]","","",""
"show-reward","120","848679","0.0-120.0","p310416","A1P47Q6LZPLQ6P","3P888QFVX40Z2B7BK75OWKP045JQOK","3XLBSAQ9Z6I4IHEXGJC01BAY2WXZ7T","model","match","uniform","","","","","","","","848286","850302","","","","","","","","","","","","8","","stimuli/stars_8.png","198","","","","","stimuli/WF04_CC.jpg","",""
"explore-choice","121","849994","0.0-121.0","p310416","A1P47Q6LZPLQ6P","3P888QFVX40Z2B7BK75OWKP045JQOK","3XLBSAQ9Z6I4IHEXGJC01BAY2WXZ7T","model","match","uniform","","","","","","","811","850303","851114","[""stimuli/WF04_SC.jpg"",""stimuli/WF06_HO.jpg"",""stimuli/AF11_CC.jpg"",""stimuli/AF02_DO.jpg""]","stimuli/WF04_SC.jpg","stimuli/WF06_HO.jpg","stimuli/AF11_CC.jpg","stimuli/AF02_DO.jpg","pos1","stimuli/WF04_SC.jpg","SC","WF04","0","3.5","7","8","stimuli/stars_7.png","201.5","[""SC"",""HO"",""CC"",""DO""]","[""WF04"",""WF06"",""AF11"",""AF02""]","[7,1,6,6]","[8,2,6,4]","","",""
"show-reward","122","852004","0.0-122.0","p310416","A1P47Q6LZPLQ6P","3P888QFVX40Z2B7BK75OWKP045JQOK","3XLBSAQ9Z6I4IHEXGJC01BAY2WXZ7T","model","match","uniform","","","","","","","","851616","853626","","","","","","","","","","","","7","","stimuli/stars_7.png","201.5","","","","","stimuli/WF04_SC.jpg","",""
"explore-choice","123","853397","0.0-123.0","p310416","A1P47Q6LZPLQ6P","3P888QFVX40Z2B7BK75OWKP045JQOK","3XLBSAQ9Z6I4IHEXGJC01BAY2WXZ7T","model","match","uniform","","","","","","","890","853626","854516","[""stimuli/WF04_DO.jpg"",""stimuli/WF06_SC.jpg"",""stimuli/AF02_HO.jpg"",""stimuli/AF11_CC.jpg""]","stimuli/WF04_DO.jpg","stimuli/WF06_SC.jpg","stimuli/AF02_HO.jpg","stimuli/AF11_CC.jpg","pos1","stimuli/WF04_DO.jpg","DO","WF04","0","5","10","8","stimuli/stars_10.png","206.5","[""DO"",""SC"",""HO"",""CC""]","[""WF04"",""WF06"",""AF02"",""AF11""]","[10,2,3,6]","[8,2,4,6]","","",""
"show-reward","124","855411","0.0-124.0","p310416","A1P47Q6LZPLQ6P","3P888QFVX40Z2B7BK75OWKP045JQOK","3XLBSAQ9Z6I4IHEXGJC01BAY2WXZ7T","model","match","uniform","","","","","","","","855019","857033","","","","","","","","","","","","10","","stimuli/stars_10.png","206.5","","","","","stimuli/WF04_DO.jpg","",""
"explore-choice","125","856590","0.0-125.0","p310416","A1P47Q6LZPLQ6P","3P888QFVX40Z2B7BK75OWKP045JQOK","3XLBSAQ9Z6I4IHEXGJC01BAY2WXZ7T","model","match","uniform","","","","","","","676","857034","857710","[""stimuli/WF04_SC.jpg"",""stimuli/AF11_CC.jpg"",""stimuli/WF06_DO.jpg"",""stimuli/AF02_HO.jpg""]","stimuli/WF04_SC.jpg","stimuli/AF11_CC.jpg","stimuli/WF06_DO.jpg","stimuli/AF02_HO.jpg","pos1","stimuli/WF04_SC.jpg","SC","WF04","0","5","10","8","stimuli/stars_10.png","211.5","[""SC"",""CC"",""DO"",""HO""]","[""WF04"",""AF11"",""WF06"",""AF02""]","[10,4,3,5]","[8,6,2,4]","","",""
"show-reward","126","858599","0.0-126.0","p310416","A1P47Q6LZPLQ6P","3P888QFVX40Z2B7BK75OWKP045JQOK","3XLBSAQ9Z6I4IHEXGJC01BAY2WXZ7T","model","match","uniform","","","","","","","","858213","860221","","","","","","","","","","","","10","","stimuli/stars_10.png","211.5","","","","","stimuli/WF04_SC.jpg","",""
"explore-choice","127","859927","0.0-127.0","p310416","A1P47Q6LZPLQ6P","3P888QFVX40Z2B7BK75OWKP045JQOK","3XLBSAQ9Z6I4IHEXGJC01BAY2WXZ7T","model","match","uniform","","","","","","","826","860222","861048","[""stimuli/AF02_CC.jpg"",""stimuli/WF04_HO.jpg"",""stimuli/AF11_DO.jpg"",""stimuli/WF06_SC.jpg""]","stimuli/AF02_CC.jpg","stimuli/WF04_HO.jpg","stimuli/AF11_DO.jpg","stimuli/WF06_SC.jpg","pos2","stimuli/WF04_HO.jpg","HO","WF04","1","3.5","7","8","stimuli/stars_7.png","215","[""CC"",""HO"",""DO"",""SC""]","[""AF02"",""WF04"",""AF11"",""WF06""]","[6,7,4,3]","[4,8,6,2]","","",""
"show-reward","128","861941","0.0-128.0","p310416","A1P47Q6LZPLQ6P","3P888QFVX40Z2B7BK75OWKP045JQOK","3XLBSAQ9Z6I4IHEXGJC01BAY2WXZ7T","model","match","uniform","","","","","","","","861549","863563","","","","","","","","","","","","7","","stimuli/stars_7.png","215","","","","","stimuli/WF04_HO.jpg","",""
"explore-choice","129","863809","0.0-129.0","p310416","A1P47Q6LZPLQ6P","3P888QFVX40Z2B7BK75OWKP045JQOK","3XLBSAQ9Z6I4IHEXGJC01BAY2WXZ7T","model","match","uniform","","","","","","","1355","863563","864918","[""stimuli/WF04_HO.jpg"",""stimuli/AF11_SC.jpg"",""stimuli/WF06_CC.jpg"",""stimuli/AF02_DO.jpg""]","stimuli/WF04_HO.jpg","stimuli/AF11_SC.jpg","stimuli/WF06_CC.jpg","stimuli/AF02_DO.jpg","pos1","stimuli/WF04_HO.jpg","HO","WF04","0","4","8","8","stimuli/stars_8.png","219","[""HO"",""SC"",""CC"",""DO""]","[""WF04"",""AF11"",""WF06"",""AF02""]","[8,7,3,3]","[8,6,2,4]","","",""
"show-reward","130","865816","0.0-130.0","p310416","A1P47Q6LZPLQ6P","3P888QFVX40Z2B7BK75OWKP045JQOK","3XLBSAQ9Z6I4IHEXGJC01BAY2WXZ7T","model","match","uniform","","","","","","","","865431","867439","","","","","","","","","","","","8","","stimuli/stars_8.png","219","","","","","stimuli/WF04_HO.jpg","",""
"explore-choice","131","867642","0.0-131.0","p310416","A1P47Q6LZPLQ6P","3P888QFVX40Z2B7BK75OWKP045JQOK","3XLBSAQ9Z6I4IHEXGJC01BAY2WXZ7T","model","match","uniform","","","","","","","1324","867439","868763","[""stimuli/AF11_HO.jpg"",""stimuli/WF04_CC.jpg"",""stimuli/AF02_DO.jpg"",""stimuli/WF06_SC.jpg""]","stimuli/AF11_HO.jpg","stimuli/WF04_CC.jpg","stimuli/AF02_DO.jpg","stimuli/WF06_SC.jpg","pos2","stimuli/WF04_CC.jpg","CC","WF04","1","5","10","8","stimuli/stars_10.png","224","[""HO"",""CC"",""DO"",""SC""]","[""AF11"",""WF04"",""AF02"",""WF06""]","[8,10,5,3]","[6,8,4,2]","","",""
"show-reward","132","869652","0.0-132.0","p310416","A1P47Q6LZPLQ6P","3P888QFVX40Z2B7BK75OWKP045JQOK","3XLBSAQ9Z6I4IHEXGJC01BAY2WXZ7T","model","match","uniform","","","","","","","","869264","871274","","","","","","","","","","","","10","","stimuli/stars_10.png","224","","","","","stimuli/WF04_CC.jpg","",""
"explore-choice","133","870751","0.0-133.0","p310416","A1P47Q6LZPLQ6P","3P888QFVX40Z2B7BK75OWKP045JQOK","3XLBSAQ9Z6I4IHEXGJC01BAY2WXZ7T","model","match","uniform","","","","","","","595","871274","871869","[""stimuli/WF06_DO.jpg"",""stimuli/WF04_HO.jpg"",""stimuli/AF11_CC.jpg"",""stimuli/AF02_SC.jpg""]","stimuli/WF06_DO.jpg","stimuli/WF04_HO.jpg","stimuli/AF11_CC.jpg","stimuli/AF02_SC.jpg","pos2","stimuli/WF04_HO.jpg","HO","WF04","1","5","10","8","stimuli/stars_10.png","229","[""DO"",""HO"",""CC"",""SC""]","[""WF06"",""WF04"",""AF11"",""AF02""]","[4,10,7,6]","[2,8,6,4]","","",""
"show-reward","134","872767","0.0-134.0","p310416","A1P47Q6LZPLQ6P","3P888QFVX40Z2B7BK75OWKP045JQOK","3XLBSAQ9Z6I4IHEXGJC01BAY2WXZ7T","model","match","uniform","","","","","","","","872374","874389","","","","","","","","","","","","10","","stimuli/stars_10.png","229","","","","","stimuli/WF04_HO.jpg","",""
"explore-choice","135","873994","0.0-135.0","p310416","A1P47Q6LZPLQ6P","3P888QFVX40Z2B7BK75OWKP045JQOK","3XLBSAQ9Z6I4IHEXGJC01BAY2WXZ7T","model","match","uniform","","","","","","","721","874390","875111","[""stimuli/WF06_HO.jpg"",""stimuli/WF04_DO.jpg"",""stimuli/AF02_CC.jpg"",""stimuli/AF11_SC.jpg""]","stimuli/WF06_HO.jpg","stimuli/WF04_DO.jpg","stimuli/AF02_CC.jpg","stimuli/AF11_SC.jpg","pos2","stimuli/WF04_DO.jpg","DO","WF04","1","4.5","9","8","stimuli/stars_9.png","233.5","[""HO"",""DO"",""CC"",""SC""]","[""WF06"",""WF04"",""AF02"",""AF11""]","[0,9,5,4]","[2,8,4,6]","","",""
"show-reward","136","875996","0.0-136.0","p310416","A1P47Q6LZPLQ6P","3P888QFVX40Z2B7BK75OWKP045JQOK","3XLBSAQ9Z6I4IHEXGJC01BAY2WXZ7T","model","match","uniform","","","","","","","","875617","877619","","","","","","","","","","","","9","","stimuli/stars_9.png","233.5","","","","","stimuli/WF04_DO.jpg","",""
"explore-choice","137","878309","0.0-137.0","p310416","A1P47Q6LZPLQ6P","3P888QFVX40Z2B7BK75OWKP045JQOK","3XLBSAQ9Z6I4IHEXGJC01BAY2WXZ7T","model","match","uniform","","","","","","","1795","877620","879415","[""stimuli/WF06_DO.jpg"",""stimuli/AF11_SC.jpg"",""stimuli/WF04_HO.jpg"",""stimuli/AF02_CC.jpg""]","stimuli/WF06_DO.jpg","stimuli/AF11_SC.jpg","stimuli/WF04_HO.jpg","stimuli/AF02_CC.jpg","pos3","stimuli/WF04_HO.jpg","HO","WF04","2","4.5","9","8","stimuli/stars_9.png","238","[""DO"",""SC"",""HO"",""CC""]","[""WF06"",""AF11"",""WF04"",""AF02""]","[1,5,9,3]","[2,6,8,4]","","",""
"show-reward","138","880318","0.0-138.0","p310416","A1P47Q6LZPLQ6P","3P888QFVX40Z2B7BK75OWKP045JQOK","3XLBSAQ9Z6I4IHEXGJC01BAY2WXZ7T","model","match","uniform","","","","","","","","879932","881939","","","","","","","","","","","","9","","stimuli/stars_9.png","238","","","","","stimuli/WF04_HO.jpg","",""
"explore-choice","139","881543","0.0-139.0","p310416","A1P47Q6LZPLQ6P","3P888QFVX40Z2B7BK75OWKP045JQOK","3XLBSAQ9Z6I4IHEXGJC01BAY2WXZ7T","model","match","uniform","","","","","","","713","881940","882653","[""stimuli/AF11_HO.jpg"",""stimuli/WF04_DO.jpg"",""stimuli/WF06_CC.jpg"",""stimuli/AF02_SC.jpg""]","stimuli/AF11_HO.jpg","stimuli/WF04_DO.jpg","stimuli/WF06_CC.jpg","stimuli/AF02_SC.jpg","pos2","stimuli/WF04_DO.jpg","DO","WF04","1","5","10","8","stimuli/stars_10.png","243","[""HO"",""DO"",""CC"",""SC""]","[""AF11"",""WF04"",""WF06"",""AF02""]","[8,10,2,4]","[6,8,2,4]","","",""
"show-reward","140","883546","0.0-140.0","p310416","A1P47Q6LZPLQ6P","3P888QFVX40Z2B7BK75OWKP045JQOK","3XLBSAQ9Z6I4IHEXGJC01BAY2WXZ7T","model","match","uniform","","","","","","","","883165","885168","","","","","","","","","","","","10","","stimuli/stars_10.png","243","","","","","stimuli/WF04_DO.jpg","",""
"explore-choice","141","885017","0.0-141.0","p310416","A1P47Q6LZPLQ6P","3P888QFVX40Z2B7BK75OWKP045JQOK","3XLBSAQ9Z6I4IHEXGJC01BAY2WXZ7T","model","match","uniform","","","","","","","959","885169","886128","[""stimuli/AF11_DO.jpg"",""stimuli/WF04_CC.jpg"",""stimuli/WF06_HO.jpg"",""stimuli/AF02_SC.jpg""]","stimuli/AF11_DO.jpg","stimuli/WF04_CC.jpg","stimuli/WF06_HO.jpg","stimuli/AF02_SC.jpg","pos2","stimuli/WF04_CC.jpg","CC","WF04","1","3","6","8","stimuli/stars_6.png","246","[""DO"",""CC"",""HO"",""SC""]","[""AF11"",""WF04"",""WF06"",""AF02""]","[6,6,0,3]","[6,8,2,4]","","",""
"show-reward","142","887029","0.0-142.0","p310416","A1P47Q6LZPLQ6P","3P888QFVX40Z2B7BK75OWKP045JQOK","3XLBSAQ9Z6I4IHEXGJC01BAY2WXZ7T","model","match","uniform","","","","","","","","886639","888651","","","","","","","","","","","","6","","stimuli/stars_6.png","246","","","","","stimuli/WF04_CC.jpg","",""
"explore-choice","143","888271","0.0-143.0","p310416","A1P47Q6LZPLQ6P","3P888QFVX40Z2B7BK75OWKP045JQOK","3XLBSAQ9Z6I4IHEXGJC01BAY2WXZ7T","model","match","uniform","","","","","","","726","888652","889378","[""stimuli/AF11_HO.jpg"",""stimuli/WF04_SC.jpg"",""stimuli/AF02_CC.jpg"",""stimuli/WF06_DO.jpg""]","stimuli/AF11_HO.jpg","stimuli/WF04_SC.jpg","stimuli/AF02_CC.jpg","stimuli/WF06_DO.jpg","pos2","stimuli/WF04_SC.jpg","SC","WF04","1","3.5","7","8","stimuli/stars_7.png","249.5","[""HO"",""SC"",""CC"",""DO""]","[""AF11"",""WF04"",""AF02"",""WF06""]","[5,7,5,1]","[6,8,4,2]","","",""
"show-reward","144","890276","0.0-144.0","p310416","A1P47Q6LZPLQ6P","3P888QFVX40Z2B7BK75OWKP045JQOK","3XLBSAQ9Z6I4IHEXGJC01BAY2WXZ7T","model","match","uniform","","","","","","","","889894","891898","","","","","","","","","","","","7","","stimuli/stars_7.png","249.5","","","","","stimuli/WF04_SC.jpg","",""
"explore-choice","145","891521","0.0-145.0","p310416","A1P47Q6LZPLQ6P","3P888QFVX40Z2B7BK75OWKP045JQOK","3XLBSAQ9Z6I4IHEXGJC01BAY2WXZ7T","model","match","uniform","","","","","","","730","891898","892628","[""stimuli/WF04_SC.jpg"",""stimuli/AF11_DO.jpg"",""stimuli/AF02_HO.jpg"",""stimuli/WF06_CC.jpg""]","stimuli/WF04_SC.jpg","stimuli/AF11_DO.jpg","stimuli/AF02_HO.jpg","stimuli/WF06_CC.jpg","pos1","stimuli/WF04_SC.jpg","SC","WF04","0","4","8","8","stimuli/stars_8.png","253.5","[""SC"",""DO"",""HO"",""CC""]","[""WF04"",""AF11"",""AF02"",""WF06""]","[8,5,3,0]","[8,6,4,2]","","",""
"show-reward","146","893527","0.0-146.0","p310416","A1P47Q6LZPLQ6P","3P888QFVX40Z2B7BK75OWKP045JQOK","3XLBSAQ9Z6I4IHEXGJC01BAY2WXZ7T","model","match","uniform","","","","","","","","893143","895148","","","","","","","","","","","","8","","stimuli/stars_8.png","253.5","","","","","stimuli/WF04_SC.jpg","",""
"explore-choice","147","894866","0.0-147.0","p310416","A1P47Q6LZPLQ6P","3P888QFVX40Z2B7BK75OWKP045JQOK","3XLBSAQ9Z6I4IHEXGJC01BAY2WXZ7T","model","match","uniform","","","","","","","828","895150","895978","[""stimuli/AF02_SC.jpg"",""stimuli/WF06_DO.jpg"",""stimuli/WF04_CC.jpg"",""stimuli/AF11_HO.jpg""]","stimuli/AF02_SC.jpg","stimuli/WF06_DO.jpg","stimuli/WF04_CC.jpg","stimuli/AF11_HO.jpg","pos3","stimuli/WF04_CC.jpg","CC","WF04","2","5","10","8","stimuli/stars_10.png","258.5","[""SC"",""DO"",""CC"",""HO""]","[""AF02"",""WF06"",""WF04"",""AF11""]","[3,1,10,5]","[4,2,8,6]","","",""
"show-reward","148","896873","0.0-148.0","p310416","A1P47Q6LZPLQ6P","3P888QFVX40Z2B7BK75OWKP045JQOK","3XLBSAQ9Z6I4IHEXGJC01BAY2WXZ7T","model","match","uniform","","","","","","","","896488","898495","","","","","","","","","","","","10","","stimuli/stars_10.png","258.5","","","","","stimuli/WF04_CC.jpg","",""
"explore-choice","149","898023","0.0-149.0","p310416","A1P47Q6LZPLQ6P","3P888QFVX40Z2B7BK75OWKP045JQOK","3XLBSAQ9Z6I4IHEXGJC01BAY2WXZ7T","model","match","uniform","","","","","","","644","898496","899140","[""stimuli/WF04_CC.jpg"",""stimuli/WF06_DO.jpg"",""stimuli/AF11_SC.jpg"",""stimuli/AF02_HO.jpg""]","stimuli/WF04_CC.jpg","stimuli/WF06_DO.jpg","stimuli/AF11_SC.jpg","stimuli/AF02_HO.jpg","pos1","stimuli/WF04_CC.jpg","CC","WF04","0","5","10","8","stimuli/stars_10.png","263.5","[""CC"",""DO"",""SC"",""HO""]","[""WF04"",""WF06"",""AF11"",""AF02""]","[10,0,4,4]","[8,2,6,4]","","",""
"show-reward","150","900031","0.0-150.0","p310416","A1P47Q6LZPLQ6P","3P888QFVX40Z2B7BK75OWKP045JQOK","3XLBSAQ9Z6I4IHEXGJC01BAY2WXZ7T","model","match","uniform","","","","","","","","899645","901653","","","","","","","","","","","","10","","stimuli/stars_10.png","263.5","","","","","stimuli/WF04_CC.jpg","",""
"explore-choice","151","901216","0.0-151.0","p310416","A1P47Q6LZPLQ6P","3P888QFVX40Z2B7BK75OWKP045JQOK","3XLBSAQ9Z6I4IHEXGJC01BAY2WXZ7T","model","match","uniform","","","","","","","670","901654","902324","[""stimuli/AF11_HO.jpg"",""stimuli/AF02_SC.jpg"",""stimuli/WF04_CC.jpg"",""stimuli/WF06_DO.jpg""]","stimuli/AF11_HO.jpg","stimuli/AF02_SC.jpg","stimuli/WF04_CC.jpg","stimuli/WF06_DO.jpg","pos3","stimuli/WF04_CC.jpg","CC","WF04","2","5","10","8","stimuli/stars_10.png","268.5","[""HO"",""SC"",""CC"",""DO""]","[""AF11"",""AF02"",""WF04"",""WF06""]","[5,3,10,1]","[6,4,8,2]","","",""
"show-reward","152","903220","0.0-152.0","p310416","A1P47Q6LZPLQ6P","3P888QFVX40Z2B7BK75OWKP045JQOK","3XLBSAQ9Z6I4IHEXGJC01BAY2WXZ7T","model","match","uniform","","","","","","","","902839","904841","","","","","","","","","","","","10","","stimuli/stars_10.png","268.5","","","","","stimuli/WF04_CC.jpg","",""
"explore-choice","153","904302","0.0-153.0","p310416","A1P47Q6LZPLQ6P","3P888QFVX40Z2B7BK75OWKP045JQOK","3XLBSAQ9Z6I4IHEXGJC01BAY2WXZ7T","model","match","uniform","","","","","","","568","904842","905410","[""stimuli/WF04_HO.jpg"",""stimuli/AF11_SC.jpg"",""stimuli/WF06_CC.jpg"",""stimuli/AF02_DO.jpg""]","stimuli/WF04_HO.jpg","stimuli/AF11_SC.jpg","stimuli/WF06_CC.jpg","stimuli/AF02_DO.jpg","pos1","stimuli/WF04_HO.jpg","HO","WF04","0","4","8","8","stimuli/stars_8.png","272.5","[""HO"",""SC"",""CC"",""DO""]","[""WF04"",""AF11"",""WF06"",""AF02""]","[8,7,3,3]","[8,6,2,4]","","",""
"show-reward","154","906314","0.0-154.0","p310416","A1P47Q6LZPLQ6P","3P888QFVX40Z2B7BK75OWKP045JQOK","3XLBSAQ9Z6I4IHEXGJC01BAY2WXZ7T","model","match","uniform","","","","","","","","905925","907936","","","","","","","","","","","","8","","stimuli/stars_8.png","272.5","","","","","stimuli/WF04_HO.jpg","",""
"explore-choice","155","907840","0.0-155.0","p310416","A1P47Q6LZPLQ6P","3P888QFVX40Z2B7BK75OWKP045JQOK","3XLBSAQ9Z6I4IHEXGJC01BAY2WXZ7T","model","match","uniform","","","","","","","1021","907936","908957","[""stimuli/AF02_DO.jpg"",""stimuli/AF11_SC.jpg"",""stimuli/WF06_HO.jpg"",""stimuli/WF04_CC.jpg""]","stimuli/AF02_DO.jpg","stimuli/AF11_SC.jpg","stimuli/WF06_HO.jpg","stimuli/WF04_CC.jpg","pos4","stimuli/WF04_CC.jpg","CC","WF04","3","4","8","8","stimuli/stars_8.png","276.5","[""DO"",""SC"",""HO"",""CC""]","[""AF02"",""AF11"",""WF06"",""WF04""]","[6,8,4,8]","[4,6,2,8]","","",""
"show-reward","156","909854","0.0-156.0","p310416","A1P47Q6LZPLQ6P","3P888QFVX40Z2B7BK75OWKP045JQOK","3XLBSAQ9Z6I4IHEXGJC01BAY2WXZ7T","model","match","uniform","","","","","","","","909463","911476","","","","","","","","","","","","8","","stimuli/stars_8.png","276.5","","","","","stimuli/WF04_CC.jpg","",""
"explore-choice","157","911025","0.0-157.0","p310416","A1P47Q6LZPLQ6P","3P888QFVX40Z2B7BK75OWKP045JQOK","3XLBSAQ9Z6I4IHEXGJC01BAY2WXZ7T","model","match","uniform","","","","","","","655","911477","912132","[""stimuli/WF04_SC.jpg"",""stimuli/AF11_DO.jpg"",""stimuli/WF06_HO.jpg"",""stimuli/AF02_CC.jpg""]","stimuli/WF04_SC.jpg","stimuli/AF11_DO.jpg","stimuli/WF06_HO.jpg","stimuli/AF02_CC.jpg","pos1","stimuli/WF04_SC.jpg","SC","WF04","0","3.5","7","8","stimuli/stars_7.png","280","[""SC"",""DO"",""HO"",""CC""]","[""WF04"",""AF11"",""WF06"",""AF02""]","[7,7,1,3]","[8,6,2,4]","","",""
"show-reward","158","913040","0.0-158.0","p310416","A1P47Q6LZPLQ6P","3P888QFVX40Z2B7BK75OWKP045JQOK","3XLBSAQ9Z6I4IHEXGJC01BAY2WXZ7T","model","match","uniform","","","","","","","","912648","914661","","","","","","","","","","","","7","","stimuli/stars_7.png","280","","","","","stimuli/WF04_SC.jpg","",""
"explore-choice","159","914276","0.0-159.0","p310416","A1P47Q6LZPLQ6P","3P888QFVX40Z2B7BK75OWKP045JQOK","3XLBSAQ9Z6I4IHEXGJC01BAY2WXZ7T","model","match","uniform","","","","","","","720","914662","915382","[""stimuli/AF11_DO.jpg"",""stimuli/AF02_HO.jpg"",""stimuli/WF04_CC.jpg"",""stimuli/WF06_SC.jpg""]","stimuli/AF11_DO.jpg","stimuli/AF02_HO.jpg","stimuli/WF04_CC.jpg","stimuli/WF06_SC.jpg","pos3","stimuli/WF04_CC.jpg","CC","WF04","2","4","8","8","stimuli/stars_8.png","284","[""DO"",""HO"",""CC"",""SC""]","[""AF11"",""AF02"",""WF04"",""WF06""]","[6,6,8,3]","[6,4,8,2]","","",""
"show-reward","160","916281","0.0-160.0","p310416","A1P47Q6LZPLQ6P","3P888QFVX40Z2B7BK75OWKP045JQOK","3XLBSAQ9Z6I4IHEXGJC01BAY2WXZ7T","model","match","uniform","","","","","","","","915899","917903","","","","","","","","","","","","8","","stimuli/stars_8.png","284","","","","","stimuli/WF04_CC.jpg","",""
"explore-choice","161","917508","0.0-161.0","p310416","A1P47Q6LZPLQ6P","3P888QFVX40Z2B7BK75OWKP045JQOK","3XLBSAQ9Z6I4IHEXGJC01BAY2WXZ7T","model","match","uniform","","","","","","","711","917904","918615","[""stimuli/AF02_CC.jpg"",""stimuli/AF11_HO.jpg"",""stimuli/WF04_DO.jpg"",""stimuli/WF06_SC.jpg""]","stimuli/AF02_CC.jpg","stimuli/AF11_HO.jpg","stimuli/WF04_DO.jpg","stimuli/WF06_SC.jpg","pos3","stimuli/WF04_DO.jpg","DO","WF04","2","4.5","9","8","stimuli/stars_9.png","288.5","[""CC"",""HO"",""DO"",""SC""]","[""AF02"",""AF11"",""WF04"",""WF06""]","[2,4,9,0]","[4,6,8,2]","","",""
"show-reward","162","919519","0.0-162.0","p310416","A1P47Q6LZPLQ6P","3P888QFVX40Z2B7BK75OWKP045JQOK","3XLBSAQ9Z6I4IHEXGJC01BAY2WXZ7T","model","match","uniform","","","","","","","","919129","921141","","","","","","","","","","","","9","","stimuli/stars_9.png","288.5","","","","","stimuli/WF04_DO.jpg","",""
"explore-choice","163","921011","0.0-163.0","p310416","A1P47Q6LZPLQ6P","3P888QFVX40Z2B7BK75OWKP045JQOK","3XLBSAQ9Z6I4IHEXGJC01BAY2WXZ7T","model","match","uniform","","","","","","","989","921141","922130","[""stimuli/WF06_CC.jpg"",""stimuli/WF04_DO.jpg"",""stimuli/AF11_HO.jpg"",""stimuli/AF02_SC.jpg""]","stimuli/WF06_CC.jpg","stimuli/WF04_DO.jpg","stimuli/AF11_HO.jpg","stimuli/AF02_SC.jpg","pos2","stimuli/WF04_DO.jpg","DO","WF04","1","5","10","8","stimuli/stars_10.png","293.5","[""CC"",""DO"",""HO"",""SC""]","[""WF06"",""WF04"",""AF11"",""AF02""]","[2,10,8,4]","[2,8,6,4]","","",""
"show-reward","164","923015","0.0-164.0","p310416","A1P47Q6LZPLQ6P","3P888QFVX40Z2B7BK75OWKP045JQOK","3XLBSAQ9Z6I4IHEXGJC01BAY2WXZ7T","model","match","uniform","","","","","","","","922633","924637","","","","","","","","","","","","10","","stimuli/stars_10.png","293.5","","","","","stimuli/WF04_DO.jpg","",""
"explore-choice","165","924298","0.0-165.0","p310416","A1P47Q6LZPLQ6P","3P888QFVX40Z2B7BK75OWKP045JQOK","3XLBSAQ9Z6I4IHEXGJC01BAY2WXZ7T","model","match","uniform","","","","","","","768","924637","925405","[""stimuli/AF02_HO.jpg"",""stimuli/AF11_SC.jpg"",""stimuli/WF06_CC.jpg"",""stimuli/WF04_DO.jpg""]","stimuli/AF02_HO.jpg","stimuli/AF11_SC.jpg","stimuli/WF06_CC.jpg","stimuli/WF04_DO.jpg","pos4","stimuli/WF04_DO.jpg","DO","WF04","3","3","6","8","stimuli/stars_6.png","296.5","[""HO"",""SC"",""CC"",""DO""]","[""AF02"",""AF11"",""WF06"",""WF04""]","[6,8,0,6]","[4,6,2,8]","","",""
"show-reward","166","926301","0.0-166.0","p310416","A1P47Q6LZPLQ6P","3P888QFVX40Z2B7BK75OWKP045JQOK","3XLBSAQ9Z6I4IHEXGJC01BAY2WXZ7T","model","match","uniform","","","","","","","","925922","927922","","","","","","","","","","","","6","","stimuli/stars_6.png","296.5","","","","","stimuli/WF04_DO.jpg","",""
"explore-choice","167","927649","0.0-167.0","p310416","A1P47Q6LZPLQ6P","3P888QFVX40Z2B7BK75OWKP045JQOK","3XLBSAQ9Z6I4IHEXGJC01BAY2WXZ7T","model","match","uniform","","","","","","","837","927923","928760","[""stimuli/WF04_CC.jpg"",""stimuli/AF11_DO.jpg"",""stimuli/AF02_SC.jpg"",""stimuli/WF06_HO.jpg""]","stimuli/WF04_CC.jpg","stimuli/AF11_DO.jpg","stimuli/AF02_SC.jpg","stimuli/WF06_HO.jpg","pos1","stimuli/WF04_CC.jpg","CC","WF04","0","3","6","8","stimuli/stars_6.png","299.5","[""CC"",""DO"",""SC"",""HO""]","[""WF04"",""AF11"",""AF02"",""WF06""]","[6,6,3,0]","[8,6,4,2]","","",""
"show-reward","168","929662","0.0-168.0","p310416","A1P47Q6LZPLQ6P","3P888QFVX40Z2B7BK75OWKP045JQOK","3XLBSAQ9Z6I4IHEXGJC01BAY2WXZ7T","model","match","uniform","","","","","","","","929271","931285","","","","","","","","","","","","6","","stimuli/stars_6.png","299.5","","","","","stimuli/WF04_CC.jpg","",""
"explore-choice","169","931096","0.0-169.0","p310416","A1P47Q6LZPLQ6P","3P888QFVX40Z2B7BK75OWKP045JQOK","3XLBSAQ9Z6I4IHEXGJC01BAY2WXZ7T","model","match","uniform","","","","","","","918","931285","932203","[""stimuli/AF02_CC.jpg"",""stimuli/WF04_HO.jpg"",""stimuli/WF06_DO.jpg"",""stimuli/AF11_SC.jpg""]","stimuli/AF02_CC.jpg","stimuli/WF04_HO.jpg","stimuli/WF06_DO.jpg","stimuli/AF11_SC.jpg","pos2","stimuli/WF04_HO.jpg","HO","WF04","1","4.5","9","8","stimuli/stars_9.png","304","[""CC"",""HO"",""DO"",""SC""]","[""AF02"",""WF04"",""WF06"",""AF11""]","[3,9,1,5]","[4,8,2,6]","","",""
"show-reward","170","933106","0.0-170.0","p310416","A1P47Q6LZPLQ6P","3P888QFVX40Z2B7BK75OWKP045JQOK","3XLBSAQ9Z6I4IHEXGJC01BAY2WXZ7T","model","match","uniform","","","","","","","","932719","934727","","","","","","","","","","","","9","","stimuli/stars_9.png","304","","","","","stimuli/WF04_HO.jpg","",""
"explore-choice","171","934428","0.0-171.0","p310416","A1P47Q6LZPLQ6P","3P888QFVX40Z2B7BK75OWKP045JQOK","3XLBSAQ9Z6I4IHEXGJC01BAY2WXZ7T","model","match","uniform","","","","","","","820","934728","935548","[""stimuli/AF11_DO.jpg"",""stimuli/WF04_HO.jpg"",""stimuli/WF06_SC.jpg"",""stimuli/AF02_CC.jpg""]","stimuli/AF11_DO.jpg","stimuli/WF04_HO.jpg","stimuli/WF06_SC.jpg","stimuli/AF02_CC.jpg","pos2","stimuli/WF04_HO.jpg","HO","WF04","1","3.5","7","8","stimuli/stars_7.png","307.5","[""DO"",""HO"",""SC"",""CC""]","[""AF11"",""WF04"",""WF06"",""AF02""]","[4,7,3,6]","[6,8,2,4]","","",""
"show-reward","172","936442","0.0-172.0","p310416","A1P47Q6LZPLQ6P","3P888QFVX40Z2B7BK75OWKP045JQOK","3XLBSAQ9Z6I4IHEXGJC01BAY2WXZ7T","model","match","uniform","","","","","","","","936050","938063","","","","","","","","","","","","7","","stimuli/stars_7.png","307.5","","","","","stimuli/WF04_HO.jpg","",""
"explore-choice","173","938931","0.0-173.0","p310416","A1P47Q6LZPLQ6P","3P888QFVX40Z2B7BK75OWKP045JQOK","3XLBSAQ9Z6I4IHEXGJC01BAY2WXZ7T","model","match","uniform","","","","","","","1982","938064","940046","[""stimuli/AF11_SC.jpg"",""stimuli/AF02_HO.jpg"",""stimuli/WF06_DO.jpg"",""stimuli/WF04_CC.jpg""]","stimuli/AF11_SC.jpg","stimuli/AF02_HO.jpg","stimuli/WF06_DO.jpg","stimuli/WF04_CC.jpg","pos4","stimuli/WF04_CC.jpg","CC","WF04","3","5","10","8","stimuli/stars_10.png","312.5","[""SC"",""HO"",""DO"",""CC""]","[""AF11"",""AF02"",""WF06"",""WF04""]","[4,4,0,10]","[6,4,2,8]","","",""
"show-reward","174","940940","0.0-174.0","p310416","A1P47Q6LZPLQ6P","3P888QFVX40Z2B7BK75OWKP045JQOK","3XLBSAQ9Z6I4IHEXGJC01BAY2WXZ7T","model","match","uniform","","","","","","","","940554","942562","","","","","","","","","","","","10","","stimuli/stars_10.png","312.5","","","","","stimuli/WF04_CC.jpg","",""
"explore-choice","175","942327","0.0-175.0","p310416","A1P47Q6LZPLQ6P","3P888QFVX40Z2B7BK75OWKP045JQOK","3XLBSAQ9Z6I4IHEXGJC01BAY2WXZ7T","model","match","uniform","","","","","","","884","942562","943446","[""stimuli/WF04_SC.jpg"",""stimuli/AF11_DO.jpg"",""stimuli/WF06_CC.jpg"",""stimuli/AF02_HO.jpg""]","stimuli/WF04_SC.jpg","stimuli/AF11_DO.jpg","stimuli/WF06_CC.jpg","stimuli/AF02_HO.jpg","pos1","stimuli/WF04_SC.jpg","SC","WF04","0","4","8","8","stimuli/stars_8.png","316.5","[""SC"",""DO"",""CC"",""HO""]","[""WF04"",""AF11"",""WF06"",""AF02""]","[8,5,0,3]","[8,6,2,4]","","",""
"show-reward","176","944344","0.0-176.0","p310416","A1P47Q6LZPLQ6P","3P888QFVX40Z2B7BK75OWKP045JQOK","3XLBSAQ9Z6I4IHEXGJC01BAY2WXZ7T","model","match","uniform","","","","","","","","943951","945965","","","","","","","","","","","","8","","stimuli/stars_8.png","316.5","","","","","stimuli/WF04_SC.jpg","",""
"explore-choice","177","945498","0.0-177.0","p310416","A1P47Q6LZPLQ6P","3P888QFVX40Z2B7BK75OWKP045JQOK","3XLBSAQ9Z6I4IHEXGJC01BAY2WXZ7T","model","match","uniform","","","","","","","647","945966","946613","[""stimuli/WF04_CC.jpg"",""stimuli/AF02_DO.jpg"",""stimuli/WF06_SC.jpg"",""stimuli/AF11_HO.jpg""]","stimuli/WF04_CC.jpg","stimuli/AF02_DO.jpg","stimuli/WF06_SC.jpg","stimuli/AF11_HO.jpg","pos1","stimuli/WF04_CC.jpg","CC","WF04","0","5","10","8","stimuli/stars_10.png","321.5","[""CC"",""DO"",""SC"",""HO""]","[""WF04"",""AF02"",""WF06"",""AF11""]","[10,5,3,8]","[8,4,2,6]","","",""
"show-reward","178","947511","0.0-178.0","p310416","A1P47Q6LZPLQ6P","3P888QFVX40Z2B7BK75OWKP045JQOK","3XLBSAQ9Z6I4IHEXGJC01BAY2WXZ7T","model","match","uniform","","","","","","","","947121","949132","","","","","","","","","","","","10","","stimuli/stars_10.png","321.5","","","","","stimuli/WF04_CC.jpg","",""
"explore-choice","179","950510","0.0-179.0","p310416","A1P47Q6LZPLQ6P","3P888QFVX40Z2B7BK75OWKP045JQOK","3XLBSAQ9Z6I4IHEXGJC01BAY2WXZ7T","model","match","uniform","","","","","","","2488","949133","951621","[""stimuli/WF04_HO.jpg"",""stimuli/AF11_CC.jpg"",""stimuli/AF02_DO.jpg"",""stimuli/WF06_SC.jpg""]","stimuli/WF04_HO.jpg","stimuli/AF11_CC.jpg","stimuli/AF02_DO.jpg","stimuli/WF06_SC.jpg","pos1","stimuli/WF04_HO.jpg","HO","WF04","0","3.5","7","8","stimuli/stars_7.png","325","[""HO"",""CC"",""DO"",""SC""]","[""WF04"",""AF11"",""AF02"",""WF06""]","[7,5,3,0]","[8,6,4,2]","","",""
"show-reward","180","952519","0.0-180.0","p310416","A1P47Q6LZPLQ6P","3P888QFVX40Z2B7BK75OWKP045JQOK","3XLBSAQ9Z6I4IHEXGJC01BAY2WXZ7T","model","match","uniform","","","","","","","","952132","954141","","","","","","","","","","","","7","","stimuli/stars_7.png","325","","","","","stimuli/WF04_HO.jpg","",""
"explore-choice","181","954512","0.0-181.0","p310416","A1P47Q6LZPLQ6P","3P888QFVX40Z2B7BK75OWKP045JQOK","3XLBSAQ9Z6I4IHEXGJC01BAY2WXZ7T","model","match","uniform","","","","","","","1481","954142","955623","[""stimuli/WF04_DO.jpg"",""stimuli/WF06_SC.jpg"",""stimuli/AF11_CC.jpg"",""stimuli/AF02_HO.jpg""]","stimuli/WF04_DO.jpg","stimuli/WF06_SC.jpg","stimuli/AF11_CC.jpg","stimuli/AF02_HO.jpg","pos1","stimuli/WF04_DO.jpg","DO","WF04","0","5","10","8","stimuli/stars_10.png","330","[""DO"",""SC"",""CC"",""HO""]","[""WF04"",""WF06"",""AF11"",""AF02""]","[10,2,6,3]","[8,2,6,4]","","",""
"show-reward","182","956523","0.0-182.0","p310416","A1P47Q6LZPLQ6P","3P888QFVX40Z2B7BK75OWKP045JQOK","3XLBSAQ9Z6I4IHEXGJC01BAY2WXZ7T","model","match","uniform","","","","","","","","956135","958146","","","","","","","","","","","","10","","stimuli/stars_10.png","330","","","","","stimuli/WF04_DO.jpg","",""
"explore-choice","183","959376","0.0-183.0","p310416","A1P47Q6LZPLQ6P","3P888QFVX40Z2B7BK75OWKP045JQOK","3XLBSAQ9Z6I4IHEXGJC01BAY2WXZ7T","model","match","uniform","","","","","","","2337","958147","960484","[""stimuli/WF06_HO.jpg"",""stimuli/AF02_SC.jpg"",""stimuli/AF11_CC.jpg"",""stimuli/WF04_DO.jpg""]","stimuli/WF06_HO.jpg","stimuli/AF02_SC.jpg","stimuli/AF11_CC.jpg","stimuli/WF04_DO.jpg","pos4","stimuli/WF04_DO.jpg","DO","WF04","3","4.5","9","8","stimuli/stars_9.png","334.5","[""HO"",""SC"",""CC"",""DO""]","[""WF06"",""AF02"",""AF11"",""WF04""]","[1,2,6,9]","[2,4,6,8]","","",""
"show-reward","184","961381","0.0-184.0","p310416","A1P47Q6LZPLQ6P","3P888QFVX40Z2B7BK75OWKP045JQOK","3XLBSAQ9Z6I4IHEXGJC01BAY2WXZ7T","model","match","uniform","","","","","","","","960998","963004","","","","","","","","","","","","9","","stimuli/stars_9.png","334.5","","","","","stimuli/WF04_DO.jpg","",""
"explore-choice","185","962863","0.0-185.0","p310416","A1P47Q6LZPLQ6P","3P888QFVX40Z2B7BK75OWKP045JQOK","3XLBSAQ9Z6I4IHEXGJC01BAY2WXZ7T","model","match","uniform","","","","","","","967","963004","963971","[""stimuli/AF02_SC.jpg"",""stimuli/WF06_DO.jpg"",""stimuli/AF11_CC.jpg"",""stimuli/WF04_HO.jpg""]","stimuli/AF02_SC.jpg","stimuli/WF06_DO.jpg","stimuli/AF11_CC.jpg","stimuli/WF04_HO.jpg","pos4","stimuli/WF04_HO.jpg","HO","WF04","3","5","10","8","stimuli/stars_10.png","339.5","[""SC"",""DO"",""CC"",""HO""]","[""AF02"",""WF06"",""AF11"",""WF04""]","[6,4,7,10]","[4,2,6,8]","","",""
"show-reward","186","964877","0.0-186.0","p310416","A1P47Q6LZPLQ6P","3P888QFVX40Z2B7BK75OWKP045JQOK","3XLBSAQ9Z6I4IHEXGJC01BAY2WXZ7T","model","match","uniform","","","","","","","","964486","966497","","","","","","","","","","","","10","","stimuli/stars_10.png","339.5","","","","","stimuli/WF04_HO.jpg","",""
"explore-choice","187","966279","0.0-187.0","p310416","A1P47Q6LZPLQ6P","3P888QFVX40Z2B7BK75OWKP045JQOK","3XLBSAQ9Z6I4IHEXGJC01BAY2WXZ7T","model","match","uniform","","","","","","","892","966498","967390","[""stimuli/WF04_DO.jpg"",""stimuli/AF02_CC.jpg"",""stimuli/WF06_HO.jpg"",""stimuli/AF11_SC.jpg""]","stimuli/WF04_DO.jpg","stimuli/AF02_CC.jpg","stimuli/WF06_HO.jpg","stimuli/AF11_SC.jpg","pos1","stimuli/WF04_DO.jpg","DO","WF04","0","4.5","9","8","stimuli/stars_9.png","344","[""DO"",""CC"",""HO"",""SC""]","[""WF04"",""AF02"",""WF06"",""AF11""]","[9,5,0,4]","[8,4,2,6]","","",""
"show-reward","188","968285","0.0-188.0","p310416","A1P47Q6LZPLQ6P","3P888QFVX40Z2B7BK75OWKP045JQOK","3XLBSAQ9Z6I4IHEXGJC01BAY2WXZ7T","model","match","uniform","","","","","","","","967901","969907","","","","","","","","","","","","9","","stimuli/stars_9.png","344","","","","","stimuli/WF04_DO.jpg","",""
"explore-choice","189","969920","0.0-189.0","p310416","A1P47Q6LZPLQ6P","3P888QFVX40Z2B7BK75OWKP045JQOK","3XLBSAQ9Z6I4IHEXGJC01BAY2WXZ7T","model","match","uniform","","","","","","","1130","969908","971038","[""stimuli/AF11_CC.jpg"",""stimuli/WF04_SC.jpg"",""stimuli/AF02_DO.jpg"",""stimuli/WF06_HO.jpg""]","stimuli/AF11_CC.jpg","stimuli/WF04_SC.jpg","stimuli/AF02_DO.jpg","stimuli/WF06_HO.jpg","pos2","stimuli/WF04_SC.jpg","SC","WF04","1","3.5","7","8","stimuli/stars_7.png","347.5","[""CC"",""SC"",""DO"",""HO""]","[""AF11"",""WF04"",""AF02"",""WF06""]","[6,7,6,1]","[6,8,4,2]","","",""
"show-reward","190","971929","0.0-190.0","p310416","A1P47Q6LZPLQ6P","3P888QFVX40Z2B7BK75OWKP045JQOK","3XLBSAQ9Z6I4IHEXGJC01BAY2WXZ7T","model","match","uniform","","","","","","","","971542","973550","","","","","","","","","","","","7","","stimuli/stars_7.png","347.5","","","","","stimuli/WF04_SC.jpg","",""
"explore-choice","191","977264","0.0-191.0","p310416","A1P47Q6LZPLQ6P","3P888QFVX40Z2B7BK75OWKP045JQOK","3XLBSAQ9Z6I4IHEXGJC01BAY2WXZ7T","model","match","uniform","","","","","","","4823","973551","978374","[""stimuli/WF04_SC.jpg"",""stimuli/WF06_DO.jpg"",""stimuli/AF11_CC.jpg"",""stimuli/AF02_HO.jpg""]","stimuli/WF04_SC.jpg","stimuli/WF06_DO.jpg","stimuli/AF11_CC.jpg","stimuli/AF02_HO.jpg","pos1","stimuli/WF04_SC.jpg","SC","WF04","0","5","10","8","stimuli/stars_10.png","352.5","[""SC"",""DO"",""CC"",""HO""]","[""WF04"",""WF06"",""AF11"",""AF02""]","[10,3,4,5]","[8,2,6,4]","","",""
"show-reward","192","979278","0.0-192.0","p310416","A1P47Q6LZPLQ6P","3P888QFVX40Z2B7BK75OWKP045JQOK","3XLBSAQ9Z6I4IHEXGJC01BAY2WXZ7T","model","match","uniform","","","","","","","","978886","980900","","","","","","","","","","","","10","","stimuli/stars_10.png","352.5","","","","","stimuli/WF04_SC.jpg","",""
"explore-choice","193","980711","0.0-193.0","p310416","A1P47Q6LZPLQ6P","3P888QFVX40Z2B7BK75OWKP045JQOK","3XLBSAQ9Z6I4IHEXGJC01BAY2WXZ7T","model","match","uniform","","","","","","","923","980901","981824","[""stimuli/AF11_HO.jpg"",""stimuli/WF04_SC.jpg"",""stimuli/AF02_DO.jpg"",""stimuli/WF06_CC.jpg""]","stimuli/AF11_HO.jpg","stimuli/WF04_SC.jpg","stimuli/AF02_DO.jpg","stimuli/WF06_CC.jpg","pos2","stimuli/WF04_SC.jpg","SC","WF04","1","3.5","7","8","stimuli/stars_7.png","356","[""HO"",""SC"",""DO"",""CC""]","[""AF11"",""WF04"",""AF02"",""WF06""]","[6,7,2,2]","[6,8,4,2]","","",""
"show-reward","194","982716","0.0-194.0","p310416","A1P47Q6LZPLQ6P","3P888QFVX40Z2B7BK75OWKP045JQOK","3XLBSAQ9Z6I4IHEXGJC01BAY2WXZ7T","model","match","uniform","","","","","","","","982334","984338","","","","","","","","","","","","7","","stimuli/stars_7.png","356","","","","","stimuli/WF04_SC.jpg","",""
"explore-choice","195","983919","0.0-195.0","p310416","A1P47Q6LZPLQ6P","3P888QFVX40Z2B7BK75OWKP045JQOK","3XLBSAQ9Z6I4IHEXGJC01BAY2WXZ7T","model","match","uniform","","","","","","","698","984338","985036","[""stimuli/AF11_DO.jpg"",""stimuli/WF04_HO.jpg"",""stimuli/WF06_CC.jpg"",""stimuli/AF02_SC.jpg""]","stimuli/AF11_DO.jpg","stimuli/WF04_HO.jpg","stimuli/WF06_CC.jpg","stimuli/AF02_SC.jpg","pos2","stimuli/WF04_HO.jpg","HO","WF04","1","5","10","8","stimuli/stars_10.png","361","[""DO"",""HO"",""CC"",""SC""]","[""AF11"",""WF04"",""WF06"",""AF02""]","[5,10,0,3]","[6,8,2,4]","","",""
"show-reward","196","985933","0.0-196.0","p310416","A1P47Q6LZPLQ6P","3P888QFVX40Z2B7BK75OWKP045JQOK","3XLBSAQ9Z6I4IHEXGJC01BAY2WXZ7T","model","match","uniform","","","","","","","","985542","987554","","","","","","","","","","","","10","","stimuli/stars_10.png","361","","","","","stimuli/WF04_HO.jpg","",""
"explore-choice","197","987126","0.0-197.0","p310416","A1P47Q6LZPLQ6P","3P888QFVX40Z2B7BK75OWKP045JQOK","3XLBSAQ9Z6I4IHEXGJC01BAY2WXZ7T","model","match","uniform","","","","","","","682","987555","988237","[""stimuli/AF02_CC.jpg"",""stimuli/WF04_SC.jpg"",""stimuli/AF11_HO.jpg"",""stimuli/WF06_DO.jpg""]","stimuli/AF02_CC.jpg","stimuli/WF04_SC.jpg","stimuli/AF11_HO.jpg","stimuli/WF06_DO.jpg","pos2","stimuli/WF04_SC.jpg","SC","WF04","1","3.5","7","8","stimuli/stars_7.png","364.5","[""CC"",""SC"",""HO"",""DO""]","[""AF02"",""WF04"",""AF11"",""WF06""]","[5,7,5,1]","[4,8,6,2]","","",""
"show-reward","198","989139","0.0-198.0","p310416","A1P47Q6LZPLQ6P","3P888QFVX40Z2B7BK75OWKP045JQOK","3XLBSAQ9Z6I4IHEXGJC01BAY2WXZ7T","model","match","uniform","","","","","","","","988748","990760","","","","","","","","","","","","7","","stimuli/stars_7.png","364.5","","","","","stimuli/WF04_SC.jpg","",""
"instructions","199","991159","0.0-199.0","p310416","A1P47Q6LZPLQ6P","3P888QFVX40Z2B7BK75OWKP045JQOK","3XLBSAQ9Z6I4IHEXGJC01BAY2WXZ7T","model","match","uniform","","","","","","[{""page_index"":0,""viewing_time"":2019}]","2019","","","","","","","","","","","","","","","","","","","","","","","",""
"survey-text","200","993225","0.0-200.0-0.0","p310416","A1P47Q6LZPLQ6P","3P888QFVX40Z2B7BK75OWKP045JQOK","3XLBSAQ9Z6I4IHEXGJC01BAY2WXZ7T","model","match","uniform","","","","","","","2060","","","","","","","","","","","","","","","","","","","","","","","{""age"":""32""}",""
"survey-text","201","996641","0.0-200.0-1.0","p310416","A1P47Q6LZPLQ6P","3P888QFVX40Z2B7BK75OWKP045JQOK","3XLBSAQ9Z6I4IHEXGJC01BAY2WXZ7T","model","match","uniform","","","","","","","3413","","","","","","","","","","","","","","","","","","","","","","","{""gender"":""Male""}",""
"survey-text","202","1010209","0.0-200.0-2.0","p310416","A1P47Q6LZPLQ6P","3P888QFVX40Z2B7BK75OWKP045JQOK","3XLBSAQ9Z6I4IHEXGJC01BAY2WXZ7T","model","match","uniform","","","","","","","13564","","","","","","","","","","","","","","","","","","","","","","","{""country"":""United States""}",""
"survey-text","203","1014299","0.0-200.0-3.0","p310416","A1P47Q6LZPLQ6P","3P888QFVX40Z2B7BK75OWKP045JQOK","3XLBSAQ9Z6I4IHEXGJC01BAY2WXZ7T","model","match","uniform","","","","","","","4087","","","","","","","","","","","","","","","","","","","","","","","{""language"":""English"",""other_languages"":""NA""}",""
"survey-multi-select","204","1016363","0.0-201.0","p310416","A1P47Q6LZPLQ6P","3P888QFVX40Z2B7BK75OWKP045JQOK","3XLBSAQ9Z6I4IHEXGJC01BAY2WXZ7T","model","match","uniform","","","","","","","2062","","","","","","","","","","","","","","","","","","","","","","","{""race"":[""White""]}","[0]"
"survey-multi-choice","205","1018566","0.0-202.0","p310416","A1P47Q6LZPLQ6P","3P888QFVX40Z2B7BK75OWKP045JQOK","3XLBSAQ9Z6I4IHEXGJC01BAY2WXZ7T","model","match","uniform","","","","","","","2201","","","","","","","","","","","","","","","","","","","","","","","{""education"":""Bachelor's degree""}","[0]"
"survey-text","206","1063471","0.0-203.0","p310416","A1P47Q6LZPLQ6P","3P888QFVX40Z2B7BK75OWKP045JQOK","3XLBSAQ9Z6I4IHEXGJC01BAY2WXZ7T","model","match","uniform","","","","","","","44897","","","","","","","","","","","","","","","","","","","","","","","{""patterns"":""I thought the female was best in round 1, had to scramble when all faces became female."",""strategy"":""Stuck with face that gave 6-10 consistently."",""comments"":""""}",""
