"trial_type","trial_index","time_elapsed","internal_node_id","subject","workerId","hitId","assignmentId","structure_condition","match_condition","noise_type","success","timeout","failed_images","failed_audio","failed_video","view_history","rt","start_time","end_time","stimuli","image1","image2","image3","image4","choiceLocation","choiceImage","choiceEmotion","choiceModel","choice_index","reward_score","reward","reward_score_unadjusted","reward_image","score_after_trial","emotions","models","rewards","rewards_unadjusted","stimulus","response","question_order"
"pavlovia","0","11","0.0-0.0","p438661","A272X64FOZFYLB","336OE47KI3QZCSCUXSQ8J11UOZXVWV","32N49TQG3IO5SZ7LMPZHQWZSFSNVA4","model","match","uniform","","","","","","","","","","","","","","","","","","","","","","","","","","","","","","",""
"preload","1","24871","0.0-1.0","p438661","A272X64FOZFYLB","336OE47KI3QZCSCUXSQ8J11UOZXVWV","32N49TQG3IO5SZ7LMPZHQWZSFSNVA4","model","match","uniform","true","false","[]","[]","[]","","","","","","","","","","","","","","","","","","","","","","","","","",""
"fullscreen","2","55174","0.0-2.0","p438661","A272X64FOZFYLB","336OE47KI3QZCSCUXSQ8J11UOZXVWV","32N49TQG3IO5SZ7LMPZHQWZSFSNVA4","model","match","uniform","true","","","","","","","","","","","","","","","","","","","","","","","","","","","","","",""
"instructions","3","58966","0.0-3.0","p438661","A272X64FOZFYLB","336OE47KI3QZCSCUXSQ8J11UOZXVWV","32N49TQG3IO5SZ7LMPZHQWZSFSNVA4","model","match","uniform","","","","","","[{""page_index"":0,""viewing_time"":3790.9000000003725}]","3791.300000000745","","","","","","","","","","","","","","","","","","","","","","","",""
"explore-choice","4","62297","0.0-4.0","p438661","A272X64FOZFYLB","336OE47KI3QZCSCUXSQ8J11UOZXVWV","32N49TQG3IO5SZ7LMPZHQWZSFSNVA4","model","match","uniform","","","","","","","2829","60325.300000000745","63154.300000000745","[""stimuli/sheep.jpg"",""stimuli/hammer.jpg"",""stimuli/basketball.jpg"",""stimuli/horse.jpg""]","stimuli/sheep.jpg","stimuli/hammer.jpg","stimuli/basketball.jpg","stimuli/horse.jpg","pos4","stimuli/horse.jpg","","","3","64","64","64","stimuli/stars_8.png","65","","","","","","",""
"explore-choice","5","64840","0.0-5.0","p438661","A272X64FOZFYLB","336OE47KI3QZCSCUXSQ8J11UOZXVWV","32N49TQG3IO5SZ7LMPZHQWZSFSNVA4","model","match","uniform","","","","","","","2041","63656.40000000037","65697.40000000037","[""stimuli/hammer.jpg"",""stimuli/basketball.jpg"",""stimuli/horse.jpg"",""stimuli/sheep.jpg""]","stimuli/hammer.jpg","stimuli/basketball.jpg","stimuli/horse.jpg","stimuli/sheep.jpg","pos1","stimuli/hammer.jpg","","","0","8","8","8","stimuli/stars_2.png","9","","","","","","",""
"instructions","6","78870","0.0-6.0","p438661","A272X64FOZFYLB","336OE47KI3QZCSCUXSQ8J11UOZXVWV","32N49TQG3IO5SZ7LMPZHQWZSFSNVA4","model","match","uniform","","","","","","[{""page_index"":0,""viewing_time"":14030}]","14030.300000000745","","","","","","","","","","","","","","","","","","","","","","","",""
"explore-choice","7","82187","0.0-7.0","p438661","A272X64FOZFYLB","336OE47KI3QZCSCUXSQ8J11UOZXVWV","32N49TQG3IO5SZ7LMPZHQWZSFSNVA4","model","match","uniform","","","","","","","2815.4000000003725","80230","83045.40000000037","[""stimuli/AM05_HO.jpg"",""stimuli/AF11_HE.jpg"",""stimuli/WM07_CC.jpg"",""stimuli/AF09_SUR.jpg""]","stimuli/AM05_HO.jpg","stimuli/AF11_HE.jpg","stimuli/WM07_CC.jpg","stimuli/AF09_SUR.jpg","pos1","stimuli/AM05_HO.jpg","HO","AM05","0","2.5","5","6","stimuli/stars_5.png","3.5","[""HO"",""HE"",""CC"",""SUR""]","[""AM05"",""AF11"",""WM07"",""AF09""]","[5,6,4,0]","[6,8,4,2]","","",""
"show-reward","8","84203","0.0-8.0","p438661","A272X64FOZFYLB","336OE47KI3QZCSCUXSQ8J11UOZXVWV","32N49TQG3IO5SZ7LMPZHQWZSFSNVA4","model","match","uniform","","","","","","","","83546.90000000037","85561.5","","","","","","","","","","","","5","","stimuli/stars_5.png","3.5","","","","","stimuli/AM05_HO.jpg","",""
"explore-choice","9","86956","0.0-9.0","p438661","A272X64FOZFYLB","336OE47KI3QZCSCUXSQ8J11UOZXVWV","32N49TQG3IO5SZ7LMPZHQWZSFSNVA4","model","match","uniform","","","","","","","2250.9000000003725","85562.40000000037","87813.30000000075","[""stimuli/AF11_CC.jpg"",""stimuli/AM05_HO.jpg"",""stimuli/AF09_HE.jpg"",""stimuli/WM07_SUR.jpg""]","stimuli/AF11_CC.jpg","stimuli/AM05_HO.jpg","stimuli/AF09_HE.jpg","stimuli/WM07_SUR.jpg","pos4","stimuli/WM07_SUR.jpg","SUR","WM07","3","1","2","4","stimuli/stars_2.png","4.5","[""CC"",""HO"",""HE"",""SUR""]","[""AF11"",""AM05"",""AF09"",""WM07""]","[9,6,4,2]","[8,6,2,4]","","",""
"show-reward","10","88960","0.0-10.0","p438661","A272X64FOZFYLB","336OE47KI3QZCSCUXSQ8J11UOZXVWV","32N49TQG3IO5SZ7LMPZHQWZSFSNVA4","model","match","uniform","","","","","","","","88315.80000000075","90318.20000000112","","","","","","","","","","","","2","","stimuli/stars_2.png","4.5","","","","","stimuli/WM07_SUR.jpg","",""
"explore-choice","11","90654","0.0-11.0","p438661","A272X64FOZFYLB","336OE47KI3QZCSCUXSQ8J11UOZXVWV","32N49TQG3IO5SZ7LMPZHQWZSFSNVA4","model","match","uniform","","","","","","","1193.0999999996275","90319.30000000075","91512.40000000037","[""stimuli/WM07_HO.jpg"",""stimuli/AF09_CC.jpg"",""stimuli/AM05_HE.jpg"",""stimuli/AF11_SUR.jpg""]","stimuli/WM07_HO.jpg","stimuli/AF09_CC.jpg","stimuli/AM05_HE.jpg","stimuli/AF11_SUR.jpg","pos1","stimuli/WM07_HO.jpg","HO","WM07","0","2","4","4","stimuli/stars_4.png","6.5","[""HO"",""CC"",""HE"",""SUR""]","[""WM07"",""AF09"",""AM05"",""AF11""]","[4,3,6,10]","[4,2,6,8]","","",""
"show-reward","12","92656","0.0-12.0","p438661","A272X64FOZFYLB","336OE47KI3QZCSCUXSQ8J11UOZXVWV","32N49TQG3IO5SZ7LMPZHQWZSFSNVA4","model","match","uniform","","","","","","","","92013.70000000112","94015.20000000112","","","","","","","","","","","","4","","stimuli/stars_4.png","6.5","","","","","stimuli/WM07_HO.jpg","",""
"explore-choice","13","95775","0.0-13.0","p438661","A272X64FOZFYLB","336OE47KI3QZCSCUXSQ8J11UOZXVWV","32N49TQG3IO5SZ7LMPZHQWZSFSNVA4","model","match","uniform","","","","","","","2617.0999999996275","94015.90000000037","96633","[""stimuli/AF09_HE.jpg"",""stimuli/AF11_HO.jpg"",""stimuli/WM07_SUR.jpg"",""stimuli/AM05_CC.jpg""]","stimuli/AF09_HE.jpg","stimuli/AF11_HO.jpg","stimuli/WM07_SUR.jpg","stimuli/AM05_CC.jpg","pos4","stimuli/AM05_CC.jpg","CC","AM05","3","3.5","7","6","stimuli/stars_7.png","10","[""HE"",""HO"",""SUR"",""CC""]","[""AF09"",""AF11"",""WM07"",""AM05""]","[4,6,5,7]","[2,8,4,6]","","",""
"show-reward","14","97778","0.0-14.0","p438661","A272X64FOZFYLB","336OE47KI3QZCSCUXSQ8J11UOZXVWV","32N49TQG3IO5SZ7LMPZHQWZSFSNVA4","model","match","uniform","","","","","","","","97134.5","99137.09999999963","","","","","","","","","","","","7","","stimuli/stars_7.png","10","","","","","stimuli/AM05_CC.jpg","",""
"explore-choice","15","99759","0.0-15.0","p438661","A272X64FOZFYLB","336OE47KI3QZCSCUXSQ8J11UOZXVWV","32N49TQG3IO5SZ7LMPZHQWZSFSNVA4","model","match","uniform","","","","","","","1479.699999999255","99137.90000000037","100617.59999999963","[""stimuli/AM05_HO.jpg"",""stimuli/WM07_HE.jpg"",""stimuli/AF11_CC.jpg"",""stimuli/AF09_SUR.jpg""]","stimuli/AM05_HO.jpg","stimuli/WM07_HE.jpg","stimuli/AF11_CC.jpg","stimuli/AF09_SUR.jpg","pos3","stimuli/AF11_CC.jpg","CC","AF11","2","3.5","7","8","stimuli/stars_7.png","13.5","[""HO"",""HE"",""CC"",""SUR""]","[""AM05"",""WM07"",""AF11"",""AF09""]","[5,4,7,3]","[6,4,8,2]","","",""
"show-reward","16","101762","0.0-16.0","p438661","A272X64FOZFYLB","336OE47KI3QZCSCUXSQ8J11UOZXVWV","32N49TQG3IO5SZ7LMPZHQWZSFSNVA4","model","match","uniform","","","","","","","","101118.30000000075","103121.09999999963","","","","","","","","","","","","7","","stimuli/stars_7.png","13.5","","","","","stimuli/AF11_CC.jpg","",""
"explore-choice","17","104031","0.0-17.0","p438661","A272X64FOZFYLB","336OE47KI3QZCSCUXSQ8J11UOZXVWV","32N49TQG3IO5SZ7LMPZHQWZSFSNVA4","model","match","uniform","","","","","","","1767.199999999255","103121.80000000075","104889","[""stimuli/WM07_HO.jpg"",""stimuli/AM05_SUR.jpg"",""stimuli/AF11_CC.jpg"",""stimuli/AF09_HE.jpg""]","stimuli/WM07_HO.jpg","stimuli/AM05_SUR.jpg","stimuli/AF11_CC.jpg","stimuli/AF09_HE.jpg","pos4","stimuli/AF09_HE.jpg","HE","AF09","3","1","2","2","stimuli/stars_2.png","14.5","[""HO"",""SUR"",""CC"",""HE""]","[""WM07"",""AM05"",""AF11"",""AF09""]","[6,6,9,2]","[4,6,8,2]","","",""
"show-reward","18","106034","0.0-18.0","p438661","A272X64FOZFYLB","336OE47KI3QZCSCUXSQ8J11UOZXVWV","32N49TQG3IO5SZ7LMPZHQWZSFSNVA4","model","match","uniform","","","","","","","","105390.30000000075","107392.40000000037","","","","","","","","","","","","2","","stimuli/stars_2.png","14.5","","","","","stimuli/AF09_HE.jpg","",""
"explore-choice","19","108735","0.0-19.0","p438661","A272X64FOZFYLB","336OE47KI3QZCSCUXSQ8J11UOZXVWV","32N49TQG3IO5SZ7LMPZHQWZSFSNVA4","model","match","uniform","","","","","","","2200.0999999996275","107393","109593.09999999963","[""stimuli/WM07_SUR.jpg"",""stimuli/AM05_HE.jpg"",""stimuli/AF09_CC.jpg"",""stimuli/AF11_HO.jpg""]","stimuli/WM07_SUR.jpg","stimuli/AM05_HE.jpg","stimuli/AF09_CC.jpg","stimuli/AF11_HO.jpg","pos3","stimuli/AF09_CC.jpg","CC","AF09","2","0","0","2","stimuli/stars_0.png","14.5","[""SUR"",""HE"",""CC"",""HO""]","[""WM07"",""AM05"",""AF09"",""AF11""]","[6,4,0,8]","[4,6,2,8]","","",""
"show-reward","20","110739","0.0-20.0","p438661","A272X64FOZFYLB","336OE47KI3QZCSCUXSQ8J11UOZXVWV","32N49TQG3IO5SZ7LMPZHQWZSFSNVA4","model","match","uniform","","","","","","","","110095.5","112098","","","","","","","","","","","","0","","stimuli/stars_0.png","14.5","","","","","stimuli/AF09_CC.jpg","",""
"explore-choice","21","112599","0.0-21.0","p438661","A272X64FOZFYLB","336OE47KI3QZCSCUXSQ8J11UOZXVWV","32N49TQG3IO5SZ7LMPZHQWZSFSNVA4","model","match","uniform","","","","","","","1358.2999999988824","112098.80000000075","113457.09999999963","[""stimuli/WM07_HE.jpg"",""stimuli/AF11_HO.jpg"",""stimuli/AF09_SUR.jpg"",""stimuli/AM05_CC.jpg""]","stimuli/WM07_HE.jpg","stimuli/AF11_HO.jpg","stimuli/AF09_SUR.jpg","stimuli/AM05_CC.jpg","pos4","stimuli/AM05_CC.jpg","CC","AM05","3","2","4","6","stimuli/stars_4.png","16.5","[""HE"",""HO"",""SUR"",""CC""]","[""WM07"",""AF11"",""AF09"",""AM05""]","[6,8,0,4]","[4,8,2,6]","","",""
"show-reward","22","114602","0.0-22.0","p438661","A272X64FOZFYLB","336OE47KI3QZCSCUXSQ8J11UOZXVWV","32N49TQG3IO5SZ7LMPZHQWZSFSNVA4","model","match","uniform","","","","","","","","113958.90000000037","115960.90000000037","","","","","","","","","","","","4","","stimuli/stars_4.png","16.5","","","","","stimuli/AM05_CC.jpg","",""
"explore-choice","23","117095","0.0-23.0","p438661","A272X64FOZFYLB","336OE47KI3QZCSCUXSQ8J11UOZXVWV","32N49TQG3IO5SZ7LMPZHQWZSFSNVA4","model","match","uniform","","","","","","","1991.7000000011176","115961.5","117953.20000000112","[""stimuli/AM05_CC.jpg"",""stimuli/AF09_HO.jpg"",""stimuli/WM07_SUR.jpg"",""stimuli/AF11_HE.jpg""]","stimuli/AM05_CC.jpg","stimuli/AF09_HO.jpg","stimuli/WM07_SUR.jpg","stimuli/AF11_HE.jpg","pos4","stimuli/AF11_HE.jpg","HE","AF11","3","5","10","8","stimuli/stars_10.png","21.5","[""CC"",""HO"",""SUR"",""HE""]","[""AM05"",""AF09"",""WM07"",""AF11""]","[4,0,2,10]","[6,2,4,8]","","",""
"show-reward","24","119097","0.0-24.0","p438661","A272X64FOZFYLB","336OE47KI3QZCSCUXSQ8J11UOZXVWV","32N49TQG3IO5SZ7LMPZHQWZSFSNVA4","model","match","uniform","","","","","","","","118454.90000000037","120456","","","","","","","","","","","","10","","stimuli/stars_10.png","21.5","","","","","stimuli/AF11_HE.jpg","",""
"explore-choice","25","121423","0.0-25.0","p438661","A272X64FOZFYLB","336OE47KI3QZCSCUXSQ8J11UOZXVWV","32N49TQG3IO5SZ7LMPZHQWZSFSNVA4","model","match","uniform","","","","","","","1824.0999999996275","120456.70000000112","122280.80000000075","[""stimuli/AM05_HO.jpg"",""stimuli/AF11_SUR.jpg"",""stimuli/AF09_HE.jpg"",""stimuli/WM07_CC.jpg""]","stimuli/AM05_HO.jpg","stimuli/AF11_SUR.jpg","stimuli/AF09_HE.jpg","stimuli/WM07_CC.jpg","pos1","stimuli/AM05_HO.jpg","HO","AM05","0","2","4","6","stimuli/stars_4.png","23.5","[""HO"",""SUR"",""HE"",""CC""]","[""AM05"",""AF11"",""AF09"",""WM07""]","[4,9,3,4]","[6,8,2,4]","","",""
"show-reward","26","123426","0.0-26.0","p438661","A272X64FOZFYLB","336OE47KI3QZCSCUXSQ8J11UOZXVWV","32N49TQG3IO5SZ7LMPZHQWZSFSNVA4","model","match","uniform","","","","","","","","122782.30000000075","124784.59999999963","","","","","","","","","","","","4","","stimuli/stars_4.png","23.5","","","","","stimuli/AM05_HO.jpg","",""
"explore-choice","27","124975","0.0-27.0","p438661","A272X64FOZFYLB","336OE47KI3QZCSCUXSQ8J11UOZXVWV","32N49TQG3IO5SZ7LMPZHQWZSFSNVA4","model","match","uniform","","","","","","","1035.699999999255","124785.30000000075","125821","[""stimuli/AM05_SUR.jpg"",""stimuli/AF09_CC.jpg"",""stimuli/WM07_HO.jpg"",""stimuli/AF11_HE.jpg""]","stimuli/AM05_SUR.jpg","stimuli/AF09_CC.jpg","stimuli/WM07_HO.jpg","stimuli/AF11_HE.jpg","pos1","stimuli/AM05_SUR.jpg","SUR","AM05","0","2","4","6","stimuli/stars_4.png","25.5","[""SUR"",""CC"",""HO"",""HE""]","[""AM05"",""AF09"",""WM07"",""AF11""]","[4,2,2,10]","[6,2,4,8]","","",""
"show-reward","28","126977","0.0-28.0","p438661","A272X64FOZFYLB","336OE47KI3QZCSCUXSQ8J11UOZXVWV","32N49TQG3IO5SZ7LMPZHQWZSFSNVA4","model","match","uniform","","","","","","","","126334.70000000112","128336.09999999963","","","","","","","","","","","","4","","stimuli/stars_4.png","25.5","","","","","stimuli/AM05_SUR.jpg","",""
"explore-choice","29","128859","0.0-29.0","p438661","A272X64FOZFYLB","336OE47KI3QZCSCUXSQ8J11UOZXVWV","32N49TQG3IO5SZ7LMPZHQWZSFSNVA4","model","match","uniform","","","","","","","1380.2999999988824","128336.70000000112","129717","[""stimuli/AF11_SUR.jpg"",""stimuli/AM05_CC.jpg"",""stimuli/AF09_HE.jpg"",""stimuli/WM07_HO.jpg""]","stimuli/AF11_SUR.jpg","stimuli/AM05_CC.jpg","stimuli/AF09_HE.jpg","stimuli/WM07_HO.jpg","pos1","stimuli/AF11_SUR.jpg","SUR","AF11","0","4","8","8","stimuli/stars_8.png","29.5","[""SUR"",""CC"",""HE"",""HO""]","[""AF11"",""AM05"",""AF09"",""WM07""]","[8,6,2,5]","[8,6,2,4]","","",""
"show-reward","30","130862","0.0-30.0","p438661","A272X64FOZFYLB","336OE47KI3QZCSCUXSQ8J11UOZXVWV","32N49TQG3IO5SZ7LMPZHQWZSFSNVA4","model","match","uniform","","","","","","","","130219.30000000075","132221.20000000112","","","","","","","","","","","","8","","stimuli/stars_8.png","29.5","","","","","stimuli/AF11_SUR.jpg","",""
"explore-choice","31","132279","0.0-31.0","p438661","A272X64FOZFYLB","336OE47KI3QZCSCUXSQ8J11UOZXVWV","32N49TQG3IO5SZ7LMPZHQWZSFSNVA4","model","match","uniform","","","","","","","914.8000000007451","132222","133136.80000000075","[""stimuli/AM05_SUR.jpg"",""stimuli/AF11_HE.jpg"",""stimuli/WM07_CC.jpg"",""stimuli/AF09_HO.jpg""]","stimuli/AM05_SUR.jpg","stimuli/AF11_HE.jpg","stimuli/WM07_CC.jpg","stimuli/AF09_HO.jpg","pos2","stimuli/AF11_HE.jpg","HE","AF11","1","5","10","8","stimuli/stars_10.png","34.5","[""SUR"",""HE"",""CC"",""HO""]","[""AM05"",""AF11"",""WM07"",""AF09""]","[4,10,3,3]","[6,8,4,2]","","",""
"show-reward","32","134282","0.0-32.0","p438661","A272X64FOZFYLB","336OE47KI3QZCSCUXSQ8J11UOZXVWV","32N49TQG3IO5SZ7LMPZHQWZSFSNVA4","model","match","uniform","","","","","","","","133638.59999999963","135641.5","","","","","","","","","","","","10","","stimuli/stars_10.png","34.5","","","","","stimuli/AF11_HE.jpg","",""
"explore-choice","33","135790","0.0-33.0","p438661","A272X64FOZFYLB","336OE47KI3QZCSCUXSQ8J11UOZXVWV","32N49TQG3IO5SZ7LMPZHQWZSFSNVA4","model","match","uniform","","","","","","","1006.8000000007451","135642","136648.80000000075","[""stimuli/AF09_HO.jpg"",""stimuli/AM05_HE.jpg"",""stimuli/WM07_SUR.jpg"",""stimuli/AF11_CC.jpg""]","stimuli/AF09_HO.jpg","stimuli/AM05_HE.jpg","stimuli/WM07_SUR.jpg","stimuli/AF11_CC.jpg","pos4","stimuli/AF11_CC.jpg","CC","AF11","3","4.5","9","8","stimuli/stars_9.png","39","[""HO"",""HE"",""SUR"",""CC""]","[""AF09"",""AM05"",""WM07"",""AF11""]","[1,7,3,9]","[2,6,4,8]","","",""
"show-reward","34","137793","0.0-34.0","p438661","A272X64FOZFYLB","336OE47KI3QZCSCUXSQ8J11UOZXVWV","32N49TQG3IO5SZ7LMPZHQWZSFSNVA4","model","match","uniform","","","","","","","","137150","139152.20000000112","","","","","","","","","","","","9","","stimuli/stars_9.png","39","","","","","stimuli/AF11_CC.jpg","",""
"explore-choice","35","139139","0.0-35.0","p438661","A272X64FOZFYLB","336OE47KI3QZCSCUXSQ8J11UOZXVWV","32N49TQG3IO5SZ7LMPZHQWZSFSNVA4","model","match","uniform","","","","","","","844.3000000007451","139152.90000000037","139997.20000000112","[""stimuli/AF11_HO.jpg"",""stimuli/AF09_HE.jpg"",""stimuli/WM07_CC.jpg"",""stimuli/AM05_SUR.jpg""]","stimuli/AF11_HO.jpg","stimuli/AF09_HE.jpg","stimuli/WM07_CC.jpg","stimuli/AM05_SUR.jpg","pos1","stimuli/AF11_HO.jpg","HO","AF11","0","4","8","8","stimuli/stars_8.png","43","[""HO"",""HE"",""CC"",""SUR""]","[""AF11"",""AF09"",""WM07"",""AM05""]","[8,4,3,6]","[8,2,4,6]","","",""
"show-reward","36","141156","0.0-36.0","p438661","A272X64FOZFYLB","336OE47KI3QZCSCUXSQ8J11UOZXVWV","32N49TQG3IO5SZ7LMPZHQWZSFSNVA4","model","match","uniform","","","","","","","","140499","142514.70000000112","","","","","","","","","","","","8","","stimuli/stars_8.png","43","","","","","stimuli/AF11_HO.jpg","",""
"explore-choice","37","142451","0.0-37.0","p438661","A272X64FOZFYLB","336OE47KI3QZCSCUXSQ8J11UOZXVWV","32N49TQG3IO5SZ7LMPZHQWZSFSNVA4","model","match","uniform","","","","","","","794","142515.20000000112","143309.20000000112","[""stimuli/AF11_SUR.jpg"",""stimuli/AM05_CC.jpg"",""stimuli/WM07_HE.jpg"",""stimuli/AF09_HO.jpg""]","stimuli/AF11_SUR.jpg","stimuli/AM05_CC.jpg","stimuli/WM07_HE.jpg","stimuli/AF09_HO.jpg","pos1","stimuli/AF11_SUR.jpg","SUR","AF11","0","3.5","7","8","stimuli/stars_7.png","46.5","[""SUR"",""CC"",""HE"",""HO""]","[""AF11"",""AM05"",""WM07"",""AF09""]","[7,4,6,4]","[8,6,4,2]","","",""
"show-reward","38","144454","0.0-38.0","p438661","A272X64FOZFYLB","336OE47KI3QZCSCUXSQ8J11UOZXVWV","32N49TQG3IO5SZ7LMPZHQWZSFSNVA4","model","match","uniform","","","","","","","","143811","145812.59999999963","","","","","","","","","","","","7","","stimuli/stars_7.png","46.5","","","","","stimuli/AF11_SUR.jpg","",""
"explore-choice","39","145991","0.0-39.0","p438661","A272X64FOZFYLB","336OE47KI3QZCSCUXSQ8J11UOZXVWV","32N49TQG3IO5SZ7LMPZHQWZSFSNVA4","model","match","uniform","","","","","","","1035.699999999255","145813.40000000037","146849.09999999963","[""stimuli/AM05_SUR.jpg"",""stimuli/AF09_CC.jpg"",""stimuli/WM07_HE.jpg"",""stimuli/AF11_HO.jpg""]","stimuli/AM05_SUR.jpg","stimuli/AF09_CC.jpg","stimuli/WM07_HE.jpg","stimuli/AF11_HO.jpg","pos4","stimuli/AF11_HO.jpg","HO","AF11","3","5","10","8","stimuli/stars_10.png","51.5","[""SUR"",""CC"",""HE"",""HO""]","[""AM05"",""AF09"",""WM07"",""AF11""]","[7,4,3,10]","[6,2,4,8]","","",""
"show-reward","40","147994","0.0-40.0","p438661","A272X64FOZFYLB","336OE47KI3QZCSCUXSQ8J11UOZXVWV","32N49TQG3IO5SZ7LMPZHQWZSFSNVA4","model","match","uniform","","","","","","","","147350.90000000037","149352.59999999963","","","","","","","","","","","","10","","stimuli/stars_10.png","51.5","","","","","stimuli/AF11_HO.jpg","",""
"explore-choice","41","149934","0.0-41.0","p438661","A272X64FOZFYLB","336OE47KI3QZCSCUXSQ8J11UOZXVWV","32N49TQG3IO5SZ7LMPZHQWZSFSNVA4","model","match","uniform","","","","","","","1439.199999999255","149353.30000000075","150792.5","[""stimuli/WM07_HE.jpg"",""stimuli/AM05_SUR.jpg"",""stimuli/AF11_CC.jpg"",""stimuli/AF09_HO.jpg""]","stimuli/WM07_HE.jpg","stimuli/AM05_SUR.jpg","stimuli/AF11_CC.jpg","stimuli/AF09_HO.jpg","pos3","stimuli/AF11_CC.jpg","CC","AF11","2","3.5","7","8","stimuli/stars_7.png","55","[""HE"",""SUR"",""CC"",""HO""]","[""WM07"",""AM05"",""AF11"",""AF09""]","[6,5,7,0]","[4,6,8,2]","","",""
"show-reward","42","151937","0.0-42.0","p438661","A272X64FOZFYLB","336OE47KI3QZCSCUXSQ8J11UOZXVWV","32N49TQG3IO5SZ7LMPZHQWZSFSNVA4","model","match","uniform","","","","","","","","151293.59999999963","153295.5","","","","","","","","","","","","7","","stimuli/stars_7.png","55","","","","","stimuli/AF11_CC.jpg","",""
"explore-choice","43","153131","0.0-43.0","p438661","A272X64FOZFYLB","336OE47KI3QZCSCUXSQ8J11UOZXVWV","32N49TQG3IO5SZ7LMPZHQWZSFSNVA4","model","match","uniform","","","","","","","693","153296.09999999963","153989.09999999963","[""stimuli/AF11_CC.jpg"",""stimuli/AF09_SUR.jpg"",""stimuli/AM05_HE.jpg"",""stimuli/WM07_HO.jpg""]","stimuli/AF11_CC.jpg","stimuli/AF09_SUR.jpg","stimuli/AM05_HE.jpg","stimuli/WM07_HO.jpg","pos1","stimuli/AF11_CC.jpg","CC","AF11","0","4.5","9","8","stimuli/stars_9.png","59.5","[""CC"",""SUR"",""HE"",""HO""]","[""AF11"",""AF09"",""AM05"",""WM07""]","[9,1,4,4]","[8,2,6,4]","","",""
"show-reward","44","155134","0.0-44.0","p438661","A272X64FOZFYLB","336OE47KI3QZCSCUXSQ8J11UOZXVWV","32N49TQG3IO5SZ7LMPZHQWZSFSNVA4","model","match","uniform","","","","","","","","154490.70000000112","156493.09999999963","","","","","","","","","","","","9","","stimuli/stars_9.png","59.5","","","","","stimuli/AF11_CC.jpg","",""
"explore-choice","45","156251","0.0-45.0","p438661","A272X64FOZFYLB","336OE47KI3QZCSCUXSQ8J11UOZXVWV","32N49TQG3IO5SZ7LMPZHQWZSFSNVA4","model","match","uniform","","","","","","","615.8999999985099","156493.70000000112","157109.59999999963","[""stimuli/AF11_SUR.jpg"",""stimuli/AM05_HO.jpg"",""stimuli/AF09_CC.jpg"",""stimuli/WM07_HE.jpg""]","stimuli/AF11_SUR.jpg","stimuli/AM05_HO.jpg","stimuli/AF09_CC.jpg","stimuli/WM07_HE.jpg","pos1","stimuli/AF11_SUR.jpg","SUR","AF11","0","4.5","9","8","stimuli/stars_9.png","64","[""SUR"",""HO"",""CC"",""HE""]","[""AF11"",""AM05"",""AF09"",""WM07""]","[9,4,1,6]","[8,6,2,4]","","",""
"show-reward","46","158253","0.0-46.0","p438661","A272X64FOZFYLB","336OE47KI3QZCSCUXSQ8J11UOZXVWV","32N49TQG3IO5SZ7LMPZHQWZSFSNVA4","model","match","uniform","","","","","","","","157611","159612.40000000037","","","","","","","","","","","","9","","stimuli/stars_9.png","64","","","","","stimuli/AF11_SUR.jpg","",""
"explore-choice","47","159699","0.0-47.0","p438661","A272X64FOZFYLB","336OE47KI3QZCSCUXSQ8J11UOZXVWV","32N49TQG3IO5SZ7LMPZHQWZSFSNVA4","model","match","uniform","","","","","","","944.3000000007451","159613.09999999963","160557.40000000037","[""stimuli/AF09_SUR.jpg"",""stimuli/AM05_CC.jpg"",""stimuli/WM07_HO.jpg"",""stimuli/AF11_HE.jpg""]","stimuli/AF09_SUR.jpg","stimuli/AM05_CC.jpg","stimuli/WM07_HO.jpg","stimuli/AF11_HE.jpg","pos4","stimuli/AF11_HE.jpg","HE","AF11","3","4","8","8","stimuli/stars_8.png","68","[""SUR"",""CC"",""HO"",""HE""]","[""AF09"",""AM05"",""WM07"",""AF11""]","[2,6,5,8]","[2,6,4,8]","","",""
"show-reward","48","161702","0.0-48.0","p438661","A272X64FOZFYLB","336OE47KI3QZCSCUXSQ8J11UOZXVWV","32N49TQG3IO5SZ7LMPZHQWZSFSNVA4","model","match","uniform","","","","","","","","161059","163061.30000000075","","","","","","","","","","","","8","","stimuli/stars_8.png","68","","","","","stimuli/AF11_HE.jpg","",""
"explore-choice","49","163095","0.0-49.0","p438661","A272X64FOZFYLB","336OE47KI3QZCSCUXSQ8J11UOZXVWV","32N49TQG3IO5SZ7LMPZHQWZSFSNVA4","model","match","uniform","","","","","","","891.0999999996275","163062","163953.09999999963","[""stimuli/WM07_CC.jpg"",""stimuli/AF11_HO.jpg"",""stimuli/AM05_HE.jpg"",""stimuli/AF09_SUR.jpg""]","stimuli/WM07_CC.jpg","stimuli/AF11_HO.jpg","stimuli/AM05_HE.jpg","stimuli/AF09_SUR.jpg","pos2","stimuli/AF11_HO.jpg","HO","AF11","1","3.5","7","8","stimuli/stars_7.png","71.5","[""CC"",""HO"",""HE"",""SUR""]","[""WM07"",""AF11"",""AM05"",""AF09""]","[4,7,6,2]","[4,8,6,2]","","",""
"show-reward","50","165098","0.0-50.0","p438661","A272X64FOZFYLB","336OE47KI3QZCSCUXSQ8J11UOZXVWV","32N49TQG3IO5SZ7LMPZHQWZSFSNVA4","model","match","uniform","","","","","","","","164455","166456.90000000037","","","","","","","","","","","","7","","stimuli/stars_7.png","71.5","","","","","stimuli/AF11_HO.jpg","",""
"explore-choice","51","166719","0.0-51.0","p438661","A272X64FOZFYLB","336OE47KI3QZCSCUXSQ8J11UOZXVWV","32N49TQG3IO5SZ7LMPZHQWZSFSNVA4","model","match","uniform","","","","","","","1119.800000000745","166457.59999999963","167577.40000000037","[""stimuli/AM05_HE.jpg"",""stimuli/AF09_HO.jpg"",""stimuli/AF11_SUR.jpg"",""stimuli/WM07_CC.jpg""]","stimuli/AM05_HE.jpg","stimuli/AF09_HO.jpg","stimuli/AF11_SUR.jpg","stimuli/WM07_CC.jpg","pos3","stimuli/AF11_SUR.jpg","SUR","AF11","2","4.5","9","8","stimuli/stars_9.png","76","[""HE"",""HO"",""SUR"",""CC""]","[""AM05"",""AF09"",""AF11"",""WM07""]","[5,4,9,6]","[6,2,8,4]","","",""
"show-reward","52","168722","0.0-52.0","p438661","A272X64FOZFYLB","336OE47KI3QZCSCUXSQ8J11UOZXVWV","32N49TQG3IO5SZ7LMPZHQWZSFSNVA4","model","match","uniform","","","","","","","","168079.09999999963","170081.09999999963","","","","","","","","","","","","9","","stimuli/stars_9.png","76","","","","","stimuli/AF11_SUR.jpg","",""
"explore-choice","53","170023","0.0-53.0","p438661","A272X64FOZFYLB","336OE47KI3QZCSCUXSQ8J11UOZXVWV","32N49TQG3IO5SZ7LMPZHQWZSFSNVA4","model","match","uniform","","","","","","","799.2999999988824","170081.80000000075","170881.09999999963","[""stimuli/AF11_HE.jpg"",""stimuli/WM07_SUR.jpg"",""stimuli/AF09_CC.jpg"",""stimuli/AM05_HO.jpg""]","stimuli/AF11_HE.jpg","stimuli/WM07_SUR.jpg","stimuli/AF09_CC.jpg","stimuli/AM05_HO.jpg","pos1","stimuli/AF11_HE.jpg","HE","AF11","0","3.5","7","8","stimuli/stars_7.png","79.5","[""HE"",""SUR"",""CC"",""HO""]","[""AF11"",""WM07"",""AF09"",""AM05""]","[7,4,1,7]","[8,4,2,6]","","",""
"show-reward","54","172026","0.0-54.0","p438661","A272X64FOZFYLB","336OE47KI3QZCSCUXSQ8J11UOZXVWV","32N49TQG3IO5SZ7LMPZHQWZSFSNVA4","model","match","uniform","","","","","","","","171382.40000000037","173384.5","","","","","","","","","","","","7","","stimuli/stars_7.png","79.5","","","","","stimuli/AF11_HE.jpg","",""
"explore-choice","55","173342","0.0-55.0","p438661","A272X64FOZFYLB","336OE47KI3QZCSCUXSQ8J11UOZXVWV","32N49TQG3IO5SZ7LMPZHQWZSFSNVA4","model","match","uniform","","","","","","","816.0999999996275","173385.20000000112","174201.30000000075","[""stimuli/AF11_CC.jpg"",""stimuli/WM07_SUR.jpg"",""stimuli/AF09_HE.jpg"",""stimuli/AM05_HO.jpg""]","stimuli/AF11_CC.jpg","stimuli/WM07_SUR.jpg","stimuli/AF09_HE.jpg","stimuli/AM05_HO.jpg","pos2","stimuli/WM07_SUR.jpg","SUR","WM07","1","1","2","4","stimuli/stars_2.png","80.5","[""CC"",""SUR"",""HE"",""HO""]","[""AF11"",""WM07"",""AF09"",""AM05""]","[9,2,4,6]","[8,4,2,6]","","",""
"show-reward","56","175346","0.0-56.0","p438661","A272X64FOZFYLB","336OE47KI3QZCSCUXSQ8J11UOZXVWV","32N49TQG3IO5SZ7LMPZHQWZSFSNVA4","model","match","uniform","","","","","","","","174702.40000000037","176704.80000000075","","","","","","","","","","","","2","","stimuli/stars_2.png","80.5","","","","","stimuli/WM07_SUR.jpg","",""
"explore-choice","57","176659","0.0-57.0","p438661","A272X64FOZFYLB","336OE47KI3QZCSCUXSQ8J11UOZXVWV","32N49TQG3IO5SZ7LMPZHQWZSFSNVA4","model","match","uniform","","","","","","","810.9000000003725","176705.5","177516.40000000037","[""stimuli/AM05_HO.jpg"",""stimuli/WM07_HE.jpg"",""stimuli/AF09_CC.jpg"",""stimuli/AF11_SUR.jpg""]","stimuli/AM05_HO.jpg","stimuli/WM07_HE.jpg","stimuli/AF09_CC.jpg","stimuli/AF11_SUR.jpg","pos1","stimuli/AM05_HO.jpg","HO","AM05","0","2","4","6","stimuli/stars_4.png","82.5","[""HO"",""HE"",""CC"",""SUR""]","[""AM05"",""WM07"",""AF09"",""AF11""]","[4,6,1,9]","[6,4,2,8]","","",""
"show-reward","58","178662","0.0-58.0","p438661","A272X64FOZFYLB","336OE47KI3QZCSCUXSQ8J11UOZXVWV","32N49TQG3IO5SZ7LMPZHQWZSFSNVA4","model","match","uniform","","","","","","","","178018.30000000075","180021.40000000037","","","","","","","","","","","","4","","stimuli/stars_4.png","82.5","","","","","stimuli/AM05_HO.jpg","",""
"explore-choice","59","179723","0.0-59.0","p438661","A272X64FOZFYLB","336OE47KI3QZCSCUXSQ8J11UOZXVWV","32N49TQG3IO5SZ7LMPZHQWZSFSNVA4","model","match","uniform","","","","","","","559.0999999996275","180022","180581.09999999963","[""stimuli/AF11_SUR.jpg"",""stimuli/AM05_CC.jpg"",""stimuli/WM07_HE.jpg"",""stimuli/AF09_HO.jpg""]","stimuli/AF11_SUR.jpg","stimuli/AM05_CC.jpg","stimuli/WM07_HE.jpg","stimuli/AF09_HO.jpg","pos1","stimuli/AF11_SUR.jpg","SUR","AF11","0","3.5","7","8","stimuli/stars_7.png","86","[""SUR"",""CC"",""HE"",""HO""]","[""AF11"",""AM05"",""WM07"",""AF09""]","[7,4,6,4]","[8,6,4,2]","","",""
"show-reward","60","181726","0.0-60.0","p438661","A272X64FOZFYLB","336OE47KI3QZCSCUXSQ8J11UOZXVWV","32N49TQG3IO5SZ7LMPZHQWZSFSNVA4","model","match","uniform","","","","","","","","181082.70000000112","183085.40000000037","","","","","","","","","","","","7","","stimuli/stars_7.png","86","","","","","stimuli/AF11_SUR.jpg","",""
"explore-choice","61","183319","0.0-61.0","p438661","A272X64FOZFYLB","336OE47KI3QZCSCUXSQ8J11UOZXVWV","32N49TQG3IO5SZ7LMPZHQWZSFSNVA4","model","match","uniform","","","","","","","1091.4000000003725","183086","184177.40000000037","[""stimuli/AF09_HE.jpg"",""stimuli/AM05_CC.jpg"",""stimuli/AF11_HO.jpg"",""stimuli/WM07_SUR.jpg""]","stimuli/AF09_HE.jpg","stimuli/AM05_CC.jpg","stimuli/AF11_HO.jpg","stimuli/WM07_SUR.jpg","pos3","stimuli/AF11_HO.jpg","HO","AF11","2","3","6","8","stimuli/stars_6.png","89","[""HE"",""CC"",""HO"",""SUR""]","[""AF09"",""AM05"",""AF11"",""WM07""]","[4,7,6,5]","[2,6,8,4]","","",""
"show-reward","62","185322","0.0-62.0","p438661","A272X64FOZFYLB","336OE47KI3QZCSCUXSQ8J11UOZXVWV","32N49TQG3IO5SZ7LMPZHQWZSFSNVA4","model","match","uniform","","","","","","","","184678.70000000112","186681","","","","","","","","","","","","6","","stimuli/stars_6.png","89","","","","","stimuli/AF11_HO.jpg","",""
"explore-choice","63","186870","0.0-63.0","p438661","A272X64FOZFYLB","336OE47KI3QZCSCUXSQ8J11UOZXVWV","32N49TQG3IO5SZ7LMPZHQWZSFSNVA4","model","match","uniform","","","","","","","1046.5999999996275","186681.80000000075","187728.40000000037","[""stimuli/AF11_HO.jpg"",""stimuli/WM07_HE.jpg"",""stimuli/AM05_CC.jpg"",""stimuli/AF09_SUR.jpg""]","stimuli/AF11_HO.jpg","stimuli/WM07_HE.jpg","stimuli/AM05_CC.jpg","stimuli/AF09_SUR.jpg","pos1","stimuli/AF11_HO.jpg","HO","AF11","0","4","8","8","stimuli/stars_8.png","93","[""HO"",""HE"",""CC"",""SUR""]","[""AF11"",""WM07"",""AM05"",""AF09""]","[8,6,4,0]","[8,4,6,2]","","",""
"show-reward","64","188873","0.0-64.0","p438661","A272X64FOZFYLB","336OE47KI3QZCSCUXSQ8J11UOZXVWV","32N49TQG3IO5SZ7LMPZHQWZSFSNVA4","model","match","uniform","","","","","","","","188230.09999999963","190232","","","","","","","","","","","","8","","stimuli/stars_8.png","93","","","","","stimuli/AF11_HO.jpg","",""
"explore-choice","65","190692","0.0-65.0","p438661","A272X64FOZFYLB","336OE47KI3QZCSCUXSQ8J11UOZXVWV","32N49TQG3IO5SZ7LMPZHQWZSFSNVA4","model","match","uniform","","","","","","","1308.2999999988824","190232.70000000112","191541","[""stimuli/WM07_HO.jpg"",""stimuli/AF09_SUR.jpg"",""stimuli/AF11_CC.jpg"",""stimuli/AM05_HE.jpg""]","stimuli/WM07_HO.jpg","stimuli/AF09_SUR.jpg","stimuli/AF11_CC.jpg","stimuli/AM05_HE.jpg","pos3","stimuli/AF11_CC.jpg","CC","AF11","2","4.5","9","8","stimuli/stars_9.png","97.5","[""HO"",""SUR"",""CC"",""HE""]","[""WM07"",""AF09"",""AF11"",""AM05""]","[4,1,9,4]","[4,2,8,6]","","",""
"show-reward","66","192695","0.0-66.0","p438661","A272X64FOZFYLB","336OE47KI3QZCSCUXSQ8J11UOZXVWV","32N49TQG3IO5SZ7LMPZHQWZSFSNVA4","model","match","uniform","","","","","","","","192052.20000000112","194053.90000000037","","","","","","","","","","","","9","","stimuli/stars_9.png","97.5","","","","","stimuli/AF11_CC.jpg","",""
"explore-choice","67","194059","0.0-67.0","p438661","A272X64FOZFYLB","336OE47KI3QZCSCUXSQ8J11UOZXVWV","32N49TQG3IO5SZ7LMPZHQWZSFSNVA4","model","match","uniform","","","","","","","862.8000000007451","194054.59999999963","194917.40000000037","[""stimuli/AF09_HO.jpg"",""stimuli/AM05_HE.jpg"",""stimuli/WM07_SUR.jpg"",""stimuli/AF11_CC.jpg""]","stimuli/AF09_HO.jpg","stimuli/AM05_HE.jpg","stimuli/WM07_SUR.jpg","stimuli/AF11_CC.jpg","pos4","stimuli/AF11_CC.jpg","CC","AF11","3","4.5","9","8","stimuli/stars_9.png","102","[""HO"",""HE"",""SUR"",""CC""]","[""AF09"",""AM05"",""WM07"",""AF11""]","[1,7,3,9]","[2,6,4,8]","","",""
"show-reward","68","196062","0.0-68.0","p438661","A272X64FOZFYLB","336OE47KI3QZCSCUXSQ8J11UOZXVWV","32N49TQG3IO5SZ7LMPZHQWZSFSNVA4","model","match","uniform","","","","","","","","195419.09999999963","197421.30000000075","","","","","","","","","","","","9","","stimuli/stars_9.png","102","","","","","stimuli/AF11_CC.jpg","",""
"explore-choice","69","197243","0.0-69.0","p438661","A272X64FOZFYLB","336OE47KI3QZCSCUXSQ8J11UOZXVWV","32N49TQG3IO5SZ7LMPZHQWZSFSNVA4","model","match","uniform","","","","","","","679.0999999996275","197422","198101.09999999963","[""stimuli/AF11_CC.jpg"",""stimuli/WM07_HE.jpg"",""stimuli/AF09_HO.jpg"",""stimuli/AM05_SUR.jpg""]","stimuli/AF11_CC.jpg","stimuli/WM07_HE.jpg","stimuli/AF09_HO.jpg","stimuli/AM05_SUR.jpg","pos1","stimuli/AF11_CC.jpg","CC","AF11","0","3.5","7","8","stimuli/stars_7.png","105.5","[""CC"",""HE"",""HO"",""SUR""]","[""AF11"",""WM07"",""AF09"",""AM05""]","[7,6,0,5]","[8,4,2,6]","","",""
"show-reward","70","199245","0.0-70.0","p438661","A272X64FOZFYLB","336OE47KI3QZCSCUXSQ8J11UOZXVWV","32N49TQG3IO5SZ7LMPZHQWZSFSNVA4","model","match","uniform","","","","","","","","198602.80000000075","200604.20000000112","","","","","","","","","","","","7","","stimuli/stars_7.png","105.5","","","","","stimuli/AF11_CC.jpg","",""
"explore-choice","71","200296","0.0-71.0","p438661","A272X64FOZFYLB","336OE47KI3QZCSCUXSQ8J11UOZXVWV","32N49TQG3IO5SZ7LMPZHQWZSFSNVA4","model","match","uniform","","","","","","","548.8000000007451","200605","201153.80000000075","[""stimuli/AF11_SUR.jpg"",""stimuli/AM05_HE.jpg"",""stimuli/WM07_CC.jpg"",""stimuli/AF09_HO.jpg""]","stimuli/AF11_SUR.jpg","stimuli/AM05_HE.jpg","stimuli/WM07_CC.jpg","stimuli/AF09_HO.jpg","pos1","stimuli/AF11_SUR.jpg","SUR","AF11","0","4.5","9","8","stimuli/stars_9.png","110","[""SUR"",""HE"",""CC"",""HO""]","[""AF11"",""AM05"",""WM07"",""AF09""]","[9,5,6,4]","[8,6,4,2]","","",""
"show-reward","72","202299","0.0-72.0","p438661","A272X64FOZFYLB","336OE47KI3QZCSCUXSQ8J11UOZXVWV","32N49TQG3IO5SZ7LMPZHQWZSFSNVA4","model","match","uniform","","","","","","","","201656.09999999963","203658.40000000037","","","","","","","","","","","","9","","stimuli/stars_9.png","110","","","","","stimuli/AF11_SUR.jpg","",""
"explore-choice","73","203498","0.0-73.0","p438661","A272X64FOZFYLB","336OE47KI3QZCSCUXSQ8J11UOZXVWV","32N49TQG3IO5SZ7LMPZHQWZSFSNVA4","model","match","uniform","","","","","","","697.0999999996275","203659","204356.09999999963","[""stimuli/AF11_HO.jpg"",""stimuli/AF09_SUR.jpg"",""stimuli/WM07_CC.jpg"",""stimuli/AM05_HE.jpg""]","stimuli/AF11_HO.jpg","stimuli/AF09_SUR.jpg","stimuli/WM07_CC.jpg","stimuli/AM05_HE.jpg","pos1","stimuli/AF11_HO.jpg","HO","AF11","0","3.5","7","8","stimuli/stars_7.png","113.5","[""HO"",""SUR"",""CC"",""HE""]","[""AF11"",""AF09"",""WM07"",""AM05""]","[7,2,4,6]","[8,2,4,6]","","",""
"show-reward","74","205500","0.0-74.0","p438661","A272X64FOZFYLB","336OE47KI3QZCSCUXSQ8J11UOZXVWV","32N49TQG3IO5SZ7LMPZHQWZSFSNVA4","model","match","uniform","","","","","","","","204857.09999999963","206858.90000000037","","","","","","","","","","","","7","","stimuli/stars_7.png","113.5","","","","","stimuli/AF11_HO.jpg","",""
"explore-choice","75","206927","0.0-75.0","p438661","A272X64FOZFYLB","336OE47KI3QZCSCUXSQ8J11UOZXVWV","32N49TQG3IO5SZ7LMPZHQWZSFSNVA4","model","match","uniform","","","","","","","925.7000000011176","206859.5","207785.20000000112","[""stimuli/AM05_HE.jpg"",""stimuli/AF11_SUR.jpg"",""stimuli/AF09_CC.jpg"",""stimuli/WM07_HO.jpg""]","stimuli/AM05_HE.jpg","stimuli/AF11_SUR.jpg","stimuli/AF09_CC.jpg","stimuli/WM07_HO.jpg","pos2","stimuli/AF11_SUR.jpg","SUR","AF11","1","5","10","8","stimuli/stars_10.png","118.5","[""HE"",""SUR"",""CC"",""HO""]","[""AM05"",""AF11"",""AF09"",""WM07""]","[6,10,3,4]","[6,8,2,4]","","",""
"show-reward","76","208930","0.0-76.0","p438661","A272X64FOZFYLB","336OE47KI3QZCSCUXSQ8J11UOZXVWV","32N49TQG3IO5SZ7LMPZHQWZSFSNVA4","model","match","uniform","","","","","","","","208286.90000000037","210289.20000000112","","","","","","","","","","","","10","","stimuli/stars_10.png","118.5","","","","","stimuli/AF11_SUR.jpg","",""
"explore-choice","77","210023","0.0-77.0","p438661","A272X64FOZFYLB","336OE47KI3QZCSCUXSQ8J11UOZXVWV","32N49TQG3IO5SZ7LMPZHQWZSFSNVA4","model","match","uniform","","","","","","","590.9000000003725","210289.90000000037","210880.80000000075","[""stimuli/AF09_HE.jpg"",""stimuli/AF11_SUR.jpg"",""stimuli/WM07_CC.jpg"",""stimuli/AM05_HO.jpg""]","stimuli/AF09_HE.jpg","stimuli/AF11_SUR.jpg","stimuli/WM07_CC.jpg","stimuli/AM05_HO.jpg","pos2","stimuli/AF11_SUR.jpg","SUR","AF11","1","4.5","9","8","stimuli/stars_9.png","123","[""HE"",""SUR"",""CC"",""HO""]","[""AF09"",""AF11"",""WM07"",""AM05""]","[3,9,4,4]","[2,8,4,6]","","",""
"show-reward","78","212025","0.0-78.0","p438661","A272X64FOZFYLB","336OE47KI3QZCSCUXSQ8J11UOZXVWV","32N49TQG3IO5SZ7LMPZHQWZSFSNVA4","model","match","uniform","","","","","","","","211382.80000000075","213384.5","","","","","","","","","","","","9","","stimuli/stars_9.png","123","","","","","stimuli/AF11_SUR.jpg","",""
"explore-choice","79","213451","0.0-79.0","p438661","A272X64FOZFYLB","336OE47KI3QZCSCUXSQ8J11UOZXVWV","32N49TQG3IO5SZ7LMPZHQWZSFSNVA4","model","match","uniform","","","","","","","924","213385.09999999963","214309.09999999963","[""stimuli/AM05_HO.jpg"",""stimuli/WM07_HE.jpg"",""stimuli/AF09_SUR.jpg"",""stimuli/AF11_CC.jpg""]","stimuli/AM05_HO.jpg","stimuli/WM07_HE.jpg","stimuli/AF09_SUR.jpg","stimuli/AF11_CC.jpg","pos4","stimuli/AF11_CC.jpg","CC","AF11","3","3.5","7","8","stimuli/stars_7.png","126.5","[""HO"",""HE"",""SUR"",""CC""]","[""AM05"",""WM07"",""AF09"",""AF11""]","[5,4,3,7]","[6,4,2,8]","","",""
"show-reward","80","215453","0.0-80.0","p438661","A272X64FOZFYLB","336OE47KI3QZCSCUXSQ8J11UOZXVWV","32N49TQG3IO5SZ7LMPZHQWZSFSNVA4","model","match","uniform","","","","","","","","214810.80000000075","216811.80000000075","","","","","","","","","","","","7","","stimuli/stars_7.png","126.5","","","","","stimuli/AF11_CC.jpg","",""
"explore-choice","81","216659","0.0-81.0","p438661","A272X64FOZFYLB","336OE47KI3QZCSCUXSQ8J11UOZXVWV","32N49TQG3IO5SZ7LMPZHQWZSFSNVA4","model","match","uniform","","","","","","","703.8000000007451","216812.5","217516.30000000075","[""stimuli/AF11_HE.jpg"",""stimuli/WM07_HO.jpg"",""stimuli/AM05_CC.jpg"",""stimuli/AF09_SUR.jpg""]","stimuli/AF11_HE.jpg","stimuli/WM07_HO.jpg","stimuli/AM05_CC.jpg","stimuli/AF09_SUR.jpg","pos1","stimuli/AF11_HE.jpg","HE","AF11","0","4","8","8","stimuli/stars_8.png","130.5","[""HE"",""HO"",""CC"",""SUR""]","[""AF11"",""WM07"",""AM05"",""AF09""]","[8,5,6,2]","[8,4,6,2]","","",""
"show-reward","82","218661","0.0-82.0","p438661","A272X64FOZFYLB","336OE47KI3QZCSCUXSQ8J11UOZXVWV","32N49TQG3IO5SZ7LMPZHQWZSFSNVA4","model","match","uniform","","","","","","","","218018.5","220020.20000000112","","","","","","","","","","","","8","","stimuli/stars_8.png","130.5","","","","","stimuli/AF11_HE.jpg","",""
"explore-choice","83","221019","0.0-83.0","p438661","A272X64FOZFYLB","336OE47KI3QZCSCUXSQ8J11UOZXVWV","32N49TQG3IO5SZ7LMPZHQWZSFSNVA4","model","match","uniform","","","","","","","1855.9000000003725","220020.80000000075","221876.70000000112","[""stimuli/AM05_SUR.jpg"",""stimuli/AF09_CC.jpg"",""stimuli/WM07_HE.jpg"",""stimuli/AF11_HO.jpg""]","stimuli/AM05_SUR.jpg","stimuli/AF09_CC.jpg","stimuli/WM07_HE.jpg","stimuli/AF11_HO.jpg","pos4","stimuli/AF11_HO.jpg","HO","AF11","3","5","10","8","stimuli/stars_10.png","135.5","[""SUR"",""CC"",""HE"",""HO""]","[""AM05"",""AF09"",""WM07"",""AF11""]","[7,4,3,10]","[6,2,4,8]","","",""
"show-reward","84","223021","0.0-84.0","p438661","A272X64FOZFYLB","336OE47KI3QZCSCUXSQ8J11UOZXVWV","32N49TQG3IO5SZ7LMPZHQWZSFSNVA4","model","match","uniform","","","","","","","","222378.5","224379.80000000075","","","","","","","","","","","","10","","stimuli/stars_10.png","135.5","","","","","stimuli/AF11_HO.jpg","",""
"explore-choice","85","224570","0.0-85.0","p438661","A272X64FOZFYLB","336OE47KI3QZCSCUXSQ8J11UOZXVWV","32N49TQG3IO5SZ7LMPZHQWZSFSNVA4","model","match","uniform","","","","","","","1047.9000000003725","224380.5","225428.40000000037","[""stimuli/AF11_SUR.jpg"",""stimuli/AM05_CC.jpg"",""stimuli/AF09_HE.jpg"",""stimuli/WM07_HO.jpg""]","stimuli/AF11_SUR.jpg","stimuli/AM05_CC.jpg","stimuli/AF09_HE.jpg","stimuli/WM07_HO.jpg","pos1","stimuli/AF11_SUR.jpg","SUR","AF11","0","4","8","8","stimuli/stars_8.png","139.5","[""SUR"",""CC"",""HE"",""HO""]","[""AF11"",""AM05"",""AF09"",""WM07""]","[8,6,2,5]","[8,6,2,4]","","",""
"show-reward","86","226573","0.0-86.0","p438661","A272X64FOZFYLB","336OE47KI3QZCSCUXSQ8J11UOZXVWV","32N49TQG3IO5SZ7LMPZHQWZSFSNVA4","model","match","uniform","","","","","","","","225930.20000000112","227931.90000000037","","","","","","","","","","","","8","","stimuli/stars_8.png","139.5","","","","","stimuli/AF11_SUR.jpg","",""
"explore-choice","87","227831","0.0-87.0","p438661","A272X64FOZFYLB","336OE47KI3QZCSCUXSQ8J11UOZXVWV","32N49TQG3IO5SZ7LMPZHQWZSFSNVA4","model","match","uniform","","","","","","","756.4000000003725","227932.40000000037","228688.80000000075","[""stimuli/AF11_HE.jpg"",""stimuli/WM07_SUR.jpg"",""stimuli/AM05_CC.jpg"",""stimuli/AF09_HO.jpg""]","stimuli/AF11_HE.jpg","stimuli/WM07_SUR.jpg","stimuli/AM05_CC.jpg","stimuli/AF09_HO.jpg","pos1","stimuli/AF11_HE.jpg","HE","AF11","0","5","10","8","stimuli/stars_10.png","144.5","[""HE"",""SUR"",""CC"",""HO""]","[""AF11"",""WM07"",""AM05"",""AF09""]","[10,2,4,0]","[8,4,6,2]","","",""
"show-reward","88","229835","0.0-88.0","p438661","A272X64FOZFYLB","336OE47KI3QZCSCUXSQ8J11UOZXVWV","32N49TQG3IO5SZ7LMPZHQWZSFSNVA4","model","match","uniform","","","","","","","","229191.09999999963","231193.59999999963","","","","","","","","","","","","10","","stimuli/stars_10.png","144.5","","","","","stimuli/AF11_HE.jpg","",""
"explore-choice","89","231271","0.0-89.0","p438661","A272X64FOZFYLB","336OE47KI3QZCSCUXSQ8J11UOZXVWV","32N49TQG3IO5SZ7LMPZHQWZSFSNVA4","model","match","uniform","","","","","","","926.3000000007451","231194","232120.30000000075","[""stimuli/WM07_SUR.jpg"",""stimuli/AM05_HO.jpg"",""stimuli/AF09_CC.jpg"",""stimuli/AF11_HE.jpg""]","stimuli/WM07_SUR.jpg","stimuli/AM05_HO.jpg","stimuli/AF09_CC.jpg","stimuli/AF11_HE.jpg","pos4","stimuli/AF11_HE.jpg","HE","AF11","3","3.5","7","8","stimuli/stars_7.png","148","[""SUR"",""HO"",""CC"",""HE""]","[""WM07"",""AM05"",""AF09"",""AF11""]","[4,7,1,7]","[4,6,2,8]","","",""
"show-reward","90","233274","0.0-90.0","p438661","A272X64FOZFYLB","336OE47KI3QZCSCUXSQ8J11UOZXVWV","32N49TQG3IO5SZ7LMPZHQWZSFSNVA4","model","match","uniform","","","","","","","","232630.30000000075","234633.20000000112","","","","","","","","","","","","7","","stimuli/stars_7.png","148","","","","","stimuli/AF11_HE.jpg","",""
"explore-choice","91","234507","0.0-91.0","p438661","A272X64FOZFYLB","336OE47KI3QZCSCUXSQ8J11UOZXVWV","32N49TQG3IO5SZ7LMPZHQWZSFSNVA4","model","match","uniform","","","","","","","731","234633.80000000075","235364.80000000075","[""stimuli/AF09_HO.jpg"",""stimuli/AF11_HE.jpg"",""stimuli/AM05_SUR.jpg"",""stimuli/WM07_CC.jpg""]","stimuli/AF09_HO.jpg","stimuli/AF11_HE.jpg","stimuli/AM05_SUR.jpg","stimuli/WM07_CC.jpg","pos2","stimuli/AF11_HE.jpg","HE","AF11","1","5","10","8","stimuli/stars_10.png","153","[""HO"",""HE"",""SUR"",""CC""]","[""AF09"",""AF11"",""AM05"",""WM07""]","[3,10,4,3]","[2,8,6,4]","","",""
"show-reward","92","236510","0.0-92.0","p438661","A272X64FOZFYLB","336OE47KI3QZCSCUXSQ8J11UOZXVWV","32N49TQG3IO5SZ7LMPZHQWZSFSNVA4","model","match","uniform","","","","","","","","235866.80000000075","237868.70000000112","","","","","","","","","","","","10","","stimuli/stars_10.png","153","","","","","stimuli/AF11_HE.jpg","",""
"explore-choice","93","237682","0.0-93.0","p438661","A272X64FOZFYLB","336OE47KI3QZCSCUXSQ8J11UOZXVWV","32N49TQG3IO5SZ7LMPZHQWZSFSNVA4","model","match","uniform","","","","","","","670.8000000007451","237869.40000000037","238540.20000000112","[""stimuli/AM05_HO.jpg"",""stimuli/AF11_HE.jpg"",""stimuli/WM07_CC.jpg"",""stimuli/AF09_SUR.jpg""]","stimuli/AM05_HO.jpg","stimuli/AF11_HE.jpg","stimuli/WM07_CC.jpg","stimuli/AF09_SUR.jpg","pos2","stimuli/AF11_HE.jpg","HE","AF11","1","3","6","8","stimuli/stars_6.png","156","[""HO"",""HE"",""CC"",""SUR""]","[""AM05"",""AF11"",""WM07"",""AF09""]","[5,6,4,0]","[6,8,4,2]","","",""
"show-reward","94","239685","0.0-94.0","p438661","A272X64FOZFYLB","336OE47KI3QZCSCUXSQ8J11UOZXVWV","32N49TQG3IO5SZ7LMPZHQWZSFSNVA4","model","match","uniform","","","","","","","","239041.70000000112","241043.5","","","","","","","","","","","","6","","stimuli/stars_6.png","156","","","","","stimuli/AF11_HE.jpg","",""
"explore-choice","95","241055","0.0-95.0","p438661","A272X64FOZFYLB","336OE47KI3QZCSCUXSQ8J11UOZXVWV","32N49TQG3IO5SZ7LMPZHQWZSFSNVA4","model","match","uniform","","","","","","","868.6999999992549","241044.20000000112","241912.90000000037","[""stimuli/AF11_CC.jpg"",""stimuli/WM07_HO.jpg"",""stimuli/AM05_SUR.jpg"",""stimuli/AF09_HE.jpg""]","stimuli/AF11_CC.jpg","stimuli/WM07_HO.jpg","stimuli/AM05_SUR.jpg","stimuli/AF09_HE.jpg","pos1","stimuli/AF11_CC.jpg","CC","AF11","0","4.5","9","8","stimuli/stars_9.png","160.5","[""CC"",""HO"",""SUR"",""HE""]","[""AF11"",""WM07"",""AM05"",""AF09""]","[9,6,6,2]","[8,4,6,2]","","",""
"show-reward","96","243058","0.0-96.0","p438661","A272X64FOZFYLB","336OE47KI3QZCSCUXSQ8J11UOZXVWV","32N49TQG3IO5SZ7LMPZHQWZSFSNVA4","model","match","uniform","","","","","","","","242414.90000000037","244417.30000000075","","","","","","","","","","","","9","","stimuli/stars_9.png","160.5","","","","","stimuli/AF11_CC.jpg","",""
"explore-choice","97","244555","0.0-97.0","p438661","A272X64FOZFYLB","336OE47KI3QZCSCUXSQ8J11UOZXVWV","32N49TQG3IO5SZ7LMPZHQWZSFSNVA4","model","match","uniform","","","","","","","994.9000000003725","244418.09999999963","245413","[""stimuli/AM05_SUR.jpg"",""stimuli/AF09_HE.jpg"",""stimuli/AF11_HO.jpg"",""stimuli/WM07_CC.jpg""]","stimuli/AM05_SUR.jpg","stimuli/AF09_HE.jpg","stimuli/AF11_HO.jpg","stimuli/WM07_CC.jpg","pos3","stimuli/AF11_HO.jpg","HO","AF11","2","4","8","8","stimuli/stars_8.png","164.5","[""SUR"",""HE"",""HO"",""CC""]","[""AM05"",""AF09"",""AF11"",""WM07""]","[6,4,8,3]","[6,2,8,4]","","",""
"show-reward","98","246572","0.0-98.0","p438661","A272X64FOZFYLB","336OE47KI3QZCSCUXSQ8J11UOZXVWV","32N49TQG3IO5SZ7LMPZHQWZSFSNVA4","model","match","uniform","","","","","","","","245914.80000000075","247930.40000000037","","","","","","","","","","","","8","","stimuli/stars_8.png","164.5","","","","","stimuli/AF11_HO.jpg","",""
"explore-choice","99","247731","0.0-99.0","p438661","A272X64FOZFYLB","336OE47KI3QZCSCUXSQ8J11UOZXVWV","32N49TQG3IO5SZ7LMPZHQWZSFSNVA4","model","match","uniform","","","","","","","657.5","247931.30000000075","248588.80000000075","[""stimuli/AF09_CC.jpg"",""stimuli/AF11_HE.jpg"",""stimuli/AM05_SUR.jpg"",""stimuli/WM07_HO.jpg""]","stimuli/AF09_CC.jpg","stimuli/AF11_HE.jpg","stimuli/AM05_SUR.jpg","stimuli/WM07_HO.jpg","pos2","stimuli/AF11_HE.jpg","HE","AF11","1","5","10","8","stimuli/stars_10.png","169.5","[""CC"",""HE"",""SUR"",""HO""]","[""AF09"",""AF11"",""AM05"",""WM07""]","[2,10,4,2]","[2,8,6,4]","","",""
"show-reward","100","249734","0.0-100.0","p438661","A272X64FOZFYLB","336OE47KI3QZCSCUXSQ8J11UOZXVWV","32N49TQG3IO5SZ7LMPZHQWZSFSNVA4","model","match","uniform","","","","","","","","249090.5","251092.59999999963","","","","","","","","","","","","10","","stimuli/stars_10.png","169.5","","","","","stimuli/AF11_HE.jpg","",""
"explore-choice","101","250870","0.0-101.0","p438661","A272X64FOZFYLB","336OE47KI3QZCSCUXSQ8J11UOZXVWV","32N49TQG3IO5SZ7LMPZHQWZSFSNVA4","model","match","uniform","","","","","","","635.0999999996275","251093.30000000075","251728.40000000037","[""stimuli/AF11_HO.jpg"",""stimuli/AM05_HE.jpg"",""stimuli/AF09_CC.jpg"",""stimuli/WM07_SUR.jpg""]","stimuli/AF11_HO.jpg","stimuli/AM05_HE.jpg","stimuli/AF09_CC.jpg","stimuli/WM07_SUR.jpg","pos1","stimuli/AF11_HO.jpg","HO","AF11","0","4","8","8","stimuli/stars_8.png","173.5","[""HO"",""HE"",""CC"",""SUR""]","[""AF11"",""AM05"",""AF09"",""WM07""]","[8,4,0,6]","[8,6,2,4]","","",""
"show-reward","102","252873","0.0-102.0","p438661","A272X64FOZFYLB","336OE47KI3QZCSCUXSQ8J11UOZXVWV","32N49TQG3IO5SZ7LMPZHQWZSFSNVA4","model","match","uniform","","","","","","","","252229.90000000037","254232","","","","","","","","","","","","8","","stimuli/stars_8.png","173.5","","","","","stimuli/AF11_HO.jpg","",""
"explore-choice","103","256259","0.0-103.0","p438661","A272X64FOZFYLB","336OE47KI3QZCSCUXSQ8J11UOZXVWV","32N49TQG3IO5SZ7LMPZHQWZSFSNVA4","model","match","uniform","","","","","","","2884.5999999996275","254232.70000000112","257117.30000000075","[""stimuli/WF11_AO.jpg"",""stimuli/HF10_DO.jpg"",""stimuli/HF02_FO.jpg"",""stimuli/WF06_SC.jpg""]","stimuli/WF11_AO.jpg","stimuli/HF10_DO.jpg","stimuli/HF02_FO.jpg","stimuli/WF06_SC.jpg","pos2","stimuli/HF10_DO.jpg","DO","HF10","1","3","6","6","stimuli/stars_6.png","176.5","[""AO"",""DO"",""FO"",""SC""]","[""WF11"",""HF10"",""HF02"",""WF06""]","[5,6,7,2]","[4,6,8,2]","","",""
"show-reward","104","258261","0.0-104.0","p438661","A272X64FOZFYLB","336OE47KI3QZCSCUXSQ8J11UOZXVWV","32N49TQG3IO5SZ7LMPZHQWZSFSNVA4","model","match","uniform","","","","","","","","257618.90000000037","259620.09999999963","","","","","","","","","","","","6","","stimuli/stars_6.png","176.5","","","","","stimuli/HF10_DO.jpg","",""
"explore-choice","105","260307","0.0-105.0","p438661","A272X64FOZFYLB","336OE47KI3QZCSCUXSQ8J11UOZXVWV","32N49TQG3IO5SZ7LMPZHQWZSFSNVA4","model","match","uniform","","","","","","","1544.2000000011176","259620.59999999963","261164.80000000075","[""stimuli/HF02_AO.jpg"",""stimuli/WF06_SC.jpg"",""stimuli/WF11_FO.jpg"",""stimuli/HF10_DO.jpg""]","stimuli/HF02_AO.jpg","stimuli/WF06_SC.jpg","stimuli/WF11_FO.jpg","stimuli/HF10_DO.jpg","pos3","stimuli/WF11_FO.jpg","FO","WF11","2","3","6","4","stimuli/stars_6.png","179.5","[""AO"",""SC"",""FO"",""DO""]","[""HF02"",""WF06"",""WF11"",""HF10""]","[8,2,6,5]","[8,2,4,6]","","",""
"show-reward","106","262309","0.0-106.0","p438661","A272X64FOZFYLB","336OE47KI3QZCSCUXSQ8J11UOZXVWV","32N49TQG3IO5SZ7LMPZHQWZSFSNVA4","model","match","uniform","","","","","","","","261666.30000000075","263668","","","","","","","","","","","","6","","stimuli/stars_6.png","179.5","","","","","stimuli/WF11_FO.jpg","",""
"explore-choice","107","264114","0.0-107.0","p438661","A272X64FOZFYLB","336OE47KI3QZCSCUXSQ8J11UOZXVWV","32N49TQG3IO5SZ7LMPZHQWZSFSNVA4","model","match","uniform","","","","","","","1304.0999999996275","263668.5","264972.5999999996","[""stimuli/WF06_FO.jpg"",""stimuli/WF11_AO.jpg"",""stimuli/HF02_SC.jpg"",""stimuli/HF10_DO.jpg""]","stimuli/WF06_FO.jpg","stimuli/WF11_AO.jpg","stimuli/HF02_SC.jpg","stimuli/HF10_DO.jpg","pos1","stimuli/WF06_FO.jpg","FO","WF06","0","0","0","2","stimuli/stars_0.png","179.5","[""FO"",""AO"",""SC"",""DO""]","[""WF06"",""WF11"",""HF02"",""HF10""]","[0,3,10,7]","[2,4,8,6]","","",""
"show-reward","108","266117","0.0-108.0","p438661","A272X64FOZFYLB","336OE47KI3QZCSCUXSQ8J11UOZXVWV","32N49TQG3IO5SZ7LMPZHQWZSFSNVA4","model","match","uniform","","","","","","","","265474.2000000011","267476","","","","","","","","","","","","0","","stimuli/stars_0.png","179.5","","","","","stimuli/WF06_FO.jpg","",""
"explore-choice","109","267423","0.0-109.0","p438661","A272X64FOZFYLB","336OE47KI3QZCSCUXSQ8J11UOZXVWV","32N49TQG3IO5SZ7LMPZHQWZSFSNVA4","model","match","uniform","","","","","","","804.2999999988824","267476.7000000011","268281","[""stimuli/HF02_FO.jpg"",""stimuli/WF06_DO.jpg"",""stimuli/WF11_AO.jpg"",""stimuli/HF10_SC.jpg""]","stimuli/HF02_FO.jpg","stimuli/WF06_DO.jpg","stimuli/WF11_AO.jpg","stimuli/HF10_SC.jpg","pos1","stimuli/HF02_FO.jpg","FO","HF02","0","5","10","8","stimuli/stars_10.png","184.5","[""FO"",""DO"",""AO"",""SC""]","[""HF02"",""WF06"",""WF11"",""HF10""]","[10,1,3,5]","[8,2,4,6]","","",""
"show-reward","110","269426","0.0-110.0","p438661","A272X64FOZFYLB","336OE47KI3QZCSCUXSQ8J11UOZXVWV","32N49TQG3IO5SZ7LMPZHQWZSFSNVA4","model","match","uniform","","","","","","","","268782.9000000004","270785.0999999996","","","","","","","","","","","","10","","stimuli/stars_10.png","184.5","","","","","stimuli/HF02_FO.jpg","",""
"explore-choice","111","270815","0.0-111.0","p438661","A272X64FOZFYLB","336OE47KI3QZCSCUXSQ8J11UOZXVWV","32N49TQG3IO5SZ7LMPZHQWZSFSNVA4","model","match","uniform","","","","","","","886.5999999996275","270785.80000000075","271672.4000000004","[""stimuli/WF06_SC.jpg"",""stimuli/HF02_AO.jpg"",""stimuli/HF10_FO.jpg"",""stimuli/WF11_DO.jpg""]","stimuli/WF06_SC.jpg","stimuli/HF02_AO.jpg","stimuli/HF10_FO.jpg","stimuli/WF11_DO.jpg","pos2","stimuli/HF02_AO.jpg","AO","HF02","1","5","10","8","stimuli/stars_10.png","189.5","[""SC"",""AO"",""FO"",""DO""]","[""WF06"",""HF02"",""HF10"",""WF11""]","[1,10,8,5]","[2,8,6,4]","","",""
"show-reward","112","272817","0.0-112.0","p438661","A272X64FOZFYLB","336OE47KI3QZCSCUXSQ8J11UOZXVWV","32N49TQG3IO5SZ7LMPZHQWZSFSNVA4","model","match","uniform","","","","","","","","272174.5","274176.0999999996","","","","","","","","","","","","10","","stimuli/stars_10.png","189.5","","","","","stimuli/HF02_AO.jpg","",""
"explore-choice","113","274242","0.0-113.0","p438661","A272X64FOZFYLB","336OE47KI3QZCSCUXSQ8J11UOZXVWV","32N49TQG3IO5SZ7LMPZHQWZSFSNVA4","model","match","uniform","","","","","","","924.1999999992549","274176.80000000075","275101","[""stimuli/WF06_FO.jpg"",""stimuli/HF10_SC.jpg"",""stimuli/HF02_DO.jpg"",""stimuli/WF11_AO.jpg""]","stimuli/WF06_FO.jpg","stimuli/HF10_SC.jpg","stimuli/HF02_DO.jpg","stimuli/WF11_AO.jpg","pos3","stimuli/HF02_DO.jpg","DO","HF02","2","3","6","8","stimuli/stars_6.png","192.5","[""FO"",""SC"",""DO"",""AO""]","[""WF06"",""HF10"",""HF02"",""WF11""]","[1,8,6,5]","[2,6,8,4]","","",""
"show-reward","114","276245","0.0-114.0","p438661","A272X64FOZFYLB","336OE47KI3QZCSCUXSQ8J11UOZXVWV","32N49TQG3IO5SZ7LMPZHQWZSFSNVA4","model","match","uniform","","","","","","","","275602.2000000011","277604","","","","","","","","","","","","6","","stimuli/stars_6.png","192.5","","","","","stimuli/HF02_DO.jpg","",""
"explore-choice","115","277573","0.0-115.0","p438661","A272X64FOZFYLB","336OE47KI3QZCSCUXSQ8J11UOZXVWV","32N49TQG3IO5SZ7LMPZHQWZSFSNVA4","model","match","uniform","","","","","","","823.8999999985099","277604.7000000011","278428.5999999996","[""stimuli/HF10_AO.jpg"",""stimuli/HF02_DO.jpg"",""stimuli/WF11_FO.jpg"",""stimuli/WF06_SC.jpg""]","stimuli/HF10_AO.jpg","stimuli/HF02_DO.jpg","stimuli/WF11_FO.jpg","stimuli/WF06_SC.jpg","pos2","stimuli/HF02_DO.jpg","DO","HF02","1","3","6","8","stimuli/stars_6.png","195.5","[""AO"",""DO"",""FO"",""SC""]","[""HF10"",""HF02"",""WF11"",""WF06""]","[8,6,2,0]","[6,8,4,2]","","",""
"show-reward","116","279576","0.0-116.0","p438661","A272X64FOZFYLB","336OE47KI3QZCSCUXSQ8J11UOZXVWV","32N49TQG3IO5SZ7LMPZHQWZSFSNVA4","model","match","uniform","","","","","","","","278932.5999999996","280934.7000000011","","","","","","","","","","","","6","","stimuli/stars_6.png","195.5","","","","","stimuli/HF02_DO.jpg","",""
"explore-choice","117","281690","0.0-117.0","p438661","A272X64FOZFYLB","336OE47KI3QZCSCUXSQ8J11UOZXVWV","32N49TQG3IO5SZ7LMPZHQWZSFSNVA4","model","match","uniform","","","","","","","1612.199999999255","280935.4000000004","282547.5999999996","[""stimuli/WF06_AO.jpg"",""stimuli/HF02_FO.jpg"",""stimuli/HF10_SC.jpg"",""stimuli/WF11_DO.jpg""]","stimuli/WF06_AO.jpg","stimuli/HF02_FO.jpg","stimuli/HF10_SC.jpg","stimuli/WF11_DO.jpg","pos2","stimuli/HF02_FO.jpg","FO","HF02","1","3","6","8","stimuli/stars_6.png","198.5","[""AO"",""FO"",""SC"",""DO""]","[""WF06"",""HF02"",""HF10"",""WF11""]","[4,6,7,2]","[2,8,6,4]","","",""
"show-reward","118","283692","0.0-118.0","p438661","A272X64FOZFYLB","336OE47KI3QZCSCUXSQ8J11UOZXVWV","32N49TQG3IO5SZ7LMPZHQWZSFSNVA4","model","match","uniform","","","","","","","","283049.4000000004","285050.9000000004","","","","","","","","","","","","6","","stimuli/stars_6.png","198.5","","","","","stimuli/HF02_FO.jpg","",""
"explore-choice","119","285106","0.0-119.0","p438661","A272X64FOZFYLB","336OE47KI3QZCSCUXSQ8J11UOZXVWV","32N49TQG3IO5SZ7LMPZHQWZSFSNVA4","model","match","uniform","","","","","","","912.2999999988824","285051.80000000075","285964.0999999996","[""stimuli/HF10_SC.jpg"",""stimuli/WF11_FO.jpg"",""stimuli/WF06_DO.jpg"",""stimuli/HF02_AO.jpg""]","stimuli/HF10_SC.jpg","stimuli/WF11_FO.jpg","stimuli/WF06_DO.jpg","stimuli/HF02_AO.jpg","pos4","stimuli/HF02_AO.jpg","AO","HF02","3","4","8","8","stimuli/stars_8.png","202.5","[""SC"",""FO"",""DO"",""AO""]","[""HF10"",""WF11"",""WF06"",""HF02""]","[8,2,0,8]","[6,4,2,8]","","",""
"show-reward","120","287108","0.0-120.0","p438661","A272X64FOZFYLB","336OE47KI3QZCSCUXSQ8J11UOZXVWV","32N49TQG3IO5SZ7LMPZHQWZSFSNVA4","model","match","uniform","","","","","","","","286465.2000000011","288466.5","","","","","","","","","","","","8","","stimuli/stars_8.png","202.5","","","","","stimuli/HF02_AO.jpg","",""
"explore-choice","121","288490","0.0-121.0","p438661","A272X64FOZFYLB","336OE47KI3QZCSCUXSQ8J11UOZXVWV","32N49TQG3IO5SZ7LMPZHQWZSFSNVA4","model","match","uniform","","","","","","","881.1000000014901","288467.0999999996","289348.2000000011","[""stimuli/WF06_FO.jpg"",""stimuli/HF10_SC.jpg"",""stimuli/HF02_AO.jpg"",""stimuli/WF11_DO.jpg""]","stimuli/WF06_FO.jpg","stimuli/HF10_SC.jpg","stimuli/HF02_AO.jpg","stimuli/WF11_DO.jpg","pos3","stimuli/HF02_AO.jpg","AO","HF02","2","5","10","8","stimuli/stars_10.png","207.5","[""FO"",""SC"",""AO"",""DO""]","[""WF06"",""HF10"",""HF02"",""WF11""]","[1,8,10,4]","[2,6,8,4]","","",""
"show-reward","122","290494","0.0-122.0","p438661","A272X64FOZFYLB","336OE47KI3QZCSCUXSQ8J11UOZXVWV","32N49TQG3IO5SZ7LMPZHQWZSFSNVA4","model","match","uniform","","","","","","","","289850.0999999996","291852.7000000011","","","","","","","","","","","","10","","stimuli/stars_10.png","207.5","","","","","stimuli/HF02_AO.jpg","",""
"explore-choice","123","291823","0.0-123.0","p438661","A272X64FOZFYLB","336OE47KI3QZCSCUXSQ8J11UOZXVWV","32N49TQG3IO5SZ7LMPZHQWZSFSNVA4","model","match","uniform","","","","","","","827.5","291853.30000000075","292680.80000000075","[""stimuli/HF02_DO.jpg"",""stimuli/HF10_FO.jpg"",""stimuli/WF11_SC.jpg"",""stimuli/WF06_AO.jpg""]","stimuli/HF02_DO.jpg","stimuli/HF10_FO.jpg","stimuli/WF11_SC.jpg","stimuli/WF06_AO.jpg","pos1","stimuli/HF02_DO.jpg","DO","HF02","0","5","10","8","stimuli/stars_10.png","212.5","[""DO"",""FO"",""SC"",""AO""]","[""HF02"",""HF10"",""WF11"",""WF06""]","[10,5,5,0]","[8,6,4,2]","","",""
"show-reward","124","293826","0.0-124.0","p438661","A272X64FOZFYLB","336OE47KI3QZCSCUXSQ8J11UOZXVWV","32N49TQG3IO5SZ7LMPZHQWZSFSNVA4","model","match","uniform","","","","","","","","293182.7000000011","295185.2000000011","","","","","","","","","","","","10","","stimuli/stars_10.png","212.5","","","","","stimuli/HF02_DO.jpg","",""
"explore-choice","125","294918","0.0-125.0","p438661","A272X64FOZFYLB","336OE47KI3QZCSCUXSQ8J11UOZXVWV","32N49TQG3IO5SZ7LMPZHQWZSFSNVA4","model","match","uniform","","","","","","","590.3000000007451","295185.9000000004","295776.2000000011","[""stimuli/HF02_SC.jpg"",""stimuli/HF10_DO.jpg"",""stimuli/WF11_FO.jpg"",""stimuli/WF06_AO.jpg""]","stimuli/HF02_SC.jpg","stimuli/HF10_DO.jpg","stimuli/WF11_FO.jpg","stimuli/WF06_AO.jpg","pos1","stimuli/HF02_SC.jpg","SC","HF02","0","3","6","8","stimuli/stars_6.png","215.5","[""SC"",""DO"",""FO"",""AO""]","[""HF02"",""HF10"",""WF11"",""WF06""]","[6,8,3,0]","[8,6,4,2]","","",""
"show-reward","126","296921","0.0-126.0","p438661","A272X64FOZFYLB","336OE47KI3QZCSCUXSQ8J11UOZXVWV","32N49TQG3IO5SZ7LMPZHQWZSFSNVA4","model","match","uniform","","","","","","","","296277.80000000075","298280.30000000075","","","","","","","","","","","","6","","stimuli/stars_6.png","215.5","","","","","stimuli/HF02_SC.jpg","",""
"explore-choice","127","298147","0.0-127.0","p438661","A272X64FOZFYLB","336OE47KI3QZCSCUXSQ8J11UOZXVWV","32N49TQG3IO5SZ7LMPZHQWZSFSNVA4","model","match","uniform","","","","","","","723.8000000007451","298281","299004.80000000075","[""stimuli/WF06_FO.jpg"",""stimuli/HF02_DO.jpg"",""stimuli/HF10_AO.jpg"",""stimuli/WF11_SC.jpg""]","stimuli/WF06_FO.jpg","stimuli/HF02_DO.jpg","stimuli/HF10_AO.jpg","stimuli/WF11_SC.jpg","pos2","stimuli/HF02_DO.jpg","DO","HF02","1","4.5","9","8","stimuli/stars_9.png","220","[""FO"",""DO"",""AO"",""SC""]","[""WF06"",""HF02"",""HF10"",""WF11""]","[3,9,6,6]","[2,8,6,4]","","",""
"show-reward","128","300150","0.0-128.0","p438661","A272X64FOZFYLB","336OE47KI3QZCSCUXSQ8J11UOZXVWV","32N49TQG3IO5SZ7LMPZHQWZSFSNVA4","model","match","uniform","","","","","","","","299507","301508.80000000075","","","","","","","","","","","","9","","stimuli/stars_9.png","220","","","","","stimuli/HF02_DO.jpg","",""
"explore-choice","129","301406","0.0-129.0","p438661","A272X64FOZFYLB","336OE47KI3QZCSCUXSQ8J11UOZXVWV","32N49TQG3IO5SZ7LMPZHQWZSFSNVA4","model","match","uniform","","","","","","","755.3000000007451","301509.4000000004","302264.7000000011","[""stimuli/HF02_SC.jpg"",""stimuli/HF10_AO.jpg"",""stimuli/WF06_FO.jpg"",""stimuli/WF11_DO.jpg""]","stimuli/HF02_SC.jpg","stimuli/HF10_AO.jpg","stimuli/WF06_FO.jpg","stimuli/WF11_DO.jpg","pos1","stimuli/HF02_SC.jpg","SC","HF02","0","3","6","8","stimuli/stars_6.png","223","[""SC"",""AO"",""FO"",""DO""]","[""HF02"",""HF10"",""WF06"",""WF11""]","[6,8,0,2]","[8,6,2,4]","","",""
"show-reward","130","303409","0.0-130.0","p438661","A272X64FOZFYLB","336OE47KI3QZCSCUXSQ8J11UOZXVWV","32N49TQG3IO5SZ7LMPZHQWZSFSNVA4","model","match","uniform","","","","","","","","302765.5999999996","304768.0999999996","","","","","","","","","","","","6","","stimuli/stars_6.png","223","","","","","stimuli/HF02_SC.jpg","",""
"explore-choice","131","304814","0.0-131.0","p438661","A272X64FOZFYLB","336OE47KI3QZCSCUXSQ8J11UOZXVWV","32N49TQG3IO5SZ7LMPZHQWZSFSNVA4","model","match","uniform","","","","","","","904.0999999996275","304768.7000000011","305672.80000000075","[""stimuli/WF11_SC.jpg"",""stimuli/HF10_FO.jpg"",""stimuli/HF02_AO.jpg"",""stimuli/WF06_DO.jpg""]","stimuli/WF11_SC.jpg","stimuli/HF10_FO.jpg","stimuli/HF02_AO.jpg","stimuli/WF06_DO.jpg","pos3","stimuli/HF02_AO.jpg","AO","HF02","2","5","10","8","stimuli/stars_10.png","228","[""SC"",""FO"",""AO"",""DO""]","[""WF11"",""HF10"",""HF02"",""WF06""]","[6,4,10,3]","[4,6,8,2]","","",""
"show-reward","132","306817","0.0-132.0","p438661","A272X64FOZFYLB","336OE47KI3QZCSCUXSQ8J11UOZXVWV","32N49TQG3IO5SZ7LMPZHQWZSFSNVA4","model","match","uniform","","","","","","","","306174.0999999996","308176","","","","","","","","","","","","10","","stimuli/stars_10.png","228","","","","","stimuli/HF02_AO.jpg","",""
"explore-choice","133","308030","0.0-133.0","p438661","A272X64FOZFYLB","336OE47KI3QZCSCUXSQ8J11UOZXVWV","32N49TQG3IO5SZ7LMPZHQWZSFSNVA4","model","match","uniform","","","","","","","695.8999999985099","308176.7000000011","308872.5999999996","[""stimuli/HF10_FO.jpg"",""stimuli/WF06_SC.jpg"",""stimuli/WF11_AO.jpg"",""stimuli/HF02_DO.jpg""]","stimuli/HF10_FO.jpg","stimuli/WF06_SC.jpg","stimuli/WF11_AO.jpg","stimuli/HF02_DO.jpg","pos4","stimuli/HF02_DO.jpg","DO","HF02","3","3.5","7","8","stimuli/stars_7.png","231.5","[""FO"",""SC"",""AO"",""DO""]","[""HF10"",""WF06"",""WF11"",""HF02""]","[4,1,5,7]","[6,2,4,8]","","",""
"show-reward","134","310032","0.0-134.0","p438661","A272X64FOZFYLB","336OE47KI3QZCSCUXSQ8J11UOZXVWV","32N49TQG3IO5SZ7LMPZHQWZSFSNVA4","model","match","uniform","","","","","","","","309389.4000000004","311391.5","","","","","","","","","","","","7","","stimuli/stars_7.png","231.5","","","","","stimuli/HF02_DO.jpg","",""
"explore-choice","135","311491","0.0-135.0","p438661","A272X64FOZFYLB","336OE47KI3QZCSCUXSQ8J11UOZXVWV","32N49TQG3IO5SZ7LMPZHQWZSFSNVA4","model","match","uniform","","","","","","","956.7000000011176","311392.0999999996","312348.80000000075","[""stimuli/HF02_FO.jpg"",""stimuli/HF10_AO.jpg"",""stimuli/WF06_SC.jpg"",""stimuli/WF11_DO.jpg""]","stimuli/HF02_FO.jpg","stimuli/HF10_AO.jpg","stimuli/WF06_SC.jpg","stimuli/WF11_DO.jpg","pos1","stimuli/HF02_FO.jpg","FO","HF02","0","4","8","8","stimuli/stars_8.png","235.5","[""FO"",""AO"",""SC"",""DO""]","[""HF02"",""HF10"",""WF06"",""WF11""]","[8,8,2,2]","[8,6,2,4]","","",""
"show-reward","136","313493","0.0-136.0","p438661","A272X64FOZFYLB","336OE47KI3QZCSCUXSQ8J11UOZXVWV","32N49TQG3IO5SZ7LMPZHQWZSFSNVA4","model","match","uniform","","","","","","","","312850.2000000011","314851.5999999996","","","","","","","","","","","","8","","stimuli/stars_8.png","235.5","","","","","stimuli/HF02_FO.jpg","",""
"explore-choice","137","314868","0.0-137.0","p438661","A272X64FOZFYLB","336OE47KI3QZCSCUXSQ8J11UOZXVWV","32N49TQG3IO5SZ7LMPZHQWZSFSNVA4","model","match","uniform","","","","","","","873.5","314852.30000000075","315725.80000000075","[""stimuli/WF06_AO.jpg"",""stimuli/HF02_SC.jpg"",""stimuli/HF10_FO.jpg"",""stimuli/WF11_DO.jpg""]","stimuli/WF06_AO.jpg","stimuli/HF02_SC.jpg","stimuli/HF10_FO.jpg","stimuli/WF11_DO.jpg","pos2","stimuli/HF02_SC.jpg","SC","HF02","1","3.5","7","8","stimuli/stars_7.png","239","[""AO"",""SC"",""FO"",""DO""]","[""WF06"",""HF02"",""HF10"",""WF11""]","[2,7,8,6]","[2,8,6,4]","","",""
"show-reward","138","316873","0.0-138.0","p438661","A272X64FOZFYLB","336OE47KI3QZCSCUXSQ8J11UOZXVWV","32N49TQG3IO5SZ7LMPZHQWZSFSNVA4","model","match","uniform","","","","","","","","316227.5999999996","318232.5","","","","","","","","","","","","7","","stimuli/stars_7.png","239","","","","","stimuli/HF02_SC.jpg","",""
"explore-choice","139","318006","0.0-139.0","p438661","A272X64FOZFYLB","336OE47KI3QZCSCUXSQ8J11UOZXVWV","32N49TQG3IO5SZ7LMPZHQWZSFSNVA4","model","match","uniform","","","","","","","631.1999999992549","318233.2000000011","318864.4000000004","[""stimuli/HF02_FO.jpg"",""stimuli/HF10_DO.jpg"",""stimuli/WF11_SC.jpg"",""stimuli/WF06_AO.jpg""]","stimuli/HF02_FO.jpg","stimuli/HF10_DO.jpg","stimuli/WF11_SC.jpg","stimuli/WF06_AO.jpg","pos1","stimuli/HF02_FO.jpg","FO","HF02","0","4.5","9","8","stimuli/stars_9.png","243.5","[""FO"",""DO"",""SC"",""AO""]","[""HF02"",""HF10"",""WF11"",""WF06""]","[9,8,4,1]","[8,6,4,2]","","",""
"show-reward","140","320009","0.0-140.0","p438661","A272X64FOZFYLB","336OE47KI3QZCSCUXSQ8J11UOZXVWV","32N49TQG3IO5SZ7LMPZHQWZSFSNVA4","model","match","uniform","","","","","","","","319365.7000000011","321367.80000000075","","","","","","","","","","","","9","","stimuli/stars_9.png","243.5","","","","","stimuli/HF02_FO.jpg","",""
"explore-choice","141","321746","0.0-141.0","p438661","A272X64FOZFYLB","336OE47KI3QZCSCUXSQ8J11UOZXVWV","32N49TQG3IO5SZ7LMPZHQWZSFSNVA4","model","match","uniform","","","","","","","944.5","321368.30000000075","322312.80000000075","[""stimuli/HF10_AO.jpg"",""stimuli/WF06_DO.jpg"",""stimuli/HF02_FO.jpg"",""stimuli/WF11_SC.jpg""]","stimuli/HF10_AO.jpg","stimuli/WF06_DO.jpg","stimuli/HF02_FO.jpg","stimuli/WF11_SC.jpg","pos3","stimuli/HF02_FO.jpg","FO","HF02","2","5","10","8","stimuli/stars_10.png","248.5","[""AO"",""DO"",""FO"",""SC""]","[""HF10"",""WF06"",""HF02"",""WF11""]","[6,2,10,2]","[6,2,8,4]","","",""
"show-reward","142","323748","0.0-142.0","p438661","A272X64FOZFYLB","336OE47KI3QZCSCUXSQ8J11UOZXVWV","32N49TQG3IO5SZ7LMPZHQWZSFSNVA4","model","match","uniform","","","","","","","","323105.4000000004","325107.0999999996","","","","","","","","","","","","10","","stimuli/stars_10.png","248.5","","","","","stimuli/HF02_FO.jpg","",""
"explore-choice","143","325745","0.0-143.0","p438661","A272X64FOZFYLB","336OE47KI3QZCSCUXSQ8J11UOZXVWV","32N49TQG3IO5SZ7LMPZHQWZSFSNVA4","model","match","uniform","","","","","","","1004.0999999996275","325108","326112.0999999996","[""stimuli/HF02_SC.jpg"",""stimuli/HF10_FO.jpg"",""stimuli/WF06_DO.jpg"",""stimuli/WF11_AO.jpg""]","stimuli/HF02_SC.jpg","stimuli/HF10_FO.jpg","stimuli/WF06_DO.jpg","stimuli/WF11_AO.jpg","pos1","stimuli/HF02_SC.jpg","SC","HF02","0","5","10","8","stimuli/stars_10.png","253.5","[""SC"",""FO"",""DO"",""AO""]","[""HF02"",""HF10"",""WF06"",""WF11""]","[10,7,3,2]","[8,6,2,4]","","",""
"show-reward","144","327747","0.0-144.0","p438661","A272X64FOZFYLB","336OE47KI3QZCSCUXSQ8J11UOZXVWV","32N49TQG3IO5SZ7LMPZHQWZSFSNVA4","model","match","uniform","","","","","","","","327104.9000000004","329106.30000000075","","","","","","","","","","","","10","","stimuli/stars_10.png","253.5","","","","","stimuli/HF02_SC.jpg","",""
"explore-choice","145","328987","0.0-145.0","p438661","A272X64FOZFYLB","336OE47KI3QZCSCUXSQ8J11UOZXVWV","32N49TQG3IO5SZ7LMPZHQWZSFSNVA4","model","match","uniform","","","","","","","737.5999999996275","329106.80000000075","329844.4000000004","[""stimuli/HF02_AO.jpg"",""stimuli/WF06_FO.jpg"",""stimuli/WF11_SC.jpg"",""stimuli/HF10_DO.jpg""]","stimuli/HF02_AO.jpg","stimuli/WF06_FO.jpg","stimuli/WF11_SC.jpg","stimuli/HF10_DO.jpg","pos1","stimuli/HF02_AO.jpg","AO","HF02","0","5","10","8","stimuli/stars_10.png","258.5","[""AO"",""FO"",""SC"",""DO""]","[""HF02"",""WF06"",""WF11"",""HF10""]","[10,2,5,6]","[8,2,4,6]","","",""
"show-reward","146","330989","0.0-146.0","p438661","A272X64FOZFYLB","336OE47KI3QZCSCUXSQ8J11UOZXVWV","32N49TQG3IO5SZ7LMPZHQWZSFSNVA4","model","match","uniform","","","","","","","","330346.2000000011","332347.7000000011","","","","","","","","","","","","10","","stimuli/stars_10.png","258.5","","","","","stimuli/HF02_AO.jpg","",""
"explore-choice","147","332250","0.0-147.0","p438661","A272X64FOZFYLB","336OE47KI3QZCSCUXSQ8J11UOZXVWV","32N49TQG3IO5SZ7LMPZHQWZSFSNVA4","model","match","uniform","","","","","","","759.6999999992549","332348.4000000004","333108.0999999996","[""stimuli/WF06_DO.jpg"",""stimuli/HF02_SC.jpg"",""stimuli/WF11_FO.jpg"",""stimuli/HF10_AO.jpg""]","stimuli/WF06_DO.jpg","stimuli/HF02_SC.jpg","stimuli/WF11_FO.jpg","stimuli/HF10_AO.jpg","pos2","stimuli/HF02_SC.jpg","SC","HF02","1","5","10","8","stimuli/stars_10.png","263.5","[""DO"",""SC"",""FO"",""AO""]","[""WF06"",""HF02"",""WF11"",""HF10""]","[1,10,5,7]","[2,8,4,6]","","",""
"show-reward","148","334252","0.0-148.0","p438661","A272X64FOZFYLB","336OE47KI3QZCSCUXSQ8J11UOZXVWV","32N49TQG3IO5SZ7LMPZHQWZSFSNVA4","model","match","uniform","","","","","","","","333609.5","335611.2000000011","","","","","","","","","","","","10","","stimuli/stars_10.png","263.5","","","","","stimuli/HF02_SC.jpg","",""
"explore-choice","149","335618","0.0-149.0","p438661","A272X64FOZFYLB","336OE47KI3QZCSCUXSQ8J11UOZXVWV","32N49TQG3IO5SZ7LMPZHQWZSFSNVA4","model","match","uniform","","","","","","","860.1999999992549","335612.4000000004","336472.5999999996","[""stimuli/WF06_AO.jpg"",""stimuli/WF11_FO.jpg"",""stimuli/HF02_DO.jpg"",""stimuli/HF10_SC.jpg""]","stimuli/WF06_AO.jpg","stimuli/WF11_FO.jpg","stimuli/HF02_DO.jpg","stimuli/HF10_SC.jpg","pos3","stimuli/HF02_DO.jpg","DO","HF02","2","5","10","8","stimuli/stars_10.png","268.5","[""AO"",""FO"",""DO"",""SC""]","[""WF06"",""WF11"",""HF02"",""HF10""]","[3,3,10,4]","[2,4,8,6]","","",""
"show-reward","150","337620","0.0-150.0","p438661","A272X64FOZFYLB","336OE47KI3QZCSCUXSQ8J11UOZXVWV","32N49TQG3IO5SZ7LMPZHQWZSFSNVA4","model","match","uniform","","","","","","","","336977.5","338979.0999999996","","","","","","","","","","","","10","","stimuli/stars_10.png","268.5","","","","","stimuli/HF02_DO.jpg","",""
"explore-choice","151","339271","0.0-151.0","p438661","A272X64FOZFYLB","336OE47KI3QZCSCUXSQ8J11UOZXVWV","32N49TQG3IO5SZ7LMPZHQWZSFSNVA4","model","match","uniform","","","","","","","1149","338979.7000000011","340128.7000000011","[""stimuli/HF10_DO.jpg"",""stimuli/HF02_FO.jpg"",""stimuli/WF11_AO.jpg"",""stimuli/WF06_SC.jpg""]","stimuli/HF10_DO.jpg","stimuli/HF02_FO.jpg","stimuli/WF11_AO.jpg","stimuli/WF06_SC.jpg","pos2","stimuli/HF02_FO.jpg","FO","HF02","1","3.5","7","8","stimuli/stars_7.png","272","[""DO"",""FO"",""AO"",""SC""]","[""HF10"",""HF02"",""WF11"",""WF06""]","[6,7,5,2]","[6,8,4,2]","","",""
"show-reward","152","341280","0.0-152.0","p438661","A272X64FOZFYLB","336OE47KI3QZCSCUXSQ8J11UOZXVWV","32N49TQG3IO5SZ7LMPZHQWZSFSNVA4","model","match","uniform","","","","","","","","340630.5","342639.4000000004","","","","","","","","","","","","7","","stimuli/stars_7.png","272","","","","","stimuli/HF02_FO.jpg","",""
"explore-choice","153","342403","0.0-153.0","p438661","A272X64FOZFYLB","336OE47KI3QZCSCUXSQ8J11UOZXVWV","32N49TQG3IO5SZ7LMPZHQWZSFSNVA4","model","match","uniform","","","","","","","620.5","342640.2000000011","343260.7000000011","[""stimuli/HF02_FO.jpg"",""stimuli/HF10_AO.jpg"",""stimuli/WF11_SC.jpg"",""stimuli/WF06_DO.jpg""]","stimuli/HF02_FO.jpg","stimuli/HF10_AO.jpg","stimuli/WF11_SC.jpg","stimuli/WF06_DO.jpg","pos1","stimuli/HF02_FO.jpg","FO","HF02","0","5","10","8","stimuli/stars_10.png","277","[""FO"",""AO"",""SC"",""DO""]","[""HF02"",""HF10"",""WF11"",""WF06""]","[10,6,2,2]","[8,6,4,2]","","",""
"show-reward","154","344406","0.0-154.0","p438661","A272X64FOZFYLB","336OE47KI3QZCSCUXSQ8J11UOZXVWV","32N49TQG3IO5SZ7LMPZHQWZSFSNVA4","model","match","uniform","","","","","","","","343762.5999999996","345764.7000000011","","","","","","","","","","","","10","","stimuli/stars_10.png","277","","","","","stimuli/HF02_FO.jpg","",""
"explore-choice","155","345666","0.0-155.0","p438661","A272X64FOZFYLB","336OE47KI3QZCSCUXSQ8J11UOZXVWV","32N49TQG3IO5SZ7LMPZHQWZSFSNVA4","model","match","uniform","","","","","","","759.2999999988824","345765.30000000075","346524.5999999996","[""stimuli/WF11_FO.jpg"",""stimuli/HF10_AO.jpg"",""stimuli/HF02_DO.jpg"",""stimuli/WF06_SC.jpg""]","stimuli/WF11_FO.jpg","stimuli/HF10_AO.jpg","stimuli/HF02_DO.jpg","stimuli/WF06_SC.jpg","pos3","stimuli/HF02_DO.jpg","DO","HF02","2","3","6","8","stimuli/stars_6.png","280","[""FO"",""AO"",""DO"",""SC""]","[""WF11"",""HF10"",""HF02"",""WF06""]","[2,8,6,0]","[4,6,8,2]","","",""
"show-reward","156","347668","0.0-156.0","p438661","A272X64FOZFYLB","336OE47KI3QZCSCUXSQ8J11UOZXVWV","32N49TQG3IO5SZ7LMPZHQWZSFSNVA4","model","match","uniform","","","","","","","","347025.80000000075","349027.4000000004","","","","","","","","","","","","6","","stimuli/stars_6.png","280","","","","","stimuli/HF02_DO.jpg","",""
"explore-choice","157","349111","0.0-157.0","p438661","A272X64FOZFYLB","336OE47KI3QZCSCUXSQ8J11UOZXVWV","32N49TQG3IO5SZ7LMPZHQWZSFSNVA4","model","match","uniform","","","","","","","940.8000000007451","349028.0999999996","349968.9000000004","[""stimuli/HF10_FO.jpg"",""stimuli/HF02_DO.jpg"",""stimuli/WF11_SC.jpg"",""stimuli/WF06_AO.jpg""]","stimuli/HF10_FO.jpg","stimuli/HF02_DO.jpg","stimuli/WF11_SC.jpg","stimuli/WF06_AO.jpg","pos2","stimuli/HF02_DO.jpg","DO","HF02","1","5","10","8","stimuli/stars_10.png","285","[""FO"",""DO"",""SC"",""AO""]","[""HF10"",""HF02"",""WF11"",""WF06""]","[5,10,5,0]","[6,8,4,2]","","",""
"show-reward","158","351112","0.0-158.0","p438661","A272X64FOZFYLB","336OE47KI3QZCSCUXSQ8J11UOZXVWV","32N49TQG3IO5SZ7LMPZHQWZSFSNVA4","model","match","uniform","","","","","","","","350470.30000000075","352471.4000000004","","","","","","","","","","","","10","","stimuli/stars_10.png","285","","","","","stimuli/HF02_DO.jpg","",""
"explore-choice","159","352182","0.0-159.0","p438661","A272X64FOZFYLB","336OE47KI3QZCSCUXSQ8J11UOZXVWV","32N49TQG3IO5SZ7LMPZHQWZSFSNVA4","model","match","uniform","","","","","","","568.2000000011176","352472.0999999996","353040.30000000075","[""stimuli/HF10_AO.jpg"",""stimuli/HF02_SC.jpg"",""stimuli/WF06_DO.jpg"",""stimuli/WF11_FO.jpg""]","stimuli/HF10_AO.jpg","stimuli/HF02_SC.jpg","stimuli/WF06_DO.jpg","stimuli/WF11_FO.jpg","pos2","stimuli/HF02_SC.jpg","SC","HF02","1","5","10","8","stimuli/stars_10.png","290","[""AO"",""SC"",""DO"",""FO""]","[""HF10"",""HF02"",""WF06"",""WF11""]","[7,10,1,5]","[6,8,2,4]","","",""
"show-reward","160","354185","0.0-160.0","p438661","A272X64FOZFYLB","336OE47KI3QZCSCUXSQ8J11UOZXVWV","32N49TQG3IO5SZ7LMPZHQWZSFSNVA4","model","match","uniform","","","","","","","","353542.0999999996","355543.5999999996","","","","","","","","","","","","10","","stimuli/stars_10.png","290","","","","","stimuli/HF02_SC.jpg","",""
"explore-choice","161","355391","0.0-161.0","p438661","A272X64FOZFYLB","336OE47KI3QZCSCUXSQ8J11UOZXVWV","32N49TQG3IO5SZ7LMPZHQWZSFSNVA4","model","match","uniform","","","","","","","693.0999999996275","355544.2000000011","356237.30000000075","[""stimuli/HF02_FO.jpg"",""stimuli/WF11_AO.jpg"",""stimuli/WF06_DO.jpg"",""stimuli/HF10_SC.jpg""]","stimuli/HF02_FO.jpg","stimuli/WF11_AO.jpg","stimuli/WF06_DO.jpg","stimuli/HF10_SC.jpg","pos1","stimuli/HF02_FO.jpg","FO","HF02","0","5","10","8","stimuli/stars_10.png","295","[""FO"",""AO"",""DO"",""SC""]","[""HF02"",""WF11"",""WF06"",""HF10""]","[10,3,1,5]","[8,4,2,6]","","",""
"show-reward","162","357394","0.0-162.0","p438661","A272X64FOZFYLB","336OE47KI3QZCSCUXSQ8J11UOZXVWV","32N49TQG3IO5SZ7LMPZHQWZSFSNVA4","model","match","uniform","","","","","","","","356750.5999999996","358752.4000000004","","","","","","","","","","","","10","","stimuli/stars_10.png","295","","","","","stimuli/HF02_FO.jpg","",""
"explore-choice","163","358817","0.0-163.0","p438661","A272X64FOZFYLB","336OE47KI3QZCSCUXSQ8J11UOZXVWV","32N49TQG3IO5SZ7LMPZHQWZSFSNVA4","model","match","uniform","","","","","","","915.6000000014901","358753.0999999996","359668.7000000011","[""stimuli/WF11_SC.jpg"",""stimuli/HF10_DO.jpg"",""stimuli/HF02_FO.jpg"",""stimuli/WF06_AO.jpg""]","stimuli/WF11_SC.jpg","stimuli/HF10_DO.jpg","stimuli/HF02_FO.jpg","stimuli/WF06_AO.jpg","pos3","stimuli/HF02_FO.jpg","FO","HF02","2","4.5","9","8","stimuli/stars_9.png","299.5","[""SC"",""DO"",""FO"",""AO""]","[""WF11"",""HF10"",""HF02"",""WF06""]","[4,8,9,1]","[4,6,8,2]","","",""
"show-reward","164","360819","0.0-164.0","p438661","A272X64FOZFYLB","336OE47KI3QZCSCUXSQ8J11UOZXVWV","32N49TQG3IO5SZ7LMPZHQWZSFSNVA4","model","match","uniform","","","","","","","","360175.9000000004","362178","","","","","","","","","","","","9","","stimuli/stars_9.png","299.5","","","","","stimuli/HF02_FO.jpg","",""
"explore-choice","165","362191","0.0-165.0","p438661","A272X64FOZFYLB","336OE47KI3QZCSCUXSQ8J11UOZXVWV","32N49TQG3IO5SZ7LMPZHQWZSFSNVA4","model","match","uniform","","","","","","","870.0999999996275","362178.7000000011","363048.80000000075","[""stimuli/WF11_FO.jpg"",""stimuli/HF10_SC.jpg"",""stimuli/WF06_AO.jpg"",""stimuli/HF02_DO.jpg""]","stimuli/WF11_FO.jpg","stimuli/HF10_SC.jpg","stimuli/WF06_AO.jpg","stimuli/HF02_DO.jpg","pos4","stimuli/HF02_DO.jpg","DO","HF02","3","5","10","8","stimuli/stars_10.png","304.5","[""FO"",""SC"",""AO"",""DO""]","[""WF11"",""HF10"",""WF06"",""HF02""]","[3,4,3,10]","[4,6,2,8]","","",""
"show-reward","166","364193","0.0-166.0","p438661","A272X64FOZFYLB","336OE47KI3QZCSCUXSQ8J11UOZXVWV","32N49TQG3IO5SZ7LMPZHQWZSFSNVA4","model","match","uniform","","","","","","","","363550.5999999996","365552.0999999996","","","","","","","","","","","","10","","stimuli/stars_10.png","304.5","","","","","stimuli/HF02_DO.jpg","",""
"explore-choice","167","365447","0.0-167.0","p438661","A272X64FOZFYLB","336OE47KI3QZCSCUXSQ8J11UOZXVWV","32N49TQG3IO5SZ7LMPZHQWZSFSNVA4","model","match","uniform","","","","","","","752.0999999996275","365552.7000000011","366304.80000000075","[""stimuli/WF06_SC.jpg"",""stimuli/HF02_FO.jpg"",""stimuli/WF11_DO.jpg"",""stimuli/HF10_AO.jpg""]","stimuli/WF06_SC.jpg","stimuli/HF02_FO.jpg","stimuli/WF11_DO.jpg","stimuli/HF10_AO.jpg","pos2","stimuli/HF02_FO.jpg","FO","HF02","1","4","8","8","stimuli/stars_8.png","308.5","[""SC"",""FO"",""DO"",""AO""]","[""WF06"",""HF02"",""WF11"",""HF10""]","[2,8,2,8]","[2,8,4,6]","","",""
"show-reward","168","367449","0.0-168.0","p438661","A272X64FOZFYLB","336OE47KI3QZCSCUXSQ8J11UOZXVWV","32N49TQG3IO5SZ7LMPZHQWZSFSNVA4","model","match","uniform","","","","","","","","366806.4000000004","368808.2000000011","","","","","","","","","","","","8","","stimuli/stars_8.png","308.5","","","","","stimuli/HF02_FO.jpg","",""
"explore-choice","169","369123","0.0-169.0","p438661","A272X64FOZFYLB","336OE47KI3QZCSCUXSQ8J11UOZXVWV","32N49TQG3IO5SZ7LMPZHQWZSFSNVA4","model","match","uniform","","","","","","","1171.4000000003725","368808.9000000004","369980.30000000075","[""stimuli/HF10_FO.jpg"",""stimuli/WF11_SC.jpg"",""stimuli/HF02_AO.jpg"",""stimuli/WF06_DO.jpg""]","stimuli/HF10_FO.jpg","stimuli/WF11_SC.jpg","stimuli/HF02_AO.jpg","stimuli/WF06_DO.jpg","pos3","stimuli/HF02_AO.jpg","AO","HF02","2","5","10","8","stimuli/stars_10.png","313.5","[""FO"",""SC"",""AO"",""DO""]","[""HF10"",""WF11"",""HF02"",""WF06""]","[4,6,10,3]","[6,4,8,2]","","",""
"show-reward","170","371126","0.0-170.0","p438661","A272X64FOZFYLB","336OE47KI3QZCSCUXSQ8J11UOZXVWV","32N49TQG3IO5SZ7LMPZHQWZSFSNVA4","model","match","uniform","","","","","","","","370482.4000000004","372485","","","","","","","","","","","","10","","stimuli/stars_10.png","313.5","","","","","stimuli/HF02_AO.jpg","",""
"explore-choice","171","372834","0.0-171.0","p438661","A272X64FOZFYLB","336OE47KI3QZCSCUXSQ8J11UOZXVWV","32N49TQG3IO5SZ7LMPZHQWZSFSNVA4","model","match","uniform","","","","","","","1206.4000000003725","372486","373692.4000000004","[""stimuli/HF10_DO.jpg"",""stimuli/HF02_AO.jpg"",""stimuli/WF11_SC.jpg"",""stimuli/WF06_FO.jpg""]","stimuli/HF10_DO.jpg","stimuli/HF02_AO.jpg","stimuli/WF11_SC.jpg","stimuli/WF06_FO.jpg","pos2","stimuli/HF02_AO.jpg","AO","HF02","1","5","10","8","stimuli/stars_10.png","318.5","[""DO"",""AO"",""SC"",""FO""]","[""HF10"",""HF02"",""WF11"",""WF06""]","[6,10,5,2]","[6,8,4,2]","","",""
"show-reward","172","374841","0.0-172.0","p438661","A272X64FOZFYLB","336OE47KI3QZCSCUXSQ8J11UOZXVWV","32N49TQG3IO5SZ7LMPZHQWZSFSNVA4","model","match","uniform","","","","","","","","374193.30000000075","376199.5999999996","","","","","","","","","","","","10","","stimuli/stars_10.png","318.5","","","","","stimuli/HF02_AO.jpg","",""
"explore-choice","173","376227","0.0-173.0","p438661","A272X64FOZFYLB","336OE47KI3QZCSCUXSQ8J11UOZXVWV","32N49TQG3IO5SZ7LMPZHQWZSFSNVA4","model","match","uniform","","","","","","","883.7000000011176","376200.5999999996","377084.30000000075","[""stimuli/WF06_FO.jpg"",""stimuli/HF10_SC.jpg"",""stimuli/HF02_AO.jpg"",""stimuli/WF11_DO.jpg""]","stimuli/WF06_FO.jpg","stimuli/HF10_SC.jpg","stimuli/HF02_AO.jpg","stimuli/WF11_DO.jpg","pos3","stimuli/HF02_AO.jpg","AO","HF02","2","5","10","8","stimuli/stars_10.png","323.5","[""FO"",""SC"",""AO"",""DO""]","[""WF06"",""HF10"",""HF02"",""WF11""]","[1,8,10,4]","[2,6,8,4]","","",""
"show-reward","174","378229","0.0-174.0","p438661","A272X64FOZFYLB","336OE47KI3QZCSCUXSQ8J11UOZXVWV","32N49TQG3IO5SZ7LMPZHQWZSFSNVA4","model","match","uniform","","","","","","","","377586.0999999996","379587.7000000011","","","","","","","","","","","","10","","stimuli/stars_10.png","323.5","","","","","stimuli/HF02_AO.jpg","",""
"explore-choice","175","379691","0.0-175.0","p438661","A272X64FOZFYLB","336OE47KI3QZCSCUXSQ8J11UOZXVWV","32N49TQG3IO5SZ7LMPZHQWZSFSNVA4","model","match","uniform","","","","","","","960.0999999996275","379588.5","380548.5999999996","[""stimuli/WF11_DO.jpg"",""stimuli/HF02_SC.jpg"",""stimuli/HF10_FO.jpg"",""stimuli/WF06_AO.jpg""]","stimuli/WF11_DO.jpg","stimuli/HF02_SC.jpg","stimuli/HF10_FO.jpg","stimuli/WF06_AO.jpg","pos2","stimuli/HF02_SC.jpg","SC","HF02","1","3.5","7","8","stimuli/stars_7.png","327","[""DO"",""SC"",""FO"",""AO""]","[""WF11"",""HF02"",""HF10"",""WF06""]","[6,7,8,2]","[4,8,6,2]","","",""
"show-reward","176","381694","0.0-176.0","p438661","A272X64FOZFYLB","336OE47KI3QZCSCUXSQ8J11UOZXVWV","32N49TQG3IO5SZ7LMPZHQWZSFSNVA4","model","match","uniform","","","","","","","","381050.30000000075","383052.5","","","","","","","","","","","","7","","stimuli/stars_7.png","327","","","","","stimuli/HF02_SC.jpg","",""
"explore-choice","177","383014","0.0-177.0","p438661","A272X64FOZFYLB","336OE47KI3QZCSCUXSQ8J11UOZXVWV","32N49TQG3IO5SZ7LMPZHQWZSFSNVA4","model","match","uniform","","","","","","","818.8000000007451","383053.4000000004","383872.2000000011","[""stimuli/HF10_DO.jpg"",""stimuli/WF06_SC.jpg"",""stimuli/WF11_FO.jpg"",""stimuli/HF02_AO.jpg""]","stimuli/HF10_DO.jpg","stimuli/WF06_SC.jpg","stimuli/WF11_FO.jpg","stimuli/HF02_AO.jpg","pos4","stimuli/HF02_AO.jpg","AO","HF02","3","4","8","8","stimuli/stars_8.png","331","[""DO"",""SC"",""FO"",""AO""]","[""HF10"",""WF06"",""WF11"",""HF02""]","[5,2,6,8]","[6,2,4,8]","","",""
"show-reward","178","385015","0.0-178.0","p438661","A272X64FOZFYLB","336OE47KI3QZCSCUXSQ8J11UOZXVWV","32N49TQG3IO5SZ7LMPZHQWZSFSNVA4","model","match","uniform","","","","","","","","384373.4000000004","386374.2000000011","","","","","","","","","","","","8","","stimuli/stars_8.png","331","","","","","stimuli/HF02_AO.jpg","",""
"explore-choice","179","386359","0.0-179.0","p438661","A272X64FOZFYLB","336OE47KI3QZCSCUXSQ8J11UOZXVWV","32N49TQG3IO5SZ7LMPZHQWZSFSNVA4","model","match","uniform","","","","","","","841.9000000003725","386374.9000000004","387216.80000000075","[""stimuli/HF02_DO.jpg"",""stimuli/WF11_AO.jpg"",""stimuli/WF06_SC.jpg"",""stimuli/HF10_FO.jpg""]","stimuli/HF02_DO.jpg","stimuli/WF11_AO.jpg","stimuli/WF06_SC.jpg","stimuli/HF10_FO.jpg","pos1","stimuli/HF02_DO.jpg","DO","HF02","0","3.5","7","8","stimuli/stars_7.png","334.5","[""DO"",""AO"",""SC"",""FO""]","[""HF02"",""WF11"",""WF06"",""HF10""]","[7,5,1,4]","[8,4,2,6]","","",""
"show-reward","180","388363","0.0-180.0","p438661","A272X64FOZFYLB","336OE47KI3QZCSCUXSQ8J11UOZXVWV","32N49TQG3IO5SZ7LMPZHQWZSFSNVA4","model","match","uniform","","","","","","","","387718.9000000004","389721.5","","","","","","","","","","","","7","","stimuli/stars_7.png","334.5","","","","","stimuli/HF02_DO.jpg","",""
"explore-choice","181","389694","0.0-181.0","p438661","A272X64FOZFYLB","336OE47KI3QZCSCUXSQ8J11UOZXVWV","32N49TQG3IO5SZ7LMPZHQWZSFSNVA4","model","match","uniform","","","","","","","830.4000000003725","389722.0999999996","390552.5","[""stimuli/HF10_FO.jpg"",""stimuli/HF02_AO.jpg"",""stimuli/WF11_DO.jpg"",""stimuli/WF06_SC.jpg""]","stimuli/HF10_FO.jpg","stimuli/HF02_AO.jpg","stimuli/WF11_DO.jpg","stimuli/WF06_SC.jpg","pos2","stimuli/HF02_AO.jpg","AO","HF02","1","5","10","8","stimuli/stars_10.png","339.5","[""FO"",""AO"",""DO"",""SC""]","[""HF10"",""HF02"",""WF11"",""WF06""]","[8,10,5,1]","[6,8,4,2]","","",""
"show-reward","182","391697","0.0-182.0","p438661","A272X64FOZFYLB","336OE47KI3QZCSCUXSQ8J11UOZXVWV","32N49TQG3IO5SZ7LMPZHQWZSFSNVA4","model","match","uniform","","","","","","","","391053.5999999996","393055.5999999996","","","","","","","","","","","","10","","stimuli/stars_10.png","339.5","","","","","stimuli/HF02_AO.jpg","",""
"explore-choice","183","392842","0.0-183.0","p438661","A272X64FOZFYLB","336OE47KI3QZCSCUXSQ8J11UOZXVWV","32N49TQG3IO5SZ7LMPZHQWZSFSNVA4","model","match","uniform","","","","","","","636.1999999992549","393056.30000000075","393692.5","[""stimuli/HF02_DO.jpg"",""stimuli/HF10_AO.jpg"",""stimuli/WF11_SC.jpg"",""stimuli/WF06_FO.jpg""]","stimuli/HF02_DO.jpg","stimuli/HF10_AO.jpg","stimuli/WF11_SC.jpg","stimuli/WF06_FO.jpg","pos1","stimuli/HF02_DO.jpg","DO","HF02","0","4.5","9","8","stimuli/stars_9.png","344","[""DO"",""AO"",""SC"",""FO""]","[""HF02"",""HF10"",""WF11"",""WF06""]","[9,6,6,3]","[8,6,4,2]","","",""
"show-reward","184","394845","0.0-184.0","p438661","A272X64FOZFYLB","336OE47KI3QZCSCUXSQ8J11UOZXVWV","32N49TQG3IO5SZ7LMPZHQWZSFSNVA4","model","match","uniform","","","","","","","","394201.30000000075","396203.30000000075","","","","","","","","","","","","9","","stimuli/stars_9.png","344","","","","","stimuli/HF02_DO.jpg","",""
"explore-choice","185","396251","0.0-185.0","p438661","A272X64FOZFYLB","336OE47KI3QZCSCUXSQ8J11UOZXVWV","32N49TQG3IO5SZ7LMPZHQWZSFSNVA4","model","match","uniform","","","","","","","904.7000000011176","396204","397108.7000000011","[""stimuli/WF06_AO.jpg"",""stimuli/HF10_SC.jpg"",""stimuli/HF02_FO.jpg"",""stimuli/WF11_DO.jpg""]","stimuli/WF06_AO.jpg","stimuli/HF10_SC.jpg","stimuli/HF02_FO.jpg","stimuli/WF11_DO.jpg","pos3","stimuli/HF02_FO.jpg","FO","HF02","2","3","6","8","stimuli/stars_6.png","347","[""AO"",""SC"",""FO"",""DO""]","[""WF06"",""HF10"",""HF02"",""WF11""]","[4,7,6,2]","[2,6,8,4]","","",""
"show-reward","186","398254","0.0-186.0","p438661","A272X64FOZFYLB","336OE47KI3QZCSCUXSQ8J11UOZXVWV","32N49TQG3IO5SZ7LMPZHQWZSFSNVA4","model","match","uniform","","","","","","","","397610.5999999996","399612.7000000011","","","","","","","","","","","","6","","stimuli/stars_6.png","347","","","","","stimuli/HF02_FO.jpg","",""
"explore-choice","187","400387","0.0-187.0","p438661","A272X64FOZFYLB","336OE47KI3QZCSCUXSQ8J11UOZXVWV","32N49TQG3IO5SZ7LMPZHQWZSFSNVA4","model","match","uniform","","","","","","","1630.800000000745","399614","401244.80000000075","[""stimuli/WF06_DO.jpg"",""stimuli/HF10_FO.jpg"",""stimuli/WF11_AO.jpg"",""stimuli/HF02_SC.jpg""]","stimuli/WF06_DO.jpg","stimuli/HF10_FO.jpg","stimuli/WF11_AO.jpg","stimuli/HF02_SC.jpg","pos4","stimuli/HF02_SC.jpg","SC","HF02","3","5","10","8","stimuli/stars_10.png","352","[""DO"",""FO"",""AO"",""SC""]","[""WF06"",""HF10"",""WF11"",""HF02""]","[3,7,2,10]","[2,6,4,8]","","",""
"show-reward","188","402389","0.0-188.0","p438661","A272X64FOZFYLB","336OE47KI3QZCSCUXSQ8J11UOZXVWV","32N49TQG3IO5SZ7LMPZHQWZSFSNVA4","model","match","uniform","","","","","","","","401746.5","403748.0999999996","","","","","","","","","","","","10","","stimuli/stars_10.png","352","","","","","stimuli/HF02_SC.jpg","",""
"explore-choice","189","403647","0.0-189.0","p438661","A272X64FOZFYLB","336OE47KI3QZCSCUXSQ8J11UOZXVWV","32N49TQG3IO5SZ7LMPZHQWZSFSNVA4","model","match","uniform","","","","","","","755.9000000003725","403748.9000000004","404504.80000000075","[""stimuli/HF10_DO.jpg"",""stimuli/HF02_SC.jpg"",""stimuli/WF06_FO.jpg"",""stimuli/WF11_AO.jpg""]","stimuli/HF10_DO.jpg","stimuli/HF02_SC.jpg","stimuli/WF06_FO.jpg","stimuli/WF11_AO.jpg","pos2","stimuli/HF02_SC.jpg","SC","HF02","1","5","10","8","stimuli/stars_10.png","357","[""DO"",""SC"",""FO"",""AO""]","[""HF10"",""HF02"",""WF06"",""WF11""]","[7,10,0,3]","[6,8,2,4]","","",""
"show-reward","190","405649","0.0-190.0","p438661","A272X64FOZFYLB","336OE47KI3QZCSCUXSQ8J11UOZXVWV","32N49TQG3IO5SZ7LMPZHQWZSFSNVA4","model","match","uniform","","","","","","","","405006.5999999996","407008.30000000075","","","","","","","","","","","","10","","stimuli/stars_10.png","357","","","","","stimuli/HF02_SC.jpg","",""
"explore-choice","191","407043","0.0-191.0","p438661","A272X64FOZFYLB","336OE47KI3QZCSCUXSQ8J11UOZXVWV","32N49TQG3IO5SZ7LMPZHQWZSFSNVA4","model","match","uniform","","","","","","","891.9000000003725","407008.9000000004","407900.80000000075","[""stimuli/WF11_FO.jpg"",""stimuli/HF10_DO.jpg"",""stimuli/WF06_AO.jpg"",""stimuli/HF02_SC.jpg""]","stimuli/WF11_FO.jpg","stimuli/HF10_DO.jpg","stimuli/WF06_AO.jpg","stimuli/HF02_SC.jpg","pos4","stimuli/HF02_SC.jpg","SC","HF02","3","3","6","8","stimuli/stars_6.png","360","[""FO"",""DO"",""AO"",""SC""]","[""WF11"",""HF10"",""WF06"",""HF02""]","[3,8,0,6]","[4,6,2,8]","","",""
"show-reward","192","409045","0.0-192.0","p438661","A272X64FOZFYLB","336OE47KI3QZCSCUXSQ8J11UOZXVWV","32N49TQG3IO5SZ7LMPZHQWZSFSNVA4","model","match","uniform","","","","","","","","408402.5999999996","410404","","","","","","","","","","","","6","","stimuli/stars_6.png","360","","","","","stimuli/HF02_SC.jpg","",""
"explore-choice","193","410336","0.0-193.0","p438661","A272X64FOZFYLB","336OE47KI3QZCSCUXSQ8J11UOZXVWV","32N49TQG3IO5SZ7LMPZHQWZSFSNVA4","model","match","uniform","","","","","","","789.5999999996275","410404.5","411194.0999999996","[""stimuli/HF10_SC.jpg"",""stimuli/HF02_AO.jpg"",""stimuli/WF06_DO.jpg"",""stimuli/WF11_FO.jpg""]","stimuli/HF10_SC.jpg","stimuli/HF02_AO.jpg","stimuli/WF06_DO.jpg","stimuli/WF11_FO.jpg","pos2","stimuli/HF02_AO.jpg","AO","HF02","1","4","8","8","stimuli/stars_8.png","364","[""SC"",""AO"",""DO"",""FO""]","[""HF10"",""HF02"",""WF06"",""WF11""]","[8,8,0,2]","[6,8,2,4]","","",""
"show-reward","194","412339","0.0-194.0","p438661","A272X64FOZFYLB","336OE47KI3QZCSCUXSQ8J11UOZXVWV","32N49TQG3IO5SZ7LMPZHQWZSFSNVA4","model","match","uniform","","","","","","","","411695.80000000075","413697.5999999996","","","","","","","","","","","","8","","stimuli/stars_8.png","364","","","","","stimuli/HF02_AO.jpg","",""
"explore-choice","195","413703","0.0-195.0","p438661","A272X64FOZFYLB","336OE47KI3QZCSCUXSQ8J11UOZXVWV","32N49TQG3IO5SZ7LMPZHQWZSFSNVA4","model","match","uniform","","","","","","","862.5","413698.30000000075","414560.80000000075","[""stimuli/HF10_AO.jpg"",""stimuli/WF06_FO.jpg"",""stimuli/WF11_DO.jpg"",""stimuli/HF02_SC.jpg""]","stimuli/HF10_AO.jpg","stimuli/WF06_FO.jpg","stimuli/WF11_DO.jpg","stimuli/HF02_SC.jpg","pos4","stimuli/HF02_SC.jpg","SC","HF02","3","3","6","8","stimuli/stars_6.png","367","[""AO"",""FO"",""DO"",""SC""]","[""HF10"",""WF06"",""WF11"",""HF02""]","[8,0,2,6]","[6,2,4,8]","","",""
"show-reward","196","415705","0.0-196.0","p438661","A272X64FOZFYLB","336OE47KI3QZCSCUXSQ8J11UOZXVWV","32N49TQG3IO5SZ7LMPZHQWZSFSNVA4","model","match","uniform","","","","","","","","415062.5","417064.0999999996","","","","","","","","","","","","6","","stimuli/stars_6.png","367","","","","","stimuli/HF02_SC.jpg","",""
"explore-choice","197","417114","0.0-197.0","p438661","A272X64FOZFYLB","336OE47KI3QZCSCUXSQ8J11UOZXVWV","32N49TQG3IO5SZ7LMPZHQWZSFSNVA4","model","match","uniform","","","","","","","907.1999999992549","417064.9000000004","417972.0999999996","[""stimuli/WF11_AO.jpg"",""stimuli/HF10_SC.jpg"",""stimuli/WF06_FO.jpg"",""stimuli/HF02_DO.jpg""]","stimuli/WF11_AO.jpg","stimuli/HF10_SC.jpg","stimuli/WF06_FO.jpg","stimuli/HF02_DO.jpg","pos4","stimuli/HF02_DO.jpg","DO","HF02","3","3","6","8","stimuli/stars_6.png","370","[""AO"",""SC"",""FO"",""DO""]","[""WF11"",""HF10"",""WF06"",""HF02""]","[5,8,1,6]","[4,6,2,8]","","",""
"show-reward","198","419116","0.0-198.0","p438661","A272X64FOZFYLB","336OE47KI3QZCSCUXSQ8J11UOZXVWV","32N49TQG3IO5SZ7LMPZHQWZSFSNVA4","model","match","uniform","","","","","","","","418473.4000000004","420475","","","","","","","","","","","","6","","stimuli/stars_6.png","370","","","","","stimuli/HF02_DO.jpg","",""
"instructions","199","422769","0.0-199.0","p438661","A272X64FOZFYLB","336OE47KI3QZCSCUXSQ8J11UOZXVWV","32N49TQG3IO5SZ7LMPZHQWZSFSNVA4","model","match","uniform","","","","","","[{""page_index"":0,""viewing_time"":3652.2000000011176}]","3652.4000000003725","","","","","","","","","","","","","","","","","","","","","","","",""
"survey-text","200","425992","0.0-200.0-0.0","p438661","A272X64FOZFYLB","336OE47KI3QZCSCUXSQ8J11UOZXVWV","32N49TQG3IO5SZ7LMPZHQWZSFSNVA4","model","match","uniform","","","","","","","3220.0999999996275","","","","","","","","","","","","","","","","","","","","","","","{""age"":""28""}",""
"survey-text","201","428079","0.0-200.0-1.0","p438661","A272X64FOZFYLB","336OE47KI3QZCSCUXSQ8J11UOZXVWV","32N49TQG3IO5SZ7LMPZHQWZSFSNVA4","model","match","uniform","","","","","","","2085.2000000011176","","","","","","","","","","","","","","","","","","","","","","","{""gender"":""Male""}",""
"survey-text","202","431658","0.0-200.0-2.0","p438661","A272X64FOZFYLB","336OE47KI3QZCSCUXSQ8J11UOZXVWV","32N49TQG3IO5SZ7LMPZHQWZSFSNVA4","model","match","uniform","","","","","","","3577.2000000011176","","","","","","","","","","","","","","","","","","","","","","","{""country"":""USA""}",""
"survey-text","203","435462","0.0-200.0-3.0","p438661","A272X64FOZFYLB","336OE47KI3QZCSCUXSQ8J11UOZXVWV","32N49TQG3IO5SZ7LMPZHQWZSFSNVA4","model","match","uniform","","","","","","","3802.199999999255","","","","","","","","","","","","","","","","","","","","","","","{""language"":""English"",""other_languages"":""""}",""
"survey-multi-select","204","438114","0.0-201.0","p438661","A272X64FOZFYLB","336OE47KI3QZCSCUXSQ8J11UOZXVWV","32N49TQG3IO5SZ7LMPZHQWZSFSNVA4","model","match","uniform","","","","","","","2649.699999999255","","","","","","","","","","","","","","","","","","","","","","","{""race"":[""White""]}","[0]"
"survey-multi-choice","205","440574","0.0-202.0","p438661","A272X64FOZFYLB","336OE47KI3QZCSCUXSQ8J11UOZXVWV","32N49TQG3IO5SZ7LMPZHQWZSFSNVA4","model","match","uniform","","","","","","","2458.39999999851","","","","","","","","","","","","","","","","","","","","","","","{""education"":""Bachelor's degree""}","[0]"
"survey-text","206","471406","0.0-203.0","p438661","A272X64FOZFYLB","336OE47KI3QZCSCUXSQ8J11UOZXVWV","32N49TQG3IO5SZ7LMPZHQWZSFSNVA4","model","match","uniform","","","","","","","30829.300000000745","","","","","","","","","","","","","","","","","","","","","","","{""patterns"":""No."",""strategy"":""Pick each person a few times and identify the person that gave the most stars on average, then always pick that person after."",""comments"":""""}",""
