"trial_type","trial_index","time_elapsed","internal_node_id","subject","workerId","hitId","assignmentId","structure_condition","match_condition","noise_type","success","timeout","failed_images","failed_audio","failed_video","view_history","rt","start_time","end_time","stimuli","image1","image2","image3","image4","choiceLocation","choiceImage","choiceEmotion","choiceModel","choice_index","reward_score","reward","reward_score_unadjusted","reward_image","score_after_trial","emotions","models","rewards","rewards_unadjusted","stimulus","response","question_order"
"pavlovia","0","32","0.0-0.0","p678917","A1XQOZV8LQDM22","3P888QFVX40Z2B7BK75OWKP045JQOK","3ZGVPD4G6VNRGFB4TMF1672GRSEZTT","emotion","mismatch","uniform","","","","","","","","","","","","","","","","","","","","","","","","","","","","","","",""
"preload","1","54953","0.0-1.0","p678917","A1XQOZV8LQDM22","3P888QFVX40Z2B7BK75OWKP045JQOK","3ZGVPD4G6VNRGFB4TMF1672GRSEZTT","emotion","mismatch","uniform","true","false","[]","[]","[]","","","","","","","","","","","","","","","","","","","","","","","","","",""
"fullscreen","2","64631","0.0-2.0","p678917","A1XQOZV8LQDM22","3P888QFVX40Z2B7BK75OWKP045JQOK","3ZGVPD4G6VNRGFB4TMF1672GRSEZTT","emotion","mismatch","uniform","true","","","","","","","","","","","","","","","","","","","","","","","","","","","","","",""
"instructions","3","70566","0.0-3.0","p678917","A1XQOZV8LQDM22","3P888QFVX40Z2B7BK75OWKP045JQOK","3ZGVPD4G6VNRGFB4TMF1672GRSEZTT","emotion","mismatch","uniform","","","","","","[{""page_index"":0,""viewing_time"":5900}]","5905.299999999814","","","","","","","","","","","","","","","","","","","","","","","",""
"explore-choice","4","75824","0.0-4.0","p678917","A1XQOZV8LQDM22","3P888QFVX40Z2B7BK75OWKP045JQOK","3ZGVPD4G6VNRGFB4TMF1672GRSEZTT","emotion","mismatch","uniform","","","","","","","4723.5","77431.19999999972","82154.69999999972","[""stimuli/sheep.jpg"",""stimuli/hammer.jpg"",""stimuli/basketball.jpg"",""stimuli/horse.jpg""]","stimuli/sheep.jpg","stimuli/hammer.jpg","stimuli/basketball.jpg","stimuli/horse.jpg","pos4","stimuli/horse.jpg","","","3","64","64","64","stimuli/stars_8.png","65","","","","","","",""
"explore-choice","5","79608","0.0-5.0","p678917","A1XQOZV8LQDM22","3P888QFVX40Z2B7BK75OWKP045JQOK","3ZGVPD4G6VNRGFB4TMF1672GRSEZTT","emotion","mismatch","uniform","","","","","","","3279.2000000001863","82662.49999999953","85941.69999999972","[""stimuli/hammer.jpg"",""stimuli/basketball.jpg"",""stimuli/horse.jpg"",""stimuli/sheep.jpg""]","stimuli/hammer.jpg","stimuli/basketball.jpg","stimuli/horse.jpg","stimuli/sheep.jpg","pos1","stimuli/hammer.jpg","","","0","8","8","8","stimuli/stars_2.png","9","","","","","","",""
"instructions","6","124637","0.0-6.0","p678917","A1XQOZV8LQDM22","3P888QFVX40Z2B7BK75OWKP045JQOK","3ZGVPD4G6VNRGFB4TMF1672GRSEZTT","emotion","mismatch","uniform","","","","","","[{""page_index"":0,""viewing_time"":45024}]","45026.09999999963","","","","","","","","","","","","","","","","","","","","","","","",""
"explore-choice","7","129184","0.0-7.0","p678917","A1XQOZV8LQDM22","3P888QFVX40Z2B7BK75OWKP045JQOK","3ZGVPD4G6VNRGFB4TMF1672GRSEZTT","emotion","mismatch","uniform","","","","","","","4036.100000000559","131479.69999999972","135515.80000000028","[""stimuli/WF11_AO.jpg"",""stimuli/BF08_HE.jpg"",""stimuli/WM09_SUR.jpg"",""stimuli/AM05_SC.jpg""]","stimuli/WF11_AO.jpg","stimuli/BF08_HE.jpg","stimuli/WM09_SUR.jpg","stimuli/AM05_SC.jpg","pos2","stimuli/BF08_HE.jpg","HE","BF08","1","0.5","1","2","stimuli/stars_1.png","1.5","[""AO"",""HE"",""SUR"",""SC""]","[""WF11"",""BF08"",""WM09"",""AM05""]","[4,1,9,8]","[4,2,8,6]","","",""
"show-reward","8","131214","0.0-8.0","p678917","A1XQOZV8LQDM22","3P888QFVX40Z2B7BK75OWKP045JQOK","3ZGVPD4G6VNRGFB4TMF1672GRSEZTT","emotion","mismatch","uniform","","","","","","","","136030.99999999953","138047.3999999999","","","","","","","","","","","","1","","stimuli/stars_1.png","1.5","","","","","stimuli/BF08_HE.jpg","",""
"explore-choice","9","135179","0.0-9.0","p678917","A1XQOZV8LQDM22","3P888QFVX40Z2B7BK75OWKP045JQOK","3ZGVPD4G6VNRGFB4TMF1672GRSEZTT","emotion","mismatch","uniform","","","","","","","3455.5","138055.69999999972","141511.19999999972","[""stimuli/WM09_SC.jpg"",""stimuli/WF11_HE.jpg"",""stimuli/BF08_AO.jpg"",""stimuli/AM05_SUR.jpg""]","stimuli/WM09_SC.jpg","stimuli/WF11_HE.jpg","stimuli/BF08_AO.jpg","stimuli/AM05_SUR.jpg","pos1","stimuli/WM09_SC.jpg","SC","WM09","0","4","8","6","stimuli/stars_8.png","5.5","[""SC"",""HE"",""AO"",""SUR""]","[""WM09"",""WF11"",""BF08"",""AM05""]","[8,2,2,7]","[6,2,4,8]","","",""
"show-reward","10","137202","0.0-10.0","p678917","A1XQOZV8LQDM22","3P888QFVX40Z2B7BK75OWKP045JQOK","3ZGVPD4G6VNRGFB4TMF1672GRSEZTT","emotion","mismatch","uniform","","","","","","","","142020.80000000028","144036.49999999953","","","","","","","","","","","","8","","stimuli/stars_8.png","5.5","","","","","stimuli/WM09_SC.jpg","",""
"explore-choice","11","141361","0.0-11.0","p678917","A1XQOZV8LQDM22","3P888QFVX40Z2B7BK75OWKP045JQOK","3ZGVPD4G6VNRGFB4TMF1672GRSEZTT","emotion","mismatch","uniform","","","","","","","3649","144043.19999999972","147692.19999999972","[""stimuli/AM05_AO.jpg"",""stimuli/BF08_SUR.jpg"",""stimuli/WM09_SC.jpg"",""stimuli/WF11_HE.jpg""]","stimuli/AM05_AO.jpg","stimuli/BF08_SUR.jpg","stimuli/WM09_SC.jpg","stimuli/WF11_HE.jpg","pos3","stimuli/WM09_SC.jpg","SC","WM09","2","3","6","6","stimuli/stars_6.png","8.5","[""AO"",""SUR"",""SC"",""HE""]","[""AM05"",""BF08"",""WM09"",""WF11""]","[6,10,6,1]","[4,8,6,2]","","",""
"show-reward","12","143392","0.0-12.0","p678917","A1XQOZV8LQDM22","3P888QFVX40Z2B7BK75OWKP045JQOK","3ZGVPD4G6VNRGFB4TMF1672GRSEZTT","emotion","mismatch","uniform","","","","","","","","148203.8999999999","150225.3999999999","","","","","","","","","","","","6","","stimuli/stars_6.png","8.5","","","","","stimuli/WM09_SC.jpg","",""
"explore-choice","13","145827","0.0-13.0","p678917","A1XQOZV8LQDM22","3P888QFVX40Z2B7BK75OWKP045JQOK","3ZGVPD4G6VNRGFB4TMF1672GRSEZTT","emotion","mismatch","uniform","","","","","","","1919.3999999994412","150231.6000000001","152150.99999999953","[""stimuli/AM05_AO.jpg"",""stimuli/WF11_HE.jpg"",""stimuli/BF08_SC.jpg"",""stimuli/WM09_SUR.jpg""]","stimuli/AM05_AO.jpg","stimuli/WF11_HE.jpg","stimuli/BF08_SC.jpg","stimuli/WM09_SUR.jpg","pos4","stimuli/WM09_SUR.jpg","SUR","WM09","3","4","8","8","stimuli/stars_8.png","12.5","[""AO"",""HE"",""SC"",""SUR""]","[""AM05"",""WF11"",""BF08"",""WM09""]","[6,4,8,8]","[4,2,6,8]","","",""
"show-reward","14","147867","0.0-14.0","p678917","A1XQOZV8LQDM22","3P888QFVX40Z2B7BK75OWKP045JQOK","3ZGVPD4G6VNRGFB4TMF1672GRSEZTT","emotion","mismatch","uniform","","","","","","","","152665.69999999972","154699.69999999972","","","","","","","","","","","","8","","stimuli/stars_8.png","12.5","","","","","stimuli/WM09_SUR.jpg","",""
"explore-choice","15","150418","0.0-15.0","p678917","A1XQOZV8LQDM22","3P888QFVX40Z2B7BK75OWKP045JQOK","3ZGVPD4G6VNRGFB4TMF1672GRSEZTT","emotion","mismatch","uniform","","","","","","","2041.800000000745","154707.99999999953","156749.80000000028","[""stimuli/WF11_AO.jpg"",""stimuli/AM05_SUR.jpg"",""stimuli/BF08_SC.jpg"",""stimuli/WM09_HE.jpg""]","stimuli/WF11_AO.jpg","stimuli/AM05_SUR.jpg","stimuli/BF08_SC.jpg","stimuli/WM09_HE.jpg","pos1","stimuli/WF11_AO.jpg","AO","WF11","0","1","2","4","stimuli/stars_2.png","13.5","[""AO"",""SUR"",""SC"",""HE""]","[""WF11"",""AM05"",""BF08"",""WM09""]","[2,7,7,3]","[4,8,6,2]","","",""
"show-reward","16","152442","0.0-16.0","p678917","A1XQOZV8LQDM22","3P888QFVX40Z2B7BK75OWKP045JQOK","3ZGVPD4G6VNRGFB4TMF1672GRSEZTT","emotion","mismatch","uniform","","","","","","","","157258.6000000001","159276.49999999953","","","","","","","","","","","","2","","stimuli/stars_2.png","13.5","","","","","stimuli/WF11_AO.jpg","",""
"explore-choice","17","154825","0.0-17.0","p678917","A1XQOZV8LQDM22","3P888QFVX40Z2B7BK75OWKP045JQOK","3ZGVPD4G6VNRGFB4TMF1672GRSEZTT","emotion","mismatch","uniform","","","","","","","1870.5999999996275","159279.6000000001","161150.19999999972","[""stimuli/BF08_HE.jpg"",""stimuli/WM09_SC.jpg"",""stimuli/AM05_AO.jpg"",""stimuli/WF11_SUR.jpg""]","stimuli/BF08_HE.jpg","stimuli/WM09_SC.jpg","stimuli/AM05_AO.jpg","stimuli/WF11_SUR.jpg","pos3","stimuli/AM05_AO.jpg","AO","AM05","2","3","6","4","stimuli/stars_6.png","16.5","[""HE"",""SC"",""AO"",""SUR""]","[""BF08"",""WM09"",""AM05"",""WF11""]","[3,5,6,6]","[2,6,4,8]","","",""
"show-reward","18","156855","0.0-18.0","p678917","A1XQOZV8LQDM22","3P888QFVX40Z2B7BK75OWKP045JQOK","3ZGVPD4G6VNRGFB4TMF1672GRSEZTT","emotion","mismatch","uniform","","","","","","","","161667.69999999972","163688.69999999972","","","","","","","","","","","","6","","stimuli/stars_6.png","16.5","","","","","stimuli/AM05_AO.jpg","",""
"explore-choice","19","158421","0.0-19.0","p678917","A1XQOZV8LQDM22","3P888QFVX40Z2B7BK75OWKP045JQOK","3ZGVPD4G6VNRGFB4TMF1672GRSEZTT","emotion","mismatch","uniform","","","","","","","1059.0999999996275","163694.3999999999","164753.49999999953","[""stimuli/WM09_SUR.jpg"",""stimuli/AM05_SC.jpg"",""stimuli/BF08_AO.jpg"",""stimuli/WF11_HE.jpg""]","stimuli/WM09_SUR.jpg","stimuli/AM05_SC.jpg","stimuli/BF08_AO.jpg","stimuli/WF11_HE.jpg","pos1","stimuli/WM09_SUR.jpg","SUR","WM09","0","3","6","8","stimuli/stars_6.png","19.5","[""SUR"",""SC"",""AO"",""HE""]","[""WM09"",""AM05"",""BF08"",""WF11""]","[6,8,6,3]","[8,6,4,2]","","",""
"show-reward","20","160441","0.0-20.0","p678917","A1XQOZV8LQDM22","3P888QFVX40Z2B7BK75OWKP045JQOK","3ZGVPD4G6VNRGFB4TMF1672GRSEZTT","emotion","mismatch","uniform","","","","","","","","165260.1000000001","167275.80000000028","","","","","","","","","","","","6","","stimuli/stars_6.png","19.5","","","","","stimuli/WM09_SUR.jpg","",""
"explore-choice","21","164659","0.0-21.0","p678917","A1XQOZV8LQDM22","3P888QFVX40Z2B7BK75OWKP045JQOK","3ZGVPD4G6VNRGFB4TMF1672GRSEZTT","emotion","mismatch","uniform","","","","","","","3711.2999999998137","167278.80000000028","170990.1000000001","[""stimuli/WF11_SC.jpg"",""stimuli/BF08_AO.jpg"",""stimuli/WM09_SUR.jpg"",""stimuli/AM05_HE.jpg""]","stimuli/WF11_SC.jpg","stimuli/BF08_AO.jpg","stimuli/WM09_SUR.jpg","stimuli/AM05_HE.jpg","pos4","stimuli/AM05_HE.jpg","HE","AM05","3","1","2","2","stimuli/stars_2.png","20.5","[""SC"",""AO"",""SUR"",""HE""]","[""WF11"",""BF08"",""WM09"",""AM05""]","[4,2,6,2]","[6,4,8,2]","","",""
"show-reward","22","166681","0.0-22.0","p678917","A1XQOZV8LQDM22","3P888QFVX40Z2B7BK75OWKP045JQOK","3ZGVPD4G6VNRGFB4TMF1672GRSEZTT","emotion","mismatch","uniform","","","","","","","","171498.8999999999","173514.69999999972","","","","","","","","","","","","2","","stimuli/stars_2.png","20.5","","","","","stimuli/AM05_HE.jpg","",""
"explore-choice","23","168235","0.0-23.0","p678917","A1XQOZV8LQDM22","3P888QFVX40Z2B7BK75OWKP045JQOK","3ZGVPD4G6VNRGFB4TMF1672GRSEZTT","emotion","mismatch","uniform","","","","","","","1044.7000000001863","173520.8999999999","174565.6000000001","[""stimuli/BF08_HE.jpg"",""stimuli/WF11_SC.jpg"",""stimuli/WM09_SUR.jpg"",""stimuli/AM05_AO.jpg""]","stimuli/BF08_HE.jpg","stimuli/WF11_SC.jpg","stimuli/WM09_SUR.jpg","stimuli/AM05_AO.jpg","pos3","stimuli/WM09_SUR.jpg","SUR","WM09","2","4.5","9","8","stimuli/stars_9.png","25","[""HE"",""SC"",""SUR"",""AO""]","[""BF08"",""WF11"",""WM09"",""AM05""]","[3,6,9,3]","[2,6,8,4]","","",""
"show-reward","24","170256","0.0-24.0","p678917","A1XQOZV8LQDM22","3P888QFVX40Z2B7BK75OWKP045JQOK","3ZGVPD4G6VNRGFB4TMF1672GRSEZTT","emotion","mismatch","uniform","","","","","","","","175075.3999999999","177090.30000000028","","","","","","","","","","","","9","","stimuli/stars_9.png","25","","","","","stimuli/WM09_SUR.jpg","",""
"explore-choice","25","172681","0.0-25.0","p678917","A1XQOZV8LQDM22","3P888QFVX40Z2B7BK75OWKP045JQOK","3ZGVPD4G6VNRGFB4TMF1672GRSEZTT","emotion","mismatch","uniform","","","","","","","1832.7000000001863","177093.49999999953","178926.19999999972","[""stimuli/AM05_AO.jpg"",""stimuli/BF08_SUR.jpg"",""stimuli/WM09_HE.jpg"",""stimuli/WF11_SC.jpg""]","stimuli/AM05_AO.jpg","stimuli/BF08_SUR.jpg","stimuli/WM09_HE.jpg","stimuli/WF11_SC.jpg","pos3","stimuli/WM09_HE.jpg","HE","WM09","2","1","2","2","stimuli/stars_2.png","26","[""AO"",""SUR"",""HE"",""SC""]","[""AM05"",""BF08"",""WM09"",""WF11""]","[4,7,2,8]","[4,8,2,6]","","",""
"show-reward","26","174699","0.0-26.0","p678917","A1XQOZV8LQDM22","3P888QFVX40Z2B7BK75OWKP045JQOK","3ZGVPD4G6VNRGFB4TMF1672GRSEZTT","emotion","mismatch","uniform","","","","","","","","179523.69999999972","181533.19999999972","","","","","","","","","","","","2","","stimuli/stars_2.png","26","","","","","stimuli/WM09_HE.jpg","",""
"explore-choice","27","176219","0.0-27.0","p678917","A1XQOZV8LQDM22","3P888QFVX40Z2B7BK75OWKP045JQOK","3ZGVPD4G6VNRGFB4TMF1672GRSEZTT","emotion","mismatch","uniform","","","","","","","1012.0999999996275","181538.30000000028","182550.3999999999","[""stimuli/WM09_HE.jpg"",""stimuli/BF08_AO.jpg"",""stimuli/AM05_SC.jpg"",""stimuli/WF11_SUR.jpg""]","stimuli/WM09_HE.jpg","stimuli/BF08_AO.jpg","stimuli/AM05_SC.jpg","stimuli/WF11_SUR.jpg","pos1","stimuli/WM09_HE.jpg","HE","WM09","0","0","0","2","stimuli/stars_0.png","26","[""HE"",""AO"",""SC"",""SUR""]","[""WM09"",""BF08"",""AM05"",""WF11""]","[0,2,4,9]","[2,4,6,8]","","",""
"show-reward","28","178244","0.0-28.0","p678917","A1XQOZV8LQDM22","3P888QFVX40Z2B7BK75OWKP045JQOK","3ZGVPD4G6VNRGFB4TMF1672GRSEZTT","emotion","mismatch","uniform","","","","","","","","183059.19999999972","185077.69999999972","","","","","","","","","","","","0","","stimuli/stars_0.png","26","","","","","stimuli/WM09_HE.jpg","",""
"explore-choice","29","181002","0.0-29.0","p678917","A1XQOZV8LQDM22","3P888QFVX40Z2B7BK75OWKP045JQOK","3ZGVPD4G6VNRGFB4TMF1672GRSEZTT","emotion","mismatch","uniform","","","","","","","2251.2999999998137","185083.1000000001","187334.3999999999","[""stimuli/WF11_SC.jpg"",""stimuli/WM09_HE.jpg"",""stimuli/BF08_AO.jpg"",""stimuli/AM05_SUR.jpg""]","stimuli/WF11_SC.jpg","stimuli/WM09_HE.jpg","stimuli/BF08_AO.jpg","stimuli/AM05_SUR.jpg","pos3","stimuli/BF08_AO.jpg","AO","BF08","2","2","4","4","stimuli/stars_4.png","28","[""SC"",""HE"",""AO"",""SUR""]","[""WF11"",""WM09"",""BF08"",""AM05""]","[6,4,4,7]","[6,2,4,8]","","",""
"show-reward","30","183043","0.0-30.0","p678917","A1XQOZV8LQDM22","3P888QFVX40Z2B7BK75OWKP045JQOK","3ZGVPD4G6VNRGFB4TMF1672GRSEZTT","emotion","mismatch","uniform","","","","","","","","187841.69999999972","189877.30000000028","","","","","","","","","","","","4","","stimuli/stars_4.png","28","","","","","stimuli/BF08_AO.jpg","",""
"explore-choice","31","185651","0.0-31.0","p678917","A1XQOZV8LQDM22","3P888QFVX40Z2B7BK75OWKP045JQOK","3ZGVPD4G6VNRGFB4TMF1672GRSEZTT","emotion","mismatch","uniform","","","","","","","2101.0999999996275","189882.80000000028","191983.8999999999","[""stimuli/WF11_SC.jpg"",""stimuli/AM05_SUR.jpg"",""stimuli/BF08_HE.jpg"",""stimuli/WM09_AO.jpg""]","stimuli/WF11_SC.jpg","stimuli/AM05_SUR.jpg","stimuli/BF08_HE.jpg","stimuli/WM09_AO.jpg","pos1","stimuli/WF11_SC.jpg","SC","WF11","0","2.5","5","6","stimuli/stars_5.png","30.5","[""SC"",""SUR"",""HE"",""AO""]","[""WF11"",""AM05"",""BF08"",""WM09""]","[5,8,4,2]","[6,8,2,4]","","",""
"show-reward","32","187690","0.0-32.0","p678917","A1XQOZV8LQDM22","3P888QFVX40Z2B7BK75OWKP045JQOK","3ZGVPD4G6VNRGFB4TMF1672GRSEZTT","emotion","mismatch","uniform","","","","","","","","192490.6000000001","194523.6000000001","","","","","","","","","","","","5","","stimuli/stars_5.png","30.5","","","","","stimuli/WF11_SC.jpg","",""
"explore-choice","33","189739","0.0-33.0","p678917","A1XQOZV8LQDM22","3P888QFVX40Z2B7BK75OWKP045JQOK","3ZGVPD4G6VNRGFB4TMF1672GRSEZTT","emotion","mismatch","uniform","","","","","","","1541.9000000003725","194528.8999999999","196070.80000000028","[""stimuli/BF08_SC.jpg"",""stimuli/AM05_HE.jpg"",""stimuli/WM09_SUR.jpg"",""stimuli/WF11_AO.jpg""]","stimuli/BF08_SC.jpg","stimuli/AM05_HE.jpg","stimuli/WM09_SUR.jpg","stimuli/WF11_AO.jpg","pos3","stimuli/WM09_SUR.jpg","SUR","WM09","2","4.5","9","8","stimuli/stars_9.png","35","[""SC"",""HE"",""SUR"",""AO""]","[""BF08"",""AM05"",""WM09"",""WF11""]","[6,2,9,6]","[6,2,8,4]","","",""
"show-reward","34","191759","0.0-34.0","p678917","A1XQOZV8LQDM22","3P888QFVX40Z2B7BK75OWKP045JQOK","3ZGVPD4G6VNRGFB4TMF1672GRSEZTT","emotion","mismatch","uniform","","","","","","","","196578.69999999972","198593.49999999953","","","","","","","","","","","","9","","stimuli/stars_9.png","35","","","","","stimuli/WM09_SUR.jpg","",""
"explore-choice","35","194234","0.0-35.0","p678917","A1XQOZV8LQDM22","3P888QFVX40Z2B7BK75OWKP045JQOK","3ZGVPD4G6VNRGFB4TMF1672GRSEZTT","emotion","mismatch","uniform","","","","","","","1970.5","198596.99999999953","200567.49999999953","[""stimuli/WM09_SC.jpg"",""stimuli/WF11_SUR.jpg"",""stimuli/BF08_AO.jpg"",""stimuli/AM05_HE.jpg""]","stimuli/WM09_SC.jpg","stimuli/WF11_SUR.jpg","stimuli/BF08_AO.jpg","stimuli/AM05_HE.jpg","pos4","stimuli/AM05_HE.jpg","HE","AM05","3","0","0","2","stimuli/stars_0.png","35","[""SC"",""SUR"",""AO"",""HE""]","[""WM09"",""WF11"",""BF08"",""AM05""]","[6,9,4,0]","[6,8,4,2]","","",""
"show-reward","36","196248","0.0-36.0","p678917","A1XQOZV8LQDM22","3P888QFVX40Z2B7BK75OWKP045JQOK","3ZGVPD4G6VNRGFB4TMF1672GRSEZTT","emotion","mismatch","uniform","","","","","","","","201071.80000000028","203081.30000000028","","","","","","","","","","","","0","","stimuli/stars_0.png","35","","","","","stimuli/AM05_HE.jpg","",""
"explore-choice","37","198322","0.0-37.0","p678917","A1XQOZV8LQDM22","3P888QFVX40Z2B7BK75OWKP045JQOK","3ZGVPD4G6VNRGFB4TMF1672GRSEZTT","emotion","mismatch","uniform","","","","","","","1566.7000000001863","203087.19999999972","204653.8999999999","[""stimuli/WM09_AO.jpg"",""stimuli/BF08_HE.jpg"",""stimuli/AM05_SC.jpg"",""stimuli/WF11_SUR.jpg""]","stimuli/WM09_AO.jpg","stimuli/BF08_HE.jpg","stimuli/AM05_SC.jpg","stimuli/WF11_SUR.jpg","pos1","stimuli/WM09_AO.jpg","AO","WM09","0","2","4","4","stimuli/stars_4.png","37","[""AO"",""HE"",""SC"",""SUR""]","[""WM09"",""BF08"",""AM05"",""WF11""]","[4,1,6,7]","[4,2,6,8]","","",""
"show-reward","38","200412","0.0-38.0","p678917","A1XQOZV8LQDM22","3P888QFVX40Z2B7BK75OWKP045JQOK","3ZGVPD4G6VNRGFB4TMF1672GRSEZTT","emotion","mismatch","uniform","","","","","","","","205162.99999999953","207195.30000000028","","","","","","","","","","","","4","","stimuli/stars_4.png","37","","","","","stimuli/WM09_AO.jpg","",""
"explore-choice","39","208498","0.0-39.0","p678917","A1XQOZV8LQDM22","3P888QFVX40Z2B7BK75OWKP045JQOK","3ZGVPD4G6VNRGFB4TMF1672GRSEZTT","emotion","mismatch","uniform","","","","","","","7533.899999999441","207297.6000000001","214831.49999999953","[""stimuli/AM05_SUR.jpg"",""stimuli/WF11_AO.jpg"",""stimuli/WM09_SC.jpg"",""stimuli/BF08_HE.jpg""]","stimuli/AM05_SUR.jpg","stimuli/WF11_AO.jpg","stimuli/WM09_SC.jpg","stimuli/BF08_HE.jpg","pos2","stimuli/WF11_AO.jpg","AO","WF11","1","2","4","4","stimuli/stars_4.png","39","[""SUR"",""AO"",""SC"",""HE""]","[""AM05"",""WF11"",""WM09"",""BF08""]","[10,4,8,3]","[8,4,6,2]","","",""
"show-reward","40","210528","0.0-40.0","p678917","A1XQOZV8LQDM22","3P888QFVX40Z2B7BK75OWKP045JQOK","3ZGVPD4G6VNRGFB4TMF1672GRSEZTT","emotion","mismatch","uniform","","","","","","","","215337.3999999999","217361.69999999972","","","","","","","","","","","","4","","stimuli/stars_4.png","39","","","","","stimuli/WF11_AO.jpg","",""
"explore-choice","41","212312","0.0-41.0","p678917","A1XQOZV8LQDM22","3P888QFVX40Z2B7BK75OWKP045JQOK","3ZGVPD4G6VNRGFB4TMF1672GRSEZTT","emotion","mismatch","uniform","","","","","","","1273.300000000745","217372.49999999953","218645.80000000028","[""stimuli/WF11_AO.jpg"",""stimuli/BF08_SUR.jpg"",""stimuli/AM05_HE.jpg"",""stimuli/WM09_SC.jpg""]","stimuli/WF11_AO.jpg","stimuli/BF08_SUR.jpg","stimuli/AM05_HE.jpg","stimuli/WM09_SC.jpg","pos3","stimuli/AM05_HE.jpg","HE","AM05","2","1","2","2","stimuli/stars_2.png","40","[""AO"",""SUR"",""HE"",""SC""]","[""WF11"",""BF08"",""AM05"",""WM09""]","[3,6,2,7]","[4,8,2,6]","","",""
"show-reward","42","214327","0.0-42.0","p678917","A1XQOZV8LQDM22","3P888QFVX40Z2B7BK75OWKP045JQOK","3ZGVPD4G6VNRGFB4TMF1672GRSEZTT","emotion","mismatch","uniform","","","","","","","","219152.19999999972","221161.19999999972","","","","","","","","","","","","2","","stimuli/stars_2.png","40","","","","","stimuli/AM05_HE.jpg","",""
"explore-choice","43","216051","0.0-43.0","p678917","A1XQOZV8LQDM22","3P888QFVX40Z2B7BK75OWKP045JQOK","3ZGVPD4G6VNRGFB4TMF1672GRSEZTT","emotion","mismatch","uniform","","","","","","","1216.7999999998137","221168.80000000028","222385.6000000001","[""stimuli/AM05_HE.jpg"",""stimuli/WM09_AO.jpg"",""stimuli/BF08_SUR.jpg"",""stimuli/WF11_SC.jpg""]","stimuli/AM05_HE.jpg","stimuli/WM09_AO.jpg","stimuli/BF08_SUR.jpg","stimuli/WF11_SC.jpg","pos2","stimuli/WM09_AO.jpg","AO","WM09","1","2.5","5","4","stimuli/stars_5.png","42.5","[""HE"",""AO"",""SUR"",""SC""]","[""AM05"",""WM09"",""BF08"",""WF11""]","[3,5,7,7]","[2,4,8,6]","","",""
"show-reward","44","218064","0.0-44.0","p678917","A1XQOZV8LQDM22","3P888QFVX40Z2B7BK75OWKP045JQOK","3ZGVPD4G6VNRGFB4TMF1672GRSEZTT","emotion","mismatch","uniform","","","","","","","","222889.49999999953","224896.69999999972","","","","","","","","","","","","5","","stimuli/stars_5.png","42.5","","","","","stimuli/WM09_AO.jpg","",""
"explore-choice","45","219724","0.0-45.0","p678917","A1XQOZV8LQDM22","3P888QFVX40Z2B7BK75OWKP045JQOK","3ZGVPD4G6VNRGFB4TMF1672GRSEZTT","emotion","mismatch","uniform","","","","","","","1153.0999999996275","224903.8999999999","226056.99999999953","[""stimuli/WM09_AO.jpg"",""stimuli/BF08_SC.jpg"",""stimuli/WF11_HE.jpg"",""stimuli/AM05_SUR.jpg""]","stimuli/WM09_AO.jpg","stimuli/BF08_SC.jpg","stimuli/WF11_HE.jpg","stimuli/AM05_SUR.jpg","pos1","stimuli/WM09_AO.jpg","AO","WM09","0","1.5","3","4","stimuli/stars_3.png","44","[""AO"",""SC"",""HE"",""SUR""]","[""WM09"",""BF08"",""WF11"",""AM05""]","[3,8,4,9]","[4,6,2,8]","","",""
"show-reward","46","221753","0.0-46.0","p678917","A1XQOZV8LQDM22","3P888QFVX40Z2B7BK75OWKP045JQOK","3ZGVPD4G6VNRGFB4TMF1672GRSEZTT","emotion","mismatch","uniform","","","","","","","","226563.6000000001","228587.3999999999","","","","","","","","","","","","3","","stimuli/stars_3.png","44","","","","","stimuli/WM09_AO.jpg","",""
"explore-choice","47","223691","0.0-47.0","p678917","A1XQOZV8LQDM22","3P888QFVX40Z2B7BK75OWKP045JQOK","3ZGVPD4G6VNRGFB4TMF1672GRSEZTT","emotion","mismatch","uniform","","","","","","","1431.699999999255","228592.80000000028","230024.49999999953","[""stimuli/WM09_AO.jpg"",""stimuli/AM05_HE.jpg"",""stimuli/BF08_SC.jpg"",""stimuli/WF11_SUR.jpg""]","stimuli/WM09_AO.jpg","stimuli/AM05_HE.jpg","stimuli/BF08_SC.jpg","stimuli/WF11_SUR.jpg","pos4","stimuli/WF11_SUR.jpg","SUR","WF11","3","5","10","8","stimuli/stars_10.png","49","[""AO"",""HE"",""SC"",""SUR""]","[""WM09"",""AM05"",""BF08"",""WF11""]","[3,4,8,10]","[4,2,6,8]","","",""
"show-reward","48","225704","0.0-48.0","p678917","A1XQOZV8LQDM22","3P888QFVX40Z2B7BK75OWKP045JQOK","3ZGVPD4G6VNRGFB4TMF1672GRSEZTT","emotion","mismatch","uniform","","","","","","","","230529.69999999972","232538.69999999972","","","","","","","","","","","","10","","stimuli/stars_10.png","49","","","","","stimuli/WF11_SUR.jpg","",""
"explore-choice","49","229765","0.0-49.0","p678917","A1XQOZV8LQDM22","3P888QFVX40Z2B7BK75OWKP045JQOK","3ZGVPD4G6VNRGFB4TMF1672GRSEZTT","emotion","mismatch","uniform","","","","","","","3551.7000000001863","232544.69999999972","236096.3999999999","[""stimuli/AM05_SC.jpg"",""stimuli/WM09_HE.jpg"",""stimuli/WF11_AO.jpg"",""stimuli/BF08_SUR.jpg""]","stimuli/AM05_SC.jpg","stimuli/WM09_HE.jpg","stimuli/WF11_AO.jpg","stimuli/BF08_SUR.jpg","pos3","stimuli/WF11_AO.jpg","AO","WF11","2","2.5","5","4","stimuli/stars_5.png","51.5","[""SC"",""HE"",""AO"",""SUR""]","[""AM05"",""WM09"",""WF11"",""BF08""]","[4,2,5,9]","[6,2,4,8]","","",""
"show-reward","50","231796","0.0-50.0","p678917","A1XQOZV8LQDM22","3P888QFVX40Z2B7BK75OWKP045JQOK","3ZGVPD4G6VNRGFB4TMF1672GRSEZTT","emotion","mismatch","uniform","","","","","","","","236606.80000000028","238630.80000000028","","","","","","","","","","","","5","","stimuli/stars_5.png","51.5","","","","","stimuli/WF11_AO.jpg","",""
"explore-choice","51","236366","0.0-51.0","p678917","A1XQOZV8LQDM22","3P888QFVX40Z2B7BK75OWKP045JQOK","3ZGVPD4G6VNRGFB4TMF1672GRSEZTT","emotion","mismatch","uniform","","","","","","","4064.5999999996275","238636.3999999999","242700.99999999953","[""stimuli/BF08_SUR.jpg"",""stimuli/WM09_AO.jpg"",""stimuli/WF11_HE.jpg"",""stimuli/AM05_SC.jpg""]","stimuli/BF08_SUR.jpg","stimuli/WM09_AO.jpg","stimuli/WF11_HE.jpg","stimuli/AM05_SC.jpg","pos2","stimuli/WM09_AO.jpg","AO","WM09","1","2","4","4","stimuli/stars_4.png","53.5","[""SUR"",""AO"",""HE"",""SC""]","[""BF08"",""WM09"",""WF11"",""AM05""]","[6,4,3,4]","[8,4,2,6]","","",""
"show-reward","52","238372","0.0-52.0","p678917","A1XQOZV8LQDM22","3P888QFVX40Z2B7BK75OWKP045JQOK","3ZGVPD4G6VNRGFB4TMF1672GRSEZTT","emotion","mismatch","uniform","","","","","","","","243202.8999999999","245206.8999999999","","","","","","","","","","","","4","","stimuli/stars_4.png","53.5","","","","","stimuli/WM09_AO.jpg","",""
"explore-choice","53","240050","0.0-53.0","p678917","A1XQOZV8LQDM22","3P888QFVX40Z2B7BK75OWKP045JQOK","3ZGVPD4G6VNRGFB4TMF1672GRSEZTT","emotion","mismatch","uniform","","","","","","","1172.2999999998137","245212.30000000028","246384.6000000001","[""stimuli/WF11_SUR.jpg"",""stimuli/BF08_SC.jpg"",""stimuli/WM09_HE.jpg"",""stimuli/AM05_AO.jpg""]","stimuli/WF11_SUR.jpg","stimuli/BF08_SC.jpg","stimuli/WM09_HE.jpg","stimuli/AM05_AO.jpg","pos1","stimuli/WF11_SUR.jpg","SUR","WF11","0","3","6","8","stimuli/stars_6.png","56.5","[""SUR"",""SC"",""HE"",""AO""]","[""WF11"",""BF08"",""WM09"",""AM05""]","[6,7,4,4]","[8,6,2,4]","","",""
"show-reward","54","242063","0.0-54.0","p678917","A1XQOZV8LQDM22","3P888QFVX40Z2B7BK75OWKP045JQOK","3ZGVPD4G6VNRGFB4TMF1672GRSEZTT","emotion","mismatch","uniform","","","","","","","","246888.8999999999","248898.1000000001","","","","","","","","","","","","6","","stimuli/stars_6.png","56.5","","","","","stimuli/WF11_SUR.jpg","",""
"explore-choice","55","244242","0.0-55.0","p678917","A1XQOZV8LQDM22","3P888QFVX40Z2B7BK75OWKP045JQOK","3ZGVPD4G6VNRGFB4TMF1672GRSEZTT","emotion","mismatch","uniform","","","","","","","1672.2000000001863","248903.19999999972","250575.3999999999","[""stimuli/WF11_SUR.jpg"",""stimuli/AM05_SC.jpg"",""stimuli/WM09_AO.jpg"",""stimuli/BF08_HE.jpg""]","stimuli/WF11_SUR.jpg","stimuli/AM05_SC.jpg","stimuli/WM09_AO.jpg","stimuli/BF08_HE.jpg","pos3","stimuli/WM09_AO.jpg","AO","WM09","2","2","4","4","stimuli/stars_4.png","58.5","[""SUR"",""SC"",""AO"",""HE""]","[""WF11"",""AM05"",""WM09"",""BF08""]","[7,6,4,1]","[8,6,4,2]","","",""
"show-reward","56","246276","0.0-56.0","p678917","A1XQOZV8LQDM22","3P888QFVX40Z2B7BK75OWKP045JQOK","3ZGVPD4G6VNRGFB4TMF1672GRSEZTT","emotion","mismatch","uniform","","","","","","","","251082.99999999953","253111.3999999999","","","","","","","","","","","","4","","stimuli/stars_4.png","58.5","","","","","stimuli/WM09_AO.jpg","",""
"explore-choice","57","247706","0.0-57.0","p678917","A1XQOZV8LQDM22","3P888QFVX40Z2B7BK75OWKP045JQOK","3ZGVPD4G6VNRGFB4TMF1672GRSEZTT","emotion","mismatch","uniform","","","","","","","924.7000000001863","253114.99999999953","254039.69999999972","[""stimuli/BF08_HE.jpg"",""stimuli/AM05_SUR.jpg"",""stimuli/WF11_SC.jpg"",""stimuli/WM09_AO.jpg""]","stimuli/BF08_HE.jpg","stimuli/AM05_SUR.jpg","stimuli/WF11_SC.jpg","stimuli/WM09_AO.jpg","pos1","stimuli/BF08_HE.jpg","HE","BF08","0","2","4","2","stimuli/stars_4.png","60.5","[""HE"",""SUR"",""SC"",""AO""]","[""BF08"",""AM05"",""WF11"",""WM09""]","[4,8,5,2]","[2,8,6,4]","","",""
"show-reward","58","249717","0.0-58.0","p678917","A1XQOZV8LQDM22","3P888QFVX40Z2B7BK75OWKP045JQOK","3ZGVPD4G6VNRGFB4TMF1672GRSEZTT","emotion","mismatch","uniform","","","","","","","","254544.1000000001","256551.99999999953","","","","","","","","","","","","4","","stimuli/stars_4.png","60.5","","","","","stimuli/BF08_HE.jpg","",""
"explore-choice","59","251437","0.0-59.0","p678917","A1XQOZV8LQDM22","3P888QFVX40Z2B7BK75OWKP045JQOK","3ZGVPD4G6VNRGFB4TMF1672GRSEZTT","emotion","mismatch","uniform","","","","","","","1122.6000000005588","256557.19999999972","257679.80000000028","[""stimuli/AM05_AO.jpg"",""stimuli/WF11_SUR.jpg"",""stimuli/WM09_SC.jpg"",""stimuli/BF08_HE.jpg""]","stimuli/AM05_AO.jpg","stimuli/WF11_SUR.jpg","stimuli/WM09_SC.jpg","stimuli/BF08_HE.jpg","pos4","stimuli/BF08_HE.jpg","HE","BF08","3","1.5","3","2","stimuli/stars_3.png","62","[""AO"",""SUR"",""SC"",""HE""]","[""AM05"",""WF11"",""WM09"",""BF08""]","[6,6,5,3]","[4,8,6,2]","","",""
"show-reward","60","253453","0.0-60.0","p678917","A1XQOZV8LQDM22","3P888QFVX40Z2B7BK75OWKP045JQOK","3ZGVPD4G6VNRGFB4TMF1672GRSEZTT","emotion","mismatch","uniform","","","","","","","","258275.49999999953","260288.19999999972","","","","","","","","","","","","3","","stimuli/stars_3.png","62","","","","","stimuli/BF08_HE.jpg","",""
"explore-choice","61","254728","0.0-61.0","p678917","A1XQOZV8LQDM22","3P888QFVX40Z2B7BK75OWKP045JQOK","3ZGVPD4G6VNRGFB4TMF1672GRSEZTT","emotion","mismatch","uniform","","","","","","","771.7000000001863","260289.99999999953","261061.69999999972","[""stimuli/WF11_SUR.jpg"",""stimuli/BF08_AO.jpg"",""stimuli/WM09_HE.jpg"",""stimuli/AM05_SC.jpg""]","stimuli/WF11_SUR.jpg","stimuli/BF08_AO.jpg","stimuli/WM09_HE.jpg","stimuli/AM05_SC.jpg","pos2","stimuli/BF08_AO.jpg","AO","BF08","1","1","2","4","stimuli/stars_2.png","63","[""SUR"",""AO"",""HE"",""SC""]","[""WF11"",""BF08"",""WM09"",""AM05""]","[9,2,0,4]","[8,4,2,6]","","",""
"show-reward","62","256758","0.0-62.0","p678917","A1XQOZV8LQDM22","3P888QFVX40Z2B7BK75OWKP045JQOK","3ZGVPD4G6VNRGFB4TMF1672GRSEZTT","emotion","mismatch","uniform","","","","","","","","261568.49999999953","263593.1999999997","","","","","","","","","","","","2","","stimuli/stars_2.png","63","","","","","stimuli/BF08_AO.jpg","",""
"explore-choice","63","257995","0.0-63.0","p678917","A1XQOZV8LQDM22","3P888QFVX40Z2B7BK75OWKP045JQOK","3ZGVPD4G6VNRGFB4TMF1672GRSEZTT","emotion","mismatch","uniform","","","","","","","731.5","263597.8000000003","264329.3000000003","[""stimuli/AM05_HE.jpg"",""stimuli/BF08_AO.jpg"",""stimuli/WF11_SUR.jpg"",""stimuli/WM09_SC.jpg""]","stimuli/AM05_HE.jpg","stimuli/BF08_AO.jpg","stimuli/WF11_SUR.jpg","stimuli/WM09_SC.jpg","pos1","stimuli/AM05_HE.jpg","HE","AM05","0","0","0","2","stimuli/stars_0.png","63","[""HE"",""AO"",""SUR"",""SC""]","[""AM05"",""BF08"",""WF11"",""WM09""]","[0,4,9,6]","[2,4,8,6]","","",""
"show-reward","64","260009","0.0-64.0","p678917","A1XQOZV8LQDM22","3P888QFVX40Z2B7BK75OWKP045JQOK","3ZGVPD4G6VNRGFB4TMF1672GRSEZTT","emotion","mismatch","uniform","","","","","","","","264833.8999999999","266843.3000000003","","","","","","","","","","","","0","","stimuli/stars_0.png","63","","","","","stimuli/AM05_HE.jpg","",""
"explore-choice","65","261677","0.0-65.0","p678917","A1XQOZV8LQDM22","3P888QFVX40Z2B7BK75OWKP045JQOK","3ZGVPD4G6VNRGFB4TMF1672GRSEZTT","emotion","mismatch","uniform","","","","","","","1161.199999999255","266849.3000000003","268010.49999999953","[""stimuli/WM09_SUR.jpg"",""stimuli/BF08_AO.jpg"",""stimuli/WF11_HE.jpg"",""stimuli/AM05_SC.jpg""]","stimuli/WM09_SUR.jpg","stimuli/BF08_AO.jpg","stimuli/WF11_HE.jpg","stimuli/AM05_SC.jpg","pos1","stimuli/WM09_SUR.jpg","SUR","WM09","0","3","6","8","stimuli/stars_6.png","66","[""SUR"",""AO"",""HE"",""SC""]","[""WM09"",""BF08"",""WF11"",""AM05""]","[6,6,3,8]","[8,4,2,6]","","",""
"show-reward","66","263688","0.0-66.0","p678917","A1XQOZV8LQDM22","3P888QFVX40Z2B7BK75OWKP045JQOK","3ZGVPD4G6VNRGFB4TMF1672GRSEZTT","emotion","mismatch","uniform","","","","","","","","268514.6000000001","270522.6000000001","","","","","","","","","","","","6","","stimuli/stars_6.png","66","","","","","stimuli/WM09_SUR.jpg","",""
"explore-choice","67","265493","0.0-67.0","p678917","A1XQOZV8LQDM22","3P888QFVX40Z2B7BK75OWKP045JQOK","3ZGVPD4G6VNRGFB4TMF1672GRSEZTT","emotion","mismatch","uniform","","","","","","","1297.7000000001863","270527.8999999999","271825.6000000001","[""stimuli/AM05_SUR.jpg"",""stimuli/BF08_SC.jpg"",""stimuli/WF11_HE.jpg"",""stimuli/WM09_AO.jpg""]","stimuli/AM05_SUR.jpg","stimuli/BF08_SC.jpg","stimuli/WF11_HE.jpg","stimuli/WM09_AO.jpg","pos3","stimuli/WF11_HE.jpg","HE","WF11","2","2","4","2","stimuli/stars_4.png","68","[""SUR"",""SC"",""HE"",""AO""]","[""AM05"",""BF08"",""WF11"",""WM09""]","[9,8,4,3]","[8,6,2,4]","","",""
"show-reward","68","267505","0.0-68.0","p678917","A1XQOZV8LQDM22","3P888QFVX40Z2B7BK75OWKP045JQOK","3ZGVPD4G6VNRGFB4TMF1672GRSEZTT","emotion","mismatch","uniform","","","","","","","","272331.1999999997","274339.49999999953","","","","","","","","","","","","4","","stimuli/stars_4.png","68","","","","","stimuli/WF11_HE.jpg","",""
"explore-choice","69","269258","0.0-69.0","p678917","A1XQOZV8LQDM22","3P888QFVX40Z2B7BK75OWKP045JQOK","3ZGVPD4G6VNRGFB4TMF1672GRSEZTT","emotion","mismatch","uniform","","","","","","","1214.7999999998137","274344.8999999999","275559.6999999997","[""stimuli/WM09_HE.jpg"",""stimuli/AM05_AO.jpg"",""stimuli/WF11_SC.jpg"",""stimuli/BF08_SUR.jpg""]","stimuli/WM09_HE.jpg","stimuli/AM05_AO.jpg","stimuli/WF11_SC.jpg","stimuli/BF08_SUR.jpg","pos3","stimuli/WF11_SC.jpg","SC","WF11","2","4","8","6","stimuli/stars_8.png","72","[""HE"",""AO"",""SC"",""SUR""]","[""WM09"",""AM05"",""WF11"",""BF08""]","[2,4,8,7]","[2,4,6,8]","","",""
"show-reward","70","271274","0.0-70.0","p678917","A1XQOZV8LQDM22","3P888QFVX40Z2B7BK75OWKP045JQOK","3ZGVPD4G6VNRGFB4TMF1672GRSEZTT","emotion","mismatch","uniform","","","","","","","","276096.6999999997","278107.6999999997","","","","","","","","","","","","8","","stimuli/stars_8.png","72","","","","","stimuli/WF11_SC.jpg","",""
"explore-choice","71","273486","0.0-71.0","p678917","A1XQOZV8LQDM22","3P888QFVX40Z2B7BK75OWKP045JQOK","3ZGVPD4G6VNRGFB4TMF1672GRSEZTT","emotion","mismatch","uniform","","","","","","","1705.7000000001863","278113.49999999953","279819.1999999997","[""stimuli/AM05_SUR.jpg"",""stimuli/WM09_HE.jpg"",""stimuli/WF11_AO.jpg"",""stimuli/BF08_SC.jpg""]","stimuli/AM05_SUR.jpg","stimuli/WM09_HE.jpg","stimuli/WF11_AO.jpg","stimuli/BF08_SC.jpg","pos3","stimuli/WF11_AO.jpg","AO","WF11","2","1","2","4","stimuli/stars_2.png","73","[""SUR"",""HE"",""AO"",""SC""]","[""AM05"",""WM09"",""WF11"",""BF08""]","[7,3,2,7]","[8,2,4,6]","","",""
"show-reward","72","275507","0.0-72.0","p678917","A1XQOZV8LQDM22","3P888QFVX40Z2B7BK75OWKP045JQOK","3ZGVPD4G6VNRGFB4TMF1672GRSEZTT","emotion","mismatch","uniform","","","","","","","","280326.1000000001","282340.99999999953","","","","","","","","","","","","2","","stimuli/stars_2.png","73","","","","","stimuli/WF11_AO.jpg","",""
"explore-choice","73","277209","0.0-73.0","p678917","A1XQOZV8LQDM22","3P888QFVX40Z2B7BK75OWKP045JQOK","3ZGVPD4G6VNRGFB4TMF1672GRSEZTT","emotion","mismatch","uniform","","","","","","","1196.7000000001863","282346.49999999953","283543.1999999997","[""stimuli/AM05_AO.jpg"",""stimuli/BF08_SUR.jpg"",""stimuli/WF11_HE.jpg"",""stimuli/WM09_SC.jpg""]","stimuli/AM05_AO.jpg","stimuli/BF08_SUR.jpg","stimuli/WF11_HE.jpg","stimuli/WM09_SC.jpg","pos3","stimuli/WF11_HE.jpg","HE","WF11","2","0.5","1","2","stimuli/stars_1.png","73.5","[""AO"",""SUR"",""HE"",""SC""]","[""AM05"",""BF08"",""WF11"",""WM09""]","[6,10,1,6]","[4,8,2,6]","","",""
"show-reward","74","279223","0.0-74.0","p678917","A1XQOZV8LQDM22","3P888QFVX40Z2B7BK75OWKP045JQOK","3ZGVPD4G6VNRGFB4TMF1672GRSEZTT","emotion","mismatch","uniform","","","","","","","","284048.3000000003","286056.99999999953","","","","","","","","","","","","1","","stimuli/stars_1.png","73.5","","","","","stimuli/WF11_HE.jpg","",""
"explore-choice","75","280923","0.0-75.0","p678917","A1XQOZV8LQDM22","3P888QFVX40Z2B7BK75OWKP045JQOK","3ZGVPD4G6VNRGFB4TMF1672GRSEZTT","emotion","mismatch","uniform","","","","","","","1100.0999999996275","286068.8000000003","287168.8999999999","[""stimuli/WM09_HE.jpg"",""stimuli/WF11_AO.jpg"",""stimuli/BF08_SUR.jpg"",""stimuli/AM05_SC.jpg""]","stimuli/WM09_HE.jpg","stimuli/WF11_AO.jpg","stimuli/BF08_SUR.jpg","stimuli/AM05_SC.jpg","pos1","stimuli/WM09_HE.jpg","HE","WM09","0","1","2","2","stimuli/stars_2.png","74.5","[""HE"",""AO"",""SUR"",""SC""]","[""WM09"",""WF11"",""BF08"",""AM05""]","[2,5,9,4]","[2,4,8,6]","","",""
"show-reward","76","282984","0.0-76.0","p678917","A1XQOZV8LQDM22","3P888QFVX40Z2B7BK75OWKP045JQOK","3ZGVPD4G6VNRGFB4TMF1672GRSEZTT","emotion","mismatch","uniform","","","","","","","","287803.6999999997","289818.8000000003","","","","","","","","","","","","2","","stimuli/stars_2.png","74.5","","","","","stimuli/WM09_HE.jpg","",""
"explore-choice","77","284940","0.0-77.0","p678917","A1XQOZV8LQDM22","3P888QFVX40Z2B7BK75OWKP045JQOK","3ZGVPD4G6VNRGFB4TMF1672GRSEZTT","emotion","mismatch","uniform","","","","","","","1449.5","289824.6000000001","291274.1000000001","[""stimuli/BF08_HE.jpg"",""stimuli/WF11_AO.jpg"",""stimuli/WM09_SC.jpg"",""stimuli/AM05_SUR.jpg""]","stimuli/BF08_HE.jpg","stimuli/WF11_AO.jpg","stimuli/WM09_SC.jpg","stimuli/AM05_SUR.jpg","pos4","stimuli/AM05_SUR.jpg","SUR","AM05","3","5","10","8","stimuli/stars_10.png","79.5","[""HE"",""AO"",""SC"",""SUR""]","[""BF08"",""WF11"",""WM09"",""AM05""]","[3,4,8,10]","[2,4,6,8]","","",""
"show-reward","78","286953","0.0-78.0","p678917","A1XQOZV8LQDM22","3P888QFVX40Z2B7BK75OWKP045JQOK","3ZGVPD4G6VNRGFB4TMF1672GRSEZTT","emotion","mismatch","uniform","","","","","","","","291778.6999999997","293787.1999999997","","","","","","","","","","","","10","","stimuli/stars_10.png","79.5","","","","","stimuli/AM05_SUR.jpg","",""
"explore-choice","79","289029","0.0-79.0","p678917","A1XQOZV8LQDM22","3P888QFVX40Z2B7BK75OWKP045JQOK","3ZGVPD4G6VNRGFB4TMF1672GRSEZTT","emotion","mismatch","uniform","","","","","","","1569.8999999994412","293792.6000000001","295362.49999999953","[""stimuli/WF11_SUR.jpg"",""stimuli/BF08_SC.jpg"",""stimuli/AM05_AO.jpg"",""stimuli/WM09_HE.jpg""]","stimuli/WF11_SUR.jpg","stimuli/BF08_SC.jpg","stimuli/AM05_AO.jpg","stimuli/WM09_HE.jpg","pos1","stimuli/WF11_SUR.jpg","SUR","WF11","0","3","6","8","stimuli/stars_6.png","82.5","[""SUR"",""SC"",""AO"",""HE""]","[""WF11"",""BF08"",""AM05"",""WM09""]","[6,7,4,4]","[8,6,4,2]","","",""
"show-reward","80","291050","0.0-80.0","p678917","A1XQOZV8LQDM22","3P888QFVX40Z2B7BK75OWKP045JQOK","3ZGVPD4G6VNRGFB4TMF1672GRSEZTT","emotion","mismatch","uniform","","","","","","","","295869.3000000003","297884.3999999999","","","","","","","","","","","","6","","stimuli/stars_6.png","82.5","","","","","stimuli/WF11_SUR.jpg","",""
"explore-choice","81","292729","0.0-81.0","p678917","A1XQOZV8LQDM22","3P888QFVX40Z2B7BK75OWKP045JQOK","3ZGVPD4G6VNRGFB4TMF1672GRSEZTT","emotion","mismatch","uniform","","","","","","","1174.5","297888.99999999953","299063.49999999953","[""stimuli/WF11_SC.jpg"",""stimuli/BF08_AO.jpg"",""stimuli/WM09_HE.jpg"",""stimuli/AM05_SUR.jpg""]","stimuli/WF11_SC.jpg","stimuli/BF08_AO.jpg","stimuli/WM09_HE.jpg","stimuli/AM05_SUR.jpg","pos1","stimuli/WF11_SC.jpg","SC","WF11","0","3","6","6","stimuli/stars_6.png","85.5","[""SC"",""AO"",""HE"",""SUR""]","[""WF11"",""BF08"",""WM09"",""AM05""]","[6,4,4,7]","[6,4,2,8]","","",""
"show-reward","82","294763","0.0-82.0","p678917","A1XQOZV8LQDM22","3P888QFVX40Z2B7BK75OWKP045JQOK","3ZGVPD4G6VNRGFB4TMF1672GRSEZTT","emotion","mismatch","uniform","","","","","","","","299567.6000000001","301597.1000000001","","","","","","","","","","","","6","","stimuli/stars_6.png","85.5","","","","","stimuli/WF11_SC.jpg","",""
"explore-choice","83","297017","0.0-83.0","p678917","A1XQOZV8LQDM22","3P888QFVX40Z2B7BK75OWKP045JQOK","3ZGVPD4G6VNRGFB4TMF1672GRSEZTT","emotion","mismatch","uniform","","","","","","","1746.8999999994412","301603.8000000003","303350.6999999997","[""stimuli/BF08_SUR.jpg"",""stimuli/AM05_SC.jpg"",""stimuli/WF11_HE.jpg"",""stimuli/WM09_AO.jpg""]","stimuli/BF08_SUR.jpg","stimuli/AM05_SC.jpg","stimuli/WF11_HE.jpg","stimuli/WM09_AO.jpg","pos3","stimuli/WF11_HE.jpg","HE","WF11","2","1.5","3","2","stimuli/stars_3.png","87","[""SUR"",""SC"",""HE"",""AO""]","[""BF08"",""AM05"",""WF11"",""WM09""]","[6,4,3,4]","[8,6,2,4]","","",""
"show-reward","84","299041","0.0-84.0","p678917","A1XQOZV8LQDM22","3P888QFVX40Z2B7BK75OWKP045JQOK","3ZGVPD4G6VNRGFB4TMF1672GRSEZTT","emotion","mismatch","uniform","","","","","","","","303856.6000000001","305873.1000000001","","","","","","","","","","","","3","","stimuli/stars_3.png","87","","","","","stimuli/WF11_HE.jpg","",""
"explore-choice","85","302610","0.0-85.0","p678917","A1XQOZV8LQDM22","3P888QFVX40Z2B7BK75OWKP045JQOK","3ZGVPD4G6VNRGFB4TMF1672GRSEZTT","emotion","mismatch","uniform","","","","","","","3030.5","305890.99999999953","308921.49999999953","[""stimuli/BF08_SUR.jpg"",""stimuli/WM09_AO.jpg"",""stimuli/AM05_HE.jpg"",""stimuli/WF11_SC.jpg""]","stimuli/BF08_SUR.jpg","stimuli/WM09_AO.jpg","stimuli/AM05_HE.jpg","stimuli/WF11_SC.jpg","pos4","stimuli/WF11_SC.jpg","SC","WF11","3","3.5","7","6","stimuli/stars_7.png","90.5","[""SUR"",""AO"",""HE"",""SC""]","[""BF08"",""WM09"",""AM05"",""WF11""]","[7,5,3,7]","[8,4,2,6]","","",""
"show-reward","86","304630","0.0-86.0","p678917","A1XQOZV8LQDM22","3P888QFVX40Z2B7BK75OWKP045JQOK","3ZGVPD4G6VNRGFB4TMF1672GRSEZTT","emotion","mismatch","uniform","","","","","","","","309450.8000000003","311463.3000000003","","","","","","","","","","","","7","","stimuli/stars_7.png","90.5","","","","","stimuli/WF11_SC.jpg","",""
"explore-choice","87","306459","0.0-87.0","p678917","A1XQOZV8LQDM22","3P888QFVX40Z2B7BK75OWKP045JQOK","3ZGVPD4G6VNRGFB4TMF1672GRSEZTT","emotion","mismatch","uniform","","","","","","","1316.3999999994412","311475.3000000003","312791.6999999997","[""stimuli/AM05_SC.jpg"",""stimuli/WF11_AO.jpg"",""stimuli/BF08_HE.jpg"",""stimuli/WM09_SUR.jpg""]","stimuli/AM05_SC.jpg","stimuli/WF11_AO.jpg","stimuli/BF08_HE.jpg","stimuli/WM09_SUR.jpg","pos2","stimuli/WF11_AO.jpg","AO","WF11","1","2","4","4","stimuli/stars_4.png","92.5","[""SC"",""AO"",""HE"",""SUR""]","[""AM05"",""WF11"",""BF08"",""WM09""]","[8,4,1,9]","[6,4,2,8]","","",""
"show-reward","88","308484","0.0-88.0","p678917","A1XQOZV8LQDM22","3P888QFVX40Z2B7BK75OWKP045JQOK","3ZGVPD4G6VNRGFB4TMF1672GRSEZTT","emotion","mismatch","uniform","","","","","","","","313301.3999999999","315319.1000000001","","","","","","","","","","","","4","","stimuli/stars_4.png","92.5","","","","","stimuli/WF11_AO.jpg","",""
"explore-choice","89","310041","0.0-89.0","p678917","A1XQOZV8LQDM22","3P888QFVX40Z2B7BK75OWKP045JQOK","3ZGVPD4G6VNRGFB4TMF1672GRSEZTT","emotion","mismatch","uniform","","","","","","","1048.2000000001863","315326.6999999997","316374.8999999999","[""stimuli/WF11_AO.jpg"",""stimuli/WM09_SC.jpg"",""stimuli/BF08_SUR.jpg"",""stimuli/AM05_HE.jpg""]","stimuli/WF11_AO.jpg","stimuli/WM09_SC.jpg","stimuli/BF08_SUR.jpg","stimuli/AM05_HE.jpg","pos1","stimuli/WF11_AO.jpg","AO","WF11","0","1.5","3","4","stimuli/stars_3.png","94","[""AO"",""SC"",""SUR"",""HE""]","[""WF11"",""WM09"",""BF08"",""AM05""]","[3,7,6,2]","[4,6,8,2]","","",""
"show-reward","90","312060","0.0-90.0","p678917","A1XQOZV8LQDM22","3P888QFVX40Z2B7BK75OWKP045JQOK","3ZGVPD4G6VNRGFB4TMF1672GRSEZTT","emotion","mismatch","uniform","","","","","","","","316882.1999999997","318894.99999999953","","","","","","","","","","","","3","","stimuli/stars_3.png","94","","","","","stimuli/WF11_AO.jpg","",""
"explore-choice","91","313763","0.0-91.0","p678917","A1XQOZV8LQDM22","3P888QFVX40Z2B7BK75OWKP045JQOK","3ZGVPD4G6VNRGFB4TMF1672GRSEZTT","emotion","mismatch","uniform","","","","","","","1195.9000000003725","318898.99999999953","320094.8999999999","[""stimuli/WF11_HE.jpg"",""stimuli/BF08_AO.jpg"",""stimuli/WM09_SC.jpg"",""stimuli/AM05_SUR.jpg""]","stimuli/WF11_HE.jpg","stimuli/BF08_AO.jpg","stimuli/WM09_SC.jpg","stimuli/AM05_SUR.jpg","pos1","stimuli/WF11_HE.jpg","HE","WF11","0","1","2","2","stimuli/stars_2.png","95","[""HE"",""AO"",""SC"",""SUR""]","[""WF11"",""BF08"",""WM09"",""AM05""]","[2,2,8,7]","[2,4,6,8]","","",""
"show-reward","92","315785","0.0-92.0","p678917","A1XQOZV8LQDM22","3P888QFVX40Z2B7BK75OWKP045JQOK","3ZGVPD4G6VNRGFB4TMF1672GRSEZTT","emotion","mismatch","uniform","","","","","","","","320603.8000000003","322620.1999999997","","","","","","","","","","","","2","","stimuli/stars_2.png","95","","","","","stimuli/WF11_HE.jpg","",""
"explore-choice","93","320306","0.0-93.0","p678917","A1XQOZV8LQDM22","3P888QFVX40Z2B7BK75OWKP045JQOK","3ZGVPD4G6VNRGFB4TMF1672GRSEZTT","emotion","mismatch","uniform","","","","","","","4015.2999999998137","322623.3000000003","326638.6000000001","[""stimuli/WM09_SUR.jpg"",""stimuli/BF08_SC.jpg"",""stimuli/WF11_HE.jpg"",""stimuli/AM05_AO.jpg""]","stimuli/WM09_SUR.jpg","stimuli/BF08_SC.jpg","stimuli/WF11_HE.jpg","stimuli/AM05_AO.jpg","pos1","stimuli/WM09_SUR.jpg","SUR","WM09","0","4","8","8","stimuli/stars_8.png","99","[""SUR"",""SC"",""HE"",""AO""]","[""WM09"",""BF08"",""WF11"",""AM05""]","[8,8,4,6]","[8,6,2,4]","","",""
"show-reward","94","322327","0.0-94.0","p678917","A1XQOZV8LQDM22","3P888QFVX40Z2B7BK75OWKP045JQOK","3ZGVPD4G6VNRGFB4TMF1672GRSEZTT","emotion","mismatch","uniform","","","","","","","","327147.3000000003","329161.1000000001","","","","","","","","","","","","8","","stimuli/stars_8.png","99","","","","","stimuli/WM09_SUR.jpg","",""
"explore-choice","95","324324","0.0-95.0","p678917","A1XQOZV8LQDM22","3P888QFVX40Z2B7BK75OWKP045JQOK","3ZGVPD4G6VNRGFB4TMF1672GRSEZTT","emotion","mismatch","uniform","","","","","","","1492.2999999998137","329164.6999999997","330656.99999999953","[""stimuli/BF08_SC.jpg"",""stimuli/WF11_SUR.jpg"",""stimuli/WM09_AO.jpg"",""stimuli/AM05_HE.jpg""]","stimuli/BF08_SC.jpg","stimuli/WF11_SUR.jpg","stimuli/WM09_AO.jpg","stimuli/AM05_HE.jpg","pos2","stimuli/WF11_SUR.jpg","SUR","WF11","1","5","10","8","stimuli/stars_10.png","104","[""SC"",""SUR"",""AO"",""HE""]","[""BF08"",""WF11"",""WM09"",""AM05""]","[8,10,3,4]","[6,8,4,2]","","",""
"show-reward","96","326358","0.0-96.0","p678917","A1XQOZV8LQDM22","3P888QFVX40Z2B7BK75OWKP045JQOK","3ZGVPD4G6VNRGFB4TMF1672GRSEZTT","emotion","mismatch","uniform","","","","","","","","331166.6000000001","333187.6999999997","","","","","","","","","","","","10","","stimuli/stars_10.png","104","","","","","stimuli/WF11_SUR.jpg","",""
"explore-choice","97","328622","0.0-97.0","p678917","A1XQOZV8LQDM22","3P888QFVX40Z2B7BK75OWKP045JQOK","3ZGVPD4G6VNRGFB4TMF1672GRSEZTT","emotion","mismatch","uniform","","","","","","","1665.5999999996275","333199.8000000003","334865.3999999999","[""stimuli/BF08_SC.jpg"",""stimuli/AM05_HE.jpg"",""stimuli/WF11_AO.jpg"",""stimuli/WM09_SUR.jpg""]","stimuli/BF08_SC.jpg","stimuli/AM05_HE.jpg","stimuli/WF11_AO.jpg","stimuli/WM09_SUR.jpg","pos1","stimuli/BF08_SC.jpg","SC","BF08","0","3","6","6","stimuli/stars_6.png","107","[""SC"",""HE"",""AO"",""SUR""]","[""BF08"",""AM05"",""WF11"",""WM09""]","[6,2,6,9]","[6,2,4,8]","","",""
"show-reward","98","330642","0.0-98.0","p678917","A1XQOZV8LQDM22","3P888QFVX40Z2B7BK75OWKP045JQOK","3ZGVPD4G6VNRGFB4TMF1672GRSEZTT","emotion","mismatch","uniform","","","","","","","","335465.6000000001","337474.3999999999","","","","","","","","","","","","6","","stimuli/stars_6.png","107","","","","","stimuli/BF08_SC.jpg","",""
"explore-choice","99","332788","0.0-99.0","p678917","A1XQOZV8LQDM22","3P888QFVX40Z2B7BK75OWKP045JQOK","3ZGVPD4G6VNRGFB4TMF1672GRSEZTT","emotion","mismatch","uniform","","","","","","","1636.5","337484.6999999997","339121.1999999997","[""stimuli/BF08_AO.jpg"",""stimuli/WF11_SC.jpg"",""stimuli/AM05_HE.jpg"",""stimuli/WM09_SUR.jpg""]","stimuli/BF08_AO.jpg","stimuli/WF11_SC.jpg","stimuli/AM05_HE.jpg","stimuli/WM09_SUR.jpg","pos2","stimuli/WF11_SC.jpg","SC","WF11","1","2","4","6","stimuli/stars_4.png","109","[""AO"",""SC"",""HE"",""SUR""]","[""BF08"",""WF11"",""AM05"",""WM09""]","[2,4,2,6]","[4,6,2,8]","","",""
"show-reward","100","334799","0.0-100.0","p678917","A1XQOZV8LQDM22","3P888QFVX40Z2B7BK75OWKP045JQOK","3ZGVPD4G6VNRGFB4TMF1672GRSEZTT","emotion","mismatch","uniform","","","","","","","","339625.49999999953","341633.1999999997","","","","","","","","","","","","4","","stimuli/stars_4.png","109","","","","","stimuli/WF11_SC.jpg","",""
"explore-choice","101","337036","0.0-101.0","p678917","A1XQOZV8LQDM22","3P888QFVX40Z2B7BK75OWKP045JQOK","3ZGVPD4G6VNRGFB4TMF1672GRSEZTT","emotion","mismatch","uniform","","","","","","","1730.5","341638.6000000001","343369.1000000001","[""stimuli/BF08_HE.jpg"",""stimuli/AM05_AO.jpg"",""stimuli/WM09_SUR.jpg"",""stimuli/WF11_SC.jpg""]","stimuli/BF08_HE.jpg","stimuli/AM05_AO.jpg","stimuli/WM09_SUR.jpg","stimuli/WF11_SC.jpg","pos3","stimuli/WM09_SUR.jpg","SUR","WM09","2","4.5","9","8","stimuli/stars_9.png","113.5","[""HE"",""AO"",""SUR"",""SC""]","[""BF08"",""AM05"",""WM09"",""WF11""]","[3,3,9,6]","[2,4,8,6]","","",""
"show-reward","102","339055","0.0-102.0","p678917","A1XQOZV8LQDM22","3P888QFVX40Z2B7BK75OWKP045JQOK","3ZGVPD4G6VNRGFB4TMF1672GRSEZTT","emotion","mismatch","uniform","","","","","","","","343876.1999999997","345889.1000000001","","","","","","","","","","","","9","","stimuli/stars_9.png","113.5","","","","","stimuli/WM09_SUR.jpg","",""
"explore-choice","103","342293","0.0-103.0","p678917","A1XQOZV8LQDM22","3P888QFVX40Z2B7BK75OWKP045JQOK","3ZGVPD4G6VNRGFB4TMF1672GRSEZTT","emotion","mismatch","uniform","","","","","","","2732.7000000001863","345891.99999999953","348624.6999999997","[""stimuli/BF05_FO.jpg"",""stimuli/HF02_HO.jpg"",""stimuli/AF09_CC.jpg"",""stimuli/AF02_DO.jpg""]","stimuli/BF05_FO.jpg","stimuli/HF02_HO.jpg","stimuli/AF09_CC.jpg","stimuli/AF02_DO.jpg","pos1","stimuli/BF05_FO.jpg","FO","BF05","0","5","10","8","stimuli/stars_10.png","118.5","[""FO"",""HO"",""CC"",""DO""]","[""BF05"",""HF02"",""AF09"",""AF02""]","[10,7,4,4]","[8,6,4,2]","","",""
"show-reward","104","344312","0.0-104.0","p678917","A1XQOZV8LQDM22","3P888QFVX40Z2B7BK75OWKP045JQOK","3ZGVPD4G6VNRGFB4TMF1672GRSEZTT","emotion","mismatch","uniform","","","","","","","","349132.6999999997","351145.49999999953","","","","","","","","","","","","10","","stimuli/stars_10.png","118.5","","","","","stimuli/BF05_FO.jpg","",""
"explore-choice","105","349666","0.0-105.0","p678917","A1XQOZV8LQDM22","3P888QFVX40Z2B7BK75OWKP045JQOK","3ZGVPD4G6VNRGFB4TMF1672GRSEZTT","emotion","mismatch","uniform","","","","","","","4847","351150.8000000003","355997.8000000003","[""stimuli/AF02_FO.jpg"",""stimuli/HF02_DO.jpg"",""stimuli/AF09_HO.jpg"",""stimuli/BF05_CC.jpg""]","stimuli/AF02_FO.jpg","stimuli/HF02_DO.jpg","stimuli/AF09_HO.jpg","stimuli/BF05_CC.jpg","pos1","stimuli/AF02_FO.jpg","FO","AF02","0","0.5","1","2","stimuli/stars_1.png","119","[""FO"",""DO"",""HO"",""CC""]","[""AF02"",""HF02"",""AF09"",""BF05""]","[1,6,2,9]","[2,6,4,8]","","",""
"show-reward","106","351785","0.0-106.0","p678917","A1XQOZV8LQDM22","3P888QFVX40Z2B7BK75OWKP045JQOK","3ZGVPD4G6VNRGFB4TMF1672GRSEZTT","emotion","mismatch","uniform","","","","","","","","356506.8999999999","358613.1000000001","","","","","","","","","","","","1","","stimuli/stars_1.png","119","","","","","stimuli/AF02_FO.jpg","",""
"explore-choice","107","353804","0.0-107.0","p678917","A1XQOZV8LQDM22","3P888QFVX40Z2B7BK75OWKP045JQOK","3ZGVPD4G6VNRGFB4TMF1672GRSEZTT","emotion","mismatch","uniform","","","","","","","1510.8999999994412","358624.8000000003","360135.6999999997","[""stimuli/AF09_HO.jpg"",""stimuli/AF02_DO.jpg"",""stimuli/HF02_CC.jpg"",""stimuli/BF05_FO.jpg""]","stimuli/AF09_HO.jpg","stimuli/AF02_DO.jpg","stimuli/HF02_CC.jpg","stimuli/BF05_FO.jpg","pos1","stimuli/AF09_HO.jpg","HO","AF09","0","1.5","3","4","stimuli/stars_3.png","120.5","[""HO"",""DO"",""CC"",""FO""]","[""AF09"",""AF02"",""HF02"",""BF05""]","[3,1,6,8]","[4,2,6,8]","","",""
"show-reward","108","355837","0.0-108.0","p678917","A1XQOZV8LQDM22","3P888QFVX40Z2B7BK75OWKP045JQOK","3ZGVPD4G6VNRGFB4TMF1672GRSEZTT","emotion","mismatch","uniform","","","","","","","","360643.1999999997","362670.6999999997","","","","","","","","","","","","3","","stimuli/stars_3.png","120.5","","","","","stimuli/AF09_HO.jpg","",""
"explore-choice","109","358269","0.0-109.0","p678917","A1XQOZV8LQDM22","3P888QFVX40Z2B7BK75OWKP045JQOK","3ZGVPD4G6VNRGFB4TMF1672GRSEZTT","emotion","mismatch","uniform","","","","","","","1925.7999999998137","362676.3000000003","364602.1000000001","[""stimuli/AF02_FO.jpg"",""stimuli/HF02_HO.jpg"",""stimuli/AF09_DO.jpg"",""stimuli/BF05_CC.jpg""]","stimuli/AF02_FO.jpg","stimuli/HF02_HO.jpg","stimuli/AF09_DO.jpg","stimuli/BF05_CC.jpg","pos4","stimuli/BF05_CC.jpg","CC","BF05","3","4","8","8","stimuli/stars_8.png","124.5","[""FO"",""HO"",""DO"",""CC""]","[""AF02"",""HF02"",""AF09"",""BF05""]","[0,8,4,8]","[2,6,4,8]","","",""
"show-reward","110","360288","0.0-110.0","p678917","A1XQOZV8LQDM22","3P888QFVX40Z2B7BK75OWKP045JQOK","3ZGVPD4G6VNRGFB4TMF1672GRSEZTT","emotion","mismatch","uniform","","","","","","","","365107.1000000001","367115.99999999953","","","","","","","","","","","","8","","stimuli/stars_8.png","124.5","","","","","stimuli/BF05_CC.jpg","",""
"explore-choice","111","362487","0.0-111.0","p678917","A1XQOZV8LQDM22","3P888QFVX40Z2B7BK75OWKP045JQOK","3ZGVPD4G6VNRGFB4TMF1672GRSEZTT","emotion","mismatch","uniform","","","","","","","1688.5","367129.1999999997","368817.6999999997","[""stimuli/BF05_HO.jpg"",""stimuli/AF02_FO.jpg"",""stimuli/AF09_DO.jpg"",""stimuli/HF02_CC.jpg""]","stimuli/BF05_HO.jpg","stimuli/AF02_FO.jpg","stimuli/AF09_DO.jpg","stimuli/HF02_CC.jpg","pos1","stimuli/BF05_HO.jpg","HO","BF05","0","5","10","8","stimuli/stars_10.png","129.5","[""HO"",""FO"",""DO"",""CC""]","[""BF05"",""AF02"",""AF09"",""HF02""]","[10,1,2,4]","[8,2,4,6]","","",""
"show-reward","112","364595","0.0-112.0","p678917","A1XQOZV8LQDM22","3P888QFVX40Z2B7BK75OWKP045JQOK","3ZGVPD4G6VNRGFB4TMF1672GRSEZTT","emotion","mismatch","uniform","","","","","","","","369346.6000000001","371368.8999999999","","","","","","","","","","","","10","","stimuli/stars_10.png","129.5","","","","","stimuli/BF05_HO.jpg","",""
"explore-choice","113","366995","0.0-113.0","p678917","A1XQOZV8LQDM22","3P888QFVX40Z2B7BK75OWKP045JQOK","3ZGVPD4G6VNRGFB4TMF1672GRSEZTT","emotion","mismatch","uniform","","","","","","","1861.2000000001863","371449.49999999953","373310.6999999997","[""stimuli/AF02_FO.jpg"",""stimuli/BF05_DO.jpg"",""stimuli/HF02_HO.jpg"",""stimuli/AF09_CC.jpg""]","stimuli/AF02_FO.jpg","stimuli/BF05_DO.jpg","stimuli/HF02_HO.jpg","stimuli/AF09_CC.jpg","pos3","stimuli/HF02_HO.jpg","HO","HF02","2","3.5","7","6","stimuli/stars_7.png","133","[""FO"",""DO"",""HO"",""CC""]","[""AF02"",""BF05"",""HF02"",""AF09""]","[2,6,7,4]","[2,8,6,4]","","",""
"show-reward","114","369017","0.0-114.0","p678917","A1XQOZV8LQDM22","3P888QFVX40Z2B7BK75OWKP045JQOK","3ZGVPD4G6VNRGFB4TMF1672GRSEZTT","emotion","mismatch","uniform","","","","","","","","373835.3000000003","375850.49999999953","","","","","","","","","","","","7","","stimuli/stars_7.png","133","","","","","stimuli/HF02_HO.jpg","",""
"explore-choice","115","380151","0.0-115.0","p678917","A1XQOZV8LQDM22","3P888QFVX40Z2B7BK75OWKP045JQOK","3ZGVPD4G6VNRGFB4TMF1672GRSEZTT","emotion","mismatch","uniform","","","","","","","10627.700000000186","375855.6000000001","386483.3000000003","[""stimuli/HF02_FO.jpg"",""stimuli/AF09_DO.jpg"",""stimuli/BF05_CC.jpg"",""stimuli/AF02_HO.jpg""]","stimuli/HF02_FO.jpg","stimuli/AF09_DO.jpg","stimuli/BF05_CC.jpg","stimuli/AF02_HO.jpg","pos3","stimuli/BF05_CC.jpg","CC","BF05","2","5","10","8","stimuli/stars_10.png","138","[""FO"",""DO"",""CC"",""HO""]","[""HF02"",""AF09"",""BF05"",""AF02""]","[4,4,10,2]","[6,4,8,2]","","",""
"show-reward","116","382165","0.0-116.0","p678917","A1XQOZV8LQDM22","3P888QFVX40Z2B7BK75OWKP045JQOK","3ZGVPD4G6VNRGFB4TMF1672GRSEZTT","emotion","mismatch","uniform","","","","","","","","386988.8000000003","388997.1999999997","","","","","","","","","","","","10","","stimuli/stars_10.png","138","","","","","stimuli/BF05_CC.jpg","",""
"explore-choice","117","384665","0.0-117.0","p678917","A1XQOZV8LQDM22","3P888QFVX40Z2B7BK75OWKP045JQOK","3ZGVPD4G6VNRGFB4TMF1672GRSEZTT","emotion","mismatch","uniform","","","","","","","1968.9000000003725","389026.3999999999","390995.3000000003","[""stimuli/AF02_CC.jpg"",""stimuli/BF05_FO.jpg"",""stimuli/AF09_DO.jpg"",""stimuli/HF02_HO.jpg""]","stimuli/AF02_CC.jpg","stimuli/BF05_FO.jpg","stimuli/AF09_DO.jpg","stimuli/HF02_HO.jpg","pos2","stimuli/BF05_FO.jpg","FO","BF05","1","3","6","8","stimuli/stars_6.png","141","[""CC"",""FO"",""DO"",""HO""]","[""AF02"",""BF05"",""AF09"",""HF02""]","[4,6,4,6]","[2,8,4,6]","","",""
"show-reward","118","386692","0.0-118.0","p678917","A1XQOZV8LQDM22","3P888QFVX40Z2B7BK75OWKP045JQOK","3ZGVPD4G6VNRGFB4TMF1672GRSEZTT","emotion","mismatch","uniform","","","","","","","","391505.1999999997","393523.8000000003","","","","","","","","","","","","6","","stimuli/stars_6.png","141","","","","","stimuli/BF05_FO.jpg","",""
"explore-choice","119","388974","0.0-119.0","p678917","A1XQOZV8LQDM22","3P888QFVX40Z2B7BK75OWKP045JQOK","3ZGVPD4G6VNRGFB4TMF1672GRSEZTT","emotion","mismatch","uniform","","","","","","","1774.7000000001863","393532.1999999997","395306.8999999999","[""stimuli/HF02_CC.jpg"",""stimuli/AF09_HO.jpg"",""stimuli/BF05_DO.jpg"",""stimuli/AF02_FO.jpg""]","stimuli/HF02_CC.jpg","stimuli/AF09_HO.jpg","stimuli/BF05_DO.jpg","stimuli/AF02_FO.jpg","pos4","stimuli/AF02_FO.jpg","FO","AF02","3","0.5","1","2","stimuli/stars_1.png","141.5","[""CC"",""HO"",""DO"",""FO""]","[""HF02"",""AF09"",""BF05"",""AF02""]","[7,4,6,1]","[6,4,8,2]","","",""
"show-reward","120","390985","0.0-120.0","p678917","A1XQOZV8LQDM22","3P888QFVX40Z2B7BK75OWKP045JQOK","3ZGVPD4G6VNRGFB4TMF1672GRSEZTT","emotion","mismatch","uniform","","","","","","","","395811.8999999999","397819.1000000001","","","","","","","","","","","","1","","stimuli/stars_1.png","141.5","","","","","stimuli/AF02_FO.jpg","",""
"explore-choice","121","392933","0.0-121.0","p678917","A1XQOZV8LQDM22","3P888QFVX40Z2B7BK75OWKP045JQOK","3ZGVPD4G6VNRGFB4TMF1672GRSEZTT","emotion","mismatch","uniform","","","","","","","1441.7999999998137","397824.6999999997","399266.49999999953","[""stimuli/AF09_FO.jpg"",""stimuli/BF05_HO.jpg"",""stimuli/HF02_DO.jpg"",""stimuli/AF02_CC.jpg""]","stimuli/AF09_FO.jpg","stimuli/BF05_HO.jpg","stimuli/HF02_DO.jpg","stimuli/AF02_CC.jpg","pos1","stimuli/AF09_FO.jpg","FO","AF09","0","2","4","4","stimuli/stars_4.png","143.5","[""FO"",""HO"",""DO"",""CC""]","[""AF09"",""BF05"",""HF02"",""AF02""]","[4,6,8,2]","[4,8,6,2]","","",""
"show-reward","122","394947","0.0-122.0","p678917","A1XQOZV8LQDM22","3P888QFVX40Z2B7BK75OWKP045JQOK","3ZGVPD4G6VNRGFB4TMF1672GRSEZTT","emotion","mismatch","uniform","","","","","","","","399770.6000000001","401780.3999999999","","","","","","","","","","","","4","","stimuli/stars_4.png","143.5","","","","","stimuli/AF09_FO.jpg","",""
"explore-choice","123","396929","0.0-123.0","p678917","A1XQOZV8LQDM22","3P888QFVX40Z2B7BK75OWKP045JQOK","3ZGVPD4G6VNRGFB4TMF1672GRSEZTT","emotion","mismatch","uniform","","","","","","","1474","401786.1999999997","403260.1999999997","[""stimuli/HF02_DO.jpg"",""stimuli/AF02_FO.jpg"",""stimuli/BF05_HO.jpg"",""stimuli/AF09_CC.jpg""]","stimuli/HF02_DO.jpg","stimuli/AF02_FO.jpg","stimuli/BF05_HO.jpg","stimuli/AF09_CC.jpg","pos3","stimuli/BF05_HO.jpg","HO","BF05","2","3.5","7","8","stimuli/stars_7.png","147","[""DO"",""FO"",""HO"",""CC""]","[""HF02"",""AF02"",""BF05"",""AF09""]","[8,3,7,3]","[6,2,8,4]","","",""
"show-reward","124","398948","0.0-124.0","p678917","A1XQOZV8LQDM22","3P888QFVX40Z2B7BK75OWKP045JQOK","3ZGVPD4G6VNRGFB4TMF1672GRSEZTT","emotion","mismatch","uniform","","","","","","","","403768.8000000003","405781.49999999953","","","","","","","","","","","","7","","stimuli/stars_7.png","147","","","","","stimuli/BF05_HO.jpg","",""
"explore-choice","125","401342","0.0-125.0","p678917","A1XQOZV8LQDM22","3P888QFVX40Z2B7BK75OWKP045JQOK","3ZGVPD4G6VNRGFB4TMF1672GRSEZTT","emotion","mismatch","uniform","","","","","","","1884.8999999994412","405789.1000000001","407673.99999999953","[""stimuli/AF09_HO.jpg"",""stimuli/AF02_DO.jpg"",""stimuli/HF02_FO.jpg"",""stimuli/BF05_CC.jpg""]","stimuli/AF09_HO.jpg","stimuli/AF02_DO.jpg","stimuli/HF02_FO.jpg","stimuli/BF05_CC.jpg","pos4","stimuli/BF05_CC.jpg","CC","BF05","3","4.5","9","8","stimuli/stars_9.png","151.5","[""HO"",""DO"",""FO"",""CC""]","[""AF09"",""AF02"",""HF02"",""BF05""]","[5,0,6,9]","[4,2,6,8]","","",""
"show-reward","126","403360","0.0-126.0","p678917","A1XQOZV8LQDM22","3P888QFVX40Z2B7BK75OWKP045JQOK","3ZGVPD4G6VNRGFB4TMF1672GRSEZTT","emotion","mismatch","uniform","","","","","","","","408181.49999999953","410194.49999999953","","","","","","","","","","","","9","","stimuli/stars_9.png","151.5","","","","","stimuli/BF05_CC.jpg","",""
"explore-choice","127","405499","0.0-127.0","p678917","A1XQOZV8LQDM22","3P888QFVX40Z2B7BK75OWKP045JQOK","3ZGVPD4G6VNRGFB4TMF1672GRSEZTT","emotion","mismatch","uniform","","","","","","","1604.300000000745","410196.99999999953","411801.3000000003","[""stimuli/AF09_CC.jpg"",""stimuli/AF02_HO.jpg"",""stimuli/HF02_FO.jpg"",""stimuli/BF05_DO.jpg""]","stimuli/AF09_CC.jpg","stimuli/AF02_HO.jpg","stimuli/HF02_FO.jpg","stimuli/BF05_DO.jpg","pos4","stimuli/BF05_DO.jpg","DO","BF05","3","5","10","8","stimuli/stars_10.png","156.5","[""CC"",""HO"",""FO"",""DO""]","[""AF09"",""AF02"",""HF02"",""BF05""]","[2,3,7,10]","[4,2,6,8]","","",""
"show-reward","128","407532","0.0-128.0","p678917","A1XQOZV8LQDM22","3P888QFVX40Z2B7BK75OWKP045JQOK","3ZGVPD4G6VNRGFB4TMF1672GRSEZTT","emotion","mismatch","uniform","","","","","","","","412338.6000000001","414364.8999999999","","","","","","","","","","","","10","","stimuli/stars_10.png","156.5","","","","","stimuli/BF05_DO.jpg","",""
"explore-choice","129","409293","0.0-129.0","p678917","A1XQOZV8LQDM22","3P888QFVX40Z2B7BK75OWKP045JQOK","3ZGVPD4G6VNRGFB4TMF1672GRSEZTT","emotion","mismatch","uniform","","","","","","","1254.2000000001863","414371.1000000001","415625.3000000003","[""stimuli/BF05_CC.jpg"",""stimuli/AF09_FO.jpg"",""stimuli/AF02_DO.jpg"",""stimuli/HF02_HO.jpg""]","stimuli/BF05_CC.jpg","stimuli/AF09_FO.jpg","stimuli/AF02_DO.jpg","stimuli/HF02_HO.jpg","pos1","stimuli/BF05_CC.jpg","CC","BF05","0","4.5","9","8","stimuli/stars_9.png","161","[""CC"",""FO"",""DO"",""HO""]","[""BF05"",""AF09"",""AF02"",""HF02""]","[9,6,0,4]","[8,4,2,6]","","",""
"show-reward","130","411313","0.0-130.0","p678917","A1XQOZV8LQDM22","3P888QFVX40Z2B7BK75OWKP045JQOK","3ZGVPD4G6VNRGFB4TMF1672GRSEZTT","emotion","mismatch","uniform","","","","","","","","416132.1000000001","418147.49999999953","","","","","","","","","","","","9","","stimuli/stars_9.png","161","","","","","stimuli/BF05_CC.jpg","",""
"explore-choice","131","413491","0.0-131.0","p678917","A1XQOZV8LQDM22","3P888QFVX40Z2B7BK75OWKP045JQOK","3ZGVPD4G6VNRGFB4TMF1672GRSEZTT","emotion","mismatch","uniform","","","","","","","1554","418153.1999999997","419707.1999999997","[""stimuli/HF02_FO.jpg"",""stimuli/AF09_DO.jpg"",""stimuli/AF02_CC.jpg"",""stimuli/BF05_HO.jpg""]","stimuli/HF02_FO.jpg","stimuli/AF09_DO.jpg","stimuli/AF02_CC.jpg","stimuli/BF05_HO.jpg","pos4","stimuli/BF05_HO.jpg","HO","BF05","3","4","8","8","stimuli/stars_8.png","165","[""FO"",""DO"",""CC"",""HO""]","[""HF02"",""AF09"",""AF02"",""BF05""]","[8,4,0,8]","[6,4,2,8]","","",""
"show-reward","132","415539","0.0-132.0","p678917","A1XQOZV8LQDM22","3P888QFVX40Z2B7BK75OWKP045JQOK","3ZGVPD4G6VNRGFB4TMF1672GRSEZTT","emotion","mismatch","uniform","","","","","","","","420363.49999999953","422372.49999999953","","","","","","","","","","","","8","","stimuli/stars_8.png","165","","","","","stimuli/BF05_HO.jpg","",""
"explore-choice","133","416811","0.0-133.0","p678917","A1XQOZV8LQDM22","3P888QFVX40Z2B7BK75OWKP045JQOK","3ZGVPD4G6VNRGFB4TMF1672GRSEZTT","emotion","mismatch","uniform","","","","","","","762.1000000005588","422378.49999999953","423140.6000000001","[""stimuli/HF02_FO.jpg"",""stimuli/BF05_DO.jpg"",""stimuli/AF09_HO.jpg"",""stimuli/AF02_CC.jpg""]","stimuli/HF02_FO.jpg","stimuli/BF05_DO.jpg","stimuli/AF09_HO.jpg","stimuli/AF02_CC.jpg","pos1","stimuli/HF02_FO.jpg","FO","HF02","0","4","8","6","stimuli/stars_8.png","169","[""FO"",""DO"",""HO"",""CC""]","[""HF02"",""BF05"",""AF09"",""AF02""]","[8,7,4,1]","[6,8,4,2]","","",""
"show-reward","134","418838","0.0-134.0","p678917","A1XQOZV8LQDM22","3P888QFVX40Z2B7BK75OWKP045JQOK","3ZGVPD4G6VNRGFB4TMF1672GRSEZTT","emotion","mismatch","uniform","","","","","","","","423651.8999999999","425670.8000000003","","","","","","","","","","","","8","","stimuli/stars_8.png","169","","","","","stimuli/HF02_FO.jpg","",""
"explore-choice","135","420806","0.0-135.0","p678917","A1XQOZV8LQDM22","3P888QFVX40Z2B7BK75OWKP045JQOK","3ZGVPD4G6VNRGFB4TMF1672GRSEZTT","emotion","mismatch","uniform","","","","","","","1438.6000000005588","425699.6999999997","427138.3000000003","[""stimuli/BF05_FO.jpg"",""stimuli/AF02_CC.jpg"",""stimuli/AF09_HO.jpg"",""stimuli/HF02_DO.jpg""]","stimuli/BF05_FO.jpg","stimuli/AF02_CC.jpg","stimuli/AF09_HO.jpg","stimuli/HF02_DO.jpg","pos1","stimuli/BF05_FO.jpg","FO","BF05","0","3","6","8","stimuli/stars_6.png","172","[""FO"",""CC"",""HO"",""DO""]","[""BF05"",""AF02"",""AF09"",""HF02""]","[6,1,3,6]","[8,2,4,6]","","",""
"show-reward","136","422835","0.0-136.0","p678917","A1XQOZV8LQDM22","3P888QFVX40Z2B7BK75OWKP045JQOK","3ZGVPD4G6VNRGFB4TMF1672GRSEZTT","emotion","mismatch","uniform","","","","","","","","427648.1000000001","429668.1000000001","","","","","","","","","","","","6","","stimuli/stars_6.png","172","","","","","stimuli/BF05_FO.jpg","",""
"explore-choice","137","424471","0.0-137.0","p678917","A1XQOZV8LQDM22","3P888QFVX40Z2B7BK75OWKP045JQOK","3ZGVPD4G6VNRGFB4TMF1672GRSEZTT","emotion","mismatch","uniform","","","","","","","1122.7000000001863","429679.3999999999","430802.1000000001","[""stimuli/BF05_HO.jpg"",""stimuli/HF02_CC.jpg"",""stimuli/AF02_DO.jpg"",""stimuli/AF09_FO.jpg""]","stimuli/BF05_HO.jpg","stimuli/HF02_CC.jpg","stimuli/AF02_DO.jpg","stimuli/AF09_FO.jpg","pos1","stimuli/BF05_HO.jpg","HO","BF05","0","4","8","8","stimuli/stars_8.png","176","[""HO"",""CC"",""DO"",""FO""]","[""BF05"",""HF02"",""AF02"",""AF09""]","[8,5,1,5]","[8,6,2,4]","","",""
"show-reward","138","426492","0.0-138.0","p678917","A1XQOZV8LQDM22","3P888QFVX40Z2B7BK75OWKP045JQOK","3ZGVPD4G6VNRGFB4TMF1672GRSEZTT","emotion","mismatch","uniform","","","","","","","","431310.8000000003","433325.8999999999","","","","","","","","","","","","8","","stimuli/stars_8.png","176","","","","","stimuli/BF05_HO.jpg","",""
"explore-choice","139","427910","0.0-139.0","p678917","A1XQOZV8LQDM22","3P888QFVX40Z2B7BK75OWKP045JQOK","3ZGVPD4G6VNRGFB4TMF1672GRSEZTT","emotion","mismatch","uniform","","","","","","","915.1000000005588","433328.99999999953","434244.1000000001","[""stimuli/HF02_DO.jpg"",""stimuli/AF09_CC.jpg"",""stimuli/AF02_HO.jpg"",""stimuli/BF05_FO.jpg""]","stimuli/HF02_DO.jpg","stimuli/AF09_CC.jpg","stimuli/AF02_HO.jpg","stimuli/BF05_FO.jpg","pos1","stimuli/HF02_DO.jpg","DO","HF02","0","3.5","7","6","stimuli/stars_7.png","179.5","[""DO"",""CC"",""HO"",""FO""]","[""HF02"",""AF09"",""AF02"",""BF05""]","[7,3,0,6]","[6,4,2,8]","","",""
"show-reward","140","429922","0.0-140.0","p678917","A1XQOZV8LQDM22","3P888QFVX40Z2B7BK75OWKP045JQOK","3ZGVPD4G6VNRGFB4TMF1672GRSEZTT","emotion","mismatch","uniform","","","","","","","","434747.6999999997","436755.8999999999","","","","","","","","","","","","7","","stimuli/stars_7.png","179.5","","","","","stimuli/HF02_DO.jpg","",""
"explore-choice","141","431583","0.0-141.0","p678917","A1XQOZV8LQDM22","3P888QFVX40Z2B7BK75OWKP045JQOK","3ZGVPD4G6VNRGFB4TMF1672GRSEZTT","emotion","mismatch","uniform","","","","","","","1153.0999999996275","436762.8000000003","437915.8999999999","[""stimuli/AF09_CC.jpg"",""stimuli/BF05_HO.jpg"",""stimuli/HF02_FO.jpg"",""stimuli/AF02_DO.jpg""]","stimuli/AF09_CC.jpg","stimuli/BF05_HO.jpg","stimuli/HF02_FO.jpg","stimuli/AF02_DO.jpg","pos2","stimuli/BF05_HO.jpg","HO","BF05","1","3.5","7","8","stimuli/stars_7.png","183","[""CC"",""HO"",""FO"",""DO""]","[""AF09"",""BF05"",""HF02"",""AF02""]","[6,7,6,2]","[4,8,6,2]","","",""
"show-reward","142","433596","0.0-142.0","p678917","A1XQOZV8LQDM22","3P888QFVX40Z2B7BK75OWKP045JQOK","3ZGVPD4G6VNRGFB4TMF1672GRSEZTT","emotion","mismatch","uniform","","","","","","","","438420.3000000003","440428.6999999997","","","","","","","","","","","","7","","stimuli/stars_7.png","183","","","","","stimuli/BF05_HO.jpg","",""
"explore-choice","143","435249","0.0-143.0","p678917","A1XQOZV8LQDM22","3P888QFVX40Z2B7BK75OWKP045JQOK","3ZGVPD4G6VNRGFB4TMF1672GRSEZTT","emotion","mismatch","uniform","","","","","","","1143.5","440434.6000000001","441578.1000000001","[""stimuli/BF05_CC.jpg"",""stimuli/AF02_HO.jpg"",""stimuli/AF09_FO.jpg"",""stimuli/HF02_DO.jpg""]","stimuli/BF05_CC.jpg","stimuli/AF02_HO.jpg","stimuli/AF09_FO.jpg","stimuli/HF02_DO.jpg","pos1","stimuli/BF05_CC.jpg","CC","BF05","0","4","8","8","stimuli/stars_8.png","187","[""CC"",""HO"",""FO"",""DO""]","[""BF05"",""AF02"",""AF09"",""HF02""]","[8,2,5,8]","[8,2,4,6]","","",""
"show-reward","144","437260","0.0-144.0","p678917","A1XQOZV8LQDM22","3P888QFVX40Z2B7BK75OWKP045JQOK","3ZGVPD4G6VNRGFB4TMF1672GRSEZTT","emotion","mismatch","uniform","","","","","","","","442086.1999999997","444094.1000000001","","","","","","","","","","","","8","","stimuli/stars_8.png","187","","","","","stimuli/BF05_CC.jpg","",""
"explore-choice","145","438794","0.0-145.0","p678917","A1XQOZV8LQDM22","3P888QFVX40Z2B7BK75OWKP045JQOK","3ZGVPD4G6VNRGFB4TMF1672GRSEZTT","emotion","mismatch","uniform","","","","","","","1023.2999999998137","444099.8000000003","445123.1000000001","[""stimuli/HF02_CC.jpg"",""stimuli/BF05_DO.jpg"",""stimuli/AF02_HO.jpg"",""stimuli/AF09_FO.jpg""]","stimuli/HF02_CC.jpg","stimuli/BF05_DO.jpg","stimuli/AF02_HO.jpg","stimuli/AF09_FO.jpg","pos2","stimuli/BF05_DO.jpg","DO","BF05","1","3.5","7","8","stimuli/stars_7.png","190.5","[""CC"",""DO"",""HO"",""FO""]","[""HF02"",""BF05"",""AF02"",""AF09""]","[7,7,1,3]","[6,8,2,4]","","",""
"show-reward","146","440818","0.0-146.0","p678917","A1XQOZV8LQDM22","3P888QFVX40Z2B7BK75OWKP045JQOK","3ZGVPD4G6VNRGFB4TMF1672GRSEZTT","emotion","mismatch","uniform","","","","","","","","445634.1000000001","447651.99999999953","","","","","","","","","","","","7","","stimuli/stars_7.png","190.5","","","","","stimuli/BF05_DO.jpg","",""
"explore-choice","147","442335","0.0-147.0","p678917","A1XQOZV8LQDM22","3P888QFVX40Z2B7BK75OWKP045JQOK","3ZGVPD4G6VNRGFB4TMF1672GRSEZTT","emotion","mismatch","uniform","","","","","","","1012","447656.8000000003","448668.8000000003","[""stimuli/BF05_DO.jpg"",""stimuli/HF02_HO.jpg"",""stimuli/AF02_CC.jpg"",""stimuli/AF09_FO.jpg""]","stimuli/BF05_DO.jpg","stimuli/HF02_HO.jpg","stimuli/AF02_CC.jpg","stimuli/AF09_FO.jpg","pos1","stimuli/BF05_DO.jpg","DO","BF05","0","4","8","8","stimuli/stars_8.png","194.5","[""DO"",""HO"",""CC"",""FO""]","[""BF05"",""HF02"",""AF02"",""AF09""]","[8,5,2,4]","[8,6,2,4]","","",""
"show-reward","148","444352","0.0-148.0","p678917","A1XQOZV8LQDM22","3P888QFVX40Z2B7BK75OWKP045JQOK","3ZGVPD4G6VNRGFB4TMF1672GRSEZTT","emotion","mismatch","uniform","","","","","","","","449174.6000000001","451186.6999999997","","","","","","","","","","","","8","","stimuli/stars_8.png","194.5","","","","","stimuli/BF05_DO.jpg","",""
"explore-choice","149","446702","0.0-149.0","p678917","A1XQOZV8LQDM22","3P888QFVX40Z2B7BK75OWKP045JQOK","3ZGVPD4G6VNRGFB4TMF1672GRSEZTT","emotion","mismatch","uniform","","","","","","","1837.9000000003725","451189.49999999953","453027.3999999999","[""stimuli/AF02_HO.jpg"",""stimuli/AF09_DO.jpg"",""stimuli/BF05_FO.jpg"",""stimuli/HF02_CC.jpg""]","stimuli/AF02_HO.jpg","stimuli/AF09_DO.jpg","stimuli/BF05_FO.jpg","stimuli/HF02_CC.jpg","pos3","stimuli/BF05_FO.jpg","FO","BF05","2","3.5","7","8","stimuli/stars_7.png","198","[""HO"",""DO"",""FO"",""CC""]","[""AF02"",""AF09"",""BF05"",""HF02""]","[4,5,7,4]","[2,4,8,6]","","",""
"show-reward","150","448715","0.0-150.0","p678917","A1XQOZV8LQDM22","3P888QFVX40Z2B7BK75OWKP045JQOK","3ZGVPD4G6VNRGFB4TMF1672GRSEZTT","emotion","mismatch","uniform","","","","","","","","453540.3000000003","455549.49999999953","","","","","","","","","","","","7","","stimuli/stars_7.png","198","","","","","stimuli/BF05_FO.jpg","",""
"explore-choice","151","451087","0.0-151.0","p678917","A1XQOZV8LQDM22","3P888QFVX40Z2B7BK75OWKP045JQOK","3ZGVPD4G6VNRGFB4TMF1672GRSEZTT","emotion","mismatch","uniform","","","","","","","1864","455555.3000000003","457419.3000000003","[""stimuli/AF09_DO.jpg"",""stimuli/BF05_HO.jpg"",""stimuli/AF02_FO.jpg"",""stimuli/HF02_CC.jpg""]","stimuli/AF09_DO.jpg","stimuli/BF05_HO.jpg","stimuli/AF02_FO.jpg","stimuli/HF02_CC.jpg","pos4","stimuli/HF02_CC.jpg","CC","HF02","3","2","4","6","stimuli/stars_4.png","200","[""DO"",""HO"",""FO"",""CC""]","[""AF09"",""BF05"",""AF02"",""HF02""]","[2,10,1,4]","[4,8,2,6]","","",""
"show-reward","152","453111","0.0-152.0","p678917","A1XQOZV8LQDM22","3P888QFVX40Z2B7BK75OWKP045JQOK","3ZGVPD4G6VNRGFB4TMF1672GRSEZTT","emotion","mismatch","uniform","","","","","","","","457927.6999999997","459945.3000000003","","","","","","","","","","","","4","","stimuli/stars_4.png","200","","","","","stimuli/HF02_CC.jpg","",""
"explore-choice","153","454399","0.0-153.0","p678917","A1XQOZV8LQDM22","3P888QFVX40Z2B7BK75OWKP045JQOK","3ZGVPD4G6VNRGFB4TMF1672GRSEZTT","emotion","mismatch","uniform","","","","","","","774.7999999998137","459948.6000000001","460723.3999999999","[""stimuli/BF05_FO.jpg"",""stimuli/HF02_DO.jpg"",""stimuli/AF09_HO.jpg"",""stimuli/AF02_CC.jpg""]","stimuli/BF05_FO.jpg","stimuli/HF02_DO.jpg","stimuli/AF09_HO.jpg","stimuli/AF02_CC.jpg","pos1","stimuli/BF05_FO.jpg","FO","BF05","0","3","6","8","stimuli/stars_6.png","203","[""FO"",""DO"",""HO"",""CC""]","[""BF05"",""HF02"",""AF09"",""AF02""]","[6,6,3,1]","[8,6,4,2]","","",""
"show-reward","154","456422","0.0-154.0","p678917","A1XQOZV8LQDM22","3P888QFVX40Z2B7BK75OWKP045JQOK","3ZGVPD4G6VNRGFB4TMF1672GRSEZTT","emotion","mismatch","uniform","","","","","","","","461237.6000000001","463255.99999999953","","","","","","","","","","","","6","","stimuli/stars_6.png","203","","","","","stimuli/BF05_FO.jpg","",""
"explore-choice","155","460423","0.0-155.0","p678917","A1XQOZV8LQDM22","3P888QFVX40Z2B7BK75OWKP045JQOK","3ZGVPD4G6VNRGFB4TMF1672GRSEZTT","emotion","mismatch","uniform","","","","","","","3493.699999999255","463261.8000000003","466755.49999999953","[""stimuli/BF05_HO.jpg"",""stimuli/AF02_DO.jpg"",""stimuli/HF02_FO.jpg"",""stimuli/AF09_CC.jpg""]","stimuli/BF05_HO.jpg","stimuli/AF02_DO.jpg","stimuli/HF02_FO.jpg","stimuli/AF09_CC.jpg","pos3","stimuli/HF02_FO.jpg","FO","HF02","2","3","6","6","stimuli/stars_6.png","206","[""HO"",""DO"",""FO"",""CC""]","[""BF05"",""AF02"",""HF02"",""AF09""]","[7,2,6,6]","[8,2,6,4]","","",""
"show-reward","156","462442","0.0-156.0","p678917","A1XQOZV8LQDM22","3P888QFVX40Z2B7BK75OWKP045JQOK","3ZGVPD4G6VNRGFB4TMF1672GRSEZTT","emotion","mismatch","uniform","","","","","","","","467263.8999999999","469276.3999999999","","","","","","","","","","","","6","","stimuli/stars_6.png","206","","","","","stimuli/HF02_FO.jpg","",""
"explore-choice","157","464944","0.0-157.0","p678917","A1XQOZV8LQDM22","3P888QFVX40Z2B7BK75OWKP045JQOK","3ZGVPD4G6VNRGFB4TMF1672GRSEZTT","emotion","mismatch","uniform","","","","","","","1997.7000000001863","469279.6999999997","471277.3999999999","[""stimuli/AF09_HO.jpg"",""stimuli/HF02_DO.jpg"",""stimuli/BF05_CC.jpg"",""stimuli/AF02_FO.jpg""]","stimuli/AF09_HO.jpg","stimuli/HF02_DO.jpg","stimuli/BF05_CC.jpg","stimuli/AF02_FO.jpg","pos3","stimuli/BF05_CC.jpg","CC","BF05","2","4.5","9","8","stimuli/stars_9.png","210.5","[""HO"",""DO"",""CC"",""FO""]","[""AF09"",""HF02"",""BF05"",""AF02""]","[2,6,9,1]","[4,6,8,2]","","",""
"show-reward","158","466956","0.0-158.0","p678917","A1XQOZV8LQDM22","3P888QFVX40Z2B7BK75OWKP045JQOK","3ZGVPD4G6VNRGFB4TMF1672GRSEZTT","emotion","mismatch","uniform","","","","","","","","471781.8999999999","473790.3000000003","","","","","","","","","","","","9","","stimuli/stars_9.png","210.5","","","","","stimuli/BF05_CC.jpg","",""
"explore-choice","159","469235","0.0-159.0","p678917","A1XQOZV8LQDM22","3P888QFVX40Z2B7BK75OWKP045JQOK","3ZGVPD4G6VNRGFB4TMF1672GRSEZTT","emotion","mismatch","uniform","","","","","","","1768.8999999994412","473798.6000000001","475567.49999999953","[""stimuli/HF02_DO.jpg"",""stimuli/AF02_FO.jpg"",""stimuli/BF05_HO.jpg"",""stimuli/AF09_CC.jpg""]","stimuli/HF02_DO.jpg","stimuli/AF02_FO.jpg","stimuli/BF05_HO.jpg","stimuli/AF09_CC.jpg","pos3","stimuli/BF05_HO.jpg","HO","BF05","2","3.5","7","8","stimuli/stars_7.png","214","[""DO"",""FO"",""HO"",""CC""]","[""HF02"",""AF02"",""BF05"",""AF09""]","[8,3,7,3]","[6,2,8,4]","","",""
"show-reward","160","471259","0.0-160.0","p678917","A1XQOZV8LQDM22","3P888QFVX40Z2B7BK75OWKP045JQOK","3ZGVPD4G6VNRGFB4TMF1672GRSEZTT","emotion","mismatch","uniform","","","","","","","","476075.1000000001","478093.1000000001","","","","","","","","","","","","7","","stimuli/stars_7.png","214","","","","","stimuli/BF05_HO.jpg","",""
"explore-choice","161","473367","0.0-161.0","p678917","A1XQOZV8LQDM22","3P888QFVX40Z2B7BK75OWKP045JQOK","3ZGVPD4G6VNRGFB4TMF1672GRSEZTT","emotion","mismatch","uniform","","","","","","","1601.300000000745","478097.49999999953","479698.8000000003","[""stimuli/AF09_FO.jpg"",""stimuli/HF02_DO.jpg"",""stimuli/AF02_HO.jpg"",""stimuli/BF05_CC.jpg""]","stimuli/AF09_FO.jpg","stimuli/HF02_DO.jpg","stimuli/AF02_HO.jpg","stimuli/BF05_CC.jpg","pos4","stimuli/BF05_CC.jpg","CC","BF05","3","4","8","8","stimuli/stars_8.png","218","[""FO"",""DO"",""HO"",""CC""]","[""AF09"",""HF02"",""AF02"",""BF05""]","[5,8,2,8]","[4,6,2,8]","","",""
"show-reward","162","475389","0.0-162.0","p678917","A1XQOZV8LQDM22","3P888QFVX40Z2B7BK75OWKP045JQOK","3ZGVPD4G6VNRGFB4TMF1672GRSEZTT","emotion","mismatch","uniform","","","","","","","","480207.3000000003","482223.1000000001","","","","","","","","","","","","8","","stimuli/stars_8.png","218","","","","","stimuli/BF05_CC.jpg","",""
"explore-choice","163","477672","0.0-163.0","p678917","A1XQOZV8LQDM22","3P888QFVX40Z2B7BK75OWKP045JQOK","3ZGVPD4G6VNRGFB4TMF1672GRSEZTT","emotion","mismatch","uniform","","","","","","","1768.7999999998137","482227.1000000001","483995.8999999999","[""stimuli/AF09_DO.jpg"",""stimuli/AF02_CC.jpg"",""stimuli/HF02_FO.jpg"",""stimuli/BF05_HO.jpg""]","stimuli/AF09_DO.jpg","stimuli/AF02_CC.jpg","stimuli/HF02_FO.jpg","stimuli/BF05_HO.jpg","pos4","stimuli/BF05_HO.jpg","HO","BF05","3","4","8","8","stimuli/stars_8.png","222","[""DO"",""CC"",""FO"",""HO""]","[""AF09"",""AF02"",""HF02"",""BF05""]","[4,0,8,8]","[4,2,6,8]","","",""
"show-reward","164","479795","0.0-164.0","p678917","A1XQOZV8LQDM22","3P888QFVX40Z2B7BK75OWKP045JQOK","3ZGVPD4G6VNRGFB4TMF1672GRSEZTT","emotion","mismatch","uniform","","","","","","","","484545.1000000001","486629.1000000001","","","","","","","","","","","","8","","stimuli/stars_8.png","222","","","","","stimuli/BF05_HO.jpg","",""
"explore-choice","165","481248","0.0-165.0","p678917","A1XQOZV8LQDM22","3P888QFVX40Z2B7BK75OWKP045JQOK","3ZGVPD4G6VNRGFB4TMF1672GRSEZTT","emotion","mismatch","uniform","","","","","","","935.7000000001863","486634.3999999999","487570.1000000001","[""stimuli/BF05_HO.jpg"",""stimuli/AF09_FO.jpg"",""stimuli/HF02_CC.jpg"",""stimuli/AF02_DO.jpg""]","stimuli/BF05_HO.jpg","stimuli/AF09_FO.jpg","stimuli/HF02_CC.jpg","stimuli/AF02_DO.jpg","pos1","stimuli/BF05_HO.jpg","HO","BF05","0","4","8","8","stimuli/stars_8.png","226","[""HO"",""FO"",""CC"",""DO""]","[""BF05"",""AF09"",""HF02"",""AF02""]","[8,5,5,1]","[8,4,6,2]","","",""
"show-reward","166","483270","0.0-166.0","p678917","A1XQOZV8LQDM22","3P888QFVX40Z2B7BK75OWKP045JQOK","3ZGVPD4G6VNRGFB4TMF1672GRSEZTT","emotion","mismatch","uniform","","","","","","","","488089.6000000001","490105.3000000003","","","","","","","","","","","","8","","stimuli/stars_8.png","226","","","","","stimuli/BF05_HO.jpg","",""
"explore-choice","167","484555","0.0-167.0","p678917","A1XQOZV8LQDM22","3P888QFVX40Z2B7BK75OWKP045JQOK","3ZGVPD4G6VNRGFB4TMF1672GRSEZTT","emotion","mismatch","uniform","","","","","","","746.3999999994412","490112.3000000003","490858.6999999997","[""stimuli/BF05_FO.jpg"",""stimuli/AF09_DO.jpg"",""stimuli/AF02_HO.jpg"",""stimuli/HF02_CC.jpg""]","stimuli/BF05_FO.jpg","stimuli/AF09_DO.jpg","stimuli/AF02_HO.jpg","stimuli/HF02_CC.jpg","pos1","stimuli/BF05_FO.jpg","FO","BF05","0","3.5","7","8","stimuli/stars_7.png","229.5","[""FO"",""DO"",""HO"",""CC""]","[""BF05"",""AF09"",""AF02"",""HF02""]","[7,5,4,4]","[8,4,2,6]","","",""
"show-reward","168","486577","0.0-168.0","p678917","A1XQOZV8LQDM22","3P888QFVX40Z2B7BK75OWKP045JQOK","3ZGVPD4G6VNRGFB4TMF1672GRSEZTT","emotion","mismatch","uniform","","","","","","","","491403.1000000001","493411.1999999997","","","","","","","","","","","","7","","stimuli/stars_7.png","229.5","","","","","stimuli/BF05_FO.jpg","",""
"explore-choice","169","489191","0.0-169.0","p678917","A1XQOZV8LQDM22","3P888QFVX40Z2B7BK75OWKP045JQOK","3ZGVPD4G6VNRGFB4TMF1672GRSEZTT","emotion","mismatch","uniform","","","","","","","2106.5999999996275","493417.1000000001","495523.6999999997","[""stimuli/BF05_CC.jpg"",""stimuli/HF02_HO.jpg"",""stimuli/AF09_FO.jpg"",""stimuli/AF02_DO.jpg""]","stimuli/BF05_CC.jpg","stimuli/HF02_HO.jpg","stimuli/AF09_FO.jpg","stimuli/AF02_DO.jpg","pos1","stimuli/BF05_CC.jpg","CC","BF05","0","4.5","9","8","stimuli/stars_9.png","234","[""CC"",""HO"",""FO"",""DO""]","[""BF05"",""HF02"",""AF09"",""AF02""]","[9,4,6,0]","[8,6,4,2]","","",""
"show-reward","170","491209","0.0-170.0","p678917","A1XQOZV8LQDM22","3P888QFVX40Z2B7BK75OWKP045JQOK","3ZGVPD4G6VNRGFB4TMF1672GRSEZTT","emotion","mismatch","uniform","","","","","","","","496030.49999999953","498043.6999999997","","","","","","","","","","","","9","","stimuli/stars_9.png","234","","","","","stimuli/BF05_CC.jpg","",""
"explore-choice","171","494551","0.0-171.0","p678917","A1XQOZV8LQDM22","3P888QFVX40Z2B7BK75OWKP045JQOK","3ZGVPD4G6VNRGFB4TMF1672GRSEZTT","emotion","mismatch","uniform","","","","","","","2836.2999999998137","498046.6999999997","500882.99999999953","[""stimuli/AF02_HO.jpg"",""stimuli/AF09_FO.jpg"",""stimuli/BF05_DO.jpg"",""stimuli/HF02_CC.jpg""]","stimuli/AF02_HO.jpg","stimuli/AF09_FO.jpg","stimuli/BF05_DO.jpg","stimuli/HF02_CC.jpg","pos3","stimuli/BF05_DO.jpg","DO","BF05","2","3.5","7","8","stimuli/stars_7.png","237.5","[""HO"",""FO"",""DO"",""CC""]","[""AF02"",""AF09"",""BF05"",""HF02""]","[1,3,7,7]","[2,4,8,6]","","",""
"show-reward","172","496571","0.0-172.0","p678917","A1XQOZV8LQDM22","3P888QFVX40Z2B7BK75OWKP045JQOK","3ZGVPD4G6VNRGFB4TMF1672GRSEZTT","emotion","mismatch","uniform","","","","","","","","501391.6999999997","503405.1000000001","","","","","","","","","","","","7","","stimuli/stars_7.png","237.5","","","","","stimuli/BF05_DO.jpg","",""
"explore-choice","173","498683","0.0-173.0","p678917","A1XQOZV8LQDM22","3P888QFVX40Z2B7BK75OWKP045JQOK","3ZGVPD4G6VNRGFB4TMF1672GRSEZTT","emotion","mismatch","uniform","","","","","","","1601.9000000003725","503410.99999999953","505012.8999999999","[""stimuli/AF09_DO.jpg"",""stimuli/HF02_FO.jpg"",""stimuli/BF05_CC.jpg"",""stimuli/AF02_HO.jpg""]","stimuli/AF09_DO.jpg","stimuli/HF02_FO.jpg","stimuli/BF05_CC.jpg","stimuli/AF02_HO.jpg","pos3","stimuli/BF05_CC.jpg","CC","BF05","2","5","10","8","stimuli/stars_10.png","242.5","[""DO"",""FO"",""CC"",""HO""]","[""AF09"",""HF02"",""BF05"",""AF02""]","[4,4,10,2]","[4,6,8,2]","","",""
"show-reward","174","500695","0.0-174.0","p678917","A1XQOZV8LQDM22","3P888QFVX40Z2B7BK75OWKP045JQOK","3ZGVPD4G6VNRGFB4TMF1672GRSEZTT","emotion","mismatch","uniform","","","","","","","","505521.49999999953","507528.99999999953","","","","","","","","","","","","10","","stimuli/stars_10.png","242.5","","","","","stimuli/BF05_CC.jpg","",""
"explore-choice","175","502686","0.0-175.0","p678917","A1XQOZV8LQDM22","3P888QFVX40Z2B7BK75OWKP045JQOK","3ZGVPD4G6VNRGFB4TMF1672GRSEZTT","emotion","mismatch","uniform","","","","","","","1485.5","507533.99999999953","509019.49999999953","[""stimuli/HF02_CC.jpg"",""stimuli/AF09_HO.jpg"",""stimuli/BF05_FO.jpg"",""stimuli/AF02_DO.jpg""]","stimuli/HF02_CC.jpg","stimuli/AF09_HO.jpg","stimuli/BF05_FO.jpg","stimuli/AF02_DO.jpg","pos3","stimuli/BF05_FO.jpg","FO","BF05","2","4","8","8","stimuli/stars_8.png","246.5","[""CC"",""HO"",""FO"",""DO""]","[""HF02"",""AF09"",""BF05"",""AF02""]","[6,3,8,1]","[6,4,8,2]","","",""
"show-reward","176","504698","0.0-176.0","p678917","A1XQOZV8LQDM22","3P888QFVX40Z2B7BK75OWKP045JQOK","3ZGVPD4G6VNRGFB4TMF1672GRSEZTT","emotion","mismatch","uniform","","","","","","","","509523.99999999953","511531.8000000003","","","","","","","","","","","","8","","stimuli/stars_8.png","246.5","","","","","stimuli/BF05_FO.jpg","",""
"explore-choice","177","506623","0.0-177.0","p678917","A1XQOZV8LQDM22","3P888QFVX40Z2B7BK75OWKP045JQOK","3ZGVPD4G6VNRGFB4TMF1672GRSEZTT","emotion","mismatch","uniform","","","","","","","1419.7999999998137","511537.1000000001","512956.8999999999","[""stimuli/AF09_FO.jpg"",""stimuli/HF02_HO.jpg"",""stimuli/BF05_DO.jpg"",""stimuli/AF02_CC.jpg""]","stimuli/AF09_FO.jpg","stimuli/HF02_HO.jpg","stimuli/BF05_DO.jpg","stimuli/AF02_CC.jpg","pos3","stimuli/BF05_DO.jpg","DO","BF05","2","4","8","8","stimuli/stars_8.png","250.5","[""FO"",""HO"",""DO"",""CC""]","[""AF09"",""HF02"",""BF05"",""AF02""]","[4,5,8,2]","[4,6,8,2]","","",""
"show-reward","178","508635","0.0-178.0","p678917","A1XQOZV8LQDM22","3P888QFVX40Z2B7BK75OWKP045JQOK","3ZGVPD4G6VNRGFB4TMF1672GRSEZTT","emotion","mismatch","uniform","","","","","","","","513460.8999999999","515469.8000000003","","","","","","","","","","","","8","","stimuli/stars_8.png","250.5","","","","","stimuli/BF05_DO.jpg","",""
"explore-choice","179","510407","0.0-179.0","p678917","A1XQOZV8LQDM22","3P888QFVX40Z2B7BK75OWKP045JQOK","3ZGVPD4G6VNRGFB4TMF1672GRSEZTT","emotion","mismatch","uniform","","","","","","","1263.6000000005588","515476.49999999953","516740.1000000001","[""stimuli/AF02_CC.jpg"",""stimuli/AF09_HO.jpg"",""stimuli/BF05_DO.jpg"",""stimuli/HF02_FO.jpg""]","stimuli/AF02_CC.jpg","stimuli/AF09_HO.jpg","stimuli/BF05_DO.jpg","stimuli/HF02_FO.jpg","pos3","stimuli/BF05_DO.jpg","DO","BF05","2","3.5","7","8","stimuli/stars_7.png","254","[""CC"",""HO"",""DO"",""FO""]","[""AF02"",""AF09"",""BF05"",""HF02""]","[1,4,7,8]","[2,4,8,6]","","",""
"show-reward","180","512421","0.0-180.0","p678917","A1XQOZV8LQDM22","3P888QFVX40Z2B7BK75OWKP045JQOK","3ZGVPD4G6VNRGFB4TMF1672GRSEZTT","emotion","mismatch","uniform","","","","","","","","517245.8000000003","519254.1999999997","","","","","","","","","","","","7","","stimuli/stars_7.png","254","","","","","stimuli/BF05_DO.jpg","",""
"explore-choice","181","514183","0.0-181.0","p678917","A1XQOZV8LQDM22","3P888QFVX40Z2B7BK75OWKP045JQOK","3ZGVPD4G6VNRGFB4TMF1672GRSEZTT","emotion","mismatch","uniform","","","","","","","1255","519261.6000000001","520516.6000000001","[""stimuli/BF05_FO.jpg"",""stimuli/HF02_DO.jpg"",""stimuli/AF09_CC.jpg"",""stimuli/AF02_HO.jpg""]","stimuli/BF05_FO.jpg","stimuli/HF02_DO.jpg","stimuli/AF09_CC.jpg","stimuli/AF02_HO.jpg","pos1","stimuli/BF05_FO.jpg","FO","BF05","0","3","6","8","stimuli/stars_6.png","257","[""FO"",""DO"",""CC"",""HO""]","[""BF05"",""HF02"",""AF09"",""AF02""]","[6,7,3,0]","[8,6,4,2]","","",""
"show-reward","182","516195","0.0-182.0","p678917","A1XQOZV8LQDM22","3P888QFVX40Z2B7BK75OWKP045JQOK","3ZGVPD4G6VNRGFB4TMF1672GRSEZTT","emotion","mismatch","uniform","","","","","","","","521020.99999999953","523029.6999999997","","","","","","","","","","","","6","","stimuli/stars_6.png","257","","","","","stimuli/BF05_FO.jpg","",""
"explore-choice","183","518891","0.0-183.0","p678917","A1XQOZV8LQDM22","3P888QFVX40Z2B7BK75OWKP045JQOK","3ZGVPD4G6VNRGFB4TMF1672GRSEZTT","emotion","mismatch","uniform","","","","","","","2178","523034.8999999999","525212.8999999999","[""stimuli/AF09_CC.jpg"",""stimuli/AF02_HO.jpg"",""stimuli/BF05_DO.jpg"",""stimuli/HF02_FO.jpg""]","stimuli/AF09_CC.jpg","stimuli/AF02_HO.jpg","stimuli/BF05_DO.jpg","stimuli/HF02_FO.jpg","pos4","stimuli/HF02_FO.jpg","FO","HF02","3","3.5","7","6","stimuli/stars_7.png","260.5","[""CC"",""HO"",""DO"",""FO""]","[""AF09"",""AF02"",""BF05"",""HF02""]","[2,3,10,7]","[4,2,8,6]","","",""
"show-reward","184","520922","0.0-184.0","p678917","A1XQOZV8LQDM22","3P888QFVX40Z2B7BK75OWKP045JQOK","3ZGVPD4G6VNRGFB4TMF1672GRSEZTT","emotion","mismatch","uniform","","","","","","","","525734.1000000001","527755.8999999999","","","","","","","","","","","","7","","stimuli/stars_7.png","260.5","","","","","stimuli/HF02_FO.jpg","",""
"explore-choice","185","524040","0.0-185.0","p678917","A1XQOZV8LQDM22","3P888QFVX40Z2B7BK75OWKP045JQOK","3ZGVPD4G6VNRGFB4TMF1672GRSEZTT","emotion","mismatch","uniform","","","","","","","2610.899999999441","527762.1000000001","530372.9999999995","[""stimuli/HF02_HO.jpg"",""stimuli/BF05_FO.jpg"",""stimuli/AF09_CC.jpg"",""stimuli/AF02_DO.jpg""]","stimuli/HF02_HO.jpg","stimuli/BF05_FO.jpg","stimuli/AF09_CC.jpg","stimuli/AF02_DO.jpg","pos2","stimuli/BF05_FO.jpg","FO","BF05","1","5","10","8","stimuli/stars_10.png","265.5","[""HO"",""FO"",""CC"",""DO""]","[""HF02"",""BF05"",""AF09"",""AF02""]","[7,10,4,4]","[6,8,4,2]","","",""
"show-reward","186","526052","0.0-186.0","p678917","A1XQOZV8LQDM22","3P888QFVX40Z2B7BK75OWKP045JQOK","3ZGVPD4G6VNRGFB4TMF1672GRSEZTT","emotion","mismatch","uniform","","","","","","","","530879.3999999999","532886.6999999997","","","","","","","","","","","","10","","stimuli/stars_10.png","265.5","","","","","stimuli/BF05_FO.jpg","",""
"explore-choice","187","528103","0.0-187.0","p678917","A1XQOZV8LQDM22","3P888QFVX40Z2B7BK75OWKP045JQOK","3ZGVPD4G6VNRGFB4TMF1672GRSEZTT","emotion","mismatch","uniform","","","","","","","1543.7999999998137","532892.8999999999","534436.6999999997","[""stimuli/HF02_CC.jpg"",""stimuli/BF05_DO.jpg"",""stimuli/AF09_HO.jpg"",""stimuli/AF02_FO.jpg""]","stimuli/HF02_CC.jpg","stimuli/BF05_DO.jpg","stimuli/AF09_HO.jpg","stimuli/AF02_FO.jpg","pos2","stimuli/BF05_DO.jpg","DO","BF05","1","3","6","8","stimuli/stars_6.png","268.5","[""CC"",""DO"",""HO"",""FO""]","[""HF02"",""BF05"",""AF09"",""AF02""]","[7,6,4,1]","[6,8,4,2]","","",""
"show-reward","188","530115","0.0-188.0","p678917","A1XQOZV8LQDM22","3P888QFVX40Z2B7BK75OWKP045JQOK","3ZGVPD4G6VNRGFB4TMF1672GRSEZTT","emotion","mismatch","uniform","","","","","","","","534941.3999999999","536949.6999999997","","","","","","","","","","","","6","","stimuli/stars_6.png","268.5","","","","","stimuli/BF05_DO.jpg","",""
"explore-choice","189","532669","0.0-189.0","p678917","A1XQOZV8LQDM22","3P888QFVX40Z2B7BK75OWKP045JQOK","3ZGVPD4G6VNRGFB4TMF1672GRSEZTT","emotion","mismatch","uniform","","","","","","","2048","536955.1000000001","539003.1000000001","[""stimuli/BF05_CC.jpg"",""stimuli/HF02_HO.jpg"",""stimuli/AF09_DO.jpg"",""stimuli/AF02_FO.jpg""]","stimuli/BF05_CC.jpg","stimuli/HF02_HO.jpg","stimuli/AF09_DO.jpg","stimuli/AF02_FO.jpg","pos1","stimuli/BF05_CC.jpg","CC","BF05","0","4","8","8","stimuli/stars_8.png","272.5","[""CC"",""HO"",""DO"",""FO""]","[""BF05"",""HF02"",""AF09"",""AF02""]","[8,8,4,0]","[8,6,4,2]","","",""
"show-reward","190","534699","0.0-190.0","p678917","A1XQOZV8LQDM22","3P888QFVX40Z2B7BK75OWKP045JQOK","3ZGVPD4G6VNRGFB4TMF1672GRSEZTT","emotion","mismatch","uniform","","","","","","","","539514.6000000001","541533.8999999999","","","","","","","","","","","","8","","stimuli/stars_8.png","272.5","","","","","stimuli/BF05_CC.jpg","",""
"explore-choice","191","537000","0.0-191.0","p678917","A1XQOZV8LQDM22","3P888QFVX40Z2B7BK75OWKP045JQOK","3ZGVPD4G6VNRGFB4TMF1672GRSEZTT","emotion","mismatch","uniform","","","","","","","1796.5","541536.4999999995","543332.9999999995","[""stimuli/HF02_HO.jpg"",""stimuli/AF02_CC.jpg"",""stimuli/AF09_DO.jpg"",""stimuli/BF05_FO.jpg""]","stimuli/HF02_HO.jpg","stimuli/AF02_CC.jpg","stimuli/AF09_DO.jpg","stimuli/BF05_FO.jpg","pos4","stimuli/BF05_FO.jpg","FO","BF05","3","3","6","8","stimuli/stars_6.png","275.5","[""HO"",""CC"",""DO"",""FO""]","[""HF02"",""AF02"",""AF09"",""BF05""]","[6,4,4,6]","[6,2,4,8]","","",""
"show-reward","192","539016","0.0-192.0","p678917","A1XQOZV8LQDM22","3P888QFVX40Z2B7BK75OWKP045JQOK","3ZGVPD4G6VNRGFB4TMF1672GRSEZTT","emotion","mismatch","uniform","","","","","","","","543838.4999999995","545850.6000000001","","","","","","","","","","","","6","","stimuli/stars_6.png","275.5","","","","","stimuli/BF05_FO.jpg","",""
"explore-choice","193","540825","0.0-193.0","p678917","A1XQOZV8LQDM22","3P888QFVX40Z2B7BK75OWKP045JQOK","3ZGVPD4G6VNRGFB4TMF1672GRSEZTT","emotion","mismatch","uniform","","","","","","","1301.800000000745","545856.4999999995","547158.3000000003","[""stimuli/HF02_FO.jpg"",""stimuli/BF05_CC.jpg"",""stimuli/AF02_DO.jpg"",""stimuli/AF09_HO.jpg""]","stimuli/HF02_FO.jpg","stimuli/BF05_CC.jpg","stimuli/AF02_DO.jpg","stimuli/AF09_HO.jpg","pos1","stimuli/HF02_FO.jpg","FO","HF02","0","3","6","6","stimuli/stars_6.png","278.5","[""FO"",""CC"",""DO"",""HO""]","[""HF02"",""BF05"",""AF02"",""AF09""]","[6,9,0,5]","[6,8,2,4]","","",""
"show-reward","194","542837","0.0-194.0","p678917","A1XQOZV8LQDM22","3P888QFVX40Z2B7BK75OWKP045JQOK","3ZGVPD4G6VNRGFB4TMF1672GRSEZTT","emotion","mismatch","uniform","","","","","","","","547663.3999999999","549671.9999999995","","","","","","","","","","","","6","","stimuli/stars_6.png","278.5","","","","","stimuli/HF02_FO.jpg","",""
"explore-choice","195","544585","0.0-195.0","p678917","A1XQOZV8LQDM22","3P888QFVX40Z2B7BK75OWKP045JQOK","3ZGVPD4G6VNRGFB4TMF1672GRSEZTT","emotion","mismatch","uniform","","","","","","","1242.8999999994412","549675.6000000001","550918.4999999995","[""stimuli/HF02_HO.jpg"",""stimuli/AF09_CC.jpg"",""stimuli/BF05_DO.jpg"",""stimuli/AF02_FO.jpg""]","stimuli/HF02_HO.jpg","stimuli/AF09_CC.jpg","stimuli/BF05_DO.jpg","stimuli/AF02_FO.jpg","pos3","stimuli/BF05_DO.jpg","DO","BF05","2","3","6","8","stimuli/stars_6.png","281.5","[""HO"",""CC"",""DO"",""FO""]","[""HF02"",""AF09"",""BF05"",""AF02""]","[7,4,6,2]","[6,4,8,2]","","",""
"show-reward","196","546599","0.0-196.0","p678917","A1XQOZV8LQDM22","3P888QFVX40Z2B7BK75OWKP045JQOK","3ZGVPD4G6VNRGFB4TMF1672GRSEZTT","emotion","mismatch","uniform","","","","","","","","551423.9999999995","553433.6999999997","","","","","","","","","","","","6","","stimuli/stars_6.png","281.5","","","","","stimuli/BF05_DO.jpg","",""
"explore-choice","197","549080","0.0-197.0","p678917","A1XQOZV8LQDM22","3P888QFVX40Z2B7BK75OWKP045JQOK","3ZGVPD4G6VNRGFB4TMF1672GRSEZTT","emotion","mismatch","uniform","","","","","","","1971.800000000745","553438.9999999995","555410.8000000003","[""stimuli/AF09_FO.jpg"",""stimuli/AF02_CC.jpg"",""stimuli/HF02_DO.jpg"",""stimuli/BF05_HO.jpg""]","stimuli/AF09_FO.jpg","stimuli/AF02_CC.jpg","stimuli/HF02_DO.jpg","stimuli/BF05_HO.jpg","pos2","stimuli/AF02_CC.jpg","CC","AF02","1","1","2","2","stimuli/stars_2.png","282.5","[""FO"",""CC"",""DO"",""HO""]","[""AF09"",""AF02"",""HF02"",""BF05""]","[4,2,8,6]","[4,2,6,8]","","",""
"show-reward","198","551100","0.0-198.0","p678917","A1XQOZV8LQDM22","3P888QFVX40Z2B7BK75OWKP045JQOK","3ZGVPD4G6VNRGFB4TMF1672GRSEZTT","emotion","mismatch","uniform","","","","","","","","555920.3999999999","557933.9999999995","","","","","","","","","","","","2","","stimuli/stars_2.png","282.5","","","","","stimuli/AF02_CC.jpg","",""
"instructions","199","556043","0.0-199.0","p678917","A1XQOZV8LQDM22","3P888QFVX40Z2B7BK75OWKP045JQOK","3ZGVPD4G6VNRGFB4TMF1672GRSEZTT","emotion","mismatch","uniform","","","","","","[{""page_index"":0,""viewing_time"":4934.4000000003725}]","4937.600000000559","","","","","","","","","","","","","","","","","","","","","","","",""
"survey-text","200","560964","0.0-200.0-0.0","p678917","A1XQOZV8LQDM22","3P888QFVX40Z2B7BK75OWKP045JQOK","3ZGVPD4G6VNRGFB4TMF1672GRSEZTT","emotion","mismatch","uniform","","","","","","","4904.300000000745","","","","","","","","","","","","","","","","","","","","","","","{""age"":""46""}",""
"survey-text","201","565725","0.0-200.0-1.0","p678917","A1XQOZV8LQDM22","3P888QFVX40Z2B7BK75OWKP045JQOK","3ZGVPD4G6VNRGFB4TMF1672GRSEZTT","emotion","mismatch","uniform","","","","","","","4737.800000000745","","","","","","","","","","","","","","","","","","","","","","","{""gender"":""Male""}",""
"survey-text","202","573245","0.0-200.0-2.0","p678917","A1XQOZV8LQDM22","3P888QFVX40Z2B7BK75OWKP045JQOK","3ZGVPD4G6VNRGFB4TMF1672GRSEZTT","emotion","mismatch","uniform","","","","","","","7502.5","","","","","","","","","","","","","","","","","","","","","","","{""country"":""United States""}",""
"survey-text","203","586990","0.0-200.0-3.0","p678917","A1XQOZV8LQDM22","3P888QFVX40Z2B7BK75OWKP045JQOK","3ZGVPD4G6VNRGFB4TMF1672GRSEZTT","emotion","mismatch","uniform","","","","","","","13724","","","","","","","","","","","","","","","","","","","","","","","{""language"":""English"",""other_languages"":""N/A""}",""
"survey-multi-select","204","589135","0.0-201.0","p678917","A1XQOZV8LQDM22","3P888QFVX40Z2B7BK75OWKP045JQOK","3ZGVPD4G6VNRGFB4TMF1672GRSEZTT","emotion","mismatch","uniform","","","","","","","2093.9000000003725","","","","","","","","","","","","","","","","","","","","","","","{""race"":[""White""]}","[0]"
"survey-multi-choice","205","591797","0.0-202.0","p678917","A1XQOZV8LQDM22","3P888QFVX40Z2B7BK75OWKP045JQOK","3ZGVPD4G6VNRGFB4TMF1672GRSEZTT","emotion","mismatch","uniform","","","","","","","2637.399999999441","","","","","","","","","","","","","","","","","","","","","","","{""education"":""Bachelor's degree""}","[0]"
"survey-text","206","688392","0.0-203.0","p678917","A1XQOZV8LQDM22","3P888QFVX40Z2B7BK75OWKP045JQOK","3ZGVPD4G6VNRGFB4TMF1672GRSEZTT","emotion","mismatch","uniform","","","","","","","96566.60000000056","","","","","","","","","","","","","","","","","","","","","","","{""patterns"":""Not at all"",""strategy"":""I only follow the face expression of the faces."",""comments"":""N/A""}",""
