"trial_type","trial_index","time_elapsed","internal_node_id","subject","workerId","hitId","assignmentId","structure_condition","match_condition","noise_type","success","timeout","failed_images","failed_audio","failed_video","view_history","rt","start_time","end_time","stimuli","image1","image2","image3","image4","choiceLocation","choiceImage","choiceEmotion","choiceModel","choice_index","reward_score","reward","reward_score_unadjusted","reward_image","score_after_trial","emotions","models","rewards","rewards_unadjusted","stimulus","response","question_order"
"pavlovia","0","7","0.0-0.0","p675228","A136K4YZY2OFTV","3WRBLBQ2GSENM5LEFQY1C5PG0GV0GC","3WYGZ5XF3YLVCKZ34L719NIHL0NSKB","model","mismatch","uniform","","","","","","","","","","","","","","","","","","","","","","","","","","","","","","",""
"preload","1","11220","0.0-1.0","p675228","A136K4YZY2OFTV","3WRBLBQ2GSENM5LEFQY1C5PG0GV0GC","3WYGZ5XF3YLVCKZ34L719NIHL0NSKB","model","mismatch","uniform","true","false","[]","[]","[]","","","","","","","","","","","","","","","","","","","","","","","","","",""
"fullscreen","2","13878","0.0-2.0","p675228","A136K4YZY2OFTV","3WRBLBQ2GSENM5LEFQY1C5PG0GV0GC","3WYGZ5XF3YLVCKZ34L719NIHL0NSKB","model","mismatch","uniform","true","","","","","","","","","","","","","","","","","","","","","","","","","","","","","",""
"instructions","3","17131","0.0-3.0","p675228","A136K4YZY2OFTV","3WRBLBQ2GSENM5LEFQY1C5PG0GV0GC","3WYGZ5XF3YLVCKZ34L719NIHL0NSKB","model","mismatch","uniform","","","","","","[{""page_index"":0,""viewing_time"":3250.199999988079}]","3250.5999999940395","","","","","","","","","","","","","","","","","","","","","","","",""
"explore-choice","4","19575","0.0-4.0","p675228","A136K4YZY2OFTV","3WRBLBQ2GSENM5LEFQY1C5PG0GV0GC","3WYGZ5XF3YLVCKZ34L719NIHL0NSKB","model","mismatch","uniform","","","","","","","1938.4000000059605","18471.90000000596","20410.30000001192","[""stimuli/sheep.jpg"",""stimuli/hammer.jpg"",""stimuli/basketball.jpg"",""stimuli/horse.jpg""]","stimuli/sheep.jpg","stimuli/hammer.jpg","stimuli/basketball.jpg","stimuli/horse.jpg","pos4","stimuli/horse.jpg","","","3","64","64","64","stimuli/stars_8.png","65","","","","","","",""
"explore-choice","5","21988","0.0-5.0","p675228","A136K4YZY2OFTV","3WRBLBQ2GSENM5LEFQY1C5PG0GV0GC","3WYGZ5XF3YLVCKZ34L719NIHL0NSKB","model","mismatch","uniform","","","","","","","1906.5","20916.10000000894","22822.60000000894","[""stimuli/hammer.jpg"",""stimuli/basketball.jpg"",""stimuli/horse.jpg"",""stimuli/sheep.jpg""]","stimuli/hammer.jpg","stimuli/basketball.jpg","stimuli/horse.jpg","stimuli/sheep.jpg","pos1","stimuli/hammer.jpg","","","0","8","8","8","stimuli/stars_2.png","9","","","","","","",""
"instructions","6","37511","0.0-6.0","p675228","A136K4YZY2OFTV","3WRBLBQ2GSENM5LEFQY1C5PG0GV0GC","3WYGZ5XF3YLVCKZ34L719NIHL0NSKB","model","mismatch","uniform","","","","","","[{""page_index"":0,""viewing_time"":15520.40000000596}]","15520.70000000298","","","","","","","","","","","","","","","","","","","","","","","",""
"explore-choice","7","39911","0.0-7.0","p675228","A136K4YZY2OFTV","3WRBLBQ2GSENM5LEFQY1C5PG0GV0GC","3WYGZ5XF3YLVCKZ34L719NIHL0NSKB","model","mismatch","uniform","","","","","","","1893.1000000089407","38852","40745.10000000894","[""stimuli/WF06_SUR.jpg"",""stimuli/BM07_CC.jpg"",""stimuli/HM02_HO.jpg"",""stimuli/WM07_FO.jpg""]","stimuli/WF06_SUR.jpg","stimuli/BM07_CC.jpg","stimuli/HM02_HO.jpg","stimuli/WM07_FO.jpg","pos1","stimuli/WF06_SUR.jpg","SUR","WF06","0","4.5","9","8","stimuli/stars_9.png","5.5","[""SUR"",""CC"",""HO"",""FO""]","[""WF06"",""BM07"",""HM02"",""WM07""]","[9,5,1,7]","[8,4,2,6]","","",""
"show-reward","8","41921","0.0-8.0","p675228","A136K4YZY2OFTV","3WRBLBQ2GSENM5LEFQY1C5PG0GV0GC","3WYGZ5XF3YLVCKZ34L719NIHL0NSKB","model","mismatch","uniform","","","","","","","","41252.90000000596","43259.70000000298","","","","","","","","","","","","9","","stimuli/stars_9.png","5.5","","","","","stimuli/WF06_SUR.jpg","",""
"explore-choice","9","44883","0.0-9.0","p675228","A136K4YZY2OFTV","3WRBLBQ2GSENM5LEFQY1C5PG0GV0GC","3WYGZ5XF3YLVCKZ34L719NIHL0NSKB","model","mismatch","uniform","","","","","","","2454.2999999970198","43262.20000000298","45716.5","[""stimuli/WM07_HO.jpg"",""stimuli/HM02_CC.jpg"",""stimuli/BM07_FO.jpg"",""stimuli/WF06_SUR.jpg""]","stimuli/WM07_HO.jpg","stimuli/HM02_CC.jpg","stimuli/BM07_FO.jpg","stimuli/WF06_SUR.jpg","pos4","stimuli/WF06_SUR.jpg","SUR","WF06","3","4","8","8","stimuli/stars_8.png","9.5","[""HO"",""CC"",""FO"",""SUR""]","[""WM07"",""HM02"",""BM07"",""WF06""]","[5,2,5,8]","[6,2,4,8]","","",""
"show-reward","10","46892","0.0-10.0","p675228","A136K4YZY2OFTV","3WRBLBQ2GSENM5LEFQY1C5PG0GV0GC","3WYGZ5XF3YLVCKZ34L719NIHL0NSKB","model","mismatch","uniform","","","","","","","","46223.70000000298","48231.10000000894","","","","","","","","","","","","8","","stimuli/stars_8.png","9.5","","","","","stimuli/WF06_SUR.jpg","",""
"explore-choice","11","48941","0.0-11.0","p675228","A136K4YZY2OFTV","3WRBLBQ2GSENM5LEFQY1C5PG0GV0GC","3WYGZ5XF3YLVCKZ34L719NIHL0NSKB","model","mismatch","uniform","","","","","","","1544.1000000089407","48232.70000000298","49776.80000001192","[""stimuli/WM07_CC.jpg"",""stimuli/HM02_HO.jpg"",""stimuli/WF06_SUR.jpg"",""stimuli/BM07_FO.jpg""]","stimuli/WM07_CC.jpg","stimuli/HM02_HO.jpg","stimuli/WF06_SUR.jpg","stimuli/BM07_FO.jpg","pos3","stimuli/WF06_SUR.jpg","SUR","WF06","2","3.5","7","8","stimuli/stars_7.png","13","[""CC"",""HO"",""SUR"",""FO""]","[""WM07"",""HM02"",""WF06"",""BM07""]","[8,1,7,4]","[6,2,8,4]","","",""
"show-reward","12","50947","0.0-12.0","p675228","A136K4YZY2OFTV","3WRBLBQ2GSENM5LEFQY1C5PG0GV0GC","3WYGZ5XF3YLVCKZ34L719NIHL0NSKB","model","mismatch","uniform","","","","","","","","50281.70000000298","52285.90000000596","","","","","","","","","","","","7","","stimuli/stars_7.png","13","","","","","stimuli/WF06_SUR.jpg","",""
"explore-choice","13","52620","0.0-13.0","p675228","A136K4YZY2OFTV","3WRBLBQ2GSENM5LEFQY1C5PG0GV0GC","3WYGZ5XF3YLVCKZ34L719NIHL0NSKB","model","mismatch","uniform","","","","","","","1168.8999999910593","52287.60000000894","53456.5","[""stimuli/HM02_CC.jpg"",""stimuli/BM07_SUR.jpg"",""stimuli/WM07_HO.jpg"",""stimuli/WF06_FO.jpg""]","stimuli/HM02_CC.jpg","stimuli/BM07_SUR.jpg","stimuli/WM07_HO.jpg","stimuli/WF06_FO.jpg","pos1","stimuli/HM02_CC.jpg","CC","HM02","0","1.5","3","2","stimuli/stars_3.png","14.5","[""CC"",""SUR"",""HO"",""FO""]","[""HM02"",""BM07"",""WM07"",""WF06""]","[3,2,7,9]","[2,4,6,8]","","",""
"show-reward","14","54624","0.0-14.0","p675228","A136K4YZY2OFTV","3WRBLBQ2GSENM5LEFQY1C5PG0GV0GC","3WYGZ5XF3YLVCKZ34L719NIHL0NSKB","model","mismatch","uniform","","","","","","","","53960.40000000596","55963.10000000894","","","","","","","","","","","","3","","stimuli/stars_3.png","14.5","","","","","stimuli/HM02_CC.jpg","",""
"explore-choice","15","56503","0.0-15.0","p675228","A136K4YZY2OFTV","3WRBLBQ2GSENM5LEFQY1C5PG0GV0GC","3WYGZ5XF3YLVCKZ34L719NIHL0NSKB","model","mismatch","uniform","","","","","","","1372.2999999970198","55965.30000001192","57337.60000000894","[""stimuli/WM07_FO.jpg"",""stimuli/HM02_SUR.jpg"",""stimuli/WF06_CC.jpg"",""stimuli/BM07_HO.jpg""]","stimuli/WM07_FO.jpg","stimuli/HM02_SUR.jpg","stimuli/WF06_CC.jpg","stimuli/BM07_HO.jpg","pos1","stimuli/WM07_FO.jpg","FO","WM07","0","3.5","7","6","stimuli/stars_7.png","18","[""FO"",""SUR"",""CC"",""HO""]","[""WM07"",""HM02"",""WF06"",""BM07""]","[7,2,9,3]","[6,2,8,4]","","",""
"show-reward","16","58512","0.0-16.0","p675228","A136K4YZY2OFTV","3WRBLBQ2GSENM5LEFQY1C5PG0GV0GC","3WYGZ5XF3YLVCKZ34L719NIHL0NSKB","model","mismatch","uniform","","","","","","","","57844.10000000894","59851.20000000298","","","","","","","","","","","","7","","stimuli/stars_7.png","18","","","","","stimuli/WM07_FO.jpg","",""
"explore-choice","17","60130","0.0-17.0","p675228","A136K4YZY2OFTV","3WRBLBQ2GSENM5LEFQY1C5PG0GV0GC","3WYGZ5XF3YLVCKZ34L719NIHL0NSKB","model","mismatch","uniform","","","","","","","1111.2000000029802","59853.10000000894","60964.30000001192","[""stimuli/WM07_CC.jpg"",""stimuli/HM02_HO.jpg"",""stimuli/BM07_SUR.jpg"",""stimuli/WF06_FO.jpg""]","stimuli/WM07_CC.jpg","stimuli/HM02_HO.jpg","stimuli/BM07_SUR.jpg","stimuli/WF06_FO.jpg","pos3","stimuli/BM07_SUR.jpg","SUR","BM07","2","1","2","4","stimuli/stars_2.png","19","[""CC"",""HO"",""SUR"",""FO""]","[""WM07"",""HM02"",""BM07"",""WF06""]","[5,4,2,7]","[6,2,4,8]","","",""
"show-reward","18","62137","0.0-18.0","p675228","A136K4YZY2OFTV","3WRBLBQ2GSENM5LEFQY1C5PG0GV0GC","3WYGZ5XF3YLVCKZ34L719NIHL0NSKB","model","mismatch","uniform","","","","","","","","61471","63475.5","","","","","","","","","","","","2","","stimuli/stars_2.png","19","","","","","stimuli/BM07_SUR.jpg","",""
"explore-choice","19","63642","0.0-19.0","p675228","A136K4YZY2OFTV","3WRBLBQ2GSENM5LEFQY1C5PG0GV0GC","3WYGZ5XF3YLVCKZ34L719NIHL0NSKB","model","mismatch","uniform","","","","","","","997.0999999940395","63477.30000001192","64474.40000000596","[""stimuli/HM02_CC.jpg"",""stimuli/BM07_FO.jpg"",""stimuli/WF06_HO.jpg"",""stimuli/WM07_SUR.jpg""]","stimuli/HM02_CC.jpg","stimuli/BM07_FO.jpg","stimuli/WF06_HO.jpg","stimuli/WM07_SUR.jpg","pos3","stimuli/WF06_HO.jpg","HO","WF06","2","5","10","8","stimuli/stars_10.png","24","[""CC"",""FO"",""HO"",""SUR""]","[""HM02"",""BM07"",""WF06"",""WM07""]","[2,4,10,5]","[2,4,8,6]","","",""
"show-reward","20","65649","0.0-20.0","p675228","A136K4YZY2OFTV","3WRBLBQ2GSENM5LEFQY1C5PG0GV0GC","3WYGZ5XF3YLVCKZ34L719NIHL0NSKB","model","mismatch","uniform","","","","","","","","64980.30000001192","66985.20000000298","","","","","","","","","","","","10","","stimuli/stars_10.png","24","","","","","stimuli/WF06_HO.jpg","",""
"explore-choice","21","67489","0.0-21.0","p675228","A136K4YZY2OFTV","3WRBLBQ2GSENM5LEFQY1C5PG0GV0GC","3WYGZ5XF3YLVCKZ34L719NIHL0NSKB","model","mismatch","uniform","","","","","","","1331.9000000059605","66987.20000000298","68319.10000000894","[""stimuli/BM07_CC.jpg"",""stimuli/WF06_HO.jpg"",""stimuli/HM02_FO.jpg"",""stimuli/WM07_SUR.jpg""]","stimuli/BM07_CC.jpg","stimuli/WF06_HO.jpg","stimuli/HM02_FO.jpg","stimuli/WM07_SUR.jpg","pos2","stimuli/WF06_HO.jpg","HO","WF06","1","4.5","9","8","stimuli/stars_9.png","28.5","[""CC"",""HO"",""FO"",""SUR""]","[""BM07"",""WF06"",""HM02"",""WM07""]","[6,9,4,6]","[4,8,2,6]","","",""
"show-reward","22","69499","0.0-22.0","p675228","A136K4YZY2OFTV","3WRBLBQ2GSENM5LEFQY1C5PG0GV0GC","3WYGZ5XF3YLVCKZ34L719NIHL0NSKB","model","mismatch","uniform","","","","","","","","68825.40000000596","70832.90000000596","","","","","","","","","","","","9","","stimuli/stars_9.png","28.5","","","","","stimuli/WF06_HO.jpg","",""
"explore-choice","23","71051","0.0-23.0","p675228","A136K4YZY2OFTV","3WRBLBQ2GSENM5LEFQY1C5PG0GV0GC","3WYGZ5XF3YLVCKZ34L719NIHL0NSKB","model","mismatch","uniform","","","","","","","1045.5","70834.60000000894","71880.10000000894","[""stimuli/WM07_FO.jpg"",""stimuli/HM02_SUR.jpg"",""stimuli/WF06_HO.jpg"",""stimuli/BM07_CC.jpg""]","stimuli/WM07_FO.jpg","stimuli/HM02_SUR.jpg","stimuli/WF06_HO.jpg","stimuli/BM07_CC.jpg","pos3","stimuli/WF06_HO.jpg","HO","WF06","2","3.5","7","8","stimuli/stars_7.png","32","[""FO"",""SUR"",""HO"",""CC""]","[""WM07"",""HM02"",""WF06"",""BM07""]","[5,0,7,4]","[6,2,8,4]","","",""
"show-reward","24","73059","0.0-24.0","p675228","A136K4YZY2OFTV","3WRBLBQ2GSENM5LEFQY1C5PG0GV0GC","3WYGZ5XF3YLVCKZ34L719NIHL0NSKB","model","mismatch","uniform","","","","","","","","72386.30000001192","74392","","","","","","","","","","","","7","","stimuli/stars_7.png","32","","","","","stimuli/WF06_HO.jpg","",""
"explore-choice","25","74303","0.0-25.0","p675228","A136K4YZY2OFTV","3WRBLBQ2GSENM5LEFQY1C5PG0GV0GC","3WYGZ5XF3YLVCKZ34L719NIHL0NSKB","model","mismatch","uniform","","","","","","","736.9000000059605","74393.90000000596","75130.80000001192","[""stimuli/BM07_FO.jpg"",""stimuli/WM07_SUR.jpg"",""stimuli/WF06_CC.jpg"",""stimuli/HM02_HO.jpg""]","stimuli/BM07_FO.jpg","stimuli/WM07_SUR.jpg","stimuli/WF06_CC.jpg","stimuli/HM02_HO.jpg","pos3","stimuli/WF06_CC.jpg","CC","WF06","2","3","6","8","stimuli/stars_6.png","35","[""FO"",""SUR"",""CC"",""HO""]","[""BM07"",""WM07"",""WF06"",""HM02""]","[3,4,6,4]","[4,6,8,2]","","",""
"show-reward","26","76313","0.0-26.0","p675228","A136K4YZY2OFTV","3WRBLBQ2GSENM5LEFQY1C5PG0GV0GC","3WYGZ5XF3YLVCKZ34L719NIHL0NSKB","model","mismatch","uniform","","","","","","","","75636.90000000596","77644.60000000894","","","","","","","","","","","","6","","stimuli/stars_6.png","35","","","","","stimuli/WF06_CC.jpg","",""
"explore-choice","27","77930","0.0-27.0","p675228","A136K4YZY2OFTV","3WRBLBQ2GSENM5LEFQY1C5PG0GV0GC","3WYGZ5XF3YLVCKZ34L719NIHL0NSKB","model","mismatch","uniform","","","","","","","1114.3999999910593","77646.30000001192","78760.70000000298","[""stimuli/HM02_SUR.jpg"",""stimuli/WM07_HO.jpg"",""stimuli/BM07_FO.jpg"",""stimuli/WF06_CC.jpg""]","stimuli/HM02_SUR.jpg","stimuli/WM07_HO.jpg","stimuli/BM07_FO.jpg","stimuli/WF06_CC.jpg","pos4","stimuli/WF06_CC.jpg","CC","WF06","3","5","10","8","stimuli/stars_10.png","40","[""SUR"",""HO"",""FO"",""CC""]","[""HM02"",""WM07"",""BM07"",""WF06""]","[0,5,6,10]","[2,6,4,8]","","",""
"show-reward","28","79937","0.0-28.0","p675228","A136K4YZY2OFTV","3WRBLBQ2GSENM5LEFQY1C5PG0GV0GC","3WYGZ5XF3YLVCKZ34L719NIHL0NSKB","model","mismatch","uniform","","","","","","","","79263","81268.40000000596","","","","","","","","","","","","10","","stimuli/stars_10.png","40","","","","","stimuli/WF06_CC.jpg","",""
"explore-choice","29","81428","0.0-29.0","p675228","A136K4YZY2OFTV","3WRBLBQ2GSENM5LEFQY1C5PG0GV0GC","3WYGZ5XF3YLVCKZ34L719NIHL0NSKB","model","mismatch","uniform","","","","","","","985.4000000059605","81270","82255.40000000596","[""stimuli/WF06_HO.jpg"",""stimuli/HM02_SUR.jpg"",""stimuli/WM07_CC.jpg"",""stimuli/BM07_FO.jpg""]","stimuli/WF06_HO.jpg","stimuli/HM02_SUR.jpg","stimuli/WM07_CC.jpg","stimuli/BM07_FO.jpg","pos1","stimuli/WF06_HO.jpg","HO","WF06","0","4","8","8","stimuli/stars_8.png","44","[""HO"",""SUR"",""CC"",""FO""]","[""WF06"",""HM02"",""WM07"",""BM07""]","[8,3,4,2]","[8,2,6,4]","","",""
"show-reward","30","83438","0.0-30.0","p675228","A136K4YZY2OFTV","3WRBLBQ2GSENM5LEFQY1C5PG0GV0GC","3WYGZ5XF3YLVCKZ34L719NIHL0NSKB","model","mismatch","uniform","","","","","","","","82760.40000000596","84768","","","","","","","","","","","","8","","stimuli/stars_8.png","44","","","","","stimuli/WF06_HO.jpg","",""
"explore-choice","31","85048","0.0-31.0","p675228","A136K4YZY2OFTV","3WRBLBQ2GSENM5LEFQY1C5PG0GV0GC","3WYGZ5XF3YLVCKZ34L719NIHL0NSKB","model","mismatch","uniform","","","","","","","1103","84769.80000001192","85872.80000001192","[""stimuli/BM07_SUR.jpg"",""stimuli/WM07_CC.jpg"",""stimuli/WF06_HO.jpg"",""stimuli/HM02_FO.jpg""]","stimuli/BM07_SUR.jpg","stimuli/WM07_CC.jpg","stimuli/WF06_HO.jpg","stimuli/HM02_FO.jpg","pos3","stimuli/WF06_HO.jpg","HO","WF06","2","3.5","7","8","stimuli/stars_7.png","47.5","[""SUR"",""CC"",""HO"",""FO""]","[""BM07"",""WM07"",""WF06"",""HM02""]","[6,7,7,0]","[4,6,8,2]","","",""
"show-reward","32","87057","0.0-32.0","p675228","A136K4YZY2OFTV","3WRBLBQ2GSENM5LEFQY1C5PG0GV0GC","3WYGZ5XF3YLVCKZ34L719NIHL0NSKB","model","mismatch","uniform","","","","","","","","86379.30000001192","88386.90000000596","","","","","","","","","","","","7","","stimuli/stars_7.png","47.5","","","","","stimuli/WF06_HO.jpg","",""
"explore-choice","33","88554","0.0-33.0","p675228","A136K4YZY2OFTV","3WRBLBQ2GSENM5LEFQY1C5PG0GV0GC","3WYGZ5XF3YLVCKZ34L719NIHL0NSKB","model","mismatch","uniform","","","","","","","990.5999999940395","88388.80000001192","89379.40000000596","[""stimuli/WM07_CC.jpg"",""stimuli/WF06_SUR.jpg"",""stimuli/BM07_HO.jpg"",""stimuli/HM02_FO.jpg""]","stimuli/WM07_CC.jpg","stimuli/WF06_SUR.jpg","stimuli/BM07_HO.jpg","stimuli/HM02_FO.jpg","pos2","stimuli/WF06_SUR.jpg","SUR","WF06","1","4.5","9","8","stimuli/stars_9.png","52","[""CC"",""SUR"",""HO"",""FO""]","[""WM07"",""WF06"",""BM07"",""HM02""]","[5,9,6,4]","[6,8,4,2]","","",""
"show-reward","34","90564","0.0-34.0","p675228","A136K4YZY2OFTV","3WRBLBQ2GSENM5LEFQY1C5PG0GV0GC","3WYGZ5XF3YLVCKZ34L719NIHL0NSKB","model","mismatch","uniform","","","","","","","","89885.30000001192","91892.70000000298","","","","","","","","","","","","9","","stimuli/stars_9.png","52","","","","","stimuli/WF06_SUR.jpg","",""
"explore-choice","35","93291","0.0-35.0","p675228","A136K4YZY2OFTV","3WRBLBQ2GSENM5LEFQY1C5PG0GV0GC","3WYGZ5XF3YLVCKZ34L719NIHL0NSKB","model","mismatch","uniform","","","","","","","2223.2000000029802","91894.5","94117.70000000298","[""stimuli/WF06_FO.jpg"",""stimuli/HM02_CC.jpg"",""stimuli/BM07_HO.jpg"",""stimuli/WM07_SUR.jpg""]","stimuli/WF06_FO.jpg","stimuli/HM02_CC.jpg","stimuli/BM07_HO.jpg","stimuli/WM07_SUR.jpg","pos1","stimuli/WF06_FO.jpg","FO","WF06","0","3","6","8","stimuli/stars_6.png","55","[""FO"",""CC"",""HO"",""SUR""]","[""WF06"",""HM02"",""BM07"",""WM07""]","[6,2,4,6]","[8,2,4,6]","","",""
"show-reward","36","95300","0.0-36.0","p675228","A136K4YZY2OFTV","3WRBLBQ2GSENM5LEFQY1C5PG0GV0GC","3WYGZ5XF3YLVCKZ34L719NIHL0NSKB","model","mismatch","uniform","","","","","","","","94621.5","96629.10000000894","","","","","","","","","","","","6","","stimuli/stars_6.png","55","","","","","stimuli/WF06_FO.jpg","",""
"explore-choice","37","97106","0.0-37.0","p675228","A136K4YZY2OFTV","3WRBLBQ2GSENM5LEFQY1C5PG0GV0GC","3WYGZ5XF3YLVCKZ34L719NIHL0NSKB","model","mismatch","uniform","","","","","","","1298.8999999910593","96630.60000000894","97929.5","[""stimuli/BM07_SUR.jpg"",""stimuli/WF06_CC.jpg"",""stimuli/WM07_FO.jpg"",""stimuli/HM02_HO.jpg""]","stimuli/BM07_SUR.jpg","stimuli/WF06_CC.jpg","stimuli/WM07_FO.jpg","stimuli/HM02_HO.jpg","pos2","stimuli/WF06_CC.jpg","CC","WF06","1","4","8","8","stimuli/stars_8.png","59","[""SUR"",""CC"",""FO"",""HO""]","[""BM07"",""WF06"",""WM07"",""HM02""]","[3,8,8,1]","[4,8,6,2]","","",""
"show-reward","38","99113","0.0-38.0","p675228","A136K4YZY2OFTV","3WRBLBQ2GSENM5LEFQY1C5PG0GV0GC","3WYGZ5XF3YLVCKZ34L719NIHL0NSKB","model","mismatch","uniform","","","","","","","","98436.10000000894","100441.60000000894","","","","","","","","","","","","8","","stimuli/stars_8.png","59","","","","","stimuli/WF06_CC.jpg","",""
"explore-choice","39","100908","0.0-39.0","p675228","A136K4YZY2OFTV","3WRBLBQ2GSENM5LEFQY1C5PG0GV0GC","3WYGZ5XF3YLVCKZ34L719NIHL0NSKB","model","mismatch","uniform","","","","","","","1292.7999999970198","100443.10000000894","101735.90000000596","[""stimuli/WF06_FO.jpg"",""stimuli/HM02_SUR.jpg"",""stimuli/BM07_HO.jpg"",""stimuli/WM07_CC.jpg""]","stimuli/WF06_FO.jpg","stimuli/HM02_SUR.jpg","stimuli/BM07_HO.jpg","stimuli/WM07_CC.jpg","pos1","stimuli/WF06_FO.jpg","FO","WF06","0","5","10","8","stimuli/stars_10.png","64","[""FO"",""SUR"",""HO"",""CC""]","[""WF06"",""HM02"",""BM07"",""WM07""]","[10,0,2,5]","[8,2,4,6]","","",""
"show-reward","40","102917","0.0-40.0","p675228","A136K4YZY2OFTV","3WRBLBQ2GSENM5LEFQY1C5PG0GV0GC","3WYGZ5XF3YLVCKZ34L719NIHL0NSKB","model","mismatch","uniform","","","","","","","","102238.20000000298","104245.70000000298","","","","","","","","","","","","10","","stimuli/stars_10.png","64","","","","","stimuli/WF06_FO.jpg","",""
"explore-choice","41","105550","0.0-41.0","p675228","A136K4YZY2OFTV","3WRBLBQ2GSENM5LEFQY1C5PG0GV0GC","3WYGZ5XF3YLVCKZ34L719NIHL0NSKB","model","mismatch","uniform","","","","","","","2126.199999988079","104247.30000001192","106373.5","[""stimuli/WF06_FO.jpg"",""stimuli/WM07_SUR.jpg"",""stimuli/HM02_HO.jpg"",""stimuli/BM07_CC.jpg""]","stimuli/WF06_FO.jpg","stimuli/WM07_SUR.jpg","stimuli/HM02_HO.jpg","stimuli/BM07_CC.jpg","pos2","stimuli/WM07_SUR.jpg","SUR","WM07","1","3","6","6","stimuli/stars_6.png","67","[""FO"",""SUR"",""HO"",""CC""]","[""WF06"",""WM07"",""HM02"",""BM07""]","[10,6,2,4]","[8,6,2,4]","","",""
"show-reward","42","107556","0.0-42.0","p675228","A136K4YZY2OFTV","3WRBLBQ2GSENM5LEFQY1C5PG0GV0GC","3WYGZ5XF3YLVCKZ34L719NIHL0NSKB","model","mismatch","uniform","","","","","","","","106879.60000000894","108884.20000000298","","","","","","","","","","","","6","","stimuli/stars_6.png","67","","","","","stimuli/WM07_SUR.jpg","",""
"explore-choice","43","109309","0.0-43.0","p675228","A136K4YZY2OFTV","3WRBLBQ2GSENM5LEFQY1C5PG0GV0GC","3WYGZ5XF3YLVCKZ34L719NIHL0NSKB","model","mismatch","uniform","","","","","","","1249.0999999940395","108885.30000001192","110134.40000000596","[""stimuli/WM07_HO.jpg"",""stimuli/BM07_CC.jpg"",""stimuli/WF06_SUR.jpg"",""stimuli/HM02_FO.jpg""]","stimuli/WM07_HO.jpg","stimuli/BM07_CC.jpg","stimuli/WF06_SUR.jpg","stimuli/HM02_FO.jpg","pos3","stimuli/WF06_SUR.jpg","SUR","WF06","2","3","6","8","stimuli/stars_6.png","70","[""HO"",""CC"",""SUR"",""FO""]","[""WM07"",""BM07"",""WF06"",""HM02""]","[4,6,6,0]","[6,4,8,2]","","",""
"show-reward","44","111318","0.0-44.0","p675228","A136K4YZY2OFTV","3WRBLBQ2GSENM5LEFQY1C5PG0GV0GC","3WYGZ5XF3YLVCKZ34L719NIHL0NSKB","model","mismatch","uniform","","","","","","","","110638.60000000894","112646","","","","","","","","","","","","6","","stimuli/stars_6.png","70","","","","","stimuli/WF06_SUR.jpg","",""
"explore-choice","45","114746","0.0-45.0","p675228","A136K4YZY2OFTV","3WRBLBQ2GSENM5LEFQY1C5PG0GV0GC","3WYGZ5XF3YLVCKZ34L719NIHL0NSKB","model","mismatch","uniform","","","","","","","2923.7000000029802","112647.60000000894","115571.30000001192","[""stimuli/WF06_CC.jpg"",""stimuli/WM07_HO.jpg"",""stimuli/BM07_SUR.jpg"",""stimuli/HM02_FO.jpg""]","stimuli/WF06_CC.jpg","stimuli/WM07_HO.jpg","stimuli/BM07_SUR.jpg","stimuli/HM02_FO.jpg","pos1","stimuli/WF06_CC.jpg","CC","WF06","0","4","8","8","stimuli/stars_8.png","74","[""CC"",""HO"",""SUR"",""FO""]","[""WF06"",""WM07"",""BM07"",""HM02""]","[8,5,6,0]","[8,6,4,2]","","",""
"show-reward","46","116755","0.0-46.0","p675228","A136K4YZY2OFTV","3WRBLBQ2GSENM5LEFQY1C5PG0GV0GC","3WYGZ5XF3YLVCKZ34L719NIHL0NSKB","model","mismatch","uniform","","","","","","","","116075.70000000298","118082.90000000596","","","","","","","","","","","","8","","stimuli/stars_8.png","74","","","","","stimuli/WF06_CC.jpg","",""
"explore-choice","47","117976","0.0-47.0","p675228","A136K4YZY2OFTV","3WRBLBQ2GSENM5LEFQY1C5PG0GV0GC","3WYGZ5XF3YLVCKZ34L719NIHL0NSKB","model","mismatch","uniform","","","","","","","714.4000000059605","118084.5","118798.90000000596","[""stimuli/WF06_CC.jpg"",""stimuli/WM07_SUR.jpg"",""stimuli/HM02_FO.jpg"",""stimuli/BM07_HO.jpg""]","stimuli/WF06_CC.jpg","stimuli/WM07_SUR.jpg","stimuli/HM02_FO.jpg","stimuli/BM07_HO.jpg","pos1","stimuli/WF06_CC.jpg","CC","WF06","0","3.5","7","8","stimuli/stars_7.png","77.5","[""CC"",""SUR"",""FO"",""HO""]","[""WF06"",""WM07"",""HM02"",""BM07""]","[7,5,2,5]","[8,6,2,4]","","",""
"show-reward","48","119983","0.0-48.0","p675228","A136K4YZY2OFTV","3WRBLBQ2GSENM5LEFQY1C5PG0GV0GC","3WYGZ5XF3YLVCKZ34L719NIHL0NSKB","model","mismatch","uniform","","","","","","","","119305","121311","","","","","","","","","","","","7","","stimuli/stars_7.png","77.5","","","","","stimuli/WF06_CC.jpg","",""
"explore-choice","49","121983","0.0-49.0","p675228","A136K4YZY2OFTV","3WRBLBQ2GSENM5LEFQY1C5PG0GV0GC","3WYGZ5XF3YLVCKZ34L719NIHL0NSKB","model","mismatch","uniform","","","","","","","1493.6000000089407","121312.5","122806.10000000894","[""stimuli/WM07_HO.jpg"",""stimuli/HM02_SUR.jpg"",""stimuli/WF06_FO.jpg"",""stimuli/BM07_CC.jpg""]","stimuli/WM07_HO.jpg","stimuli/HM02_SUR.jpg","stimuli/WF06_FO.jpg","stimuli/BM07_CC.jpg","pos3","stimuli/WF06_FO.jpg","FO","WF06","2","3.5","7","8","stimuli/stars_7.png","81","[""HO"",""SUR"",""FO"",""CC""]","[""WM07"",""HM02"",""WF06"",""BM07""]","[6,4,7,5]","[6,2,8,4]","","",""
"show-reward","50","123992","0.0-50.0","p675228","A136K4YZY2OFTV","3WRBLBQ2GSENM5LEFQY1C5PG0GV0GC","3WYGZ5XF3YLVCKZ34L719NIHL0NSKB","model","mismatch","uniform","","","","","","","","123312.30000001192","125319.60000000894","","","","","","","","","","","","7","","stimuli/stars_7.png","81","","","","","stimuli/WF06_FO.jpg","",""
"explore-choice","51","125366","0.0-51.0","p675228","A136K4YZY2OFTV","3WRBLBQ2GSENM5LEFQY1C5PG0GV0GC","3WYGZ5XF3YLVCKZ34L719NIHL0NSKB","model","mismatch","uniform","","","","","","","872.2000000029802","125321.20000000298","126193.40000000596","[""stimuli/WM07_FO.jpg"",""stimuli/HM02_CC.jpg"",""stimuli/WF06_HO.jpg"",""stimuli/BM07_SUR.jpg""]","stimuli/WM07_FO.jpg","stimuli/HM02_CC.jpg","stimuli/WF06_HO.jpg","stimuli/BM07_SUR.jpg","pos3","stimuli/WF06_HO.jpg","HO","WF06","2","3.5","7","8","stimuli/stars_7.png","84.5","[""FO"",""CC"",""HO"",""SUR""]","[""WM07"",""HM02"",""WF06"",""BM07""]","[8,4,7,6]","[6,2,8,4]","","",""
"show-reward","52","127370","0.0-52.0","p675228","A136K4YZY2OFTV","3WRBLBQ2GSENM5LEFQY1C5PG0GV0GC","3WYGZ5XF3YLVCKZ34L719NIHL0NSKB","model","mismatch","uniform","","","","","","","","126695.20000000298","128697.90000000596","","","","","","","","","","","","7","","stimuli/stars_7.png","84.5","","","","","stimuli/WF06_HO.jpg","",""
"explore-choice","53","128738","0.0-53.0","p675228","A136K4YZY2OFTV","3WRBLBQ2GSENM5LEFQY1C5PG0GV0GC","3WYGZ5XF3YLVCKZ34L719NIHL0NSKB","model","mismatch","uniform","","","","","","","861","128699.20000000298","129560.20000000298","[""stimuli/HM02_CC.jpg"",""stimuli/WM07_FO.jpg"",""stimuli/WF06_SUR.jpg"",""stimuli/BM07_HO.jpg""]","stimuli/HM02_CC.jpg","stimuli/WM07_FO.jpg","stimuli/WF06_SUR.jpg","stimuli/BM07_HO.jpg","pos3","stimuli/WF06_SUR.jpg","SUR","WF06","2","4.5","9","8","stimuli/stars_9.png","89","[""CC"",""FO"",""SUR"",""HO""]","[""HM02"",""WM07"",""WF06"",""BM07""]","[4,6,9,4]","[2,6,8,4]","","",""
"show-reward","54","130746","0.0-54.0","p675228","A136K4YZY2OFTV","3WRBLBQ2GSENM5LEFQY1C5PG0GV0GC","3WYGZ5XF3YLVCKZ34L719NIHL0NSKB","model","mismatch","uniform","","","","","","","","130066.40000000596","132073.60000000894","","","","","","","","","","","","9","","stimuli/stars_9.png","89","","","","","stimuli/WF06_SUR.jpg","",""
"explore-choice","55","132102","0.0-55.0","p675228","A136K4YZY2OFTV","3WRBLBQ2GSENM5LEFQY1C5PG0GV0GC","3WYGZ5XF3YLVCKZ34L719NIHL0NSKB","model","mismatch","uniform","","","","","","","848.8999999910593","132075.30000001192","132924.20000000298","[""stimuli/WM07_HO.jpg"",""stimuli/BM07_CC.jpg"",""stimuli/WF06_FO.jpg"",""stimuli/HM02_SUR.jpg""]","stimuli/WM07_HO.jpg","stimuli/BM07_CC.jpg","stimuli/WF06_FO.jpg","stimuli/HM02_SUR.jpg","pos3","stimuli/WF06_FO.jpg","FO","WF06","2","3.5","7","8","stimuli/stars_7.png","92.5","[""HO"",""CC"",""FO"",""SUR""]","[""WM07"",""BM07"",""WF06"",""HM02""]","[6,5,7,4]","[6,4,8,2]","","",""
"show-reward","56","134111","0.0-56.0","p675228","A136K4YZY2OFTV","3WRBLBQ2GSENM5LEFQY1C5PG0GV0GC","3WYGZ5XF3YLVCKZ34L719NIHL0NSKB","model","mismatch","uniform","","","","","","","","133430.5","135437.80000001192","","","","","","","","","","","","7","","stimuli/stars_7.png","92.5","","","","","stimuli/WF06_FO.jpg","",""
"explore-choice","57","135922","0.0-57.0","p675228","A136K4YZY2OFTV","3WRBLBQ2GSENM5LEFQY1C5PG0GV0GC","3WYGZ5XF3YLVCKZ34L719NIHL0NSKB","model","mismatch","uniform","","","","","","","1305.2000000029802","135439.40000000596","136744.60000000894","[""stimuli/HM02_HO.jpg"",""stimuli/BM07_FO.jpg"",""stimuli/WM07_CC.jpg"",""stimuli/WF06_SUR.jpg""]","stimuli/HM02_HO.jpg","stimuli/BM07_FO.jpg","stimuli/WM07_CC.jpg","stimuli/WF06_SUR.jpg","pos4","stimuli/WF06_SUR.jpg","SUR","WF06","3","3.5","7","8","stimuli/stars_7.png","96","[""HO"",""FO"",""CC"",""SUR""]","[""HM02"",""BM07"",""WM07"",""WF06""]","[1,4,8,7]","[2,4,6,8]","","",""
"show-reward","58","137931","0.0-58.0","p675228","A136K4YZY2OFTV","3WRBLBQ2GSENM5LEFQY1C5PG0GV0GC","3WYGZ5XF3YLVCKZ34L719NIHL0NSKB","model","mismatch","uniform","","","","","","","","137250.80000001192","139258.10000000894","","","","","","","","","","","","7","","stimuli/stars_7.png","96","","","","","stimuli/WF06_SUR.jpg","",""
"explore-choice","59","139709","0.0-59.0","p675228","A136K4YZY2OFTV","3WRBLBQ2GSENM5LEFQY1C5PG0GV0GC","3WYGZ5XF3YLVCKZ34L719NIHL0NSKB","model","mismatch","uniform","","","","","","","1271.5","139259.70000000298","140531.20000000298","[""stimuli/HM02_FO.jpg"",""stimuli/WF06_HO.jpg"",""stimuli/BM07_CC.jpg"",""stimuli/WM07_SUR.jpg""]","stimuli/HM02_FO.jpg","stimuli/WF06_HO.jpg","stimuli/BM07_CC.jpg","stimuli/WM07_SUR.jpg","pos2","stimuli/WF06_HO.jpg","HO","WF06","1","4.5","9","8","stimuli/stars_9.png","100.5","[""FO"",""HO"",""CC"",""SUR""]","[""HM02"",""WF06"",""BM07"",""WM07""]","[4,9,6,6]","[2,8,4,6]","","",""
"show-reward","60","141714","0.0-60.0","p675228","A136K4YZY2OFTV","3WRBLBQ2GSENM5LEFQY1C5PG0GV0GC","3WYGZ5XF3YLVCKZ34L719NIHL0NSKB","model","mismatch","uniform","","","","","","","","141037.5","143041.20000000298","","","","","","","","","","","","9","","stimuli/stars_9.png","100.5","","","","","stimuli/WF06_HO.jpg","",""
"explore-choice","61","143449","0.0-61.0","p675228","A136K4YZY2OFTV","3WRBLBQ2GSENM5LEFQY1C5PG0GV0GC","3WYGZ5XF3YLVCKZ34L719NIHL0NSKB","model","mismatch","uniform","","","","","","","1232.8999999910593","143042.80000001192","144275.70000000298","[""stimuli/HM02_FO.jpg"",""stimuli/WM07_HO.jpg"",""stimuli/BM07_SUR.jpg"",""stimuli/WF06_CC.jpg""]","stimuli/HM02_FO.jpg","stimuli/WM07_HO.jpg","stimuli/BM07_SUR.jpg","stimuli/WF06_CC.jpg","pos4","stimuli/WF06_CC.jpg","CC","WF06","3","4","8","8","stimuli/stars_8.png","104.5","[""FO"",""HO"",""SUR"",""CC""]","[""HM02"",""WM07"",""BM07"",""WF06""]","[0,5,6,8]","[2,6,4,8]","","",""
"show-reward","62","145458","0.0-62.0","p675228","A136K4YZY2OFTV","3WRBLBQ2GSENM5LEFQY1C5PG0GV0GC","3WYGZ5XF3YLVCKZ34L719NIHL0NSKB","model","mismatch","uniform","","","","","","","","144777.5","146784.80000001192","","","","","","","","","","","","8","","stimuli/stars_8.png","104.5","","","","","stimuli/WF06_CC.jpg","",""
"explore-choice","63","147157","0.0-63.0","p675228","A136K4YZY2OFTV","3WRBLBQ2GSENM5LEFQY1C5PG0GV0GC","3WYGZ5XF3YLVCKZ34L719NIHL0NSKB","model","mismatch","uniform","","","","","","","1193","146786.30000001192","147979.30000001192","[""stimuli/WF06_HO.jpg"",""stimuli/HM02_CC.jpg"",""stimuli/BM07_FO.jpg"",""stimuli/WM07_SUR.jpg""]","stimuli/WF06_HO.jpg","stimuli/HM02_CC.jpg","stimuli/BM07_FO.jpg","stimuli/WM07_SUR.jpg","pos1","stimuli/WF06_HO.jpg","HO","WF06","0","5","10","8","stimuli/stars_10.png","109.5","[""HO"",""CC"",""FO"",""SUR""]","[""WF06"",""HM02"",""BM07"",""WM07""]","[10,2,4,5]","[8,2,4,6]","","",""
"show-reward","64","149166","0.0-64.0","p675228","A136K4YZY2OFTV","3WRBLBQ2GSENM5LEFQY1C5PG0GV0GC","3WYGZ5XF3YLVCKZ34L719NIHL0NSKB","model","mismatch","uniform","","","","","","","","148485.60000000894","150492.90000000596","","","","","","","","","","","","10","","stimuli/stars_10.png","109.5","","","","","stimuli/WF06_HO.jpg","",""
"explore-choice","65","150768","0.0-65.0","p675228","A136K4YZY2OFTV","3WRBLBQ2GSENM5LEFQY1C5PG0GV0GC","3WYGZ5XF3YLVCKZ34L719NIHL0NSKB","model","mismatch","uniform","","","","","","","1098.5","150494.5","151593","[""stimuli/BM07_HO.jpg"",""stimuli/WF06_SUR.jpg"",""stimuli/WM07_FO.jpg"",""stimuli/HM02_CC.jpg""]","stimuli/BM07_HO.jpg","stimuli/WF06_SUR.jpg","stimuli/WM07_FO.jpg","stimuli/HM02_CC.jpg","pos2","stimuli/WF06_SUR.jpg","SUR","WF06","1","4.5","9","8","stimuli/stars_9.png","114","[""HO"",""SUR"",""FO"",""CC""]","[""BM07"",""WF06"",""WM07"",""HM02""]","[4,9,6,4]","[4,8,6,2]","","",""
"show-reward","66","152777","0.0-66.0","p675228","A136K4YZY2OFTV","3WRBLBQ2GSENM5LEFQY1C5PG0GV0GC","3WYGZ5XF3YLVCKZ34L719NIHL0NSKB","model","mismatch","uniform","","","","","","","","152096.20000000298","154103.5","","","","","","","","","","","","9","","stimuli/stars_9.png","114","","","","","stimuli/WF06_SUR.jpg","",""
"explore-choice","67","154033","0.0-67.0","p675228","A136K4YZY2OFTV","3WRBLBQ2GSENM5LEFQY1C5PG0GV0GC","3WYGZ5XF3YLVCKZ34L719NIHL0NSKB","model","mismatch","uniform","","","","","","","750.2999999970198","154105.20000000298","154855.5","[""stimuli/HM02_FO.jpg"",""stimuli/WF06_HO.jpg"",""stimuli/BM07_SUR.jpg"",""stimuli/WM07_CC.jpg""]","stimuli/HM02_FO.jpg","stimuli/WF06_HO.jpg","stimuli/BM07_SUR.jpg","stimuli/WM07_CC.jpg","pos2","stimuli/WF06_HO.jpg","HO","WF06","1","3.5","7","8","stimuli/stars_7.png","117.5","[""FO"",""HO"",""SUR"",""CC""]","[""HM02"",""WF06"",""BM07"",""WM07""]","[0,7,6,7]","[2,8,4,6]","","",""
"show-reward","68","156039","0.0-68.0","p675228","A136K4YZY2OFTV","3WRBLBQ2GSENM5LEFQY1C5PG0GV0GC","3WYGZ5XF3YLVCKZ34L719NIHL0NSKB","model","mismatch","uniform","","","","","","","","155361.80000001192","157365.80000001192","","","","","","","","","","","","7","","stimuli/stars_7.png","117.5","","","","","stimuli/WF06_HO.jpg","",""
"explore-choice","69","157309","0.0-69.0","p675228","A136K4YZY2OFTV","3WRBLBQ2GSENM5LEFQY1C5PG0GV0GC","3WYGZ5XF3YLVCKZ34L719NIHL0NSKB","model","mismatch","uniform","","","","","","","763.3000000119209","157367.5","158130.80000001192","[""stimuli/HM02_SUR.jpg"",""stimuli/WF06_HO.jpg"",""stimuli/BM07_CC.jpg"",""stimuli/WM07_FO.jpg""]","stimuli/HM02_SUR.jpg","stimuli/WF06_HO.jpg","stimuli/BM07_CC.jpg","stimuli/WM07_FO.jpg","pos2","stimuli/WF06_HO.jpg","HO","WF06","1","3.5","7","8","stimuli/stars_7.png","121","[""SUR"",""HO"",""CC"",""FO""]","[""HM02"",""WF06"",""BM07"",""WM07""]","[0,7,4,5]","[2,8,4,6]","","",""
"show-reward","70","159313","0.0-70.0","p675228","A136K4YZY2OFTV","3WRBLBQ2GSENM5LEFQY1C5PG0GV0GC","3WYGZ5XF3YLVCKZ34L719NIHL0NSKB","model","mismatch","uniform","","","","","","","","158636.90000000596","160639.5","","","","","","","","","","","","7","","stimuli/stars_7.png","121","","","","","stimuli/WF06_HO.jpg","",""
"explore-choice","71","160522","0.0-71.0","p675228","A136K4YZY2OFTV","3WRBLBQ2GSENM5LEFQY1C5PG0GV0GC","3WYGZ5XF3YLVCKZ34L719NIHL0NSKB","model","mismatch","uniform","","","","","","","703.5","160641.10000000894","161344.60000000894","[""stimuli/HM02_SUR.jpg"",""stimuli/WF06_HO.jpg"",""stimuli/WM07_CC.jpg"",""stimuli/BM07_FO.jpg""]","stimuli/HM02_SUR.jpg","stimuli/WF06_HO.jpg","stimuli/WM07_CC.jpg","stimuli/BM07_FO.jpg","pos2","stimuli/WF06_HO.jpg","HO","WF06","1","4","8","8","stimuli/stars_8.png","125","[""SUR"",""HO"",""CC"",""FO""]","[""HM02"",""WF06"",""WM07"",""BM07""]","[3,8,4,2]","[2,8,6,4]","","",""
"show-reward","72","162531","0.0-72.0","p675228","A136K4YZY2OFTV","3WRBLBQ2GSENM5LEFQY1C5PG0GV0GC","3WYGZ5XF3YLVCKZ34L719NIHL0NSKB","model","mismatch","uniform","","","","","","","","161850.80000001192","163858.10000000894","","","","","","","","","","","","8","","stimuli/stars_8.png","125","","","","","stimuli/WF06_HO.jpg","",""
"explore-choice","73","163761","0.0-73.0","p675228","A136K4YZY2OFTV","3WRBLBQ2GSENM5LEFQY1C5PG0GV0GC","3WYGZ5XF3YLVCKZ34L719NIHL0NSKB","model","mismatch","uniform","","","","","","","723.2999999970198","163859.70000000298","164583","[""stimuli/HM02_SUR.jpg"",""stimuli/WF06_CC.jpg"",""stimuli/BM07_FO.jpg"",""stimuli/WM07_HO.jpg""]","stimuli/HM02_SUR.jpg","stimuli/WF06_CC.jpg","stimuli/BM07_FO.jpg","stimuli/WM07_HO.jpg","pos2","stimuli/WF06_CC.jpg","CC","WF06","1","5","10","8","stimuli/stars_10.png","130","[""SUR"",""CC"",""FO"",""HO""]","[""HM02"",""WF06"",""BM07"",""WM07""]","[0,10,6,5]","[2,8,4,6]","","",""
"show-reward","74","165766","0.0-74.0","p675228","A136K4YZY2OFTV","3WRBLBQ2GSENM5LEFQY1C5PG0GV0GC","3WYGZ5XF3YLVCKZ34L719NIHL0NSKB","model","mismatch","uniform","","","","","","","","165088.90000000596","167092.30000001192","","","","","","","","","","","","10","","stimuli/stars_10.png","130","","","","","stimuli/WF06_CC.jpg","",""
"explore-choice","75","167371","0.0-75.0","p675228","A136K4YZY2OFTV","3WRBLBQ2GSENM5LEFQY1C5PG0GV0GC","3WYGZ5XF3YLVCKZ34L719NIHL0NSKB","model","mismatch","uniform","","","","","","","1102.2000000029802","167093.90000000596","168196.10000000894","[""stimuli/WF06_SUR.jpg"",""stimuli/HM02_FO.jpg"",""stimuli/WM07_HO.jpg"",""stimuli/BM07_CC.jpg""]","stimuli/WF06_SUR.jpg","stimuli/HM02_FO.jpg","stimuli/WM07_HO.jpg","stimuli/BM07_CC.jpg","pos1","stimuli/WF06_SUR.jpg","SUR","WF06","0","3","6","8","stimuli/stars_6.png","133","[""SUR"",""FO"",""HO"",""CC""]","[""WF06"",""HM02"",""WM07"",""BM07""]","[6,0,4,6]","[8,2,6,4]","","",""
"show-reward","76","169378","0.0-76.0","p675228","A136K4YZY2OFTV","3WRBLBQ2GSENM5LEFQY1C5PG0GV0GC","3WYGZ5XF3YLVCKZ34L719NIHL0NSKB","model","mismatch","uniform","","","","","","","","168699","170704.40000000596","","","","","","","","","","","","6","","stimuli/stars_6.png","133","","","","","stimuli/WF06_SUR.jpg","",""
"explore-choice","77","170674","0.0-77.0","p675228","A136K4YZY2OFTV","3WRBLBQ2GSENM5LEFQY1C5PG0GV0GC","3WYGZ5XF3YLVCKZ34L719NIHL0NSKB","model","mismatch","uniform","","","","","","","790.5999999940395","170705.90000000596","171496.5","[""stimuli/WF06_FO.jpg"",""stimuli/WM07_SUR.jpg"",""stimuli/HM02_HO.jpg"",""stimuli/BM07_CC.jpg""]","stimuli/WF06_FO.jpg","stimuli/WM07_SUR.jpg","stimuli/HM02_HO.jpg","stimuli/BM07_CC.jpg","pos1","stimuli/WF06_FO.jpg","FO","WF06","0","5","10","8","stimuli/stars_10.png","138","[""FO"",""SUR"",""HO"",""CC""]","[""WF06"",""WM07"",""HM02"",""BM07""]","[10,6,2,4]","[8,6,2,4]","","",""
"show-reward","78","172680","0.0-78.0","p675228","A136K4YZY2OFTV","3WRBLBQ2GSENM5LEFQY1C5PG0GV0GC","3WYGZ5XF3YLVCKZ34L719NIHL0NSKB","model","mismatch","uniform","","","","","","","","172002.90000000596","174007.10000000894","","","","","","","","","","","","10","","stimuli/stars_10.png","138","","","","","stimuli/WF06_FO.jpg","",""
"explore-choice","79","174288","0.0-79.0","p675228","A136K4YZY2OFTV","3WRBLBQ2GSENM5LEFQY1C5PG0GV0GC","3WYGZ5XF3YLVCKZ34L719NIHL0NSKB","model","mismatch","uniform","","","","","","","1101.3999999910593","174008.80000001192","175110.20000000298","[""stimuli/BM07_HO.jpg"",""stimuli/WF06_FO.jpg"",""stimuli/WM07_SUR.jpg"",""stimuli/HM02_CC.jpg""]","stimuli/BM07_HO.jpg","stimuli/WF06_FO.jpg","stimuli/WM07_SUR.jpg","stimuli/HM02_CC.jpg","pos2","stimuli/WF06_FO.jpg","FO","WF06","1","3","6","8","stimuli/stars_6.png","141","[""HO"",""FO"",""SUR"",""CC""]","[""BM07"",""WF06"",""WM07"",""HM02""]","[4,6,6,2]","[4,8,6,2]","","",""
"show-reward","80","176297","0.0-80.0","p675228","A136K4YZY2OFTV","3WRBLBQ2GSENM5LEFQY1C5PG0GV0GC","3WYGZ5XF3YLVCKZ34L719NIHL0NSKB","model","mismatch","uniform","","","","","","","","175616.5","177623.70000000298","","","","","","","","","","","","6","","stimuli/stars_6.png","141","","","","","stimuli/WF06_FO.jpg","",""
"explore-choice","81","178160","0.0-81.0","p675228","A136K4YZY2OFTV","3WRBLBQ2GSENM5LEFQY1C5PG0GV0GC","3WYGZ5XF3YLVCKZ34L719NIHL0NSKB","model","mismatch","uniform","","","","","","","1356.699999988079","177625.30000001192","178982","[""stimuli/BM07_SUR.jpg"",""stimuli/HM02_HO.jpg"",""stimuli/WM07_CC.jpg"",""stimuli/WF06_FO.jpg""]","stimuli/BM07_SUR.jpg","stimuli/HM02_HO.jpg","stimuli/WM07_CC.jpg","stimuli/WF06_FO.jpg","pos4","stimuli/WF06_FO.jpg","FO","WF06","3","3.5","7","8","stimuli/stars_7.png","144.5","[""SUR"",""HO"",""CC"",""FO""]","[""BM07"",""HM02"",""WM07"",""WF06""]","[2,4,5,7]","[4,2,6,8]","","",""
"show-reward","82","180169","0.0-82.0","p675228","A136K4YZY2OFTV","3WRBLBQ2GSENM5LEFQY1C5PG0GV0GC","3WYGZ5XF3YLVCKZ34L719NIHL0NSKB","model","mismatch","uniform","","","","","","","","179488.40000000596","181495.70000000298","","","","","","","","","","","","7","","stimuli/stars_7.png","144.5","","","","","stimuli/WF06_FO.jpg","",""
"explore-choice","83","181501","0.0-83.0","p675228","A136K4YZY2OFTV","3WRBLBQ2GSENM5LEFQY1C5PG0GV0GC","3WYGZ5XF3YLVCKZ34L719NIHL0NSKB","model","mismatch","uniform","","","","","","","826.0999999940395","181497.40000000596","182323.5","[""stimuli/WM07_FO.jpg"",""stimuli/HM02_HO.jpg"",""stimuli/BM07_CC.jpg"",""stimuli/WF06_SUR.jpg""]","stimuli/WM07_FO.jpg","stimuli/HM02_HO.jpg","stimuli/BM07_CC.jpg","stimuli/WF06_SUR.jpg","pos4","stimuli/WF06_SUR.jpg","SUR","WF06","3","4.5","9","8","stimuli/stars_9.png","149","[""FO"",""HO"",""CC"",""SUR""]","[""WM07"",""HM02"",""BM07"",""WF06""]","[7,1,5,9]","[6,2,4,8]","","",""
"show-reward","84","183510","0.0-84.0","p675228","A136K4YZY2OFTV","3WRBLBQ2GSENM5LEFQY1C5PG0GV0GC","3WYGZ5XF3YLVCKZ34L719NIHL0NSKB","model","mismatch","uniform","","","","","","","","182829.30000001192","184836.80000001192","","","","","","","","","","","","9","","stimuli/stars_9.png","149","","","","","stimuli/WF06_SUR.jpg","",""
"explore-choice","85","184831","0.0-85.0","p675228","A136K4YZY2OFTV","3WRBLBQ2GSENM5LEFQY1C5PG0GV0GC","3WYGZ5XF3YLVCKZ34L719NIHL0NSKB","model","mismatch","uniform","","","","","","","814.5","184838.30000001192","185652.80000001192","[""stimuli/HM02_CC.jpg"",""stimuli/BM07_SUR.jpg"",""stimuli/WM07_HO.jpg"",""stimuli/WF06_FO.jpg""]","stimuli/HM02_CC.jpg","stimuli/BM07_SUR.jpg","stimuli/WM07_HO.jpg","stimuli/WF06_FO.jpg","pos4","stimuli/WF06_FO.jpg","FO","WF06","3","4.5","9","8","stimuli/stars_9.png","153.5","[""CC"",""SUR"",""HO"",""FO""]","[""HM02"",""BM07"",""WM07"",""WF06""]","[3,2,7,9]","[2,4,6,8]","","",""
"show-reward","86","186840","0.0-86.0","p675228","A136K4YZY2OFTV","3WRBLBQ2GSENM5LEFQY1C5PG0GV0GC","3WYGZ5XF3YLVCKZ34L719NIHL0NSKB","model","mismatch","uniform","","","","","","","","186159.20000000298","188166.5","","","","","","","","","","","","9","","stimuli/stars_9.png","153.5","","","","","stimuli/WF06_FO.jpg","",""
"explore-choice","87","188481","0.0-87.0","p675228","A136K4YZY2OFTV","3WRBLBQ2GSENM5LEFQY1C5PG0GV0GC","3WYGZ5XF3YLVCKZ34L719NIHL0NSKB","model","mismatch","uniform","","","","","","","1137.6000000089407","188168","189305.60000000894","[""stimuli/HM02_FO.jpg"",""stimuli/BM07_HO.jpg"",""stimuli/WF06_SUR.jpg"",""stimuli/WM07_CC.jpg""]","stimuli/HM02_FO.jpg","stimuli/BM07_HO.jpg","stimuli/WF06_SUR.jpg","stimuli/WM07_CC.jpg","pos3","stimuli/WF06_SUR.jpg","SUR","WF06","2","4.5","9","8","stimuli/stars_9.png","158","[""FO"",""HO"",""SUR"",""CC""]","[""HM02"",""BM07"",""WF06"",""WM07""]","[4,6,9,5]","[2,4,8,6]","","",""
"show-reward","88","190490","0.0-88.0","p675228","A136K4YZY2OFTV","3WRBLBQ2GSENM5LEFQY1C5PG0GV0GC","3WYGZ5XF3YLVCKZ34L719NIHL0NSKB","model","mismatch","uniform","","","","","","","","189808.70000000298","191816.10000000894","","","","","","","","","","","","9","","stimuli/stars_9.png","158","","","","","stimuli/WF06_SUR.jpg","",""
"explore-choice","89","192181","0.0-89.0","p675228","A136K4YZY2OFTV","3WRBLBQ2GSENM5LEFQY1C5PG0GV0GC","3WYGZ5XF3YLVCKZ34L719NIHL0NSKB","model","mismatch","uniform","","","","","","","1184.4000000059605","191817.90000000596","193002.30000001192","[""stimuli/WF06_HO.jpg"",""stimuli/HM02_CC.jpg"",""stimuli/BM07_SUR.jpg"",""stimuli/WM07_FO.jpg""]","stimuli/WF06_HO.jpg","stimuli/HM02_CC.jpg","stimuli/BM07_SUR.jpg","stimuli/WM07_FO.jpg","pos1","stimuli/WF06_HO.jpg","HO","WF06","0","3.5","7","8","stimuli/stars_7.png","161.5","[""HO"",""CC"",""SUR"",""FO""]","[""WF06"",""HM02"",""BM07"",""WM07""]","[7,4,6,8]","[8,2,4,6]","","",""
"show-reward","90","194190","0.0-90.0","p675228","A136K4YZY2OFTV","3WRBLBQ2GSENM5LEFQY1C5PG0GV0GC","3WYGZ5XF3YLVCKZ34L719NIHL0NSKB","model","mismatch","uniform","","","","","","","","193508.70000000298","195516.20000000298","","","","","","","","","","","","7","","stimuli/stars_7.png","161.5","","","","","stimuli/WF06_HO.jpg","",""
"explore-choice","91","196178","0.0-91.0","p675228","A136K4YZY2OFTV","3WRBLBQ2GSENM5LEFQY1C5PG0GV0GC","3WYGZ5XF3YLVCKZ34L719NIHL0NSKB","model","mismatch","uniform","","","","","","","1482.2999999970198","195517.80000001192","197000.10000000894","[""stimuli/HM02_SUR.jpg"",""stimuli/WF06_FO.jpg"",""stimuli/BM07_HO.jpg"",""stimuli/WM07_CC.jpg""]","stimuli/HM02_SUR.jpg","stimuli/WF06_FO.jpg","stimuli/BM07_HO.jpg","stimuli/WM07_CC.jpg","pos2","stimuli/WF06_FO.jpg","FO","WF06","1","5","10","8","stimuli/stars_10.png","166.5","[""SUR"",""FO"",""HO"",""CC""]","[""HM02"",""WF06"",""BM07"",""WM07""]","[0,10,2,5]","[2,8,4,6]","","",""
"show-reward","92","198183","0.0-92.0","p675228","A136K4YZY2OFTV","3WRBLBQ2GSENM5LEFQY1C5PG0GV0GC","3WYGZ5XF3YLVCKZ34L719NIHL0NSKB","model","mismatch","uniform","","","","","","","","197506.40000000596","199509.60000000894","","","","","","","","","","","","10","","stimuli/stars_10.png","166.5","","","","","stimuli/WF06_FO.jpg","",""
"explore-choice","93","200091","0.0-93.0","p675228","A136K4YZY2OFTV","3WRBLBQ2GSENM5LEFQY1C5PG0GV0GC","3WYGZ5XF3YLVCKZ34L719NIHL0NSKB","model","mismatch","uniform","","","","","","","1401.5","199511.20000000298","200912.70000000298","[""stimuli/HM02_FO.jpg"",""stimuli/WM07_SUR.jpg"",""stimuli/BM07_HO.jpg"",""stimuli/WF06_CC.jpg""]","stimuli/HM02_FO.jpg","stimuli/WM07_SUR.jpg","stimuli/BM07_HO.jpg","stimuli/WF06_CC.jpg","pos4","stimuli/WF06_CC.jpg","CC","WF06","3","3.5","7","8","stimuli/stars_7.png","170","[""FO"",""SUR"",""HO"",""CC""]","[""HM02"",""WM07"",""BM07"",""WF06""]","[2,5,5,7]","[2,6,4,8]","","",""
"show-reward","94","202097","0.0-94.0","p675228","A136K4YZY2OFTV","3WRBLBQ2GSENM5LEFQY1C5PG0GV0GC","3WYGZ5XF3YLVCKZ34L719NIHL0NSKB","model","mismatch","uniform","","","","","","","","201419","203422.90000000596","","","","","","","","","","","","7","","stimuli/stars_7.png","170","","","","","stimuli/WF06_CC.jpg","",""
"explore-choice","95","203856","0.0-95.0","p675228","A136K4YZY2OFTV","3WRBLBQ2GSENM5LEFQY1C5PG0GV0GC","3WYGZ5XF3YLVCKZ34L719NIHL0NSKB","model","mismatch","uniform","","","","","","","1256.8999999910593","203424.60000000894","204681.5","[""stimuli/WM07_SUR.jpg"",""stimuli/WF06_CC.jpg"",""stimuli/HM02_HO.jpg"",""stimuli/BM07_FO.jpg""]","stimuli/WM07_SUR.jpg","stimuli/WF06_CC.jpg","stimuli/HM02_HO.jpg","stimuli/BM07_FO.jpg","pos2","stimuli/WF06_CC.jpg","CC","WF06","1","3","6","8","stimuli/stars_6.png","173","[""SUR"",""CC"",""HO"",""FO""]","[""WM07"",""WF06"",""HM02"",""BM07""]","[4,6,4,3]","[6,8,2,4]","","",""
"show-reward","96","205861","0.0-96.0","p675228","A136K4YZY2OFTV","3WRBLBQ2GSENM5LEFQY1C5PG0GV0GC","3WYGZ5XF3YLVCKZ34L719NIHL0NSKB","model","mismatch","uniform","","","","","","","","205183.70000000298","207187","","","","","","","","","","","","6","","stimuli/stars_6.png","173","","","","","stimuli/WF06_CC.jpg","",""
"explore-choice","97","207140","0.0-97.0","p675228","A136K4YZY2OFTV","3WRBLBQ2GSENM5LEFQY1C5PG0GV0GC","3WYGZ5XF3YLVCKZ34L719NIHL0NSKB","model","mismatch","uniform","","","","","","","772.8999999910593","207188.80000001192","207961.70000000298","[""stimuli/BM07_SUR.jpg"",""stimuli/WF06_CC.jpg"",""stimuli/WM07_FO.jpg"",""stimuli/HM02_HO.jpg""]","stimuli/BM07_SUR.jpg","stimuli/WF06_CC.jpg","stimuli/WM07_FO.jpg","stimuli/HM02_HO.jpg","pos2","stimuli/WF06_CC.jpg","CC","WF06","1","4","8","8","stimuli/stars_8.png","177","[""SUR"",""CC"",""FO"",""HO""]","[""BM07"",""WF06"",""WM07"",""HM02""]","[3,8,8,1]","[4,8,6,2]","","",""
"show-reward","98","209148","0.0-98.0","p675228","A136K4YZY2OFTV","3WRBLBQ2GSENM5LEFQY1C5PG0GV0GC","3WYGZ5XF3YLVCKZ34L719NIHL0NSKB","model","mismatch","uniform","","","","","","","","208468","210474.20000000298","","","","","","","","","","","","8","","stimuli/stars_8.png","177","","","","","stimuli/WF06_CC.jpg","",""
"explore-choice","99","210337","0.0-99.0","p675228","A136K4YZY2OFTV","3WRBLBQ2GSENM5LEFQY1C5PG0GV0GC","3WYGZ5XF3YLVCKZ34L719NIHL0NSKB","model","mismatch","uniform","","","","","","","682.2999999970198","210475.90000000596","211158.20000000298","[""stimuli/HM02_CC.jpg"",""stimuli/WF06_SUR.jpg"",""stimuli/WM07_HO.jpg"",""stimuli/BM07_FO.jpg""]","stimuli/HM02_CC.jpg","stimuli/WF06_SUR.jpg","stimuli/WM07_HO.jpg","stimuli/BM07_FO.jpg","pos2","stimuli/WF06_SUR.jpg","SUR","WF06","1","4","8","8","stimuli/stars_8.png","181","[""CC"",""SUR"",""HO"",""FO""]","[""HM02"",""WF06"",""WM07"",""BM07""]","[2,8,5,5]","[2,8,6,4]","","",""
"show-reward","100","212346","0.0-100.0","p675228","A136K4YZY2OFTV","3WRBLBQ2GSENM5LEFQY1C5PG0GV0GC","3WYGZ5XF3YLVCKZ34L719NIHL0NSKB","model","mismatch","uniform","","","","","","","","211664.60000000894","213671.70000000298","","","","","","","","","","","","8","","stimuli/stars_8.png","181","","","","","stimuli/WF06_SUR.jpg","",""
"explore-choice","101","213615","0.0-101.0","p675228","A136K4YZY2OFTV","3WRBLBQ2GSENM5LEFQY1C5PG0GV0GC","3WYGZ5XF3YLVCKZ34L719NIHL0NSKB","model","mismatch","uniform","","","","","","","764.2000000029802","213673.5","214437.70000000298","[""stimuli/BM07_HO.jpg"",""stimuli/WF06_CC.jpg"",""stimuli/WM07_FO.jpg"",""stimuli/HM02_SUR.jpg""]","stimuli/BM07_HO.jpg","stimuli/WF06_CC.jpg","stimuli/WM07_FO.jpg","stimuli/HM02_SUR.jpg","pos2","stimuli/WF06_CC.jpg","CC","WF06","1","4.5","9","8","stimuli/stars_9.png","185.5","[""HO"",""CC"",""FO"",""SUR""]","[""BM07"",""WF06"",""WM07"",""HM02""]","[3,9,7,2]","[4,8,6,2]","","",""
"show-reward","102","215624","0.0-102.0","p675228","A136K4YZY2OFTV","3WRBLBQ2GSENM5LEFQY1C5PG0GV0GC","3WYGZ5XF3YLVCKZ34L719NIHL0NSKB","model","mismatch","uniform","","","","","","","","214943.30000001192","216950.60000000894","","","","","","","","","","","","9","","stimuli/stars_9.png","185.5","","","","","stimuli/WF06_CC.jpg","",""
"explore-choice","103","218064","0.0-103.0","p675228","A136K4YZY2OFTV","3WRBLBQ2GSENM5LEFQY1C5PG0GV0GC","3WYGZ5XF3YLVCKZ34L719NIHL0NSKB","model","mismatch","uniform","","","","","","","1932.5999999940395","216952.30000001192","218884.90000000596","[""stimuli/WF14_HE.jpg"",""stimuli/HM07_SC.jpg"",""stimuli/AF09_AO.jpg"",""stimuli/AM03_DO.jpg""]","stimuli/WF14_HE.jpg","stimuli/HM07_SC.jpg","stimuli/AF09_AO.jpg","stimuli/AM03_DO.jpg","pos1","stimuli/WF14_HE.jpg","HE","WF14","0","3.5","7","6","stimuli/stars_7.png","189","[""HE"",""SC"",""AO"",""DO""]","[""WF14"",""HM07"",""AF09"",""AM03""]","[7,6,4,7]","[6,4,2,8]","","",""
"show-reward","104","220073","0.0-104.0","p675228","A136K4YZY2OFTV","3WRBLBQ2GSENM5LEFQY1C5PG0GV0GC","3WYGZ5XF3YLVCKZ34L719NIHL0NSKB","model","mismatch","uniform","","","","","","","","219391.70000000298","221399.10000000894","","","","","","","","","","","","7","","stimuli/stars_7.png","189","","","","","stimuli/WF14_HE.jpg","",""
"explore-choice","105","222513","0.0-105.0","p675228","A136K4YZY2OFTV","3WRBLBQ2GSENM5LEFQY1C5PG0GV0GC","3WYGZ5XF3YLVCKZ34L719NIHL0NSKB","model","mismatch","uniform","","","","","","","1933.4000000059605","221400.70000000298","223334.10000000894","[""stimuli/AF09_HE.jpg"",""stimuli/AM03_SC.jpg"",""stimuli/WF14_AO.jpg"",""stimuli/HM07_DO.jpg""]","stimuli/AF09_HE.jpg","stimuli/AM03_SC.jpg","stimuli/WF14_AO.jpg","stimuli/HM07_DO.jpg","pos3","stimuli/WF14_AO.jpg","AO","WF14","2","0","0","2","stimuli/stars_0.png","189","[""HE"",""SC"",""AO"",""DO""]","[""AF09"",""AM03"",""WF14"",""HM07""]","[4,6,0,8]","[6,4,2,8]","","",""
"show-reward","106","224518","0.0-106.0","p675228","A136K4YZY2OFTV","3WRBLBQ2GSENM5LEFQY1C5PG0GV0GC","3WYGZ5XF3YLVCKZ34L719NIHL0NSKB","model","mismatch","uniform","","","","","","","","223840.60000000894","225843.70000000298","","","","","","","","","","","","0","","stimuli/stars_0.png","189","","","","","stimuli/WF14_AO.jpg","",""
"explore-choice","107","226009","0.0-107.0","p675228","A136K4YZY2OFTV","3WRBLBQ2GSENM5LEFQY1C5PG0GV0GC","3WYGZ5XF3YLVCKZ34L719NIHL0NSKB","model","mismatch","uniform","","","","","","","985","225845.60000000894","226830.60000000894","[""stimuli/AF09_DO.jpg"",""stimuli/WF14_SC.jpg"",""stimuli/AM03_AO.jpg"",""stimuli/HM07_HE.jpg""]","stimuli/AF09_DO.jpg","stimuli/WF14_SC.jpg","stimuli/AM03_AO.jpg","stimuli/HM07_HE.jpg","pos1","stimuli/AF09_DO.jpg","DO","AF09","0","5","10","8","stimuli/stars_10.png","194","[""DO"",""SC"",""AO"",""HE""]","[""AF09"",""WF14"",""AM03"",""HM07""]","[10,5,0,8]","[8,4,2,6]","","",""
"show-reward","108","228018","0.0-108.0","p675228","A136K4YZY2OFTV","3WRBLBQ2GSENM5LEFQY1C5PG0GV0GC","3WYGZ5XF3YLVCKZ34L719NIHL0NSKB","model","mismatch","uniform","","","","","","","","227336.90000000596","229344.40000000596","","","","","","","","","","","","10","","stimuli/stars_10.png","194","","","","","stimuli/AF09_DO.jpg","",""
"explore-choice","109","230139","0.0-109.0","p675228","A136K4YZY2OFTV","3WRBLBQ2GSENM5LEFQY1C5PG0GV0GC","3WYGZ5XF3YLVCKZ34L719NIHL0NSKB","model","mismatch","uniform","","","","","","","1614.5","229346","230960.5","[""stimuli/WF14_DO.jpg"",""stimuli/AM03_HE.jpg"",""stimuli/HM07_AO.jpg"",""stimuli/AF09_SC.jpg""]","stimuli/WF14_DO.jpg","stimuli/AM03_HE.jpg","stimuli/HM07_AO.jpg","stimuli/AF09_SC.jpg","pos4","stimuli/AF09_SC.jpg","SC","AF09","3","3","6","4","stimuli/stars_6.png","197","[""DO"",""HE"",""AO"",""SC""]","[""WF14"",""AM03"",""HM07"",""AF09""]","[10,4,2,6]","[8,6,2,4]","","",""
"show-reward","110","232144","0.0-110.0","p675228","A136K4YZY2OFTV","3WRBLBQ2GSENM5LEFQY1C5PG0GV0GC","3WYGZ5XF3YLVCKZ34L719NIHL0NSKB","model","mismatch","uniform","","","","","","","","231466.70000000298","233470.10000000894","","","","","","","","","","","","6","","stimuli/stars_6.png","197","","","","","stimuli/AF09_SC.jpg","",""
"explore-choice","111","233874","0.0-111.0","p675228","A136K4YZY2OFTV","3WRBLBQ2GSENM5LEFQY1C5PG0GV0GC","3WYGZ5XF3YLVCKZ34L719NIHL0NSKB","model","mismatch","uniform","","","","","","","1223.5","233471.70000000298","234695.20000000298","[""stimuli/HM07_SC.jpg"",""stimuli/AF09_HE.jpg"",""stimuli/WF14_AO.jpg"",""stimuli/AM03_DO.jpg""]","stimuli/HM07_SC.jpg","stimuli/AF09_HE.jpg","stimuli/WF14_AO.jpg","stimuli/AM03_DO.jpg","pos2","stimuli/AF09_HE.jpg","HE","AF09","1","3","6","6","stimuli/stars_6.png","200","[""SC"",""HE"",""AO"",""DO""]","[""HM07"",""AF09"",""WF14"",""AM03""]","[6,6,0,7]","[4,6,2,8]","","",""
"show-reward","112","235881","0.0-112.0","p675228","A136K4YZY2OFTV","3WRBLBQ2GSENM5LEFQY1C5PG0GV0GC","3WYGZ5XF3YLVCKZ34L719NIHL0NSKB","model","mismatch","uniform","","","","","","","","235201.70000000298","237206.80000001192","","","","","","","","","","","","6","","stimuli/stars_6.png","200","","","","","stimuli/AF09_HE.jpg","",""
"explore-choice","113","237181","0.0-113.0","p675228","A136K4YZY2OFTV","3WRBLBQ2GSENM5LEFQY1C5PG0GV0GC","3WYGZ5XF3YLVCKZ34L719NIHL0NSKB","model","mismatch","uniform","","","","","","","797.2000000029802","237208.5","238005.70000000298","[""stimuli/AM03_AO.jpg"",""stimuli/AF09_HE.jpg"",""stimuli/WF14_SC.jpg"",""stimuli/HM07_DO.jpg""]","stimuli/AM03_AO.jpg","stimuli/AF09_HE.jpg","stimuli/WF14_SC.jpg","stimuli/HM07_DO.jpg","pos2","stimuli/AF09_HE.jpg","HE","AF09","1","2.5","5","6","stimuli/stars_5.png","202.5","[""AO"",""HE"",""SC"",""DO""]","[""AM03"",""AF09"",""WF14"",""HM07""]","[2,5,5,10]","[2,6,4,8]","","",""
"show-reward","114","239185","0.0-114.0","p675228","A136K4YZY2OFTV","3WRBLBQ2GSENM5LEFQY1C5PG0GV0GC","3WYGZ5XF3YLVCKZ34L719NIHL0NSKB","model","mismatch","uniform","","","","","","","","238508.70000000298","240511.20000000298","","","","","","","","","","","","5","","stimuli/stars_5.png","202.5","","","","","stimuli/AF09_HE.jpg","",""
"explore-choice","115","241223","0.0-115.0","p675228","A136K4YZY2OFTV","3WRBLBQ2GSENM5LEFQY1C5PG0GV0GC","3WYGZ5XF3YLVCKZ34L719NIHL0NSKB","model","mismatch","uniform","","","","","","","1531.2999999970198","240512.80000001192","242044.10000000894","[""stimuli/AF09_HE.jpg"",""stimuli/WF14_DO.jpg"",""stimuli/AM03_AO.jpg"",""stimuli/HM07_SC.jpg""]","stimuli/AF09_HE.jpg","stimuli/WF14_DO.jpg","stimuli/AM03_AO.jpg","stimuli/HM07_SC.jpg","pos3","stimuli/AM03_AO.jpg","AO","AM03","2","2","4","2","stimuli/stars_4.png","204.5","[""HE"",""DO"",""AO"",""SC""]","[""AF09"",""WF14"",""AM03"",""HM07""]","[4,6,4,4]","[6,8,2,4]","","",""
"show-reward","116","243226","0.0-116.0","p675228","A136K4YZY2OFTV","3WRBLBQ2GSENM5LEFQY1C5PG0GV0GC","3WYGZ5XF3YLVCKZ34L719NIHL0NSKB","model","mismatch","uniform","","","","","","","","242550.40000000596","244552.5","","","","","","","","","","","","4","","stimuli/stars_4.png","204.5","","","","","stimuli/AM03_AO.jpg","",""
"explore-choice","117","245050","0.0-117.0","p675228","A136K4YZY2OFTV","3WRBLBQ2GSENM5LEFQY1C5PG0GV0GC","3WYGZ5XF3YLVCKZ34L719NIHL0NSKB","model","mismatch","uniform","","","","","","","1317.5","244554.20000000298","245871.70000000298","[""stimuli/WF14_DO.jpg"",""stimuli/AF09_HE.jpg"",""stimuli/HM07_AO.jpg"",""stimuli/AM03_SC.jpg""]","stimuli/WF14_DO.jpg","stimuli/AF09_HE.jpg","stimuli/HM07_AO.jpg","stimuli/AM03_SC.jpg","pos3","stimuli/HM07_AO.jpg","AO","HM07","2","0.5","1","2","stimuli/stars_1.png","205","[""DO"",""HE"",""AO"",""SC""]","[""WF14"",""AF09"",""HM07"",""AM03""]","[6,5,1,6]","[8,6,2,4]","","",""
"show-reward","118","247056","0.0-118.0","p675228","A136K4YZY2OFTV","3WRBLBQ2GSENM5LEFQY1C5PG0GV0GC","3WYGZ5XF3YLVCKZ34L719NIHL0NSKB","model","mismatch","uniform","","","","","","","","246378","248381.5","","","","","","","","","","","","1","","stimuli/stars_1.png","205","","","","","stimuli/HM07_AO.jpg","",""
"explore-choice","119","248645","0.0-119.0","p675228","A136K4YZY2OFTV","3WRBLBQ2GSENM5LEFQY1C5PG0GV0GC","3WYGZ5XF3YLVCKZ34L719NIHL0NSKB","model","mismatch","uniform","","","","","","","1085.2999999970198","248383.20000000298","249468.5","[""stimuli/AF09_DO.jpg"",""stimuli/WF14_SC.jpg"",""stimuli/AM03_HE.jpg"",""stimuli/HM07_AO.jpg""]","stimuli/AF09_DO.jpg","stimuli/WF14_SC.jpg","stimuli/AM03_HE.jpg","stimuli/HM07_AO.jpg","pos1","stimuli/AF09_DO.jpg","DO","AF09","0","3","6","8","stimuli/stars_6.png","208","[""DO"",""SC"",""HE"",""AO""]","[""AF09"",""WF14"",""AM03"",""HM07""]","[6,3,4,0]","[8,4,6,2]","","",""
"show-reward","120","250654","0.0-120.0","p675228","A136K4YZY2OFTV","3WRBLBQ2GSENM5LEFQY1C5PG0GV0GC","3WYGZ5XF3YLVCKZ34L719NIHL0NSKB","model","mismatch","uniform","","","","","","","","249972.60000000894","251979.5","","","","","","","","","","","","6","","stimuli/stars_6.png","208","","","","","stimuli/AF09_DO.jpg","",""
"explore-choice","121","251619","0.0-121.0","p675228","A136K4YZY2OFTV","3WRBLBQ2GSENM5LEFQY1C5PG0GV0GC","3WYGZ5XF3YLVCKZ34L719NIHL0NSKB","model","mismatch","uniform","","","","","","","463.5","251981.20000000298","252444.70000000298","[""stimuli/WF14_HE.jpg"",""stimuli/HM07_AO.jpg"",""stimuli/AF09_SC.jpg"",""stimuli/AM03_DO.jpg""]","stimuli/WF14_HE.jpg","stimuli/HM07_AO.jpg","stimuli/AF09_SC.jpg","stimuli/AM03_DO.jpg","pos1","stimuli/WF14_HE.jpg","HE","WF14","0","2","4","6","stimuli/stars_4.png","210","[""HE"",""AO"",""SC"",""DO""]","[""WF14"",""HM07"",""AF09"",""AM03""]","[4,1,4,10]","[6,2,4,8]","","",""
"show-reward","122","253628","0.0-122.0","p675228","A136K4YZY2OFTV","3WRBLBQ2GSENM5LEFQY1C5PG0GV0GC","3WYGZ5XF3YLVCKZ34L719NIHL0NSKB","model","mismatch","uniform","","","","","","","","252946.90000000596","254954.30000001192","","","","","","","","","","","","4","","stimuli/stars_4.png","210","","","","","stimuli/WF14_HE.jpg","",""
"explore-choice","123","255076","0.0-123.0","p675228","A136K4YZY2OFTV","3WRBLBQ2GSENM5LEFQY1C5PG0GV0GC","3WYGZ5XF3YLVCKZ34L719NIHL0NSKB","model","mismatch","uniform","","","","","","","944.2999999970198","254955.90000000596","255900.20000000298","[""stimuli/HM07_HE.jpg"",""stimuli/WF14_AO.jpg"",""stimuli/AF09_DO.jpg"",""stimuli/AM03_SC.jpg""]","stimuli/HM07_HE.jpg","stimuli/WF14_AO.jpg","stimuli/AF09_DO.jpg","stimuli/AM03_SC.jpg","pos3","stimuli/AF09_DO.jpg","DO","AF09","2","3.5","7","8","stimuli/stars_7.png","213.5","[""HE"",""AO"",""DO"",""SC""]","[""HM07"",""WF14"",""AF09"",""AM03""]","[8,0,7,3]","[6,2,8,4]","","",""
"show-reward","124","257081","0.0-124.0","p675228","A136K4YZY2OFTV","3WRBLBQ2GSENM5LEFQY1C5PG0GV0GC","3WYGZ5XF3YLVCKZ34L719NIHL0NSKB","model","mismatch","uniform","","","","","","","","256403.90000000596","258406.40000000596","","","","","","","","","","","","7","","stimuli/stars_7.png","213.5","","","","","stimuli/AF09_DO.jpg","",""
"explore-choice","125","258623","0.0-125.0","p675228","A136K4YZY2OFTV","3WRBLBQ2GSENM5LEFQY1C5PG0GV0GC","3WYGZ5XF3YLVCKZ34L719NIHL0NSKB","model","mismatch","uniform","","","","","","","1039.7000000029802","258408","259447.70000000298","[""stimuli/AF09_AO.jpg"",""stimuli/AM03_HE.jpg"",""stimuli/HM07_SC.jpg"",""stimuli/WF14_DO.jpg""]","stimuli/AF09_AO.jpg","stimuli/AM03_HE.jpg","stimuli/HM07_SC.jpg","stimuli/WF14_DO.jpg","pos1","stimuli/AF09_AO.jpg","AO","AF09","0","0.5","1","2","stimuli/stars_1.png","214","[""AO"",""HE"",""SC"",""DO""]","[""AF09"",""AM03"",""HM07"",""WF14""]","[1,5,6,7]","[2,6,4,8]","","",""
"show-reward","126","260632","0.0-126.0","p675228","A136K4YZY2OFTV","3WRBLBQ2GSENM5LEFQY1C5PG0GV0GC","3WYGZ5XF3YLVCKZ34L719NIHL0NSKB","model","mismatch","uniform","","","","","","","","259950.40000000596","261957.70000000298","","","","","","","","","","","","1","","stimuli/stars_1.png","214","","","","","stimuli/AF09_AO.jpg","",""
"explore-choice","127","262020","0.0-127.0","p675228","A136K4YZY2OFTV","3WRBLBQ2GSENM5LEFQY1C5PG0GV0GC","3WYGZ5XF3YLVCKZ34L719NIHL0NSKB","model","mismatch","uniform","","","","","","","885.7999999970198","261959.20000000298","262845","[""stimuli/AF09_AO.jpg"",""stimuli/AM03_SC.jpg"",""stimuli/WF14_HE.jpg"",""stimuli/HM07_DO.jpg""]","stimuli/AF09_AO.jpg","stimuli/AM03_SC.jpg","stimuli/WF14_HE.jpg","stimuli/HM07_DO.jpg","pos1","stimuli/AF09_AO.jpg","AO","AF09","0","0","0","2","stimuli/stars_0.png","214","[""AO"",""SC"",""HE"",""DO""]","[""AF09"",""AM03"",""WF14"",""HM07""]","[0,5,5,9]","[2,4,6,8]","","",""
"show-reward","128","264030","0.0-128.0","p675228","A136K4YZY2OFTV","3WRBLBQ2GSENM5LEFQY1C5PG0GV0GC","3WYGZ5XF3YLVCKZ34L719NIHL0NSKB","model","mismatch","uniform","","","","","","","","263347.90000000596","265356","","","","","","","","","","","","0","","stimuli/stars_0.png","214","","","","","stimuli/AF09_AO.jpg","",""
"explore-choice","129","265897","0.0-129.0","p675228","A136K4YZY2OFTV","3WRBLBQ2GSENM5LEFQY1C5PG0GV0GC","3WYGZ5XF3YLVCKZ34L719NIHL0NSKB","model","mismatch","uniform","","","","","","","1363.7000000029802","265357.60000000894","266721.3000000119","[""stimuli/AF09_SC.jpg"",""stimuli/HM07_HE.jpg"",""stimuli/AM03_AO.jpg"",""stimuli/WF14_DO.jpg""]","stimuli/AF09_SC.jpg","stimuli/HM07_HE.jpg","stimuli/AM03_AO.jpg","stimuli/WF14_DO.jpg","pos3","stimuli/AM03_AO.jpg","AO","AM03","2","2","4","2","stimuli/stars_4.png","216","[""SC"",""HE"",""AO"",""DO""]","[""AF09"",""HM07"",""AM03"",""WF14""]","[3,6,4,7]","[4,6,2,8]","","",""
"show-reward","130","267907","0.0-130.0","p675228","A136K4YZY2OFTV","3WRBLBQ2GSENM5LEFQY1C5PG0GV0GC","3WYGZ5XF3YLVCKZ34L719NIHL0NSKB","model","mismatch","uniform","","","","","","","","267224.90000000596","269232.3000000119","","","","","","","","","","","","4","","stimuli/stars_4.png","216","","","","","stimuli/AM03_AO.jpg","",""
"explore-choice","131","269580","0.0-131.0","p675228","A136K4YZY2OFTV","3WRBLBQ2GSENM5LEFQY1C5PG0GV0GC","3WYGZ5XF3YLVCKZ34L719NIHL0NSKB","model","mismatch","uniform","","","","","","","1166.9000000059605","269233.90000000596","270400.8000000119","[""stimuli/WF14_HE.jpg"",""stimuli/HM07_DO.jpg"",""stimuli/AF09_SC.jpg"",""stimuli/AM03_AO.jpg""]","stimuli/WF14_HE.jpg","stimuli/HM07_DO.jpg","stimuli/AF09_SC.jpg","stimuli/AM03_AO.jpg","pos2","stimuli/HM07_DO.jpg","DO","HM07","1","5","10","8","stimuli/stars_10.png","221","[""HE"",""DO"",""SC"",""AO""]","[""WF14"",""HM07"",""AF09"",""AM03""]","[8,10,2,4]","[6,8,4,2]","","",""
"show-reward","132","271589","0.0-132.0","p675228","A136K4YZY2OFTV","3WRBLBQ2GSENM5LEFQY1C5PG0GV0GC","3WYGZ5XF3YLVCKZ34L719NIHL0NSKB","model","mismatch","uniform","","","","","","","","270907.200000003","272914.40000000596","","","","","","","","","","","","10","","stimuli/stars_10.png","221","","","","","stimuli/HM07_DO.jpg","",""
"explore-choice","133","273296","0.0-133.0","p675228","A136K4YZY2OFTV","3WRBLBQ2GSENM5LEFQY1C5PG0GV0GC","3WYGZ5XF3YLVCKZ34L719NIHL0NSKB","model","mismatch","uniform","","","","","","","1200.9000000059605","272915.90000000596","274116.8000000119","[""stimuli/AM03_DO.jpg"",""stimuli/HM07_AO.jpg"",""stimuli/AF09_HE.jpg"",""stimuli/WF14_SC.jpg""]","stimuli/AM03_DO.jpg","stimuli/HM07_AO.jpg","stimuli/AF09_HE.jpg","stimuli/WF14_SC.jpg","pos2","stimuli/HM07_AO.jpg","AO","HM07","1","1.5","3","2","stimuli/stars_3.png","222.5","[""DO"",""AO"",""HE"",""SC""]","[""AM03"",""HM07"",""AF09"",""WF14""]","[8,3,6,4]","[8,2,6,4]","","",""
"show-reward","134","275305","0.0-134.0","p675228","A136K4YZY2OFTV","3WRBLBQ2GSENM5LEFQY1C5PG0GV0GC","3WYGZ5XF3YLVCKZ34L719NIHL0NSKB","model","mismatch","uniform","","","","","","","","274623.3000000119","276630.60000000894","","","","","","","","","","","","3","","stimuli/stars_3.png","222.5","","","","","stimuli/HM07_AO.jpg","",""
"explore-choice","135","277151","0.0-135.0","p675228","A136K4YZY2OFTV","3WRBLBQ2GSENM5LEFQY1C5PG0GV0GC","3WYGZ5XF3YLVCKZ34L719NIHL0NSKB","model","mismatch","uniform","","","","","","","1339.3999999910593","276632.3000000119","277971.700000003","[""stimuli/HM07_HE.jpg"",""stimuli/AM03_SC.jpg"",""stimuli/AF09_AO.jpg"",""stimuli/WF14_DO.jpg""]","stimuli/HM07_HE.jpg","stimuli/AM03_SC.jpg","stimuli/AF09_AO.jpg","stimuli/WF14_DO.jpg","pos4","stimuli/WF14_DO.jpg","DO","WF14","3","5","10","8","stimuli/stars_10.png","227.5","[""HE"",""SC"",""AO"",""DO""]","[""HM07"",""AM03"",""AF09"",""WF14""]","[5,5,1,10]","[6,4,2,8]","","",""
"show-reward","136","279160","0.0-136.0","p675228","A136K4YZY2OFTV","3WRBLBQ2GSENM5LEFQY1C5PG0GV0GC","3WYGZ5XF3YLVCKZ34L719NIHL0NSKB","model","mismatch","uniform","","","","","","","","278478.200000003","280485.60000000894","","","","","","","","","","","","10","","stimuli/stars_10.png","227.5","","","","","stimuli/WF14_DO.jpg","",""
"explore-choice","137","282442","0.0-137.0","p675228","A136K4YZY2OFTV","3WRBLBQ2GSENM5LEFQY1C5PG0GV0GC","3WYGZ5XF3YLVCKZ34L719NIHL0NSKB","model","mismatch","uniform","","","","","","","2775.699999988079","280487.3000000119","283263","[""stimuli/AM03_HE.jpg"",""stimuli/AF09_DO.jpg"",""stimuli/HM07_SC.jpg"",""stimuli/WF14_AO.jpg""]","stimuli/AM03_HE.jpg","stimuli/AF09_DO.jpg","stimuli/HM07_SC.jpg","stimuli/WF14_AO.jpg","pos3","stimuli/HM07_SC.jpg","SC","HM07","2","2.5","5","4","stimuli/stars_5.png","230","[""HE"",""DO"",""SC"",""AO""]","[""AM03"",""AF09"",""HM07"",""WF14""]","[6,9,5,2]","[6,8,4,2]","","",""
"show-reward","138","284452","0.0-138.0","p675228","A136K4YZY2OFTV","3WRBLBQ2GSENM5LEFQY1C5PG0GV0GC","3WYGZ5XF3YLVCKZ34L719NIHL0NSKB","model","mismatch","uniform","","","","","","","","283769.8000000119","285777.700000003","","","","","","","","","","","","5","","stimuli/stars_5.png","230","","","","","stimuli/HM07_SC.jpg","",""
"explore-choice","139","286497","0.0-139.0","p675228","A136K4YZY2OFTV","3WRBLBQ2GSENM5LEFQY1C5PG0GV0GC","3WYGZ5XF3YLVCKZ34L719NIHL0NSKB","model","mismatch","uniform","","","","","","","1538.5","285779.3000000119","287317.8000000119","[""stimuli/AF09_SC.jpg"",""stimuli/HM07_HE.jpg"",""stimuli/WF14_AO.jpg"",""stimuli/AM03_DO.jpg""]","stimuli/AF09_SC.jpg","stimuli/HM07_HE.jpg","stimuli/WF14_AO.jpg","stimuli/AM03_DO.jpg","pos3","stimuli/WF14_AO.jpg","AO","WF14","2","1.5","3","2","stimuli/stars_3.png","231.5","[""SC"",""HE"",""AO"",""DO""]","[""AF09"",""HM07"",""WF14"",""AM03""]","[6,5,3,6]","[4,6,2,8]","","",""
"show-reward","140","288506","0.0-140.0","p675228","A136K4YZY2OFTV","3WRBLBQ2GSENM5LEFQY1C5PG0GV0GC","3WYGZ5XF3YLVCKZ34L719NIHL0NSKB","model","mismatch","uniform","","","","","","","","287824.3000000119","289831.60000000894","","","","","","","","","","","","3","","stimuli/stars_3.png","231.5","","","","","stimuli/WF14_AO.jpg","",""
"explore-choice","141","290148","0.0-141.0","p675228","A136K4YZY2OFTV","3WRBLBQ2GSENM5LEFQY1C5PG0GV0GC","3WYGZ5XF3YLVCKZ34L719NIHL0NSKB","model","mismatch","uniform","","","","","","","1135","289833.200000003","290968.200000003","[""stimuli/WF14_SC.jpg"",""stimuli/AF09_AO.jpg"",""stimuli/HM07_DO.jpg"",""stimuli/AM03_HE.jpg""]","stimuli/WF14_SC.jpg","stimuli/AF09_AO.jpg","stimuli/HM07_DO.jpg","stimuli/AM03_HE.jpg","pos1","stimuli/WF14_SC.jpg","SC","WF14","0","2","4","4","stimuli/stars_4.png","233.5","[""SC"",""AO"",""DO"",""HE""]","[""WF14"",""AF09"",""HM07"",""AM03""]","[4,2,6,7]","[4,2,8,6]","","",""
"show-reward","142","292156","0.0-142.0","p675228","A136K4YZY2OFTV","3WRBLBQ2GSENM5LEFQY1C5PG0GV0GC","3WYGZ5XF3YLVCKZ34L719NIHL0NSKB","model","mismatch","uniform","","","","","","","","291474.60000000894","293480.90000000596","","","","","","","","","","","","4","","stimuli/stars_4.png","233.5","","","","","stimuli/WF14_SC.jpg","",""
"explore-choice","143","293852","0.0-143.0","p675228","A136K4YZY2OFTV","3WRBLBQ2GSENM5LEFQY1C5PG0GV0GC","3WYGZ5XF3YLVCKZ34L719NIHL0NSKB","model","mismatch","uniform","","","","","","","1193.199999988079","293482.8000000119","294676","[""stimuli/AM03_DO.jpg"",""stimuli/AF09_AO.jpg"",""stimuli/WF14_SC.jpg"",""stimuli/HM07_HE.jpg""]","stimuli/AM03_DO.jpg","stimuli/AF09_AO.jpg","stimuli/WF14_SC.jpg","stimuli/HM07_HE.jpg","pos4","stimuli/HM07_HE.jpg","HE","HM07","3","4","8","6","stimuli/stars_8.png","237.5","[""DO"",""AO"",""SC"",""HE""]","[""AM03"",""AF09"",""WF14"",""HM07""]","[10,4,5,8]","[8,2,4,6]","","",""
"show-reward","144","295861","0.0-144.0","p675228","A136K4YZY2OFTV","3WRBLBQ2GSENM5LEFQY1C5PG0GV0GC","3WYGZ5XF3YLVCKZ34L719NIHL0NSKB","model","mismatch","uniform","","","","","","","","295179","297186.3000000119","","","","","","","","","","","","8","","stimuli/stars_8.png","237.5","","","","","stimuli/HM07_HE.jpg","",""
"explore-choice","145","297152","0.0-145.0","p675228","A136K4YZY2OFTV","3WRBLBQ2GSENM5LEFQY1C5PG0GV0GC","3WYGZ5XF3YLVCKZ34L719NIHL0NSKB","model","mismatch","uniform","","","","","","","784.3999999910593","297188.3000000119","297972.700000003","[""stimuli/AM03_SC.jpg"",""stimuli/WF14_HE.jpg"",""stimuli/AF09_DO.jpg"",""stimuli/HM07_AO.jpg""]","stimuli/AM03_SC.jpg","stimuli/WF14_HE.jpg","stimuli/AF09_DO.jpg","stimuli/HM07_AO.jpg","pos4","stimuli/HM07_AO.jpg","AO","HM07","3","1","2","2","stimuli/stars_2.png","238.5","[""SC"",""HE"",""DO"",""AO""]","[""AM03"",""WF14"",""AF09"",""HM07""]","[5,7,9,2]","[4,6,8,2]","","",""
"show-reward","146","299161","0.0-146.0","p675228","A136K4YZY2OFTV","3WRBLBQ2GSENM5LEFQY1C5PG0GV0GC","3WYGZ5XF3YLVCKZ34L719NIHL0NSKB","model","mismatch","uniform","","","","","","","","298479.200000003","300486.60000000894","","","","","","","","","","","","2","","stimuli/stars_2.png","238.5","","","","","stimuli/HM07_AO.jpg","",""
"explore-choice","147","300831","0.0-147.0","p675228","A136K4YZY2OFTV","3WRBLBQ2GSENM5LEFQY1C5PG0GV0GC","3WYGZ5XF3YLVCKZ34L719NIHL0NSKB","model","mismatch","uniform","","","","","","","1166.5999999940395","300488.60000000894","301655.200000003","[""stimuli/WF14_HE.jpg"",""stimuli/AM03_AO.jpg"",""stimuli/HM07_SC.jpg"",""stimuli/AF09_DO.jpg""]","stimuli/WF14_HE.jpg","stimuli/AM03_AO.jpg","stimuli/HM07_SC.jpg","stimuli/AF09_DO.jpg","pos2","stimuli/AM03_AO.jpg","AO","AM03","1","1.5","3","2","stimuli/stars_3.png","240","[""HE"",""AO"",""SC"",""DO""]","[""WF14"",""AM03"",""HM07"",""AF09""]","[5,3,3,8]","[6,2,4,8]","","",""
"show-reward","148","302839","0.0-148.0","p675228","A136K4YZY2OFTV","3WRBLBQ2GSENM5LEFQY1C5PG0GV0GC","3WYGZ5XF3YLVCKZ34L719NIHL0NSKB","model","mismatch","uniform","","","","","","","","302158.10000000894","304164.10000000894","","","","","","","","","","","","3","","stimuli/stars_3.png","240","","","","","stimuli/AM03_AO.jpg","",""
"explore-choice","149","304978","0.0-149.0","p675228","A136K4YZY2OFTV","3WRBLBQ2GSENM5LEFQY1C5PG0GV0GC","3WYGZ5XF3YLVCKZ34L719NIHL0NSKB","model","mismatch","uniform","","","","","","","1634.2000000029802","304166.10000000894","305800.3000000119","[""stimuli/HM07_DO.jpg"",""stimuli/WF14_AO.jpg"",""stimuli/AM03_HE.jpg"",""stimuli/AF09_SC.jpg""]","stimuli/HM07_DO.jpg","stimuli/WF14_AO.jpg","stimuli/AM03_HE.jpg","stimuli/AF09_SC.jpg","pos4","stimuli/AF09_SC.jpg","SC","AF09","3","3","6","4","stimuli/stars_6.png","243","[""DO"",""AO"",""HE"",""SC""]","[""HM07"",""WF14"",""AM03"",""AF09""]","[6,3,8,6]","[8,2,6,4]","","",""
"show-reward","150","306986","0.0-150.0","p675228","A136K4YZY2OFTV","3WRBLBQ2GSENM5LEFQY1C5PG0GV0GC","3WYGZ5XF3YLVCKZ34L719NIHL0NSKB","model","mismatch","uniform","","","","","","","","306305.200000003","308311.10000000894","","","","","","","","","","","","6","","stimuli/stars_6.png","243","","","","","stimuli/AF09_SC.jpg","",""
"explore-choice","151","308874","0.0-151.0","p675228","A136K4YZY2OFTV","3WRBLBQ2GSENM5LEFQY1C5PG0GV0GC","3WYGZ5XF3YLVCKZ34L719NIHL0NSKB","model","mismatch","uniform","","","","","","","1381.5","308312.90000000596","309694.40000000596","[""stimuli/WF14_SC.jpg"",""stimuli/AM03_HE.jpg"",""stimuli/HM07_AO.jpg"",""stimuli/AF09_DO.jpg""]","stimuli/WF14_SC.jpg","stimuli/AM03_HE.jpg","stimuli/HM07_AO.jpg","stimuli/AF09_DO.jpg","pos4","stimuli/AF09_DO.jpg","DO","AF09","3","3","6","8","stimuli/stars_6.png","246","[""SC"",""HE"",""AO"",""DO""]","[""WF14"",""AM03"",""HM07"",""AF09""]","[3,4,0,6]","[4,6,2,8]","","",""
"show-reward","152","310881","0.0-152.0","p675228","A136K4YZY2OFTV","3WRBLBQ2GSENM5LEFQY1C5PG0GV0GC","3WYGZ5XF3YLVCKZ34L719NIHL0NSKB","model","mismatch","uniform","","","","","","","","310201.200000003","312205.8000000119","","","","","","","","","","","","6","","stimuli/stars_6.png","246","","","","","stimuli/AF09_DO.jpg","",""
"explore-choice","153","312622","0.0-153.0","p675228","A136K4YZY2OFTV","3WRBLBQ2GSENM5LEFQY1C5PG0GV0GC","3WYGZ5XF3YLVCKZ34L719NIHL0NSKB","model","mismatch","uniform","","","","","","","1235","312207.60000000894","313442.60000000894","[""stimuli/AM03_SC.jpg"",""stimuli/AF09_HE.jpg"",""stimuli/WF14_DO.jpg"",""stimuli/HM07_AO.jpg""]","stimuli/AM03_SC.jpg","stimuli/AF09_HE.jpg","stimuli/WF14_DO.jpg","stimuli/HM07_AO.jpg","pos2","stimuli/AF09_HE.jpg","HE","AF09","1","2.5","5","6","stimuli/stars_5.png","248.5","[""SC"",""HE"",""DO"",""AO""]","[""AM03"",""AF09"",""WF14"",""HM07""]","[6,5,6,1]","[4,6,8,2]","","",""
"show-reward","154","314630","0.0-154.0","p675228","A136K4YZY2OFTV","3WRBLBQ2GSENM5LEFQY1C5PG0GV0GC","3WYGZ5XF3YLVCKZ34L719NIHL0NSKB","model","mismatch","uniform","","","","","","","","313949.40000000596","315955.3000000119","","","","","","","","","","","","5","","stimuli/stars_5.png","248.5","","","","","stimuli/AF09_HE.jpg","",""
"explore-choice","155","316418","0.0-155.0","p675228","A136K4YZY2OFTV","3WRBLBQ2GSENM5LEFQY1C5PG0GV0GC","3WYGZ5XF3YLVCKZ34L719NIHL0NSKB","model","mismatch","uniform","","","","","","","1280.9000000059605","315957.200000003","317238.10000000894","[""stimuli/HM07_AO.jpg"",""stimuli/AF09_SC.jpg"",""stimuli/AM03_DO.jpg"",""stimuli/WF14_HE.jpg""]","stimuli/HM07_AO.jpg","stimuli/AF09_SC.jpg","stimuli/AM03_DO.jpg","stimuli/WF14_HE.jpg","pos2","stimuli/AF09_SC.jpg","SC","AF09","1","2","4","4","stimuli/stars_4.png","250.5","[""AO"",""SC"",""DO"",""HE""]","[""HM07"",""AF09"",""AM03"",""WF14""]","[1,4,10,4]","[2,4,8,6]","","",""
"show-reward","156","318427","0.0-156.0","p675228","A136K4YZY2OFTV","3WRBLBQ2GSENM5LEFQY1C5PG0GV0GC","3WYGZ5XF3YLVCKZ34L719NIHL0NSKB","model","mismatch","uniform","","","","","","","","317744.700000003","319752.200000003","","","","","","","","","","","","4","","stimuli/stars_4.png","250.5","","","","","stimuli/AF09_SC.jpg","",""
"explore-choice","157","320236","0.0-157.0","p675228","A136K4YZY2OFTV","3WRBLBQ2GSENM5LEFQY1C5PG0GV0GC","3WYGZ5XF3YLVCKZ34L719NIHL0NSKB","model","mismatch","uniform","","","","","","","1304.5","319754.10000000894","321058.60000000894","[""stimuli/AM03_AO.jpg"",""stimuli/WF14_DO.jpg"",""stimuli/HM07_HE.jpg"",""stimuli/AF09_SC.jpg""]","stimuli/AM03_AO.jpg","stimuli/WF14_DO.jpg","stimuli/HM07_HE.jpg","stimuli/AF09_SC.jpg","pos4","stimuli/AF09_SC.jpg","SC","AF09","3","1.5","3","4","stimuli/stars_3.png","252","[""AO"",""DO"",""HE"",""SC""]","[""AM03"",""WF14"",""HM07"",""AF09""]","[4,7,6,3]","[2,8,6,4]","","",""
"show-reward","158","322245","0.0-158.0","p675228","A136K4YZY2OFTV","3WRBLBQ2GSENM5LEFQY1C5PG0GV0GC","3WYGZ5XF3YLVCKZ34L719NIHL0NSKB","model","mismatch","uniform","","","","","","","","321563.40000000596","323570.8000000119","","","","","","","","","","","","3","","stimuli/stars_3.png","252","","","","","stimuli/AF09_SC.jpg","",""
"explore-choice","159","323830","0.0-159.0","p675228","A136K4YZY2OFTV","3WRBLBQ2GSENM5LEFQY1C5PG0GV0GC","3WYGZ5XF3YLVCKZ34L719NIHL0NSKB","model","mismatch","uniform","","","","","","","1080.7999999970198","323572.40000000596","324653.200000003","[""stimuli/WF14_AO.jpg"",""stimuli/AM03_DO.jpg"",""stimuli/AF09_SC.jpg"",""stimuli/HM07_HE.jpg""]","stimuli/WF14_AO.jpg","stimuli/AM03_DO.jpg","stimuli/AF09_SC.jpg","stimuli/HM07_HE.jpg","pos1","stimuli/WF14_AO.jpg","AO","WF14","0","1.5","3","2","stimuli/stars_3.png","253.5","[""AO"",""DO"",""SC"",""HE""]","[""WF14"",""AM03"",""AF09"",""HM07""]","[3,6,6,5]","[2,8,4,6]","","",""
"show-reward","160","325839","0.0-160.0","p675228","A136K4YZY2OFTV","3WRBLBQ2GSENM5LEFQY1C5PG0GV0GC","3WYGZ5XF3YLVCKZ34L719NIHL0NSKB","model","mismatch","uniform","","","","","","","","325156.700000003","327164.10000000894","","","","","","","","","","","","3","","stimuli/stars_3.png","253.5","","","","","stimuli/WF14_AO.jpg","",""
"explore-choice","161","327430","0.0-161.0","p675228","A136K4YZY2OFTV","3WRBLBQ2GSENM5LEFQY1C5PG0GV0GC","3WYGZ5XF3YLVCKZ34L719NIHL0NSKB","model","mismatch","uniform","","","","","","","1089.2000000029802","327165.60000000894","328254.8000000119","[""stimuli/HM07_HE.jpg"",""stimuli/AM03_SC.jpg"",""stimuli/WF14_DO.jpg"",""stimuli/AF09_AO.jpg""]","stimuli/HM07_HE.jpg","stimuli/AM03_SC.jpg","stimuli/WF14_DO.jpg","stimuli/AF09_AO.jpg","pos4","stimuli/AF09_AO.jpg","AO","AF09","3","0.5","1","2","stimuli/stars_1.png","254","[""HE"",""SC"",""DO"",""AO""]","[""HM07"",""AM03"",""WF14"",""AF09""]","[5,5,10,1]","[6,4,8,2]","","",""
"show-reward","162","329439","0.0-162.0","p675228","A136K4YZY2OFTV","3WRBLBQ2GSENM5LEFQY1C5PG0GV0GC","3WYGZ5XF3YLVCKZ34L719NIHL0NSKB","model","mismatch","uniform","","","","","","","","328756.700000003","330763.90000000596","","","","","","","","","","","","1","","stimuli/stars_1.png","254","","","","","stimuli/AF09_AO.jpg","",""
"explore-choice","163","331707","0.0-163.0","p675228","A136K4YZY2OFTV","3WRBLBQ2GSENM5LEFQY1C5PG0GV0GC","3WYGZ5XF3YLVCKZ34L719NIHL0NSKB","model","mismatch","uniform","","","","","","","1762.0999999940395","330765.40000000596","332527.5","[""stimuli/AM03_HE.jpg"",""stimuli/WF14_SC.jpg"",""stimuli/AF09_AO.jpg"",""stimuli/HM07_DO.jpg""]","stimuli/AM03_HE.jpg","stimuli/WF14_SC.jpg","stimuli/AF09_AO.jpg","stimuli/HM07_DO.jpg","pos4","stimuli/HM07_DO.jpg","DO","HM07","3","3","6","8","stimuli/stars_6.png","257","[""HE"",""SC"",""AO"",""DO""]","[""AM03"",""WF14"",""AF09"",""HM07""]","[7,4,2,6]","[6,4,2,8]","","",""
"show-reward","164","333716","0.0-164.0","p675228","A136K4YZY2OFTV","3WRBLBQ2GSENM5LEFQY1C5PG0GV0GC","3WYGZ5XF3YLVCKZ34L719NIHL0NSKB","model","mismatch","uniform","","","","","","","","333034","335040.700000003","","","","","","","","","","","","6","","stimuli/stars_6.png","257","","","","","stimuli/HM07_DO.jpg","",""
"explore-choice","165","335757","0.0-165.0","p675228","A136K4YZY2OFTV","3WRBLBQ2GSENM5LEFQY1C5PG0GV0GC","3WYGZ5XF3YLVCKZ34L719NIHL0NSKB","model","mismatch","uniform","","","","","","","1534.699999988079","335042.3000000119","336577","[""stimuli/AM03_DO.jpg"",""stimuli/WF14_AO.jpg"",""stimuli/AF09_HE.jpg"",""stimuli/HM07_SC.jpg""]","stimuli/AM03_DO.jpg","stimuli/WF14_AO.jpg","stimuli/AF09_HE.jpg","stimuli/HM07_SC.jpg","pos1","stimuli/AM03_DO.jpg","DO","AM03","0","3.5","7","8","stimuli/stars_7.png","260.5","[""DO"",""AO"",""HE"",""SC""]","[""AM03"",""WF14"",""AF09"",""HM07""]","[7,0,6,6]","[8,2,6,4]","","",""
"show-reward","166","337764","0.0-166.0","p675228","A136K4YZY2OFTV","3WRBLBQ2GSENM5LEFQY1C5PG0GV0GC","3WYGZ5XF3YLVCKZ34L719NIHL0NSKB","model","mismatch","uniform","","","","","","","","337083.3000000119","339088.700000003","","","","","","","","","","","","7","","stimuli/stars_7.png","260.5","","","","","stimuli/AM03_DO.jpg","",""
"explore-choice","167","339955","0.0-167.0","p675228","A136K4YZY2OFTV","3WRBLBQ2GSENM5LEFQY1C5PG0GV0GC","3WYGZ5XF3YLVCKZ34L719NIHL0NSKB","model","mismatch","uniform","","","","","","","1685.6000000089407","339090.200000003","340775.8000000119","[""stimuli/AM03_DO.jpg"",""stimuli/WF14_HE.jpg"",""stimuli/HM07_SC.jpg"",""stimuli/AF09_AO.jpg""]","stimuli/AM03_DO.jpg","stimuli/WF14_HE.jpg","stimuli/HM07_SC.jpg","stimuli/AF09_AO.jpg","pos4","stimuli/AF09_AO.jpg","AO","AF09","3","2","4","2","stimuli/stars_4.png","262.5","[""DO"",""HE"",""SC"",""AO""]","[""AM03"",""WF14"",""HM07"",""AF09""]","[7,7,6,4]","[8,6,4,2]","","",""
"show-reward","168","341964","0.0-168.0","p675228","A136K4YZY2OFTV","3WRBLBQ2GSENM5LEFQY1C5PG0GV0GC","3WYGZ5XF3YLVCKZ34L719NIHL0NSKB","model","mismatch","uniform","","","","","","","","341281.60000000894","343288.60000000894","","","","","","","","","","","","4","","stimuli/stars_4.png","262.5","","","","","stimuli/AF09_AO.jpg","",""
"explore-choice","169","343763","0.0-169.0","p675228","A136K4YZY2OFTV","3WRBLBQ2GSENM5LEFQY1C5PG0GV0GC","3WYGZ5XF3YLVCKZ34L719NIHL0NSKB","model","mismatch","uniform","","","","","","","1293.3999999910593","343290.3000000119","344583.700000003","[""stimuli/HM07_DO.jpg"",""stimuli/AF09_SC.jpg"",""stimuli/AM03_AO.jpg"",""stimuli/WF14_HE.jpg""]","stimuli/HM07_DO.jpg","stimuli/AF09_SC.jpg","stimuli/AM03_AO.jpg","stimuli/WF14_HE.jpg","pos4","stimuli/WF14_HE.jpg","HE","WF14","3","4","8","6","stimuli/stars_8.png","266.5","[""DO"",""SC"",""AO"",""HE""]","[""HM07"",""AF09"",""AM03"",""WF14""]","[10,2,4,8]","[8,4,2,6]","","",""
"show-reward","170","345769","0.0-170.0","p675228","A136K4YZY2OFTV","3WRBLBQ2GSENM5LEFQY1C5PG0GV0GC","3WYGZ5XF3YLVCKZ34L719NIHL0NSKB","model","mismatch","uniform","","","","","","","","345090","347093.60000000894","","","","","","","","","","","","8","","stimuli/stars_8.png","266.5","","","","","stimuli/WF14_HE.jpg","",""
"explore-choice","171","347659","0.0-171.0","p675228","A136K4YZY2OFTV","3WRBLBQ2GSENM5LEFQY1C5PG0GV0GC","3WYGZ5XF3YLVCKZ34L719NIHL0NSKB","model","mismatch","uniform","","","","","","","1384.5","347095.10000000894","348479.60000000894","[""stimuli/WF14_SC.jpg"",""stimuli/AF09_DO.jpg"",""stimuli/HM07_HE.jpg"",""stimuli/AM03_AO.jpg""]","stimuli/WF14_SC.jpg","stimuli/AF09_DO.jpg","stimuli/HM07_HE.jpg","stimuli/AM03_AO.jpg","pos3","stimuli/HM07_HE.jpg","HE","HM07","2","4","8","6","stimuli/stars_8.png","270.5","[""SC"",""DO"",""HE"",""AO""]","[""WF14"",""AF09"",""HM07"",""AM03""]","[5,10,8,0]","[4,8,6,2]","","",""
"show-reward","172","349668","0.0-172.0","p675228","A136K4YZY2OFTV","3WRBLBQ2GSENM5LEFQY1C5PG0GV0GC","3WYGZ5XF3YLVCKZ34L719NIHL0NSKB","model","mismatch","uniform","","","","","","","","348985.90000000596","350992.60000000894","","","","","","","","","","","","8","","stimuli/stars_8.png","270.5","","","","","stimuli/HM07_HE.jpg","",""
"explore-choice","173","351817","0.0-173.0","p675228","A136K4YZY2OFTV","3WRBLBQ2GSENM5LEFQY1C5PG0GV0GC","3WYGZ5XF3YLVCKZ34L719NIHL0NSKB","model","mismatch","uniform","","","","","","","1645.5999999940395","350994.3000000119","352639.90000000596","[""stimuli/WF14_DO.jpg"",""stimuli/AM03_HE.jpg"",""stimuli/AF09_SC.jpg"",""stimuli/HM07_AO.jpg""]","stimuli/WF14_DO.jpg","stimuli/AM03_HE.jpg","stimuli/AF09_SC.jpg","stimuli/HM07_AO.jpg","pos2","stimuli/AM03_HE.jpg","HE","AM03","1","2","4","6","stimuli/stars_4.png","272.5","[""DO"",""HE"",""SC"",""AO""]","[""WF14"",""AM03"",""AF09"",""HM07""]","[10,4,6,2]","[8,6,4,2]","","",""
"show-reward","174","353826","0.0-174.0","p675228","A136K4YZY2OFTV","3WRBLBQ2GSENM5LEFQY1C5PG0GV0GC","3WYGZ5XF3YLVCKZ34L719NIHL0NSKB","model","mismatch","uniform","","","","","","","","353143.3000000119","355150.700000003","","","","","","","","","","","","4","","stimuli/stars_4.png","272.5","","","","","stimuli/AM03_HE.jpg","",""
"explore-choice","175","355548","0.0-175.0","p675228","A136K4YZY2OFTV","3WRBLBQ2GSENM5LEFQY1C5PG0GV0GC","3WYGZ5XF3YLVCKZ34L719NIHL0NSKB","model","mismatch","uniform","","","","","","","1215.800000011921","355152.5","356368.3000000119","[""stimuli/HM07_SC.jpg"",""stimuli/AF09_HE.jpg"",""stimuli/AM03_AO.jpg"",""stimuli/WF14_DO.jpg""]","stimuli/HM07_SC.jpg","stimuli/AF09_HE.jpg","stimuli/AM03_AO.jpg","stimuli/WF14_DO.jpg","pos2","stimuli/AF09_HE.jpg","HE","AF09","1","2","4","6","stimuli/stars_4.png","274.5","[""SC"",""HE"",""AO"",""DO""]","[""HM07"",""AF09"",""AM03"",""WF14""]","[4,4,4,6]","[4,6,2,8]","","",""
"show-reward","176","357555","0.0-176.0","p675228","A136K4YZY2OFTV","3WRBLBQ2GSENM5LEFQY1C5PG0GV0GC","3WYGZ5XF3YLVCKZ34L719NIHL0NSKB","model","mismatch","uniform","","","","","","","","356874.700000003","358879.8000000119","","","","","","","","","","","","4","","stimuli/stars_4.png","274.5","","","","","stimuli/AF09_HE.jpg","",""
"explore-choice","177","359402","0.0-177.0","p675228","A136K4YZY2OFTV","3WRBLBQ2GSENM5LEFQY1C5PG0GV0GC","3WYGZ5XF3YLVCKZ34L719NIHL0NSKB","model","mismatch","uniform","","","","","","","1341.800000011921","358881.5","360223.3000000119","[""stimuli/HM07_SC.jpg"",""stimuli/AF09_DO.jpg"",""stimuli/AM03_AO.jpg"",""stimuli/WF14_HE.jpg""]","stimuli/HM07_SC.jpg","stimuli/AF09_DO.jpg","stimuli/AM03_AO.jpg","stimuli/WF14_HE.jpg","pos3","stimuli/AM03_AO.jpg","AO","AM03","2","1.5","3","2","stimuli/stars_3.png","276","[""SC"",""DO"",""AO"",""HE""]","[""HM07"",""AF09"",""AM03"",""WF14""]","[3,8,3,5]","[4,8,2,6]","","",""
"show-reward","178","361411","0.0-178.0","p675228","A136K4YZY2OFTV","3WRBLBQ2GSENM5LEFQY1C5PG0GV0GC","3WYGZ5XF3YLVCKZ34L719NIHL0NSKB","model","mismatch","uniform","","","","","","","","360729.60000000894","362736.200000003","","","","","","","","","","","","3","","stimuli/stars_3.png","276","","","","","stimuli/AM03_AO.jpg","",""
"explore-choice","179","363581","0.0-179.0","p675228","A136K4YZY2OFTV","3WRBLBQ2GSENM5LEFQY1C5PG0GV0GC","3WYGZ5XF3YLVCKZ34L719NIHL0NSKB","model","mismatch","uniform","","","","","","","1663.0999999940395","362737.8000000119","364400.90000000596","[""stimuli/HM07_HE.jpg"",""stimuli/AF09_AO.jpg"",""stimuli/WF14_SC.jpg"",""stimuli/AM03_DO.jpg""]","stimuli/HM07_HE.jpg","stimuli/AF09_AO.jpg","stimuli/WF14_SC.jpg","stimuli/AM03_DO.jpg","pos1","stimuli/HM07_HE.jpg","HE","HM07","0","4","8","6","stimuli/stars_8.png","280","[""HE"",""AO"",""SC"",""DO""]","[""HM07"",""AF09"",""WF14"",""AM03""]","[8,4,5,10]","[6,2,4,8]","","",""
"show-reward","180","365590","0.0-180.0","p675228","A136K4YZY2OFTV","3WRBLBQ2GSENM5LEFQY1C5PG0GV0GC","3WYGZ5XF3YLVCKZ34L719NIHL0NSKB","model","mismatch","uniform","","","","","","","","364907.10000000894","366914.40000000596","","","","","","","","","","","","8","","stimuli/stars_8.png","280","","","","","stimuli/HM07_HE.jpg","",""
"explore-choice","181","368078","0.0-181.0","p675228","A136K4YZY2OFTV","3WRBLBQ2GSENM5LEFQY1C5PG0GV0GC","3WYGZ5XF3YLVCKZ34L719NIHL0NSKB","model","mismatch","uniform","","","","","","","1984.4000000059605","366916","368900.40000000596","[""stimuli/AF09_HE.jpg"",""stimuli/AM03_SC.jpg"",""stimuli/HM07_DO.jpg"",""stimuli/WF14_AO.jpg""]","stimuli/AF09_HE.jpg","stimuli/AM03_SC.jpg","stimuli/HM07_DO.jpg","stimuli/WF14_AO.jpg","pos3","stimuli/HM07_DO.jpg","DO","HM07","2","4","8","8","stimuli/stars_8.png","284","[""HE"",""SC"",""DO"",""AO""]","[""AF09"",""AM03"",""HM07"",""WF14""]","[4,6,8,0]","[6,4,8,2]","","",""
"show-reward","182","370086","0.0-182.0","p675228","A136K4YZY2OFTV","3WRBLBQ2GSENM5LEFQY1C5PG0GV0GC","3WYGZ5XF3YLVCKZ34L719NIHL0NSKB","model","mismatch","uniform","","","","","","","","369403.8000000119","371411.10000000894","","","","","","","","","","","","8","","stimuli/stars_8.png","284","","","","","stimuli/HM07_DO.jpg","",""
"explore-choice","183","372360","0.0-183.0","p675228","A136K4YZY2OFTV","3WRBLBQ2GSENM5LEFQY1C5PG0GV0GC","3WYGZ5XF3YLVCKZ34L719NIHL0NSKB","model","mismatch","uniform","","","","","","","1769.0999999940395","371412.8000000119","373181.90000000596","[""stimuli/AM03_SC.jpg"",""stimuli/WF14_AO.jpg"",""stimuli/HM07_HE.jpg"",""stimuli/AF09_DO.jpg""]","stimuli/AM03_SC.jpg","stimuli/WF14_AO.jpg","stimuli/HM07_HE.jpg","stimuli/AF09_DO.jpg","pos3","stimuli/HM07_HE.jpg","HE","HM07","2","4","8","6","stimuli/stars_8.png","288","[""SC"",""AO"",""HE"",""DO""]","[""AM03"",""WF14"",""HM07"",""AF09""]","[3,0,8,7]","[4,2,6,8]","","",""
"show-reward","184","374367","0.0-184.0","p675228","A136K4YZY2OFTV","3WRBLBQ2GSENM5LEFQY1C5PG0GV0GC","3WYGZ5XF3YLVCKZ34L719NIHL0NSKB","model","mismatch","uniform","","","","","","","","373685.5","375691.40000000596","","","","","","","","","","","","8","","stimuli/stars_8.png","288","","","","","stimuli/HM07_HE.jpg","",""
"explore-choice","185","376332","0.0-185.0","p675228","A136K4YZY2OFTV","3WRBLBQ2GSENM5LEFQY1C5PG0GV0GC","3WYGZ5XF3YLVCKZ34L719NIHL0NSKB","model","mismatch","uniform","","","","","","","1459.8999999910593","375692.8000000119","377152.700000003","[""stimuli/AF09_HE.jpg"",""stimuli/WF14_SC.jpg"",""stimuli/AM03_DO.jpg"",""stimuli/HM07_AO.jpg""]","stimuli/AF09_HE.jpg","stimuli/WF14_SC.jpg","stimuli/AM03_DO.jpg","stimuli/HM07_AO.jpg","pos4","stimuli/HM07_AO.jpg","AO","HM07","3","1.5","3","2","stimuli/stars_3.png","289.5","[""HE"",""SC"",""DO"",""AO""]","[""AF09"",""WF14"",""AM03"",""HM07""]","[6,4,8,3]","[6,4,8,2]","","",""
"show-reward","186","378339","0.0-186.0","p675228","A136K4YZY2OFTV","3WRBLBQ2GSENM5LEFQY1C5PG0GV0GC","3WYGZ5XF3YLVCKZ34L719NIHL0NSKB","model","mismatch","uniform","","","","","","","","377658.60000000894","379663.200000003","","","","","","","","","","","","3","","stimuli/stars_3.png","289.5","","","","","stimuli/HM07_AO.jpg","",""
"explore-choice","187","381439","0.0-187.0","p675228","A136K4YZY2OFTV","3WRBLBQ2GSENM5LEFQY1C5PG0GV0GC","3WYGZ5XF3YLVCKZ34L719NIHL0NSKB","model","mismatch","uniform","","","","","","","2594.2000000029802","379664.700000003","382258.90000000596","[""stimuli/HM07_DO.jpg"",""stimuli/AM03_HE.jpg"",""stimuli/AF09_SC.jpg"",""stimuli/WF14_AO.jpg""]","stimuli/HM07_DO.jpg","stimuli/AM03_HE.jpg","stimuli/AF09_SC.jpg","stimuli/WF14_AO.jpg","pos1","stimuli/HM07_DO.jpg","DO","HM07","0","3","6","8","stimuli/stars_6.png","292.5","[""DO"",""HE"",""SC"",""AO""]","[""HM07"",""AM03"",""AF09"",""WF14""]","[6,8,6,3]","[8,6,4,2]","","",""
"show-reward","188","383448","0.0-188.0","p675228","A136K4YZY2OFTV","3WRBLBQ2GSENM5LEFQY1C5PG0GV0GC","3WYGZ5XF3YLVCKZ34L719NIHL0NSKB","model","mismatch","uniform","","","","","","","","382765.40000000596","384772.60000000894","","","","","","","","","","","","6","","stimuli/stars_6.png","292.5","","","","","stimuli/HM07_DO.jpg","",""
"explore-choice","189","386347","0.0-189.0","p675228","A136K4YZY2OFTV","3WRBLBQ2GSENM5LEFQY1C5PG0GV0GC","3WYGZ5XF3YLVCKZ34L719NIHL0NSKB","model","mismatch","uniform","","","","","","","2392","384774.40000000596","387166.40000000596","[""stimuli/HM07_SC.jpg"",""stimuli/AM03_HE.jpg"",""stimuli/WF14_DO.jpg"",""stimuli/AF09_AO.jpg""]","stimuli/HM07_SC.jpg","stimuli/AM03_HE.jpg","stimuli/WF14_DO.jpg","stimuli/AF09_AO.jpg","pos2","stimuli/AM03_HE.jpg","HE","AM03","1","2.5","5","6","stimuli/stars_5.png","295","[""SC"",""HE"",""DO"",""AO""]","[""HM07"",""AM03"",""WF14"",""AF09""]","[6,5,7,1]","[4,6,8,2]","","",""
"show-reward","190","388355","0.0-190.0","p675228","A136K4YZY2OFTV","3WRBLBQ2GSENM5LEFQY1C5PG0GV0GC","3WYGZ5XF3YLVCKZ34L719NIHL0NSKB","model","mismatch","uniform","","","","","","","","387673.200000003","389679.8000000119","","","","","","","","","","","","5","","stimuli/stars_5.png","295","","","","","stimuli/AM03_HE.jpg","",""
"explore-choice","191","390208","0.0-191.0","p675228","A136K4YZY2OFTV","3WRBLBQ2GSENM5LEFQY1C5PG0GV0GC","3WYGZ5XF3YLVCKZ34L719NIHL0NSKB","model","mismatch","uniform","","","","","","","1346.1000000089407","389681.700000003","391027.8000000119","[""stimuli/AF09_DO.jpg"",""stimuli/AM03_SC.jpg"",""stimuli/WF14_HE.jpg"",""stimuli/HM07_AO.jpg""]","stimuli/AF09_DO.jpg","stimuli/AM03_SC.jpg","stimuli/WF14_HE.jpg","stimuli/HM07_AO.jpg","pos4","stimuli/HM07_AO.jpg","AO","HM07","3","1","2","2","stimuli/stars_2.png","296","[""DO"",""SC"",""HE"",""AO""]","[""AF09"",""AM03"",""WF14"",""HM07""]","[9,5,7,2]","[8,4,6,2]","","",""
"show-reward","192","392214","0.0-192.0","p675228","A136K4YZY2OFTV","3WRBLBQ2GSENM5LEFQY1C5PG0GV0GC","3WYGZ5XF3YLVCKZ34L719NIHL0NSKB","model","mismatch","uniform","","","","","","","","391534","393538","","","","","","","","","","","","2","","stimuli/stars_2.png","296","","","","","stimuli/HM07_AO.jpg","",""
"explore-choice","193","394069","0.0-193.0","p675228","A136K4YZY2OFTV","3WRBLBQ2GSENM5LEFQY1C5PG0GV0GC","3WYGZ5XF3YLVCKZ34L719NIHL0NSKB","model","mismatch","uniform","","","","","","","1348.2999999970198","393539.90000000596","394888.200000003","[""stimuli/HM07_DO.jpg"",""stimuli/AM03_AO.jpg"",""stimuli/WF14_SC.jpg"",""stimuli/AF09_HE.jpg""]","stimuli/HM07_DO.jpg","stimuli/AM03_AO.jpg","stimuli/WF14_SC.jpg","stimuli/AF09_HE.jpg","pos1","stimuli/HM07_DO.jpg","DO","HM07","0","5","10","8","stimuli/stars_10.png","301","[""DO"",""AO"",""SC"",""HE""]","[""HM07"",""AM03"",""WF14"",""AF09""]","[10,2,5,5]","[8,2,4,6]","","",""
"show-reward","194","396078","0.0-194.0","p675228","A136K4YZY2OFTV","3WRBLBQ2GSENM5LEFQY1C5PG0GV0GC","3WYGZ5XF3YLVCKZ34L719NIHL0NSKB","model","mismatch","uniform","","","","","","","","395395.10000000894","397402.10000000894","","","","","","","","","","","","10","","stimuli/stars_10.png","301","","","","","stimuli/HM07_DO.jpg","",""
"explore-choice","195","397721","0.0-195.0","p675228","A136K4YZY2OFTV","3WRBLBQ2GSENM5LEFQY1C5PG0GV0GC","3WYGZ5XF3YLVCKZ34L719NIHL0NSKB","model","mismatch","uniform","","","","","","","1138.5999999940395","397403.8000000119","398542.40000000596","[""stimuli/AF09_AO.jpg"",""stimuli/HM07_DO.jpg"",""stimuli/AM03_SC.jpg"",""stimuli/WF14_HE.jpg""]","stimuli/AF09_AO.jpg","stimuli/HM07_DO.jpg","stimuli/AM03_SC.jpg","stimuli/WF14_HE.jpg","pos2","stimuli/HM07_DO.jpg","DO","HM07","1","4.5","9","8","stimuli/stars_9.png","305.5","[""AO"",""DO"",""SC"",""HE""]","[""AF09"",""HM07"",""AM03"",""WF14""]","[0,9,5,5]","[2,8,4,6]","","",""
"show-reward","196","399730","0.0-196.0","p675228","A136K4YZY2OFTV","3WRBLBQ2GSENM5LEFQY1C5PG0GV0GC","3WYGZ5XF3YLVCKZ34L719NIHL0NSKB","model","mismatch","uniform","","","","","","","","399047.3000000119","401054.700000003","","","","","","","","","","","","9","","stimuli/stars_9.png","305.5","","","","","stimuli/HM07_DO.jpg","",""
"explore-choice","197","402699","0.0-197.0","p675228","A136K4YZY2OFTV","3WRBLBQ2GSENM5LEFQY1C5PG0GV0GC","3WYGZ5XF3YLVCKZ34L719NIHL0NSKB","model","mismatch","uniform","","","","","","","2461.7000000029802","401056.5","403518.200000003","[""stimuli/HM07_SC.jpg"",""stimuli/AF09_DO.jpg"",""stimuli/AM03_HE.jpg"",""stimuli/WF14_AO.jpg""]","stimuli/HM07_SC.jpg","stimuli/AF09_DO.jpg","stimuli/AM03_HE.jpg","stimuli/WF14_AO.jpg","pos3","stimuli/AM03_HE.jpg","HE","AM03","2","3","6","6","stimuli/stars_6.png","308.5","[""SC"",""DO"",""HE"",""AO""]","[""HM07"",""AF09"",""AM03"",""WF14""]","[5,9,6,2]","[4,8,6,2]","","",""
"show-reward","198","404708","0.0-198.0","p675228","A136K4YZY2OFTV","3WRBLBQ2GSENM5LEFQY1C5PG0GV0GC","3WYGZ5XF3YLVCKZ34L719NIHL0NSKB","model","mismatch","uniform","","","","","","","","404025.3000000119","406032.60000000894","","","","","","","","","","","","6","","stimuli/stars_6.png","308.5","","","","","stimuli/AM03_HE.jpg","",""
"instructions","199","408983","0.0-199.0","p675228","A136K4YZY2OFTV","3WRBLBQ2GSENM5LEFQY1C5PG0GV0GC","3WYGZ5XF3YLVCKZ34L719NIHL0NSKB","model","mismatch","uniform","","","","","","[{""page_index"":0,""viewing_time"":4271.79999999702}]","4272.4000000059605","","","","","","","","","","","","","","","","","","","","","","","",""
"survey-text","200","414077","0.0-200.0-0.0","p675228","A136K4YZY2OFTV","3WRBLBQ2GSENM5LEFQY1C5PG0GV0GC","3WYGZ5XF3YLVCKZ34L719NIHL0NSKB","model","mismatch","uniform","","","","","","","5089.5","","","","","","","","","","","","","","","","","","","","","","","{""age"":""52""}",""
"survey-text","201","417516","0.0-200.0-1.0","p675228","A136K4YZY2OFTV","3WRBLBQ2GSENM5LEFQY1C5PG0GV0GC","3WYGZ5XF3YLVCKZ34L719NIHL0NSKB","model","mismatch","uniform","","","","","","","3435.300000011921","","","","","","","","","","","","","","","","","","","","","","","{""gender"":""Male""}",""
"survey-text","202","421900","0.0-200.0-2.0","p675228","A136K4YZY2OFTV","3WRBLBQ2GSENM5LEFQY1C5PG0GV0GC","3WYGZ5XF3YLVCKZ34L719NIHL0NSKB","model","mismatch","uniform","","","","","","","4381.5999999940395","","","","","","","","","","","","","","","","","","","","","","","{""country"":""USA""}",""
"survey-text","203","428030","0.0-200.0-3.0","p675228","A136K4YZY2OFTV","3WRBLBQ2GSENM5LEFQY1C5PG0GV0GC","3WYGZ5XF3YLVCKZ34L719NIHL0NSKB","model","mismatch","uniform","","","","","","","6127.20000000298","","","","","","","","","","","","","","","","","","","","","","","{""language"":""English"",""other_languages"":""NA""}",""
"survey-multi-select","204","431492","0.0-201.0","p675228","A136K4YZY2OFTV","3WRBLBQ2GSENM5LEFQY1C5PG0GV0GC","3WYGZ5XF3YLVCKZ34L719NIHL0NSKB","model","mismatch","uniform","","","","","","","3457","","","","","","","","","","","","","","","","","","","","","","","{""race"":[""White""]}","[0]"
"survey-multi-choice","205","434982","0.0-202.0","p675228","A136K4YZY2OFTV","3WRBLBQ2GSENM5LEFQY1C5PG0GV0GC","3WYGZ5XF3YLVCKZ34L719NIHL0NSKB","model","mismatch","uniform","","","","","","","3482.2000000029802","","","","","","","","","","","","","","","","","","","","","","","{""education"":""Bachelor's degree""}","[0]"
"survey-text","206","511861","0.0-203.0","p675228","A136K4YZY2OFTV","3WRBLBQ2GSENM5LEFQY1C5PG0GV0GC","3WYGZ5XF3YLVCKZ34L719NIHL0NSKB","model","mismatch","uniform","","","","","","","76867.90000000596","","","","","","","","","","","","","","","","","","","","","","","{""patterns"":""In the first set of faces, the white woman seemed to give the most stars. With the second set of faces, I couldn't spot a pattern though."",""strategy"":""Yes, I chose the white woman for the first set of faces - for the second I was unable to find a strategy that consistently worked though."",""comments"":""Nothing to add - thank you""}",""
