"trial_type","trial_index","time_elapsed","internal_node_id","subject","workerId","hitId","assignmentId","structure_condition","match_condition","noise_type","success","timeout","failed_images","failed_audio","failed_video","view_history","rt","start_time","end_time","stimuli","image1","image2","image3","image4","choiceLocation","choiceImage","choiceEmotion","choiceModel","choice_index","reward_score","reward","reward_score_unadjusted","reward_image","score_after_trial","emotions","models","rewards","rewards_unadjusted","stimulus","response","question_order"
"pavlovia","0","13","0.0-0.0","p626789","A37OUZOGQKGMW0","3RZS0FBRWLGDTA9TUPH81F59AWHPC0","3ZQIG0FLQGM2ZCAONUV98LWJ7CUWVM","emotion","match","uniform","","","","","","","","","","","","","","","","","","","","","","","","","","","","","","",""
"preload","1","4226","0.0-1.0","p626789","A37OUZOGQKGMW0","3RZS0FBRWLGDTA9TUPH81F59AWHPC0","3ZQIG0FLQGM2ZCAONUV98LWJ7CUWVM","emotion","match","uniform","true","false","[]","[]","[]","","","","","","","","","","","","","","","","","","","","","","","","","",""
"fullscreen","2","17235","0.0-2.0","p626789","A37OUZOGQKGMW0","3RZS0FBRWLGDTA9TUPH81F59AWHPC0","3ZQIG0FLQGM2ZCAONUV98LWJ7CUWVM","emotion","match","uniform","true","","","","","","","","","","","","","","","","","","","","","","","","","","","","","",""
"instructions","3","50347","0.0-3.0","p626789","A37OUZOGQKGMW0","3RZS0FBRWLGDTA9TUPH81F59AWHPC0","3ZQIG0FLQGM2ZCAONUV98LWJ7CUWVM","emotion","match","uniform","","","","","","[{""page_index"":0,""viewing_time"":33109.30000001192}]","33110.30000001192","","","","","","","","","","","","","","","","","","","","","","","",""
"explore-choice","4","54154","0.0-4.0","p626789","A37OUZOGQKGMW0","3RZS0FBRWLGDTA9TUPH81F59AWHPC0","3ZQIG0FLQGM2ZCAONUV98LWJ7CUWVM","emotion","match","uniform","","","","","","","3300.400000035763","52306.09999996424","55606.5","[""stimuli/sheep.jpg"",""stimuli/hammer.jpg"",""stimuli/basketball.jpg"",""stimuli/horse.jpg""]","stimuli/sheep.jpg","stimuli/hammer.jpg","stimuli/basketball.jpg","stimuli/horse.jpg","pos4","stimuli/horse.jpg","","","3","64","64","64","stimuli/stars_8.png","65","","","","","","",""
"explore-choice","5","58344","0.0-5.0","p626789","A37OUZOGQKGMW0","3RZS0FBRWLGDTA9TUPH81F59AWHPC0","3ZQIG0FLQGM2ZCAONUV98LWJ7CUWVM","emotion","match","uniform","","","","","","","3686.2000000476837","56113.299999952316","59799.5","[""stimuli/hammer.jpg"",""stimuli/basketball.jpg"",""stimuli/horse.jpg"",""stimuli/sheep.jpg""]","stimuli/hammer.jpg","stimuli/basketball.jpg","stimuli/horse.jpg","stimuli/sheep.jpg","pos1","stimuli/hammer.jpg","","","0","8","8","8","stimuli/stars_2.png","9","","","","","","",""
"instructions","6","80489","0.0-6.0","p626789","A37OUZOGQKGMW0","3RZS0FBRWLGDTA9TUPH81F59AWHPC0","3ZQIG0FLQGM2ZCAONUV98LWJ7CUWVM","emotion","match","uniform","","","","","","[{""page_index"":0,""viewing_time"":22143.600000023842}]","22144.100000023842","","","","","","","","","","","","","","","","","","","","","","","",""
"explore-choice","7","87738","0.0-7.0","p626789","A37OUZOGQKGMW0","3RZS0FBRWLGDTA9TUPH81F59AWHPC0","3ZQIG0FLQGM2ZCAONUV98LWJ7CUWVM","emotion","match","uniform","","","","","","","6741.900000035763","82448.29999995232","89190.19999998808","[""stimuli/AF02_SUR.jpg"",""stimuli/AF09_HO.jpg"",""stimuli/BF04_DO.jpg"",""stimuli/WM13_AO.jpg""]","stimuli/AF02_SUR.jpg","stimuli/AF09_HO.jpg","stimuli/BF04_DO.jpg","stimuli/WM13_AO.jpg","pos4","stimuli/WM13_AO.jpg","AO","WM13","3","4","8","8","stimuli/stars_8.png","5","[""SUR"",""HO"",""DO"",""AO""]","[""AF02"",""AF09"",""BF04"",""WM13""]","[2,5,3,8]","[2,6,4,8]","","",""
"show-reward","8","89755","0.0-8.0","p626789","A37OUZOGQKGMW0","3RZS0FBRWLGDTA9TUPH81F59AWHPC0","3ZQIG0FLQGM2ZCAONUV98LWJ7CUWVM","emotion","match","uniform","","","","","","","","89697.89999997616","91711.69999998808","","","","","","","","","","","","8","","stimuli/stars_8.png","5","","","","","stimuli/WM13_AO.jpg","",""
"explore-choice","9","93930","0.0-9.0","p626789","A37OUZOGQKGMW0","3RZS0FBRWLGDTA9TUPH81F59AWHPC0","3ZQIG0FLQGM2ZCAONUV98LWJ7CUWVM","emotion","match","uniform","","","","","","","3672.599999964237","91713.5","95386.09999996424","[""stimuli/AF09_HO.jpg"",""stimuli/AF02_SUR.jpg"",""stimuli/BF04_AO.jpg"",""stimuli/WM13_DO.jpg""]","stimuli/AF09_HO.jpg","stimuli/AF02_SUR.jpg","stimuli/BF04_AO.jpg","stimuli/WM13_DO.jpg","pos4","stimuli/WM13_DO.jpg","DO","WM13","3","3","6","4","stimuli/stars_6.png","8","[""HO"",""SUR"",""AO"",""DO""]","[""AF09"",""AF02"",""BF04"",""WM13""]","[4,1,10,6]","[6,2,8,4]","","",""
"show-reward","10","95949","0.0-10.0","p626789","A37OUZOGQKGMW0","3RZS0FBRWLGDTA9TUPH81F59AWHPC0","3ZQIG0FLQGM2ZCAONUV98LWJ7CUWVM","emotion","match","uniform","","","","","","","","95888.5","97906.5","","","","","","","","","","","","6","","stimuli/stars_6.png","8","","","","","stimuli/WM13_DO.jpg","",""
"explore-choice","11","98284","0.0-11.0","p626789","A37OUZOGQKGMW0","3RZS0FBRWLGDTA9TUPH81F59AWHPC0","3ZQIG0FLQGM2ZCAONUV98LWJ7CUWVM","emotion","match","uniform","","","","","","","1831.800000011921","97907.89999997616","99739.69999998808","[""stimuli/AF02_AO.jpg"",""stimuli/AF09_HO.jpg"",""stimuli/BF04_SUR.jpg"",""stimuli/WM13_DO.jpg""]","stimuli/AF02_AO.jpg","stimuli/AF09_HO.jpg","stimuli/BF04_SUR.jpg","stimuli/WM13_DO.jpg","pos3","stimuli/BF04_SUR.jpg","SUR","BF04","2","2","4","2","stimuli/stars_4.png","10","[""AO"",""HO"",""SUR"",""DO""]","[""AF02"",""AF09"",""BF04"",""WM13""]","[7,8,4,2]","[8,6,2,4]","","",""
"show-reward","12","100296","0.0-12.0","p626789","A37OUZOGQKGMW0","3RZS0FBRWLGDTA9TUPH81F59AWHPC0","3ZQIG0FLQGM2ZCAONUV98LWJ7CUWVM","emotion","match","uniform","","","","","","","","100242.09999996424","102252.29999995232","","","","","","","","","","","","4","","stimuli/stars_4.png","10","","","","","stimuli/BF04_SUR.jpg","",""
"explore-choice","13","102505","0.0-13.0","p626789","A37OUZOGQKGMW0","3RZS0FBRWLGDTA9TUPH81F59AWHPC0","3ZQIG0FLQGM2ZCAONUV98LWJ7CUWVM","emotion","match","uniform","","","","","","","1708","102253.89999997616","103961.89999997616","[""stimuli/AF02_DO.jpg"",""stimuli/BF04_HO.jpg"",""stimuli/AF09_SUR.jpg"",""stimuli/WM13_AO.jpg""]","stimuli/AF02_DO.jpg","stimuli/BF04_HO.jpg","stimuli/AF09_SUR.jpg","stimuli/WM13_AO.jpg","pos1","stimuli/AF02_DO.jpg","DO","AF02","0","2.5","5","4","stimuli/stars_5.png","12.5","[""DO"",""HO"",""SUR"",""AO""]","[""AF02"",""BF04"",""AF09"",""WM13""]","[5,8,1,9]","[4,6,2,8]","","",""
"show-reward","14","104518","0.0-14.0","p626789","A37OUZOGQKGMW0","3RZS0FBRWLGDTA9TUPH81F59AWHPC0","3ZQIG0FLQGM2ZCAONUV98LWJ7CUWVM","emotion","match","uniform","","","","","","","","104463.09999996424","106474.79999995232","","","","","","","","","","","","5","","stimuli/stars_5.png","12.5","","","","","stimuli/AF02_DO.jpg","",""
"explore-choice","15","106496","0.0-15.0","p626789","A37OUZOGQKGMW0","3RZS0FBRWLGDTA9TUPH81F59AWHPC0","3ZQIG0FLQGM2ZCAONUV98LWJ7CUWVM","emotion","match","uniform","","","","","","","1469.4000000357628","106476.59999996424","107946","[""stimuli/AF09_HO.jpg"",""stimuli/BF04_SUR.jpg"",""stimuli/AF02_DO.jpg"",""stimuli/WM13_AO.jpg""]","stimuli/AF09_HO.jpg","stimuli/BF04_SUR.jpg","stimuli/AF02_DO.jpg","stimuli/WM13_AO.jpg","pos2","stimuli/BF04_SUR.jpg","SUR","BF04","1","1.5","3","2","stimuli/stars_3.png","14","[""HO"",""SUR"",""DO"",""AO""]","[""AF09"",""BF04"",""AF02"",""WM13""]","[8,3,5,10]","[6,2,4,8]","","",""
"show-reward","16","108510","0.0-16.0","p626789","A37OUZOGQKGMW0","3RZS0FBRWLGDTA9TUPH81F59AWHPC0","3ZQIG0FLQGM2ZCAONUV98LWJ7CUWVM","emotion","match","uniform","","","","","","","","108453.69999998808","110466.89999997616","","","","","","","","","","","","3","","stimuli/stars_3.png","14","","","","","stimuli/BF04_SUR.jpg","",""
"explore-choice","17","111612","0.0-17.0","p626789","A37OUZOGQKGMW0","3RZS0FBRWLGDTA9TUPH81F59AWHPC0","3ZQIG0FLQGM2ZCAONUV98LWJ7CUWVM","emotion","match","uniform","","","","","","","2599.600000023842","110468.29999995232","113067.89999997616","[""stimuli/AF09_DO.jpg"",""stimuli/BF04_HO.jpg"",""stimuli/AF02_AO.jpg"",""stimuli/WM13_SUR.jpg""]","stimuli/AF09_DO.jpg","stimuli/BF04_HO.jpg","stimuli/AF02_AO.jpg","stimuli/WM13_SUR.jpg","pos1","stimuli/AF09_DO.jpg","DO","AF09","0","2.5","5","4","stimuli/stars_5.png","16.5","[""DO"",""HO"",""AO"",""SUR""]","[""AF09"",""BF04"",""AF02"",""WM13""]","[5,7,7,3]","[4,6,8,2]","","",""
"show-reward","18","113625","0.0-18.0","p626789","A37OUZOGQKGMW0","3RZS0FBRWLGDTA9TUPH81F59AWHPC0","3ZQIG0FLQGM2ZCAONUV98LWJ7CUWVM","emotion","match","uniform","","","","","","","","113570","115582.09999996424","","","","","","","","","","","","5","","stimuli/stars_5.png","16.5","","","","","stimuli/AF09_DO.jpg","",""
"explore-choice","19","116226","0.0-19.0","p626789","A37OUZOGQKGMW0","3RZS0FBRWLGDTA9TUPH81F59AWHPC0","3ZQIG0FLQGM2ZCAONUV98LWJ7CUWVM","emotion","match","uniform","","","","","","","2081.600000023842","115584.09999996424","117665.69999998808","[""stimuli/AF09_DO.jpg"",""stimuli/BF04_AO.jpg"",""stimuli/AF02_SUR.jpg"",""stimuli/WM13_HO.jpg""]","stimuli/AF09_DO.jpg","stimuli/BF04_AO.jpg","stimuli/AF02_SUR.jpg","stimuli/WM13_HO.jpg","pos4","stimuli/WM13_HO.jpg","HO","WM13","3","3.5","7","6","stimuli/stars_7.png","20","[""DO"",""AO"",""SUR"",""HO""]","[""AF09"",""BF04"",""AF02"",""WM13""]","[3,6,3,7]","[4,8,2,6]","","",""
"show-reward","20","118236","0.0-20.0","p626789","A37OUZOGQKGMW0","3RZS0FBRWLGDTA9TUPH81F59AWHPC0","3ZQIG0FLQGM2ZCAONUV98LWJ7CUWVM","emotion","match","uniform","","","","","","","","118184.5","120193.19999998808","","","","","","","","","","","","7","","stimuli/stars_7.png","20","","","","","stimuli/WM13_HO.jpg","",""
"explore-choice","21","122460","0.0-21.0","p626789","A37OUZOGQKGMW0","3RZS0FBRWLGDTA9TUPH81F59AWHPC0","3ZQIG0FLQGM2ZCAONUV98LWJ7CUWVM","emotion","match","uniform","","","","","","","3721.5","120194.29999995232","123915.79999995232","[""stimuli/BF04_AO.jpg"",""stimuli/WM13_DO.jpg"",""stimuli/AF02_HO.jpg"",""stimuli/AF09_SUR.jpg""]","stimuli/BF04_AO.jpg","stimuli/WM13_DO.jpg","stimuli/AF02_HO.jpg","stimuli/AF09_SUR.jpg","pos2","stimuli/WM13_DO.jpg","DO","WM13","1","2.5","5","4","stimuli/stars_5.png","22.5","[""AO"",""DO"",""HO"",""SUR""]","[""BF04"",""WM13"",""AF02"",""AF09""]","[6,5,7,1]","[8,4,6,2]","","",""
"show-reward","22","124464","0.0-22.0","p626789","A37OUZOGQKGMW0","3RZS0FBRWLGDTA9TUPH81F59AWHPC0","3ZQIG0FLQGM2ZCAONUV98LWJ7CUWVM","emotion","match","uniform","","","","","","","","124417.89999997616","126421","","","","","","","","","","","","5","","stimuli/stars_5.png","22.5","","","","","stimuli/WM13_DO.jpg","",""
"explore-choice","23","129366","0.0-23.0","p626789","A37OUZOGQKGMW0","3RZS0FBRWLGDTA9TUPH81F59AWHPC0","3ZQIG0FLQGM2ZCAONUV98LWJ7CUWVM","emotion","match","uniform","","","","","","","4389.399999976158","126421.89999997616","130811.29999995232","[""stimuli/BF04_HO.jpg"",""stimuli/AF09_AO.jpg"",""stimuli/AF02_DO.jpg"",""stimuli/WM13_SUR.jpg""]","stimuli/BF04_HO.jpg","stimuli/AF09_AO.jpg","stimuli/AF02_DO.jpg","stimuli/WM13_SUR.jpg","pos3","stimuli/AF02_DO.jpg","DO","AF02","2","3","6","4","stimuli/stars_6.png","25.5","[""HO"",""AO"",""DO"",""SUR""]","[""BF04"",""AF09"",""AF02"",""WM13""]","[8,7,6,1]","[6,8,4,2]","","",""
"show-reward","24","131372","0.0-24.0","p626789","A37OUZOGQKGMW0","3RZS0FBRWLGDTA9TUPH81F59AWHPC0","3ZQIG0FLQGM2ZCAONUV98LWJ7CUWVM","emotion","match","uniform","","","","","","","","131324.69999998808","133329.19999998808","","","","","","","","","","","","6","","stimuli/stars_6.png","25.5","","","","","stimuli/AF02_DO.jpg","",""
"explore-choice","25","134222","0.0-25.0","p626789","A37OUZOGQKGMW0","3RZS0FBRWLGDTA9TUPH81F59AWHPC0","3ZQIG0FLQGM2ZCAONUV98LWJ7CUWVM","emotion","match","uniform","","","","","","","2337","133330.39999997616","135667.39999997616","[""stimuli/WM13_HO.jpg"",""stimuli/AF09_AO.jpg"",""stimuli/AF02_DO.jpg"",""stimuli/BF04_SUR.jpg""]","stimuli/WM13_HO.jpg","stimuli/AF09_AO.jpg","stimuli/AF02_DO.jpg","stimuli/BF04_SUR.jpg","pos2","stimuli/AF09_AO.jpg","AO","AF09","1","4.5","9","8","stimuli/stars_9.png","30","[""HO"",""AO"",""DO"",""SUR""]","[""WM13"",""AF09"",""AF02"",""BF04""]","[6,9,3,2]","[6,8,4,2]","","",""
"show-reward","26","136234","0.0-26.0","p626789","A37OUZOGQKGMW0","3RZS0FBRWLGDTA9TUPH81F59AWHPC0","3ZQIG0FLQGM2ZCAONUV98LWJ7CUWVM","emotion","match","uniform","","","","","","","","136180.69999998808","138190.79999995232","","","","","","","","","","","","9","","stimuli/stars_9.png","30","","","","","stimuli/AF09_AO.jpg","",""
"explore-choice","27","138232","0.0-27.0","p626789","A37OUZOGQKGMW0","3RZS0FBRWLGDTA9TUPH81F59AWHPC0","3ZQIG0FLQGM2ZCAONUV98LWJ7CUWVM","emotion","match","uniform","","","","","","","1495.300000011921","138192.19999998808","139687.5","[""stimuli/WM13_DO.jpg"",""stimuli/AF09_AO.jpg"",""stimuli/BF04_HO.jpg"",""stimuli/AF02_SUR.jpg""]","stimuli/WM13_DO.jpg","stimuli/AF09_AO.jpg","stimuli/BF04_HO.jpg","stimuli/AF02_SUR.jpg","pos1","stimuli/WM13_DO.jpg","DO","WM13","0","3","6","4","stimuli/stars_6.png","33","[""DO"",""AO"",""HO"",""SUR""]","[""WM13"",""AF09"",""BF04"",""AF02""]","[6,9,6,4]","[4,8,6,2]","","",""
"show-reward","28","140248","0.0-28.0","p626789","A37OUZOGQKGMW0","3RZS0FBRWLGDTA9TUPH81F59AWHPC0","3ZQIG0FLQGM2ZCAONUV98LWJ7CUWVM","emotion","match","uniform","","","","","","","","140190","142205.39999997616","","","","","","","","","","","","6","","stimuli/stars_6.png","33","","","","","stimuli/WM13_DO.jpg","",""
"explore-choice","29","141908","0.0-29.0","p626789","A37OUZOGQKGMW0","3RZS0FBRWLGDTA9TUPH81F59AWHPC0","3ZQIG0FLQGM2ZCAONUV98LWJ7CUWVM","emotion","match","uniform","","","","","","","1146.5","142206.69999998808","143353.19999998808","[""stimuli/BF04_HO.jpg"",""stimuli/WM13_DO.jpg"",""stimuli/AF09_SUR.jpg"",""stimuli/AF02_AO.jpg""]","stimuli/BF04_HO.jpg","stimuli/WM13_DO.jpg","stimuli/AF09_SUR.jpg","stimuli/AF02_AO.jpg","pos4","stimuli/AF02_AO.jpg","AO","AF02","3","5","10","8","stimuli/stars_10.png","38","[""HO"",""DO"",""SUR"",""AO""]","[""BF04"",""WM13"",""AF09"",""AF02""]","[7,5,1,10]","[6,4,2,8]","","",""
"show-reward","30","143914","0.0-30.0","p626789","A37OUZOGQKGMW0","3RZS0FBRWLGDTA9TUPH81F59AWHPC0","3ZQIG0FLQGM2ZCAONUV98LWJ7CUWVM","emotion","match","uniform","","","","","","","","143866","145871.5","","","","","","","","","","","","10","","stimuli/stars_10.png","38","","","","","stimuli/AF02_AO.jpg","",""
"explore-choice","31","146740","0.0-31.0","p626789","A37OUZOGQKGMW0","3RZS0FBRWLGDTA9TUPH81F59AWHPC0","3ZQIG0FLQGM2ZCAONUV98LWJ7CUWVM","emotion","match","uniform","","","","","","","2323.399999976158","145872.5","148195.89999997616","[""stimuli/WM13_AO.jpg"",""stimuli/AF09_SUR.jpg"",""stimuli/AF02_HO.jpg"",""stimuli/BF04_DO.jpg""]","stimuli/WM13_AO.jpg","stimuli/AF09_SUR.jpg","stimuli/AF02_HO.jpg","stimuli/BF04_DO.jpg","pos3","stimuli/AF02_HO.jpg","HO","AF02","2","2","4","6","stimuli/stars_4.png","40","[""AO"",""SUR"",""HO"",""DO""]","[""WM13"",""AF09"",""AF02"",""BF04""]","[9,3,4,4]","[8,2,6,4]","","",""
"show-reward","32","148752","0.0-32.0","p626789","A37OUZOGQKGMW0","3RZS0FBRWLGDTA9TUPH81F59AWHPC0","3ZQIG0FLQGM2ZCAONUV98LWJ7CUWVM","emotion","match","uniform","","","","","","","","148698.5","150709.19999998808","","","","","","","","","","","","4","","stimuli/stars_4.png","40","","","","","stimuli/AF02_HO.jpg","",""
"explore-choice","33","152084","0.0-33.0","p626789","A37OUZOGQKGMW0","3RZS0FBRWLGDTA9TUPH81F59AWHPC0","3ZQIG0FLQGM2ZCAONUV98LWJ7CUWVM","emotion","match","uniform","","","","","","","2828.600000023842","150710.59999996424","153539.19999998808","[""stimuli/BF04_AO.jpg"",""stimuli/AF02_HO.jpg"",""stimuli/AF09_DO.jpg"",""stimuli/WM13_SUR.jpg""]","stimuli/BF04_AO.jpg","stimuli/AF02_HO.jpg","stimuli/AF09_DO.jpg","stimuli/WM13_SUR.jpg","pos2","stimuli/AF02_HO.jpg","HO","AF02","1","4","8","6","stimuli/stars_8.png","44","[""AO"",""HO"",""DO"",""SUR""]","[""BF04"",""AF02"",""AF09"",""WM13""]","[9,8,6,2]","[8,6,4,2]","","",""
"show-reward","34","154093","0.0-34.0","p626789","A37OUZOGQKGMW0","3RZS0FBRWLGDTA9TUPH81F59AWHPC0","3ZQIG0FLQGM2ZCAONUV98LWJ7CUWVM","emotion","match","uniform","","","","","","","","154042.19999998808","156049.79999995232","","","","","","","","","","","","8","","stimuli/stars_8.png","44","","","","","stimuli/AF02_HO.jpg","",""
"explore-choice","35","156840","0.0-35.0","p626789","A37OUZOGQKGMW0","3RZS0FBRWLGDTA9TUPH81F59AWHPC0","3ZQIG0FLQGM2ZCAONUV98LWJ7CUWVM","emotion","match","uniform","","","","","","","2239.099999964237","156051","158290.09999996424","[""stimuli/WM13_SUR.jpg"",""stimuli/AF09_AO.jpg"",""stimuli/BF04_DO.jpg"",""stimuli/AF02_HO.jpg""]","stimuli/WM13_SUR.jpg","stimuli/AF09_AO.jpg","stimuli/BF04_DO.jpg","stimuli/AF02_HO.jpg","pos2","stimuli/AF09_AO.jpg","AO","AF09","1","4","8","8","stimuli/stars_8.png","48","[""SUR"",""AO"",""DO"",""HO""]","[""WM13"",""AF09"",""BF04"",""AF02""]","[3,8,2,7]","[2,8,4,6]","","",""
"show-reward","36","158845","0.0-36.0","p626789","A37OUZOGQKGMW0","3RZS0FBRWLGDTA9TUPH81F59AWHPC0","3ZQIG0FLQGM2ZCAONUV98LWJ7CUWVM","emotion","match","uniform","","","","","","","","158797.89999997616","160801.19999998808","","","","","","","","","","","","8","","stimuli/stars_8.png","48","","","","","stimuli/AF09_AO.jpg","",""
"explore-choice","37","161318","0.0-37.0","p626789","A37OUZOGQKGMW0","3RZS0FBRWLGDTA9TUPH81F59AWHPC0","3ZQIG0FLQGM2ZCAONUV98LWJ7CUWVM","emotion","match","uniform","","","","","","","1971.1000000238419","160803.09999996424","162774.19999998808","[""stimuli/WM13_HO.jpg"",""stimuli/AF02_AO.jpg"",""stimuli/BF04_DO.jpg"",""stimuli/AF09_SUR.jpg""]","stimuli/WM13_HO.jpg","stimuli/AF02_AO.jpg","stimuli/BF04_DO.jpg","stimuli/AF09_SUR.jpg","pos3","stimuli/BF04_DO.jpg","DO","BF04","2","1.5","3","4","stimuli/stars_3.png","49.5","[""HO"",""AO"",""DO"",""SUR""]","[""WM13"",""AF02"",""BF04"",""AF09""]","[7,9,3,4]","[6,8,4,2]","","",""
"show-reward","38","163323","0.0-38.0","p626789","A37OUZOGQKGMW0","3RZS0FBRWLGDTA9TUPH81F59AWHPC0","3ZQIG0FLQGM2ZCAONUV98LWJ7CUWVM","emotion","match","uniform","","","","","","","","163276.5","165280","","","","","","","","","","","","3","","stimuli/stars_3.png","49.5","","","","","stimuli/BF04_DO.jpg","",""
"explore-choice","39","164705","0.0-39.0","p626789","A37OUZOGQKGMW0","3RZS0FBRWLGDTA9TUPH81F59AWHPC0","3ZQIG0FLQGM2ZCAONUV98LWJ7CUWVM","emotion","match","uniform","","","","","","","881","165280.89999997616","166161.89999997616","[""stimuli/BF04_SUR.jpg"",""stimuli/WM13_DO.jpg"",""stimuli/AF09_AO.jpg"",""stimuli/AF02_HO.jpg""]","stimuli/BF04_SUR.jpg","stimuli/WM13_DO.jpg","stimuli/AF09_AO.jpg","stimuli/AF02_HO.jpg","pos4","stimuli/AF02_HO.jpg","HO","AF02","3","4","8","6","stimuli/stars_8.png","53.5","[""SUR"",""DO"",""AO"",""HO""]","[""BF04"",""WM13"",""AF09"",""AF02""]","[1,5,6,8]","[2,4,8,6]","","",""
"show-reward","40","166719","0.0-40.0","p626789","A37OUZOGQKGMW0","3RZS0FBRWLGDTA9TUPH81F59AWHPC0","3ZQIG0FLQGM2ZCAONUV98LWJ7CUWVM","emotion","match","uniform","","","","","","","","166663","168676.29999995232","","","","","","","","","","","","8","","stimuli/stars_8.png","53.5","","","","","stimuli/AF02_HO.jpg","",""
"explore-choice","41","170137","0.0-41.0","p626789","A37OUZOGQKGMW0","3RZS0FBRWLGDTA9TUPH81F59AWHPC0","3ZQIG0FLQGM2ZCAONUV98LWJ7CUWVM","emotion","match","uniform","","","","","","","2916","168677.39999997616","171593.39999997616","[""stimuli/WM13_AO.jpg"",""stimuli/BF04_HO.jpg"",""stimuli/AF09_DO.jpg"",""stimuli/AF02_SUR.jpg""]","stimuli/WM13_AO.jpg","stimuli/BF04_HO.jpg","stimuli/AF09_DO.jpg","stimuli/AF02_SUR.jpg","pos3","stimuli/AF09_DO.jpg","DO","AF09","2","1","2","4","stimuli/stars_2.png","54.5","[""AO"",""HO"",""DO"",""SUR""]","[""WM13"",""BF04"",""AF09"",""AF02""]","[8,6,2,4]","[8,6,4,2]","","",""
"show-reward","42","172149","0.0-42.0","p626789","A37OUZOGQKGMW0","3RZS0FBRWLGDTA9TUPH81F59AWHPC0","3ZQIG0FLQGM2ZCAONUV98LWJ7CUWVM","emotion","match","uniform","","","","","","","","172095","174105.79999995232","","","","","","","","","","","","2","","stimuli/stars_2.png","54.5","","","","","stimuli/AF09_DO.jpg","",""
"explore-choice","43","172922","0.0-43.0","p626789","A37OUZOGQKGMW0","3RZS0FBRWLGDTA9TUPH81F59AWHPC0","3ZQIG0FLQGM2ZCAONUV98LWJ7CUWVM","emotion","match","uniform","","","","","","","258.7999999523163","174107","174365.79999995232","[""stimuli/AF02_AO.jpg"",""stimuli/BF04_DO.jpg"",""stimuli/WM13_SUR.jpg"",""stimuli/AF09_HO.jpg""]","stimuli/AF02_AO.jpg","stimuli/BF04_DO.jpg","stimuli/WM13_SUR.jpg","stimuli/AF09_HO.jpg","pos1","stimuli/AF02_AO.jpg","AO","AF02","0","4.5","9","8","stimuli/stars_9.png","59","[""AO"",""DO"",""SUR"",""HO""]","[""AF02"",""BF04"",""WM13"",""AF09""]","[9,2,0,6]","[8,4,2,6]","","",""
"show-reward","44","174929","0.0-44.0","p626789","A37OUZOGQKGMW0","3RZS0FBRWLGDTA9TUPH81F59AWHPC0","3ZQIG0FLQGM2ZCAONUV98LWJ7CUWVM","emotion","match","uniform","","","","","","","","174880","176886","","","","","","","","","","","","9","","stimuli/stars_9.png","59","","","","","stimuli/AF02_AO.jpg","",""
"explore-choice","45","180270","0.0-45.0","p626789","A37OUZOGQKGMW0","3RZS0FBRWLGDTA9TUPH81F59AWHPC0","3ZQIG0FLQGM2ZCAONUV98LWJ7CUWVM","emotion","match","uniform","","","","","","","4838.200000047684","176887.29999995232","181725.5","[""stimuli/WM13_HO.jpg"",""stimuli/AF09_SUR.jpg"",""stimuli/AF02_DO.jpg"",""stimuli/BF04_AO.jpg""]","stimuli/WM13_HO.jpg","stimuli/AF09_SUR.jpg","stimuli/AF02_DO.jpg","stimuli/BF04_AO.jpg","pos2","stimuli/AF09_SUR.jpg","SUR","AF09","1","0","0","2","stimuli/stars_0.png","59","[""HO"",""SUR"",""DO"",""AO""]","[""WM13"",""AF09"",""AF02"",""BF04""]","[5,0,5,8]","[6,2,4,8]","","",""
"show-reward","46","182274","0.0-46.0","p626789","A37OUZOGQKGMW0","3RZS0FBRWLGDTA9TUPH81F59AWHPC0","3ZQIG0FLQGM2ZCAONUV98LWJ7CUWVM","emotion","match","uniform","","","","","","","","182228.5","184231","","","","","","","","","","","","0","","stimuli/stars_0.png","59","","","","","stimuli/AF09_SUR.jpg","",""
"explore-choice","47","183511","0.0-47.0","p626789","A37OUZOGQKGMW0","3RZS0FBRWLGDTA9TUPH81F59AWHPC0","3ZQIG0FLQGM2ZCAONUV98LWJ7CUWVM","emotion","match","uniform","","","","","","","735.5","184232","184967.5","[""stimuli/AF09_AO.jpg"",""stimuli/WM13_HO.jpg"",""stimuli/AF02_SUR.jpg"",""stimuli/BF04_DO.jpg""]","stimuli/AF09_AO.jpg","stimuli/WM13_HO.jpg","stimuli/AF02_SUR.jpg","stimuli/BF04_DO.jpg","pos3","stimuli/AF02_SUR.jpg","SUR","AF02","2","1.5","3","2","stimuli/stars_3.png","60.5","[""AO"",""HO"",""SUR"",""DO""]","[""AF09"",""WM13"",""AF02"",""BF04""]","[6,8,3,2]","[8,6,2,4]","","",""
"show-reward","48","185521","0.0-48.0","p626789","A37OUZOGQKGMW0","3RZS0FBRWLGDTA9TUPH81F59AWHPC0","3ZQIG0FLQGM2ZCAONUV98LWJ7CUWVM","emotion","match","uniform","","","","","","","","185469.09999996424","187478.19999998808","","","","","","","","","","","","3","","stimuli/stars_3.png","60.5","","","","","stimuli/AF02_SUR.jpg","",""
"explore-choice","49","187466","0.0-49.0","p626789","A37OUZOGQKGMW0","3RZS0FBRWLGDTA9TUPH81F59AWHPC0","3ZQIG0FLQGM2ZCAONUV98LWJ7CUWVM","emotion","match","uniform","","","","","","","1442.5","187479.69999998808","188922.19999998808","[""stimuli/WM13_SUR.jpg"",""stimuli/AF09_HO.jpg"",""stimuli/AF02_DO.jpg"",""stimuli/BF04_AO.jpg""]","stimuli/WM13_SUR.jpg","stimuli/AF09_HO.jpg","stimuli/AF02_DO.jpg","stimuli/BF04_AO.jpg","pos1","stimuli/WM13_SUR.jpg","SUR","WM13","0","2","4","2","stimuli/stars_4.png","62.5","[""SUR"",""HO"",""DO"",""AO""]","[""WM13"",""AF09"",""AF02"",""BF04""]","[4,6,6,7]","[2,6,4,8]","","",""
"show-reward","50","189469","0.0-50.0","p626789","A37OUZOGQKGMW0","3RZS0FBRWLGDTA9TUPH81F59AWHPC0","3ZQIG0FLQGM2ZCAONUV98LWJ7CUWVM","emotion","match","uniform","","","","","","","","189423.79999995232","191426","","","","","","","","","","","","4","","stimuli/stars_4.png","62.5","","","","","stimuli/WM13_SUR.jpg","",""
"explore-choice","51","190681","0.0-51.0","p626789","A37OUZOGQKGMW0","3RZS0FBRWLGDTA9TUPH81F59AWHPC0","3ZQIG0FLQGM2ZCAONUV98LWJ7CUWVM","emotion","match","uniform","","","","","","","706.7999999523163","191427","192133.79999995232","[""stimuli/WM13_HO.jpg"",""stimuli/AF09_DO.jpg"",""stimuli/AF02_AO.jpg"",""stimuli/BF04_SUR.jpg""]","stimuli/WM13_HO.jpg","stimuli/AF09_DO.jpg","stimuli/AF02_AO.jpg","stimuli/BF04_SUR.jpg","pos4","stimuli/BF04_SUR.jpg","SUR","BF04","3","1","2","2","stimuli/stars_2.png","63.5","[""HO"",""DO"",""AO"",""SUR""]","[""WM13"",""AF09"",""AF02"",""BF04""]","[6,3,7,2]","[6,4,8,2]","","",""
"show-reward","52","192691","0.0-52.0","p626789","A37OUZOGQKGMW0","3RZS0FBRWLGDTA9TUPH81F59AWHPC0","3ZQIG0FLQGM2ZCAONUV98LWJ7CUWVM","emotion","match","uniform","","","","","","","","192639.79999995232","194648.29999995232","","","","","","","","","","","","2","","stimuli/stars_2.png","63.5","","","","","stimuli/BF04_SUR.jpg","",""
"explore-choice","53","194857","0.0-53.0","p626789","A37OUZOGQKGMW0","3RZS0FBRWLGDTA9TUPH81F59AWHPC0","3ZQIG0FLQGM2ZCAONUV98LWJ7CUWVM","emotion","match","uniform","","","","","","","1663.800000011921","194649.69999998808","196313.5","[""stimuli/AF09_DO.jpg"",""stimuli/BF04_SUR.jpg"",""stimuli/AF02_HO.jpg"",""stimuli/WM13_AO.jpg""]","stimuli/AF09_DO.jpg","stimuli/BF04_SUR.jpg","stimuli/AF02_HO.jpg","stimuli/WM13_AO.jpg","pos4","stimuli/WM13_AO.jpg","AO","WM13","3","4","8","8","stimuli/stars_8.png","67.5","[""DO"",""SUR"",""HO"",""AO""]","[""AF09"",""BF04"",""AF02"",""WM13""]","[5,0,5,8]","[4,2,6,8]","","",""
"show-reward","54","196869","0.0-54.0","p626789","A37OUZOGQKGMW0","3RZS0FBRWLGDTA9TUPH81F59AWHPC0","3ZQIG0FLQGM2ZCAONUV98LWJ7CUWVM","emotion","match","uniform","","","","","","","","196815.89999997616","198825.79999995232","","","","","","","","","","","","8","","stimuli/stars_8.png","67.5","","","","","stimuli/WM13_AO.jpg","",""
"explore-choice","55","199183","0.0-55.0","p626789","A37OUZOGQKGMW0","3RZS0FBRWLGDTA9TUPH81F59AWHPC0","3ZQIG0FLQGM2ZCAONUV98LWJ7CUWVM","emotion","match","uniform","","","","","","","1812.4000000357628","198827.09999996424","200639.5","[""stimuli/AF02_AO.jpg"",""stimuli/AF09_HO.jpg"",""stimuli/BF04_SUR.jpg"",""stimuli/WM13_DO.jpg""]","stimuli/AF02_AO.jpg","stimuli/AF09_HO.jpg","stimuli/BF04_SUR.jpg","stimuli/WM13_DO.jpg","pos1","stimuli/AF02_AO.jpg","AO","AF02","0","3.5","7","8","stimuli/stars_7.png","71","[""AO"",""HO"",""SUR"",""DO""]","[""AF02"",""AF09"",""BF04"",""WM13""]","[7,8,4,2]","[8,6,2,4]","","",""
"show-reward","56","201191","0.0-56.0","p626789","A37OUZOGQKGMW0","3RZS0FBRWLGDTA9TUPH81F59AWHPC0","3ZQIG0FLQGM2ZCAONUV98LWJ7CUWVM","emotion","match","uniform","","","","","","","","201141.09999996424","203148.5","","","","","","","","","","","","7","","stimuli/stars_7.png","71","","","","","stimuli/AF02_AO.jpg","",""
"explore-choice","57","204468","0.0-57.0","p626789","A37OUZOGQKGMW0","3RZS0FBRWLGDTA9TUPH81F59AWHPC0","3ZQIG0FLQGM2ZCAONUV98LWJ7CUWVM","emotion","match","uniform","","","","","","","2774.199999988079","203149.89999997616","205924.09999996424","[""stimuli/AF09_HO.jpg"",""stimuli/BF04_DO.jpg"",""stimuli/WM13_SUR.jpg"",""stimuli/AF02_AO.jpg""]","stimuli/AF09_HO.jpg","stimuli/BF04_DO.jpg","stimuli/WM13_SUR.jpg","stimuli/AF02_AO.jpg","pos4","stimuli/AF02_AO.jpg","AO","AF02","3","4.5","9","8","stimuli/stars_9.png","75.5","[""HO"",""DO"",""SUR"",""AO""]","[""AF09"",""BF04"",""WM13"",""AF02""]","[6,2,0,9]","[6,4,2,8]","","",""
"show-reward","58","206473","0.0-58.0","p626789","A37OUZOGQKGMW0","3RZS0FBRWLGDTA9TUPH81F59AWHPC0","3ZQIG0FLQGM2ZCAONUV98LWJ7CUWVM","emotion","match","uniform","","","","","","","","206426.69999998808","208429.79999995232","","","","","","","","","","","","9","","stimuli/stars_9.png","75.5","","","","","stimuli/AF02_AO.jpg","",""
"explore-choice","59","209363","0.0-59.0","p626789","A37OUZOGQKGMW0","3RZS0FBRWLGDTA9TUPH81F59AWHPC0","3ZQIG0FLQGM2ZCAONUV98LWJ7CUWVM","emotion","match","uniform","","","","","","","2388.5","208430.79999995232","210819.29999995232","[""stimuli/AF02_AO.jpg"",""stimuli/WM13_DO.jpg"",""stimuli/AF09_SUR.jpg"",""stimuli/BF04_HO.jpg""]","stimuli/AF02_AO.jpg","stimuli/WM13_DO.jpg","stimuli/AF09_SUR.jpg","stimuli/BF04_HO.jpg","pos2","stimuli/WM13_DO.jpg","DO","WM13","1","2.5","5","4","stimuli/stars_5.png","78","[""AO"",""DO"",""SUR"",""HO""]","[""AF02"",""WM13"",""AF09"",""BF04""]","[10,5,1,7]","[8,4,2,6]","","",""
"show-reward","60","211371","0.0-60.0","p626789","A37OUZOGQKGMW0","3RZS0FBRWLGDTA9TUPH81F59AWHPC0","3ZQIG0FLQGM2ZCAONUV98LWJ7CUWVM","emotion","match","uniform","","","","","","","","211321.39999997616","213328.69999998808","","","","","","","","","","","","5","","stimuli/stars_5.png","78","","","","","stimuli/WM13_DO.jpg","",""
"explore-choice","61","214205","0.0-61.0","p626789","A37OUZOGQKGMW0","3RZS0FBRWLGDTA9TUPH81F59AWHPC0","3ZQIG0FLQGM2ZCAONUV98LWJ7CUWVM","emotion","match","uniform","","","","","","","2331.7999999523163","213330","215661.79999995232","[""stimuli/AF09_DO.jpg"",""stimuli/BF04_SUR.jpg"",""stimuli/WM13_AO.jpg"",""stimuli/AF02_HO.jpg""]","stimuli/AF09_DO.jpg","stimuli/BF04_SUR.jpg","stimuli/WM13_AO.jpg","stimuli/AF02_HO.jpg","pos1","stimuli/AF09_DO.jpg","DO","AF09","0","2.5","5","4","stimuli/stars_5.png","80.5","[""DO"",""SUR"",""AO"",""HO""]","[""AF09"",""BF04"",""WM13"",""AF02""]","[5,0,8,5]","[4,2,8,6]","","",""
"show-reward","62","216220","0.0-62.0","p626789","A37OUZOGQKGMW0","3RZS0FBRWLGDTA9TUPH81F59AWHPC0","3ZQIG0FLQGM2ZCAONUV98LWJ7CUWVM","emotion","match","uniform","","","","","","","","216163","218177.39999997616","","","","","","","","","","","","5","","stimuli/stars_5.png","80.5","","","","","stimuli/AF09_DO.jpg","",""
"explore-choice","63","219599","0.0-63.0","p626789","A37OUZOGQKGMW0","3RZS0FBRWLGDTA9TUPH81F59AWHPC0","3ZQIG0FLQGM2ZCAONUV98LWJ7CUWVM","emotion","match","uniform","","","","","","","2876.100000023842","218178.59999996424","221054.69999998808","[""stimuli/WM13_DO.jpg"",""stimuli/AF02_SUR.jpg"",""stimuli/BF04_AO.jpg"",""stimuli/AF09_HO.jpg""]","stimuli/WM13_DO.jpg","stimuli/AF02_SUR.jpg","stimuli/BF04_AO.jpg","stimuli/AF09_HO.jpg","pos2","stimuli/AF02_SUR.jpg","SUR","AF02","1","0.5","1","2","stimuli/stars_1.png","81","[""DO"",""SUR"",""AO"",""HO""]","[""WM13"",""AF02"",""BF04"",""AF09""]","[6,1,10,4]","[4,2,8,6]","","",""
"show-reward","64","221602","0.0-64.0","p626789","A37OUZOGQKGMW0","3RZS0FBRWLGDTA9TUPH81F59AWHPC0","3ZQIG0FLQGM2ZCAONUV98LWJ7CUWVM","emotion","match","uniform","","","","","","","","221557.29999995232","223559.09999996424","","","","","","","","","","","","1","","stimuli/stars_1.png","81","","","","","stimuli/AF02_SUR.jpg","",""
"explore-choice","65","223350","0.0-65.0","p626789","A37OUZOGQKGMW0","3RZS0FBRWLGDTA9TUPH81F59AWHPC0","3ZQIG0FLQGM2ZCAONUV98LWJ7CUWVM","emotion","match","uniform","","","","","","","1246","223559.89999997616","224805.89999997616","[""stimuli/BF04_SUR.jpg"",""stimuli/AF02_AO.jpg"",""stimuli/AF09_DO.jpg"",""stimuli/WM13_HO.jpg""]","stimuli/BF04_SUR.jpg","stimuli/AF02_AO.jpg","stimuli/AF09_DO.jpg","stimuli/WM13_HO.jpg","pos1","stimuli/BF04_SUR.jpg","SUR","BF04","0","1","2","2","stimuli/stars_2.png","82","[""SUR"",""AO"",""DO"",""HO""]","[""BF04"",""AF02"",""AF09"",""WM13""]","[2,7,3,6]","[2,8,4,6]","","",""
"show-reward","66","225353","0.0-66.0","p626789","A37OUZOGQKGMW0","3RZS0FBRWLGDTA9TUPH81F59AWHPC0","3ZQIG0FLQGM2ZCAONUV98LWJ7CUWVM","emotion","match","uniform","","","","","","","","225308","227310","","","","","","","","","","","","2","","stimuli/stars_2.png","82","","","","","stimuli/BF04_SUR.jpg","",""
"explore-choice","67","228049","0.0-67.0","p626789","A37OUZOGQKGMW0","3RZS0FBRWLGDTA9TUPH81F59AWHPC0","3ZQIG0FLQGM2ZCAONUV98LWJ7CUWVM","emotion","match","uniform","","","","","","","2193","227311","229504","[""stimuli/WM13_DO.jpg"",""stimuli/AF02_HO.jpg"",""stimuli/BF04_SUR.jpg"",""stimuli/AF09_AO.jpg""]","stimuli/WM13_DO.jpg","stimuli/AF02_HO.jpg","stimuli/BF04_SUR.jpg","stimuli/AF09_AO.jpg","pos4","stimuli/AF09_AO.jpg","AO","AF09","3","3","6","8","stimuli/stars_6.png","85","[""DO"",""HO"",""SUR"",""AO""]","[""WM13"",""AF02"",""BF04"",""AF09""]","[5,8,1,6]","[4,6,2,8]","","",""
"show-reward","68","230065","0.0-68.0","p626789","A37OUZOGQKGMW0","3RZS0FBRWLGDTA9TUPH81F59AWHPC0","3ZQIG0FLQGM2ZCAONUV98LWJ7CUWVM","emotion","match","uniform","","","","","","","","230007","232022.39999997616","","","","","","","","","","","","6","","stimuli/stars_6.png","85","","","","","stimuli/AF09_AO.jpg","",""
"explore-choice","69","232065","0.0-69.0","p626789","A37OUZOGQKGMW0","3RZS0FBRWLGDTA9TUPH81F59AWHPC0","3ZQIG0FLQGM2ZCAONUV98LWJ7CUWVM","emotion","match","uniform","","","","","","","1492","232023.69999998808","233515.69999998808","[""stimuli/WM13_SUR.jpg"",""stimuli/AF02_DO.jpg"",""stimuli/BF04_HO.jpg"",""stimuli/AF09_AO.jpg""]","stimuli/WM13_SUR.jpg","stimuli/AF02_DO.jpg","stimuli/BF04_HO.jpg","stimuli/AF09_AO.jpg","pos1","stimuli/WM13_SUR.jpg","SUR","WM13","0","0.5","1","2","stimuli/stars_1.png","85.5","[""SUR"",""DO"",""HO"",""AO""]","[""WM13"",""AF02"",""BF04"",""AF09""]","[1,6,8,7]","[2,4,6,8]","","",""
"show-reward","70","234075","0.0-70.0","p626789","A37OUZOGQKGMW0","3RZS0FBRWLGDTA9TUPH81F59AWHPC0","3ZQIG0FLQGM2ZCAONUV98LWJ7CUWVM","emotion","match","uniform","","","","","","","","234023.59999996424","236032.59999996424","","","","","","","","","","","","1","","stimuli/stars_1.png","85.5","","","","","stimuli/WM13_SUR.jpg","",""
"explore-choice","71","236261","0.0-71.0","p626789","A37OUZOGQKGMW0","3RZS0FBRWLGDTA9TUPH81F59AWHPC0","3ZQIG0FLQGM2ZCAONUV98LWJ7CUWVM","emotion","match","uniform","","","","","","","1669.6000000238419","236033.89999997616","237703.5","[""stimuli/WM13_AO.jpg"",""stimuli/AF02_SUR.jpg"",""stimuli/BF04_HO.jpg"",""stimuli/AF09_DO.jpg""]","stimuli/WM13_AO.jpg","stimuli/AF02_SUR.jpg","stimuli/BF04_HO.jpg","stimuli/AF09_DO.jpg","pos4","stimuli/AF09_DO.jpg","DO","AF09","3","1","2","4","stimuli/stars_2.png","86.5","[""AO"",""SUR"",""HO"",""DO""]","[""WM13"",""AF02"",""BF04"",""AF09""]","[8,4,6,2]","[8,2,6,4]","","",""
"show-reward","72","238276","0.0-72.0","p626789","A37OUZOGQKGMW0","3RZS0FBRWLGDTA9TUPH81F59AWHPC0","3ZQIG0FLQGM2ZCAONUV98LWJ7CUWVM","emotion","match","uniform","","","","","","","","238219.59999996424","240233.69999998808","","","","","","","","","","","","2","","stimuli/stars_2.png","86.5","","","","","stimuli/AF09_DO.jpg","",""
"explore-choice","73","240468","0.0-73.0","p626789","A37OUZOGQKGMW0","3RZS0FBRWLGDTA9TUPH81F59AWHPC0","3ZQIG0FLQGM2ZCAONUV98LWJ7CUWVM","emotion","match","uniform","","","","","","","1677.199999988079","240235","241912.19999998808","[""stimuli/AF09_HO.jpg"",""stimuli/BF04_SUR.jpg"",""stimuli/AF02_DO.jpg"",""stimuli/WM13_AO.jpg""]","stimuli/AF09_HO.jpg","stimuli/BF04_SUR.jpg","stimuli/AF02_DO.jpg","stimuli/WM13_AO.jpg","pos2","stimuli/BF04_SUR.jpg","SUR","BF04","1","1.5","3","2","stimuli/stars_3.png","88","[""HO"",""SUR"",""DO"",""AO""]","[""AF09"",""BF04"",""AF02"",""WM13""]","[8,3,5,10]","[6,2,4,8]","","",""
"show-reward","74","242484","0.0-74.0","p626789","A37OUZOGQKGMW0","3RZS0FBRWLGDTA9TUPH81F59AWHPC0","3ZQIG0FLQGM2ZCAONUV98LWJ7CUWVM","emotion","match","uniform","","","","","","","","242425.89999997616","244441.29999995232","","","","","","","","","","","","3","","stimuli/stars_3.png","88","","","","","stimuli/BF04_SUR.jpg","",""
"explore-choice","75","245707","0.0-75.0","p626789","A37OUZOGQKGMW0","3RZS0FBRWLGDTA9TUPH81F59AWHPC0","3ZQIG0FLQGM2ZCAONUV98LWJ7CUWVM","emotion","match","uniform","","","","","","","2721.300000011921","244442.69999998808","247164","[""stimuli/WM13_AO.jpg"",""stimuli/AF09_SUR.jpg"",""stimuli/BF04_DO.jpg"",""stimuli/AF02_HO.jpg""]","stimuli/WM13_AO.jpg","stimuli/AF09_SUR.jpg","stimuli/BF04_DO.jpg","stimuli/AF02_HO.jpg","pos1","stimuli/WM13_AO.jpg","AO","WM13","0","4.5","9","8","stimuli/stars_9.png","92.5","[""AO"",""SUR"",""DO"",""HO""]","[""WM13"",""AF09"",""BF04"",""AF02""]","[9,3,4,4]","[8,2,4,6]","","",""
"show-reward","76","247722","0.0-76.0","p626789","A37OUZOGQKGMW0","3RZS0FBRWLGDTA9TUPH81F59AWHPC0","3ZQIG0FLQGM2ZCAONUV98LWJ7CUWVM","emotion","match","uniform","","","","","","","","247665.19999998808","249679.69999998808","","","","","","","","","","","","9","","stimuli/stars_9.png","92.5","","","","","stimuli/WM13_AO.jpg","",""
"explore-choice","77","251133","0.0-77.0","p626789","A37OUZOGQKGMW0","3RZS0FBRWLGDTA9TUPH81F59AWHPC0","3ZQIG0FLQGM2ZCAONUV98LWJ7CUWVM","emotion","match","uniform","","","","","","","2894.400000035763","249681.09999996424","252575.5","[""stimuli/AF02_DO.jpg"",""stimuli/BF04_HO.jpg"",""stimuli/AF09_SUR.jpg"",""stimuli/WM13_AO.jpg""]","stimuli/AF02_DO.jpg","stimuli/BF04_HO.jpg","stimuli/AF09_SUR.jpg","stimuli/WM13_AO.jpg","pos4","stimuli/WM13_AO.jpg","AO","WM13","3","4.5","9","8","stimuli/stars_9.png","97","[""DO"",""HO"",""SUR"",""AO""]","[""AF02"",""BF04"",""AF09"",""WM13""]","[5,8,1,9]","[4,6,2,8]","","",""
"show-reward","78","253137","0.0-78.0","p626789","A37OUZOGQKGMW0","3RZS0FBRWLGDTA9TUPH81F59AWHPC0","3ZQIG0FLQGM2ZCAONUV98LWJ7CUWVM","emotion","match","uniform","","","","","","","","253091.19999998808","255094.19999998808","","","","","","","","","","","","9","","stimuli/stars_9.png","97","","","","","stimuli/WM13_AO.jpg","",""
"explore-choice","79","258115","0.0-79.0","p626789","A37OUZOGQKGMW0","3RZS0FBRWLGDTA9TUPH81F59AWHPC0","3ZQIG0FLQGM2ZCAONUV98LWJ7CUWVM","emotion","match","uniform","","","","","","","4472.199999988079","255095.19999998808","259567.39999997616","[""stimuli/BF04_AO.jpg"",""stimuli/WM13_SUR.jpg"",""stimuli/AF02_DO.jpg"",""stimuli/AF09_HO.jpg""]","stimuli/BF04_AO.jpg","stimuli/WM13_SUR.jpg","stimuli/AF02_DO.jpg","stimuli/AF09_HO.jpg","pos3","stimuli/AF02_DO.jpg","DO","AF02","2","3","6","4","stimuli/stars_6.png","100","[""AO"",""SUR"",""DO"",""HO""]","[""BF04"",""WM13"",""AF02"",""AF09""]","[7,4,6,6]","[8,2,4,6]","","",""
"show-reward","80","260123","0.0-80.0","p626789","A37OUZOGQKGMW0","3RZS0FBRWLGDTA9TUPH81F59AWHPC0","3ZQIG0FLQGM2ZCAONUV98LWJ7CUWVM","emotion","match","uniform","","","","","","","","260073.69999998808","262080","","","","","","","","","","","","6","","stimuli/stars_6.png","100","","","","","stimuli/AF02_DO.jpg","",""
"explore-choice","81","265794","0.0-81.0","p626789","A37OUZOGQKGMW0","3RZS0FBRWLGDTA9TUPH81F59AWHPC0","3ZQIG0FLQGM2ZCAONUV98LWJ7CUWVM","emotion","match","uniform","","","","","","","5169.099999964237","262081.5","267250.59999996424","[""stimuli/AF09_AO.jpg"",""stimuli/WM13_SUR.jpg"",""stimuli/BF04_DO.jpg"",""stimuli/AF02_HO.jpg""]","stimuli/AF09_AO.jpg","stimuli/WM13_SUR.jpg","stimuli/BF04_DO.jpg","stimuli/AF02_HO.jpg","pos1","stimuli/AF09_AO.jpg","AO","AF09","0","4","8","8","stimuli/stars_8.png","104","[""AO"",""SUR"",""DO"",""HO""]","[""AF09"",""WM13"",""BF04"",""AF02""]","[8,3,2,7]","[8,2,4,6]","","",""
"show-reward","82","267799","0.0-82.0","p626789","A37OUZOGQKGMW0","3RZS0FBRWLGDTA9TUPH81F59AWHPC0","3ZQIG0FLQGM2ZCAONUV98LWJ7CUWVM","emotion","match","uniform","","","","","","","","267752.59999996424","269756.59999996424","","","","","","","","","","","","8","","stimuli/stars_8.png","104","","","","","stimuli/AF09_AO.jpg","",""
"explore-choice","83","270297","0.0-83.0","p626789","A37OUZOGQKGMW0","3RZS0FBRWLGDTA9TUPH81F59AWHPC0","3ZQIG0FLQGM2ZCAONUV98LWJ7CUWVM","emotion","match","uniform","","","","","","","1995.7999999523163","269758","271753.7999999523","[""stimuli/AF09_AO.jpg"",""stimuli/WM13_HO.jpg"",""stimuli/AF02_SUR.jpg"",""stimuli/BF04_DO.jpg""]","stimuli/AF09_AO.jpg","stimuli/WM13_HO.jpg","stimuli/AF02_SUR.jpg","stimuli/BF04_DO.jpg","pos4","stimuli/BF04_DO.jpg","DO","BF04","3","1","2","4","stimuli/stars_2.png","105","[""AO"",""HO"",""SUR"",""DO""]","[""AF09"",""WM13"",""AF02"",""BF04""]","[6,8,3,2]","[8,6,2,4]","","",""
"show-reward","84","272308","0.0-84.0","p626789","A37OUZOGQKGMW0","3RZS0FBRWLGDTA9TUPH81F59AWHPC0","3ZQIG0FLQGM2ZCAONUV98LWJ7CUWVM","emotion","match","uniform","","","","","","","","272255.5","274265.2999999523","","","","","","","","","","","","2","","stimuli/stars_2.png","105","","","","","stimuli/BF04_DO.jpg","",""
"explore-choice","85","274980","0.0-85.0","p626789","A37OUZOGQKGMW0","3RZS0FBRWLGDTA9TUPH81F59AWHPC0","3ZQIG0FLQGM2ZCAONUV98LWJ7CUWVM","emotion","match","uniform","","","","","","","2161.099999964237","274266.5","276427.59999996424","[""stimuli/AF02_SUR.jpg"",""stimuli/BF04_DO.jpg"",""stimuli/AF09_HO.jpg"",""stimuli/WM13_AO.jpg""]","stimuli/AF02_SUR.jpg","stimuli/BF04_DO.jpg","stimuli/AF09_HO.jpg","stimuli/WM13_AO.jpg","pos4","stimuli/WM13_AO.jpg","AO","WM13","3","4","8","8","stimuli/stars_8.png","109","[""SUR"",""DO"",""HO"",""AO""]","[""AF02"",""BF04"",""AF09"",""WM13""]","[2,3,5,8]","[2,4,6,8]","","",""
"show-reward","86","276992","0.0-86.0","p626789","A37OUZOGQKGMW0","3RZS0FBRWLGDTA9TUPH81F59AWHPC0","3ZQIG0FLQGM2ZCAONUV98LWJ7CUWVM","emotion","match","uniform","","","","","","","","276937.89999997616","278949.5","","","","","","","","","","","","8","","stimuli/stars_8.png","109","","","","","stimuli/WM13_AO.jpg","",""
"explore-choice","87","287475","0.0-87.0","p626789","A37OUZOGQKGMW0","3RZS0FBRWLGDTA9TUPH81F59AWHPC0","3ZQIG0FLQGM2ZCAONUV98LWJ7CUWVM","emotion","match","uniform","","","","","","","9979.399999976158","278950.6999999881","288930.09999996424","[""stimuli/AF09_DO.jpg"",""stimuli/WM13_HO.jpg"",""stimuli/BF04_AO.jpg"",""stimuli/AF02_SUR.jpg""]","stimuli/AF09_DO.jpg","stimuli/WM13_HO.jpg","stimuli/BF04_AO.jpg","stimuli/AF02_SUR.jpg","pos1","stimuli/AF09_DO.jpg","DO","AF09","0","1.5","3","4","stimuli/stars_3.png","110.5","[""DO"",""HO"",""AO"",""SUR""]","[""AF09"",""WM13"",""BF04"",""AF02""]","[3,7,6,3]","[4,6,8,2]","","",""
"show-reward","88","289479","0.0-88.0","p626789","A37OUZOGQKGMW0","3RZS0FBRWLGDTA9TUPH81F59AWHPC0","3ZQIG0FLQGM2ZCAONUV98LWJ7CUWVM","emotion","match","uniform","","","","","","","","289433.6999999881","291436.5","","","","","","","","","","","","3","","stimuli/stars_3.png","110.5","","","","","stimuli/AF09_DO.jpg","",""
"explore-choice","89","292612","0.0-89.0","p626789","A37OUZOGQKGMW0","3RZS0FBRWLGDTA9TUPH81F59AWHPC0","3ZQIG0FLQGM2ZCAONUV98LWJ7CUWVM","emotion","match","uniform","","","","","","","2616.100000023842","291437.7999999523","294053.89999997616","[""stimuli/AF09_DO.jpg"",""stimuli/WM13_SUR.jpg"",""stimuli/BF04_AO.jpg"",""stimuli/AF02_HO.jpg""]","stimuli/AF09_DO.jpg","stimuli/WM13_SUR.jpg","stimuli/BF04_AO.jpg","stimuli/AF02_HO.jpg","pos4","stimuli/AF02_HO.jpg","HO","AF02","3","4","8","6","stimuli/stars_8.png","114.5","[""DO"",""SUR"",""AO"",""HO""]","[""AF09"",""WM13"",""BF04"",""AF02""]","[6,2,9,8]","[4,2,8,6]","","",""
"show-reward","90","294622","0.0-90.0","p626789","A37OUZOGQKGMW0","3RZS0FBRWLGDTA9TUPH81F59AWHPC0","3ZQIG0FLQGM2ZCAONUV98LWJ7CUWVM","emotion","match","uniform","","","","","","","","294570.2999999523","296579.59999996424","","","","","","","","","","","","8","","stimuli/stars_8.png","114.5","","","","","stimuli/AF02_HO.jpg","",""
"explore-choice","91","297847","0.0-91.0","p626789","A37OUZOGQKGMW0","3RZS0FBRWLGDTA9TUPH81F59AWHPC0","3ZQIG0FLQGM2ZCAONUV98LWJ7CUWVM","emotion","match","uniform","","","","","","","2721","296580.89999997616","299301.89999997616","[""stimuli/BF04_DO.jpg"",""stimuli/AF09_SUR.jpg"",""stimuli/WM13_HO.jpg"",""stimuli/AF02_AO.jpg""]","stimuli/BF04_DO.jpg","stimuli/AF09_SUR.jpg","stimuli/WM13_HO.jpg","stimuli/AF02_AO.jpg","pos2","stimuli/AF09_SUR.jpg","SUR","AF09","1","2","4","2","stimuli/stars_4.png","116.5","[""DO"",""SUR"",""HO"",""AO""]","[""BF04"",""AF09"",""WM13"",""AF02""]","[3,4,7,9]","[4,2,6,8]","","",""
"show-reward","92","299851","0.0-92.0","p626789","A37OUZOGQKGMW0","3RZS0FBRWLGDTA9TUPH81F59AWHPC0","3ZQIG0FLQGM2ZCAONUV98LWJ7CUWVM","emotion","match","uniform","","","","","","","","299805.59999996424","301808.2999999523","","","","","","","","","","","","4","","stimuli/stars_4.png","116.5","","","","","stimuli/AF09_SUR.jpg","",""
"explore-choice","93","301748","0.0-93.0","p626789","A37OUZOGQKGMW0","3RZS0FBRWLGDTA9TUPH81F59AWHPC0","3ZQIG0FLQGM2ZCAONUV98LWJ7CUWVM","emotion","match","uniform","","","","","","","1392.199999988079","301809.6999999881","303201.89999997616","[""stimuli/AF09_AO.jpg"",""stimuli/WM13_HO.jpg"",""stimuli/AF02_DO.jpg"",""stimuli/BF04_SUR.jpg""]","stimuli/AF09_AO.jpg","stimuli/WM13_HO.jpg","stimuli/AF02_DO.jpg","stimuli/BF04_SUR.jpg","pos3","stimuli/AF02_DO.jpg","DO","AF02","2","1.5","3","4","stimuli/stars_3.png","118","[""AO"",""HO"",""DO"",""SUR""]","[""AF09"",""WM13"",""AF02"",""BF04""]","[9,6,3,2]","[8,6,4,2]","","",""
"show-reward","94","303755","0.0-94.0","p626789","A37OUZOGQKGMW0","3RZS0FBRWLGDTA9TUPH81F59AWHPC0","3ZQIG0FLQGM2ZCAONUV98LWJ7CUWVM","emotion","match","uniform","","","","","","","","303707.1999999881","305713.1999999881","","","","","","","","","","","","3","","stimuli/stars_3.png","118","","","","","stimuli/AF02_DO.jpg","",""
"explore-choice","95","306410","0.0-95.0","p626789","A37OUZOGQKGMW0","3RZS0FBRWLGDTA9TUPH81F59AWHPC0","3ZQIG0FLQGM2ZCAONUV98LWJ7CUWVM","emotion","match","uniform","","","","","","","2151.599999964237","305714.5","307866.09999996424","[""stimuli/AF02_DO.jpg"",""stimuli/WM13_HO.jpg"",""stimuli/BF04_AO.jpg"",""stimuli/AF09_SUR.jpg""]","stimuli/AF02_DO.jpg","stimuli/WM13_HO.jpg","stimuli/BF04_AO.jpg","stimuli/AF09_SUR.jpg","pos1","stimuli/AF02_DO.jpg","DO","AF02","0","2.5","5","4","stimuli/stars_5.png","120.5","[""DO"",""HO"",""AO"",""SUR""]","[""AF02"",""WM13"",""BF04"",""AF09""]","[5,5,8,0]","[4,6,8,2]","","",""
"show-reward","96","308415","0.0-96.0","p626789","A37OUZOGQKGMW0","3RZS0FBRWLGDTA9TUPH81F59AWHPC0","3ZQIG0FLQGM2ZCAONUV98LWJ7CUWVM","emotion","match","uniform","","","","","","","","308368.6999999881","310372.6999999881","","","","","","","","","","","","5","","stimuli/stars_5.png","120.5","","","","","stimuli/AF02_DO.jpg","",""
"explore-choice","97","315348","0.0-97.0","p626789","A37OUZOGQKGMW0","3RZS0FBRWLGDTA9TUPH81F59AWHPC0","3ZQIG0FLQGM2ZCAONUV98LWJ7CUWVM","emotion","match","uniform","","","","","","","6422.300000011921","310373.7999999523","316796.09999996424","[""stimuli/AF02_AO.jpg"",""stimuli/AF09_DO.jpg"",""stimuli/BF04_HO.jpg"",""stimuli/WM13_SUR.jpg""]","stimuli/AF02_AO.jpg","stimuli/AF09_DO.jpg","stimuli/BF04_HO.jpg","stimuli/WM13_SUR.jpg","pos3","stimuli/BF04_HO.jpg","HO","BF04","2","3.5","7","6","stimuli/stars_7.png","124","[""AO"",""DO"",""HO"",""SUR""]","[""AF02"",""AF09"",""BF04"",""WM13""]","[7,5,7,3]","[8,4,6,2]","","",""
"show-reward","98","317354","0.0-98.0","p626789","A37OUZOGQKGMW0","3RZS0FBRWLGDTA9TUPH81F59AWHPC0","3ZQIG0FLQGM2ZCAONUV98LWJ7CUWVM","emotion","match","uniform","","","","","","","","317306.6999999881","319311.89999997616","","","","","","","","","","","","7","","stimuli/stars_7.png","124","","","","","stimuli/BF04_HO.jpg","",""
"explore-choice","99","319646","0.0-99.0","p626789","A37OUZOGQKGMW0","3RZS0FBRWLGDTA9TUPH81F59AWHPC0","3ZQIG0FLQGM2ZCAONUV98LWJ7CUWVM","emotion","match","uniform","","","","","","","1774.6000000238419","319313.39999997616","321088","[""stimuli/AF02_HO.jpg"",""stimuli/BF04_AO.jpg"",""stimuli/AF09_SUR.jpg"",""stimuli/WM13_DO.jpg""]","stimuli/AF02_HO.jpg","stimuli/BF04_AO.jpg","stimuli/AF09_SUR.jpg","stimuli/WM13_DO.jpg","pos4","stimuli/WM13_DO.jpg","DO","WM13","3","2.5","5","4","stimuli/stars_5.png","126.5","[""HO"",""AO"",""SUR"",""DO""]","[""AF02"",""BF04"",""AF09"",""WM13""]","[7,6,1,5]","[6,8,2,4]","","",""
"show-reward","100","321657","0.0-100.0","p626789","A37OUZOGQKGMW0","3RZS0FBRWLGDTA9TUPH81F59AWHPC0","3ZQIG0FLQGM2ZCAONUV98LWJ7CUWVM","emotion","match","uniform","","","","","","","","321605.2999999523","323614.5","","","","","","","","","","","","5","","stimuli/stars_5.png","126.5","","","","","stimuli/WM13_DO.jpg","",""
"explore-choice","101","325447","0.0-101.0","p626789","A37OUZOGQKGMW0","3RZS0FBRWLGDTA9TUPH81F59AWHPC0","3ZQIG0FLQGM2ZCAONUV98LWJ7CUWVM","emotion","match","uniform","","","","","","","3282.100000023842","323615.89999997616","326898","[""stimuli/AF09_AO.jpg"",""stimuli/BF04_HO.jpg"",""stimuli/WM13_DO.jpg"",""stimuli/AF02_SUR.jpg""]","stimuli/AF09_AO.jpg","stimuli/BF04_HO.jpg","stimuli/WM13_DO.jpg","stimuli/AF02_SUR.jpg","pos1","stimuli/AF09_AO.jpg","AO","AF09","0","4.5","9","8","stimuli/stars_9.png","131","[""AO"",""HO"",""DO"",""SUR""]","[""AF09"",""BF04"",""WM13"",""AF02""]","[9,6,6,4]","[8,6,4,2]","","",""
"show-reward","102","327450","0.0-102.0","p626789","A37OUZOGQKGMW0","3RZS0FBRWLGDTA9TUPH81F59AWHPC0","3ZQIG0FLQGM2ZCAONUV98LWJ7CUWVM","emotion","match","uniform","","","","","","","","327405.6999999881","329408","","","","","","","","","","","","9","","stimuli/stars_9.png","131","","","","","stimuli/AF09_AO.jpg","",""
"explore-choice","103","331937","0.0-103.0","p626789","A37OUZOGQKGMW0","3RZS0FBRWLGDTA9TUPH81F59AWHPC0","3ZQIG0FLQGM2ZCAONUV98LWJ7CUWVM","emotion","match","uniform","","","","","","","3984.600000023842","329409.09999996424","333393.6999999881","[""stimuli/WF06_CC.jpg"",""stimuli/WF14_HE.jpg"",""stimuli/BM03_FO.jpg"",""stimuli/BF05_SC.jpg""]","stimuli/WF06_CC.jpg","stimuli/WF14_HE.jpg","stimuli/BM03_FO.jpg","stimuli/BF05_SC.jpg","pos3","stimuli/BM03_FO.jpg","FO","BM03","2","3.5","7","6","stimuli/stars_7.png","134.5","[""CC"",""HE"",""FO"",""SC""]","[""WF06"",""WF14"",""BM03"",""BF05""]","[0,4,7,7]","[2,4,6,8]","","",""
"show-reward","104","333943","0.0-104.0","p626789","A37OUZOGQKGMW0","3RZS0FBRWLGDTA9TUPH81F59AWHPC0","3ZQIG0FLQGM2ZCAONUV98LWJ7CUWVM","emotion","match","uniform","","","","","","","","333896.2999999523","335900.6999999881","","","","","","","","","","","","7","","stimuli/stars_7.png","134.5","","","","","stimuli/BM03_FO.jpg","",""
"explore-choice","105","337193","0.0-105.0","p626789","A37OUZOGQKGMW0","3RZS0FBRWLGDTA9TUPH81F59AWHPC0","3ZQIG0FLQGM2ZCAONUV98LWJ7CUWVM","emotion","match","uniform","","","","","","","2740","335901.89999997616","338641.89999997616","[""stimuli/BM03_CC.jpg"",""stimuli/WF14_FO.jpg"",""stimuli/WF06_HE.jpg"",""stimuli/BF05_SC.jpg""]","stimuli/BM03_CC.jpg","stimuli/WF14_FO.jpg","stimuli/WF06_HE.jpg","stimuli/BF05_SC.jpg","pos4","stimuli/BF05_SC.jpg","SC","BF05","3","3.5","7","8","stimuli/stars_7.png","138","[""CC"",""FO"",""HE"",""SC""]","[""BM03"",""WF14"",""WF06"",""BF05""]","[0,4,3,7]","[2,6,4,8]","","",""
"show-reward","106","339208","0.0-106.0","p626789","A37OUZOGQKGMW0","3RZS0FBRWLGDTA9TUPH81F59AWHPC0","3ZQIG0FLQGM2ZCAONUV98LWJ7CUWVM","emotion","match","uniform","","","","","","","","339152","341165.6999999881","","","","","","","","","","","","7","","stimuli/stars_7.png","138","","","","","stimuli/BF05_SC.jpg","",""
"explore-choice","107","342623","0.0-107.0","p626789","A37OUZOGQKGMW0","3RZS0FBRWLGDTA9TUPH81F59AWHPC0","3ZQIG0FLQGM2ZCAONUV98LWJ7CUWVM","emotion","match","uniform","","","","","","","2911.199999988079","341166.89999997616","344078.09999996424","[""stimuli/BF05_FO.jpg"",""stimuli/WF06_SC.jpg"",""stimuli/BM03_CC.jpg"",""stimuli/WF14_HE.jpg""]","stimuli/BF05_FO.jpg","stimuli/WF06_SC.jpg","stimuli/BM03_CC.jpg","stimuli/WF14_HE.jpg","pos1","stimuli/BF05_FO.jpg","FO","BF05","0","4","8","6","stimuli/stars_8.png","142","[""FO"",""SC"",""CC"",""HE""]","[""BF05"",""WF06"",""BM03"",""WF14""]","[8,9,4,2]","[6,8,2,4]","","",""
"show-reward","108","344627","0.0-108.0","p626789","A37OUZOGQKGMW0","3RZS0FBRWLGDTA9TUPH81F59AWHPC0","3ZQIG0FLQGM2ZCAONUV98LWJ7CUWVM","emotion","match","uniform","","","","","","","","344582","346585","","","","","","","","","","","","8","","stimuli/stars_8.png","142","","","","","stimuli/BF05_FO.jpg","",""
"explore-choice","109","346860","0.0-109.0","p626789","A37OUZOGQKGMW0","3RZS0FBRWLGDTA9TUPH81F59AWHPC0","3ZQIG0FLQGM2ZCAONUV98LWJ7CUWVM","emotion","match","uniform","","","","","","","1731.300000011921","346586.09999996424","348317.39999997616","[""stimuli/BF05_SC.jpg"",""stimuli/WF14_HE.jpg"",""stimuli/BM03_CC.jpg"",""stimuli/WF06_FO.jpg""]","stimuli/BF05_SC.jpg","stimuli/WF14_HE.jpg","stimuli/BM03_CC.jpg","stimuli/WF06_FO.jpg","pos4","stimuli/WF06_FO.jpg","FO","WF06","3","2.5","5","6","stimuli/stars_5.png","144.5","[""SC"",""HE"",""CC"",""FO""]","[""BF05"",""WF14"",""BM03"",""WF06""]","[6,4,1,5]","[8,4,2,6]","","",""
"show-reward","110","348869","0.0-110.0","p626789","A37OUZOGQKGMW0","3RZS0FBRWLGDTA9TUPH81F59AWHPC0","3ZQIG0FLQGM2ZCAONUV98LWJ7CUWVM","emotion","match","uniform","","","","","","","","348818.6999999881","350826.89999997616","","","","","","","","","","","","5","","stimuli/stars_5.png","144.5","","","","","stimuli/WF06_FO.jpg","",""
"explore-choice","111","352884","0.0-111.0","p626789","A37OUZOGQKGMW0","3RZS0FBRWLGDTA9TUPH81F59AWHPC0","3ZQIG0FLQGM2ZCAONUV98LWJ7CUWVM","emotion","match","uniform","","","","","","","3513.800000011921","350828.1999999881","354342","[""stimuli/BM03_FO.jpg"",""stimuli/WF06_SC.jpg"",""stimuli/WF14_CC.jpg"",""stimuli/BF05_HE.jpg""]","stimuli/BM03_FO.jpg","stimuli/WF06_SC.jpg","stimuli/WF14_CC.jpg","stimuli/BF05_HE.jpg","pos1","stimuli/BM03_FO.jpg","FO","BM03","0","3","6","6","stimuli/stars_6.png","147.5","[""FO"",""SC"",""CC"",""HE""]","[""BM03"",""WF06"",""WF14"",""BF05""]","[6,10,4,2]","[6,8,2,4]","","",""
"show-reward","112","354887","0.0-112.0","p626789","A37OUZOGQKGMW0","3RZS0FBRWLGDTA9TUPH81F59AWHPC0","3ZQIG0FLQGM2ZCAONUV98LWJ7CUWVM","emotion","match","uniform","","","","","","","","354843.1999999881","356845","","","","","","","","","","","","6","","stimuli/stars_6.png","147.5","","","","","stimuli/BM03_FO.jpg","",""
"explore-choice","113","356375","0.0-113.0","p626789","A37OUZOGQKGMW0","3RZS0FBRWLGDTA9TUPH81F59AWHPC0","3ZQIG0FLQGM2ZCAONUV98LWJ7CUWVM","emotion","match","uniform","","","","","","","977.8000000119209","356846.2999999523","357824.09999996424","[""stimuli/WF06_FO.jpg"",""stimuli/BM03_CC.jpg"",""stimuli/BF05_HE.jpg"",""stimuli/WF14_SC.jpg""]","stimuli/WF06_FO.jpg","stimuli/BM03_CC.jpg","stimuli/BF05_HE.jpg","stimuli/WF14_SC.jpg","pos2","stimuli/BM03_CC.jpg","CC","BM03","1","1.5","3","2","stimuli/stars_3.png","149","[""FO"",""CC"",""HE"",""SC""]","[""WF06"",""BM03"",""BF05"",""WF14""]","[8,3,2,8]","[6,2,4,8]","","",""
"show-reward","114","358381","0.0-114.0","p626789","A37OUZOGQKGMW0","3RZS0FBRWLGDTA9TUPH81F59AWHPC0","3ZQIG0FLQGM2ZCAONUV98LWJ7CUWVM","emotion","match","uniform","","","","","","","","358333.59999996424","360339","","","","","","","","","","","","3","","stimuli/stars_3.png","149","","","","","stimuli/BM03_CC.jpg","",""
"explore-choice","115","362124","0.0-115.0","p626789","A37OUZOGQKGMW0","3RZS0FBRWLGDTA9TUPH81F59AWHPC0","3ZQIG0FLQGM2ZCAONUV98LWJ7CUWVM","emotion","match","uniform","","","","","","","3231.5","360340.2999999523","363571.7999999523","[""stimuli/BM03_CC.jpg"",""stimuli/WF14_SC.jpg"",""stimuli/BF05_FO.jpg"",""stimuli/WF06_HE.jpg""]","stimuli/BM03_CC.jpg","stimuli/WF14_SC.jpg","stimuli/BF05_FO.jpg","stimuli/WF06_HE.jpg","pos2","stimuli/WF14_SC.jpg","SC","WF14","1","5","10","8","stimuli/stars_10.png","154","[""CC"",""SC"",""FO"",""HE""]","[""BM03"",""WF14"",""BF05"",""WF06""]","[2,10,8,6]","[2,8,6,4]","","",""
"show-reward","116","364128","0.0-116.0","p626789","A37OUZOGQKGMW0","3RZS0FBRWLGDTA9TUPH81F59AWHPC0","3ZQIG0FLQGM2ZCAONUV98LWJ7CUWVM","emotion","match","uniform","","","","","","","","364082.89999997616","366085.5","","","","","","","","","","","","10","","stimuli/stars_10.png","154","","","","","stimuli/WF14_SC.jpg","",""
"explore-choice","117","366092","0.0-117.0","p626789","A37OUZOGQKGMW0","3RZS0FBRWLGDTA9TUPH81F59AWHPC0","3ZQIG0FLQGM2ZCAONUV98LWJ7CUWVM","emotion","match","uniform","","","","","","","1453.5","366086.6999999881","367540.1999999881","[""stimuli/BF05_SC.jpg"",""stimuli/BM03_HE.jpg"",""stimuli/WF06_FO.jpg"",""stimuli/WF14_CC.jpg""]","stimuli/BF05_SC.jpg","stimuli/BM03_HE.jpg","stimuli/WF06_FO.jpg","stimuli/WF14_CC.jpg","pos3","stimuli/WF06_FO.jpg","FO","WF06","2","2","4","6","stimuli/stars_4.png","156","[""SC"",""HE"",""FO"",""CC""]","[""BF05"",""BM03"",""WF06"",""WF14""]","[9,2,4,0]","[8,4,6,2]","","",""
"show-reward","118","368098","0.0-118.0","p626789","A37OUZOGQKGMW0","3RZS0FBRWLGDTA9TUPH81F59AWHPC0","3ZQIG0FLQGM2ZCAONUV98LWJ7CUWVM","emotion","match","uniform","","","","","","","","368050","370055.09999996424","","","","","","","","","","","","4","","stimuli/stars_4.png","156","","","","","stimuli/WF06_FO.jpg","",""
"explore-choice","119","372288","0.0-119.0","p626789","A37OUZOGQKGMW0","3RZS0FBRWLGDTA9TUPH81F59AWHPC0","3ZQIG0FLQGM2ZCAONUV98LWJ7CUWVM","emotion","match","uniform","","","","","","","3687.5","370056.39999997616","373743.89999997616","[""stimuli/WF06_FO.jpg"",""stimuli/BM03_SC.jpg"",""stimuli/WF14_CC.jpg"",""stimuli/BF05_HE.jpg""]","stimuli/WF06_FO.jpg","stimuli/BM03_SC.jpg","stimuli/WF14_CC.jpg","stimuli/BF05_HE.jpg","pos4","stimuli/BF05_HE.jpg","HE","BF05","3","1.5","3","4","stimuli/stars_3.png","157.5","[""FO"",""SC"",""CC"",""HE""]","[""WF06"",""BM03"",""WF14"",""BF05""]","[6,6,4,3]","[6,8,2,4]","","",""
"show-reward","120","374304","0.0-120.0","p626789","A37OUZOGQKGMW0","3RZS0FBRWLGDTA9TUPH81F59AWHPC0","3ZQIG0FLQGM2ZCAONUV98LWJ7CUWVM","emotion","match","uniform","","","","","","","","374247","376261","","","","","","","","","","","","3","","stimuli/stars_3.png","157.5","","","","","stimuli/BF05_HE.jpg","",""
"explore-choice","121","379135","0.0-121.0","p626789","A37OUZOGQKGMW0","3RZS0FBRWLGDTA9TUPH81F59AWHPC0","3ZQIG0FLQGM2ZCAONUV98LWJ7CUWVM","emotion","match","uniform","","","","","","","4326.099999964237","376262.1999999881","380588.2999999523","[""stimuli/BM03_HE.jpg"",""stimuli/WF06_CC.jpg"",""stimuli/WF14_FO.jpg"",""stimuli/BF05_SC.jpg""]","stimuli/BM03_HE.jpg","stimuli/WF06_CC.jpg","stimuli/WF14_FO.jpg","stimuli/BF05_SC.jpg","pos4","stimuli/BF05_SC.jpg","SC","BF05","3","3","6","8","stimuli/stars_6.png","160.5","[""HE"",""CC"",""FO"",""SC""]","[""BM03"",""WF06"",""WF14"",""BF05""]","[3,1,6,6]","[4,2,6,8]","","",""
"show-reward","122","381144","0.0-122.0","p626789","A37OUZOGQKGMW0","3RZS0FBRWLGDTA9TUPH81F59AWHPC0","3ZQIG0FLQGM2ZCAONUV98LWJ7CUWVM","emotion","match","uniform","","","","","","","","381093.1999999881","383101.5","","","","","","","","","","","","6","","stimuli/stars_6.png","160.5","","","","","stimuli/BF05_SC.jpg","",""
"explore-choice","123","383760","0.0-123.0","p626789","A37OUZOGQKGMW0","3RZS0FBRWLGDTA9TUPH81F59AWHPC0","3ZQIG0FLQGM2ZCAONUV98LWJ7CUWVM","emotion","match","uniform","","","","","","","2113.100000023842","383102.7999999523","385215.89999997616","[""stimuli/WF06_FO.jpg"",""stimuli/WF14_HE.jpg"",""stimuli/BF05_CC.jpg"",""stimuli/BM03_SC.jpg""]","stimuli/WF06_FO.jpg","stimuli/WF14_HE.jpg","stimuli/BF05_CC.jpg","stimuli/BM03_SC.jpg","pos1","stimuli/WF06_FO.jpg","FO","WF06","0","2","4","6","stimuli/stars_4.png","162.5","[""FO"",""HE"",""CC"",""SC""]","[""WF06"",""WF14"",""BF05"",""BM03""]","[4,5,3,6]","[6,4,2,8]","","",""
"show-reward","124","385773","0.0-124.0","p626789","A37OUZOGQKGMW0","3RZS0FBRWLGDTA9TUPH81F59AWHPC0","3ZQIG0FLQGM2ZCAONUV98LWJ7CUWVM","emotion","match","uniform","","","","","","","","385718.6999999881","387730.09999996424","","","","","","","","","","","","4","","stimuli/stars_4.png","162.5","","","","","stimuli/WF06_FO.jpg","",""
"explore-choice","125","390085","0.0-125.0","p626789","A37OUZOGQKGMW0","3RZS0FBRWLGDTA9TUPH81F59AWHPC0","3ZQIG0FLQGM2ZCAONUV98LWJ7CUWVM","emotion","match","uniform","","","","","","","3808.5","387731.39999997616","391539.89999997616","[""stimuli/WF14_FO.jpg"",""stimuli/BM03_HE.jpg"",""stimuli/BF05_CC.jpg"",""stimuli/WF06_SC.jpg""]","stimuli/WF14_FO.jpg","stimuli/BM03_HE.jpg","stimuli/BF05_CC.jpg","stimuli/WF06_SC.jpg","pos1","stimuli/WF14_FO.jpg","FO","WF14","0","4","8","6","stimuli/stars_8.png","166.5","[""FO"",""HE"",""CC"",""SC""]","[""WF14"",""BM03"",""BF05"",""WF06""]","[8,3,4,9]","[6,4,2,8]","","",""
"show-reward","126","392093","0.0-126.0","p626789","A37OUZOGQKGMW0","3RZS0FBRWLGDTA9TUPH81F59AWHPC0","3ZQIG0FLQGM2ZCAONUV98LWJ7CUWVM","emotion","match","uniform","","","","","","","","392043.2999999523","394050.1999999881","","","","","","","","","","","","8","","stimuli/stars_8.png","166.5","","","","","stimuli/WF14_FO.jpg","",""
"explore-choice","127","394291","0.0-127.0","p626789","A37OUZOGQKGMW0","3RZS0FBRWLGDTA9TUPH81F59AWHPC0","3ZQIG0FLQGM2ZCAONUV98LWJ7CUWVM","emotion","match","uniform","","","","","","","1692","394051.39999997616","395743.39999997616","[""stimuli/BF05_FO.jpg"",""stimuli/BM03_SC.jpg"",""stimuli/WF14_HE.jpg"",""stimuli/WF06_CC.jpg""]","stimuli/BF05_FO.jpg","stimuli/BM03_SC.jpg","stimuli/WF14_HE.jpg","stimuli/WF06_CC.jpg","pos2","stimuli/BM03_SC.jpg","SC","BM03","1","3","6","8","stimuli/stars_6.png","169.5","[""FO"",""SC"",""HE"",""CC""]","[""BF05"",""BM03"",""WF14"",""WF06""]","[5,6,5,4]","[6,8,4,2]","","",""
"show-reward","128","396297","0.0-128.0","p626789","A37OUZOGQKGMW0","3RZS0FBRWLGDTA9TUPH81F59AWHPC0","3ZQIG0FLQGM2ZCAONUV98LWJ7CUWVM","emotion","match","uniform","","","","","","","","396249.1999999881","398254.1999999881","","","","","","","","","","","","6","","stimuli/stars_6.png","169.5","","","","","stimuli/BM03_SC.jpg","",""
"explore-choice","129","399899","0.0-129.0","p626789","A37OUZOGQKGMW0","3RZS0FBRWLGDTA9TUPH81F59AWHPC0","3ZQIG0FLQGM2ZCAONUV98LWJ7CUWVM","emotion","match","uniform","","","","","","","3100.5","398255.39999997616","401355.89999997616","[""stimuli/BF05_CC.jpg"",""stimuli/BM03_FO.jpg"",""stimuli/WF14_HE.jpg"",""stimuli/WF06_SC.jpg""]","stimuli/BF05_CC.jpg","stimuli/BM03_FO.jpg","stimuli/WF14_HE.jpg","stimuli/WF06_SC.jpg","pos2","stimuli/BM03_FO.jpg","FO","BM03","1","2","4","6","stimuli/stars_4.png","171.5","[""CC"",""FO"",""HE"",""SC""]","[""BF05"",""BM03"",""WF14"",""WF06""]","[1,4,6,8]","[2,6,4,8]","","",""
"show-reward","130","401902","0.0-130.0","p626789","A37OUZOGQKGMW0","3RZS0FBRWLGDTA9TUPH81F59AWHPC0","3ZQIG0FLQGM2ZCAONUV98LWJ7CUWVM","emotion","match","uniform","","","","","","","","401857.1999999881","403859.09999996424","","","","","","","","","","","","4","","stimuli/stars_4.png","171.5","","","","","stimuli/BM03_FO.jpg","",""
"explore-choice","131","404207","0.0-131.0","p626789","A37OUZOGQKGMW0","3RZS0FBRWLGDTA9TUPH81F59AWHPC0","3ZQIG0FLQGM2ZCAONUV98LWJ7CUWVM","emotion","match","uniform","","","","","","","1803.5999999642372","403860.1999999881","405663.7999999523","[""stimuli/BM03_HE.jpg"",""stimuli/BF05_FO.jpg"",""stimuli/WF06_CC.jpg"",""stimuli/WF14_SC.jpg""]","stimuli/BM03_HE.jpg","stimuli/BF05_FO.jpg","stimuli/WF06_CC.jpg","stimuli/WF14_SC.jpg","pos4","stimuli/WF14_SC.jpg","SC","WF14","3","5","10","8","stimuli/stars_10.png","176.5","[""HE"",""FO"",""CC"",""SC""]","[""BM03"",""BF05"",""WF06"",""WF14""]","[4,4,0,10]","[4,6,2,8]","","",""
"show-reward","132","406216","0.0-132.0","p626789","A37OUZOGQKGMW0","3RZS0FBRWLGDTA9TUPH81F59AWHPC0","3ZQIG0FLQGM2ZCAONUV98LWJ7CUWVM","emotion","match","uniform","","","","","","","","406165.5","408173.5","","","","","","","","","","","","10","","stimuli/stars_10.png","176.5","","","","","stimuli/WF14_SC.jpg","",""
"explore-choice","133","410674","0.0-133.0","p626789","A37OUZOGQKGMW0","3RZS0FBRWLGDTA9TUPH81F59AWHPC0","3ZQIG0FLQGM2ZCAONUV98LWJ7CUWVM","emotion","match","uniform","","","","","","","3943.100000023842","408174.59999996424","412117.6999999881","[""stimuli/WF06_FO.jpg"",""stimuli/WF14_SC.jpg"",""stimuli/BF05_CC.jpg"",""stimuli/BM03_HE.jpg""]","stimuli/WF06_FO.jpg","stimuli/WF14_SC.jpg","stimuli/BF05_CC.jpg","stimuli/BM03_HE.jpg","pos2","stimuli/WF14_SC.jpg","SC","WF14","1","3","6","8","stimuli/stars_6.png","179.5","[""FO"",""SC"",""CC"",""HE""]","[""WF06"",""WF14"",""BF05"",""BM03""]","[5,6,4,4]","[6,8,2,4]","","",""
"show-reward","134","412681","0.0-134.0","p626789","A37OUZOGQKGMW0","3RZS0FBRWLGDTA9TUPH81F59AWHPC0","3ZQIG0FLQGM2ZCAONUV98LWJ7CUWVM","emotion","match","uniform","","","","","","","","412632.09999996424","414638.39999997616","","","","","","","","","","","","6","","stimuli/stars_6.png","179.5","","","","","stimuli/WF14_SC.jpg","",""
"explore-choice","135","415773","0.0-135.0","p626789","A37OUZOGQKGMW0","3RZS0FBRWLGDTA9TUPH81F59AWHPC0","3ZQIG0FLQGM2ZCAONUV98LWJ7CUWVM","emotion","match","uniform","","","","","","","2590.300000011921","414639.59999996424","417229.89999997616","[""stimuli/BF05_HE.jpg"",""stimuli/BM03_SC.jpg"",""stimuli/WF06_CC.jpg"",""stimuli/WF14_FO.jpg""]","stimuli/BF05_HE.jpg","stimuli/BM03_SC.jpg","stimuli/WF06_CC.jpg","stimuli/WF14_FO.jpg","pos1","stimuli/BF05_HE.jpg","HE","BF05","0","3","6","4","stimuli/stars_6.png","182.5","[""HE"",""SC"",""CC"",""FO""]","[""BF05"",""BM03"",""WF06"",""WF14""]","[6,6,3,7]","[4,8,2,6]","","",""
"show-reward","136","417777","0.0-136.0","p626789","A37OUZOGQKGMW0","3RZS0FBRWLGDTA9TUPH81F59AWHPC0","3ZQIG0FLQGM2ZCAONUV98LWJ7CUWVM","emotion","match","uniform","","","","","","","","417731.2999999523","419734.09999996424","","","","","","","","","","","","6","","stimuli/stars_6.png","182.5","","","","","stimuli/BF05_HE.jpg","",""
"explore-choice","137","419696","0.0-137.0","p626789","A37OUZOGQKGMW0","3RZS0FBRWLGDTA9TUPH81F59AWHPC0","3ZQIG0FLQGM2ZCAONUV98LWJ7CUWVM","emotion","match","uniform","","","","","","","1416.800000011921","419735.09999996424","421151.89999997616","[""stimuli/WF14_CC.jpg"",""stimuli/BF05_FO.jpg"",""stimuli/WF06_HE.jpg"",""stimuli/BM03_SC.jpg""]","stimuli/WF14_CC.jpg","stimuli/BF05_FO.jpg","stimuli/WF06_HE.jpg","stimuli/BM03_SC.jpg","pos4","stimuli/BM03_SC.jpg","SC","BM03","3","3.5","7","8","stimuli/stars_7.png","186","[""CC"",""FO"",""HE"",""SC""]","[""WF14"",""BF05"",""WF06"",""BM03""]","[2,6,5,7]","[2,6,4,8]","","",""
"show-reward","138","421711","0.0-138.0","p626789","A37OUZOGQKGMW0","3RZS0FBRWLGDTA9TUPH81F59AWHPC0","3ZQIG0FLQGM2ZCAONUV98LWJ7CUWVM","emotion","match","uniform","","","","","","","","421653.6999999881","423668.09999996424","","","","","","","","","","","","7","","stimuli/stars_7.png","186","","","","","stimuli/BM03_SC.jpg","",""
"explore-choice","139","426288","0.0-139.0","p626789","A37OUZOGQKGMW0","3RZS0FBRWLGDTA9TUPH81F59AWHPC0","3ZQIG0FLQGM2ZCAONUV98LWJ7CUWVM","emotion","match","uniform","","","","","","","4060.5","423669.5","427730","[""stimuli/WF14_FO.jpg"",""stimuli/BF05_HE.jpg"",""stimuli/BM03_CC.jpg"",""stimuli/WF06_SC.jpg""]","stimuli/WF14_FO.jpg","stimuli/BF05_HE.jpg","stimuli/BM03_CC.jpg","stimuli/WF06_SC.jpg","pos4","stimuli/WF06_SC.jpg","SC","WF06","3","5","10","8","stimuli/stars_10.png","191","[""FO"",""HE"",""CC"",""SC""]","[""WF14"",""BF05"",""BM03"",""WF06""]","[8,3,0,10]","[6,4,2,8]","","",""
"show-reward","140","428307","0.0-140.0","p626789","A37OUZOGQKGMW0","3RZS0FBRWLGDTA9TUPH81F59AWHPC0","3ZQIG0FLQGM2ZCAONUV98LWJ7CUWVM","emotion","match","uniform","","","","","","","","428246.09999996424","430263.59999996424","","","","","","","","","","","","10","","stimuli/stars_10.png","191","","","","","stimuli/WF06_SC.jpg","",""
"explore-choice","141","430320","0.0-141.0","p626789","A37OUZOGQKGMW0","3RZS0FBRWLGDTA9TUPH81F59AWHPC0","3ZQIG0FLQGM2ZCAONUV98LWJ7CUWVM","emotion","match","uniform","","","","","","","1504.800000011921","430265.09999996424","431769.89999997616","[""stimuli/WF06_HE.jpg"",""stimuli/BF05_CC.jpg"",""stimuli/BM03_FO.jpg"",""stimuli/WF14_SC.jpg""]","stimuli/WF06_HE.jpg","stimuli/BF05_CC.jpg","stimuli/BM03_FO.jpg","stimuli/WF14_SC.jpg","pos4","stimuli/WF14_SC.jpg","SC","WF14","3","3.5","7","8","stimuli/stars_7.png","194.5","[""HE"",""CC"",""FO"",""SC""]","[""WF06"",""BF05"",""BM03"",""WF14""]","[6,4,6,7]","[4,2,6,8]","","",""
"show-reward","142","432328","0.0-142.0","p626789","A37OUZOGQKGMW0","3RZS0FBRWLGDTA9TUPH81F59AWHPC0","3ZQIG0FLQGM2ZCAONUV98LWJ7CUWVM","emotion","match","uniform","","","","","","","","432278.5","434284.6999999881","","","","","","","","","","","","7","","stimuli/stars_7.png","194.5","","","","","stimuli/WF14_SC.jpg","",""
"explore-choice","143","437005","0.0-143.0","p626789","A37OUZOGQKGMW0","3RZS0FBRWLGDTA9TUPH81F59AWHPC0","3ZQIG0FLQGM2ZCAONUV98LWJ7CUWVM","emotion","match","uniform","","","","","","","4174.300000011921","434286.09999996424","438460.39999997616","[""stimuli/BF05_SC.jpg"",""stimuli/BM03_FO.jpg"",""stimuli/WF06_HE.jpg"",""stimuli/WF14_CC.jpg""]","stimuli/BF05_SC.jpg","stimuli/BM03_FO.jpg","stimuli/WF06_HE.jpg","stimuli/WF14_CC.jpg","pos2","stimuli/BM03_FO.jpg","FO","BM03","1","2.5","5","6","stimuli/stars_5.png","197","[""SC"",""FO"",""HE"",""CC""]","[""BF05"",""BM03"",""WF06"",""WF14""]","[8,5,4,4]","[8,6,4,2]","","",""
"show-reward","144","439008","0.0-144.0","p626789","A37OUZOGQKGMW0","3RZS0FBRWLGDTA9TUPH81F59AWHPC0","3ZQIG0FLQGM2ZCAONUV98LWJ7CUWVM","emotion","match","uniform","","","","","","","","438962.7999999523","440965","","","","","","","","","","","","5","","stimuli/stars_5.png","197","","","","","stimuli/BM03_FO.jpg","",""
"explore-choice","145","443958","0.0-145.0","p626789","A37OUZOGQKGMW0","3RZS0FBRWLGDTA9TUPH81F59AWHPC0","3ZQIG0FLQGM2ZCAONUV98LWJ7CUWVM","emotion","match","uniform","","","","","","","4448","440966.39999997616","445414.39999997616","[""stimuli/WF14_FO.jpg"",""stimuli/BF05_CC.jpg"",""stimuli/WF06_HE.jpg"",""stimuli/BM03_SC.jpg""]","stimuli/WF14_FO.jpg","stimuli/BF05_CC.jpg","stimuli/WF06_HE.jpg","stimuli/BM03_SC.jpg","pos3","stimuli/WF06_HE.jpg","HE","WF06","2","1","2","4","stimuli/stars_2.png","198","[""FO"",""CC"",""HE"",""SC""]","[""WF14"",""BF05"",""WF06"",""BM03""]","[5,3,2,9]","[6,2,4,8]","","",""
"show-reward","146","445967","0.0-146.0","p626789","A37OUZOGQKGMW0","3RZS0FBRWLGDTA9TUPH81F59AWHPC0","3ZQIG0FLQGM2ZCAONUV98LWJ7CUWVM","emotion","match","uniform","","","","","","","","445916.2999999523","447924.5","","","","","","","","","","","","2","","stimuli/stars_2.png","198","","","","","stimuli/WF06_HE.jpg","",""
"explore-choice","147","448315","0.0-147.0","p626789","A37OUZOGQKGMW0","3RZS0FBRWLGDTA9TUPH81F59AWHPC0","3ZQIG0FLQGM2ZCAONUV98LWJ7CUWVM","emotion","match","uniform","","","","","","","1846.2000000476837","447925.7999999523","449772","[""stimuli/BM03_HE.jpg"",""stimuli/WF14_CC.jpg"",""stimuli/WF06_SC.jpg"",""stimuli/BF05_FO.jpg""]","stimuli/BM03_HE.jpg","stimuli/WF14_CC.jpg","stimuli/WF06_SC.jpg","stimuli/BF05_FO.jpg","pos4","stimuli/BF05_FO.jpg","FO","BF05","3","4","8","6","stimuli/stars_8.png","202","[""HE"",""CC"",""SC"",""FO""]","[""BM03"",""WF14"",""WF06"",""BF05""]","[5,2,9,8]","[4,2,8,6]","","",""
"show-reward","148","450325","0.0-148.0","p626789","A37OUZOGQKGMW0","3RZS0FBRWLGDTA9TUPH81F59AWHPC0","3ZQIG0FLQGM2ZCAONUV98LWJ7CUWVM","emotion","match","uniform","","","","","","","","450273.6999999881","452282.09999996424","","","","","","","","","","","","8","","stimuli/stars_8.png","202","","","","","stimuli/BF05_FO.jpg","",""
"explore-choice","149","456754","0.0-149.0","p626789","A37OUZOGQKGMW0","3RZS0FBRWLGDTA9TUPH81F59AWHPC0","3ZQIG0FLQGM2ZCAONUV98LWJ7CUWVM","emotion","match","uniform","","","","","","","5926.5","452283.39999997616","458209.89999997616","[""stimuli/WF06_CC.jpg"",""stimuli/BM03_FO.jpg"",""stimuli/BF05_HE.jpg"",""stimuli/WF14_SC.jpg""]","stimuli/WF06_CC.jpg","stimuli/BM03_FO.jpg","stimuli/BF05_HE.jpg","stimuli/WF14_SC.jpg","pos4","stimuli/WF14_SC.jpg","SC","WF14","3","5","10","8","stimuli/stars_10.png","207","[""CC"",""FO"",""HE"",""SC""]","[""WF06"",""BM03"",""BF05"",""WF14""]","[0,6,5,10]","[2,6,4,8]","","",""
"show-reward","150","458761","0.0-150.0","p626789","A37OUZOGQKGMW0","3RZS0FBRWLGDTA9TUPH81F59AWHPC0","3ZQIG0FLQGM2ZCAONUV98LWJ7CUWVM","emotion","match","uniform","","","","","","","","458712.89999997616","460718.1999999881","","","","","","","","","","","","10","","stimuli/stars_10.png","207","","","","","stimuli/WF14_SC.jpg","",""
"explore-choice","151","460708","0.0-151.0","p626789","A37OUZOGQKGMW0","3RZS0FBRWLGDTA9TUPH81F59AWHPC0","3ZQIG0FLQGM2ZCAONUV98LWJ7CUWVM","emotion","match","uniform","","","","","","","1442.3999999761581","460719.5","462161.89999997616","[""stimuli/WF14_CC.jpg"",""stimuli/BM03_FO.jpg"",""stimuli/BF05_SC.jpg"",""stimuli/WF06_HE.jpg""]","stimuli/WF14_CC.jpg","stimuli/BM03_FO.jpg","stimuli/BF05_SC.jpg","stimuli/WF06_HE.jpg","pos3","stimuli/BF05_SC.jpg","SC","BF05","2","4","8","8","stimuli/stars_8.png","211","[""CC"",""FO"",""SC"",""HE""]","[""WF14"",""BM03"",""BF05"",""WF06""]","[4,5,8,4]","[2,6,8,4]","","",""
"show-reward","152","462714","0.0-152.0","p626789","A37OUZOGQKGMW0","3RZS0FBRWLGDTA9TUPH81F59AWHPC0","3ZQIG0FLQGM2ZCAONUV98LWJ7CUWVM","emotion","match","uniform","","","","","","","","462666.1999999881","464670.7999999523","","","","","","","","","","","","8","","stimuli/stars_8.png","211","","","","","stimuli/BF05_SC.jpg","",""
"explore-choice","153","466384","0.0-153.0","p626789","A37OUZOGQKGMW0","3RZS0FBRWLGDTA9TUPH81F59AWHPC0","3ZQIG0FLQGM2ZCAONUV98LWJ7CUWVM","emotion","match","uniform","","","","","","","3168.399999976158","464671.89999997616","467840.2999999523","[""stimuli/WF14_SC.jpg"",""stimuli/WF06_HE.jpg"",""stimuli/BF05_CC.jpg"",""stimuli/BM03_FO.jpg""]","stimuli/WF14_SC.jpg","stimuli/WF06_HE.jpg","stimuli/BF05_CC.jpg","stimuli/BM03_FO.jpg","pos1","stimuli/WF14_SC.jpg","SC","WF14","0","3.5","7","8","stimuli/stars_7.png","214.5","[""SC"",""HE"",""CC"",""FO""]","[""WF14"",""WF06"",""BF05"",""BM03""]","[7,6,4,6]","[8,4,2,6]","","",""
"show-reward","154","468401","0.0-154.0","p626789","A37OUZOGQKGMW0","3RZS0FBRWLGDTA9TUPH81F59AWHPC0","3ZQIG0FLQGM2ZCAONUV98LWJ7CUWVM","emotion","match","uniform","","","","","","","","468342.1999999881","470357.5","","","","","","","","","","","","7","","stimuli/stars_7.png","214.5","","","","","stimuli/WF14_SC.jpg","",""
"explore-choice","155","470367","0.0-155.0","p626789","A37OUZOGQKGMW0","3RZS0FBRWLGDTA9TUPH81F59AWHPC0","3ZQIG0FLQGM2ZCAONUV98LWJ7CUWVM","emotion","match","uniform","","","","","","","1464.9000000357628","470358.7999999523","471823.6999999881","[""stimuli/WF14_CC.jpg"",""stimuli/WF06_FO.jpg"",""stimuli/BM03_HE.jpg"",""stimuli/BF05_SC.jpg""]","stimuli/WF14_CC.jpg","stimuli/WF06_FO.jpg","stimuli/BM03_HE.jpg","stimuli/BF05_SC.jpg","pos4","stimuli/BF05_SC.jpg","SC","BF05","3","4.5","9","8","stimuli/stars_9.png","219","[""CC"",""FO"",""HE"",""SC""]","[""WF14"",""WF06"",""BM03"",""BF05""]","[0,4,2,9]","[2,6,4,8]","","",""
"show-reward","156","472374","0.0-156.0","p626789","A37OUZOGQKGMW0","3RZS0FBRWLGDTA9TUPH81F59AWHPC0","3ZQIG0FLQGM2ZCAONUV98LWJ7CUWVM","emotion","match","uniform","","","","","","","","472325.7999999523","474330.6999999881","","","","","","","","","","","","9","","stimuli/stars_9.png","219","","","","","stimuli/BF05_SC.jpg","",""
"explore-choice","157","480723","0.0-157.0","p626789","A37OUZOGQKGMW0","3RZS0FBRWLGDTA9TUPH81F59AWHPC0","3ZQIG0FLQGM2ZCAONUV98LWJ7CUWVM","emotion","match","uniform","","","","","","","7840.300000011921","474331.89999997616","482172.1999999881","[""stimuli/WF14_FO.jpg"",""stimuli/BM03_SC.jpg"",""stimuli/WF06_CC.jpg"",""stimuli/BF05_HE.jpg""]","stimuli/WF14_FO.jpg","stimuli/BM03_SC.jpg","stimuli/WF06_CC.jpg","stimuli/BF05_HE.jpg","pos2","stimuli/BM03_SC.jpg","SC","BM03","1","3","6","8","stimuli/stars_6.png","222","[""FO"",""SC"",""CC"",""HE""]","[""WF14"",""BM03"",""WF06"",""BF05""]","[7,6,3,6]","[6,8,2,4]","","",""
"show-reward","158","482737","0.0-158.0","p626789","A37OUZOGQKGMW0","3RZS0FBRWLGDTA9TUPH81F59AWHPC0","3ZQIG0FLQGM2ZCAONUV98LWJ7CUWVM","emotion","match","uniform","","","","","","","","482682.7999999523","484694.6999999881","","","","","","","","","","","","6","","stimuli/stars_6.png","222","","","","","stimuli/BM03_SC.jpg","",""
"explore-choice","159","485758","0.0-159.0","p626789","A37OUZOGQKGMW0","3RZS0FBRWLGDTA9TUPH81F59AWHPC0","3ZQIG0FLQGM2ZCAONUV98LWJ7CUWVM","emotion","match","uniform","","","","","","","2519.199999988079","484696.1999999881","487215.39999997616","[""stimuli/BM03_SC.jpg"",""stimuli/WF06_FO.jpg"",""stimuli/WF14_HE.jpg"",""stimuli/BF05_CC.jpg""]","stimuli/BM03_SC.jpg","stimuli/WF06_FO.jpg","stimuli/WF14_HE.jpg","stimuli/BF05_CC.jpg","pos1","stimuli/BM03_SC.jpg","SC","BM03","0","3","6","8","stimuli/stars_6.png","225","[""SC"",""FO"",""HE"",""CC""]","[""BM03"",""WF06"",""WF14"",""BF05""]","[6,4,5,3]","[8,6,4,2]","","",""
"show-reward","160","487762","0.0-160.0","p626789","A37OUZOGQKGMW0","3RZS0FBRWLGDTA9TUPH81F59AWHPC0","3ZQIG0FLQGM2ZCAONUV98LWJ7CUWVM","emotion","match","uniform","","","","","","","","487717.09999996424","489719.6999999881","","","","","","","","","","","","6","","stimuli/stars_6.png","225","","","","","stimuli/BM03_SC.jpg","",""
"explore-choice","161","491441","0.0-161.0","p626789","A37OUZOGQKGMW0","3RZS0FBRWLGDTA9TUPH81F59AWHPC0","3ZQIG0FLQGM2ZCAONUV98LWJ7CUWVM","emotion","match","uniform","","","","","","","3176.699999988079","489721.5","492898.1999999881","[""stimuli/WF06_CC.jpg"",""stimuli/BM03_FO.jpg"",""stimuli/BF05_SC.jpg"",""stimuli/WF14_HE.jpg""]","stimuli/WF06_CC.jpg","stimuli/BM03_FO.jpg","stimuli/BF05_SC.jpg","stimuli/WF14_HE.jpg","pos3","stimuli/BF05_SC.jpg","SC","BF05","2","3.5","7","8","stimuli/stars_7.png","228.5","[""CC"",""FO"",""SC"",""HE""]","[""WF06"",""BM03"",""BF05"",""WF14""]","[0,7,7,4]","[2,6,8,4]","","",""
"show-reward","162","493458","0.0-162.0","p626789","A37OUZOGQKGMW0","3RZS0FBRWLGDTA9TUPH81F59AWHPC0","3ZQIG0FLQGM2ZCAONUV98LWJ7CUWVM","emotion","match","uniform","","","","","","","","493400","495415.39999997616","","","","","","","","","","","","7","","stimuli/stars_7.png","228.5","","","","","stimuli/BF05_SC.jpg","",""
"explore-choice","163","495425","0.0-163.0","p626789","A37OUZOGQKGMW0","3RZS0FBRWLGDTA9TUPH81F59AWHPC0","3ZQIG0FLQGM2ZCAONUV98LWJ7CUWVM","emotion","match","uniform","","","","","","","1462.7000000476837","495416.7999999523","496879.5","[""stimuli/WF14_HE.jpg"",""stimuli/BM03_SC.jpg"",""stimuli/WF06_CC.jpg"",""stimuli/BF05_FO.jpg""]","stimuli/WF14_HE.jpg","stimuli/BM03_SC.jpg","stimuli/WF06_CC.jpg","stimuli/BF05_FO.jpg","pos4","stimuli/BF05_FO.jpg","FO","BF05","3","2.5","5","6","stimuli/stars_5.png","231","[""HE"",""SC"",""CC"",""FO""]","[""WF14"",""BM03"",""WF06"",""BF05""]","[5,6,4,5]","[4,8,2,6]","","",""
"show-reward","164","497436","0.0-164.0","p626789","A37OUZOGQKGMW0","3RZS0FBRWLGDTA9TUPH81F59AWHPC0","3ZQIG0FLQGM2ZCAONUV98LWJ7CUWVM","emotion","match","uniform","","","","","","","","497384.5","499394.09999996424","","","","","","","","","","","","5","","stimuli/stars_5.png","231","","","","","stimuli/BF05_FO.jpg","",""
"explore-choice","165","505103","0.0-165.0","p626789","A37OUZOGQKGMW0","3RZS0FBRWLGDTA9TUPH81F59AWHPC0","3ZQIG0FLQGM2ZCAONUV98LWJ7CUWVM","emotion","match","uniform","","","","","","","7164.200000047684","499395.2999999523","506559.5","[""stimuli/WF14_CC.jpg"",""stimuli/BM03_HE.jpg"",""stimuli/BF05_FO.jpg"",""stimuli/WF06_SC.jpg""]","stimuli/WF14_CC.jpg","stimuli/BM03_HE.jpg","stimuli/BF05_FO.jpg","stimuli/WF06_SC.jpg","pos1","stimuli/WF14_CC.jpg","CC","WF14","0","1","2","2","stimuli/stars_2.png","232","[""CC"",""HE"",""FO"",""SC""]","[""WF14"",""BM03"",""BF05"",""WF06""]","[2,5,8,9]","[2,4,6,8]","","",""
"show-reward","166","507116","0.0-166.0","p626789","A37OUZOGQKGMW0","3RZS0FBRWLGDTA9TUPH81F59AWHPC0","3ZQIG0FLQGM2ZCAONUV98LWJ7CUWVM","emotion","match","uniform","","","","","","","","507062.2999999523","509074.39999997616","","","","","","","","","","","","2","","stimuli/stars_2.png","232","","","","","stimuli/WF14_CC.jpg","",""
"explore-choice","167","510428","0.0-167.0","p626789","A37OUZOGQKGMW0","3RZS0FBRWLGDTA9TUPH81F59AWHPC0","3ZQIG0FLQGM2ZCAONUV98LWJ7CUWVM","emotion","match","uniform","","","","","","","2794.800000011921","509075.39999997616","511870.1999999881","[""stimuli/WF14_FO.jpg"",""stimuli/BM03_HE.jpg"",""stimuli/BF05_CC.jpg"",""stimuli/WF06_SC.jpg""]","stimuli/WF14_FO.jpg","stimuli/BM03_HE.jpg","stimuli/BF05_CC.jpg","stimuli/WF06_SC.jpg","pos4","stimuli/WF06_SC.jpg","SC","WF06","3","4.5","9","8","stimuli/stars_9.png","236.5","[""FO"",""HE"",""CC"",""SC""]","[""WF14"",""BM03"",""BF05"",""WF06""]","[8,3,4,9]","[6,4,2,8]","","",""
"show-reward","168","512448","0.0-168.0","p626789","A37OUZOGQKGMW0","3RZS0FBRWLGDTA9TUPH81F59AWHPC0","3ZQIG0FLQGM2ZCAONUV98LWJ7CUWVM","emotion","match","uniform","","","","","","","","512387.09999996424","514405.5","","","","","","","","","","","","9","","stimuli/stars_9.png","236.5","","","","","stimuli/WF06_SC.jpg","",""
"explore-choice","169","514561","0.0-169.0","p626789","A37OUZOGQKGMW0","3RZS0FBRWLGDTA9TUPH81F59AWHPC0","3ZQIG0FLQGM2ZCAONUV98LWJ7CUWVM","emotion","match","uniform","","","","","","","1611","514406.6999999881","516017.6999999881","[""stimuli/BM03_FO.jpg"",""stimuli/WF06_SC.jpg"",""stimuli/WF14_HE.jpg"",""stimuli/BF05_CC.jpg""]","stimuli/BM03_FO.jpg","stimuli/WF06_SC.jpg","stimuli/WF14_HE.jpg","stimuli/BF05_CC.jpg","pos3","stimuli/WF14_HE.jpg","HE","WF14","2","3","6","4","stimuli/stars_6.png","239.5","[""FO"",""SC"",""HE"",""CC""]","[""BM03"",""WF06"",""WF14"",""BF05""]","[4,8,6,1]","[6,8,4,2]","","",""
"show-reward","170","516572","0.0-170.0","p626789","A37OUZOGQKGMW0","3RZS0FBRWLGDTA9TUPH81F59AWHPC0","3ZQIG0FLQGM2ZCAONUV98LWJ7CUWVM","emotion","match","uniform","","","","","","","","516520.59999996424","518529.7999999523","","","","","","","","","","","","6","","stimuli/stars_6.png","239.5","","","","","stimuli/WF14_HE.jpg","",""
"explore-choice","171","520407","0.0-171.0","p626789","A37OUZOGQKGMW0","3RZS0FBRWLGDTA9TUPH81F59AWHPC0","3ZQIG0FLQGM2ZCAONUV98LWJ7CUWVM","emotion","match","uniform","","","","","","","3332.800000011921","518531.2999999523","521864.09999996424","[""stimuli/BF05_HE.jpg"",""stimuli/WF06_FO.jpg"",""stimuli/BM03_SC.jpg"",""stimuli/WF14_CC.jpg""]","stimuli/BF05_HE.jpg","stimuli/WF06_FO.jpg","stimuli/BM03_SC.jpg","stimuli/WF14_CC.jpg","pos3","stimuli/BM03_SC.jpg","SC","BM03","2","3","6","8","stimuli/stars_6.png","242.5","[""HE"",""FO"",""SC"",""CC""]","[""BF05"",""WF06"",""BM03"",""WF14""]","[3,6,6,4]","[4,6,8,2]","","",""
"show-reward","172","522423","0.0-172.0","p626789","A37OUZOGQKGMW0","3RZS0FBRWLGDTA9TUPH81F59AWHPC0","3ZQIG0FLQGM2ZCAONUV98LWJ7CUWVM","emotion","match","uniform","","","","","","","","522365.7999999523","524381.1999999881","","","","","","","","","","","","6","","stimuli/stars_6.png","242.5","","","","","stimuli/BM03_SC.jpg","",""
"explore-choice","173","525431","0.0-173.0","p626789","A37OUZOGQKGMW0","3RZS0FBRWLGDTA9TUPH81F59AWHPC0","3ZQIG0FLQGM2ZCAONUV98LWJ7CUWVM","emotion","match","uniform","","","","","","","2505.5","524382.6999999881","526888.1999999881","[""stimuli/BF05_FO.jpg"",""stimuli/BM03_SC.jpg"",""stimuli/WF06_HE.jpg"",""stimuli/WF14_CC.jpg""]","stimuli/BF05_FO.jpg","stimuli/BM03_SC.jpg","stimuli/WF06_HE.jpg","stimuli/WF14_CC.jpg","pos3","stimuli/WF06_HE.jpg","HE","WF06","2","2.5","5","4","stimuli/stars_5.png","245","[""FO"",""SC"",""HE"",""CC""]","[""BF05"",""BM03"",""WF06"",""WF14""]","[6,7,5,2]","[6,8,4,2]","","",""
"show-reward","174","527441","0.0-174.0","p626789","A37OUZOGQKGMW0","3RZS0FBRWLGDTA9TUPH81F59AWHPC0","3ZQIG0FLQGM2ZCAONUV98LWJ7CUWVM","emotion","match","uniform","","","","","","","","527389.5","529398.6999999881","","","","","","","","","","","","5","","stimuli/stars_5.png","245","","","","","stimuli/WF06_HE.jpg","",""
"explore-choice","175","531199","0.0-175.0","p626789","A37OUZOGQKGMW0","3RZS0FBRWLGDTA9TUPH81F59AWHPC0","3ZQIG0FLQGM2ZCAONUV98LWJ7CUWVM","emotion","match","uniform","","","","","","","3256.199999988079","529399.8999999762","532656.0999999642","[""stimuli/BM03_CC.jpg"",""stimuli/BF05_FO.jpg"",""stimuli/WF14_HE.jpg"",""stimuli/WF06_SC.jpg""]","stimuli/BM03_CC.jpg","stimuli/BF05_FO.jpg","stimuli/WF14_HE.jpg","stimuli/WF06_SC.jpg","pos2","stimuli/BF05_FO.jpg","FO","BF05","1","4","8","6","stimuli/stars_8.png","249","[""CC"",""FO"",""HE"",""SC""]","[""BM03"",""BF05"",""WF14"",""WF06""]","[4,8,2,9]","[2,6,4,8]","","",""
"show-reward","176","533202","0.0-176.0","p626789","A37OUZOGQKGMW0","3RZS0FBRWLGDTA9TUPH81F59AWHPC0","3ZQIG0FLQGM2ZCAONUV98LWJ7CUWVM","emotion","match","uniform","","","","","","","","533158.2999999523","535160.0999999642","","","","","","","","","","","","8","","stimuli/stars_8.png","249","","","","","stimuli/BF05_FO.jpg","",""
"explore-choice","177","534830","0.0-177.0","p626789","A37OUZOGQKGMW0","3RZS0FBRWLGDTA9TUPH81F59AWHPC0","3ZQIG0FLQGM2ZCAONUV98LWJ7CUWVM","emotion","match","uniform","","","","","","","1126.699999988079","535161.1999999881","536287.8999999762","[""stimuli/WF06_HE.jpg"",""stimuli/BF05_CC.jpg"",""stimuli/BM03_SC.jpg"",""stimuli/WF14_FO.jpg""]","stimuli/WF06_HE.jpg","stimuli/BF05_CC.jpg","stimuli/BM03_SC.jpg","stimuli/WF14_FO.jpg","pos4","stimuli/WF14_FO.jpg","FO","WF14","3","2.5","5","6","stimuli/stars_5.png","251.5","[""HE"",""CC"",""SC"",""FO""]","[""WF06"",""BF05"",""BM03"",""WF14""]","[2,3,9,5]","[4,2,8,6]","","",""
"show-reward","178","536850","0.0-178.0","p626789","A37OUZOGQKGMW0","3RZS0FBRWLGDTA9TUPH81F59AWHPC0","3ZQIG0FLQGM2ZCAONUV98LWJ7CUWVM","emotion","match","uniform","","","","","","","","536789.2999999523","538807.5","","","","","","","","","","","","5","","stimuli/stars_5.png","251.5","","","","","stimuli/WF14_FO.jpg","",""
"explore-choice","179","539225","0.0-179.0","p626789","A37OUZOGQKGMW0","3RZS0FBRWLGDTA9TUPH81F59AWHPC0","3ZQIG0FLQGM2ZCAONUV98LWJ7CUWVM","emotion","match","uniform","","","","","","","1871.5","538808.7999999523","540680.2999999523","[""stimuli/WF14_FO.jpg"",""stimuli/WF06_CC.jpg"",""stimuli/BF05_SC.jpg"",""stimuli/BM03_HE.jpg""]","stimuli/WF14_FO.jpg","stimuli/WF06_CC.jpg","stimuli/BF05_SC.jpg","stimuli/BM03_HE.jpg","pos3","stimuli/BF05_SC.jpg","SC","BF05","2","3","6","8","stimuli/stars_6.png","254.5","[""FO"",""CC"",""SC"",""HE""]","[""WF14"",""WF06"",""BF05"",""BM03""]","[6,1,6,3]","[6,2,8,4]","","",""
"show-reward","180","541231","0.0-180.0","p626789","A37OUZOGQKGMW0","3RZS0FBRWLGDTA9TUPH81F59AWHPC0","3ZQIG0FLQGM2ZCAONUV98LWJ7CUWVM","emotion","match","uniform","","","","","","","","541183.0999999642","543188.0999999642","","","","","","","","","","","","6","","stimuli/stars_6.png","254.5","","","","","stimuli/BF05_SC.jpg","",""
"explore-choice","181","543999","0.0-181.0","p626789","A37OUZOGQKGMW0","3RZS0FBRWLGDTA9TUPH81F59AWHPC0","3ZQIG0FLQGM2ZCAONUV98LWJ7CUWVM","emotion","match","uniform","","","","","","","2266.699999988079","543189.3999999762","545456.0999999642","[""stimuli/WF14_HE.jpg"",""stimuli/BM03_CC.jpg"",""stimuli/WF06_FO.jpg"",""stimuli/BF05_SC.jpg""]","stimuli/WF14_HE.jpg","stimuli/BM03_CC.jpg","stimuli/WF06_FO.jpg","stimuli/BF05_SC.jpg","pos1","stimuli/WF14_HE.jpg","HE","WF14","0","2","4","4","stimuli/stars_4.png","256.5","[""HE"",""CC"",""FO"",""SC""]","[""WF14"",""BM03"",""WF06"",""BF05""]","[4,1,5,6]","[4,2,6,8]","","",""
"show-reward","182","546008","0.0-182.0","p626789","A37OUZOGQKGMW0","3RZS0FBRWLGDTA9TUPH81F59AWHPC0","3ZQIG0FLQGM2ZCAONUV98LWJ7CUWVM","emotion","match","uniform","","","","","","","","545957","547965","","","","","","","","","","","","4","","stimuli/stars_4.png","256.5","","","","","stimuli/WF14_HE.jpg","",""
"explore-choice","183","548165","0.0-183.0","p626789","A37OUZOGQKGMW0","3RZS0FBRWLGDTA9TUPH81F59AWHPC0","3ZQIG0FLQGM2ZCAONUV98LWJ7CUWVM","emotion","match","uniform","","","","","","","1653.800000011921","547966.1999999881","549620","[""stimuli/BM03_FO.jpg"",""stimuli/WF14_CC.jpg"",""stimuli/WF06_SC.jpg"",""stimuli/BF05_HE.jpg""]","stimuli/BM03_FO.jpg","stimuli/WF14_CC.jpg","stimuli/WF06_SC.jpg","stimuli/BF05_HE.jpg","pos4","stimuli/BF05_HE.jpg","HE","BF05","3","1","2","4","stimuli/stars_2.png","257.5","[""FO"",""CC"",""SC"",""HE""]","[""BM03"",""WF14"",""WF06"",""BF05""]","[6,4,10,2]","[6,2,8,4]","","",""
"show-reward","184","550179","0.0-184.0","p626789","A37OUZOGQKGMW0","3RZS0FBRWLGDTA9TUPH81F59AWHPC0","3ZQIG0FLQGM2ZCAONUV98LWJ7CUWVM","emotion","match","uniform","","","","","","","","550123.0999999642","552136.5999999642","","","","","","","","","","","","2","","stimuli/stars_2.png","257.5","","","","","stimuli/BF05_HE.jpg","",""
"explore-choice","185","552950","0.0-185.0","p626789","A37OUZOGQKGMW0","3RZS0FBRWLGDTA9TUPH81F59AWHPC0","3ZQIG0FLQGM2ZCAONUV98LWJ7CUWVM","emotion","match","uniform","","","","","","","2262.100000023842","552137.7999999523","554399.8999999762","[""stimuli/WF14_SC.jpg"",""stimuli/WF06_CC.jpg"",""stimuli/BF05_HE.jpg"",""stimuli/BM03_FO.jpg""]","stimuli/WF14_SC.jpg","stimuli/WF06_CC.jpg","stimuli/BF05_HE.jpg","stimuli/BM03_FO.jpg","pos4","stimuli/BM03_FO.jpg","FO","BM03","3","3","6","6","stimuli/stars_6.png","260.5","[""SC"",""CC"",""HE"",""FO""]","[""WF14"",""WF06"",""BF05"",""BM03""]","[10,0,5,6]","[8,2,4,6]","","",""
"show-reward","186","554954","0.0-186.0","p626789","A37OUZOGQKGMW0","3RZS0FBRWLGDTA9TUPH81F59AWHPC0","3ZQIG0FLQGM2ZCAONUV98LWJ7CUWVM","emotion","match","uniform","","","","","","","","554908.7999999523","556911.0999999642","","","","","","","","","","","","6","","stimuli/stars_6.png","260.5","","","","","stimuli/BM03_FO.jpg","",""
"explore-choice","187","556767","0.0-187.0","p626789","A37OUZOGQKGMW0","3RZS0FBRWLGDTA9TUPH81F59AWHPC0","3ZQIG0FLQGM2ZCAONUV98LWJ7CUWVM","emotion","match","uniform","","","","","","","1306","556912","558218","[""stimuli/BF05_HE.jpg"",""stimuli/BM03_CC.jpg"",""stimuli/WF14_FO.jpg"",""stimuli/WF06_SC.jpg""]","stimuli/BF05_HE.jpg","stimuli/BM03_CC.jpg","stimuli/WF14_FO.jpg","stimuli/WF06_SC.jpg","pos2","stimuli/BM03_CC.jpg","CC","BM03","1","0","0","2","stimuli/stars_0.png","260.5","[""HE"",""CC"",""FO"",""SC""]","[""BF05"",""BM03"",""WF14"",""WF06""]","[3,0,8,10]","[4,2,6,8]","","",""
"show-reward","188","558772","0.0-188.0","p626789","A37OUZOGQKGMW0","3RZS0FBRWLGDTA9TUPH81F59AWHPC0","3ZQIG0FLQGM2ZCAONUV98LWJ7CUWVM","emotion","match","uniform","","","","","","","","558725.0999999642","560729","","","","","","","","","","","","0","","stimuli/stars_0.png","260.5","","","","","stimuli/BM03_CC.jpg","",""
"explore-choice","189","562362","0.0-189.0","p626789","A37OUZOGQKGMW0","3RZS0FBRWLGDTA9TUPH81F59AWHPC0","3ZQIG0FLQGM2ZCAONUV98LWJ7CUWVM","emotion","match","uniform","","","","","","","3087.800000011921","560730.0999999642","563817.8999999762","[""stimuli/WF14_SC.jpg"",""stimuli/BF05_FO.jpg"",""stimuli/WF06_HE.jpg"",""stimuli/BM03_CC.jpg""]","stimuli/WF14_SC.jpg","stimuli/BF05_FO.jpg","stimuli/WF06_HE.jpg","stimuli/BM03_CC.jpg","pos1","stimuli/WF14_SC.jpg","SC","WF14","0","5","10","8","stimuli/stars_10.png","265.5","[""SC"",""FO"",""HE"",""CC""]","[""WF14"",""BF05"",""WF06"",""BM03""]","[10,8,6,2]","[8,6,4,2]","","",""
"show-reward","190","564376","0.0-190.0","p626789","A37OUZOGQKGMW0","3RZS0FBRWLGDTA9TUPH81F59AWHPC0","3ZQIG0FLQGM2ZCAONUV98LWJ7CUWVM","emotion","match","uniform","","","","","","","","564320.1999999881","566333.3999999762","","","","","","","","","","","","10","","stimuli/stars_10.png","265.5","","","","","stimuli/WF14_SC.jpg","",""
"explore-choice","191","567413","0.0-191.0","p626789","A37OUZOGQKGMW0","3RZS0FBRWLGDTA9TUPH81F59AWHPC0","3ZQIG0FLQGM2ZCAONUV98LWJ7CUWVM","emotion","match","uniform","","","","","","","2534.800000011921","566334.5999999642","568869.3999999762","[""stimuli/BF05_SC.jpg"",""stimuli/BM03_CC.jpg"",""stimuli/WF06_HE.jpg"",""stimuli/WF14_FO.jpg""]","stimuli/BF05_SC.jpg","stimuli/BM03_CC.jpg","stimuli/WF06_HE.jpg","stimuli/WF14_FO.jpg","pos1","stimuli/BF05_SC.jpg","SC","BF05","0","3.5","7","8","stimuli/stars_7.png","269","[""SC"",""CC"",""HE"",""FO""]","[""BF05"",""BM03"",""WF06"",""WF14""]","[7,0,3,4]","[8,2,4,6]","","",""
"show-reward","192","569425","0.0-192.0","p626789","A37OUZOGQKGMW0","3RZS0FBRWLGDTA9TUPH81F59AWHPC0","3ZQIG0FLQGM2ZCAONUV98LWJ7CUWVM","emotion","match","uniform","","","","","","","","569371","571381.6999999881","","","","","","","","","","","","7","","stimuli/stars_7.png","269","","","","","stimuli/BF05_SC.jpg","",""
"explore-choice","193","571695","0.0-193.0","p626789","A37OUZOGQKGMW0","3RZS0FBRWLGDTA9TUPH81F59AWHPC0","3ZQIG0FLQGM2ZCAONUV98LWJ7CUWVM","emotion","match","uniform","","","","","","","1758.9000000357628","571382.7999999523","573141.6999999881","[""stimuli/BF05_CC.jpg"",""stimuli/BM03_HE.jpg"",""stimuli/WF14_SC.jpg"",""stimuli/WF06_FO.jpg""]","stimuli/BF05_CC.jpg","stimuli/BM03_HE.jpg","stimuli/WF14_SC.jpg","stimuli/WF06_FO.jpg","pos3","stimuli/WF14_SC.jpg","SC","WF14","2","3","6","8","stimuli/stars_6.png","272","[""CC"",""HE"",""SC"",""FO""]","[""BF05"",""BM03"",""WF14"",""WF06""]","[4,4,6,5]","[2,4,8,6]","","",""
"show-reward","194","573700","0.0-194.0","p626789","A37OUZOGQKGMW0","3RZS0FBRWLGDTA9TUPH81F59AWHPC0","3ZQIG0FLQGM2ZCAONUV98LWJ7CUWVM","emotion","match","uniform","","","","","","","","573653.5","575656.7999999523","","","","","","","","","","","","6","","stimuli/stars_6.png","272","","","","","stimuli/WF14_SC.jpg","",""
"explore-choice","195","577003","0.0-195.0","p626789","A37OUZOGQKGMW0","3RZS0FBRWLGDTA9TUPH81F59AWHPC0","3ZQIG0FLQGM2ZCAONUV98LWJ7CUWVM","emotion","match","uniform","","","","","","","2801.400000035763","575658.0999999642","578459.5","[""stimuli/BM03_CC.jpg"",""stimuli/WF06_FO.jpg"",""stimuli/WF14_SC.jpg"",""stimuli/BF05_HE.jpg""]","stimuli/BM03_CC.jpg","stimuli/WF06_FO.jpg","stimuli/WF14_SC.jpg","stimuli/BF05_HE.jpg","pos2","stimuli/WF06_FO.jpg","FO","WF06","1","4","8","6","stimuli/stars_8.png","276","[""CC"",""FO"",""SC"",""HE""]","[""BM03"",""WF06"",""WF14"",""BF05""]","[3,8,8,2]","[2,6,8,4]","","",""
"show-reward","196","579019","0.0-196.0","p626789","A37OUZOGQKGMW0","3RZS0FBRWLGDTA9TUPH81F59AWHPC0","3ZQIG0FLQGM2ZCAONUV98LWJ7CUWVM","emotion","match","uniform","","","","","","","","578961.2999999523","580976.3999999762","","","","","","","","","","","","8","","stimuli/stars_8.png","276","","","","","stimuli/WF06_FO.jpg","",""
"explore-choice","197","584573","0.0-197.0","p626789","A37OUZOGQKGMW0","3RZS0FBRWLGDTA9TUPH81F59AWHPC0","3ZQIG0FLQGM2ZCAONUV98LWJ7CUWVM","emotion","match","uniform","","","","","","","5036.199999988079","580977.6999999881","586013.8999999762","[""stimuli/BM03_HE.jpg"",""stimuli/WF06_CC.jpg"",""stimuli/BF05_FO.jpg"",""stimuli/WF14_SC.jpg""]","stimuli/BM03_HE.jpg","stimuli/WF06_CC.jpg","stimuli/BF05_FO.jpg","stimuli/WF14_SC.jpg","pos4","stimuli/WF14_SC.jpg","SC","WF14","3","5","10","8","stimuli/stars_10.png","281","[""HE"",""CC"",""FO"",""SC""]","[""BM03"",""WF06"",""BF05"",""WF14""]","[4,0,4,10]","[4,2,6,8]","","",""
"show-reward","198","586592","0.0-198.0","p626789","A37OUZOGQKGMW0","3RZS0FBRWLGDTA9TUPH81F59AWHPC0","3ZQIG0FLQGM2ZCAONUV98LWJ7CUWVM","emotion","match","uniform","","","","","","","","586531.6999999881","588549.1999999881","","","","","","","","","","","","10","","stimuli/stars_10.png","281","","","","","stimuli/WF14_SC.jpg","",""
"instructions","199","597960","0.0-199.0","p626789","A37OUZOGQKGMW0","3RZS0FBRWLGDTA9TUPH81F59AWHPC0","3ZQIG0FLQGM2ZCAONUV98LWJ7CUWVM","emotion","match","uniform","","","","","","[{""page_index"":0,""viewing_time"":11365.100000023842}]","11366","","","","","","","","","","","","","","","","","","","","","","","",""
"survey-text","200","603740","0.0-200.0-0.0","p626789","A37OUZOGQKGMW0","3RZS0FBRWLGDTA9TUPH81F59AWHPC0","3ZQIG0FLQGM2ZCAONUV98LWJ7CUWVM","emotion","match","uniform","","","","","","","5775.300000011921","","","","","","","","","","","","","","","","","","","","","","","{""age"":""71""}",""
"survey-text","201","615009","0.0-200.0-1.0","p626789","A37OUZOGQKGMW0","3RZS0FBRWLGDTA9TUPH81F59AWHPC0","3ZQIG0FLQGM2ZCAONUV98LWJ7CUWVM","emotion","match","uniform","","","","","","","11265.099999964237","","","","","","","","","","","","","","","","","","","","","","","{""gender"":""Female""}",""
"survey-text","202","630397","0.0-200.0-2.0","p626789","A37OUZOGQKGMW0","3RZS0FBRWLGDTA9TUPH81F59AWHPC0","3ZQIG0FLQGM2ZCAONUV98LWJ7CUWVM","emotion","match","uniform","","","","","","","15384.300000011921","","","","","","","","","","","","","","","","","","","","","","","{""country"":""United States of America""}",""
"survey-text","203","646883","0.0-200.0-3.0","p626789","A37OUZOGQKGMW0","3RZS0FBRWLGDTA9TUPH81F59AWHPC0","3ZQIG0FLQGM2ZCAONUV98LWJ7CUWVM","emotion","match","uniform","","","","","","","16482.600000023842","","","","","","","","","","","","","","","","","","","","","","","{""language"":""English"",""other_languages"":""N/A""}",""
"survey-multi-select","204","651441","0.0-201.0","p626789","A37OUZOGQKGMW0","3RZS0FBRWLGDTA9TUPH81F59AWHPC0","3ZQIG0FLQGM2ZCAONUV98LWJ7CUWVM","emotion","match","uniform","","","","","","","4551.199999988079","","","","","","","","","","","","","","","","","","","","","","","{""race"":[""White""]}","[0]"
"survey-multi-choice","205","655697","0.0-202.0","p626789","A37OUZOGQKGMW0","3RZS0FBRWLGDTA9TUPH81F59AWHPC0","3ZQIG0FLQGM2ZCAONUV98LWJ7CUWVM","emotion","match","uniform","","","","","","","4253.100000023842","","","","","","","","","","","","","","","","","","","","","","","{""education"":""Some college/ university""}","[0]"
"survey-text","206","862975","0.0-203.0","p626789","A37OUZOGQKGMW0","3RZS0FBRWLGDTA9TUPH81F59AWHPC0","3ZQIG0FLQGM2ZCAONUV98LWJ7CUWVM","emotion","match","uniform","","","","","","","207270.90000003576","","","","","","","","","","","","","","","","","","","","","","","{""patterns"":""At first, itt seemed like those that frowned or made some funny face had some of the highest number of stars."",""strategy"":""Yes, I tried clicking on the one where the person frowned, but it did not always have the highest number if stars."",""comments"":""none""}",""
