"trial_type","trial_index","time_elapsed","internal_node_id","subject","workerId","hitId","assignmentId","structure_condition","match_condition","noise_type","success","timeout","failed_images","failed_audio","failed_video","view_history","rt","start_time","end_time","stimuli","image1","image2","image3","image4","choiceLocation","choiceImage","choiceEmotion","choiceModel","choice_index","reward_score","reward","reward_score_unadjusted","reward_image","score_after_trial","emotions","models","rewards","rewards_unadjusted","stimulus","response","question_order"
"pavlovia","0","5","0.0-0.0","p461294","AX27MR7AMU52H","3OWZNK3RYMVDNXPNEIRWZ8JM6MU2UY","39GAF6DQWT69YBULQ66OFV6PBYI1VN","model","mismatch","uniform","","","","","","","","","","","","","","","","","","","","","","","","","","","","","","",""
"preload","1","61904","0.0-1.0","p461294","AX27MR7AMU52H","3OWZNK3RYMVDNXPNEIRWZ8JM6MU2UY","39GAF6DQWT69YBULQ66OFV6PBYI1VN","model","mismatch","uniform","true","false","[]","[]","[]","","","","","","","","","","","","","","","","","","","","","","","","","",""
"fullscreen","2","717579","0.0-2.0","p461294","AX27MR7AMU52H","3OWZNK3RYMVDNXPNEIRWZ8JM6MU2UY","39GAF6DQWT69YBULQ66OFV6PBYI1VN","model","mismatch","uniform","true","","","","","","","","","","","","","","","","","","","","","","","","","","","","","",""
"instructions","3","721248","0.0-3.0","p461294","AX27MR7AMU52H","3OWZNK3RYMVDNXPNEIRWZ8JM6MU2UY","39GAF6DQWT69YBULQ66OFV6PBYI1VN","model","mismatch","uniform","","","","","","[{""page_index"":0,""viewing_time"":3665.800000011921}]","3666.800000011921","","","","","","","","","","","","","","","","","","","","","","","",""
"explore-choice","4","723878","0.0-4.0","p461294","AX27MR7AMU52H","3OWZNK3RYMVDNXPNEIRWZ8JM6MU2UY","39GAF6DQWT69YBULQ66OFV6PBYI1VN","model","mismatch","uniform","","","","","","","2126.600000023842","722463.3000000119","724589.9000000358","[""stimuli/sheep.jpg"",""stimuli/hammer.jpg"",""stimuli/basketball.jpg"",""stimuli/horse.jpg""]","stimuli/sheep.jpg","stimuli/hammer.jpg","stimuli/basketball.jpg","stimuli/horse.jpg","pos4","stimuli/horse.jpg","","","3","64","64","64","stimuli/stars_8.png","65","","","","","","",""
"explore-choice","5","725415","0.0-5.0","p461294","AX27MR7AMU52H","3OWZNK3RYMVDNXPNEIRWZ8JM6MU2UY","39GAF6DQWT69YBULQ66OFV6PBYI1VN","model","mismatch","uniform","","","","","","","1032","725093","726125","[""stimuli/hammer.jpg"",""stimuli/basketball.jpg"",""stimuli/horse.jpg"",""stimuli/sheep.jpg""]","stimuli/hammer.jpg","stimuli/basketball.jpg","stimuli/horse.jpg","stimuli/sheep.jpg","pos1","stimuli/hammer.jpg","","","0","8","8","8","stimuli/stars_2.png","9","","","","","","",""
"instructions","6","745070","0.0-6.0","p461294","AX27MR7AMU52H","3OWZNK3RYMVDNXPNEIRWZ8JM6MU2UY","39GAF6DQWT69YBULQ66OFV6PBYI1VN","model","mismatch","uniform","","","","","","[{""page_index"":0,""viewing_time"":19653.30000001192}]","19653.599999964237","","","","","","","","","","","","","","","","","","","","","","","",""
"explore-choice","7","747668","0.0-7.0","p461294","AX27MR7AMU52H","3OWZNK3RYMVDNXPNEIRWZ8JM6MU2UY","39GAF6DQWT69YBULQ66OFV6PBYI1VN","model","mismatch","uniform","","","","","","","2095.199999988079","746284.9000000358","748380.1000000238","[""stimuli/WM13_HO.jpg"",""stimuli/WM09_SC.jpg"",""stimuli/BF08_DO.jpg"",""stimuli/WM11_SUR.jpg""]","stimuli/WM13_HO.jpg","stimuli/WM09_SC.jpg","stimuli/BF08_DO.jpg","stimuli/WM11_SUR.jpg","pos1","stimuli/WM13_HO.jpg","HO","WM13","0","3.5","7","6","stimuli/stars_7.png","4.5","[""HO"",""SC"",""DO"",""SUR""]","[""WM13"",""WM09"",""BF08"",""WM11""]","[7,9,2,6]","[6,8,2,4]","","",""
"show-reward","8","749674","0.0-8.0","p461294","AX27MR7AMU52H","3OWZNK3RYMVDNXPNEIRWZ8JM6MU2UY","39GAF6DQWT69YBULQ66OFV6PBYI1VN","model","mismatch","uniform","","","","","","","","748884.1999999881","750888.1000000238","","","","","","","","","","","","7","","stimuli/stars_7.png","4.5","","","","","stimuli/WM13_HO.jpg","",""
"explore-choice","9","751764","0.0-9.0","p461294","AX27MR7AMU52H","3OWZNK3RYMVDNXPNEIRWZ8JM6MU2UY","39GAF6DQWT69YBULQ66OFV6PBYI1VN","model","mismatch","uniform","","","","","","","1586.6000000238419","750889.6999999881","752476.3000000119","[""stimuli/WM09_SUR.jpg"",""stimuli/BF08_DO.jpg"",""stimuli/WM11_SC.jpg"",""stimuli/WM13_HO.jpg""]","stimuli/WM09_SUR.jpg","stimuli/BF08_DO.jpg","stimuli/WM11_SC.jpg","stimuli/WM13_HO.jpg","pos4","stimuli/WM13_HO.jpg","HO","WM13","3","2","4","6","stimuli/stars_4.png","6.5","[""SUR"",""DO"",""SC"",""HO""]","[""WM09"",""BF08"",""WM11"",""WM13""]","[6,0,3,4]","[8,2,4,6]","","",""
"show-reward","10","753770","0.0-10.0","p461294","AX27MR7AMU52H","3OWZNK3RYMVDNXPNEIRWZ8JM6MU2UY","39GAF6DQWT69YBULQ66OFV6PBYI1VN","model","mismatch","uniform","","","","","","","","752978.9000000358","754982.9000000358","","","","","","","","","","","","4","","stimuli/stars_4.png","6.5","","","","","stimuli/WM13_HO.jpg","",""
"explore-choice","11","755554","0.0-11.0","p461294","AX27MR7AMU52H","3OWZNK3RYMVDNXPNEIRWZ8JM6MU2UY","39GAF6DQWT69YBULQ66OFV6PBYI1VN","model","mismatch","uniform","","","","","","","1275.7999999523163","754984.4000000358","756260.1999999881","[""stimuli/WM09_SC.jpg"",""stimuli/WM11_HO.jpg"",""stimuli/BF08_SUR.jpg"",""stimuli/WM13_DO.jpg""]","stimuli/WM09_SC.jpg","stimuli/WM11_HO.jpg","stimuli/BF08_SUR.jpg","stimuli/WM13_DO.jpg","pos3","stimuli/BF08_SUR.jpg","SUR","BF08","2","2","4","2","stimuli/stars_4.png","8.5","[""SC"",""HO"",""SUR"",""DO""]","[""WM09"",""WM11"",""BF08"",""WM13""]","[6,6,4,6]","[8,4,2,6]","","",""
"show-reward","12","757569","0.0-12.0","p461294","AX27MR7AMU52H","3OWZNK3RYMVDNXPNEIRWZ8JM6MU2UY","39GAF6DQWT69YBULQ66OFV6PBYI1VN","model","mismatch","uniform","","","","","","","","756768.6000000238","758781.5","","","","","","","","","","","","4","","stimuli/stars_4.png","8.5","","","","","stimuli/BF08_SUR.jpg","",""
"explore-choice","13","759075","0.0-13.0","p461294","AX27MR7AMU52H","3OWZNK3RYMVDNXPNEIRWZ8JM6MU2UY","39GAF6DQWT69YBULQ66OFV6PBYI1VN","model","mismatch","uniform","","","","","","","1004.3000000119209","758783.6000000238","759787.9000000358","[""stimuli/WM11_DO.jpg"",""stimuli/BF08_SUR.jpg"",""stimuli/WM13_SC.jpg"",""stimuli/WM09_HO.jpg""]","stimuli/WM11_DO.jpg","stimuli/BF08_SUR.jpg","stimuli/WM13_SC.jpg","stimuli/WM09_HO.jpg","pos1","stimuli/WM11_DO.jpg","DO","WM11","0","1","2","4","stimuli/stars_2.png","9.5","[""DO"",""SUR"",""SC"",""HO""]","[""WM11"",""BF08"",""WM13"",""WM09""]","[2,0,4,10]","[4,2,6,8]","","",""
"show-reward","14","761081","0.0-14.0","p461294","AX27MR7AMU52H","3OWZNK3RYMVDNXPNEIRWZ8JM6MU2UY","39GAF6DQWT69YBULQ66OFV6PBYI1VN","model","mismatch","uniform","","","","","","","","760289.8000000119","762294.1000000238","","","","","","","","","","","","2","","stimuli/stars_2.png","9.5","","","","","stimuli/WM11_DO.jpg","",""
"explore-choice","15","762788","0.0-15.0","p461294","AX27MR7AMU52H","3OWZNK3RYMVDNXPNEIRWZ8JM6MU2UY","39GAF6DQWT69YBULQ66OFV6PBYI1VN","model","mismatch","uniform","","","","","","","1204","762295.6999999881","763499.6999999881","[""stimuli/WM13_SUR.jpg"",""stimuli/WM11_SC.jpg"",""stimuli/BF08_DO.jpg"",""stimuli/WM09_HO.jpg""]","stimuli/WM13_SUR.jpg","stimuli/WM11_SC.jpg","stimuli/BF08_DO.jpg","stimuli/WM09_HO.jpg","pos4","stimuli/WM09_HO.jpg","HO","WM09","3","5","10","8","stimuli/stars_10.png","14.5","[""SUR"",""SC"",""DO"",""HO""]","[""WM13"",""WM11"",""BF08"",""WM09""]","[8,3,2,10]","[6,4,2,8]","","",""
"show-reward","16","764798","0.0-16.0","p461294","AX27MR7AMU52H","3OWZNK3RYMVDNXPNEIRWZ8JM6MU2UY","39GAF6DQWT69YBULQ66OFV6PBYI1VN","model","mismatch","uniform","","","","","","","","764002.8000000119","766011.1999999881","","","","","","","","","","","","10","","stimuli/stars_10.png","14.5","","","","","stimuli/WM09_HO.jpg","",""
"explore-choice","17","767627","0.0-17.0","p461294","AX27MR7AMU52H","3OWZNK3RYMVDNXPNEIRWZ8JM6MU2UY","39GAF6DQWT69YBULQ66OFV6PBYI1VN","model","mismatch","uniform","","","","","","","2327.199999988079","766012.6000000238","768339.8000000119","[""stimuli/BF08_SUR.jpg"",""stimuli/WM11_HO.jpg"",""stimuli/WM13_SC.jpg"",""stimuli/WM09_DO.jpg""]","stimuli/BF08_SUR.jpg","stimuli/WM11_HO.jpg","stimuli/WM13_SC.jpg","stimuli/WM09_DO.jpg","pos2","stimuli/WM11_HO.jpg","HO","WM11","1","3","6","4","stimuli/stars_6.png","17.5","[""SUR"",""HO"",""SC"",""DO""]","[""BF08"",""WM11"",""WM13"",""WM09""]","[4,6,8,7]","[2,4,6,8]","","",""
"show-reward","18","769633","0.0-18.0","p461294","AX27MR7AMU52H","3OWZNK3RYMVDNXPNEIRWZ8JM6MU2UY","39GAF6DQWT69YBULQ66OFV6PBYI1VN","model","mismatch","uniform","","","","","","","","768842","770846.1000000238","","","","","","","","","","","","6","","stimuli/stars_6.png","17.5","","","","","stimuli/WM11_HO.jpg","",""
"explore-choice","19","771731","0.0-19.0","p461294","AX27MR7AMU52H","3OWZNK3RYMVDNXPNEIRWZ8JM6MU2UY","39GAF6DQWT69YBULQ66OFV6PBYI1VN","model","mismatch","uniform","","","","","","","1596.300000011921","770847.5","772443.8000000119","[""stimuli/BF08_HO.jpg"",""stimuli/WM13_DO.jpg"",""stimuli/WM11_SC.jpg"",""stimuli/WM09_SUR.jpg""]","stimuli/BF08_HO.jpg","stimuli/WM13_DO.jpg","stimuli/WM11_SC.jpg","stimuli/WM09_SUR.jpg","pos1","stimuli/BF08_HO.jpg","HO","BF08","0","1.5","3","2","stimuli/stars_3.png","19","[""HO"",""DO"",""SC"",""SUR""]","[""BF08"",""WM13"",""WM11"",""WM09""]","[3,4,5,8]","[2,6,4,8]","","",""
"show-reward","20","773737","0.0-20.0","p461294","AX27MR7AMU52H","3OWZNK3RYMVDNXPNEIRWZ8JM6MU2UY","39GAF6DQWT69YBULQ66OFV6PBYI1VN","model","mismatch","uniform","","","","","","","","772946.1999999881","774950.1999999881","","","","","","","","","","","","3","","stimuli/stars_3.png","19","","","","","stimuli/BF08_HO.jpg","",""
"explore-choice","21","775700","0.0-21.0","p461294","AX27MR7AMU52H","3OWZNK3RYMVDNXPNEIRWZ8JM6MU2UY","39GAF6DQWT69YBULQ66OFV6PBYI1VN","model","mismatch","uniform","","","","","","","1459.800000011921","774951.6000000238","776411.4000000358","[""stimuli/WM11_SUR.jpg"",""stimuli/WM13_HO.jpg"",""stimuli/WM09_DO.jpg"",""stimuli/BF08_SC.jpg""]","stimuli/WM11_SUR.jpg","stimuli/WM13_HO.jpg","stimuli/WM09_DO.jpg","stimuli/BF08_SC.jpg","pos2","stimuli/WM13_HO.jpg","HO","WM13","1","4","8","6","stimuli/stars_8.png","23","[""SUR"",""HO"",""DO"",""SC""]","[""WM11"",""WM13"",""WM09"",""BF08""]","[6,8,8,0]","[4,6,8,2]","","",""
"show-reward","22","777709","0.0-22.0","p461294","AX27MR7AMU52H","3OWZNK3RYMVDNXPNEIRWZ8JM6MU2UY","39GAF6DQWT69YBULQ66OFV6PBYI1VN","model","mismatch","uniform","","","","","","","","776913.9000000358","778921.3000000119","","","","","","","","","","","","8","","stimuli/stars_8.png","23","","","","","stimuli/WM13_HO.jpg","",""
"explore-choice","23","780788","0.0-23.0","p461294","AX27MR7AMU52H","3OWZNK3RYMVDNXPNEIRWZ8JM6MU2UY","39GAF6DQWT69YBULQ66OFV6PBYI1VN","model","mismatch","uniform","","","","","","","2568.800000011921","778922.5","781491.3000000119","[""stimuli/WM11_SC.jpg"",""stimuli/BF08_HO.jpg"",""stimuli/WM09_DO.jpg"",""stimuli/WM13_SUR.jpg""]","stimuli/WM11_SC.jpg","stimuli/BF08_HO.jpg","stimuli/WM09_DO.jpg","stimuli/WM13_SUR.jpg","pos4","stimuli/WM13_SUR.jpg","SUR","WM13","3","3.5","7","6","stimuli/stars_7.png","26.5","[""SC"",""HO"",""DO"",""SUR""]","[""WM11"",""BF08"",""WM09"",""WM13""]","[5,3,8,7]","[4,2,8,6]","","",""
"show-reward","24","782799","0.0-24.0","p461294","AX27MR7AMU52H","3OWZNK3RYMVDNXPNEIRWZ8JM6MU2UY","39GAF6DQWT69YBULQ66OFV6PBYI1VN","model","mismatch","uniform","","","","","","","","782001.6000000238","784011.1999999881","","","","","","","","","","","","7","","stimuli/stars_7.png","26.5","","","","","stimuli/WM13_SUR.jpg","",""
"explore-choice","25","784484","0.0-25.0","p461294","AX27MR7AMU52H","3OWZNK3RYMVDNXPNEIRWZ8JM6MU2UY","39GAF6DQWT69YBULQ66OFV6PBYI1VN","model","mismatch","uniform","","","","","","","1183","784012.3000000119","785195.3000000119","[""stimuli/WM13_HO.jpg"",""stimuli/WM11_DO.jpg"",""stimuli/BF08_SC.jpg"",""stimuli/WM09_SUR.jpg""]","stimuli/WM13_HO.jpg","stimuli/WM11_DO.jpg","stimuli/BF08_SC.jpg","stimuli/WM09_SUR.jpg","pos4","stimuli/WM09_SUR.jpg","SUR","WM09","3","4.5","9","8","stimuli/stars_9.png","31","[""HO"",""DO"",""SC"",""SUR""]","[""WM13"",""WM11"",""BF08"",""WM09""]","[7,5,3,9]","[6,4,2,8]","","",""
"show-reward","26","786490","0.0-26.0","p461294","AX27MR7AMU52H","3OWZNK3RYMVDNXPNEIRWZ8JM6MU2UY","39GAF6DQWT69YBULQ66OFV6PBYI1VN","model","mismatch","uniform","","","","","","","","785698","787702.3000000119","","","","","","","","","","","","9","","stimuli/stars_9.png","31","","","","","stimuli/WM09_SUR.jpg","",""
"explore-choice","27","788371","0.0-27.0","p461294","AX27MR7AMU52H","3OWZNK3RYMVDNXPNEIRWZ8JM6MU2UY","39GAF6DQWT69YBULQ66OFV6PBYI1VN","model","mismatch","uniform","","","","","","","1379.3999999761581","787703.6000000238","789083","[""stimuli/WM09_SC.jpg"",""stimuli/BF08_DO.jpg"",""stimuli/WM11_HO.jpg"",""stimuli/WM13_SUR.jpg""]","stimuli/WM09_SC.jpg","stimuli/BF08_DO.jpg","stimuli/WM11_HO.jpg","stimuli/WM13_SUR.jpg","pos4","stimuli/WM13_SUR.jpg","SUR","WM13","3","2","4","6","stimuli/stars_4.png","33","[""SC"",""DO"",""HO"",""SUR""]","[""WM09"",""BF08"",""WM11"",""WM13""]","[9,0,4,4]","[8,2,4,6]","","",""
"show-reward","28","790379","0.0-28.0","p461294","AX27MR7AMU52H","3OWZNK3RYMVDNXPNEIRWZ8JM6MU2UY","39GAF6DQWT69YBULQ66OFV6PBYI1VN","model","mismatch","uniform","","","","","","","","789584.6999999881","791591.4000000358","","","","","","","","","","","","4","","stimuli/stars_4.png","33","","","","","stimuli/WM13_SUR.jpg","",""
"explore-choice","29","792148","0.0-29.0","p461294","AX27MR7AMU52H","3OWZNK3RYMVDNXPNEIRWZ8JM6MU2UY","39GAF6DQWT69YBULQ66OFV6PBYI1VN","model","mismatch","uniform","","","","","","","1258.199999988079","791592.6000000238","792850.8000000119","[""stimuli/WM09_SUR.jpg"",""stimuli/WM11_HO.jpg"",""stimuli/WM13_DO.jpg"",""stimuli/BF08_SC.jpg""]","stimuli/WM09_SUR.jpg","stimuli/WM11_HO.jpg","stimuli/WM13_DO.jpg","stimuli/BF08_SC.jpg","pos2","stimuli/WM11_HO.jpg","HO","WM11","1","2","4","4","stimuli/stars_4.png","35","[""SUR"",""HO"",""DO"",""SC""]","[""WM09"",""WM11"",""WM13"",""BF08""]","[8,4,8,4]","[8,4,6,2]","","",""
"show-reward","30","794160","0.0-30.0","p461294","AX27MR7AMU52H","3OWZNK3RYMVDNXPNEIRWZ8JM6MU2UY","39GAF6DQWT69YBULQ66OFV6PBYI1VN","model","mismatch","uniform","","","","","","","","793361","795372.6000000238","","","","","","","","","","","","4","","stimuli/stars_4.png","35","","","","","stimuli/WM11_HO.jpg","",""
"explore-choice","31","797137","0.0-31.0","p461294","AX27MR7AMU52H","3OWZNK3RYMVDNXPNEIRWZ8JM6MU2UY","39GAF6DQWT69YBULQ66OFV6PBYI1VN","model","mismatch","uniform","","","","","","","2468.899999976158","795373.8000000119","797842.6999999881","[""stimuli/WM09_HO.jpg"",""stimuli/WM11_SUR.jpg"",""stimuli/BF08_DO.jpg"",""stimuli/WM13_SC.jpg""]","stimuli/WM09_HO.jpg","stimuli/WM11_SUR.jpg","stimuli/BF08_DO.jpg","stimuli/WM13_SC.jpg","pos1","stimuli/WM09_HO.jpg","HO","WM09","0","4","8","8","stimuli/stars_8.png","39","[""HO"",""SUR"",""DO"",""SC""]","[""WM09"",""WM11"",""BF08"",""WM13""]","[8,4,1,5]","[8,4,2,6]","","",""
"show-reward","32","799141","0.0-32.0","p461294","AX27MR7AMU52H","3OWZNK3RYMVDNXPNEIRWZ8JM6MU2UY","39GAF6DQWT69YBULQ66OFV6PBYI1VN","model","mismatch","uniform","","","","","","","","798350.3000000119","800353.4000000358","","","","","","","","","","","","8","","stimuli/stars_8.png","39","","","","","stimuli/WM09_HO.jpg","",""
"explore-choice","33","800699","0.0-33.0","p461294","AX27MR7AMU52H","3OWZNK3RYMVDNXPNEIRWZ8JM6MU2UY","39GAF6DQWT69YBULQ66OFV6PBYI1VN","model","mismatch","uniform","","","","","","","1056","800354.8000000119","801410.8000000119","[""stimuli/WM13_SC.jpg"",""stimuli/BF08_DO.jpg"",""stimuli/WM09_SUR.jpg"",""stimuli/WM11_HO.jpg""]","stimuli/WM13_SC.jpg","stimuli/BF08_DO.jpg","stimuli/WM09_SUR.jpg","stimuli/WM11_HO.jpg","pos4","stimuli/WM11_HO.jpg","HO","WM11","3","2","4","4","stimuli/stars_4.png","41","[""SC"",""DO"",""SUR"",""HO""]","[""WM13"",""BF08"",""WM09"",""WM11""]","[4,3,9,4]","[6,2,8,4]","","",""
"show-reward","34","802704","0.0-34.0","p461294","AX27MR7AMU52H","3OWZNK3RYMVDNXPNEIRWZ8JM6MU2UY","39GAF6DQWT69YBULQ66OFV6PBYI1VN","model","mismatch","uniform","","","","","","","","801912.9000000358","803916.4000000358","","","","","","","","","","","","4","","stimuli/stars_4.png","41","","","","","stimuli/WM11_HO.jpg","",""
"explore-choice","35","805460","0.0-35.0","p461294","AX27MR7AMU52H","3OWZNK3RYMVDNXPNEIRWZ8JM6MU2UY","39GAF6DQWT69YBULQ66OFV6PBYI1VN","model","mismatch","uniform","","","","","","","2252.900000035763","803917.6999999881","806170.6000000238","[""stimuli/WM13_SUR.jpg"",""stimuli/BF08_HO.jpg"",""stimuli/WM09_SC.jpg"",""stimuli/WM11_DO.jpg""]","stimuli/WM13_SUR.jpg","stimuli/BF08_HO.jpg","stimuli/WM09_SC.jpg","stimuli/WM11_DO.jpg","pos3","stimuli/WM09_SC.jpg","SC","WM09","2","3.5","7","8","stimuli/stars_7.png","44.5","[""SUR"",""HO"",""SC"",""DO""]","[""WM13"",""BF08"",""WM09"",""WM11""]","[8,4,7,4]","[6,2,8,4]","","",""
"show-reward","36","807465","0.0-36.0","p461294","AX27MR7AMU52H","3OWZNK3RYMVDNXPNEIRWZ8JM6MU2UY","39GAF6DQWT69YBULQ66OFV6PBYI1VN","model","mismatch","uniform","","","","","","","","806673.6999999881","808677.6000000238","","","","","","","","","","","","7","","stimuli/stars_7.png","44.5","","","","","stimuli/WM09_SC.jpg","",""
"explore-choice","37","809275","0.0-37.0","p461294","AX27MR7AMU52H","3OWZNK3RYMVDNXPNEIRWZ8JM6MU2UY","39GAF6DQWT69YBULQ66OFV6PBYI1VN","model","mismatch","uniform","","","","","","","1307.800000011921","808678.8000000119","809986.6000000238","[""stimuli/WM13_SUR.jpg"",""stimuli/BF08_SC.jpg"",""stimuli/WM11_DO.jpg"",""stimuli/WM09_HO.jpg""]","stimuli/WM13_SUR.jpg","stimuli/BF08_SC.jpg","stimuli/WM11_DO.jpg","stimuli/WM09_HO.jpg","pos1","stimuli/WM13_SUR.jpg","SUR","WM13","0","4","8","6","stimuli/stars_8.png","48.5","[""SUR"",""SC"",""DO"",""HO""]","[""WM13"",""BF08"",""WM11"",""WM09""]","[8,0,2,6]","[6,2,4,8]","","",""
"show-reward","38","811280","0.0-38.0","p461294","AX27MR7AMU52H","3OWZNK3RYMVDNXPNEIRWZ8JM6MU2UY","39GAF6DQWT69YBULQ66OFV6PBYI1VN","model","mismatch","uniform","","","","","","","","810489","812492.5","","","","","","","","","","","","8","","stimuli/stars_8.png","48.5","","","","","stimuli/WM13_SUR.jpg","",""
"explore-choice","39","813099","0.0-39.0","p461294","AX27MR7AMU52H","3OWZNK3RYMVDNXPNEIRWZ8JM6MU2UY","39GAF6DQWT69YBULQ66OFV6PBYI1VN","model","mismatch","uniform","","","","","","","1316.3999999761581","812493.9000000358","813810.3000000119","[""stimuli/WM11_DO.jpg"",""stimuli/WM13_SC.jpg"",""stimuli/WM09_SUR.jpg"",""stimuli/BF08_HO.jpg""]","stimuli/WM11_DO.jpg","stimuli/WM13_SC.jpg","stimuli/WM09_SUR.jpg","stimuli/BF08_HO.jpg","pos2","stimuli/WM13_SC.jpg","SC","WM13","1","3","6","6","stimuli/stars_6.png","51.5","[""DO"",""SC"",""SUR"",""HO""]","[""WM11"",""WM13"",""WM09"",""BF08""]","[6,6,10,3]","[4,6,8,2]","","",""
"show-reward","40","815109","0.0-40.0","p461294","AX27MR7AMU52H","3OWZNK3RYMVDNXPNEIRWZ8JM6MU2UY","39GAF6DQWT69YBULQ66OFV6PBYI1VN","model","mismatch","uniform","","","","","","","","814312.4000000358","816320.8000000119","","","","","","","","","","","","6","","stimuli/stars_6.png","51.5","","","","","stimuli/WM13_SC.jpg","",""
"explore-choice","41","816599","0.0-41.0","p461294","AX27MR7AMU52H","3OWZNK3RYMVDNXPNEIRWZ8JM6MU2UY","39GAF6DQWT69YBULQ66OFV6PBYI1VN","model","mismatch","uniform","","","","","","","984.3999999761581","816322.4000000358","817306.8000000119","[""stimuli/WM11_HO.jpg"",""stimuli/BF08_SC.jpg"",""stimuli/WM13_SUR.jpg"",""stimuli/WM09_DO.jpg""]","stimuli/WM11_HO.jpg","stimuli/BF08_SC.jpg","stimuli/WM13_SUR.jpg","stimuli/WM09_DO.jpg","pos2","stimuli/BF08_SC.jpg","SC","BF08","1","0.5","1","2","stimuli/stars_1.png","52","[""HO"",""SC"",""SUR"",""DO""]","[""WM11"",""BF08"",""WM13"",""WM09""]","[5,1,8,6]","[4,2,6,8]","","",""
"show-reward","42","818603","0.0-42.0","p461294","AX27MR7AMU52H","3OWZNK3RYMVDNXPNEIRWZ8JM6MU2UY","39GAF6DQWT69YBULQ66OFV6PBYI1VN","model","mismatch","uniform","","","","","","","","817812.1999999881","819815.6999999881","","","","","","","","","","","","1","","stimuli/stars_1.png","52","","","","","stimuli/BF08_SC.jpg","",""
"explore-choice","43","820473","0.0-43.0","p461294","AX27MR7AMU52H","3OWZNK3RYMVDNXPNEIRWZ8JM6MU2UY","39GAF6DQWT69YBULQ66OFV6PBYI1VN","model","mismatch","uniform","","","","","","","1361.5","819817","821178.5","[""stimuli/WM13_SC.jpg"",""stimuli/WM11_SUR.jpg"",""stimuli/WM09_DO.jpg"",""stimuli/BF08_HO.jpg""]","stimuli/WM13_SC.jpg","stimuli/WM11_SUR.jpg","stimuli/WM09_DO.jpg","stimuli/BF08_HO.jpg","pos4","stimuli/BF08_HO.jpg","HO","BF08","3","2","4","2","stimuli/stars_4.png","54","[""SC"",""SUR"",""DO"",""HO""]","[""WM13"",""WM11"",""WM09"",""BF08""]","[7,4,9,4]","[6,4,8,2]","","",""
"show-reward","44","822478","0.0-44.0","p461294","AX27MR7AMU52H","3OWZNK3RYMVDNXPNEIRWZ8JM6MU2UY","39GAF6DQWT69YBULQ66OFV6PBYI1VN","model","mismatch","uniform","","","","","","","","821686.4000000358","823689.9000000358","","","","","","","","","","","","4","","stimuli/stars_4.png","54","","","","","stimuli/BF08_HO.jpg","",""
"explore-choice","45","823487","0.0-45.0","p461294","AX27MR7AMU52H","3OWZNK3RYMVDNXPNEIRWZ8JM6MU2UY","39GAF6DQWT69YBULQ66OFV6PBYI1VN","model","mismatch","uniform","","","","","","","502.60000002384186","823691","824193.6000000238","[""stimuli/WM13_DO.jpg"",""stimuli/WM09_HO.jpg"",""stimuli/WM11_SUR.jpg"",""stimuli/BF08_SC.jpg""]","stimuli/WM13_DO.jpg","stimuli/WM09_HO.jpg","stimuli/WM11_SUR.jpg","stimuli/BF08_SC.jpg","pos1","stimuli/WM13_DO.jpg","DO","WM13","0","2","4","6","stimuli/stars_4.png","56","[""DO"",""HO"",""SUR"",""SC""]","[""WM13"",""WM09"",""WM11"",""BF08""]","[4,8,5,0]","[6,8,4,2]","","",""
"show-reward","46","825492","0.0-46.0","p461294","AX27MR7AMU52H","3OWZNK3RYMVDNXPNEIRWZ8JM6MU2UY","39GAF6DQWT69YBULQ66OFV6PBYI1VN","model","mismatch","uniform","","","","","","","","824700.4000000358","826703.9000000358","","","","","","","","","","","","4","","stimuli/stars_4.png","56","","","","","stimuli/WM13_DO.jpg","",""
"explore-choice","47","827291","0.0-47.0","p461294","AX27MR7AMU52H","3OWZNK3RYMVDNXPNEIRWZ8JM6MU2UY","39GAF6DQWT69YBULQ66OFV6PBYI1VN","model","mismatch","uniform","","","","","","","1297","826705.1000000238","828002.1000000238","[""stimuli/WM09_SC.jpg"",""stimuli/BF08_SUR.jpg"",""stimuli/WM13_HO.jpg"",""stimuli/WM11_DO.jpg""]","stimuli/WM09_SC.jpg","stimuli/BF08_SUR.jpg","stimuli/WM13_HO.jpg","stimuli/WM11_DO.jpg","pos3","stimuli/WM13_HO.jpg","HO","WM13","2","2.5","5","6","stimuli/stars_5.png","58.5","[""SC"",""SUR"",""HO"",""DO""]","[""WM09"",""BF08"",""WM13"",""WM11""]","[9,2,5,2]","[8,2,6,4]","","",""
"show-reward","48","829296","0.0-48.0","p461294","AX27MR7AMU52H","3OWZNK3RYMVDNXPNEIRWZ8JM6MU2UY","39GAF6DQWT69YBULQ66OFV6PBYI1VN","model","mismatch","uniform","","","","","","","","828504.5","830507.9000000358","","","","","","","","","","","","5","","stimuli/stars_5.png","58.5","","","","","stimuli/WM13_HO.jpg","",""
"explore-choice","49","831350","0.0-49.0","p461294","AX27MR7AMU52H","3OWZNK3RYMVDNXPNEIRWZ8JM6MU2UY","39GAF6DQWT69YBULQ66OFV6PBYI1VN","model","mismatch","uniform","","","","","","","1548.9000000357628","830509","832057.9000000358","[""stimuli/WM13_DO.jpg"",""stimuli/BF08_SUR.jpg"",""stimuli/WM11_SC.jpg"",""stimuli/WM09_HO.jpg""]","stimuli/WM13_DO.jpg","stimuli/BF08_SUR.jpg","stimuli/WM11_SC.jpg","stimuli/WM09_HO.jpg","pos4","stimuli/WM09_HO.jpg","HO","WM09","3","3.5","7","8","stimuli/stars_7.png","62","[""DO"",""SUR"",""SC"",""HO""]","[""WM13"",""BF08"",""WM11"",""WM09""]","[4,4,2,7]","[6,2,4,8]","","",""
"show-reward","50","833355","0.0-50.0","p461294","AX27MR7AMU52H","3OWZNK3RYMVDNXPNEIRWZ8JM6MU2UY","39GAF6DQWT69YBULQ66OFV6PBYI1VN","model","mismatch","uniform","","","","","","","","832563.1999999881","834566.9000000358","","","","","","","","","","","","7","","stimuli/stars_7.png","62","","","","","stimuli/WM09_HO.jpg","",""
"explore-choice","51","835563","0.0-51.0","p461294","AX27MR7AMU52H","3OWZNK3RYMVDNXPNEIRWZ8JM6MU2UY","39GAF6DQWT69YBULQ66OFV6PBYI1VN","model","mismatch","uniform","","","","","","","1705.5999999642372","834568.1000000238","836273.6999999881","[""stimuli/WM13_DO.jpg"",""stimuli/WM09_SC.jpg"",""stimuli/BF08_HO.jpg"",""stimuli/WM11_SUR.jpg""]","stimuli/WM13_DO.jpg","stimuli/WM09_SC.jpg","stimuli/BF08_HO.jpg","stimuli/WM11_SUR.jpg","pos3","stimuli/BF08_HO.jpg","HO","BF08","2","0.5","1","2","stimuli/stars_1.png","62.5","[""DO"",""SC"",""HO"",""SUR""]","[""WM13"",""WM09"",""BF08"",""WM11""]","[6,8,1,6]","[6,8,2,4]","","",""
"show-reward","52","837570","0.0-52.0","p461294","AX27MR7AMU52H","3OWZNK3RYMVDNXPNEIRWZ8JM6MU2UY","39GAF6DQWT69YBULQ66OFV6PBYI1VN","model","mismatch","uniform","","","","","","","","836775.6999999881","838780","","","","","","","","","","","","1","","stimuli/stars_1.png","62.5","","","","","stimuli/BF08_HO.jpg","",""
"explore-choice","53","839940","0.0-53.0","p461294","AX27MR7AMU52H","3OWZNK3RYMVDNXPNEIRWZ8JM6MU2UY","39GAF6DQWT69YBULQ66OFV6PBYI1VN","model","mismatch","uniform","","","","","","","1859.5","838782.1000000238","840641.6000000238","[""stimuli/WM13_HO.jpg"",""stimuli/WM09_DO.jpg"",""stimuli/WM11_SC.jpg"",""stimuli/BF08_SUR.jpg""]","stimuli/WM13_HO.jpg","stimuli/WM09_DO.jpg","stimuli/WM11_SC.jpg","stimuli/BF08_SUR.jpg","pos3","stimuli/WM11_SC.jpg","SC","WM11","2","1.5","3","4","stimuli/stars_3.png","64","[""HO"",""DO"",""SC"",""SUR""]","[""WM13"",""WM09"",""WM11"",""BF08""]","[7,6,3,4]","[6,8,4,2]","","",""
"show-reward","54","841949","0.0-54.0","p461294","AX27MR7AMU52H","3OWZNK3RYMVDNXPNEIRWZ8JM6MU2UY","39GAF6DQWT69YBULQ66OFV6PBYI1VN","model","mismatch","uniform","","","","","","","","841152.6999999881","843160.3000000119","","","","","","","","","","","","3","","stimuli/stars_3.png","64","","","","","stimuli/WM11_SC.jpg","",""
"explore-choice","55","843431","0.0-55.0","p461294","AX27MR7AMU52H","3OWZNK3RYMVDNXPNEIRWZ8JM6MU2UY","39GAF6DQWT69YBULQ66OFV6PBYI1VN","model","mismatch","uniform","","","","","","","976","843161.5","844137.5","[""stimuli/BF08_SC.jpg"",""stimuli/WM13_DO.jpg"",""stimuli/WM11_HO.jpg"",""stimuli/WM09_SUR.jpg""]","stimuli/BF08_SC.jpg","stimuli/WM13_DO.jpg","stimuli/WM11_HO.jpg","stimuli/WM09_SUR.jpg","pos2","stimuli/WM13_DO.jpg","DO","WM13","1","4","8","6","stimuli/stars_8.png","68","[""SC"",""DO"",""HO"",""SUR""]","[""BF08"",""WM13"",""WM11"",""WM09""]","[4,8,4,8]","[2,6,4,8]","","",""
"show-reward","56","845440","0.0-56.0","p461294","AX27MR7AMU52H","3OWZNK3RYMVDNXPNEIRWZ8JM6MU2UY","39GAF6DQWT69YBULQ66OFV6PBYI1VN","model","mismatch","uniform","","","","","","","","844643.1999999881","846651.5","","","","","","","","","","","","8","","stimuli/stars_8.png","68","","","","","stimuli/WM13_DO.jpg","",""
"explore-choice","57","847491","0.0-57.0","p461294","AX27MR7AMU52H","3OWZNK3RYMVDNXPNEIRWZ8JM6MU2UY","39GAF6DQWT69YBULQ66OFV6PBYI1VN","model","mismatch","uniform","","","","","","","1548.699999988079","846652.8000000119","848201.5","[""stimuli/WM09_SC.jpg"",""stimuli/BF08_DO.jpg"",""stimuli/WM13_SUR.jpg"",""stimuli/WM11_HO.jpg""]","stimuli/WM09_SC.jpg","stimuli/BF08_DO.jpg","stimuli/WM13_SUR.jpg","stimuli/WM11_HO.jpg","pos4","stimuli/WM11_HO.jpg","HO","WM11","3","2","4","4","stimuli/stars_4.png","70","[""SC"",""DO"",""SUR"",""HO""]","[""WM09"",""BF08"",""WM13"",""WM11""]","[9,0,4,4]","[8,2,6,4]","","",""
"show-reward","58","849496","0.0-58.0","p461294","AX27MR7AMU52H","3OWZNK3RYMVDNXPNEIRWZ8JM6MU2UY","39GAF6DQWT69YBULQ66OFV6PBYI1VN","model","mismatch","uniform","","","","","","","","848703.6000000238","850707.1999999881","","","","","","","","","","","","4","","stimuli/stars_4.png","70","","","","","stimuli/WM11_HO.jpg","",""
"explore-choice","59","850966","0.0-59.0","p461294","AX27MR7AMU52H","3OWZNK3RYMVDNXPNEIRWZ8JM6MU2UY","39GAF6DQWT69YBULQ66OFV6PBYI1VN","model","mismatch","uniform","","","","","","","965","850708.4000000358","851673.4000000358","[""stimuli/BF08_DO.jpg"",""stimuli/WM11_HO.jpg"",""stimuli/WM13_SC.jpg"",""stimuli/WM09_SUR.jpg""]","stimuli/BF08_DO.jpg","stimuli/WM11_HO.jpg","stimuli/WM13_SC.jpg","stimuli/WM09_SUR.jpg","pos4","stimuli/WM09_SUR.jpg","SUR","WM09","3","4.5","9","8","stimuli/stars_9.png","74.5","[""DO"",""HO"",""SC"",""SUR""]","[""BF08"",""WM11"",""WM13"",""WM09""]","[3,4,4,9]","[2,4,6,8]","","",""
"show-reward","60","852978","0.0-60.0","p461294","AX27MR7AMU52H","3OWZNK3RYMVDNXPNEIRWZ8JM6MU2UY","39GAF6DQWT69YBULQ66OFV6PBYI1VN","model","mismatch","uniform","","","","","","","","852178.8000000119","854189.1999999881","","","","","","","","","","","","9","","stimuli/stars_9.png","74.5","","","","","stimuli/WM09_SUR.jpg","",""
"explore-choice","61","854285","0.0-61.0","p461294","AX27MR7AMU52H","3OWZNK3RYMVDNXPNEIRWZ8JM6MU2UY","39GAF6DQWT69YBULQ66OFV6PBYI1VN","model","mismatch","uniform","","","","","","","802.6999999880791","854190.5","854993.1999999881","[""stimuli/WM09_DO.jpg"",""stimuli/WM11_HO.jpg"",""stimuli/BF08_SC.jpg"",""stimuli/WM13_SUR.jpg""]","stimuli/WM09_DO.jpg","stimuli/WM11_HO.jpg","stimuli/BF08_SC.jpg","stimuli/WM13_SUR.jpg","pos4","stimuli/WM13_SUR.jpg","SUR","WM13","3","4","8","6","stimuli/stars_8.png","78.5","[""DO"",""HO"",""SC"",""SUR""]","[""WM09"",""WM11"",""BF08"",""WM13""]","[6,5,1,8]","[8,4,2,6]","","",""
"show-reward","62","856290","0.0-62.0","p461294","AX27MR7AMU52H","3OWZNK3RYMVDNXPNEIRWZ8JM6MU2UY","39GAF6DQWT69YBULQ66OFV6PBYI1VN","model","mismatch","uniform","","","","","","","","855497.6000000238","857501.1000000238","","","","","","","","","","","","8","","stimuli/stars_8.png","78.5","","","","","stimuli/WM13_SUR.jpg","",""
"explore-choice","63","857360","0.0-63.0","p461294","AX27MR7AMU52H","3OWZNK3RYMVDNXPNEIRWZ8JM6MU2UY","39GAF6DQWT69YBULQ66OFV6PBYI1VN","model","mismatch","uniform","","","","","","","562.5","857502.6000000238","858065.1000000238","[""stimuli/BF08_SUR.jpg"",""stimuli/WM11_SC.jpg"",""stimuli/WM09_HO.jpg"",""stimuli/WM13_DO.jpg""]","stimuli/BF08_SUR.jpg","stimuli/WM11_SC.jpg","stimuli/WM09_HO.jpg","stimuli/WM13_DO.jpg","pos4","stimuli/WM13_DO.jpg","DO","WM13","3","2","4","6","stimuli/stars_4.png","80.5","[""SUR"",""SC"",""HO"",""DO""]","[""BF08"",""WM11"",""WM09"",""WM13""]","[4,2,7,4]","[2,4,8,6]","","",""
"show-reward","64","859368","0.0-64.0","p461294","AX27MR7AMU52H","3OWZNK3RYMVDNXPNEIRWZ8JM6MU2UY","39GAF6DQWT69YBULQ66OFV6PBYI1VN","model","mismatch","uniform","","","","","","","","858572.8000000119","860579.3000000119","","","","","","","","","","","","4","","stimuli/stars_4.png","80.5","","","","","stimuli/WM13_DO.jpg","",""
"explore-choice","65","860690","0.0-65.0","p461294","AX27MR7AMU52H","3OWZNK3RYMVDNXPNEIRWZ8JM6MU2UY","39GAF6DQWT69YBULQ66OFV6PBYI1VN","model","mismatch","uniform","","","","","","","820.4000000357628","860580.6999999881","861401.1000000238","[""stimuli/WM11_SC.jpg"",""stimuli/WM13_HO.jpg"",""stimuli/BF08_SUR.jpg"",""stimuli/WM09_DO.jpg""]","stimuli/WM11_SC.jpg","stimuli/WM13_HO.jpg","stimuli/BF08_SUR.jpg","stimuli/WM09_DO.jpg","pos2","stimuli/WM13_HO.jpg","HO","WM13","1","3.5","7","6","stimuli/stars_7.png","84","[""SC"",""HO"",""SUR"",""DO""]","[""WM11"",""WM13"",""BF08"",""WM09""]","[3,7,4,6]","[4,6,2,8]","","",""
"show-reward","66","862695","0.0-66.0","p461294","AX27MR7AMU52H","3OWZNK3RYMVDNXPNEIRWZ8JM6MU2UY","39GAF6DQWT69YBULQ66OFV6PBYI1VN","model","mismatch","uniform","","","","","","","","861902.8000000119","863906.1000000238","","","","","","","","","","","","7","","stimuli/stars_7.png","84","","","","","stimuli/WM13_HO.jpg","",""
"explore-choice","67","863868","0.0-67.0","p461294","AX27MR7AMU52H","3OWZNK3RYMVDNXPNEIRWZ8JM6MU2UY","39GAF6DQWT69YBULQ66OFV6PBYI1VN","model","mismatch","uniform","","","","","","","669","863907.5","864576.5","[""stimuli/WM11_SUR.jpg"",""stimuli/WM09_HO.jpg"",""stimuli/BF08_DO.jpg"",""stimuli/WM13_SC.jpg""]","stimuli/WM11_SUR.jpg","stimuli/WM09_HO.jpg","stimuli/BF08_DO.jpg","stimuli/WM13_SC.jpg","pos2","stimuli/WM09_HO.jpg","HO","WM09","1","4","8","8","stimuli/stars_8.png","88","[""SUR"",""HO"",""DO"",""SC""]","[""WM11"",""WM09"",""BF08"",""WM13""]","[4,8,1,5]","[4,8,2,6]","","",""
"show-reward","68","865878","0.0-68.0","p461294","AX27MR7AMU52H","3OWZNK3RYMVDNXPNEIRWZ8JM6MU2UY","39GAF6DQWT69YBULQ66OFV6PBYI1VN","model","mismatch","uniform","","","","","","","","865080.9000000358","867089.4000000358","","","","","","","","","","","","8","","stimuli/stars_8.png","88","","","","","stimuli/WM09_HO.jpg","",""
"explore-choice","69","867696","0.0-69.0","p461294","AX27MR7AMU52H","3OWZNK3RYMVDNXPNEIRWZ8JM6MU2UY","39GAF6DQWT69YBULQ66OFV6PBYI1VN","model","mismatch","uniform","","","","","","","1310.0999999642372","867090.6000000238","868400.6999999881","[""stimuli/WM09_SC.jpg"",""stimuli/WM13_SUR.jpg"",""stimuli/BF08_HO.jpg"",""stimuli/WM11_DO.jpg""]","stimuli/WM09_SC.jpg","stimuli/WM13_SUR.jpg","stimuli/BF08_HO.jpg","stimuli/WM11_DO.jpg","pos2","stimuli/WM13_SUR.jpg","SUR","WM13","1","4","8","6","stimuli/stars_8.png","92","[""SC"",""SUR"",""HO"",""DO""]","[""WM09"",""WM13"",""BF08"",""WM11""]","[7,8,4,4]","[8,6,2,4]","","",""
"show-reward","70","869708","0.0-70.0","p461294","AX27MR7AMU52H","3OWZNK3RYMVDNXPNEIRWZ8JM6MU2UY","39GAF6DQWT69YBULQ66OFV6PBYI1VN","model","mismatch","uniform","","","","","","","","868908.1999999881","870919.3000000119","","","","","","","","","","","","8","","stimuli/stars_8.png","92","","","","","stimuli/WM13_SUR.jpg","",""
"explore-choice","71","871678","0.0-71.0","p461294","AX27MR7AMU52H","3OWZNK3RYMVDNXPNEIRWZ8JM6MU2UY","39GAF6DQWT69YBULQ66OFV6PBYI1VN","model","mismatch","uniform","","","","","","","1464.1000000238419","870920.6999999881","872384.8000000119","[""stimuli/BF08_HO.jpg"",""stimuli/WM13_DO.jpg"",""stimuli/WM11_SC.jpg"",""stimuli/WM09_SUR.jpg""]","stimuli/BF08_HO.jpg","stimuli/WM13_DO.jpg","stimuli/WM11_SC.jpg","stimuli/WM09_SUR.jpg","pos3","stimuli/WM11_SC.jpg","SC","WM11","2","2.5","5","4","stimuli/stars_5.png","94.5","[""HO"",""DO"",""SC"",""SUR""]","[""BF08"",""WM13"",""WM11"",""WM09""]","[3,4,5,8]","[2,6,4,8]","","",""
"show-reward","72","873688","0.0-72.0","p461294","AX27MR7AMU52H","3OWZNK3RYMVDNXPNEIRWZ8JM6MU2UY","39GAF6DQWT69YBULQ66OFV6PBYI1VN","model","mismatch","uniform","","","","","","","","872890.9000000358","874899.3000000119","","","","","","","","","","","","5","","stimuli/stars_5.png","94.5","","","","","stimuli/WM11_SC.jpg","",""
"explore-choice","73","874962","0.0-73.0","p461294","AX27MR7AMU52H","3OWZNK3RYMVDNXPNEIRWZ8JM6MU2UY","39GAF6DQWT69YBULQ66OFV6PBYI1VN","model","mismatch","uniform","","","","","","","772.3000000119209","874900.3000000119","875672.6000000238","[""stimuli/WM11_DO.jpg"",""stimuli/WM09_HO.jpg"",""stimuli/BF08_SC.jpg"",""stimuli/WM13_SUR.jpg""]","stimuli/WM11_DO.jpg","stimuli/WM09_HO.jpg","stimuli/BF08_SC.jpg","stimuli/WM13_SUR.jpg","pos4","stimuli/WM13_SUR.jpg","SUR","WM13","3","4","8","6","stimuli/stars_8.png","98.5","[""DO"",""HO"",""SC"",""SUR""]","[""WM11"",""WM09"",""BF08"",""WM13""]","[2,6,0,8]","[4,8,2,6]","","",""
"show-reward","74","876967","0.0-74.0","p461294","AX27MR7AMU52H","3OWZNK3RYMVDNXPNEIRWZ8JM6MU2UY","39GAF6DQWT69YBULQ66OFV6PBYI1VN","model","mismatch","uniform","","","","","","","","876174.8000000119","878178.3000000119","","","","","","","","","","","","8","","stimuli/stars_8.png","98.5","","","","","stimuli/WM13_SUR.jpg","",""
"explore-choice","75","878442","0.0-75.0","p461294","AX27MR7AMU52H","3OWZNK3RYMVDNXPNEIRWZ8JM6MU2UY","39GAF6DQWT69YBULQ66OFV6PBYI1VN","model","mismatch","uniform","","","","","","","973.1000000238419","878179.6999999881","879152.8000000119","[""stimuli/WM11_DO.jpg"",""stimuli/WM13_HO.jpg"",""stimuli/WM09_SUR.jpg"",""stimuli/BF08_SC.jpg""]","stimuli/WM11_DO.jpg","stimuli/WM13_HO.jpg","stimuli/WM09_SUR.jpg","stimuli/BF08_SC.jpg","pos2","stimuli/WM13_HO.jpg","HO","WM13","1","3.5","7","6","stimuli/stars_7.png","102","[""DO"",""HO"",""SUR"",""SC""]","[""WM11"",""WM13"",""WM09"",""BF08""]","[5,7,9,3]","[4,6,8,2]","","",""
"show-reward","76","880447","0.0-76.0","p461294","AX27MR7AMU52H","3OWZNK3RYMVDNXPNEIRWZ8JM6MU2UY","39GAF6DQWT69YBULQ66OFV6PBYI1VN","model","mismatch","uniform","","","","","","","","879655","881658.5","","","","","","","","","","","","7","","stimuli/stars_7.png","102","","","","","stimuli/WM13_HO.jpg","",""
"explore-choice","77","881682","0.0-77.0","p461294","AX27MR7AMU52H","3OWZNK3RYMVDNXPNEIRWZ8JM6MU2UY","39GAF6DQWT69YBULQ66OFV6PBYI1VN","model","mismatch","uniform","","","","","","","732.8000000119209","881659.6999999881","882392.5","[""stimuli/BF08_DO.jpg"",""stimuli/WM13_SUR.jpg"",""stimuli/WM11_SC.jpg"",""stimuli/WM09_HO.jpg""]","stimuli/BF08_DO.jpg","stimuli/WM13_SUR.jpg","stimuli/WM11_SC.jpg","stimuli/WM09_HO.jpg","pos2","stimuli/WM13_SUR.jpg","SUR","WM13","1","4","8","6","stimuli/stars_8.png","106","[""DO"",""SUR"",""SC"",""HO""]","[""BF08"",""WM13"",""WM11"",""WM09""]","[2,8,3,10]","[2,6,4,8]","","",""
"show-reward","78","883687","0.0-78.0","p461294","AX27MR7AMU52H","3OWZNK3RYMVDNXPNEIRWZ8JM6MU2UY","39GAF6DQWT69YBULQ66OFV6PBYI1VN","model","mismatch","uniform","","","","","","","","882895","884898.5","","","","","","","","","","","","8","","stimuli/stars_8.png","106","","","","","stimuli/WM13_SUR.jpg","",""
"explore-choice","79","885308","0.0-79.0","p461294","AX27MR7AMU52H","3OWZNK3RYMVDNXPNEIRWZ8JM6MU2UY","39GAF6DQWT69YBULQ66OFV6PBYI1VN","model","mismatch","uniform","","","","","","","1116.699999988079","884899.8000000119","886016.5","[""stimuli/WM09_SUR.jpg"",""stimuli/WM11_DO.jpg"",""stimuli/BF08_HO.jpg"",""stimuli/WM13_SC.jpg""]","stimuli/WM09_SUR.jpg","stimuli/WM11_DO.jpg","stimuli/BF08_HO.jpg","stimuli/WM13_SC.jpg","pos2","stimuli/WM11_DO.jpg","DO","WM11","1","3","6","4","stimuli/stars_6.png","109","[""SUR"",""DO"",""HO"",""SC""]","[""WM09"",""WM11"",""BF08"",""WM13""]","[10,6,3,6]","[8,4,2,6]","","",""
"show-reward","80","887317","0.0-80.0","p461294","AX27MR7AMU52H","3OWZNK3RYMVDNXPNEIRWZ8JM6MU2UY","39GAF6DQWT69YBULQ66OFV6PBYI1VN","model","mismatch","uniform","","","","","","","","886520.1000000238","888528.5","","","","","","","","","","","","6","","stimuli/stars_6.png","109","","","","","stimuli/WM11_DO.jpg","",""
"explore-choice","81","888602","0.0-81.0","p461294","AX27MR7AMU52H","3OWZNK3RYMVDNXPNEIRWZ8JM6MU2UY","39GAF6DQWT69YBULQ66OFV6PBYI1VN","model","mismatch","uniform","","","","","","","782.6999999880791","888529.8000000119","889312.5","[""stimuli/WM13_SC.jpg"",""stimuli/WM11_SUR.jpg"",""stimuli/BF08_HO.jpg"",""stimuli/WM09_DO.jpg""]","stimuli/WM13_SC.jpg","stimuli/WM11_SUR.jpg","stimuli/BF08_HO.jpg","stimuli/WM09_DO.jpg","pos2","stimuli/WM11_SUR.jpg","SUR","WM11","1","2","4","4","stimuli/stars_4.png","111","[""SC"",""SUR"",""HO"",""DO""]","[""WM13"",""WM11"",""BF08"",""WM09""]","[7,4,4,9]","[6,4,2,8]","","",""
"show-reward","82","890607","0.0-82.0","p461294","AX27MR7AMU52H","3OWZNK3RYMVDNXPNEIRWZ8JM6MU2UY","39GAF6DQWT69YBULQ66OFV6PBYI1VN","model","mismatch","uniform","","","","","","","","889815","891818.4000000358","","","","","","","","","","","","4","","stimuli/stars_4.png","111","","","","","stimuli/WM11_SUR.jpg","",""
"explore-choice","83","891946","0.0-83.0","p461294","AX27MR7AMU52H","3OWZNK3RYMVDNXPNEIRWZ8JM6MU2UY","39GAF6DQWT69YBULQ66OFV6PBYI1VN","model","mismatch","uniform","","","","","","","836.5999999642372","891819.4000000358","892656","[""stimuli/WM11_SUR.jpg"",""stimuli/WM09_DO.jpg"",""stimuli/WM13_HO.jpg"",""stimuli/BF08_SC.jpg""]","stimuli/WM11_SUR.jpg","stimuli/WM09_DO.jpg","stimuli/WM13_HO.jpg","stimuli/BF08_SC.jpg","pos3","stimuli/WM13_HO.jpg","HO","WM13","2","4","8","6","stimuli/stars_8.png","115","[""SUR"",""DO"",""HO"",""SC""]","[""WM11"",""WM09"",""WM13"",""BF08""]","[6,8,8,0]","[4,8,6,2]","","",""
"show-reward","84","893950","0.0-84.0","p461294","AX27MR7AMU52H","3OWZNK3RYMVDNXPNEIRWZ8JM6MU2UY","39GAF6DQWT69YBULQ66OFV6PBYI1VN","model","mismatch","uniform","","","","","","","","893158","895161.5","","","","","","","","","","","","8","","stimuli/stars_8.png","115","","","","","stimuli/WM13_HO.jpg","",""
"explore-choice","85","895043","0.0-85.0","p461294","AX27MR7AMU52H","3OWZNK3RYMVDNXPNEIRWZ8JM6MU2UY","39GAF6DQWT69YBULQ66OFV6PBYI1VN","model","mismatch","uniform","","","","","","","589.5","895162.6000000238","895752.1000000238","[""stimuli/WM11_SC.jpg"",""stimuli/BF08_DO.jpg"",""stimuli/WM09_SUR.jpg"",""stimuli/WM13_HO.jpg""]","stimuli/WM11_SC.jpg","stimuli/BF08_DO.jpg","stimuli/WM09_SUR.jpg","stimuli/WM13_HO.jpg","pos3","stimuli/WM09_SUR.jpg","SUR","WM09","2","3","6","8","stimuli/stars_6.png","118","[""SC"",""DO"",""SUR"",""HO""]","[""WM11"",""BF08"",""WM09"",""WM13""]","[3,0,6,4]","[4,2,8,6]","","",""
"show-reward","86","897048","0.0-86.0","p461294","AX27MR7AMU52H","3OWZNK3RYMVDNXPNEIRWZ8JM6MU2UY","39GAF6DQWT69YBULQ66OFV6PBYI1VN","model","mismatch","uniform","","","","","","","","896254.1000000238","898257.6000000238","","","","","","","","","","","","6","","stimuli/stars_6.png","118","","","","","stimuli/WM09_SUR.jpg","",""
"explore-choice","87","898140","0.0-87.0","p461294","AX27MR7AMU52H","3OWZNK3RYMVDNXPNEIRWZ8JM6MU2UY","39GAF6DQWT69YBULQ66OFV6PBYI1VN","model","mismatch","uniform","","","","","","","589","898258.9000000358","898847.9000000358","[""stimuli/WM09_DO.jpg"",""stimuli/BF08_HO.jpg"",""stimuli/WM11_SC.jpg"",""stimuli/WM13_SUR.jpg""]","stimuli/WM09_DO.jpg","stimuli/BF08_HO.jpg","stimuli/WM11_SC.jpg","stimuli/WM13_SUR.jpg","pos3","stimuli/WM11_SC.jpg","SC","WM11","2","2.5","5","4","stimuli/stars_5.png","120.5","[""DO"",""HO"",""SC"",""SUR""]","[""WM09"",""BF08"",""WM11"",""WM13""]","[8,3,5,7]","[8,2,4,6]","","",""
"show-reward","88","900149","0.0-88.0","p461294","AX27MR7AMU52H","3OWZNK3RYMVDNXPNEIRWZ8JM6MU2UY","39GAF6DQWT69YBULQ66OFV6PBYI1VN","model","mismatch","uniform","","","","","","","","899351.1999999881","901358.6000000238","","","","","","","","","","","","5","","stimuli/stars_5.png","120.5","","","","","stimuli/WM11_SC.jpg","",""
"explore-choice","89","901314","0.0-89.0","p461294","AX27MR7AMU52H","3OWZNK3RYMVDNXPNEIRWZ8JM6MU2UY","39GAF6DQWT69YBULQ66OFV6PBYI1VN","model","mismatch","uniform","","","","","","","663.3999999761581","901359.9000000358","902023.3000000119","[""stimuli/WM11_SUR.jpg"",""stimuli/WM09_SC.jpg"",""stimuli/BF08_DO.jpg"",""stimuli/WM13_HO.jpg""]","stimuli/WM11_SUR.jpg","stimuli/WM09_SC.jpg","stimuli/BF08_DO.jpg","stimuli/WM13_HO.jpg","pos4","stimuli/WM13_HO.jpg","HO","WM13","3","3.5","7","6","stimuli/stars_7.png","124","[""SUR"",""SC"",""DO"",""HO""]","[""WM11"",""WM09"",""BF08"",""WM13""]","[6,9,2,7]","[4,8,2,6]","","",""
"show-reward","90","903319","0.0-90.0","p461294","AX27MR7AMU52H","3OWZNK3RYMVDNXPNEIRWZ8JM6MU2UY","39GAF6DQWT69YBULQ66OFV6PBYI1VN","model","mismatch","uniform","","","","","","","","902525","904528.6000000238","","","","","","","","","","","","7","","stimuli/stars_7.png","124","","","","","stimuli/WM13_HO.jpg","",""
"explore-choice","91","904811","0.0-91.0","p461294","AX27MR7AMU52H","3OWZNK3RYMVDNXPNEIRWZ8JM6MU2UY","39GAF6DQWT69YBULQ66OFV6PBYI1VN","model","mismatch","uniform","","","","","","","989.6999999880791","904530","905519.6999999881","[""stimuli/WM11_SUR.jpg"",""stimuli/WM13_DO.jpg"",""stimuli/WM09_SC.jpg"",""stimuli/BF08_HO.jpg""]","stimuli/WM11_SUR.jpg","stimuli/WM13_DO.jpg","stimuli/WM09_SC.jpg","stimuli/BF08_HO.jpg","pos1","stimuli/WM11_SUR.jpg","SUR","WM11","0","3","6","4","stimuli/stars_6.png","127","[""SUR"",""DO"",""SC"",""HO""]","[""WM11"",""WM13"",""WM09"",""BF08""]","[6,6,8,1]","[4,6,8,2]","","",""
"show-reward","92","906816","0.0-92.0","p461294","AX27MR7AMU52H","3OWZNK3RYMVDNXPNEIRWZ8JM6MU2UY","39GAF6DQWT69YBULQ66OFV6PBYI1VN","model","mismatch","uniform","","","","","","","","906022.1999999881","908025.8000000119","","","","","","","","","","","","6","","stimuli/stars_6.png","127","","","","","stimuli/WM11_SUR.jpg","",""
"explore-choice","93","907914","0.0-93.0","p461294","AX27MR7AMU52H","3OWZNK3RYMVDNXPNEIRWZ8JM6MU2UY","39GAF6DQWT69YBULQ66OFV6PBYI1VN","model","mismatch","uniform","","","","","","","596.1000000238419","908027","908623.1000000238","[""stimuli/BF08_SC.jpg"",""stimuli/WM09_HO.jpg"",""stimuli/WM11_SUR.jpg"",""stimuli/WM13_DO.jpg""]","stimuli/BF08_SC.jpg","stimuli/WM09_HO.jpg","stimuli/WM11_SUR.jpg","stimuli/WM13_DO.jpg","pos2","stimuli/WM09_HO.jpg","HO","WM09","1","4","8","8","stimuli/stars_8.png","131","[""SC"",""HO"",""SUR"",""DO""]","[""BF08"",""WM09"",""WM11"",""WM13""]","[0,8,5,4]","[2,8,4,6]","","",""
"show-reward","94","909919","0.0-94.0","p461294","AX27MR7AMU52H","3OWZNK3RYMVDNXPNEIRWZ8JM6MU2UY","39GAF6DQWT69YBULQ66OFV6PBYI1VN","model","mismatch","uniform","","","","","","","","909125.1999999881","911128.6999999881","","","","","","","","","","","","8","","stimuli/stars_8.png","131","","","","","stimuli/WM09_HO.jpg","",""
"explore-choice","95","911378","0.0-95.0","p461294","AX27MR7AMU52H","3OWZNK3RYMVDNXPNEIRWZ8JM6MU2UY","39GAF6DQWT69YBULQ66OFV6PBYI1VN","model","mismatch","uniform","","","","","","","957.3999999761581","911130.1000000238","912087.5","[""stimuli/WM09_SC.jpg"",""stimuli/WM13_DO.jpg"",""stimuli/BF08_SUR.jpg"",""stimuli/WM11_HO.jpg""]","stimuli/WM09_SC.jpg","stimuli/WM13_DO.jpg","stimuli/BF08_SUR.jpg","stimuli/WM11_HO.jpg","pos4","stimuli/WM11_HO.jpg","HO","WM11","3","3","6","4","stimuli/stars_6.png","134","[""SC"",""DO"",""SUR"",""HO""]","[""WM09"",""WM13"",""BF08"",""WM11""]","[6,6,4,6]","[8,6,2,4]","","",""
"show-reward","96","913391","0.0-96.0","p461294","AX27MR7AMU52H","3OWZNK3RYMVDNXPNEIRWZ8JM6MU2UY","39GAF6DQWT69YBULQ66OFV6PBYI1VN","model","mismatch","uniform","","","","","","","","912589.1999999881","914600.9000000358","","","","","","","","","","","","6","","stimuli/stars_6.png","134","","","","","stimuli/WM11_HO.jpg","",""
"explore-choice","97","914426","0.0-97.0","p461294","AX27MR7AMU52H","3OWZNK3RYMVDNXPNEIRWZ8JM6MU2UY","39GAF6DQWT69YBULQ66OFV6PBYI1VN","model","mismatch","uniform","","","","","","","533.1999999880791","914602.3000000119","915135.5","[""stimuli/WM09_HO.jpg"",""stimuli/WM11_DO.jpg"",""stimuli/BF08_SUR.jpg"",""stimuli/WM13_SC.jpg""]","stimuli/WM09_HO.jpg","stimuli/WM11_DO.jpg","stimuli/BF08_SUR.jpg","stimuli/WM13_SC.jpg","pos4","stimuli/WM13_SC.jpg","SC","WM13","3","2","4","6","stimuli/stars_4.png","136","[""HO"",""DO"",""SUR"",""SC""]","[""WM09"",""WM11"",""BF08"",""WM13""]","[10,2,0,4]","[8,4,2,6]","","",""
"show-reward","98","916431","0.0-98.0","p461294","AX27MR7AMU52H","3OWZNK3RYMVDNXPNEIRWZ8JM6MU2UY","39GAF6DQWT69YBULQ66OFV6PBYI1VN","model","mismatch","uniform","","","","","","","","915637.4000000358","917640.9000000358","","","","","","","","","","","","4","","stimuli/stars_4.png","136","","","","","stimuli/WM13_SC.jpg","",""
"explore-choice","99","917627","0.0-99.0","p461294","AX27MR7AMU52H","3OWZNK3RYMVDNXPNEIRWZ8JM6MU2UY","39GAF6DQWT69YBULQ66OFV6PBYI1VN","model","mismatch","uniform","","","","","","","693.3000000119209","917642.1999999881","918335.5","[""stimuli/WM13_SC.jpg"",""stimuli/WM11_HO.jpg"",""stimuli/WM09_DO.jpg"",""stimuli/BF08_SUR.jpg""]","stimuli/WM13_SC.jpg","stimuli/WM11_HO.jpg","stimuli/WM09_DO.jpg","stimuli/BF08_SUR.jpg","pos2","stimuli/WM11_HO.jpg","HO","WM11","1","3","6","4","stimuli/stars_6.png","139","[""SC"",""HO"",""DO"",""SUR""]","[""WM13"",""WM11"",""WM09"",""BF08""]","[8,6,7,4]","[6,4,8,2]","","",""
"show-reward","100","919631","0.0-100.0","p461294","AX27MR7AMU52H","3OWZNK3RYMVDNXPNEIRWZ8JM6MU2UY","39GAF6DQWT69YBULQ66OFV6PBYI1VN","model","mismatch","uniform","","","","","","","","918837.8000000119","920840.8000000119","","","","","","","","","","","","6","","stimuli/stars_6.png","139","","","","","stimuli/WM11_HO.jpg","",""
"explore-choice","101","920603","0.0-101.0","p461294","AX27MR7AMU52H","3OWZNK3RYMVDNXPNEIRWZ8JM6MU2UY","39GAF6DQWT69YBULQ66OFV6PBYI1VN","model","mismatch","uniform","","","","","","","469.60000002384186","920841.8000000119","921311.4000000358","[""stimuli/BF08_SUR.jpg"",""stimuli/WM13_HO.jpg"",""stimuli/WM09_SC.jpg"",""stimuli/WM11_DO.jpg""]","stimuli/BF08_SUR.jpg","stimuli/WM13_HO.jpg","stimuli/WM09_SC.jpg","stimuli/WM11_DO.jpg","pos2","stimuli/WM13_HO.jpg","HO","WM13","1","2.5","5","6","stimuli/stars_5.png","141.5","[""SUR"",""HO"",""SC"",""DO""]","[""BF08"",""WM13"",""WM09"",""WM11""]","[2,5,9,2]","[2,6,8,4]","","",""
"show-reward","102","922608","0.0-102.0","p461294","AX27MR7AMU52H","3OWZNK3RYMVDNXPNEIRWZ8JM6MU2UY","39GAF6DQWT69YBULQ66OFV6PBYI1VN","model","mismatch","uniform","","","","","","","","921813.3000000119","923817.1000000238","","","","","","","","","","","","5","","stimuli/stars_5.png","141.5","","","","","stimuli/WM13_HO.jpg","",""
"explore-choice","103","924657","0.0-103.0","p461294","AX27MR7AMU52H","3OWZNK3RYMVDNXPNEIRWZ8JM6MU2UY","39GAF6DQWT69YBULQ66OFV6PBYI1VN","model","mismatch","uniform","","","","","","","1540.699999988079","923818.5","925359.1999999881","[""stimuli/AM03_CC.jpg"",""stimuli/HF10_HE.jpg"",""stimuli/HM09_AO.jpg"",""stimuli/AM05_FO.jpg""]","stimuli/AM03_CC.jpg","stimuli/HF10_HE.jpg","stimuli/HM09_AO.jpg","stimuli/AM05_FO.jpg","pos3","stimuli/HM09_AO.jpg","AO","HM09","2","0.5","1","2","stimuli/stars_1.png","142","[""CC"",""HE"",""AO"",""FO""]","[""AM03"",""HF10"",""HM09"",""AM05""]","[6,4,1,7]","[6,4,2,8]","","",""
"show-reward","104","926662","0.0-104.0","p461294","AX27MR7AMU52H","3OWZNK3RYMVDNXPNEIRWZ8JM6MU2UY","39GAF6DQWT69YBULQ66OFV6PBYI1VN","model","mismatch","uniform","","","","","","","","925867.8000000119","927871","","","","","","","","","","","","1","","stimuli/stars_1.png","142","","","","","stimuli/HM09_AO.jpg","",""
"explore-choice","105","927749","0.0-105.0","p461294","AX27MR7AMU52H","3OWZNK3RYMVDNXPNEIRWZ8JM6MU2UY","39GAF6DQWT69YBULQ66OFV6PBYI1VN","model","mismatch","uniform","","","","","","","585.5","927872.3000000119","928457.8000000119","[""stimuli/AM05_FO.jpg"",""stimuli/HF10_HE.jpg"",""stimuli/AM03_AO.jpg"",""stimuli/HM09_CC.jpg""]","stimuli/AM05_FO.jpg","stimuli/HF10_HE.jpg","stimuli/AM03_AO.jpg","stimuli/HM09_CC.jpg","pos2","stimuli/HF10_HE.jpg","HE","HF10","1","3","6","4","stimuli/stars_6.png","145","[""FO"",""HE"",""AO"",""CC""]","[""AM05"",""HF10"",""AM03"",""HM09""]","[10,6,1,5]","[8,4,2,6]","","",""
"show-reward","106","929760","0.0-106.0","p461294","AX27MR7AMU52H","3OWZNK3RYMVDNXPNEIRWZ8JM6MU2UY","39GAF6DQWT69YBULQ66OFV6PBYI1VN","model","mismatch","uniform","","","","","","","","928959.6000000238","930969.1999999881","","","","","","","","","","","","6","","stimuli/stars_6.png","145","","","","","stimuli/HF10_HE.jpg","",""
"explore-choice","107","931900","0.0-107.0","p461294","AX27MR7AMU52H","3OWZNK3RYMVDNXPNEIRWZ8JM6MU2UY","39GAF6DQWT69YBULQ66OFV6PBYI1VN","model","mismatch","uniform","","","","","","","1628.3999999761581","930970.8000000119","932599.1999999881","[""stimuli/AM03_CC.jpg"",""stimuli/HM09_HE.jpg"",""stimuli/HF10_FO.jpg"",""stimuli/AM05_AO.jpg""]","stimuli/AM03_CC.jpg","stimuli/HM09_HE.jpg","stimuli/HF10_FO.jpg","stimuli/AM05_AO.jpg","pos2","stimuli/HM09_HE.jpg","HE","HM09","1","2.5","5","4","stimuli/stars_5.png","147.5","[""CC"",""HE"",""FO"",""AO""]","[""AM03"",""HM09"",""HF10"",""AM05""]","[4,5,8,0]","[6,4,8,2]","","",""
"show-reward","108","933910","0.0-108.0","p461294","AX27MR7AMU52H","3OWZNK3RYMVDNXPNEIRWZ8JM6MU2UY","39GAF6DQWT69YBULQ66OFV6PBYI1VN","model","mismatch","uniform","","","","","","","","933110.5","935119.1000000238","","","","","","","","","","","","5","","stimuli/stars_5.png","147.5","","","","","stimuli/HM09_HE.jpg","",""
"explore-choice","109","935142","0.0-109.0","p461294","AX27MR7AMU52H","3OWZNK3RYMVDNXPNEIRWZ8JM6MU2UY","39GAF6DQWT69YBULQ66OFV6PBYI1VN","model","mismatch","uniform","","","","","","","726","935120.5","935846.5","[""stimuli/AM05_HE.jpg"",""stimuli/AM03_FO.jpg"",""stimuli/HM09_AO.jpg"",""stimuli/HF10_CC.jpg""]","stimuli/AM05_HE.jpg","stimuli/AM03_FO.jpg","stimuli/HM09_AO.jpg","stimuli/HF10_CC.jpg","pos2","stimuli/AM03_FO.jpg","FO","AM03","1","3.5","7","8","stimuli/stars_7.png","151","[""HE"",""FO"",""AO"",""CC""]","[""AM05"",""AM03"",""HM09"",""HF10""]","[6,7,0,7]","[4,8,2,6]","","",""
"show-reward","110","937147","0.0-110.0","p461294","AX27MR7AMU52H","3OWZNK3RYMVDNXPNEIRWZ8JM6MU2UY","39GAF6DQWT69YBULQ66OFV6PBYI1VN","model","mismatch","uniform","","","","","","","","936352.5","938356.1000000238","","","","","","","","","","","","7","","stimuli/stars_7.png","151","","","","","stimuli/AM03_FO.jpg","",""
"explore-choice","111","938493","0.0-111.0","p461294","AX27MR7AMU52H","3OWZNK3RYMVDNXPNEIRWZ8JM6MU2UY","39GAF6DQWT69YBULQ66OFV6PBYI1VN","model","mismatch","uniform","","","","","","","841.1999999880791","938357.3000000119","939198.5","[""stimuli/AM03_AO.jpg"",""stimuli/HF10_HE.jpg"",""stimuli/HM09_FO.jpg"",""stimuli/AM05_CC.jpg""]","stimuli/AM03_AO.jpg","stimuli/HF10_HE.jpg","stimuli/HM09_FO.jpg","stimuli/AM05_CC.jpg","pos2","stimuli/HF10_HE.jpg","HE","HF10","1","1","2","4","stimuli/stars_2.png","152","[""AO"",""HE"",""FO"",""CC""]","[""AM03"",""HF10"",""HM09"",""AM05""]","[2,2,6,5]","[2,4,8,6]","","",""
"show-reward","112","940498","0.0-112.0","p461294","AX27MR7AMU52H","3OWZNK3RYMVDNXPNEIRWZ8JM6MU2UY","39GAF6DQWT69YBULQ66OFV6PBYI1VN","model","mismatch","uniform","","","","","","","","939703.6000000238","941707.1000000238","","","","","","","","","","","","2","","stimuli/stars_2.png","152","","","","","stimuli/HF10_HE.jpg","",""
"explore-choice","113","941746","0.0-113.0","p461294","AX27MR7AMU52H","3OWZNK3RYMVDNXPNEIRWZ8JM6MU2UY","39GAF6DQWT69YBULQ66OFV6PBYI1VN","model","mismatch","uniform","","","","","","","745.6999999880791","941708.4000000358","942454.1000000238","[""stimuli/AM05_CC.jpg"",""stimuli/AM03_FO.jpg"",""stimuli/HF10_HE.jpg"",""stimuli/HM09_AO.jpg""]","stimuli/AM05_CC.jpg","stimuli/AM03_FO.jpg","stimuli/HF10_HE.jpg","stimuli/HM09_AO.jpg","pos3","stimuli/HF10_HE.jpg","HE","HF10","2","1.5","3","4","stimuli/stars_3.png","153.5","[""CC"",""FO"",""HE"",""AO""]","[""AM05"",""AM03"",""HF10"",""HM09""]","[6,6,3,2]","[6,8,4,2]","","",""
"show-reward","114","943751","0.0-114.0","p461294","AX27MR7AMU52H","3OWZNK3RYMVDNXPNEIRWZ8JM6MU2UY","39GAF6DQWT69YBULQ66OFV6PBYI1VN","model","mismatch","uniform","","","","","","","","942956.6000000238","944960.1999999881","","","","","","","","","","","","3","","stimuli/stars_3.png","153.5","","","","","stimuli/HF10_HE.jpg","",""
"explore-choice","115","944987","0.0-115.0","p461294","AX27MR7AMU52H","3OWZNK3RYMVDNXPNEIRWZ8JM6MU2UY","39GAF6DQWT69YBULQ66OFV6PBYI1VN","model","mismatch","uniform","","","","","","","724.9000000357628","944961.5","945686.4000000358","[""stimuli/AM05_HE.jpg"",""stimuli/AM03_AO.jpg"",""stimuli/HM09_FO.jpg"",""stimuli/HF10_CC.jpg""]","stimuli/AM05_HE.jpg","stimuli/AM03_AO.jpg","stimuli/HM09_FO.jpg","stimuli/HF10_CC.jpg","pos4","stimuli/HF10_CC.jpg","CC","HF10","3","3.5","7","6","stimuli/stars_7.png","157","[""HE"",""AO"",""FO"",""CC""]","[""AM05"",""AM03"",""HM09"",""HF10""]","[6,0,9,7]","[4,2,8,6]","","",""
"show-reward","116","946998","0.0-116.0","p461294","AX27MR7AMU52H","3OWZNK3RYMVDNXPNEIRWZ8JM6MU2UY","39GAF6DQWT69YBULQ66OFV6PBYI1VN","model","mismatch","uniform","","","","","","","","946197.1999999881","948207.3000000119","","","","","","","","","","","","7","","stimuli/stars_7.png","157","","","","","stimuli/HF10_CC.jpg","",""
"explore-choice","117","949350","0.0-117.0","p461294","AX27MR7AMU52H","3OWZNK3RYMVDNXPNEIRWZ8JM6MU2UY","39GAF6DQWT69YBULQ66OFV6PBYI1VN","model","mismatch","uniform","","","","","","","1845.800000011921","948208.6000000238","950054.4000000358","[""stimuli/HM09_CC.jpg"",""stimuli/HF10_FO.jpg"",""stimuli/AM03_HE.jpg"",""stimuli/AM05_AO.jpg""]","stimuli/HM09_CC.jpg","stimuli/HF10_FO.jpg","stimuli/AM03_HE.jpg","stimuli/AM05_AO.jpg","pos4","stimuli/AM05_AO.jpg","AO","AM05","3","1","2","2","stimuli/stars_2.png","158","[""CC"",""FO"",""HE"",""AO""]","[""HM09"",""HF10"",""AM03"",""AM05""]","[8,9,6,2]","[6,8,4,2]","","",""
"show-reward","118","951363","0.0-118.0","p461294","AX27MR7AMU52H","3OWZNK3RYMVDNXPNEIRWZ8JM6MU2UY","39GAF6DQWT69YBULQ66OFV6PBYI1VN","model","mismatch","uniform","","","","","","","","950561.1999999881","952572.3000000119","","","","","","","","","","","","2","","stimuli/stars_2.png","158","","","","","stimuli/AM05_AO.jpg","",""
"explore-choice","119","952618","0.0-119.0","p461294","AX27MR7AMU52H","3OWZNK3RYMVDNXPNEIRWZ8JM6MU2UY","39GAF6DQWT69YBULQ66OFV6PBYI1VN","model","mismatch","uniform","","","","","","","744.8000000119209","952573.6000000238","953318.4000000358","[""stimuli/AM03_HE.jpg"",""stimuli/HF10_AO.jpg"",""stimuli/AM05_CC.jpg"",""stimuli/HM09_FO.jpg""]","stimuli/AM03_HE.jpg","stimuli/HF10_AO.jpg","stimuli/AM05_CC.jpg","stimuli/HM09_FO.jpg","pos1","stimuli/AM03_HE.jpg","HE","AM03","0","3","6","4","stimuli/stars_6.png","161","[""HE"",""AO"",""CC"",""FO""]","[""AM03"",""HF10"",""AM05"",""HM09""]","[6,2,7,9]","[4,2,6,8]","","",""
"show-reward","120","954628","0.0-120.0","p461294","AX27MR7AMU52H","3OWZNK3RYMVDNXPNEIRWZ8JM6MU2UY","39GAF6DQWT69YBULQ66OFV6PBYI1VN","model","mismatch","uniform","","","","","","","","953828.8000000119","955837.4000000358","","","","","","","","","","","","6","","stimuli/stars_6.png","161","","","","","stimuli/AM03_HE.jpg","",""
"explore-choice","121","955992","0.0-121.0","p461294","AX27MR7AMU52H","3OWZNK3RYMVDNXPNEIRWZ8JM6MU2UY","39GAF6DQWT69YBULQ66OFV6PBYI1VN","model","mismatch","uniform","","","","","","","863.6999999880791","955838.6000000238","956702.3000000119","[""stimuli/AM05_FO.jpg"",""stimuli/HM09_HE.jpg"",""stimuli/AM03_AO.jpg"",""stimuli/HF10_CC.jpg""]","stimuli/AM05_FO.jpg","stimuli/HM09_HE.jpg","stimuli/AM03_AO.jpg","stimuli/HF10_CC.jpg","pos2","stimuli/HM09_HE.jpg","HE","HM09","1","3","6","4","stimuli/stars_6.png","164","[""FO"",""HE"",""AO"",""CC""]","[""AM05"",""HM09"",""AM03"",""HF10""]","[8,6,4,4]","[8,4,2,6]","","",""
"show-reward","122","957997","0.0-122.0","p461294","AX27MR7AMU52H","3OWZNK3RYMVDNXPNEIRWZ8JM6MU2UY","39GAF6DQWT69YBULQ66OFV6PBYI1VN","model","mismatch","uniform","","","","","","","","957203.9000000358","959207.3000000119","","","","","","","","","","","","6","","stimuli/stars_6.png","164","","","","","stimuli/HM09_HE.jpg","",""
"explore-choice","123","959455","0.0-123.0","p461294","AX27MR7AMU52H","3OWZNK3RYMVDNXPNEIRWZ8JM6MU2UY","39GAF6DQWT69YBULQ66OFV6PBYI1VN","model","mismatch","uniform","","","","","","","949.6000000238419","959208.6999999881","960158.3000000119","[""stimuli/HM09_CC.jpg"",""stimuli/AM05_AO.jpg"",""stimuli/HF10_HE.jpg"",""stimuli/AM03_FO.jpg""]","stimuli/HM09_CC.jpg","stimuli/AM05_AO.jpg","stimuli/HF10_HE.jpg","stimuli/AM03_FO.jpg","pos2","stimuli/AM05_AO.jpg","AO","AM05","1","0.5","1","2","stimuli/stars_1.png","164.5","[""CC"",""AO"",""HE"",""FO""]","[""HM09"",""AM05"",""HF10"",""AM03""]","[7,1,2,10]","[6,2,4,8]","","",""
"show-reward","124","961465","0.0-124.0","p461294","AX27MR7AMU52H","3OWZNK3RYMVDNXPNEIRWZ8JM6MU2UY","39GAF6DQWT69YBULQ66OFV6PBYI1VN","model","mismatch","uniform","","","","","","","","960666.8000000119","962675.5","","","","","","","","","","","","1","","stimuli/stars_1.png","164.5","","","","","stimuli/AM05_AO.jpg","",""
"explore-choice","125","962758","0.0-125.0","p461294","AX27MR7AMU52H","3OWZNK3RYMVDNXPNEIRWZ8JM6MU2UY","39GAF6DQWT69YBULQ66OFV6PBYI1VN","model","mismatch","uniform","","","","","","","785.2999999523163","962676.9000000358","963462.1999999881","[""stimuli/HF10_AO.jpg"",""stimuli/AM05_CC.jpg"",""stimuli/HM09_HE.jpg"",""stimuli/AM03_FO.jpg""]","stimuli/HF10_AO.jpg","stimuli/AM05_CC.jpg","stimuli/HM09_HE.jpg","stimuli/AM03_FO.jpg","pos3","stimuli/HM09_HE.jpg","HE","HM09","2","2.5","5","4","stimuli/stars_5.png","167","[""AO"",""CC"",""HE"",""FO""]","[""HF10"",""AM05"",""HM09"",""AM03""]","[1,8,5,10]","[2,6,4,8]","","",""
"show-reward","126","964762","0.0-126.0","p461294","AX27MR7AMU52H","3OWZNK3RYMVDNXPNEIRWZ8JM6MU2UY","39GAF6DQWT69YBULQ66OFV6PBYI1VN","model","mismatch","uniform","","","","","","","","963969.3000000119","965972.5","","","","","","","","","","","","5","","stimuli/stars_5.png","167","","","","","stimuli/HM09_HE.jpg","",""
"explore-choice","127","966994","0.0-127.0","p461294","AX27MR7AMU52H","3OWZNK3RYMVDNXPNEIRWZ8JM6MU2UY","39GAF6DQWT69YBULQ66OFV6PBYI1VN","model","mismatch","uniform","","","","","","","1728.6000000238419","965973.6999999881","967702.3000000119","[""stimuli/AM03_HE.jpg"",""stimuli/HF10_CC.jpg"",""stimuli/AM05_FO.jpg"",""stimuli/HM09_AO.jpg""]","stimuli/AM03_HE.jpg","stimuli/HF10_CC.jpg","stimuli/AM05_FO.jpg","stimuli/HM09_AO.jpg","pos2","stimuli/HF10_CC.jpg","CC","HF10","1","2.5","5","6","stimuli/stars_5.png","169.5","[""HE"",""CC"",""FO"",""AO""]","[""AM03"",""HF10"",""AM05"",""HM09""]","[5,5,8,4]","[4,6,8,2]","","",""
"show-reward","128","969006","0.0-128.0","p461294","AX27MR7AMU52H","3OWZNK3RYMVDNXPNEIRWZ8JM6MU2UY","39GAF6DQWT69YBULQ66OFV6PBYI1VN","model","mismatch","uniform","","","","","","","","968205.1999999881","970216.6000000238","","","","","","","","","","","","5","","stimuli/stars_5.png","169.5","","","","","stimuli/HF10_CC.jpg","",""
"explore-choice","129","970216","0.0-129.0","p461294","AX27MR7AMU52H","3OWZNK3RYMVDNXPNEIRWZ8JM6MU2UY","39GAF6DQWT69YBULQ66OFV6PBYI1VN","model","mismatch","uniform","","","","","","","707.8999999761581","970217.9000000358","970925.8000000119","[""stimuli/AM03_HE.jpg"",""stimuli/HM09_FO.jpg"",""stimuli/AM05_AO.jpg"",""stimuli/HF10_CC.jpg""]","stimuli/AM03_HE.jpg","stimuli/HM09_FO.jpg","stimuli/AM05_AO.jpg","stimuli/HF10_CC.jpg","pos2","stimuli/HM09_FO.jpg","FO","HM09","1","3.5","7","8","stimuli/stars_7.png","173","[""HE"",""FO"",""AO"",""CC""]","[""AM03"",""HM09"",""AM05"",""HF10""]","[5,7,4,7]","[4,8,2,6]","","",""
"show-reward","130","972222","0.0-130.0","p461294","AX27MR7AMU52H","3OWZNK3RYMVDNXPNEIRWZ8JM6MU2UY","39GAF6DQWT69YBULQ66OFV6PBYI1VN","model","mismatch","uniform","","","","","","","","971427.8000000119","973432.5","","","","","","","","","","","","7","","stimuli/stars_7.png","173","","","","","stimuli/HM09_FO.jpg","",""
"explore-choice","131","975000","0.0-131.0","p461294","AX27MR7AMU52H","3OWZNK3RYMVDNXPNEIRWZ8JM6MU2UY","39GAF6DQWT69YBULQ66OFV6PBYI1VN","model","mismatch","uniform","","","","","","","2276.199999988079","973433.9000000358","975710.1000000238","[""stimuli/AM05_CC.jpg"",""stimuli/HF10_FO.jpg"",""stimuli/AM03_HE.jpg"",""stimuli/HM09_AO.jpg""]","stimuli/AM05_CC.jpg","stimuli/HF10_FO.jpg","stimuli/AM03_HE.jpg","stimuli/HM09_AO.jpg","pos3","stimuli/AM03_HE.jpg","HE","AM03","2","2.5","5","4","stimuli/stars_5.png","175.5","[""CC"",""FO"",""HE"",""AO""]","[""AM05"",""HF10"",""AM03"",""HM09""]","[6,9,5,2]","[6,8,4,2]","","",""
"show-reward","132","977006","0.0-132.0","p461294","AX27MR7AMU52H","3OWZNK3RYMVDNXPNEIRWZ8JM6MU2UY","39GAF6DQWT69YBULQ66OFV6PBYI1VN","model","mismatch","uniform","","","","","","","","976212.1000000238","978216.8000000119","","","","","","","","","","","","5","","stimuli/stars_5.png","175.5","","","","","stimuli/AM03_HE.jpg","",""
"explore-choice","133","979195","0.0-133.0","p461294","AX27MR7AMU52H","3OWZNK3RYMVDNXPNEIRWZ8JM6MU2UY","39GAF6DQWT69YBULQ66OFV6PBYI1VN","model","mismatch","uniform","","","","","","","1683.3999999761581","978218.1000000238","979901.5","[""stimuli/AM03_HE.jpg"",""stimuli/HF10_AO.jpg"",""stimuli/HM09_CC.jpg"",""stimuli/AM05_FO.jpg""]","stimuli/AM03_HE.jpg","stimuli/HF10_AO.jpg","stimuli/HM09_CC.jpg","stimuli/AM05_FO.jpg","pos2","stimuli/HF10_AO.jpg","AO","HF10","1","1.5","3","2","stimuli/stars_3.png","177","[""HE"",""AO"",""CC"",""FO""]","[""AM03"",""HF10"",""HM09"",""AM05""]","[6,3,5,8]","[4,2,6,8]","","",""
"show-reward","134","981207","0.0-134.0","p461294","AX27MR7AMU52H","3OWZNK3RYMVDNXPNEIRWZ8JM6MU2UY","39GAF6DQWT69YBULQ66OFV6PBYI1VN","model","mismatch","uniform","","","","","","","","980406.1999999881","982416.6999999881","","","","","","","","","","","","3","","stimuli/stars_3.png","177","","","","","stimuli/HF10_AO.jpg","",""
"explore-choice","135","983012","0.0-135.0","p461294","AX27MR7AMU52H","3OWZNK3RYMVDNXPNEIRWZ8JM6MU2UY","39GAF6DQWT69YBULQ66OFV6PBYI1VN","model","mismatch","uniform","","","","","","","1299","982418.1999999881","983717.1999999881","[""stimuli/HM09_CC.jpg"",""stimuli/AM03_AO.jpg"",""stimuli/HF10_FO.jpg"",""stimuli/AM05_HE.jpg""]","stimuli/HM09_CC.jpg","stimuli/AM03_AO.jpg","stimuli/HF10_FO.jpg","stimuli/AM05_HE.jpg","pos1","stimuli/HM09_CC.jpg","CC","HM09","0","3","6","6","stimuli/stars_6.png","180","[""CC"",""AO"",""FO"",""HE""]","[""HM09"",""AM03"",""HF10"",""AM05""]","[6,4,10,3]","[6,2,8,4]","","",""
"show-reward","136","985016","0.0-136.0","p461294","AX27MR7AMU52H","3OWZNK3RYMVDNXPNEIRWZ8JM6MU2UY","39GAF6DQWT69YBULQ66OFV6PBYI1VN","model","mismatch","uniform","","","","","","","","984223.1999999881","986226.6999999881","","","","","","","","","","","","6","","stimuli/stars_6.png","180","","","","","stimuli/HM09_CC.jpg","",""
"explore-choice","137","987376","0.0-137.0","p461294","AX27MR7AMU52H","3OWZNK3RYMVDNXPNEIRWZ8JM6MU2UY","39GAF6DQWT69YBULQ66OFV6PBYI1VN","model","mismatch","uniform","","","","","","","1857.5999999642372","986227.9000000358","988085.5","[""stimuli/HM09_FO.jpg"",""stimuli/HF10_HE.jpg"",""stimuli/AM03_CC.jpg"",""stimuli/AM05_AO.jpg""]","stimuli/HM09_FO.jpg","stimuli/HF10_HE.jpg","stimuli/AM03_CC.jpg","stimuli/AM05_AO.jpg","pos2","stimuli/HF10_HE.jpg","HE","HF10","1","2","4","4","stimuli/stars_4.png","182","[""FO"",""HE"",""CC"",""AO""]","[""HM09"",""HF10"",""AM03"",""AM05""]","[10,4,6,3]","[8,4,6,2]","","",""
"show-reward","138","989380","0.0-138.0","p461294","AX27MR7AMU52H","3OWZNK3RYMVDNXPNEIRWZ8JM6MU2UY","39GAF6DQWT69YBULQ66OFV6PBYI1VN","model","mismatch","uniform","","","","","","","","988587.4000000358","990590.8000000119","","","","","","","","","","","","4","","stimuli/stars_4.png","182","","","","","stimuli/HF10_HE.jpg","",""
"explore-choice","139","991271","0.0-139.0","p461294","AX27MR7AMU52H","3OWZNK3RYMVDNXPNEIRWZ8JM6MU2UY","39GAF6DQWT69YBULQ66OFV6PBYI1VN","model","mismatch","uniform","","","","","","","1381.199999988079","990592.1000000238","991973.3000000119","[""stimuli/HM09_AO.jpg"",""stimuli/AM03_CC.jpg"",""stimuli/AM05_HE.jpg"",""stimuli/HF10_FO.jpg""]","stimuli/HM09_AO.jpg","stimuli/AM03_CC.jpg","stimuli/AM05_HE.jpg","stimuli/HF10_FO.jpg","pos3","stimuli/AM05_HE.jpg","HE","AM05","2","2","4","4","stimuli/stars_4.png","184","[""AO"",""CC"",""HE"",""FO""]","[""HM09"",""AM03"",""AM05"",""HF10""]","[4,7,4,7]","[2,6,4,8]","","",""
"show-reward","140","993276","0.0-140.0","p461294","AX27MR7AMU52H","3OWZNK3RYMVDNXPNEIRWZ8JM6MU2UY","39GAF6DQWT69YBULQ66OFV6PBYI1VN","model","mismatch","uniform","","","","","","","","992482.9000000358","994486.6999999881","","","","","","","","","","","","4","","stimuli/stars_4.png","184","","","","","stimuli/AM05_HE.jpg","",""
"explore-choice","141","994680","0.0-141.0","p461294","AX27MR7AMU52H","3OWZNK3RYMVDNXPNEIRWZ8JM6MU2UY","39GAF6DQWT69YBULQ66OFV6PBYI1VN","model","mismatch","uniform","","","","","","","901","994488.1000000238","995389.1000000238","[""stimuli/AM05_FO.jpg"",""stimuli/HM09_HE.jpg"",""stimuli/HF10_AO.jpg"",""stimuli/AM03_CC.jpg""]","stimuli/AM05_FO.jpg","stimuli/HM09_HE.jpg","stimuli/HF10_AO.jpg","stimuli/AM03_CC.jpg","pos2","stimuli/HM09_HE.jpg","HE","HM09","1","2.5","5","4","stimuli/stars_5.png","186.5","[""FO"",""HE"",""AO"",""CC""]","[""AM05"",""HM09"",""HF10"",""AM03""]","[8,5,0,5]","[8,4,2,6]","","",""
"show-reward","142","996686","0.0-142.0","p461294","AX27MR7AMU52H","3OWZNK3RYMVDNXPNEIRWZ8JM6MU2UY","39GAF6DQWT69YBULQ66OFV6PBYI1VN","model","mismatch","uniform","","","","","","","","995890.9000000358","997895.8000000119","","","","","","","","","","","","5","","stimuli/stars_5.png","186.5","","","","","stimuli/HM09_HE.jpg","",""
"explore-choice","143","998047","0.0-143.0","p461294","AX27MR7AMU52H","3OWZNK3RYMVDNXPNEIRWZ8JM6MU2UY","39GAF6DQWT69YBULQ66OFV6PBYI1VN","model","mismatch","uniform","","","","","","","859.3000000119209","997897.1999999881","998756.5","[""stimuli/AM03_FO.jpg"",""stimuli/AM05_HE.jpg"",""stimuli/HM09_CC.jpg"",""stimuli/HF10_AO.jpg""]","stimuli/AM03_FO.jpg","stimuli/AM05_HE.jpg","stimuli/HM09_CC.jpg","stimuli/HF10_AO.jpg","pos1","stimuli/AM03_FO.jpg","FO","AM03","0","4.5","9","8","stimuli/stars_9.png","191","[""FO"",""HE"",""CC"",""AO""]","[""AM03"",""AM05"",""HM09"",""HF10""]","[9,6,8,0]","[8,4,6,2]","","",""
"show-reward","144","1000051","0.0-144.0","p461294","AX27MR7AMU52H","3OWZNK3RYMVDNXPNEIRWZ8JM6MU2UY","39GAF6DQWT69YBULQ66OFV6PBYI1VN","model","mismatch","uniform","","","","","","","","999258.3000000119","1001261.9000000358","","","","","","","","","","","","9","","stimuli/stars_9.png","191","","","","","stimuli/AM03_FO.jpg","",""
"explore-choice","145","1001648","0.0-145.0","p461294","AX27MR7AMU52H","3OWZNK3RYMVDNXPNEIRWZ8JM6MU2UY","39GAF6DQWT69YBULQ66OFV6PBYI1VN","model","mismatch","uniform","","","","","","","1093.9000000357628","1001263.1999999881","1002357.1000000238","[""stimuli/AM05_HE.jpg"",""stimuli/HM09_FO.jpg"",""stimuli/AM03_CC.jpg"",""stimuli/HF10_AO.jpg""]","stimuli/AM05_HE.jpg","stimuli/HM09_FO.jpg","stimuli/AM03_CC.jpg","stimuli/HF10_AO.jpg","pos2","stimuli/HM09_FO.jpg","FO","HM09","1","3.5","7","8","stimuli/stars_7.png","194.5","[""HE"",""FO"",""CC"",""AO""]","[""AM05"",""HM09"",""AM03"",""HF10""]","[4,7,7,2]","[4,8,6,2]","","",""
"show-reward","146","1003653","0.0-146.0","p461294","AX27MR7AMU52H","3OWZNK3RYMVDNXPNEIRWZ8JM6MU2UY","39GAF6DQWT69YBULQ66OFV6PBYI1VN","model","mismatch","uniform","","","","","","","","1002859.4000000358","1004862.9000000358","","","","","","","","","","","","7","","stimuli/stars_7.png","194.5","","","","","stimuli/HM09_FO.jpg","",""
"explore-choice","147","1004967","0.0-147.0","p461294","AX27MR7AMU52H","3OWZNK3RYMVDNXPNEIRWZ8JM6MU2UY","39GAF6DQWT69YBULQ66OFV6PBYI1VN","model","mismatch","uniform","","","","","","","812.7000000476837","1004864.1999999881","1005676.9000000358","[""stimuli/HM09_HE.jpg"",""stimuli/AM05_CC.jpg"",""stimuli/HF10_FO.jpg"",""stimuli/AM03_AO.jpg""]","stimuli/HM09_HE.jpg","stimuli/AM05_CC.jpg","stimuli/HF10_FO.jpg","stimuli/AM03_AO.jpg","pos1","stimuli/HM09_HE.jpg","HE","HM09","0","1","2","4","stimuli/stars_2.png","195.5","[""HE"",""CC"",""FO"",""AO""]","[""HM09"",""AM05"",""HF10"",""AM03""]","[2,8,9,0]","[4,6,8,2]","","",""
"show-reward","148","1006976","0.0-148.0","p461294","AX27MR7AMU52H","3OWZNK3RYMVDNXPNEIRWZ8JM6MU2UY","39GAF6DQWT69YBULQ66OFV6PBYI1VN","model","mismatch","uniform","","","","","","","","1006178.5","1008186.1000000238","","","","","","","","","","","","2","","stimuli/stars_2.png","195.5","","","","","stimuli/HM09_HE.jpg","",""
"explore-choice","149","1008974","0.0-149.0","p461294","AX27MR7AMU52H","3OWZNK3RYMVDNXPNEIRWZ8JM6MU2UY","39GAF6DQWT69YBULQ66OFV6PBYI1VN","model","mismatch","uniform","","","","","","","1489.3999999761581","1008187.3000000119","1009676.6999999881","[""stimuli/AM03_FO.jpg"",""stimuli/HF10_CC.jpg"",""stimuli/HM09_HE.jpg"",""stimuli/AM05_AO.jpg""]","stimuli/AM03_FO.jpg","stimuli/HF10_CC.jpg","stimuli/HM09_HE.jpg","stimuli/AM05_AO.jpg","pos3","stimuli/HM09_HE.jpg","HE","HM09","2","3","6","4","stimuli/stars_6.png","198.5","[""FO"",""CC"",""HE"",""AO""]","[""AM03"",""HF10"",""HM09"",""AM05""]","[10,8,6,1]","[8,6,4,2]","","",""
"show-reward","150","1010986","0.0-150.0","p461294","AX27MR7AMU52H","3OWZNK3RYMVDNXPNEIRWZ8JM6MU2UY","39GAF6DQWT69YBULQ66OFV6PBYI1VN","model","mismatch","uniform","","","","","","","","1010185.8000000119","1012196.1000000238","","","","","","","","","","","","6","","stimuli/stars_6.png","198.5","","","","","stimuli/HM09_HE.jpg","",""
"explore-choice","151","1013110","0.0-151.0","p461294","AX27MR7AMU52H","3OWZNK3RYMVDNXPNEIRWZ8JM6MU2UY","39GAF6DQWT69YBULQ66OFV6PBYI1VN","model","mismatch","uniform","","","","","","","1615.3999999761581","1012197.3000000119","1013812.6999999881","[""stimuli/HF10_FO.jpg"",""stimuli/HM09_CC.jpg"",""stimuli/AM03_AO.jpg"",""stimuli/AM05_HE.jpg""]","stimuli/HF10_FO.jpg","stimuli/HM09_CC.jpg","stimuli/AM03_AO.jpg","stimuli/AM05_HE.jpg","pos2","stimuli/HM09_CC.jpg","CC","HM09","1","3","6","6","stimuli/stars_6.png","201.5","[""FO"",""CC"",""AO"",""HE""]","[""HF10"",""HM09"",""AM03"",""AM05""]","[10,6,4,3]","[8,6,2,4]","","",""
"show-reward","152","1015116","0.0-152.0","p461294","AX27MR7AMU52H","3OWZNK3RYMVDNXPNEIRWZ8JM6MU2UY","39GAF6DQWT69YBULQ66OFV6PBYI1VN","model","mismatch","uniform","","","","","","","","1014321.6999999881","1016326.4000000358","","","","","","","","","","","","6","","stimuli/stars_6.png","201.5","","","","","stimuli/HM09_CC.jpg","",""
"explore-choice","153","1016242","0.0-153.0","p461294","AX27MR7AMU52H","3OWZNK3RYMVDNXPNEIRWZ8JM6MU2UY","39GAF6DQWT69YBULQ66OFV6PBYI1VN","model","mismatch","uniform","","","","","","","620.8000000119209","1016327.6000000238","1016948.4000000358","[""stimuli/AM05_AO.jpg"",""stimuli/AM03_CC.jpg"",""stimuli/HF10_FO.jpg"",""stimuli/HM09_HE.jpg""]","stimuli/AM05_AO.jpg","stimuli/AM03_CC.jpg","stimuli/HF10_FO.jpg","stimuli/HM09_HE.jpg","pos2","stimuli/AM03_CC.jpg","CC","AM03","1","2","4","6","stimuli/stars_4.png","203.5","[""AO"",""CC"",""FO"",""HE""]","[""AM05"",""AM03"",""HF10"",""HM09""]","[0,4,8,5]","[2,6,8,4]","","",""
"show-reward","154","1018247","0.0-154.0","p461294","AX27MR7AMU52H","3OWZNK3RYMVDNXPNEIRWZ8JM6MU2UY","39GAF6DQWT69YBULQ66OFV6PBYI1VN","model","mismatch","uniform","","","","","","","","1017450.5","1019454.1000000238","","","","","","","","","","","","4","","stimuli/stars_4.png","203.5","","","","","stimuli/AM03_CC.jpg","",""
"explore-choice","155","1019890","0.0-155.0","p461294","AX27MR7AMU52H","3OWZNK3RYMVDNXPNEIRWZ8JM6MU2UY","39GAF6DQWT69YBULQ66OFV6PBYI1VN","model","mismatch","uniform","","","","","","","1141","1019455.4000000358","1020596.4000000358","[""stimuli/HM09_AO.jpg"",""stimuli/AM03_CC.jpg"",""stimuli/HF10_FO.jpg"",""stimuli/AM05_HE.jpg""]","stimuli/HM09_AO.jpg","stimuli/AM03_CC.jpg","stimuli/HF10_FO.jpg","stimuli/AM05_HE.jpg","pos2","stimuli/AM03_CC.jpg","CC","AM03","1","3.5","7","6","stimuli/stars_7.png","207","[""AO"",""CC"",""FO"",""HE""]","[""HM09"",""AM03"",""HF10"",""AM05""]","[4,7,7,4]","[2,6,8,4]","","",""
"show-reward","156","1021896","0.0-156.0","p461294","AX27MR7AMU52H","3OWZNK3RYMVDNXPNEIRWZ8JM6MU2UY","39GAF6DQWT69YBULQ66OFV6PBYI1VN","model","mismatch","uniform","","","","","","","","1021098.6999999881","1023103.1000000238","","","","","","","","","","","","7","","stimuli/stars_7.png","207","","","","","stimuli/AM03_CC.jpg","",""
"explore-choice","157","1023082","0.0-157.0","p461294","AX27MR7AMU52H","3OWZNK3RYMVDNXPNEIRWZ8JM6MU2UY","39GAF6DQWT69YBULQ66OFV6PBYI1VN","model","mismatch","uniform","","","","","","","683.7999999523163","1023104.4000000358","1023788.1999999881","[""stimuli/HF10_AO.jpg"",""stimuli/HM09_CC.jpg"",""stimuli/AM03_FO.jpg"",""stimuli/AM05_HE.jpg""]","stimuli/HF10_AO.jpg","stimuli/HM09_CC.jpg","stimuli/AM03_FO.jpg","stimuli/AM05_HE.jpg","pos2","stimuli/HM09_CC.jpg","CC","HM09","1","4","8","6","stimuli/stars_8.png","211","[""AO"",""CC"",""FO"",""HE""]","[""HF10"",""HM09"",""AM03"",""AM05""]","[0,8,9,6]","[2,6,8,4]","","",""
"show-reward","158","1025087","0.0-158.0","p461294","AX27MR7AMU52H","3OWZNK3RYMVDNXPNEIRWZ8JM6MU2UY","39GAF6DQWT69YBULQ66OFV6PBYI1VN","model","mismatch","uniform","","","","","","","","1024290.5","1026294.3000000119","","","","","","","","","","","","8","","stimuli/stars_8.png","211","","","","","stimuli/HM09_CC.jpg","",""
"explore-choice","159","1026922","0.0-159.0","p461294","AX27MR7AMU52H","3OWZNK3RYMVDNXPNEIRWZ8JM6MU2UY","39GAF6DQWT69YBULQ66OFV6PBYI1VN","model","mismatch","uniform","","","","","","","1332.699999988079","1026295.6000000238","1027628.3000000119","[""stimuli/HM09_CC.jpg"",""stimuli/HF10_AO.jpg"",""stimuli/AM05_FO.jpg"",""stimuli/AM03_HE.jpg""]","stimuli/HM09_CC.jpg","stimuli/HF10_AO.jpg","stimuli/AM05_FO.jpg","stimuli/AM03_HE.jpg","pos4","stimuli/AM03_HE.jpg","HE","AM03","3","3","6","4","stimuli/stars_6.png","214","[""CC"",""AO"",""FO"",""HE""]","[""HM09"",""HF10"",""AM05"",""AM03""]","[5,3,8,6]","[6,2,8,4]","","",""
"show-reward","160","1028927","0.0-160.0","p461294","AX27MR7AMU52H","3OWZNK3RYMVDNXPNEIRWZ8JM6MU2UY","39GAF6DQWT69YBULQ66OFV6PBYI1VN","model","mismatch","uniform","","","","","","","","1028131","1030134.3000000119","","","","","","","","","","","","6","","stimuli/stars_6.png","214","","","","","stimuli/AM03_HE.jpg","",""
"explore-choice","161","1031124","0.0-161.0","p461294","AX27MR7AMU52H","3OWZNK3RYMVDNXPNEIRWZ8JM6MU2UY","39GAF6DQWT69YBULQ66OFV6PBYI1VN","model","mismatch","uniform","","","","","","","1692.5","1030135.6999999881","1031828.1999999881","[""stimuli/AM03_HE.jpg"",""stimuli/AM05_CC.jpg"",""stimuli/HF10_AO.jpg"",""stimuli/HM09_FO.jpg""]","stimuli/AM03_HE.jpg","stimuli/AM05_CC.jpg","stimuli/HF10_AO.jpg","stimuli/HM09_FO.jpg","pos1","stimuli/AM03_HE.jpg","HE","AM03","0","3","6","4","stimuli/stars_6.png","217","[""HE"",""CC"",""AO"",""FO""]","[""AM03"",""AM05"",""HF10"",""HM09""]","[6,7,2,9]","[4,6,2,8]","","",""
"show-reward","162","1033129","0.0-162.0","p461294","AX27MR7AMU52H","3OWZNK3RYMVDNXPNEIRWZ8JM6MU2UY","39GAF6DQWT69YBULQ66OFV6PBYI1VN","model","mismatch","uniform","","","","","","","","1032332.6999999881","1034336.3000000119","","","","","","","","","","","","6","","stimuli/stars_6.png","217","","","","","stimuli/AM03_HE.jpg","",""
"explore-choice","163","1034457","0.0-163.0","p461294","AX27MR7AMU52H","3OWZNK3RYMVDNXPNEIRWZ8JM6MU2UY","39GAF6DQWT69YBULQ66OFV6PBYI1VN","model","mismatch","uniform","","","","","","","826.4000000357628","1034337.6999999881","1035164.1000000238","[""stimuli/HF10_HE.jpg"",""stimuli/HM09_AO.jpg"",""stimuli/AM03_CC.jpg"",""stimuli/AM05_FO.jpg""]","stimuli/HF10_HE.jpg","stimuli/HM09_AO.jpg","stimuli/AM03_CC.jpg","stimuli/AM05_FO.jpg","pos1","stimuli/HF10_HE.jpg","HE","HF10","0","2","4","4","stimuli/stars_4.png","219","[""HE"",""AO"",""CC"",""FO""]","[""HF10"",""HM09"",""AM03"",""AM05""]","[4,1,6,7]","[4,2,6,8]","","",""
"show-reward","164","1036471","0.0-164.0","p461294","AX27MR7AMU52H","3OWZNK3RYMVDNXPNEIRWZ8JM6MU2UY","39GAF6DQWT69YBULQ66OFV6PBYI1VN","model","mismatch","uniform","","","","","","","","1035665.6999999881","1037678.5","","","","","","","","","","","","4","","stimuli/stars_4.png","219","","","","","stimuli/HF10_HE.jpg","",""
"explore-choice","165","1038057","0.0-165.0","p461294","AX27MR7AMU52H","3OWZNK3RYMVDNXPNEIRWZ8JM6MU2UY","39GAF6DQWT69YBULQ66OFV6PBYI1VN","model","mismatch","uniform","","","","","","","1084.199999988079","1037679.8000000119","1038764","[""stimuli/HF10_HE.jpg"",""stimuli/AM05_FO.jpg"",""stimuli/AM03_AO.jpg"",""stimuli/HM09_CC.jpg""]","stimuli/HF10_HE.jpg","stimuli/AM05_FO.jpg","stimuli/AM03_AO.jpg","stimuli/HM09_CC.jpg","pos4","stimuli/HM09_CC.jpg","CC","HM09","3","2.5","5","6","stimuli/stars_5.png","221.5","[""HE"",""FO"",""AO"",""CC""]","[""HF10"",""AM05"",""AM03"",""HM09""]","[6,10,1,5]","[4,8,2,6]","","",""
"show-reward","166","1040068","0.0-166.0","p461294","AX27MR7AMU52H","3OWZNK3RYMVDNXPNEIRWZ8JM6MU2UY","39GAF6DQWT69YBULQ66OFV6PBYI1VN","model","mismatch","uniform","","","","","","","","1039265.9000000358","1041275.4000000358","","","","","","","","","","","","5","","stimuli/stars_5.png","221.5","","","","","stimuli/HM09_CC.jpg","",""
"explore-choice","167","1041665","0.0-167.0","p461294","AX27MR7AMU52H","3OWZNK3RYMVDNXPNEIRWZ8JM6MU2UY","39GAF6DQWT69YBULQ66OFV6PBYI1VN","model","mismatch","uniform","","","","","","","1095.1000000238419","1041276.8000000119","1042371.9000000358","[""stimuli/HM09_HE.jpg"",""stimuli/AM03_AO.jpg"",""stimuli/AM05_CC.jpg"",""stimuli/HF10_FO.jpg""]","stimuli/HM09_HE.jpg","stimuli/AM03_AO.jpg","stimuli/AM05_CC.jpg","stimuli/HF10_FO.jpg","pos1","stimuli/HM09_HE.jpg","HE","HM09","0","1","2","4","stimuli/stars_2.png","222.5","[""HE"",""AO"",""CC"",""FO""]","[""HM09"",""AM03"",""AM05"",""HF10""]","[2,0,8,9]","[4,2,6,8]","","",""
"show-reward","168","1043668","0.0-168.0","p461294","AX27MR7AMU52H","3OWZNK3RYMVDNXPNEIRWZ8JM6MU2UY","39GAF6DQWT69YBULQ66OFV6PBYI1VN","model","mismatch","uniform","","","","","","","","1042873.5","1044875.6000000238","","","","","","","","","","","","2","","stimuli/stars_2.png","222.5","","","","","stimuli/HM09_HE.jpg","",""
"explore-choice","169","1044913","0.0-169.0","p461294","AX27MR7AMU52H","3OWZNK3RYMVDNXPNEIRWZ8JM6MU2UY","39GAF6DQWT69YBULQ66OFV6PBYI1VN","model","mismatch","uniform","","","","","","","743","1044876.6999999881","1045619.6999999881","[""stimuli/HM09_FO.jpg"",""stimuli/AM05_AO.jpg"",""stimuli/HF10_HE.jpg"",""stimuli/AM03_CC.jpg""]","stimuli/HM09_FO.jpg","stimuli/AM05_AO.jpg","stimuli/HF10_HE.jpg","stimuli/AM03_CC.jpg","pos4","stimuli/AM03_CC.jpg","CC","AM03","3","3","6","6","stimuli/stars_6.png","225.5","[""FO"",""AO"",""HE"",""CC""]","[""HM09"",""AM05"",""HF10"",""AM03""]","[10,3,4,6]","[8,2,4,6]","","",""
"show-reward","170","1046918","0.0-170.0","p461294","AX27MR7AMU52H","3OWZNK3RYMVDNXPNEIRWZ8JM6MU2UY","39GAF6DQWT69YBULQ66OFV6PBYI1VN","model","mismatch","uniform","","","","","","","","1046121.8000000119","1048125.6000000238","","","","","","","","","","","","6","","stimuli/stars_6.png","225.5","","","","","stimuli/AM03_CC.jpg","",""
"explore-choice","171","1049329","0.0-171.0","p461294","AX27MR7AMU52H","3OWZNK3RYMVDNXPNEIRWZ8JM6MU2UY","39GAF6DQWT69YBULQ66OFV6PBYI1VN","model","mismatch","uniform","","","","","","","1908.699999988079","1048126.8000000119","1050035.5","[""stimuli/AM05_AO.jpg"",""stimuli/HM09_CC.jpg"",""stimuli/AM03_HE.jpg"",""stimuli/HF10_FO.jpg""]","stimuli/AM05_AO.jpg","stimuli/HM09_CC.jpg","stimuli/AM03_HE.jpg","stimuli/HF10_FO.jpg","pos2","stimuli/HM09_CC.jpg","CC","HM09","1","4","8","6","stimuli/stars_8.png","229.5","[""AO"",""CC"",""HE"",""FO""]","[""AM05"",""HM09"",""AM03"",""HF10""]","[2,8,6,9]","[2,6,4,8]","","",""
"show-reward","172","1051335","0.0-172.0","p461294","AX27MR7AMU52H","3OWZNK3RYMVDNXPNEIRWZ8JM6MU2UY","39GAF6DQWT69YBULQ66OFV6PBYI1VN","model","mismatch","uniform","","","","","","","","1050538","1052542.6000000238","","","","","","","","","","","","8","","stimuli/stars_8.png","229.5","","","","","stimuli/HM09_CC.jpg","",""
"explore-choice","173","1053655","0.0-173.0","p461294","AX27MR7AMU52H","3OWZNK3RYMVDNXPNEIRWZ8JM6MU2UY","39GAF6DQWT69YBULQ66OFV6PBYI1VN","model","mismatch","uniform","","","","","","","1811.3999999761581","1052543.9000000358","1054355.300000012","[""stimuli/AM05_CC.jpg"",""stimuli/HF10_AO.jpg"",""stimuli/AM03_FO.jpg"",""stimuli/HM09_HE.jpg""]","stimuli/AM05_CC.jpg","stimuli/HF10_AO.jpg","stimuli/AM03_FO.jpg","stimuli/HM09_HE.jpg","pos4","stimuli/HM09_HE.jpg","HE","HM09","3","2.5","5","4","stimuli/stars_5.png","232","[""CC"",""AO"",""FO"",""HE""]","[""AM05"",""HF10"",""AM03"",""HM09""]","[8,1,10,5]","[6,2,8,4]","","",""
"show-reward","174","1055668","0.0-174.0","p461294","AX27MR7AMU52H","3OWZNK3RYMVDNXPNEIRWZ8JM6MU2UY","39GAF6DQWT69YBULQ66OFV6PBYI1VN","model","mismatch","uniform","","","","","","","","1054863.6000000238","1056874.800000012","","","","","","","","","","","","5","","stimuli/stars_5.png","232","","","","","stimuli/HM09_HE.jpg","",""
"explore-choice","175","1057590","0.0-175.0","p461294","AX27MR7AMU52H","3OWZNK3RYMVDNXPNEIRWZ8JM6MU2UY","39GAF6DQWT69YBULQ66OFV6PBYI1VN","model","mismatch","uniform","","","","","","","1415.3999999761581","1056876.1000000238","1058291.5","[""stimuli/AM05_AO.jpg"",""stimuli/HM09_HE.jpg"",""stimuli/HF10_CC.jpg"",""stimuli/AM03_FO.jpg""]","stimuli/AM05_AO.jpg","stimuli/HM09_HE.jpg","stimuli/HF10_CC.jpg","stimuli/AM03_FO.jpg","pos2","stimuli/HM09_HE.jpg","HE","HM09","1","3","6","4","stimuli/stars_6.png","235","[""AO"",""HE"",""CC"",""FO""]","[""AM05"",""HM09"",""HF10"",""AM03""]","[1,6,8,10]","[2,4,6,8]","","",""
"show-reward","176","1059598","0.0-176.0","p461294","AX27MR7AMU52H","3OWZNK3RYMVDNXPNEIRWZ8JM6MU2UY","39GAF6DQWT69YBULQ66OFV6PBYI1VN","model","mismatch","uniform","","","","","","","","1058798.4000000358","1060804.800000012","","","","","","","","","","","","6","","stimuli/stars_6.png","235","","","","","stimuli/HM09_HE.jpg","",""
"explore-choice","177","1062225","0.0-177.0","p461294","AX27MR7AMU52H","3OWZNK3RYMVDNXPNEIRWZ8JM6MU2UY","39GAF6DQWT69YBULQ66OFV6PBYI1VN","model","mismatch","uniform","","","","","","","2117.300000011921","1060806","1062923.300000012","[""stimuli/AM05_HE.jpg"",""stimuli/HF10_CC.jpg"",""stimuli/AM03_FO.jpg"",""stimuli/HM09_AO.jpg""]","stimuli/AM05_HE.jpg","stimuli/HF10_CC.jpg","stimuli/AM03_FO.jpg","stimuli/HM09_AO.jpg","pos1","stimuli/AM05_HE.jpg","HE","AM05","0","3","6","4","stimuli/stars_6.png","238","[""HE"",""CC"",""FO"",""AO""]","[""AM05"",""HF10"",""AM03"",""HM09""]","[6,7,7,0]","[4,6,8,2]","","",""
"show-reward","178","1064234","0.0-178.0","p461294","AX27MR7AMU52H","3OWZNK3RYMVDNXPNEIRWZ8JM6MU2UY","39GAF6DQWT69YBULQ66OFV6PBYI1VN","model","mismatch","uniform","","","","","","","","1063433.699999988","1065440.800000012","","","","","","","","","","","","6","","stimuli/stars_6.png","238","","","","","stimuli/AM05_HE.jpg","",""
"explore-choice","179","1066161","0.0-179.0","p461294","AX27MR7AMU52H","3OWZNK3RYMVDNXPNEIRWZ8JM6MU2UY","39GAF6DQWT69YBULQ66OFV6PBYI1VN","model","mismatch","uniform","","","","","","","1424.8999999761581","1065442.1000000238","1066867","[""stimuli/AM03_CC.jpg"",""stimuli/HF10_AO.jpg"",""stimuli/AM05_FO.jpg"",""stimuli/HM09_HE.jpg""]","stimuli/AM03_CC.jpg","stimuli/HF10_AO.jpg","stimuli/AM05_FO.jpg","stimuli/HM09_HE.jpg","pos4","stimuli/HM09_HE.jpg","HE","HM09","3","2.5","5","4","stimuli/stars_5.png","240.5","[""CC"",""AO"",""FO"",""HE""]","[""AM03"",""HF10"",""AM05"",""HM09""]","[5,0,8,5]","[6,2,8,4]","","",""
"show-reward","180","1068175","0.0-180.0","p461294","AX27MR7AMU52H","3OWZNK3RYMVDNXPNEIRWZ8JM6MU2UY","39GAF6DQWT69YBULQ66OFV6PBYI1VN","model","mismatch","uniform","","","","","","","","1067369.300000012","1069381.9000000358","","","","","","","","","","","","5","","stimuli/stars_5.png","240.5","","","","","stimuli/HM09_HE.jpg","",""
"explore-choice","181","1069899","0.0-181.0","p461294","AX27MR7AMU52H","3OWZNK3RYMVDNXPNEIRWZ8JM6MU2UY","39GAF6DQWT69YBULQ66OFV6PBYI1VN","model","mismatch","uniform","","","","","","","1219.800000011921","1069383.1000000238","1070602.9000000358","[""stimuli/HM09_FO.jpg"",""stimuli/AM05_HE.jpg"",""stimuli/HF10_CC.jpg"",""stimuli/AM03_AO.jpg""]","stimuli/HM09_FO.jpg","stimuli/AM05_HE.jpg","stimuli/HF10_CC.jpg","stimuli/AM03_AO.jpg","pos1","stimuli/HM09_FO.jpg","FO","HM09","0","4.5","9","8","stimuli/stars_9.png","245","[""FO"",""HE"",""CC"",""AO""]","[""HM09"",""AM05"",""HF10"",""AM03""]","[9,6,7,0]","[8,4,6,2]","","",""
"show-reward","182","1071909","0.0-182.0","p461294","AX27MR7AMU52H","3OWZNK3RYMVDNXPNEIRWZ8JM6MU2UY","39GAF6DQWT69YBULQ66OFV6PBYI1VN","model","mismatch","uniform","","","","","","","","1071107.5","1073115.800000012","","","","","","","","","","","","9","","stimuli/stars_9.png","245","","","","","stimuli/HM09_FO.jpg","",""
"explore-choice","183","1073618","0.0-183.0","p461294","AX27MR7AMU52H","3OWZNK3RYMVDNXPNEIRWZ8JM6MU2UY","39GAF6DQWT69YBULQ66OFV6PBYI1VN","model","mismatch","uniform","","","","","","","1205.800000011921","1073117.1000000238","1074322.9000000358","[""stimuli/HM09_FO.jpg"",""stimuli/AM03_AO.jpg"",""stimuli/HF10_HE.jpg"",""stimuli/AM05_CC.jpg""]","stimuli/HM09_FO.jpg","stimuli/AM03_AO.jpg","stimuli/HF10_HE.jpg","stimuli/AM05_CC.jpg","pos1","stimuli/HM09_FO.jpg","FO","HM09","0","3","6","8","stimuli/stars_6.png","248","[""FO"",""AO"",""HE"",""CC""]","[""HM09"",""AM03"",""HF10"",""AM05""]","[6,2,2,5]","[8,2,4,6]","","",""
"show-reward","184","1075628","0.0-184.0","p461294","AX27MR7AMU52H","3OWZNK3RYMVDNXPNEIRWZ8JM6MU2UY","39GAF6DQWT69YBULQ66OFV6PBYI1VN","model","mismatch","uniform","","","","","","","","1074826.1000000238","1076835","","","","","","","","","","","","6","","stimuli/stars_6.png","248","","","","","stimuli/HM09_FO.jpg","",""
"explore-choice","185","1077957","0.0-185.0","p461294","AX27MR7AMU52H","3OWZNK3RYMVDNXPNEIRWZ8JM6MU2UY","39GAF6DQWT69YBULQ66OFV6PBYI1VN","model","mismatch","uniform","","","","","","","1830.0999999642372","1076836.4000000358","1078666.5","[""stimuli/AM05_FO.jpg"",""stimuli/AM03_HE.jpg"",""stimuli/HM09_AO.jpg"",""stimuli/HF10_CC.jpg""]","stimuli/AM05_FO.jpg","stimuli/AM03_HE.jpg","stimuli/HM09_AO.jpg","stimuli/HF10_CC.jpg","pos4","stimuli/HF10_CC.jpg","CC","HF10","3","2.5","5","6","stimuli/stars_5.png","250.5","[""FO"",""HE"",""AO"",""CC""]","[""AM05"",""AM03"",""HM09"",""HF10""]","[8,5,4,5]","[8,4,2,6]","","",""
"show-reward","186","1079962","0.0-186.0","p461294","AX27MR7AMU52H","3OWZNK3RYMVDNXPNEIRWZ8JM6MU2UY","39GAF6DQWT69YBULQ66OFV6PBYI1VN","model","mismatch","uniform","","","","","","","","1079168.6000000238","1081171.800000012","","","","","","","","","","","","5","","stimuli/stars_5.png","250.5","","","","","stimuli/HF10_CC.jpg","",""
"explore-choice","187","1082661","0.0-187.0","p461294","AX27MR7AMU52H","3OWZNK3RYMVDNXPNEIRWZ8JM6MU2UY","39GAF6DQWT69YBULQ66OFV6PBYI1VN","model","mismatch","uniform","","","","","","","2197.400000035763","1081173.199999988","1083370.6000000238","[""stimuli/HF10_AO.jpg"",""stimuli/HM09_FO.jpg"",""stimuli/AM03_CC.jpg"",""stimuli/AM05_HE.jpg""]","stimuli/HF10_AO.jpg","stimuli/HM09_FO.jpg","stimuli/AM03_CC.jpg","stimuli/AM05_HE.jpg","pos4","stimuli/AM05_HE.jpg","HE","AM05","3","2","4","4","stimuli/stars_4.png","252.5","[""AO"",""FO"",""CC"",""HE""]","[""HF10"",""HM09"",""AM03"",""AM05""]","[2,7,7,4]","[2,8,6,4]","","",""
"show-reward","188","1084666","0.0-188.0","p461294","AX27MR7AMU52H","3OWZNK3RYMVDNXPNEIRWZ8JM6MU2UY","39GAF6DQWT69YBULQ66OFV6PBYI1VN","model","mismatch","uniform","","","","","","","","1083872.5","1085875.9000000358","","","","","","","","","","","","4","","stimuli/stars_4.png","252.5","","","","","stimuli/AM05_HE.jpg","",""
"explore-choice","189","1086494","0.0-189.0","p461294","AX27MR7AMU52H","3OWZNK3RYMVDNXPNEIRWZ8JM6MU2UY","39GAF6DQWT69YBULQ66OFV6PBYI1VN","model","mismatch","uniform","","","","","","","1325.4000000357628","1085877.199999988","1087202.6000000238","[""stimuli/AM03_FO.jpg"",""stimuli/AM05_AO.jpg"",""stimuli/HF10_HE.jpg"",""stimuli/HM09_CC.jpg""]","stimuli/AM03_FO.jpg","stimuli/AM05_AO.jpg","stimuli/HF10_HE.jpg","stimuli/HM09_CC.jpg","pos4","stimuli/HM09_CC.jpg","CC","HM09","3","3.5","7","6","stimuli/stars_7.png","256","[""FO"",""AO"",""HE"",""CC""]","[""AM03"",""AM05"",""HF10"",""HM09""]","[10,1,2,7]","[8,2,4,6]","","",""
"show-reward","190","1088499","0.0-190.0","p461294","AX27MR7AMU52H","3OWZNK3RYMVDNXPNEIRWZ8JM6MU2UY","39GAF6DQWT69YBULQ66OFV6PBYI1VN","model","mismatch","uniform","","","","","","","","1087705.4000000358","1089709","","","","","","","","","","","","7","","stimuli/stars_7.png","256","","","","","stimuli/HM09_CC.jpg","",""
"explore-choice","191","1089973","0.0-191.0","p461294","AX27MR7AMU52H","3OWZNK3RYMVDNXPNEIRWZ8JM6MU2UY","39GAF6DQWT69YBULQ66OFV6PBYI1VN","model","mismatch","uniform","","","","","","","972.1000000238419","1089710.300000012","1090682.4000000358","[""stimuli/AM05_CC.jpg"",""stimuli/HM09_AO.jpg"",""stimuli/AM03_FO.jpg"",""stimuli/HF10_HE.jpg""]","stimuli/AM05_CC.jpg","stimuli/HM09_AO.jpg","stimuli/AM03_FO.jpg","stimuli/HF10_HE.jpg","pos4","stimuli/HF10_HE.jpg","HE","HF10","3","1.5","3","4","stimuli/stars_3.png","257.5","[""CC"",""AO"",""FO"",""HE""]","[""AM05"",""HM09"",""AM03"",""HF10""]","[6,2,6,3]","[6,2,8,4]","","",""
"show-reward","192","1091978","0.0-192.0","p461294","AX27MR7AMU52H","3OWZNK3RYMVDNXPNEIRWZ8JM6MU2UY","39GAF6DQWT69YBULQ66OFV6PBYI1VN","model","mismatch","uniform","","","","","","","","1091184.4000000358","1093188","","","","","","","","","","","","3","","stimuli/stars_3.png","257.5","","","","","stimuli/HF10_HE.jpg","",""
"explore-choice","193","1093825","0.0-193.0","p461294","AX27MR7AMU52H","3OWZNK3RYMVDNXPNEIRWZ8JM6MU2UY","39GAF6DQWT69YBULQ66OFV6PBYI1VN","model","mismatch","uniform","","","","","","","1341.1000000238419","1093189.199999988","1094530.300000012","[""stimuli/HF10_FO.jpg"",""stimuli/AM05_CC.jpg"",""stimuli/AM03_HE.jpg"",""stimuli/HM09_AO.jpg""]","stimuli/HF10_FO.jpg","stimuli/AM05_CC.jpg","stimuli/AM03_HE.jpg","stimuli/HM09_AO.jpg","pos3","stimuli/AM03_HE.jpg","HE","AM03","2","2.5","5","4","stimuli/stars_5.png","260","[""FO"",""CC"",""HE"",""AO""]","[""HF10"",""AM05"",""AM03"",""HM09""]","[9,6,5,2]","[8,6,4,2]","","",""
"show-reward","194","1095834","0.0-194.0","p461294","AX27MR7AMU52H","3OWZNK3RYMVDNXPNEIRWZ8JM6MU2UY","39GAF6DQWT69YBULQ66OFV6PBYI1VN","model","mismatch","uniform","","","","","","","","1095035.800000012","1097044.1000000238","","","","","","","","","","","","5","","stimuli/stars_5.png","260","","","","","stimuli/AM03_HE.jpg","",""
"explore-choice","195","1098094","0.0-195.0","p461294","AX27MR7AMU52H","3OWZNK3RYMVDNXPNEIRWZ8JM6MU2UY","39GAF6DQWT69YBULQ66OFV6PBYI1VN","model","mismatch","uniform","","","","","","","1756.8999999761581","1097045.4000000358","1098802.300000012","[""stimuli/HM09_HE.jpg"",""stimuli/HF10_CC.jpg"",""stimuli/AM05_FO.jpg"",""stimuli/AM03_AO.jpg""]","stimuli/HM09_HE.jpg","stimuli/HF10_CC.jpg","stimuli/AM05_FO.jpg","stimuli/AM03_AO.jpg","pos1","stimuli/HM09_HE.jpg","HE","HM09","0","3","6","4","stimuli/stars_6.png","263","[""HE"",""CC"",""FO"",""AO""]","[""HM09"",""HF10"",""AM05"",""AM03""]","[6,4,8,4]","[4,6,8,2]","","",""
"show-reward","196","1100098","0.0-196.0","p461294","AX27MR7AMU52H","3OWZNK3RYMVDNXPNEIRWZ8JM6MU2UY","39GAF6DQWT69YBULQ66OFV6PBYI1VN","model","mismatch","uniform","","","","","","","","1099304.699999988","1101308","","","","","","","","","","","","6","","stimuli/stars_6.png","263","","","","","stimuli/HM09_HE.jpg","",""
"explore-choice","197","1101474","0.0-197.0","p461294","AX27MR7AMU52H","3OWZNK3RYMVDNXPNEIRWZ8JM6MU2UY","39GAF6DQWT69YBULQ66OFV6PBYI1VN","model","mismatch","uniform","","","","","","","868.7999999523163","1101309.4000000358","1102178.199999988","[""stimuli/AM03_HE.jpg"",""stimuli/AM05_AO.jpg"",""stimuli/HM09_FO.jpg"",""stimuli/HF10_CC.jpg""]","stimuli/AM03_HE.jpg","stimuli/AM05_AO.jpg","stimuli/HM09_FO.jpg","stimuli/HF10_CC.jpg","pos1","stimuli/AM03_HE.jpg","HE","AM03","0","2.5","5","4","stimuli/stars_5.png","265.5","[""HE"",""AO"",""FO"",""CC""]","[""AM03"",""AM05"",""HM09"",""HF10""]","[5,4,7,7]","[4,2,8,6]","","",""
"show-reward","198","1103478","0.0-198.0","p461294","AX27MR7AMU52H","3OWZNK3RYMVDNXPNEIRWZ8JM6MU2UY","39GAF6DQWT69YBULQ66OFV6PBYI1VN","model","mismatch","uniform","","","","","","","","1102684.800000012","1104688.1000000238","","","","","","","","","","","","5","","stimuli/stars_5.png","265.5","","","","","stimuli/AM03_HE.jpg","",""
"instructions","199","1108032","0.0-199.0","p461294","AX27MR7AMU52H","3OWZNK3RYMVDNXPNEIRWZ8JM6MU2UY","39GAF6DQWT69YBULQ66OFV6PBYI1VN","model","mismatch","uniform","","","","","","[{""page_index"":0,""viewing_time"":4551.899999976158}]","4552.5","","","","","","","","","","","","","","","","","","","","","","","",""
"survey-text","200","1111497","0.0-200.0-0.0","p461294","AX27MR7AMU52H","3OWZNK3RYMVDNXPNEIRWZ8JM6MU2UY","39GAF6DQWT69YBULQ66OFV6PBYI1VN","model","mismatch","uniform","","","","","","","3459.199999988079","","","","","","","","","","","","","","","","","","","","","","","{""age"":""61""}",""
"survey-text","201","1115696","0.0-200.0-1.0","p461294","AX27MR7AMU52H","3OWZNK3RYMVDNXPNEIRWZ8JM6MU2UY","39GAF6DQWT69YBULQ66OFV6PBYI1VN","model","mismatch","uniform","","","","","","","4196.099999964237","","","","","","","","","","","","","","","","","","","","","","","{""gender"":""Male""}",""
"survey-text","202","1121176","0.0-200.0-2.0","p461294","AX27MR7AMU52H","3OWZNK3RYMVDNXPNEIRWZ8JM6MU2UY","39GAF6DQWT69YBULQ66OFV6PBYI1VN","model","mismatch","uniform","","","","","","","5476.800000011921","","","","","","","","","","","","","","","","","","","","","","","{""country"":""United States""}",""
"survey-text","203","1132224","0.0-200.0-3.0","p461294","AX27MR7AMU52H","3OWZNK3RYMVDNXPNEIRWZ8JM6MU2UY","39GAF6DQWT69YBULQ66OFV6PBYI1VN","model","mismatch","uniform","","","","","","","11044.399999976158","","","","","","","","","","","","","","","","","","","","","","","{""language"":""English"",""other_languages"":""Lithuanian""}",""
"survey-multi-select","204","1134512","0.0-201.0","p461294","AX27MR7AMU52H","3OWZNK3RYMVDNXPNEIRWZ8JM6MU2UY","39GAF6DQWT69YBULQ66OFV6PBYI1VN","model","mismatch","uniform","","","","","","","2282","","","","","","","","","","","","","","","","","","","","","","","{""race"":[""White""]}","[0]"
"survey-multi-choice","205","1137890","0.0-202.0","p461294","AX27MR7AMU52H","3OWZNK3RYMVDNXPNEIRWZ8JM6MU2UY","39GAF6DQWT69YBULQ66OFV6PBYI1VN","model","mismatch","uniform","","","","","","","3374.199999988079","","","","","","","","","","","","","","","","","","","","","","","{""education"":""Bachelor's degree""}","[0]"
"survey-text","206","1169134","0.0-203.0","p461294","AX27MR7AMU52H","3OWZNK3RYMVDNXPNEIRWZ8JM6MU2UY","39GAF6DQWT69YBULQ66OFV6PBYI1VN","model","mismatch","uniform","","","","","","","31237.5","","","","","","","","","","","","","","","","","","","","","","","{""patterns"":""some.  pick happy faces."",""strategy"":""stick to corners and happy faces"",""comments"":""no""}",""
