"trial_type","trial_index","time_elapsed","internal_node_id","subject","workerId","hitId","assignmentId","structure_condition","match_condition","noise_type","success","timeout","failed_images","failed_audio","failed_video","view_history","rt","start_time","end_time","stimuli","image1","image2","image3","image4","choiceLocation","choiceImage","choiceEmotion","choiceModel","choice_index","reward_score","reward","reward_score_unadjusted","reward_image","score_after_trial","emotions","models","rewards","rewards_unadjusted","stimulus","response","question_order"
"pavlovia","0","8","0.0-0.0","p957511","APGX2WZ59OWDN","3OWZNK3RYMVDNXPNEIRWZ8JM6MU2UY","3DYGAII7PNEKAVH6P9N4A4PFXM8PQK","emotion","match","uniform","","","","","","","","","","","","","","","","","","","","","","","","","","","","","","",""
"preload","1","1929","0.0-1.0","p957511","APGX2WZ59OWDN","3OWZNK3RYMVDNXPNEIRWZ8JM6MU2UY","3DYGAII7PNEKAVH6P9N4A4PFXM8PQK","emotion","match","uniform","true","false","[]","[]","[]","","","","","","","","","","","","","","","","","","","","","","","","","",""
"fullscreen","2","113699","0.0-2.0","p957511","APGX2WZ59OWDN","3OWZNK3RYMVDNXPNEIRWZ8JM6MU2UY","3DYGAII7PNEKAVH6P9N4A4PFXM8PQK","emotion","match","uniform","true","","","","","","","","","","","","","","","","","","","","","","","","","","","","","",""
"instructions","3","117058","0.0-3.0","p957511","APGX2WZ59OWDN","3OWZNK3RYMVDNXPNEIRWZ8JM6MU2UY","3DYGAII7PNEKAVH6P9N4A4PFXM8PQK","emotion","match","uniform","","","","","","[{""page_index"":0,""viewing_time"":3357.699999809265}]","3358.199999809265","","","","","","","","","","","","","","","","","","","","","","","",""
"explore-choice","4","119255","0.0-4.0","p957511","APGX2WZ59OWDN","3OWZNK3RYMVDNXPNEIRWZ8JM6MU2UY","3DYGAII7PNEKAVH6P9N4A4PFXM8PQK","emotion","match","uniform","","","","","","","1695.3999996185303","118486","120181.39999961853","[""stimuli/sheep.jpg"",""stimuli/hammer.jpg"",""stimuli/basketball.jpg"",""stimuli/horse.jpg""]","stimuli/sheep.jpg","stimuli/hammer.jpg","stimuli/basketball.jpg","stimuli/horse.jpg","pos4","stimuli/horse.jpg","","","3","64","64","64","stimuli/stars_8.png","65","","","","","","",""
"explore-choice","5","120751","0.0-5.0","p957511","APGX2WZ59OWDN","3OWZNK3RYMVDNXPNEIRWZ8JM6MU2UY","3DYGAII7PNEKAVH6P9N4A4PFXM8PQK","emotion","match","uniform","","","","","","","995.3999996185303","120682.19999980927","121677.5999994278","[""stimuli/hammer.jpg"",""stimuli/basketball.jpg"",""stimuli/horse.jpg"",""stimuli/sheep.jpg""]","stimuli/hammer.jpg","stimuli/basketball.jpg","stimuli/horse.jpg","stimuli/sheep.jpg","pos1","stimuli/hammer.jpg","","","0","8","8","8","stimuli/stars_2.png","9","","","","","","",""
"instructions","6","129332","0.0-6.0","p957511","APGX2WZ59OWDN","3OWZNK3RYMVDNXPNEIRWZ8JM6MU2UY","3DYGAII7PNEKAVH6P9N4A4PFXM8PQK","emotion","match","uniform","","","","","","[{""page_index"":0,""viewing_time"":8579.60000038147}]","8579.800000190735","","","","","","","","","","","","","","","","","","","","","","","",""
"explore-choice","7","132084","0.0-7.0","p957511","APGX2WZ59OWDN","3OWZNK3RYMVDNXPNEIRWZ8JM6MU2UY","3DYGAII7PNEKAVH6P9N4A4PFXM8PQK","emotion","match","uniform","","","","","","","2247.1000003814697","130759.39999961853","133006.5","[""stimuli/HM07_SUR.jpg"",""stimuli/BF05_CC.jpg"",""stimuli/HF04_FO.jpg"",""stimuli/AM06_HE.jpg""]","stimuli/HM07_SUR.jpg","stimuli/BF05_CC.jpg","stimuli/HF04_FO.jpg","stimuli/AM06_HE.jpg","pos1","stimuli/HM07_SUR.jpg","SUR","HM07","0","3.5","7","8","stimuli/stars_7.png","4.5","[""SUR"",""CC"",""FO"",""HE""]","[""HM07"",""BF05"",""HF04"",""AM06""]","[7,0,8,6]","[8,2,6,4]","","",""
"show-reward","8","134091","0.0-8.0","p957511","APGX2WZ59OWDN","3OWZNK3RYMVDNXPNEIRWZ8JM6MU2UY","3DYGAII7PNEKAVH6P9N4A4PFXM8PQK","emotion","match","uniform","","","","","","","","133511.79999923706","135518.0999994278","","","","","","","","","","","","7","","stimuli/stars_7.png","4.5","","","","","stimuli/HM07_SUR.jpg","",""
"explore-choice","9","136433","0.0-9.0","p957511","APGX2WZ59OWDN","3OWZNK3RYMVDNXPNEIRWZ8JM6MU2UY","3DYGAII7PNEKAVH6P9N4A4PFXM8PQK","emotion","match","uniform","","","","","","","1840.6000003814697","135518.79999923706","137359.39999961853","[""stimuli/AM06_FO.jpg"",""stimuli/BF05_HE.jpg"",""stimuli/HF04_CC.jpg"",""stimuli/HM07_SUR.jpg""]","stimuli/AM06_FO.jpg","stimuli/BF05_HE.jpg","stimuli/HF04_CC.jpg","stimuli/HM07_SUR.jpg","pos1","stimuli/AM06_FO.jpg","FO","AM06","0","3","6","6","stimuli/stars_6.png","7.5","[""FO"",""HE"",""CC"",""SUR""]","[""AM06"",""BF05"",""HF04"",""HM07""]","[6,2,1,7]","[6,4,2,8]","","",""
"show-reward","10","138435","0.0-10.0","p957511","APGX2WZ59OWDN","3OWZNK3RYMVDNXPNEIRWZ8JM6MU2UY","3DYGAII7PNEKAVH6P9N4A4PFXM8PQK","emotion","match","uniform","","","","","","","","137860.89999961853","139862.39999961853","","","","","","","","","","","","6","","stimuli/stars_6.png","7.5","","","","","stimuli/AM06_FO.jpg","",""
"explore-choice","11","139701","0.0-11.0","p957511","APGX2WZ59OWDN","3OWZNK3RYMVDNXPNEIRWZ8JM6MU2UY","3DYGAII7PNEKAVH6P9N4A4PFXM8PQK","emotion","match","uniform","","","","","","","752.6000003814697","139863.0999994278","140615.69999980927","[""stimuli/HF04_CC.jpg"",""stimuli/AM06_FO.jpg"",""stimuli/HM07_HE.jpg"",""stimuli/BF05_SUR.jpg""]","stimuli/HF04_CC.jpg","stimuli/AM06_FO.jpg","stimuli/HM07_HE.jpg","stimuli/BF05_SUR.jpg","pos1","stimuli/HF04_CC.jpg","CC","HF04","0","2","4","2","stimuli/stars_4.png","9.5","[""CC"",""FO"",""HE"",""SUR""]","[""HF04"",""AM06"",""HM07"",""BF05""]","[4,5,2,8]","[2,6,4,8]","","",""
"show-reward","12","141713","0.0-12.0","p957511","APGX2WZ59OWDN","3OWZNK3RYMVDNXPNEIRWZ8JM6MU2UY","3DYGAII7PNEKAVH6P9N4A4PFXM8PQK","emotion","match","uniform","","","","","","","","141129.19999980927","143140.0999994278","","","","","","","","","","","","4","","stimuli/stars_4.png","9.5","","","","","stimuli/HF04_CC.jpg","",""
"explore-choice","13","143666","0.0-13.0","p957511","APGX2WZ59OWDN","3OWZNK3RYMVDNXPNEIRWZ8JM6MU2UY","3DYGAII7PNEKAVH6P9N4A4PFXM8PQK","emotion","match","uniform","","","","","","","1443.3999996185303","143140.89999961853","144584.29999923706","[""stimuli/AM06_CC.jpg"",""stimuli/BF05_SUR.jpg"",""stimuli/HF04_FO.jpg"",""stimuli/HM07_HE.jpg""]","stimuli/AM06_CC.jpg","stimuli/BF05_SUR.jpg","stimuli/HF04_FO.jpg","stimuli/HM07_HE.jpg","pos2","stimuli/BF05_SUR.jpg","SUR","BF05","1","4.5","9","8","stimuli/stars_9.png","14","[""CC"",""SUR"",""FO"",""HE""]","[""AM06"",""BF05"",""HF04"",""HM07""]","[3,9,7,5]","[2,8,6,4]","","",""
"show-reward","14","145674","0.0-14.0","p957511","APGX2WZ59OWDN","3OWZNK3RYMVDNXPNEIRWZ8JM6MU2UY","3DYGAII7PNEKAVH6P9N4A4PFXM8PQK","emotion","match","uniform","","","","","","","","145094","147101.0999994278","","","","","","","","","","","","9","","stimuli/stars_9.png","14","","","","","stimuli/BF05_SUR.jpg","",""
"explore-choice","15","147138","0.0-15.0","p957511","APGX2WZ59OWDN","3OWZNK3RYMVDNXPNEIRWZ8JM6MU2UY","3DYGAII7PNEKAVH6P9N4A4PFXM8PQK","emotion","match","uniform","","","","","","","946.8000001907349","147101.69999980927","148048.5","[""stimuli/AM06_HE.jpg"",""stimuli/HF04_SUR.jpg"",""stimuli/BF05_FO.jpg"",""stimuli/HM07_CC.jpg""]","stimuli/AM06_HE.jpg","stimuli/HF04_SUR.jpg","stimuli/BF05_FO.jpg","stimuli/HM07_CC.jpg","pos3","stimuli/BF05_FO.jpg","FO","BF05","2","3.5","7","6","stimuli/stars_7.png","17.5","[""HE"",""SUR"",""FO"",""CC""]","[""AM06"",""HF04"",""BF05"",""HM07""]","[6,6,7,1]","[4,8,6,2]","","",""
"show-reward","16","149140","0.0-16.0","p957511","APGX2WZ59OWDN","3OWZNK3RYMVDNXPNEIRWZ8JM6MU2UY","3DYGAII7PNEKAVH6P9N4A4PFXM8PQK","emotion","match","uniform","","","","","","","","148565.0999994278","150567.19999980927","","","","","","","","","","","","7","","stimuli/stars_7.png","17.5","","","","","stimuli/BF05_FO.jpg","",""
"explore-choice","17","151566","0.0-17.0","p957511","APGX2WZ59OWDN","3OWZNK3RYMVDNXPNEIRWZ8JM6MU2UY","3DYGAII7PNEKAVH6P9N4A4PFXM8PQK","emotion","match","uniform","","","","","","","1921.4000005722046","150567.79999923706","152489.19999980927","[""stimuli/BF05_HE.jpg"",""stimuli/HM07_SUR.jpg"",""stimuli/HF04_FO.jpg"",""stimuli/AM06_CC.jpg""]","stimuli/BF05_HE.jpg","stimuli/HM07_SUR.jpg","stimuli/HF04_FO.jpg","stimuli/AM06_CC.jpg","pos1","stimuli/BF05_HE.jpg","HE","BF05","0","1.5","3","4","stimuli/stars_3.png","19","[""HE"",""SUR"",""FO"",""CC""]","[""BF05"",""HM07"",""HF04"",""AM06""]","[3,8,5,2]","[4,8,6,2]","","",""
"show-reward","18","153569","0.0-18.0","p957511","APGX2WZ59OWDN","3OWZNK3RYMVDNXPNEIRWZ8JM6MU2UY","3DYGAII7PNEKAVH6P9N4A4PFXM8PQK","emotion","match","uniform","","","","","","","","152993.69999980927","154996","","","","","","","","","","","","3","","stimuli/stars_3.png","19","","","","","stimuli/BF05_HE.jpg","",""
"explore-choice","19","155859","0.0-19.0","p957511","APGX2WZ59OWDN","3OWZNK3RYMVDNXPNEIRWZ8JM6MU2UY","3DYGAII7PNEKAVH6P9N4A4PFXM8PQK","emotion","match","uniform","","","","","","","1789.1999998092651","154996.5","156785.69999980927","[""stimuli/BF05_SUR.jpg"",""stimuli/AM06_HE.jpg"",""stimuli/HF04_FO.jpg"",""stimuli/HM07_CC.jpg""]","stimuli/BF05_SUR.jpg","stimuli/AM06_HE.jpg","stimuli/HF04_FO.jpg","stimuli/HM07_CC.jpg","pos3","stimuli/HF04_FO.jpg","FO","HF04","2","2.5","5","6","stimuli/stars_5.png","21.5","[""SUR"",""HE"",""FO"",""CC""]","[""BF05"",""AM06"",""HF04"",""HM07""]","[6,6,5,3]","[8,4,6,2]","","",""
"show-reward","20","157871","0.0-20.0","p957511","APGX2WZ59OWDN","3OWZNK3RYMVDNXPNEIRWZ8JM6MU2UY","3DYGAII7PNEKAVH6P9N4A4PFXM8PQK","emotion","match","uniform","","","","","","","","157287","159298","","","","","","","","","","","","5","","stimuli/stars_5.png","21.5","","","","","stimuli/HF04_FO.jpg","",""
"explore-choice","21","160555","0.0-21.0","p957511","APGX2WZ59OWDN","3OWZNK3RYMVDNXPNEIRWZ8JM6MU2UY","3DYGAII7PNEKAVH6P9N4A4PFXM8PQK","emotion","match","uniform","","","","","","","2183.3999996185303","159298.69999980927","161482.0999994278","[""stimuli/AM06_FO.jpg"",""stimuli/HM07_SUR.jpg"",""stimuli/BF05_CC.jpg"",""stimuli/HF04_HE.jpg""]","stimuli/AM06_FO.jpg","stimuli/HM07_SUR.jpg","stimuli/BF05_CC.jpg","stimuli/HF04_HE.jpg","pos2","stimuli/HM07_SUR.jpg","SUR","HM07","1","3","6","8","stimuli/stars_6.png","24.5","[""FO"",""SUR"",""CC"",""HE""]","[""AM06"",""HM07"",""BF05"",""HF04""]","[4,6,2,4]","[6,8,2,4]","","",""
"show-reward","22","162558","0.0-22.0","p957511","APGX2WZ59OWDN","3OWZNK3RYMVDNXPNEIRWZ8JM6MU2UY","3DYGAII7PNEKAVH6P9N4A4PFXM8PQK","emotion","match","uniform","","","","","","","","161983","163985.0999994278","","","","","","","","","","","","6","","stimuli/stars_6.png","24.5","","","","","stimuli/HM07_SUR.jpg","",""
"explore-choice","23","165235","0.0-23.0","p957511","APGX2WZ59OWDN","3OWZNK3RYMVDNXPNEIRWZ8JM6MU2UY","3DYGAII7PNEKAVH6P9N4A4PFXM8PQK","emotion","match","uniform","","","","","","","2168.8999996185303","163985.69999980927","166154.5999994278","[""stimuli/HM07_FO.jpg"",""stimuli/HF04_CC.jpg"",""stimuli/BF05_SUR.jpg"",""stimuli/AM06_HE.jpg""]","stimuli/HM07_FO.jpg","stimuli/HF04_CC.jpg","stimuli/BF05_SUR.jpg","stimuli/AM06_HE.jpg","pos3","stimuli/BF05_SUR.jpg","SUR","BF05","2","3.5","7","8","stimuli/stars_7.png","28","[""FO"",""CC"",""SUR"",""HE""]","[""HM07"",""HF04"",""BF05"",""AM06""]","[7,1,7,3]","[6,2,8,4]","","",""
"show-reward","24","167240","0.0-24.0","p957511","APGX2WZ59OWDN","3OWZNK3RYMVDNXPNEIRWZ8JM6MU2UY","3DYGAII7PNEKAVH6P9N4A4PFXM8PQK","emotion","match","uniform","","","","","","","","166662.29999923706","168666.79999923706","","","","","","","","","","","","7","","stimuli/stars_7.png","28","","","","","stimuli/BF05_SUR.jpg","",""
"explore-choice","25","169548","0.0-25.0","p957511","APGX2WZ59OWDN","3OWZNK3RYMVDNXPNEIRWZ8JM6MU2UY","3DYGAII7PNEKAVH6P9N4A4PFXM8PQK","emotion","match","uniform","","","","","","","1808","168667.29999923706","170475.29999923706","[""stimuli/BF05_HE.jpg"",""stimuli/HM07_FO.jpg"",""stimuli/AM06_CC.jpg"",""stimuli/HF04_SUR.jpg""]","stimuli/BF05_HE.jpg","stimuli/HM07_FO.jpg","stimuli/AM06_CC.jpg","stimuli/HF04_SUR.jpg","pos4","stimuli/HF04_SUR.jpg","SUR","HF04","3","4.5","9","8","stimuli/stars_9.png","32.5","[""HE"",""FO"",""CC"",""SUR""]","[""BF05"",""HM07"",""AM06"",""HF04""]","[4,8,4,9]","[4,6,2,8]","","",""
"show-reward","26","171566","0.0-26.0","p957511","APGX2WZ59OWDN","3OWZNK3RYMVDNXPNEIRWZ8JM6MU2UY","3DYGAII7PNEKAVH6P9N4A4PFXM8PQK","emotion","match","uniform","","","","","","","","170976.0999994278","172992.5","","","","","","","","","","","","9","","stimuli/stars_9.png","32.5","","","","","stimuli/HF04_SUR.jpg","",""
"explore-choice","27","173941","0.0-27.0","p957511","APGX2WZ59OWDN","3OWZNK3RYMVDNXPNEIRWZ8JM6MU2UY","3DYGAII7PNEKAVH6P9N4A4PFXM8PQK","emotion","match","uniform","","","","","","","1874.3999996185303","172993.19999980927","174867.5999994278","[""stimuli/HF04_HE.jpg"",""stimuli/BF05_CC.jpg"",""stimuli/HM07_FO.jpg"",""stimuli/AM06_SUR.jpg""]","stimuli/HF04_HE.jpg","stimuli/BF05_CC.jpg","stimuli/HM07_FO.jpg","stimuli/AM06_SUR.jpg","pos4","stimuli/AM06_SUR.jpg","SUR","AM06","3","4.5","9","8","stimuli/stars_9.png","37","[""HE"",""CC"",""FO"",""SUR""]","[""HF04"",""BF05"",""HM07"",""AM06""]","[5,1,4,9]","[4,2,6,8]","","",""
"show-reward","28","175944","0.0-28.0","p957511","APGX2WZ59OWDN","3OWZNK3RYMVDNXPNEIRWZ8JM6MU2UY","3DYGAII7PNEKAVH6P9N4A4PFXM8PQK","emotion","match","uniform","","","","","","","","175368.79999923706","177371.5","","","","","","","","","","","","9","","stimuli/stars_9.png","37","","","","","stimuli/AM06_SUR.jpg","",""
"explore-choice","29","177724","0.0-29.0","p957511","APGX2WZ59OWDN","3OWZNK3RYMVDNXPNEIRWZ8JM6MU2UY","3DYGAII7PNEKAVH6P9N4A4PFXM8PQK","emotion","match","uniform","","","","","","","1271.8999996185303","177372.19999980927","178644.0999994278","[""stimuli/AM06_FO.jpg"",""stimuli/HF04_HE.jpg"",""stimuli/BF05_SUR.jpg"",""stimuli/HM07_CC.jpg""]","stimuli/AM06_FO.jpg","stimuli/HF04_HE.jpg","stimuli/BF05_SUR.jpg","stimuli/HM07_CC.jpg","pos3","stimuli/BF05_SUR.jpg","SUR","BF05","2","4","8","8","stimuli/stars_8.png","41","[""FO"",""HE"",""SUR"",""CC""]","[""AM06"",""HF04"",""BF05"",""HM07""]","[4,5,8,3]","[6,4,8,2]","","",""
"show-reward","30","179727","0.0-30.0","p957511","APGX2WZ59OWDN","3OWZNK3RYMVDNXPNEIRWZ8JM6MU2UY","3DYGAII7PNEKAVH6P9N4A4PFXM8PQK","emotion","match","uniform","","","","","","","","179152.0999994278","181154.19999980927","","","","","","","","","","","","8","","stimuli/stars_8.png","41","","","","","stimuli/BF05_SUR.jpg","",""
"explore-choice","31","183487","0.0-31.0","p957511","APGX2WZ59OWDN","3OWZNK3RYMVDNXPNEIRWZ8JM6MU2UY","3DYGAII7PNEKAVH6P9N4A4PFXM8PQK","emotion","match","uniform","","","","","","","3258.2000007629395","181154.79999923706","184413","[""stimuli/BF05_CC.jpg"",""stimuli/AM06_SUR.jpg"",""stimuli/HM07_HE.jpg"",""stimuli/HF04_FO.jpg""]","stimuli/BF05_CC.jpg","stimuli/AM06_SUR.jpg","stimuli/HM07_HE.jpg","stimuli/HF04_FO.jpg","pos2","stimuli/AM06_SUR.jpg","SUR","AM06","1","3","6","8","stimuli/stars_6.png","44","[""CC"",""SUR"",""HE"",""FO""]","[""BF05"",""AM06"",""HM07"",""HF04""]","[0,6,5,5]","[2,8,4,6]","","",""
"show-reward","32","185498","0.0-32.0","p957511","APGX2WZ59OWDN","3OWZNK3RYMVDNXPNEIRWZ8JM6MU2UY","3DYGAII7PNEKAVH6P9N4A4PFXM8PQK","emotion","match","uniform","","","","","","","","184914.89999961853","186925.5","","","","","","","","","","","","6","","stimuli/stars_6.png","44","","","","","stimuli/AM06_SUR.jpg","",""
"explore-choice","33","187854","0.0-33.0","p957511","APGX2WZ59OWDN","3OWZNK3RYMVDNXPNEIRWZ8JM6MU2UY","3DYGAII7PNEKAVH6P9N4A4PFXM8PQK","emotion","match","uniform","","","","","","","1855.0999994277954","186926.19999980927","188781.29999923706","[""stimuli/HF04_SUR.jpg"",""stimuli/HM07_FO.jpg"",""stimuli/BF05_CC.jpg"",""stimuli/AM06_HE.jpg""]","stimuli/HF04_SUR.jpg","stimuli/HM07_FO.jpg","stimuli/BF05_CC.jpg","stimuli/AM06_HE.jpg","pos1","stimuli/HF04_SUR.jpg","SUR","HF04","0","5","10","8","stimuli/stars_10.png","49","[""SUR"",""FO"",""CC"",""HE""]","[""HF04"",""HM07"",""BF05"",""AM06""]","[10,7,4,3]","[8,6,2,4]","","",""
"show-reward","34","189858","0.0-34.0","p957511","APGX2WZ59OWDN","3OWZNK3RYMVDNXPNEIRWZ8JM6MU2UY","3DYGAII7PNEKAVH6P9N4A4PFXM8PQK","emotion","match","uniform","","","","","","","","189282.0999994278","191285.69999980927","","","","","","","","","","","","10","","stimuli/stars_10.png","49","","","","","stimuli/HF04_SUR.jpg","",""
"explore-choice","35","192534","0.0-35.0","p957511","APGX2WZ59OWDN","3OWZNK3RYMVDNXPNEIRWZ8JM6MU2UY","3DYGAII7PNEKAVH6P9N4A4PFXM8PQK","emotion","match","uniform","","","","","","","2159.800000190735","191286.19999980927","193446","[""stimuli/BF05_FO.jpg"",""stimuli/AM06_CC.jpg"",""stimuli/HF04_SUR.jpg"",""stimuli/HM07_HE.jpg""]","stimuli/BF05_FO.jpg","stimuli/AM06_CC.jpg","stimuli/HF04_SUR.jpg","stimuli/HM07_HE.jpg","pos3","stimuli/HF04_SUR.jpg","SUR","HF04","2","3.5","7","8","stimuli/stars_7.png","52.5","[""FO"",""CC"",""SUR"",""HE""]","[""BF05"",""AM06"",""HF04"",""HM07""]","[8,4,7,4]","[6,2,8,4]","","",""
"show-reward","36","194536","0.0-36.0","p957511","APGX2WZ59OWDN","3OWZNK3RYMVDNXPNEIRWZ8JM6MU2UY","3DYGAII7PNEKAVH6P9N4A4PFXM8PQK","emotion","match","uniform","","","","","","","","193961.5","195963.19999980927","","","","","","","","","","","","7","","stimuli/stars_7.png","52.5","","","","","stimuli/HF04_SUR.jpg","",""
"explore-choice","37","196832","0.0-37.0","p957511","APGX2WZ59OWDN","3OWZNK3RYMVDNXPNEIRWZ8JM6MU2UY","3DYGAII7PNEKAVH6P9N4A4PFXM8PQK","emotion","match","uniform","","","","","","","1794.5","195963.79999923706","197758.29999923706","[""stimuli/HM07_CC.jpg"",""stimuli/AM06_SUR.jpg"",""stimuli/HF04_FO.jpg"",""stimuli/BF05_HE.jpg""]","stimuli/HM07_CC.jpg","stimuli/AM06_SUR.jpg","stimuli/HF04_FO.jpg","stimuli/BF05_HE.jpg","pos2","stimuli/AM06_SUR.jpg","SUR","AM06","1","4","8","8","stimuli/stars_8.png","56.5","[""CC"",""SUR"",""FO"",""HE""]","[""HM07"",""AM06"",""HF04"",""BF05""]","[2,8,5,3]","[2,8,6,4]","","",""
"show-reward","38","198834","0.0-38.0","p957511","APGX2WZ59OWDN","3OWZNK3RYMVDNXPNEIRWZ8JM6MU2UY","3DYGAII7PNEKAVH6P9N4A4PFXM8PQK","emotion","match","uniform","","","","","","","","198259.79999923706","200261.5999994278","","","","","","","","","","","","8","","stimuli/stars_8.png","56.5","","","","","stimuli/AM06_SUR.jpg","",""
"explore-choice","39","200712","0.0-39.0","p957511","APGX2WZ59OWDN","3OWZNK3RYMVDNXPNEIRWZ8JM6MU2UY","3DYGAII7PNEKAVH6P9N4A4PFXM8PQK","emotion","match","uniform","","","","","","","1376.5999994277954","200262.19999980927","201638.79999923706","[""stimuli/HM07_HE.jpg"",""stimuli/AM06_SUR.jpg"",""stimuli/BF05_FO.jpg"",""stimuli/HF04_CC.jpg""]","stimuli/HM07_HE.jpg","stimuli/AM06_SUR.jpg","stimuli/BF05_FO.jpg","stimuli/HF04_CC.jpg","pos2","stimuli/AM06_SUR.jpg","SUR","AM06","1","4","8","8","stimuli/stars_8.png","60.5","[""HE"",""SUR"",""FO"",""CC""]","[""HM07"",""AM06"",""BF05"",""HF04""]","[2,8,4,2]","[4,8,6,2]","","",""
"show-reward","40","202714","0.0-40.0","p957511","APGX2WZ59OWDN","3OWZNK3RYMVDNXPNEIRWZ8JM6MU2UY","3DYGAII7PNEKAVH6P9N4A4PFXM8PQK","emotion","match","uniform","","","","","","","","202139.5","204141.69999980927","","","","","","","","","","","","8","","stimuli/stars_8.png","60.5","","","","","stimuli/AM06_SUR.jpg","",""
"explore-choice","41","204638","0.0-41.0","p957511","APGX2WZ59OWDN","3OWZNK3RYMVDNXPNEIRWZ8JM6MU2UY","3DYGAII7PNEKAVH6P9N4A4PFXM8PQK","emotion","match","uniform","","","","","","","1408.8999996185303","204142.39999961853","205551.29999923706","[""stimuli/HM07_SUR.jpg"",""stimuli/AM06_HE.jpg"",""stimuli/BF05_FO.jpg"",""stimuli/HF04_CC.jpg""]","stimuli/HM07_SUR.jpg","stimuli/AM06_HE.jpg","stimuli/BF05_FO.jpg","stimuli/HF04_CC.jpg","pos1","stimuli/HM07_SUR.jpg","SUR","HM07","0","4","8","8","stimuli/stars_8.png","64.5","[""SUR"",""HE"",""FO"",""CC""]","[""HM07"",""AM06"",""BF05"",""HF04""]","[8,6,6,4]","[8,4,6,2]","","",""
"show-reward","42","206641","0.0-42.0","p957511","APGX2WZ59OWDN","3OWZNK3RYMVDNXPNEIRWZ8JM6MU2UY","3DYGAII7PNEKAVH6P9N4A4PFXM8PQK","emotion","match","uniform","","","","","","","","206066.19999980927","208068.19999980927","","","","","","","","","","","","8","","stimuli/stars_8.png","64.5","","","","","stimuli/HM07_SUR.jpg","",""
"explore-choice","43","208657","0.0-43.0","p957511","APGX2WZ59OWDN","3OWZNK3RYMVDNXPNEIRWZ8JM6MU2UY","3DYGAII7PNEKAVH6P9N4A4PFXM8PQK","emotion","match","uniform","","","","","","","1515","208068.89999961853","209583.89999961853","[""stimuli/BF05_HE.jpg"",""stimuli/HF04_CC.jpg"",""stimuli/HM07_FO.jpg"",""stimuli/AM06_SUR.jpg""]","stimuli/BF05_HE.jpg","stimuli/HF04_CC.jpg","stimuli/HM07_FO.jpg","stimuli/AM06_SUR.jpg","pos4","stimuli/AM06_SUR.jpg","SUR","AM06","3","3.5","7","8","stimuli/stars_7.png","68","[""HE"",""CC"",""FO"",""SUR""]","[""BF05"",""HF04"",""HM07"",""AM06""]","[2,1,6,7]","[4,2,6,8]","","",""
"show-reward","44","210660","0.0-44.0","p957511","APGX2WZ59OWDN","3OWZNK3RYMVDNXPNEIRWZ8JM6MU2UY","3DYGAII7PNEKAVH6P9N4A4PFXM8PQK","emotion","match","uniform","","","","","","","","210084.69999980927","212086.89999961853","","","","","","","","","","","","7","","stimuli/stars_7.png","68","","","","","stimuli/AM06_SUR.jpg","",""
"explore-choice","45","212276","0.0-45.0","p957511","APGX2WZ59OWDN","3OWZNK3RYMVDNXPNEIRWZ8JM6MU2UY","3DYGAII7PNEKAVH6P9N4A4PFXM8PQK","emotion","match","uniform","","","","","","","1104.5999994277954","212087.5","213192.0999994278","[""stimuli/HF04_HE.jpg"",""stimuli/BF05_FO.jpg"",""stimuli/HM07_SUR.jpg"",""stimuli/AM06_CC.jpg""]","stimuli/HF04_HE.jpg","stimuli/BF05_FO.jpg","stimuli/HM07_SUR.jpg","stimuli/AM06_CC.jpg","pos3","stimuli/HM07_SUR.jpg","SUR","HM07","2","3.5","7","8","stimuli/stars_7.png","71.5","[""HE"",""FO"",""SUR"",""CC""]","[""HF04"",""BF05"",""HM07"",""AM06""]","[4,7,7,1]","[4,6,8,2]","","",""
"show-reward","46","214279","0.0-46.0","p957511","APGX2WZ59OWDN","3OWZNK3RYMVDNXPNEIRWZ8JM6MU2UY","3DYGAII7PNEKAVH6P9N4A4PFXM8PQK","emotion","match","uniform","","","","","","","","213704.19999980927","215706.19999980927","","","","","","","","","","","","7","","stimuli/stars_7.png","71.5","","","","","stimuli/HM07_SUR.jpg","",""
"explore-choice","47","216250","0.0-47.0","p957511","APGX2WZ59OWDN","3OWZNK3RYMVDNXPNEIRWZ8JM6MU2UY","3DYGAII7PNEKAVH6P9N4A4PFXM8PQK","emotion","match","uniform","","","","","","","1470","215706.69999980927","217176.69999980927","[""stimuli/BF05_FO.jpg"",""stimuli/HM07_CC.jpg"",""stimuli/AM06_SUR.jpg"",""stimuli/HF04_HE.jpg""]","stimuli/BF05_FO.jpg","stimuli/HM07_CC.jpg","stimuli/AM06_SUR.jpg","stimuli/HF04_HE.jpg","pos3","stimuli/AM06_SUR.jpg","SUR","AM06","2","3","6","8","stimuli/stars_6.png","74.5","[""FO"",""CC"",""SUR"",""HE""]","[""BF05"",""HM07"",""AM06"",""HF04""]","[8,1,6,5]","[6,2,8,4]","","",""
"show-reward","48","218264","0.0-48.0","p957511","APGX2WZ59OWDN","3OWZNK3RYMVDNXPNEIRWZ8JM6MU2UY","3DYGAII7PNEKAVH6P9N4A4PFXM8PQK","emotion","match","uniform","","","","","","","","217677.5999994278","219690.89999961853","","","","","","","","","","","","6","","stimuli/stars_6.png","74.5","","","","","stimuli/AM06_SUR.jpg","",""
"explore-choice","49","219877","0.0-49.0","p957511","APGX2WZ59OWDN","3OWZNK3RYMVDNXPNEIRWZ8JM6MU2UY","3DYGAII7PNEKAVH6P9N4A4PFXM8PQK","emotion","match","uniform","","","","","","","1109.5","219691.69999980927","220801.19999980927","[""stimuli/HM07_CC.jpg"",""stimuli/BF05_HE.jpg"",""stimuli/AM06_FO.jpg"",""stimuli/HF04_SUR.jpg""]","stimuli/HM07_CC.jpg","stimuli/BF05_HE.jpg","stimuli/AM06_FO.jpg","stimuli/HF04_SUR.jpg","pos4","stimuli/HF04_SUR.jpg","SUR","HF04","3","5","10","8","stimuli/stars_10.png","79.5","[""CC"",""HE"",""FO"",""SUR""]","[""HM07"",""BF05"",""AM06"",""HF04""]","[1,6,8,10]","[2,4,6,8]","","",""
"show-reward","50","221880","0.0-50.0","p957511","APGX2WZ59OWDN","3OWZNK3RYMVDNXPNEIRWZ8JM6MU2UY","3DYGAII7PNEKAVH6P9N4A4PFXM8PQK","emotion","match","uniform","","","","","","","","221305","223307.0999994278","","","","","","","","","","","","10","","stimuli/stars_10.png","79.5","","","","","stimuli/HF04_SUR.jpg","",""
"explore-choice","51","224028","0.0-51.0","p957511","APGX2WZ59OWDN","3OWZNK3RYMVDNXPNEIRWZ8JM6MU2UY","3DYGAII7PNEKAVH6P9N4A4PFXM8PQK","emotion","match","uniform","","","","","","","1638","223307.5999994278","224945.5999994278","[""stimuli/AM06_CC.jpg"",""stimuli/HM07_FO.jpg"",""stimuli/HF04_HE.jpg"",""stimuli/BF05_SUR.jpg""]","stimuli/AM06_CC.jpg","stimuli/HM07_FO.jpg","stimuli/HF04_HE.jpg","stimuli/BF05_SUR.jpg","pos4","stimuli/BF05_SUR.jpg","SUR","BF05","3","3.5","7","8","stimuli/stars_7.png","83","[""CC"",""FO"",""HE"",""SUR""]","[""AM06"",""HM07"",""HF04"",""BF05""]","[3,6,5,7]","[2,6,4,8]","","",""
"show-reward","52","226042","0.0-52.0","p957511","APGX2WZ59OWDN","3OWZNK3RYMVDNXPNEIRWZ8JM6MU2UY","3DYGAII7PNEKAVH6P9N4A4PFXM8PQK","emotion","match","uniform","","","","","","","","225456.29999923706","227469.5999994278","","","","","","","","","","","","7","","stimuli/stars_7.png","83","","","","","stimuli/BF05_SUR.jpg","",""
"explore-choice","53","227735","0.0-53.0","p957511","APGX2WZ59OWDN","3OWZNK3RYMVDNXPNEIRWZ8JM6MU2UY","3DYGAII7PNEKAVH6P9N4A4PFXM8PQK","emotion","match","uniform","","","","","","","1188.1999998092651","227470","228658.19999980927","[""stimuli/HF04_SUR.jpg"",""stimuli/BF05_CC.jpg"",""stimuli/HM07_HE.jpg"",""stimuli/AM06_FO.jpg""]","stimuli/HF04_SUR.jpg","stimuli/BF05_CC.jpg","stimuli/HM07_HE.jpg","stimuli/AM06_FO.jpg","pos1","stimuli/HF04_SUR.jpg","SUR","HF04","0","3.5","7","8","stimuli/stars_7.png","86.5","[""SUR"",""CC"",""HE"",""FO""]","[""HF04"",""BF05"",""HM07"",""AM06""]","[7,0,2,6]","[8,2,4,6]","","",""
"show-reward","54","229746","0.0-54.0","p957511","APGX2WZ59OWDN","3OWZNK3RYMVDNXPNEIRWZ8JM6MU2UY","3DYGAII7PNEKAVH6P9N4A4PFXM8PQK","emotion","match","uniform","","","","","","","","229162.5","231172.79999923706","","","","","","","","","","","","7","","stimuli/stars_7.png","86.5","","","","","stimuli/HF04_SUR.jpg","",""
"explore-choice","55","231668","0.0-55.0","p957511","APGX2WZ59OWDN","3OWZNK3RYMVDNXPNEIRWZ8JM6MU2UY","3DYGAII7PNEKAVH6P9N4A4PFXM8PQK","emotion","match","uniform","","","","","","","1421.1000003814697","231173.5999994278","232594.69999980927","[""stimuli/HF04_FO.jpg"",""stimuli/HM07_SUR.jpg"",""stimuli/BF05_HE.jpg"",""stimuli/AM06_CC.jpg""]","stimuli/HF04_FO.jpg","stimuli/HM07_SUR.jpg","stimuli/BF05_HE.jpg","stimuli/AM06_CC.jpg","pos2","stimuli/HM07_SUR.jpg","SUR","HM07","1","4","8","8","stimuli/stars_8.png","90.5","[""FO"",""SUR"",""HE"",""CC""]","[""HF04"",""HM07"",""BF05"",""AM06""]","[5,8,3,2]","[6,8,4,2]","","",""
"show-reward","56","233681","0.0-56.0","p957511","APGX2WZ59OWDN","3OWZNK3RYMVDNXPNEIRWZ8JM6MU2UY","3DYGAII7PNEKAVH6P9N4A4PFXM8PQK","emotion","match","uniform","","","","","","","","233095.5999994278","235107.89999961853","","","","","","","","","","","","8","","stimuli/stars_8.png","90.5","","","","","stimuli/HM07_SUR.jpg","",""
"explore-choice","57","236580","0.0-57.0","p957511","APGX2WZ59OWDN","3OWZNK3RYMVDNXPNEIRWZ8JM6MU2UY","3DYGAII7PNEKAVH6P9N4A4PFXM8PQK","emotion","match","uniform","","","","","","","2398.2999992370605","235108.5","237506.79999923706","[""stimuli/BF05_FO.jpg"",""stimuli/HF04_HE.jpg"",""stimuli/HM07_CC.jpg"",""stimuli/AM06_SUR.jpg""]","stimuli/BF05_FO.jpg","stimuli/HF04_HE.jpg","stimuli/HM07_CC.jpg","stimuli/AM06_SUR.jpg","pos4","stimuli/AM06_SUR.jpg","SUR","AM06","3","3","6","8","stimuli/stars_6.png","93.5","[""FO"",""HE"",""CC"",""SUR""]","[""BF05"",""HF04"",""HM07"",""AM06""]","[8,5,1,6]","[6,4,2,8]","","",""
"show-reward","58","238583","0.0-58.0","p957511","APGX2WZ59OWDN","3OWZNK3RYMVDNXPNEIRWZ8JM6MU2UY","3DYGAII7PNEKAVH6P9N4A4PFXM8PQK","emotion","match","uniform","","","","","","","","238008","240010.29999923706","","","","","","","","","","","","6","","stimuli/stars_6.png","93.5","","","","","stimuli/AM06_SUR.jpg","",""
"explore-choice","59","241694","0.0-59.0","p957511","APGX2WZ59OWDN","3OWZNK3RYMVDNXPNEIRWZ8JM6MU2UY","3DYGAII7PNEKAVH6P9N4A4PFXM8PQK","emotion","match","uniform","","","","","","","2608.9000005722046","240010.79999923706","242619.69999980927","[""stimuli/AM06_SUR.jpg"",""stimuli/HM07_FO.jpg"",""stimuli/HF04_HE.jpg"",""stimuli/BF05_CC.jpg""]","stimuli/AM06_SUR.jpg","stimuli/HM07_FO.jpg","stimuli/HF04_HE.jpg","stimuli/BF05_CC.jpg","pos1","stimuli/AM06_SUR.jpg","SUR","AM06","0","4.5","9","8","stimuli/stars_9.png","98","[""SUR"",""FO"",""HE"",""CC""]","[""AM06"",""HM07"",""HF04"",""BF05""]","[9,4,5,1]","[8,6,4,2]","","",""
"show-reward","60","243698","0.0-60.0","p957511","APGX2WZ59OWDN","3OWZNK3RYMVDNXPNEIRWZ8JM6MU2UY","3DYGAII7PNEKAVH6P9N4A4PFXM8PQK","emotion","match","uniform","","","","","","","","243122.0999994278","245124.5","","","","","","","","","","","","9","","stimuli/stars_9.png","98","","","","","stimuli/AM06_SUR.jpg","",""
"explore-choice","61","246366","0.0-61.0","p957511","APGX2WZ59OWDN","3OWZNK3RYMVDNXPNEIRWZ8JM6MU2UY","3DYGAII7PNEKAVH6P9N4A4PFXM8PQK","emotion","match","uniform","","","","","","","2167.199999809265","245125.0999994278","247292.29999923706","[""stimuli/AM06_SUR.jpg"",""stimuli/HM07_HE.jpg"",""stimuli/HF04_CC.jpg"",""stimuli/BF05_FO.jpg""]","stimuli/AM06_SUR.jpg","stimuli/HM07_HE.jpg","stimuli/HF04_CC.jpg","stimuli/BF05_FO.jpg","pos1","stimuli/AM06_SUR.jpg","SUR","AM06","0","4","8","8","stimuli/stars_8.png","102","[""SUR"",""HE"",""CC"",""FO""]","[""AM06"",""HM07"",""HF04"",""BF05""]","[8,2,2,4]","[8,4,2,6]","","",""
"show-reward","62","248376","0.0-62.0","p957511","APGX2WZ59OWDN","3OWZNK3RYMVDNXPNEIRWZ8JM6MU2UY","3DYGAII7PNEKAVH6P9N4A4PFXM8PQK","emotion","match","uniform","","","","","","","","247793.5","249802.29999923706","","","","","","","","","","","","8","","stimuli/stars_8.png","102","","","","","stimuli/AM06_SUR.jpg","",""
"explore-choice","63","250302","0.0-63.0","p957511","APGX2WZ59OWDN","3OWZNK3RYMVDNXPNEIRWZ8JM6MU2UY","3DYGAII7PNEKAVH6P9N4A4PFXM8PQK","emotion","match","uniform","","","","","","","1425.5999994277954","249803.19999980927","251228.79999923706","[""stimuli/AM06_CC.jpg"",""stimuli/BF05_SUR.jpg"",""stimuli/HM07_FO.jpg"",""stimuli/HF04_HE.jpg""]","stimuli/AM06_CC.jpg","stimuli/BF05_SUR.jpg","stimuli/HM07_FO.jpg","stimuli/HF04_HE.jpg","pos2","stimuli/BF05_SUR.jpg","SUR","BF05","1","3.5","7","8","stimuli/stars_7.png","105.5","[""CC"",""SUR"",""FO"",""HE""]","[""AM06"",""BF05"",""HM07"",""HF04""]","[3,7,6,5]","[2,8,6,4]","","",""
"show-reward","64","252305","0.0-64.0","p957511","APGX2WZ59OWDN","3OWZNK3RYMVDNXPNEIRWZ8JM6MU2UY","3DYGAII7PNEKAVH6P9N4A4PFXM8PQK","emotion","match","uniform","","","","","","","","251729.5999994278","253731.79999923706","","","","","","","","","","","","7","","stimuli/stars_7.png","105.5","","","","","stimuli/BF05_SUR.jpg","",""
"explore-choice","65","254166","0.0-65.0","p957511","APGX2WZ59OWDN","3OWZNK3RYMVDNXPNEIRWZ8JM6MU2UY","3DYGAII7PNEKAVH6P9N4A4PFXM8PQK","emotion","match","uniform","","","","","","","1360.6000003814697","253732.39999961853","255093","[""stimuli/BF05_CC.jpg"",""stimuli/HM07_FO.jpg"",""stimuli/HF04_SUR.jpg"",""stimuli/AM06_HE.jpg""]","stimuli/BF05_CC.jpg","stimuli/HM07_FO.jpg","stimuli/HF04_SUR.jpg","stimuli/AM06_HE.jpg","pos3","stimuli/HF04_SUR.jpg","SUR","HF04","2","5","10","8","stimuli/stars_10.png","110.5","[""CC"",""FO"",""SUR"",""HE""]","[""BF05"",""HM07"",""HF04"",""AM06""]","[4,7,10,3]","[2,6,8,4]","","",""
"show-reward","66","256169","0.0-66.0","p957511","APGX2WZ59OWDN","3OWZNK3RYMVDNXPNEIRWZ8JM6MU2UY","3DYGAII7PNEKAVH6P9N4A4PFXM8PQK","emotion","match","uniform","","","","","","","","255593.89999961853","257595.5999994278","","","","","","","","","","","","10","","stimuli/stars_10.png","110.5","","","","","stimuli/HF04_SUR.jpg","",""
"explore-choice","67","258264","0.0-67.0","p957511","APGX2WZ59OWDN","3OWZNK3RYMVDNXPNEIRWZ8JM6MU2UY","3DYGAII7PNEKAVH6P9N4A4PFXM8PQK","emotion","match","uniform","","","","","","","1593","257596.5","259189.5","[""stimuli/AM06_FO.jpg"",""stimuli/HM07_CC.jpg"",""stimuli/BF05_HE.jpg"",""stimuli/HF04_SUR.jpg""]","stimuli/AM06_FO.jpg","stimuli/HM07_CC.jpg","stimuli/BF05_HE.jpg","stimuli/HF04_SUR.jpg","pos4","stimuli/HF04_SUR.jpg","SUR","HF04","3","5","10","8","stimuli/stars_10.png","115.5","[""FO"",""CC"",""HE"",""SUR""]","[""AM06"",""HM07"",""BF05"",""HF04""]","[8,1,6,10]","[6,2,4,8]","","",""
"show-reward","68","260273","0.0-68.0","p957511","APGX2WZ59OWDN","3OWZNK3RYMVDNXPNEIRWZ8JM6MU2UY","3DYGAII7PNEKAVH6P9N4A4PFXM8PQK","emotion","match","uniform","","","","","","","","259691","261699.5","","","","","","","","","","","","10","","stimuli/stars_10.png","115.5","","","","","stimuli/HF04_SUR.jpg","",""
"explore-choice","69","263575","0.0-69.0","p957511","APGX2WZ59OWDN","3OWZNK3RYMVDNXPNEIRWZ8JM6MU2UY","3DYGAII7PNEKAVH6P9N4A4PFXM8PQK","emotion","match","uniform","","","","","","","2801.9000005722046","261700.0999994278","264502","[""stimuli/BF05_SUR.jpg"",""stimuli/AM06_HE.jpg"",""stimuli/HM07_CC.jpg"",""stimuli/HF04_FO.jpg""]","stimuli/BF05_SUR.jpg","stimuli/AM06_HE.jpg","stimuli/HM07_CC.jpg","stimuli/HF04_FO.jpg","pos1","stimuli/BF05_SUR.jpg","SUR","BF05","0","3","6","8","stimuli/stars_6.png","118.5","[""SUR"",""HE"",""CC"",""FO""]","[""BF05"",""AM06"",""HM07"",""HF04""]","[6,6,3,5]","[8,4,2,6]","","",""
"show-reward","70","265578","0.0-70.0","p957511","APGX2WZ59OWDN","3OWZNK3RYMVDNXPNEIRWZ8JM6MU2UY","3DYGAII7PNEKAVH6P9N4A4PFXM8PQK","emotion","match","uniform","","","","","","","","265002.89999961853","267004.69999980927","","","","","","","","","","","","6","","stimuli/stars_6.png","118.5","","","","","stimuli/BF05_SUR.jpg","",""
"explore-choice","71","267921","0.0-71.0","p957511","APGX2WZ59OWDN","3OWZNK3RYMVDNXPNEIRWZ8JM6MU2UY","3DYGAII7PNEKAVH6P9N4A4PFXM8PQK","emotion","match","uniform","","","","","","","1841.5999994277954","267005.19999980927","268846.79999923706","[""stimuli/BF05_HE.jpg"",""stimuli/AM06_SUR.jpg"",""stimuli/HF04_FO.jpg"",""stimuli/HM07_CC.jpg""]","stimuli/BF05_HE.jpg","stimuli/AM06_SUR.jpg","stimuli/HF04_FO.jpg","stimuli/HM07_CC.jpg","pos2","stimuli/AM06_SUR.jpg","SUR","AM06","1","4","8","8","stimuli/stars_8.png","122.5","[""HE"",""SUR"",""FO"",""CC""]","[""BF05"",""AM06"",""HF04"",""HM07""]","[3,8,5,2]","[4,8,6,2]","","",""
"show-reward","72","269937","0.0-72.0","p957511","APGX2WZ59OWDN","3OWZNK3RYMVDNXPNEIRWZ8JM6MU2UY","3DYGAII7PNEKAVH6P9N4A4PFXM8PQK","emotion","match","uniform","","","","","","","","269348.5999994278","271364.19999980927","","","","","","","","","","","","8","","stimuli/stars_8.png","122.5","","","","","stimuli/AM06_SUR.jpg","",""
"explore-choice","73","273746","0.0-73.0","p957511","APGX2WZ59OWDN","3OWZNK3RYMVDNXPNEIRWZ8JM6MU2UY","3DYGAII7PNEKAVH6P9N4A4PFXM8PQK","emotion","match","uniform","","","","","","","3306.800000190735","271364.89999961853","274671.69999980927","[""stimuli/AM06_CC.jpg"",""stimuli/HM07_SUR.jpg"",""stimuli/BF05_FO.jpg"",""stimuli/HF04_HE.jpg""]","stimuli/AM06_CC.jpg","stimuli/HM07_SUR.jpg","stimuli/BF05_FO.jpg","stimuli/HF04_HE.jpg","pos4","stimuli/HF04_HE.jpg","HE","HF04","3","2","4","4","stimuli/stars_4.png","124.5","[""CC"",""SUR"",""FO"",""HE""]","[""AM06"",""HM07"",""BF05"",""HF04""]","[1,7,7,4]","[2,8,6,4]","","",""
"show-reward","74","275750","0.0-74.0","p957511","APGX2WZ59OWDN","3OWZNK3RYMVDNXPNEIRWZ8JM6MU2UY","3DYGAII7PNEKAVH6P9N4A4PFXM8PQK","emotion","match","uniform","","","","","","","","275173.19999980927","277176.5999994278","","","","","","","","","","","","4","","stimuli/stars_4.png","124.5","","","","","stimuli/HF04_HE.jpg","",""
"explore-choice","75","278013","0.0-75.0","p957511","APGX2WZ59OWDN","3OWZNK3RYMVDNXPNEIRWZ8JM6MU2UY","3DYGAII7PNEKAVH6P9N4A4PFXM8PQK","emotion","match","uniform","","","","","","","1750.9000005722046","277177.0999994278","278928","[""stimuli/AM06_HE.jpg"",""stimuli/HM07_SUR.jpg"",""stimuli/HF04_CC.jpg"",""stimuli/BF05_FO.jpg""]","stimuli/AM06_HE.jpg","stimuli/HM07_SUR.jpg","stimuli/HF04_CC.jpg","stimuli/BF05_FO.jpg","pos2","stimuli/HM07_SUR.jpg","SUR","HM07","1","4","8","8","stimuli/stars_8.png","128.5","[""HE"",""SUR"",""CC"",""FO""]","[""AM06"",""HM07"",""HF04"",""BF05""]","[6,8,4,6]","[4,8,2,6]","","",""
"show-reward","76","280020","0.0-76.0","p957511","APGX2WZ59OWDN","3OWZNK3RYMVDNXPNEIRWZ8JM6MU2UY","3DYGAII7PNEKAVH6P9N4A4PFXM8PQK","emotion","match","uniform","","","","","","","","279440.29999923706","281446.89999961853","","","","","","","","","","","","8","","stimuli/stars_8.png","128.5","","","","","stimuli/HM07_SUR.jpg","",""
"explore-choice","77","282722","0.0-77.0","p957511","APGX2WZ59OWDN","3OWZNK3RYMVDNXPNEIRWZ8JM6MU2UY","3DYGAII7PNEKAVH6P9N4A4PFXM8PQK","emotion","match","uniform","","","","","","","2201","281447.5999994278","283648.5999994278","[""stimuli/HF04_CC.jpg"",""stimuli/AM06_HE.jpg"",""stimuli/BF05_SUR.jpg"",""stimuli/HM07_FO.jpg""]","stimuli/HF04_CC.jpg","stimuli/AM06_HE.jpg","stimuli/BF05_SUR.jpg","stimuli/HM07_FO.jpg","pos3","stimuli/BF05_SUR.jpg","SUR","BF05","2","3.5","7","8","stimuli/stars_7.png","132","[""CC"",""HE"",""SUR"",""FO""]","[""HF04"",""AM06"",""BF05"",""HM07""]","[1,3,7,7]","[2,4,8,6]","","",""
"show-reward","78","284725","0.0-78.0","p957511","APGX2WZ59OWDN","3OWZNK3RYMVDNXPNEIRWZ8JM6MU2UY","3DYGAII7PNEKAVH6P9N4A4PFXM8PQK","emotion","match","uniform","","","","","","","","284149.69999980927","286151.79999923706","","","","","","","","","","","","7","","stimuli/stars_7.png","132","","","","","stimuli/BF05_SUR.jpg","",""
"explore-choice","79","286563","0.0-79.0","p957511","APGX2WZ59OWDN","3OWZNK3RYMVDNXPNEIRWZ8JM6MU2UY","3DYGAII7PNEKAVH6P9N4A4PFXM8PQK","emotion","match","uniform","","","","","","","1336.7000007629395","286152.29999923706","287489","[""stimuli/HF04_SUR.jpg"",""stimuli/BF05_FO.jpg"",""stimuli/HM07_HE.jpg"",""stimuli/AM06_CC.jpg""]","stimuli/HF04_SUR.jpg","stimuli/BF05_FO.jpg","stimuli/HM07_HE.jpg","stimuli/AM06_CC.jpg","pos1","stimuli/HF04_SUR.jpg","SUR","HF04","0","3.5","7","8","stimuli/stars_7.png","135.5","[""SUR"",""FO"",""HE"",""CC""]","[""HF04"",""BF05"",""HM07"",""AM06""]","[7,8,4,4]","[8,6,4,2]","","",""
"show-reward","80","288564","0.0-80.0","p957511","APGX2WZ59OWDN","3OWZNK3RYMVDNXPNEIRWZ8JM6MU2UY","3DYGAII7PNEKAVH6P9N4A4PFXM8PQK","emotion","match","uniform","","","","","","","","287990","289991.29999923706","","","","","","","","","","","","7","","stimuli/stars_7.png","135.5","","","","","stimuli/HF04_SUR.jpg","",""
"explore-choice","81","290603","0.0-81.0","p957511","APGX2WZ59OWDN","3OWZNK3RYMVDNXPNEIRWZ8JM6MU2UY","3DYGAII7PNEKAVH6P9N4A4PFXM8PQK","emotion","match","uniform","","","","","","","1537.5","289992","291529.5","[""stimuli/HF04_FO.jpg"",""stimuli/HM07_HE.jpg"",""stimuli/BF05_SUR.jpg"",""stimuli/AM06_CC.jpg""]","stimuli/HF04_FO.jpg","stimuli/HM07_HE.jpg","stimuli/BF05_SUR.jpg","stimuli/AM06_CC.jpg","pos3","stimuli/BF05_SUR.jpg","SUR","BF05","2","4.5","9","8","stimuli/stars_9.png","140","[""FO"",""HE"",""SUR"",""CC""]","[""HF04"",""HM07"",""BF05"",""AM06""]","[7,5,9,3]","[6,4,8,2]","","",""
"show-reward","82","292605","0.0-82.0","p957511","APGX2WZ59OWDN","3OWZNK3RYMVDNXPNEIRWZ8JM6MU2UY","3DYGAII7PNEKAVH6P9N4A4PFXM8PQK","emotion","match","uniform","","","","","","","","292030.79999923706","294032.29999923706","","","","","","","","","","","","9","","stimuli/stars_9.png","140","","","","","stimuli/BF05_SUR.jpg","",""
"explore-choice","83","293965","0.0-83.0","p957511","APGX2WZ59OWDN","3OWZNK3RYMVDNXPNEIRWZ8JM6MU2UY","3DYGAII7PNEKAVH6P9N4A4PFXM8PQK","emotion","match","uniform","","","","","","","848.9000005722046","294032.79999923706","294881.69999980927","[""stimuli/HF04_SUR.jpg"",""stimuli/AM06_FO.jpg"",""stimuli/BF05_CC.jpg"",""stimuli/HM07_HE.jpg""]","stimuli/HF04_SUR.jpg","stimuli/AM06_FO.jpg","stimuli/BF05_CC.jpg","stimuli/HM07_HE.jpg","pos1","stimuli/HF04_SUR.jpg","SUR","HF04","0","3.5","7","8","stimuli/stars_7.png","143.5","[""SUR"",""FO"",""CC"",""HE""]","[""HF04"",""AM06"",""BF05"",""HM07""]","[7,6,0,2]","[8,6,2,4]","","",""
"show-reward","84","295967","0.0-84.0","p957511","APGX2WZ59OWDN","3OWZNK3RYMVDNXPNEIRWZ8JM6MU2UY","3DYGAII7PNEKAVH6P9N4A4PFXM8PQK","emotion","match","uniform","","","","","","","","295393.0999994278","297394.69999980927","","","","","","","","","","","","7","","stimuli/stars_7.png","143.5","","","","","stimuli/HF04_SUR.jpg","",""
"explore-choice","85","297444","0.0-85.0","p957511","APGX2WZ59OWDN","3OWZNK3RYMVDNXPNEIRWZ8JM6MU2UY","3DYGAII7PNEKAVH6P9N4A4PFXM8PQK","emotion","match","uniform","","","","","","","975","297395.29999923706","298370.29999923706","[""stimuli/HF04_CC.jpg"",""stimuli/BF05_SUR.jpg"",""stimuli/AM06_FO.jpg"",""stimuli/HM07_HE.jpg""]","stimuli/HF04_CC.jpg","stimuli/BF05_SUR.jpg","stimuli/AM06_FO.jpg","stimuli/HM07_HE.jpg","pos2","stimuli/BF05_SUR.jpg","SUR","BF05","1","4","8","8","stimuli/stars_8.png","147.5","[""CC"",""SUR"",""FO"",""HE""]","[""HF04"",""BF05"",""AM06"",""HM07""]","[4,8,5,2]","[2,8,6,4]","","",""
"show-reward","86","299446","0.0-86.0","p957511","APGX2WZ59OWDN","3OWZNK3RYMVDNXPNEIRWZ8JM6MU2UY","3DYGAII7PNEKAVH6P9N4A4PFXM8PQK","emotion","match","uniform","","","","","","","","298871.5","300873.5999994278","","","","","","","","","","","","8","","stimuli/stars_8.png","147.5","","","","","stimuli/BF05_SUR.jpg","",""
"explore-choice","87","301584","0.0-87.0","p957511","APGX2WZ59OWDN","3OWZNK3RYMVDNXPNEIRWZ8JM6MU2UY","3DYGAII7PNEKAVH6P9N4A4PFXM8PQK","emotion","match","uniform","","","","","","","1624.6000003814697","300874.29999923706","302498.89999961853","[""stimuli/HM07_SUR.jpg"",""stimuli/AM06_HE.jpg"",""stimuli/BF05_CC.jpg"",""stimuli/HF04_FO.jpg""]","stimuli/HM07_SUR.jpg","stimuli/AM06_HE.jpg","stimuli/BF05_CC.jpg","stimuli/HF04_FO.jpg","pos1","stimuli/HM07_SUR.jpg","SUR","HM07","0","3.5","7","8","stimuli/stars_7.png","151","[""SUR"",""HE"",""CC"",""FO""]","[""HM07"",""AM06"",""BF05"",""HF04""]","[7,6,0,8]","[8,4,2,6]","","",""
"show-reward","88","303602","0.0-88.0","p957511","APGX2WZ59OWDN","3OWZNK3RYMVDNXPNEIRWZ8JM6MU2UY","3DYGAII7PNEKAVH6P9N4A4PFXM8PQK","emotion","match","uniform","","","","","","","","303012.39999961853","305029","","","","","","","","","","","","7","","stimuli/stars_7.png","151","","","","","stimuli/HM07_SUR.jpg","",""
"explore-choice","89","305614","0.0-89.0","p957511","APGX2WZ59OWDN","3OWZNK3RYMVDNXPNEIRWZ8JM6MU2UY","3DYGAII7PNEKAVH6P9N4A4PFXM8PQK","emotion","match","uniform","","","","","","","1501.6000003814697","305029.89999961853","306531.5","[""stimuli/HM07_HE.jpg"",""stimuli/HF04_FO.jpg"",""stimuli/BF05_CC.jpg"",""stimuli/AM06_SUR.jpg""]","stimuli/HM07_HE.jpg","stimuli/HF04_FO.jpg","stimuli/BF05_CC.jpg","stimuli/AM06_SUR.jpg","pos4","stimuli/AM06_SUR.jpg","SUR","AM06","3","3","6","8","stimuli/stars_6.png","154","[""HE"",""FO"",""CC"",""SUR""]","[""HM07"",""HF04"",""BF05"",""AM06""]","[5,5,0,6]","[4,6,2,8]","","",""
"show-reward","90","307616","0.0-90.0","p957511","APGX2WZ59OWDN","3OWZNK3RYMVDNXPNEIRWZ8JM6MU2UY","3DYGAII7PNEKAVH6P9N4A4PFXM8PQK","emotion","match","uniform","","","","","","","","307041.69999980927","309043.5","","","","","","","","","","","","6","","stimuli/stars_6.png","154","","","","","stimuli/AM06_SUR.jpg","",""
"explore-choice","91","308912","0.0-91.0","p957511","APGX2WZ59OWDN","3OWZNK3RYMVDNXPNEIRWZ8JM6MU2UY","3DYGAII7PNEKAVH6P9N4A4PFXM8PQK","emotion","match","uniform","","","","","","","783.5","309044.19999980927","309827.69999980927","[""stimuli/HM07_SUR.jpg"",""stimuli/BF05_CC.jpg"",""stimuli/AM06_FO.jpg"",""stimuli/HF04_HE.jpg""]","stimuli/HM07_SUR.jpg","stimuli/BF05_CC.jpg","stimuli/AM06_FO.jpg","stimuli/HF04_HE.jpg","pos1","stimuli/HM07_SUR.jpg","SUR","HM07","0","3","6","8","stimuli/stars_6.png","157","[""SUR"",""CC"",""FO"",""HE""]","[""HM07"",""BF05"",""AM06"",""HF04""]","[6,2,4,4]","[8,2,6,4]","","",""
"show-reward","92","310914","0.0-92.0","p957511","APGX2WZ59OWDN","3OWZNK3RYMVDNXPNEIRWZ8JM6MU2UY","3DYGAII7PNEKAVH6P9N4A4PFXM8PQK","emotion","match","uniform","","","","","","","","310339.5","312341.0999994278","","","","","","","","","","","","6","","stimuli/stars_6.png","157","","","","","stimuli/HM07_SUR.jpg","",""
"explore-choice","93","312157","0.0-93.0","p957511","APGX2WZ59OWDN","3OWZNK3RYMVDNXPNEIRWZ8JM6MU2UY","3DYGAII7PNEKAVH6P9N4A4PFXM8PQK","emotion","match","uniform","","","","","","","742.1999998092651","312341.69999980927","313083.89999961853","[""stimuli/HF04_SUR.jpg"",""stimuli/BF05_HE.jpg"",""stimuli/HM07_FO.jpg"",""stimuli/AM06_CC.jpg""]","stimuli/HF04_SUR.jpg","stimuli/BF05_HE.jpg","stimuli/HM07_FO.jpg","stimuli/AM06_CC.jpg","pos1","stimuli/HF04_SUR.jpg","SUR","HF04","0","4.5","9","8","stimuli/stars_9.png","161.5","[""SUR"",""HE"",""FO"",""CC""]","[""HF04"",""BF05"",""HM07"",""AM06""]","[9,4,8,4]","[8,4,6,2]","","",""
"show-reward","94","314167","0.0-94.0","p957511","APGX2WZ59OWDN","3OWZNK3RYMVDNXPNEIRWZ8JM6MU2UY","3DYGAII7PNEKAVH6P9N4A4PFXM8PQK","emotion","match","uniform","","","","","","","","313584.79999923706","315594.0999994278","","","","","","","","","","","","9","","stimuli/stars_9.png","161.5","","","","","stimuli/HF04_SUR.jpg","",""
"explore-choice","95","315758","0.0-95.0","p957511","APGX2WZ59OWDN","3OWZNK3RYMVDNXPNEIRWZ8JM6MU2UY","3DYGAII7PNEKAVH6P9N4A4PFXM8PQK","emotion","match","uniform","","","","","","","1089.7000007629395","315594.79999923706","316684.5","[""stimuli/BF05_HE.jpg"",""stimuli/AM06_FO.jpg"",""stimuli/HF04_CC.jpg"",""stimuli/HM07_SUR.jpg""]","stimuli/BF05_HE.jpg","stimuli/AM06_FO.jpg","stimuli/HF04_CC.jpg","stimuli/HM07_SUR.jpg","pos4","stimuli/HM07_SUR.jpg","SUR","HM07","3","3.5","7","8","stimuli/stars_7.png","165","[""HE"",""FO"",""CC"",""SUR""]","[""BF05"",""AM06"",""HF04"",""HM07""]","[2,6,1,7]","[4,6,2,8]","","",""
"show-reward","96","317761","0.0-96.0","p957511","APGX2WZ59OWDN","3OWZNK3RYMVDNXPNEIRWZ8JM6MU2UY","3DYGAII7PNEKAVH6P9N4A4PFXM8PQK","emotion","match","uniform","","","","","","","","317185.79999923706","319188.19999980927","","","","","","","","","","","","7","","stimuli/stars_7.png","165","","","","","stimuli/HM07_SUR.jpg","",""
"explore-choice","97","319102","0.0-97.0","p957511","APGX2WZ59OWDN","3OWZNK3RYMVDNXPNEIRWZ8JM6MU2UY","3DYGAII7PNEKAVH6P9N4A4PFXM8PQK","emotion","match","uniform","","","","","","","840.2000007629395","319188.79999923706","320029","[""stimuli/HM07_CC.jpg"",""stimuli/BF05_FO.jpg"",""stimuli/AM06_HE.jpg"",""stimuli/HF04_SUR.jpg""]","stimuli/HM07_CC.jpg","stimuli/BF05_FO.jpg","stimuli/AM06_HE.jpg","stimuli/HF04_SUR.jpg","pos4","stimuli/HF04_SUR.jpg","SUR","HF04","3","3","6","8","stimuli/stars_6.png","168","[""CC"",""FO"",""HE"",""SUR""]","[""HM07"",""BF05"",""AM06"",""HF04""]","[1,7,6,6]","[2,6,4,8]","","",""
"show-reward","98","321104","0.0-98.0","p957511","APGX2WZ59OWDN","3OWZNK3RYMVDNXPNEIRWZ8JM6MU2UY","3DYGAII7PNEKAVH6P9N4A4PFXM8PQK","emotion","match","uniform","","","","","","","","320529.79999923706","322531.69999980927","","","","","","","","","","","","6","","stimuli/stars_6.png","168","","","","","stimuli/HF04_SUR.jpg","",""
"explore-choice","99","323286","0.0-99.0","p957511","APGX2WZ59OWDN","3OWZNK3RYMVDNXPNEIRWZ8JM6MU2UY","3DYGAII7PNEKAVH6P9N4A4PFXM8PQK","emotion","match","uniform","","","","","","","1673.1999998092651","322532.0999994278","324205.29999923706","[""stimuli/AM06_FO.jpg"",""stimuli/BF05_SUR.jpg"",""stimuli/HF04_HE.jpg"",""stimuli/HM07_CC.jpg""]","stimuli/AM06_FO.jpg","stimuli/BF05_SUR.jpg","stimuli/HF04_HE.jpg","stimuli/HM07_CC.jpg","pos2","stimuli/BF05_SUR.jpg","SUR","BF05","1","4","8","8","stimuli/stars_8.png","172","[""FO"",""SUR"",""HE"",""CC""]","[""AM06"",""BF05"",""HF04"",""HM07""]","[4,8,5,3]","[6,8,4,2]","","",""
"show-reward","100","325288","0.0-100.0","p957511","APGX2WZ59OWDN","3OWZNK3RYMVDNXPNEIRWZ8JM6MU2UY","3DYGAII7PNEKAVH6P9N4A4PFXM8PQK","emotion","match","uniform","","","","","","","","324713.39999961853","326715.39999961853","","","","","","","","","","","","8","","stimuli/stars_8.png","172","","","","","stimuli/BF05_SUR.jpg","",""
"explore-choice","101","327199","0.0-101.0","p957511","APGX2WZ59OWDN","3OWZNK3RYMVDNXPNEIRWZ8JM6MU2UY","3DYGAII7PNEKAVH6P9N4A4PFXM8PQK","emotion","match","uniform","","","","","","","1409.8000001907349","326715.89999961853","328125.69999980927","[""stimuli/HM07_FO.jpg"",""stimuli/HF04_CC.jpg"",""stimuli/BF05_HE.jpg"",""stimuli/AM06_SUR.jpg""]","stimuli/HM07_FO.jpg","stimuli/HF04_CC.jpg","stimuli/BF05_HE.jpg","stimuli/AM06_SUR.jpg","pos4","stimuli/AM06_SUR.jpg","SUR","AM06","3","3.5","7","8","stimuli/stars_7.png","175.5","[""FO"",""CC"",""HE"",""SUR""]","[""HM07"",""HF04"",""BF05"",""AM06""]","[6,1,2,7]","[6,2,4,8]","","",""
"show-reward","102","329202","0.0-102.0","p957511","APGX2WZ59OWDN","3OWZNK3RYMVDNXPNEIRWZ8JM6MU2UY","3DYGAII7PNEKAVH6P9N4A4PFXM8PQK","emotion","match","uniform","","","","","","","","328626.69999980927","330629","","","","","","","","","","","","7","","stimuli/stars_7.png","175.5","","","","","stimuli/AM06_SUR.jpg","",""
"explore-choice","103","332327","0.0-103.0","p957511","APGX2WZ59OWDN","3OWZNK3RYMVDNXPNEIRWZ8JM6MU2UY","3DYGAII7PNEKAVH6P9N4A4PFXM8PQK","emotion","match","uniform","","","","","","","2624.7999992370605","330629.5","333254.29999923706","[""stimuli/WM09_DO.jpg"",""stimuli/AM09_SC.jpg"",""stimuli/WF11_AO.jpg"",""stimuli/AF11_HO.jpg""]","stimuli/WM09_DO.jpg","stimuli/AM09_SC.jpg","stimuli/WF11_AO.jpg","stimuli/AF11_HO.jpg","pos1","stimuli/WM09_DO.jpg","DO","WM09","0","2","4","6","stimuli/stars_4.png","177.5","[""DO"",""SC"",""AO"",""HO""]","[""WM09"",""AM09"",""WF11"",""AF11""]","[4,7,3,2]","[6,8,4,2]","","",""
"show-reward","104","334330","0.0-104.0","p957511","APGX2WZ59OWDN","3OWZNK3RYMVDNXPNEIRWZ8JM6MU2UY","3DYGAII7PNEKAVH6P9N4A4PFXM8PQK","emotion","match","uniform","","","","","","","","333755.39999961853","335757.5999994278","","","","","","","","","","","","4","","stimuli/stars_4.png","177.5","","","","","stimuli/WM09_DO.jpg","",""
"explore-choice","105","337508","0.0-105.0","p957511","APGX2WZ59OWDN","3OWZNK3RYMVDNXPNEIRWZ8JM6MU2UY","3DYGAII7PNEKAVH6P9N4A4PFXM8PQK","emotion","match","uniform","","","","","","","2664.8999996185303","335758.19999980927","338423.0999994278","[""stimuli/AM09_DO.jpg"",""stimuli/AF11_SC.jpg"",""stimuli/WM09_HO.jpg"",""stimuli/WF11_AO.jpg""]","stimuli/AM09_DO.jpg","stimuli/AF11_SC.jpg","stimuli/WM09_HO.jpg","stimuli/WF11_AO.jpg","pos4","stimuli/WF11_AO.jpg","AO","WF11","3","1.5","3","4","stimuli/stars_3.png","179","[""DO"",""SC"",""HO"",""AO""]","[""AM09"",""AF11"",""WM09"",""WF11""]","[4,10,2,3]","[6,8,2,4]","","",""
"show-reward","106","339515","0.0-106.0","p957511","APGX2WZ59OWDN","3OWZNK3RYMVDNXPNEIRWZ8JM6MU2UY","3DYGAII7PNEKAVH6P9N4A4PFXM8PQK","emotion","match","uniform","","","","","","","","338935.89999961853","340942.5","","","","","","","","","","","","3","","stimuli/stars_3.png","179","","","","","stimuli/WF11_AO.jpg","",""
"explore-choice","107","342146","0.0-107.0","p957511","APGX2WZ59OWDN","3OWZNK3RYMVDNXPNEIRWZ8JM6MU2UY","3DYGAII7PNEKAVH6P9N4A4PFXM8PQK","emotion","match","uniform","","","","","","","2128.5999994277954","340943.19999980927","343071.79999923706","[""stimuli/AF11_DO.jpg"",""stimuli/WM09_HO.jpg"",""stimuli/AM09_AO.jpg"",""stimuli/WF11_SC.jpg""]","stimuli/AF11_DO.jpg","stimuli/WM09_HO.jpg","stimuli/AM09_AO.jpg","stimuli/WF11_SC.jpg","pos2","stimuli/WM09_HO.jpg","HO","WM09","1","1.5","3","2","stimuli/stars_3.png","180.5","[""DO"",""HO"",""AO"",""SC""]","[""AF11"",""WM09"",""AM09"",""WF11""]","[5,3,3,9]","[6,2,4,8]","","",""
"show-reward","108","344148","0.0-108.0","p957511","APGX2WZ59OWDN","3OWZNK3RYMVDNXPNEIRWZ8JM6MU2UY","3DYGAII7PNEKAVH6P9N4A4PFXM8PQK","emotion","match","uniform","","","","","","","","343573.39999961853","345575.5999994278","","","","","","","","","","","","3","","stimuli/stars_3.png","180.5","","","","","stimuli/WM09_HO.jpg","",""
"explore-choice","109","347768","0.0-109.0","p957511","APGX2WZ59OWDN","3OWZNK3RYMVDNXPNEIRWZ8JM6MU2UY","3DYGAII7PNEKAVH6P9N4A4PFXM8PQK","emotion","match","uniform","","","","","","","3112.300000190735","345576.19999980927","348688.5","[""stimuli/AM09_SC.jpg"",""stimuli/WM09_HO.jpg"",""stimuli/WF11_AO.jpg"",""stimuli/AF11_DO.jpg""]","stimuli/AM09_SC.jpg","stimuli/WM09_HO.jpg","stimuli/WF11_AO.jpg","stimuli/AF11_DO.jpg","pos1","stimuli/AM09_SC.jpg","SC","AM09","0","3","6","8","stimuli/stars_6.png","183.5","[""SC"",""HO"",""AO"",""DO""]","[""AM09"",""WM09"",""WF11"",""AF11""]","[6,0,4,7]","[8,2,4,6]","","",""
"show-reward","110","349778","0.0-110.0","p957511","APGX2WZ59OWDN","3OWZNK3RYMVDNXPNEIRWZ8JM6MU2UY","3DYGAII7PNEKAVH6P9N4A4PFXM8PQK","emotion","match","uniform","","","","","","","","349195.79999923706","351204.79999923706","","","","","","","","","","","","6","","stimuli/stars_6.png","183.5","","","","","stimuli/AM09_SC.jpg","",""
"explore-choice","111","351446","0.0-111.0","p957511","APGX2WZ59OWDN","3OWZNK3RYMVDNXPNEIRWZ8JM6MU2UY","3DYGAII7PNEKAVH6P9N4A4PFXM8PQK","emotion","match","uniform","","","","","","","1163","351205.69999980927","352368.69999980927","[""stimuli/WM09_SC.jpg"",""stimuli/WF11_DO.jpg"",""stimuli/AF11_AO.jpg"",""stimuli/AM09_HO.jpg""]","stimuli/WM09_SC.jpg","stimuli/WF11_DO.jpg","stimuli/AF11_AO.jpg","stimuli/AM09_HO.jpg","pos1","stimuli/WM09_SC.jpg","SC","WM09","0","5","10","8","stimuli/stars_10.png","188.5","[""SC"",""DO"",""AO"",""HO""]","[""WM09"",""WF11"",""AF11"",""AM09""]","[10,8,4,1]","[8,6,4,2]","","",""
"show-reward","112","353455","0.0-112.0","p957511","APGX2WZ59OWDN","3OWZNK3RYMVDNXPNEIRWZ8JM6MU2UY","3DYGAII7PNEKAVH6P9N4A4PFXM8PQK","emotion","match","uniform","","","","","","","","352873.5","354882.5999994278","","","","","","","","","","","","10","","stimuli/stars_10.png","188.5","","","","","stimuli/WM09_SC.jpg","",""
"explore-choice","113","355042","0.0-113.0","p957511","APGX2WZ59OWDN","3OWZNK3RYMVDNXPNEIRWZ8JM6MU2UY","3DYGAII7PNEKAVH6P9N4A4PFXM8PQK","emotion","match","uniform","","","","","","","1085.6000003814697","354883.39999961853","355969","[""stimuli/WM09_SC.jpg"",""stimuli/AF11_DO.jpg"",""stimuli/AM09_AO.jpg"",""stimuli/WF11_HO.jpg""]","stimuli/WM09_SC.jpg","stimuli/AF11_DO.jpg","stimuli/AM09_AO.jpg","stimuli/WF11_HO.jpg","pos1","stimuli/WM09_SC.jpg","SC","WM09","0","4.5","9","8","stimuli/stars_9.png","193","[""SC"",""DO"",""AO"",""HO""]","[""WM09"",""AF11"",""AM09"",""WF11""]","[9,6,2,2]","[8,6,4,2]","","",""
"show-reward","114","357045","0.0-114.0","p957511","APGX2WZ59OWDN","3OWZNK3RYMVDNXPNEIRWZ8JM6MU2UY","3DYGAII7PNEKAVH6P9N4A4PFXM8PQK","emotion","match","uniform","","","","","","","","356469.69999980927","358471.79999923706","","","","","","","","","","","","9","","stimuli/stars_9.png","193","","","","","stimuli/WM09_SC.jpg","",""
"explore-choice","115","359187","0.0-115.0","p957511","APGX2WZ59OWDN","3OWZNK3RYMVDNXPNEIRWZ8JM6MU2UY","3DYGAII7PNEKAVH6P9N4A4PFXM8PQK","emotion","match","uniform","","","","","","","1641.0999994277954","358472.5","360113.5999994278","[""stimuli/WM09_DO.jpg"",""stimuli/AF11_SC.jpg"",""stimuli/AM09_AO.jpg"",""stimuli/WF11_HO.jpg""]","stimuli/WM09_DO.jpg","stimuli/AF11_SC.jpg","stimuli/AM09_AO.jpg","stimuli/WF11_HO.jpg","pos2","stimuli/AF11_SC.jpg","SC","AF11","1","5","10","8","stimuli/stars_10.png","198","[""DO"",""SC"",""AO"",""HO""]","[""WM09"",""AF11"",""AM09"",""WF11""]","[5,10,4,2]","[6,8,4,2]","","",""
"show-reward","116","361190","0.0-116.0","p957511","APGX2WZ59OWDN","3OWZNK3RYMVDNXPNEIRWZ8JM6MU2UY","3DYGAII7PNEKAVH6P9N4A4PFXM8PQK","emotion","match","uniform","","","","","","","","360615","362617.19999980927","","","","","","","","","","","","10","","stimuli/stars_10.png","198","","","","","stimuli/AF11_SC.jpg","",""
"explore-choice","117","363675","0.0-117.0","p957511","APGX2WZ59OWDN","3OWZNK3RYMVDNXPNEIRWZ8JM6MU2UY","3DYGAII7PNEKAVH6P9N4A4PFXM8PQK","emotion","match","uniform","","","","","","","1984.3000001907349","362617.79999923706","364602.0999994278","[""stimuli/WM09_DO.jpg"",""stimuli/WF11_HO.jpg"",""stimuli/AF11_AO.jpg"",""stimuli/AM09_SC.jpg""]","stimuli/WM09_DO.jpg","stimuli/WF11_HO.jpg","stimuli/AF11_AO.jpg","stimuli/AM09_SC.jpg","pos4","stimuli/AM09_SC.jpg","SC","AM09","3","5","10","8","stimuli/stars_10.png","203","[""DO"",""HO"",""AO"",""SC""]","[""WM09"",""WF11"",""AF11"",""AM09""]","[4,1,6,10]","[6,2,4,8]","","",""
"show-reward","118","365687","0.0-118.0","p957511","APGX2WZ59OWDN","3OWZNK3RYMVDNXPNEIRWZ8JM6MU2UY","3DYGAII7PNEKAVH6P9N4A4PFXM8PQK","emotion","match","uniform","","","","","","","","365102.89999961853","367114.29999923706","","","","","","","","","","","","10","","stimuli/stars_10.png","203","","","","","stimuli/AM09_SC.jpg","",""
"explore-choice","119","367337","0.0-119.0","p957511","APGX2WZ59OWDN","3OWZNK3RYMVDNXPNEIRWZ8JM6MU2UY","3DYGAII7PNEKAVH6P9N4A4PFXM8PQK","emotion","match","uniform","","","","","","","1135.7000007629395","367114.79999923706","368250.5","[""stimuli/WM09_HO.jpg"",""stimuli/WF11_SC.jpg"",""stimuli/AF11_AO.jpg"",""stimuli/AM09_DO.jpg""]","stimuli/WM09_HO.jpg","stimuli/WF11_SC.jpg","stimuli/AF11_AO.jpg","stimuli/AM09_DO.jpg","pos2","stimuli/WF11_SC.jpg","SC","WF11","1","5","10","8","stimuli/stars_10.png","208","[""HO"",""SC"",""AO"",""DO""]","[""WM09"",""WF11"",""AF11"",""AM09""]","[0,10,3,7]","[2,8,4,6]","","",""
"show-reward","120","369339","0.0-120.0","p957511","APGX2WZ59OWDN","3OWZNK3RYMVDNXPNEIRWZ8JM6MU2UY","3DYGAII7PNEKAVH6P9N4A4PFXM8PQK","emotion","match","uniform","","","","","","","","368764.39999961853","370766.5999994278","","","","","","","","","","","","10","","stimuli/stars_10.png","208","","","","","stimuli/WF11_SC.jpg","",""
"explore-choice","121","370677","0.0-121.0","p957511","APGX2WZ59OWDN","3OWZNK3RYMVDNXPNEIRWZ8JM6MU2UY","3DYGAII7PNEKAVH6P9N4A4PFXM8PQK","emotion","match","uniform","","","","","","","835.9000005722046","370767.0999994278","371603","[""stimuli/WF11_SC.jpg"",""stimuli/WM09_DO.jpg"",""stimuli/AF11_HO.jpg"",""stimuli/AM09_AO.jpg""]","stimuli/WF11_SC.jpg","stimuli/WM09_DO.jpg","stimuli/AF11_HO.jpg","stimuli/AM09_AO.jpg","pos1","stimuli/WF11_SC.jpg","SC","WF11","0","4.5","9","8","stimuli/stars_9.png","212.5","[""SC"",""DO"",""HO"",""AO""]","[""WF11"",""WM09"",""AF11"",""AM09""]","[9,8,3,5]","[8,6,2,4]","","",""
"show-reward","122","372679","0.0-122.0","p957511","APGX2WZ59OWDN","3OWZNK3RYMVDNXPNEIRWZ8JM6MU2UY","3DYGAII7PNEKAVH6P9N4A4PFXM8PQK","emotion","match","uniform","","","","","","","","372104.5","374106.69999980927","","","","","","","","","","","","9","","stimuli/stars_9.png","212.5","","","","","stimuli/WF11_SC.jpg","",""
"explore-choice","123","374748","0.0-123.0","p957511","APGX2WZ59OWDN","3OWZNK3RYMVDNXPNEIRWZ8JM6MU2UY","3DYGAII7PNEKAVH6P9N4A4PFXM8PQK","emotion","match","uniform","","","","","","","1568.1000003814697","374107.29999923706","375675.39999961853","[""stimuli/AF11_HO.jpg"",""stimuli/WM09_SC.jpg"",""stimuli/WF11_AO.jpg"",""stimuli/AM09_DO.jpg""]","stimuli/AF11_HO.jpg","stimuli/WM09_SC.jpg","stimuli/WF11_AO.jpg","stimuli/AM09_DO.jpg","pos2","stimuli/WM09_SC.jpg","SC","WM09","1","3","6","8","stimuli/stars_6.png","215.5","[""HO"",""SC"",""AO"",""DO""]","[""AF11"",""WM09"",""WF11"",""AM09""]","[2,6,5,6]","[2,8,4,6]","","",""
"show-reward","124","376751","0.0-124.0","p957511","APGX2WZ59OWDN","3OWZNK3RYMVDNXPNEIRWZ8JM6MU2UY","3DYGAII7PNEKAVH6P9N4A4PFXM8PQK","emotion","match","uniform","","","","","","","","376176.0999994278","378178.39999961853","","","","","","","","","","","","6","","stimuli/stars_6.png","215.5","","","","","stimuli/WM09_SC.jpg","",""
"explore-choice","125","378213","0.0-125.0","p957511","APGX2WZ59OWDN","3OWZNK3RYMVDNXPNEIRWZ8JM6MU2UY","3DYGAII7PNEKAVH6P9N4A4PFXM8PQK","emotion","match","uniform","","","","","","","960.8999996185303","378178.89999961853","379139.79999923706","[""stimuli/AF11_AO.jpg"",""stimuli/WM09_DO.jpg"",""stimuli/WF11_SC.jpg"",""stimuli/AM09_HO.jpg""]","stimuli/AF11_AO.jpg","stimuli/WM09_DO.jpg","stimuli/WF11_SC.jpg","stimuli/AM09_HO.jpg","pos3","stimuli/WF11_SC.jpg","SC","WF11","2","3.5","7","8","stimuli/stars_7.png","219","[""AO"",""DO"",""SC"",""HO""]","[""AF11"",""WM09"",""WF11"",""AM09""]","[5,5,7,4]","[4,6,8,2]","","",""
"show-reward","126","380216","0.0-126.0","p957511","APGX2WZ59OWDN","3OWZNK3RYMVDNXPNEIRWZ8JM6MU2UY","3DYGAII7PNEKAVH6P9N4A4PFXM8PQK","emotion","match","uniform","","","","","","","","379641.19999980927","381643.5999994278","","","","","","","","","","","","7","","stimuli/stars_7.png","219","","","","","stimuli/WF11_SC.jpg","",""
"explore-choice","127","382222","0.0-127.0","p957511","APGX2WZ59OWDN","3OWZNK3RYMVDNXPNEIRWZ8JM6MU2UY","3DYGAII7PNEKAVH6P9N4A4PFXM8PQK","emotion","match","uniform","","","","","","","1504.1999998092651","381644.0999994278","383148.29999923706","[""stimuli/AF11_AO.jpg"",""stimuli/WM09_HO.jpg"",""stimuli/AM09_SC.jpg"",""stimuli/WF11_DO.jpg""]","stimuli/AF11_AO.jpg","stimuli/WM09_HO.jpg","stimuli/AM09_SC.jpg","stimuli/WF11_DO.jpg","pos3","stimuli/AM09_SC.jpg","SC","AM09","2","5","10","8","stimuli/stars_10.png","224","[""AO"",""HO"",""SC"",""DO""]","[""AF11"",""WM09"",""AM09"",""WF11""]","[2,1,10,4]","[4,2,8,6]","","",""
"show-reward","128","384225","0.0-128.0","p957511","APGX2WZ59OWDN","3OWZNK3RYMVDNXPNEIRWZ8JM6MU2UY","3DYGAII7PNEKAVH6P9N4A4PFXM8PQK","emotion","match","uniform","","","","","","","","383649.79999923706","385652.79999923706","","","","","","","","","","","","10","","stimuli/stars_10.png","224","","","","","stimuli/AM09_SC.jpg","",""
"explore-choice","129","386421","0.0-129.0","p957511","APGX2WZ59OWDN","3OWZNK3RYMVDNXPNEIRWZ8JM6MU2UY","3DYGAII7PNEKAVH6P9N4A4PFXM8PQK","emotion","match","uniform","","","","","","","1679.5","385653.29999923706","387332.79999923706","[""stimuli/AM09_SC.jpg"",""stimuli/WF11_HO.jpg"",""stimuli/AF11_DO.jpg"",""stimuli/WM09_AO.jpg""]","stimuli/AM09_SC.jpg","stimuli/WF11_HO.jpg","stimuli/AF11_DO.jpg","stimuli/WM09_AO.jpg","pos1","stimuli/AM09_SC.jpg","SC","AM09","0","3","6","8","stimuli/stars_6.png","227","[""SC"",""HO"",""DO"",""AO""]","[""AM09"",""WF11"",""AF11"",""WM09""]","[6,1,7,3]","[8,2,6,4]","","",""
"show-reward","130","388425","0.0-130.0","p957511","APGX2WZ59OWDN","3OWZNK3RYMVDNXPNEIRWZ8JM6MU2UY","3DYGAII7PNEKAVH6P9N4A4PFXM8PQK","emotion","match","uniform","","","","","","","","387849.39999961853","389852","","","","","","","","","","","","6","","stimuli/stars_6.png","227","","","","","stimuli/AM09_SC.jpg","",""
"explore-choice","131","389766","0.0-131.0","p957511","APGX2WZ59OWDN","3OWZNK3RYMVDNXPNEIRWZ8JM6MU2UY","3DYGAII7PNEKAVH6P9N4A4PFXM8PQK","emotion","match","uniform","","","","","","","840.5","389852.5999994278","390693.0999994278","[""stimuli/WF11_SC.jpg"",""stimuli/AM09_DO.jpg"",""stimuli/AF11_HO.jpg"",""stimuli/WM09_AO.jpg""]","stimuli/WF11_SC.jpg","stimuli/AM09_DO.jpg","stimuli/AF11_HO.jpg","stimuli/WM09_AO.jpg","pos1","stimuli/WF11_SC.jpg","SC","WF11","0","5","10","8","stimuli/stars_10.png","232","[""SC"",""DO"",""HO"",""AO""]","[""WF11"",""AM09"",""AF11"",""WM09""]","[10,7,1,2]","[8,6,2,4]","","",""
"show-reward","132","391769","0.0-132.0","p957511","APGX2WZ59OWDN","3OWZNK3RYMVDNXPNEIRWZ8JM6MU2UY","3DYGAII7PNEKAVH6P9N4A4PFXM8PQK","emotion","match","uniform","","","","","","","","391193.79999923706","393196.0999994278","","","","","","","","","","","","10","","stimuli/stars_10.png","232","","","","","stimuli/WF11_SC.jpg","",""
"explore-choice","133","393895","0.0-133.0","p957511","APGX2WZ59OWDN","3OWZNK3RYMVDNXPNEIRWZ8JM6MU2UY","3DYGAII7PNEKAVH6P9N4A4PFXM8PQK","emotion","match","uniform","","","","","","","1625","393196.69999980927","394821.69999980927","[""stimuli/WF11_DO.jpg"",""stimuli/WM09_AO.jpg"",""stimuli/AM09_HO.jpg"",""stimuli/AF11_SC.jpg""]","stimuli/WF11_DO.jpg","stimuli/WM09_AO.jpg","stimuli/AM09_HO.jpg","stimuli/AF11_SC.jpg","pos4","stimuli/AF11_SC.jpg","SC","AF11","3","5","10","8","stimuli/stars_10.png","237","[""DO"",""AO"",""HO"",""SC""]","[""WF11"",""WM09"",""AM09"",""AF11""]","[4,4,1,10]","[6,4,2,8]","","",""
"show-reward","134","395902","0.0-134.0","p957511","APGX2WZ59OWDN","3OWZNK3RYMVDNXPNEIRWZ8JM6MU2UY","3DYGAII7PNEKAVH6P9N4A4PFXM8PQK","emotion","match","uniform","","","","","","","","395322.39999961853","397328.69999980927","","","","","","","","","","","","10","","stimuli/stars_10.png","237","","","","","stimuli/AF11_SC.jpg","",""
"explore-choice","135","397640","0.0-135.0","p957511","APGX2WZ59OWDN","3OWZNK3RYMVDNXPNEIRWZ8JM6MU2UY","3DYGAII7PNEKAVH6P9N4A4PFXM8PQK","emotion","match","uniform","","","","","","","1236.6999998092651","397329.39999961853","398566.0999994278","[""stimuli/AF11_HO.jpg"",""stimuli/AM09_SC.jpg"",""stimuli/WF11_DO.jpg"",""stimuli/WM09_AO.jpg""]","stimuli/AF11_HO.jpg","stimuli/AM09_SC.jpg","stimuli/WF11_DO.jpg","stimuli/WM09_AO.jpg","pos2","stimuli/AM09_SC.jpg","SC","AM09","1","4.5","9","8","stimuli/stars_9.png","241.5","[""HO"",""SC"",""DO"",""AO""]","[""AF11"",""AM09"",""WF11"",""WM09""]","[3,9,8,4]","[2,8,6,4]","","",""
"show-reward","136","399642","0.0-136.0","p957511","APGX2WZ59OWDN","3OWZNK3RYMVDNXPNEIRWZ8JM6MU2UY","3DYGAII7PNEKAVH6P9N4A4PFXM8PQK","emotion","match","uniform","","","","","","","","399067.39999961853","401069.0999994278","","","","","","","","","","","","9","","stimuli/stars_9.png","241.5","","","","","stimuli/AM09_SC.jpg","",""
"explore-choice","137","401712","0.0-137.0","p957511","APGX2WZ59OWDN","3OWZNK3RYMVDNXPNEIRWZ8JM6MU2UY","3DYGAII7PNEKAVH6P9N4A4PFXM8PQK","emotion","match","uniform","","","","","","","1569.1000003814697","401069.5999994278","402638.69999980927","[""stimuli/WM09_AO.jpg"",""stimuli/AF11_DO.jpg"",""stimuli/AM09_HO.jpg"",""stimuli/WF11_SC.jpg""]","stimuli/WM09_AO.jpg","stimuli/AF11_DO.jpg","stimuli/AM09_HO.jpg","stimuli/WF11_SC.jpg","pos4","stimuli/WF11_SC.jpg","SC","WF11","3","4.5","9","8","stimuli/stars_9.png","246","[""AO"",""DO"",""HO"",""SC""]","[""WM09"",""AF11"",""AM09"",""WF11""]","[2,7,4,9]","[4,6,2,8]","","",""
"show-reward","138","403715","0.0-138.0","p957511","APGX2WZ59OWDN","3OWZNK3RYMVDNXPNEIRWZ8JM6MU2UY","3DYGAII7PNEKAVH6P9N4A4PFXM8PQK","emotion","match","uniform","","","","","","","","403139.89999961853","405142.29999923706","","","","","","","","","","","","9","","stimuli/stars_9.png","246","","","","","stimuli/WF11_SC.jpg","",""
"explore-choice","139","406054","0.0-139.0","p957511","APGX2WZ59OWDN","3OWZNK3RYMVDNXPNEIRWZ8JM6MU2UY","3DYGAII7PNEKAVH6P9N4A4PFXM8PQK","emotion","match","uniform","","","","","","","1832.1999998092651","405142.69999980927","406974.89999961853","[""stimuli/AM09_AO.jpg"",""stimuli/WM09_HO.jpg"",""stimuli/WF11_DO.jpg"",""stimuli/AF11_SC.jpg""]","stimuli/AM09_AO.jpg","stimuli/WM09_HO.jpg","stimuli/WF11_DO.jpg","stimuli/AF11_SC.jpg","pos4","stimuli/AF11_SC.jpg","SC","AF11","3","5","10","8","stimuli/stars_10.png","251","[""AO"",""HO"",""DO"",""SC""]","[""AM09"",""WM09"",""WF11"",""AF11""]","[5,2,7,10]","[4,2,6,8]","","",""
"show-reward","140","408064","0.0-140.0","p957511","APGX2WZ59OWDN","3OWZNK3RYMVDNXPNEIRWZ8JM6MU2UY","3DYGAII7PNEKAVH6P9N4A4PFXM8PQK","emotion","match","uniform","","","","","","","","407481.69999980927","409490.89999961853","","","","","","","","","","","","10","","stimuli/stars_10.png","251","","","","","stimuli/AF11_SC.jpg","",""
"explore-choice","141","410017","0.0-141.0","p957511","APGX2WZ59OWDN","3OWZNK3RYMVDNXPNEIRWZ8JM6MU2UY","3DYGAII7PNEKAVH6P9N4A4PFXM8PQK","emotion","match","uniform","","","","","","","1451.9000005722046","409491.5999994278","410943.5","[""stimuli/AF11_SC.jpg"",""stimuli/WM09_DO.jpg"",""stimuli/WF11_AO.jpg"",""stimuli/AM09_HO.jpg""]","stimuli/AF11_SC.jpg","stimuli/WM09_DO.jpg","stimuli/WF11_AO.jpg","stimuli/AM09_HO.jpg","pos1","stimuli/AF11_SC.jpg","SC","AF11","0","5","10","8","stimuli/stars_10.png","256","[""SC"",""DO"",""AO"",""HO""]","[""AF11"",""WM09"",""WF11"",""AM09""]","[10,4,2,3]","[8,6,4,2]","","",""
"show-reward","142","412021","0.0-142.0","p957511","APGX2WZ59OWDN","3OWZNK3RYMVDNXPNEIRWZ8JM6MU2UY","3DYGAII7PNEKAVH6P9N4A4PFXM8PQK","emotion","match","uniform","","","","","","","","411444.69999980927","413448","","","","","","","","","","","","10","","stimuli/stars_10.png","256","","","","","stimuli/AF11_SC.jpg","",""
"explore-choice","143","413521","0.0-143.0","p957511","APGX2WZ59OWDN","3OWZNK3RYMVDNXPNEIRWZ8JM6MU2UY","3DYGAII7PNEKAVH6P9N4A4PFXM8PQK","emotion","match","uniform","","","","","","","999.5","413448.5","414448","[""stimuli/AF11_SC.jpg"",""stimuli/WF11_HO.jpg"",""stimuli/AM09_DO.jpg"",""stimuli/WM09_AO.jpg""]","stimuli/AF11_SC.jpg","stimuli/WF11_HO.jpg","stimuli/AM09_DO.jpg","stimuli/WM09_AO.jpg","pos1","stimuli/AF11_SC.jpg","SC","AF11","0","4","8","8","stimuli/stars_8.png","260","[""SC"",""HO"",""DO"",""AO""]","[""AF11"",""WF11"",""AM09"",""WM09""]","[8,2,4,5]","[8,2,6,4]","","",""
"show-reward","144","415523","0.0-144.0","p957511","APGX2WZ59OWDN","3OWZNK3RYMVDNXPNEIRWZ8JM6MU2UY","3DYGAII7PNEKAVH6P9N4A4PFXM8PQK","emotion","match","uniform","","","","","","","","414948.79999923706","416950.0999994278","","","","","","","","","","","","8","","stimuli/stars_8.png","260","","","","","stimuli/AF11_SC.jpg","",""
"explore-choice","145","417474","0.0-145.0","p957511","APGX2WZ59OWDN","3OWZNK3RYMVDNXPNEIRWZ8JM6MU2UY","3DYGAII7PNEKAVH6P9N4A4PFXM8PQK","emotion","match","uniform","","","","","","","1450.1999998092651","416950.5999994278","418400.79999923706","[""stimuli/AM09_AO.jpg"",""stimuli/AF11_HO.jpg"",""stimuli/WM09_SC.jpg"",""stimuli/WF11_DO.jpg""]","stimuli/AM09_AO.jpg","stimuli/AF11_HO.jpg","stimuli/WM09_SC.jpg","stimuli/WF11_DO.jpg","pos3","stimuli/WM09_SC.jpg","SC","WM09","2","5","10","8","stimuli/stars_10.png","265","[""AO"",""HO"",""SC"",""DO""]","[""AM09"",""AF11"",""WM09"",""WF11""]","[2,2,10,6]","[4,2,8,6]","","",""
"show-reward","146","419477","0.0-146.0","p957511","APGX2WZ59OWDN","3OWZNK3RYMVDNXPNEIRWZ8JM6MU2UY","3DYGAII7PNEKAVH6P9N4A4PFXM8PQK","emotion","match","uniform","","","","","","","","418902","420904.19999980927","","","","","","","","","","","","10","","stimuli/stars_10.png","265","","","","","stimuli/WM09_SC.jpg","",""
"explore-choice","147","420891","0.0-147.0","p957511","APGX2WZ59OWDN","3OWZNK3RYMVDNXPNEIRWZ8JM6MU2UY","3DYGAII7PNEKAVH6P9N4A4PFXM8PQK","emotion","match","uniform","","","","","","","911.9000005722046","420904.79999923706","421816.69999980927","[""stimuli/AM09_HO.jpg"",""stimuli/WM09_SC.jpg"",""stimuli/AF11_DO.jpg"",""stimuli/WF11_AO.jpg""]","stimuli/AM09_HO.jpg","stimuli/WM09_SC.jpg","stimuli/AF11_DO.jpg","stimuli/WF11_AO.jpg","pos2","stimuli/WM09_SC.jpg","SC","WM09","1","3","6","8","stimuli/stars_6.png","268","[""HO"",""SC"",""DO"",""AO""]","[""AM09"",""WM09"",""AF11"",""WF11""]","[3,6,7,6]","[2,8,6,4]","","",""
"show-reward","148","422893","0.0-148.0","p957511","APGX2WZ59OWDN","3OWZNK3RYMVDNXPNEIRWZ8JM6MU2UY","3DYGAII7PNEKAVH6P9N4A4PFXM8PQK","emotion","match","uniform","","","","","","","","422318.0999994278","424320.29999923706","","","","","","","","","","","","6","","stimuli/stars_6.png","268","","","","","stimuli/WM09_SC.jpg","",""
"explore-choice","149","424114","0.0-149.0","p957511","APGX2WZ59OWDN","3OWZNK3RYMVDNXPNEIRWZ8JM6MU2UY","3DYGAII7PNEKAVH6P9N4A4PFXM8PQK","emotion","match","uniform","","","","","","","720.3999996185303","424320.89999961853","425041.29999923706","[""stimuli/WM09_SC.jpg"",""stimuli/WF11_HO.jpg"",""stimuli/AF11_AO.jpg"",""stimuli/AM09_DO.jpg""]","stimuli/WM09_SC.jpg","stimuli/WF11_HO.jpg","stimuli/AF11_AO.jpg","stimuli/AM09_DO.jpg","pos1","stimuli/WM09_SC.jpg","SC","WM09","0","5","10","8","stimuli/stars_10.png","273","[""SC"",""HO"",""AO"",""DO""]","[""WM09"",""WF11"",""AF11"",""AM09""]","[10,0,5,8]","[8,2,4,6]","","",""
"show-reward","150","426122","0.0-150.0","p957511","APGX2WZ59OWDN","3OWZNK3RYMVDNXPNEIRWZ8JM6MU2UY","3DYGAII7PNEKAVH6P9N4A4PFXM8PQK","emotion","match","uniform","","","","","","","","425542","427549.39999961853","","","","","","","","","","","","10","","stimuli/stars_10.png","273","","","","","stimuli/WM09_SC.jpg","",""
"explore-choice","151","427436","0.0-151.0","p957511","APGX2WZ59OWDN","3OWZNK3RYMVDNXPNEIRWZ8JM6MU2UY","3DYGAII7PNEKAVH6P9N4A4PFXM8PQK","emotion","match","uniform","","","","","","","811.7999992370605","427550","428361.79999923706","[""stimuli/AF11_HO.jpg"",""stimuli/WF11_SC.jpg"",""stimuli/AM09_DO.jpg"",""stimuli/WM09_AO.jpg""]","stimuli/AF11_HO.jpg","stimuli/WF11_SC.jpg","stimuli/AM09_DO.jpg","stimuli/WM09_AO.jpg","pos2","stimuli/WF11_SC.jpg","SC","WF11","1","5","10","8","stimuli/stars_10.png","278","[""HO"",""SC"",""DO"",""AO""]","[""AF11"",""WF11"",""AM09"",""WM09""]","[1,10,7,2]","[2,8,6,4]","","",""
"show-reward","152","429450","0.0-152.0","p957511","APGX2WZ59OWDN","3OWZNK3RYMVDNXPNEIRWZ8JM6MU2UY","3DYGAII7PNEKAVH6P9N4A4PFXM8PQK","emotion","match","uniform","","","","","","","","428863","430876.29999923706","","","","","","","","","","","","10","","stimuli/stars_10.png","278","","","","","stimuli/WF11_SC.jpg","",""
"explore-choice","153","431692","0.0-153.0","p957511","APGX2WZ59OWDN","3OWZNK3RYMVDNXPNEIRWZ8JM6MU2UY","3DYGAII7PNEKAVH6P9N4A4PFXM8PQK","emotion","match","uniform","","","","","","","1741.1000003814697","430877.0999994278","432618.19999980927","[""stimuli/AM09_SC.jpg"",""stimuli/WM09_AO.jpg"",""stimuli/WF11_HO.jpg"",""stimuli/AF11_DO.jpg""]","stimuli/AM09_SC.jpg","stimuli/WM09_AO.jpg","stimuli/WF11_HO.jpg","stimuli/AF11_DO.jpg","pos1","stimuli/AM09_SC.jpg","SC","AM09","0","3","6","8","stimuli/stars_6.png","281","[""SC"",""AO"",""HO"",""DO""]","[""AM09"",""WM09"",""WF11"",""AF11""]","[6,3,1,7]","[8,4,2,6]","","",""
"show-reward","154","433705","0.0-154.0","p957511","APGX2WZ59OWDN","3OWZNK3RYMVDNXPNEIRWZ8JM6MU2UY","3DYGAII7PNEKAVH6P9N4A4PFXM8PQK","emotion","match","uniform","","","","","","","","433119.29999923706","435131.29999923706","","","","","","","","","","","","6","","stimuli/stars_6.png","281","","","","","stimuli/AM09_SC.jpg","",""
"explore-choice","155","435644","0.0-155.0","p957511","APGX2WZ59OWDN","3OWZNK3RYMVDNXPNEIRWZ8JM6MU2UY","3DYGAII7PNEKAVH6P9N4A4PFXM8PQK","emotion","match","uniform","","","","","","","1438.3000001907349","435132.29999923706","436570.5999994278","[""stimuli/WM09_DO.jpg"",""stimuli/AF11_SC.jpg"",""stimuli/AM09_HO.jpg"",""stimuli/WF11_AO.jpg""]","stimuli/WM09_DO.jpg","stimuli/AF11_SC.jpg","stimuli/AM09_HO.jpg","stimuli/WF11_AO.jpg","pos2","stimuli/AF11_SC.jpg","SC","AF11","1","5","10","8","stimuli/stars_10.png","286","[""DO"",""SC"",""HO"",""AO""]","[""WM09"",""AF11"",""AM09"",""WF11""]","[4,10,3,2]","[6,8,2,4]","","",""
"show-reward","156","437657","0.0-156.0","p957511","APGX2WZ59OWDN","3OWZNK3RYMVDNXPNEIRWZ8JM6MU2UY","3DYGAII7PNEKAVH6P9N4A4PFXM8PQK","emotion","match","uniform","","","","","","","","437071.5999994278","439083.39999961853","","","","","","","","","","","","10","","stimuli/stars_10.png","286","","","","","stimuli/AF11_SC.jpg","",""
"explore-choice","157","439732","0.0-157.0","p957511","APGX2WZ59OWDN","3OWZNK3RYMVDNXPNEIRWZ8JM6MU2UY","3DYGAII7PNEKAVH6P9N4A4PFXM8PQK","emotion","match","uniform","","","","","","","1566.9000005722046","439084.29999923706","440651.19999980927","[""stimuli/AF11_HO.jpg"",""stimuli/AM09_SC.jpg"",""stimuli/WF11_AO.jpg"",""stimuli/WM09_DO.jpg""]","stimuli/AF11_HO.jpg","stimuli/AM09_SC.jpg","stimuli/WF11_AO.jpg","stimuli/WM09_DO.jpg","pos2","stimuli/AM09_SC.jpg","SC","AM09","1","3.5","7","8","stimuli/stars_7.png","289.5","[""HO"",""SC"",""AO"",""DO""]","[""AF11"",""AM09"",""WF11"",""WM09""]","[2,7,3,4]","[2,8,4,6]","","",""
"show-reward","158","441744","0.0-158.0","p957511","APGX2WZ59OWDN","3OWZNK3RYMVDNXPNEIRWZ8JM6MU2UY","3DYGAII7PNEKAVH6P9N4A4PFXM8PQK","emotion","match","uniform","","","","","","","","441159.5999994278","443171.19999980927","","","","","","","","","","","","7","","stimuli/stars_7.png","289.5","","","","","stimuli/AM09_SC.jpg","",""
"explore-choice","159","442964","0.0-159.0","p957511","APGX2WZ59OWDN","3OWZNK3RYMVDNXPNEIRWZ8JM6MU2UY","3DYGAII7PNEKAVH6P9N4A4PFXM8PQK","emotion","match","uniform","","","","","","","711.5","443172","443883.5","[""stimuli/AF11_AO.jpg"",""stimuli/AM09_DO.jpg"",""stimuli/WF11_SC.jpg"",""stimuli/WM09_HO.jpg""]","stimuli/AF11_AO.jpg","stimuli/AM09_DO.jpg","stimuli/WF11_SC.jpg","stimuli/WM09_HO.jpg","pos2","stimuli/AM09_DO.jpg","DO","AM09","1","3.5","7","6","stimuli/stars_7.png","293","[""AO"",""DO"",""SC"",""HO""]","[""AF11"",""AM09"",""WF11"",""WM09""]","[3,7,10,0]","[4,6,8,2]","","",""
"show-reward","160","444975","0.0-160.0","p957511","APGX2WZ59OWDN","3OWZNK3RYMVDNXPNEIRWZ8JM6MU2UY","3DYGAII7PNEKAVH6P9N4A4PFXM8PQK","emotion","match","uniform","","","","","","","","444391.89999961853","446402.19999980927","","","","","","","","","","","","7","","stimuli/stars_7.png","293","","","","","stimuli/AM09_DO.jpg","",""
"explore-choice","161","446622","0.0-161.0","p957511","APGX2WZ59OWDN","3OWZNK3RYMVDNXPNEIRWZ8JM6MU2UY","3DYGAII7PNEKAVH6P9N4A4PFXM8PQK","emotion","match","uniform","","","","","","","1145.1000003814697","446402.89999961853","447548","[""stimuli/AF11_HO.jpg"",""stimuli/WF11_SC.jpg"",""stimuli/WM09_DO.jpg"",""stimuli/AM09_AO.jpg""]","stimuli/AF11_HO.jpg","stimuli/WF11_SC.jpg","stimuli/WM09_DO.jpg","stimuli/AM09_AO.jpg","pos2","stimuli/WF11_SC.jpg","SC","WF11","1","4.5","9","8","stimuli/stars_9.png","297.5","[""HO"",""SC"",""DO"",""AO""]","[""AF11"",""WF11"",""WM09"",""AM09""]","[3,9,8,5]","[2,8,6,4]","","",""
"show-reward","162","448624","0.0-162.0","p957511","APGX2WZ59OWDN","3OWZNK3RYMVDNXPNEIRWZ8JM6MU2UY","3DYGAII7PNEKAVH6P9N4A4PFXM8PQK","emotion","match","uniform","","","","","","","","448049.0999994278","450051","","","","","","","","","","","","9","","stimuli/stars_9.png","297.5","","","","","stimuli/WF11_SC.jpg","",""
"explore-choice","163","450873","0.0-163.0","p957511","APGX2WZ59OWDN","3OWZNK3RYMVDNXPNEIRWZ8JM6MU2UY","3DYGAII7PNEKAVH6P9N4A4PFXM8PQK","emotion","match","uniform","","","","","","","1737","450051.5","451788.5","[""stimuli/WM09_HO.jpg"",""stimuli/WF11_DO.jpg"",""stimuli/AM09_SC.jpg"",""stimuli/AF11_AO.jpg""]","stimuli/WM09_HO.jpg","stimuli/WF11_DO.jpg","stimuli/AM09_SC.jpg","stimuli/AF11_AO.jpg","pos3","stimuli/AM09_SC.jpg","SC","AM09","2","5","10","8","stimuli/stars_10.png","302.5","[""HO"",""DO"",""SC"",""AO""]","[""WM09"",""WF11"",""AM09"",""AF11""]","[1,4,10,2]","[2,6,8,4]","","",""
"show-reward","164","452876","0.0-164.0","p957511","APGX2WZ59OWDN","3OWZNK3RYMVDNXPNEIRWZ8JM6MU2UY","3DYGAII7PNEKAVH6P9N4A4PFXM8PQK","emotion","match","uniform","","","","","","","","452300.89999961853","454302.79999923706","","","","","","","","","","","","10","","stimuli/stars_10.png","302.5","","","","","stimuli/AM09_SC.jpg","",""
"explore-choice","165","454959","0.0-165.0","p957511","APGX2WZ59OWDN","3OWZNK3RYMVDNXPNEIRWZ8JM6MU2UY","3DYGAII7PNEKAVH6P9N4A4PFXM8PQK","emotion","match","uniform","","","","","","","1581.4000005722046","454303.29999923706","455884.69999980927","[""stimuli/WF11_HO.jpg"",""stimuli/AF11_DO.jpg"",""stimuli/WM09_SC.jpg"",""stimuli/AM09_AO.jpg""]","stimuli/WF11_HO.jpg","stimuli/AF11_DO.jpg","stimuli/WM09_SC.jpg","stimuli/AM09_AO.jpg","pos3","stimuli/WM09_SC.jpg","SC","WM09","2","4.5","9","8","stimuli/stars_9.png","307","[""HO"",""DO"",""SC"",""AO""]","[""WF11"",""AF11"",""WM09"",""AM09""]","[2,6,9,2]","[2,6,8,4]","","",""
"show-reward","166","456965","0.0-166.0","p957511","APGX2WZ59OWDN","3OWZNK3RYMVDNXPNEIRWZ8JM6MU2UY","3DYGAII7PNEKAVH6P9N4A4PFXM8PQK","emotion","match","uniform","","","","","","","","456386.0999994278","458391.5","","","","","","","","","","","","9","","stimuli/stars_9.png","307","","","","","stimuli/WM09_SC.jpg","",""
"explore-choice","167","458867","0.0-167.0","p957511","APGX2WZ59OWDN","3OWZNK3RYMVDNXPNEIRWZ8JM6MU2UY","3DYGAII7PNEKAVH6P9N4A4PFXM8PQK","emotion","match","uniform","","","","","","","1388.7000007629395","458392.29999923706","459781","[""stimuli/WM09_HO.jpg"",""stimuli/WF11_AO.jpg"",""stimuli/AM09_SC.jpg"",""stimuli/AF11_DO.jpg""]","stimuli/WM09_HO.jpg","stimuli/WF11_AO.jpg","stimuli/AM09_SC.jpg","stimuli/AF11_DO.jpg","pos3","stimuli/AM09_SC.jpg","SC","AM09","2","3","6","8","stimuli/stars_6.png","310","[""HO"",""AO"",""SC"",""DO""]","[""WM09"",""WF11"",""AM09"",""AF11""]","[0,4,6,7]","[2,4,8,6]","","",""
"show-reward","168","460870","0.0-168.0","p957511","APGX2WZ59OWDN","3OWZNK3RYMVDNXPNEIRWZ8JM6MU2UY","3DYGAII7PNEKAVH6P9N4A4PFXM8PQK","emotion","match","uniform","","","","","","","","460294.89999961853","462297","","","","","","","","","","","","6","","stimuli/stars_6.png","310","","","","","stimuli/AM09_SC.jpg","",""
"explore-choice","169","462720","0.0-169.0","p957511","APGX2WZ59OWDN","3OWZNK3RYMVDNXPNEIRWZ8JM6MU2UY","3DYGAII7PNEKAVH6P9N4A4PFXM8PQK","emotion","match","uniform","","","","","","","1348.1999998092651","462297.5","463645.69999980927","[""stimuli/AM09_HO.jpg"",""stimuli/WF11_DO.jpg"",""stimuli/AF11_AO.jpg"",""stimuli/WM09_SC.jpg""]","stimuli/AM09_HO.jpg","stimuli/WF11_DO.jpg","stimuli/AF11_AO.jpg","stimuli/WM09_SC.jpg","pos4","stimuli/WM09_SC.jpg","SC","WM09","3","5","10","8","stimuli/stars_10.png","315","[""HO"",""DO"",""AO"",""SC""]","[""AM09"",""WF11"",""AF11"",""WM09""]","[1,8,4,10]","[2,6,4,8]","","",""
"show-reward","170","464722","0.0-170.0","p957511","APGX2WZ59OWDN","3OWZNK3RYMVDNXPNEIRWZ8JM6MU2UY","3DYGAII7PNEKAVH6P9N4A4PFXM8PQK","emotion","match","uniform","","","","","","","","464147.19999980927","466149","","","","","","","","","","","","10","","stimuli/stars_10.png","315","","","","","stimuli/WM09_SC.jpg","",""
"explore-choice","171","466392","0.0-171.0","p957511","APGX2WZ59OWDN","3OWZNK3RYMVDNXPNEIRWZ8JM6MU2UY","3DYGAII7PNEKAVH6P9N4A4PFXM8PQK","emotion","match","uniform","","","","","","","1168.6000003814697","466149.5999994278","467318.19999980927","[""stimuli/AF11_AO.jpg"",""stimuli/WM09_DO.jpg"",""stimuli/AM09_SC.jpg"",""stimuli/WF11_HO.jpg""]","stimuli/AF11_AO.jpg","stimuli/WM09_DO.jpg","stimuli/AM09_SC.jpg","stimuli/WF11_HO.jpg","pos3","stimuli/AM09_SC.jpg","SC","AM09","2","5","10","8","stimuli/stars_10.png","320","[""AO"",""DO"",""SC"",""HO""]","[""AF11"",""WM09"",""AM09"",""WF11""]","[6,4,10,1]","[4,6,8,2]","","",""
"show-reward","172","468394","0.0-172.0","p957511","APGX2WZ59OWDN","3OWZNK3RYMVDNXPNEIRWZ8JM6MU2UY","3DYGAII7PNEKAVH6P9N4A4PFXM8PQK","emotion","match","uniform","","","","","","","","467819.0999994278","469820.79999923706","","","","","","","","","","","","10","","stimuli/stars_10.png","320","","","","","stimuli/AM09_SC.jpg","",""
"explore-choice","173","469885","0.0-173.0","p957511","APGX2WZ59OWDN","3OWZNK3RYMVDNXPNEIRWZ8JM6MU2UY","3DYGAII7PNEKAVH6P9N4A4PFXM8PQK","emotion","match","uniform","","","","","","","977.1000003814697","469821.39999961853","470798.5","[""stimuli/WM09_DO.jpg"",""stimuli/AF11_SC.jpg"",""stimuli/AM09_AO.jpg"",""stimuli/WF11_HO.jpg""]","stimuli/WM09_DO.jpg","stimuli/AF11_SC.jpg","stimuli/AM09_AO.jpg","stimuli/WF11_HO.jpg","pos2","stimuli/AF11_SC.jpg","SC","AF11","1","5","10","8","stimuli/stars_10.png","325","[""DO"",""SC"",""AO"",""HO""]","[""WM09"",""AF11"",""AM09"",""WF11""]","[5,10,4,2]","[6,8,4,2]","","",""
"show-reward","174","471887","0.0-174.0","p957511","APGX2WZ59OWDN","3OWZNK3RYMVDNXPNEIRWZ8JM6MU2UY","3DYGAII7PNEKAVH6P9N4A4PFXM8PQK","emotion","match","uniform","","","","","","","","471312.0999994278","473314.0999994278","","","","","","","","","","","","10","","stimuli/stars_10.png","325","","","","","stimuli/AF11_SC.jpg","",""
"explore-choice","175","473049","0.0-175.0","p957511","APGX2WZ59OWDN","3OWZNK3RYMVDNXPNEIRWZ8JM6MU2UY","3DYGAII7PNEKAVH6P9N4A4PFXM8PQK","emotion","match","uniform","","","","","","","660.3999996185303","473314.69999980927","473975.0999994278","[""stimuli/AF11_SC.jpg"",""stimuli/WM09_AO.jpg"",""stimuli/AM09_DO.jpg"",""stimuli/WF11_HO.jpg""]","stimuli/AF11_SC.jpg","stimuli/WM09_AO.jpg","stimuli/AM09_DO.jpg","stimuli/WF11_HO.jpg","pos1","stimuli/AF11_SC.jpg","SC","AF11","0","4","8","8","stimuli/stars_8.png","329","[""SC"",""AO"",""DO"",""HO""]","[""AF11"",""WM09"",""AM09"",""WF11""]","[8,5,4,2]","[8,4,6,2]","","",""
"show-reward","176","475051","0.0-176.0","p957511","APGX2WZ59OWDN","3OWZNK3RYMVDNXPNEIRWZ8JM6MU2UY","3DYGAII7PNEKAVH6P9N4A4PFXM8PQK","emotion","match","uniform","","","","","","","","474476.5999994278","476478.69999980927","","","","","","","","","","","","8","","stimuli/stars_8.png","329","","","","","stimuli/AF11_SC.jpg","",""
"explore-choice","177","476833","0.0-177.0","p957511","APGX2WZ59OWDN","3OWZNK3RYMVDNXPNEIRWZ8JM6MU2UY","3DYGAII7PNEKAVH6P9N4A4PFXM8PQK","emotion","match","uniform","","","","","","","1280","476479.29999923706","477759.29999923706","[""stimuli/WF11_SC.jpg"",""stimuli/AM09_HO.jpg"",""stimuli/AF11_DO.jpg"",""stimuli/WM09_AO.jpg""]","stimuli/WF11_SC.jpg","stimuli/AM09_HO.jpg","stimuli/AF11_DO.jpg","stimuli/WM09_AO.jpg","pos1","stimuli/WF11_SC.jpg","SC","WF11","0","4.5","9","8","stimuli/stars_9.png","333.5","[""SC"",""HO"",""DO"",""AO""]","[""WF11"",""AM09"",""AF11"",""WM09""]","[9,4,7,2]","[8,2,6,4]","","",""
"show-reward","178","478835","0.0-178.0","p957511","APGX2WZ59OWDN","3OWZNK3RYMVDNXPNEIRWZ8JM6MU2UY","3DYGAII7PNEKAVH6P9N4A4PFXM8PQK","emotion","match","uniform","","","","","","","","478260.5","480262.5","","","","","","","","","","","","9","","stimuli/stars_9.png","333.5","","","","","stimuli/WF11_SC.jpg","",""
"explore-choice","179","481186","0.0-179.0","p957511","APGX2WZ59OWDN","3OWZNK3RYMVDNXPNEIRWZ8JM6MU2UY","3DYGAII7PNEKAVH6P9N4A4PFXM8PQK","emotion","match","uniform","","","","","","","1848.5","480263.5999994278","482112.0999994278","[""stimuli/WM09_AO.jpg"",""stimuli/AM09_HO.jpg"",""stimuli/AF11_SC.jpg"",""stimuli/WF11_DO.jpg""]","stimuli/WM09_AO.jpg","stimuli/AM09_HO.jpg","stimuli/AF11_SC.jpg","stimuli/WF11_DO.jpg","pos3","stimuli/AF11_SC.jpg","SC","AF11","2","5","10","8","stimuli/stars_10.png","338.5","[""AO"",""HO"",""SC"",""DO""]","[""WM09"",""AM09"",""AF11"",""WF11""]","[4,1,10,4]","[4,2,8,6]","","",""
"show-reward","180","483203","0.0-180.0","p957511","APGX2WZ59OWDN","3OWZNK3RYMVDNXPNEIRWZ8JM6MU2UY","3DYGAII7PNEKAVH6P9N4A4PFXM8PQK","emotion","match","uniform","","","","","","","","482613.89999961853","484630.0999994278","","","","","","","","","","","","10","","stimuli/stars_10.png","338.5","","","","","stimuli/AF11_SC.jpg","",""
"explore-choice","181","485402","0.0-181.0","p957511","APGX2WZ59OWDN","3OWZNK3RYMVDNXPNEIRWZ8JM6MU2UY","3DYGAII7PNEKAVH6P9N4A4PFXM8PQK","emotion","match","uniform","","","","","","","1697.5999994277954","484631","486328.5999994278","[""stimuli/AM09_DO.jpg"",""stimuli/WF11_AO.jpg"",""stimuli/AF11_SC.jpg"",""stimuli/WM09_HO.jpg""]","stimuli/AM09_DO.jpg","stimuli/WF11_AO.jpg","stimuli/AF11_SC.jpg","stimuli/WM09_HO.jpg","pos3","stimuli/AF11_SC.jpg","SC","AF11","2","5","10","8","stimuli/stars_10.png","343.5","[""DO"",""AO"",""SC"",""HO""]","[""AM09"",""WF11"",""AF11"",""WM09""]","[4,3,10,2]","[6,4,8,2]","","",""
"show-reward","182","487405","0.0-182.0","p957511","APGX2WZ59OWDN","3OWZNK3RYMVDNXPNEIRWZ8JM6MU2UY","3DYGAII7PNEKAVH6P9N4A4PFXM8PQK","emotion","match","uniform","","","","","","","","486829.5999994278","488832","","","","","","","","","","","","10","","stimuli/stars_10.png","343.5","","","","","stimuli/AF11_SC.jpg","",""
"explore-choice","183","489080","0.0-183.0","p957511","APGX2WZ59OWDN","3OWZNK3RYMVDNXPNEIRWZ8JM6MU2UY","3DYGAII7PNEKAVH6P9N4A4PFXM8PQK","emotion","match","uniform","","","","","","","1168.1999998092651","488832.69999980927","490000.89999961853","[""stimuli/WM09_AO.jpg"",""stimuli/AM09_SC.jpg"",""stimuli/AF11_HO.jpg"",""stimuli/WF11_DO.jpg""]","stimuli/WM09_AO.jpg","stimuli/AM09_SC.jpg","stimuli/AF11_HO.jpg","stimuli/WF11_DO.jpg","pos2","stimuli/AM09_SC.jpg","SC","AM09","1","4.5","9","8","stimuli/stars_9.png","348","[""AO"",""SC"",""HO"",""DO""]","[""WM09"",""AM09"",""AF11"",""WF11""]","[4,9,3,8]","[4,8,2,6]","","",""
"show-reward","184","491083","0.0-184.0","p957511","APGX2WZ59OWDN","3OWZNK3RYMVDNXPNEIRWZ8JM6MU2UY","3DYGAII7PNEKAVH6P9N4A4PFXM8PQK","emotion","match","uniform","","","","","","","","490507.5999994278","492510.19999980927","","","","","","","","","","","","9","","stimuli/stars_9.png","348","","","","","stimuli/AM09_SC.jpg","",""
"explore-choice","185","493226","0.0-185.0","p957511","APGX2WZ59OWDN","3OWZNK3RYMVDNXPNEIRWZ8JM6MU2UY","3DYGAII7PNEKAVH6P9N4A4PFXM8PQK","emotion","match","uniform","","","","","","","1626.5999994277954","492510.69999980927","494137.29999923706","[""stimuli/WM09_SC.jpg"",""stimuli/AF11_AO.jpg"",""stimuli/WF11_HO.jpg"",""stimuli/AM09_DO.jpg""]","stimuli/WM09_SC.jpg","stimuli/AF11_AO.jpg","stimuli/WF11_HO.jpg","stimuli/AM09_DO.jpg","pos1","stimuli/WM09_SC.jpg","SC","WM09","0","5","10","8","stimuli/stars_10.png","353","[""SC"",""AO"",""HO"",""DO""]","[""WM09"",""AF11"",""WF11"",""AM09""]","[10,5,0,8]","[8,4,2,6]","","",""
"show-reward","186","495228","0.0-186.0","p957511","APGX2WZ59OWDN","3OWZNK3RYMVDNXPNEIRWZ8JM6MU2UY","3DYGAII7PNEKAVH6P9N4A4PFXM8PQK","emotion","match","uniform","","","","","","","","494653.89999961853","496655.89999961853","","","","","","","","","","","","10","","stimuli/stars_10.png","353","","","","","stimuli/WM09_SC.jpg","",""
"explore-choice","187","496883","0.0-187.0","p957511","APGX2WZ59OWDN","3OWZNK3RYMVDNXPNEIRWZ8JM6MU2UY","3DYGAII7PNEKAVH6P9N4A4PFXM8PQK","emotion","match","uniform","","","","","","","1153.5","496656.39999961853","497809.89999961853","[""stimuli/WF11_DO.jpg"",""stimuli/AM09_AO.jpg"",""stimuli/AF11_SC.jpg"",""stimuli/WM09_HO.jpg""]","stimuli/WF11_DO.jpg","stimuli/AM09_AO.jpg","stimuli/AF11_SC.jpg","stimuli/WM09_HO.jpg","pos3","stimuli/AF11_SC.jpg","SC","AF11","2","5","10","8","stimuli/stars_10.png","358","[""DO"",""AO"",""SC"",""HO""]","[""WF11"",""AM09"",""AF11"",""WM09""]","[7,5,10,2]","[6,4,8,2]","","",""
"show-reward","188","498886","0.0-188.0","p957511","APGX2WZ59OWDN","3OWZNK3RYMVDNXPNEIRWZ8JM6MU2UY","3DYGAII7PNEKAVH6P9N4A4PFXM8PQK","emotion","match","uniform","","","","","","","","498311","500313.29999923706","","","","","","","","","","","","10","","stimuli/stars_10.png","358","","","","","stimuli/AF11_SC.jpg","",""
"explore-choice","189","502392","0.0-189.0","p957511","APGX2WZ59OWDN","3OWZNK3RYMVDNXPNEIRWZ8JM6MU2UY","3DYGAII7PNEKAVH6P9N4A4PFXM8PQK","emotion","match","uniform","","","","","","","3000.6000003814697","500313.79999923706","503314.39999961853","[""stimuli/AF11_HO.jpg"",""stimuli/AM09_DO.jpg"",""stimuli/WF11_AO.jpg"",""stimuli/WM09_SC.jpg""]","stimuli/AF11_HO.jpg","stimuli/AM09_DO.jpg","stimuli/WF11_AO.jpg","stimuli/WM09_SC.jpg","pos4","stimuli/WM09_SC.jpg","SC","WM09","3","3","6","8","stimuli/stars_6.png","361","[""HO"",""DO"",""AO"",""SC""]","[""AF11"",""AM09"",""WF11"",""WM09""]","[2,6,5,6]","[2,6,4,8]","","",""
"show-reward","190","504394","0.0-190.0","p957511","APGX2WZ59OWDN","3OWZNK3RYMVDNXPNEIRWZ8JM6MU2UY","3DYGAII7PNEKAVH6P9N4A4PFXM8PQK","emotion","match","uniform","","","","","","","","503819.89999961853","505821.79999923706","","","","","","","","","","","","6","","stimuli/stars_6.png","361","","","","","stimuli/WM09_SC.jpg","",""
"explore-choice","191","506764","0.0-191.0","p957511","APGX2WZ59OWDN","3OWZNK3RYMVDNXPNEIRWZ8JM6MU2UY","3DYGAII7PNEKAVH6P9N4A4PFXM8PQK","emotion","match","uniform","","","","","","","1860.6000003814697","505822.29999923706","507682.89999961853","[""stimuli/WF11_DO.jpg"",""stimuli/AF11_HO.jpg"",""stimuli/WM09_SC.jpg"",""stimuli/AM09_AO.jpg""]","stimuli/WF11_DO.jpg","stimuli/AF11_HO.jpg","stimuli/WM09_SC.jpg","stimuli/AM09_AO.jpg","pos3","stimuli/WM09_SC.jpg","SC","WM09","2","5","10","8","stimuli/stars_10.png","366","[""DO"",""HO"",""SC"",""AO""]","[""WF11"",""AF11"",""WM09"",""AM09""]","[6,2,10,2]","[6,2,8,4]","","",""
"show-reward","192","508766","0.0-192.0","p957511","APGX2WZ59OWDN","3OWZNK3RYMVDNXPNEIRWZ8JM6MU2UY","3DYGAII7PNEKAVH6P9N4A4PFXM8PQK","emotion","match","uniform","","","","","","","","508191.5999994278","510193.79999923706","","","","","","","","","","","","10","","stimuli/stars_10.png","366","","","","","stimuli/WM09_SC.jpg","",""
"explore-choice","193","510839","0.0-193.0","p957511","APGX2WZ59OWDN","3OWZNK3RYMVDNXPNEIRWZ8JM6MU2UY","3DYGAII7PNEKAVH6P9N4A4PFXM8PQK","emotion","match","uniform","","","","","","","1569.2000007629395","510194.29999923706","511763.5","[""stimuli/WF11_SC.jpg"",""stimuli/AM09_HO.jpg"",""stimuli/WM09_DO.jpg"",""stimuli/AF11_AO.jpg""]","stimuli/WF11_SC.jpg","stimuli/AM09_HO.jpg","stimuli/WM09_DO.jpg","stimuli/AF11_AO.jpg","pos1","stimuli/WF11_SC.jpg","SC","WF11","0","3.5","7","8","stimuli/stars_7.png","369.5","[""SC"",""HO"",""DO"",""AO""]","[""WF11"",""AM09"",""WM09"",""AF11""]","[7,4,5,5]","[8,2,6,4]","","",""
"show-reward","194","512841","0.0-194.0","p957511","APGX2WZ59OWDN","3OWZNK3RYMVDNXPNEIRWZ8JM6MU2UY","3DYGAII7PNEKAVH6P9N4A4PFXM8PQK","emotion","match","uniform","","","","","","","","512266.5","514268.5","","","","","","","","","","","","7","","stimuli/stars_7.png","369.5","","","","","stimuli/WF11_SC.jpg","",""
"explore-choice","195","513997","0.0-195.0","p957511","APGX2WZ59OWDN","3OWZNK3RYMVDNXPNEIRWZ8JM6MU2UY","3DYGAII7PNEKAVH6P9N4A4PFXM8PQK","emotion","match","uniform","","","","","","","654.7999992370605","514269","514923.79999923706","[""stimuli/WF11_SC.jpg"",""stimuli/AM09_AO.jpg"",""stimuli/AF11_DO.jpg"",""stimuli/WM09_HO.jpg""]","stimuli/WF11_SC.jpg","stimuli/AM09_AO.jpg","stimuli/AF11_DO.jpg","stimuli/WM09_HO.jpg","pos1","stimuli/WF11_SC.jpg","SC","WF11","0","4.5","9","8","stimuli/stars_9.png","374","[""SC"",""AO"",""DO"",""HO""]","[""WF11"",""AM09"",""AF11"",""WM09""]","[9,3,5,3]","[8,4,6,2]","","",""
"show-reward","196","516000","0.0-196.0","p957511","APGX2WZ59OWDN","3OWZNK3RYMVDNXPNEIRWZ8JM6MU2UY","3DYGAII7PNEKAVH6P9N4A4PFXM8PQK","emotion","match","uniform","","","","","","","","515425.0999994278","517427.39999961853","","","","","","","","","","","","9","","stimuli/stars_9.png","374","","","","","stimuli/WF11_SC.jpg","",""
"explore-choice","197","518325","0.0-197.0","p957511","APGX2WZ59OWDN","3OWZNK3RYMVDNXPNEIRWZ8JM6MU2UY","3DYGAII7PNEKAVH6P9N4A4PFXM8PQK","emotion","match","uniform","","","","","","","1824.3000001907349","517427.89999961853","519252.19999980927","[""stimuli/AM09_HO.jpg"",""stimuli/AF11_DO.jpg"",""stimuli/WF11_AO.jpg"",""stimuli/WM09_SC.jpg""]","stimuli/AM09_HO.jpg","stimuli/AF11_DO.jpg","stimuli/WF11_AO.jpg","stimuli/WM09_SC.jpg","pos4","stimuli/WM09_SC.jpg","SC","WM09","3","3","6","8","stimuli/stars_6.png","377","[""HO"",""DO"",""AO"",""SC""]","[""AM09"",""AF11"",""WF11"",""WM09""]","[3,7,6,6]","[2,6,4,8]","","",""
"show-reward","198","520328","0.0-198.0","p957511","APGX2WZ59OWDN","3OWZNK3RYMVDNXPNEIRWZ8JM6MU2UY","3DYGAII7PNEKAVH6P9N4A4PFXM8PQK","emotion","match","uniform","","","","","","","","519753","521755.0999994278","","","","","","","","","","","","6","","stimuli/stars_6.png","377","","","","","stimuli/WM09_SC.jpg","",""
"instructions","199","522458","0.0-199.0","p957511","APGX2WZ59OWDN","3OWZNK3RYMVDNXPNEIRWZ8JM6MU2UY","3DYGAII7PNEKAVH6P9N4A4PFXM8PQK","emotion","match","uniform","","","","","","[{""page_index"":0,""viewing_time"":2129.4000005722046}]","2129.800000190735","","","","","","","","","","","","","","","","","","","","","","","",""
"survey-text","200","524386","0.0-200.0-0.0","p957511","APGX2WZ59OWDN","3OWZNK3RYMVDNXPNEIRWZ8JM6MU2UY","3DYGAII7PNEKAVH6P9N4A4PFXM8PQK","emotion","match","uniform","","","","","","","1925.7999992370605","","","","","","","","","","","","","","","","","","","","","","","{""age"":""28""}",""
"survey-text","201","527570","0.0-200.0-1.0","p957511","APGX2WZ59OWDN","3OWZNK3RYMVDNXPNEIRWZ8JM6MU2UY","3DYGAII7PNEKAVH6P9N4A4PFXM8PQK","emotion","match","uniform","","","","","","","3182.300000190735","","","","","","","","","","","","","","","","","","","","","","","{""gender"":""female""}",""
"survey-text","202","530659","0.0-200.0-2.0","p957511","APGX2WZ59OWDN","3OWZNK3RYMVDNXPNEIRWZ8JM6MU2UY","3DYGAII7PNEKAVH6P9N4A4PFXM8PQK","emotion","match","uniform","","","","","","","3086.6000003814697","","","","","","","","","","","","","","","","","","","","","","","{""country"":""United States""}",""
"survey-text","203","533259","0.0-200.0-3.0","p957511","APGX2WZ59OWDN","3OWZNK3RYMVDNXPNEIRWZ8JM6MU2UY","3DYGAII7PNEKAVH6P9N4A4PFXM8PQK","emotion","match","uniform","","","","","","","2598.300000190735","","","","","","","","","","","","","","","","","","","","","","","{""language"":""English"",""other_languages"":""""}",""
"survey-multi-select","204","534740","0.0-201.0","p957511","APGX2WZ59OWDN","3OWZNK3RYMVDNXPNEIRWZ8JM6MU2UY","3DYGAII7PNEKAVH6P9N4A4PFXM8PQK","emotion","match","uniform","","","","","","","1478.5","","","","","","","","","","","","","","","","","","","","","","","{""race"":[""White""]}","[0]"
"survey-multi-choice","205","536772","0.0-202.0","p957511","APGX2WZ59OWDN","3OWZNK3RYMVDNXPNEIRWZ8JM6MU2UY","3DYGAII7PNEKAVH6P9N4A4PFXM8PQK","emotion","match","uniform","","","","","","","2030.1000003814697","","","","","","","","","","","","","","","","","","","","","","","{""education"":""Bachelor's degree""}","[0]"
"survey-text","206","563127","0.0-203.0","p957511","APGX2WZ59OWDN","3OWZNK3RYMVDNXPNEIRWZ8JM6MU2UY","3DYGAII7PNEKAVH6P9N4A4PFXM8PQK","emotion","match","uniform","","","","","","","26352.400000572205","","","","","","","","","","","","","","","","","","","","","","","{""patterns"":""Some emotions gave more stars"",""strategy"":""I picked the emotion that gave the highest number of stars"",""comments"":""""}",""
