"trial_type","trial_index","time_elapsed","internal_node_id","subject","workerId","hitId","assignmentId","structure_condition","match_condition","noise_type","success","timeout","failed_images","failed_audio","failed_video","view_history","rt","start_time","end_time","stimuli","image1","image2","image3","image4","choiceLocation","choiceImage","choiceEmotion","choiceModel","choice_index","reward_score","reward","reward_score_unadjusted","reward_image","score_after_trial","emotions","models","rewards","rewards_unadjusted","stimulus","response","question_order"
"pavlovia","0","37","0.0-0.0","p39056","A2CF2BD4Q0ZDJN","3RDTX9JRTZ7MP6YQMJD0Z3DG4HK978","3L0KT67Y8GMQWPOK808SIVXSJHNSY1","emotion","mismatch","uniform","","","","","","","","","","","","","","","","","","","","","","","","","","","","","","",""
"preload","1","5742","0.0-1.0","p39056","A2CF2BD4Q0ZDJN","3RDTX9JRTZ7MP6YQMJD0Z3DG4HK978","3L0KT67Y8GMQWPOK808SIVXSJHNSY1","emotion","mismatch","uniform","true","false","[]","[]","[]","","","","","","","","","","","","","","","","","","","","","","","","","",""
"fullscreen","2","14545","0.0-2.0","p39056","A2CF2BD4Q0ZDJN","3RDTX9JRTZ7MP6YQMJD0Z3DG4HK978","3L0KT67Y8GMQWPOK808SIVXSJHNSY1","emotion","mismatch","uniform","true","","","","","","","","","","","","","","","","","","","","","","","","","","","","","",""
"instructions","3","21984","0.0-3.0","p39056","A2CF2BD4Q0ZDJN","3RDTX9JRTZ7MP6YQMJD0Z3DG4HK978","3L0KT67Y8GMQWPOK808SIVXSJHNSY1","emotion","mismatch","uniform","","","","","","[{""page_index"":0,""viewing_time"":7434.9000000059605}]","7436.600000023842","","","","","","","","","","","","","","","","","","","","","","","",""
"explore-choice","4","25208","0.0-4.0","p39056","A2CF2BD4Q0ZDJN","3RDTX9JRTZ7MP6YQMJD0Z3DG4HK978","3L0KT67Y8GMQWPOK808SIVXSJHNSY1","emotion","mismatch","uniform","","","","","","","2720.9000000059605","23901.90000000596","26622.80000001192","[""stimuli/sheep.jpg"",""stimuli/hammer.jpg"",""stimuli/basketball.jpg"",""stimuli/horse.jpg""]","stimuli/sheep.jpg","stimuli/hammer.jpg","stimuli/basketball.jpg","stimuli/horse.jpg","pos4","stimuli/horse.jpg","","","3","64","64","64","stimuli/stars_8.png","65","","","","","","",""
"explore-choice","5","27298","0.0-5.0","p39056","A2CF2BD4Q0ZDJN","3RDTX9JRTZ7MP6YQMJD0Z3DG4HK978","3L0KT67Y8GMQWPOK808SIVXSJHNSY1","emotion","mismatch","uniform","","","","","","","1587.199999988079","27126.5","28713.69999998808","[""stimuli/hammer.jpg"",""stimuli/basketball.jpg"",""stimuli/horse.jpg"",""stimuli/sheep.jpg""]","stimuli/hammer.jpg","stimuli/basketball.jpg","stimuli/horse.jpg","stimuli/sheep.jpg","pos1","stimuli/hammer.jpg","","","0","8","8","8","stimuli/stars_2.png","9","","","","","","",""
"instructions","6","45494","0.0-6.0","p39056","A2CF2BD4Q0ZDJN","3RDTX9JRTZ7MP6YQMJD0Z3DG4HK978","3L0KT67Y8GMQWPOK808SIVXSJHNSY1","emotion","mismatch","uniform","","","","","","[{""page_index"":0,""viewing_time"":18193.79999998212}]","18194.29999998212","","","","","","","","","","","","","","","","","","","","","","","",""
"explore-choice","7","50738","0.0-7.0","p39056","A2CF2BD4Q0ZDJN","3RDTX9JRTZ7MP6YQMJD0Z3DG4HK978","3L0KT67Y8GMQWPOK808SIVXSJHNSY1","emotion","mismatch","uniform","","","","","","","4739","47414.5","52153.5","[""stimuli/WM07_AO.jpg"",""stimuli/WM09_CC.jpg"",""stimuli/AM06_HO.jpg"",""stimuli/AF10_FO.jpg""]","stimuli/WM07_AO.jpg","stimuli/WM09_CC.jpg","stimuli/AM06_HO.jpg","stimuli/AF10_FO.jpg","pos2","stimuli/WM09_CC.jpg","CC","WM09","1","2.5","5","6","stimuli/stars_5.png","3.5","[""AO"",""CC"",""HO"",""FO""]","[""WM07"",""WM09"",""AM06"",""AF10""]","[3,5,7,6]","[2,6,8,4]","","",""
"show-reward","8","52746","0.0-8.0","p39056","A2CF2BD4Q0ZDJN","3RDTX9JRTZ7MP6YQMJD0Z3DG4HK978","3L0KT67Y8GMQWPOK808SIVXSJHNSY1","emotion","mismatch","uniform","","","","","","","","52658.19999998808","54662","","","","","","","","","","","","5","","stimuli/stars_5.png","3.5","","","","","stimuli/WM09_CC.jpg","",""
"explore-choice","9","54699","0.0-9.0","p39056","A2CF2BD4Q0ZDJN","3RDTX9JRTZ7MP6YQMJD0Z3DG4HK978","3L0KT67Y8GMQWPOK808SIVXSJHNSY1","emotion","mismatch","uniform","","","","","","","1450","54664.30000001192","56114.30000001192","[""stimuli/AF10_FO.jpg"",""stimuli/WM07_CC.jpg"",""stimuli/WM09_AO.jpg"",""stimuli/AM06_HO.jpg""]","stimuli/AF10_FO.jpg","stimuli/WM07_CC.jpg","stimuli/WM09_AO.jpg","stimuli/AM06_HO.jpg","pos2","stimuli/WM07_CC.jpg","CC","WM07","1","4","8","6","stimuli/stars_8.png","7.5","[""FO"",""CC"",""AO"",""HO""]","[""AF10"",""WM07"",""WM09"",""AM06""]","[3,8,3,6]","[4,6,2,8]","","",""
"show-reward","10","56705","0.0-10.0","p39056","A2CF2BD4Q0ZDJN","3RDTX9JRTZ7MP6YQMJD0Z3DG4HK978","3L0KT67Y8GMQWPOK808SIVXSJHNSY1","emotion","mismatch","uniform","","","","","","","","56617.19999998808","58621.30000001192","","","","","","","","","","","","8","","stimuli/stars_8.png","7.5","","","","","stimuli/WM07_CC.jpg","",""
"explore-choice","11","58900","0.0-11.0","p39056","A2CF2BD4Q0ZDJN","3RDTX9JRTZ7MP6YQMJD0Z3DG4HK978","3L0KT67Y8GMQWPOK808SIVXSJHNSY1","emotion","mismatch","uniform","","","","","","","1691.800000011921","58622.69999998808","60314.5","[""stimuli/WM07_CC.jpg"",""stimuli/WM09_AO.jpg"",""stimuli/AM06_FO.jpg"",""stimuli/AF10_HO.jpg""]","stimuli/WM07_CC.jpg","stimuli/WM09_AO.jpg","stimuli/AM06_FO.jpg","stimuli/AF10_HO.jpg","pos4","stimuli/AF10_HO.jpg","HO","AF10","3","5","10","8","stimuli/stars_10.png","12.5","[""CC"",""AO"",""FO"",""HO""]","[""WM07"",""WM09"",""AM06"",""AF10""]","[5,1,5,10]","[6,2,4,8]","","",""
"show-reward","12","60904","0.0-12.0","p39056","A2CF2BD4Q0ZDJN","3RDTX9JRTZ7MP6YQMJD0Z3DG4HK978","3L0KT67Y8GMQWPOK808SIVXSJHNSY1","emotion","mismatch","uniform","","","","","","","","60817.30000001192","62819.80000001192","","","","","","","","","","","","10","","stimuli/stars_10.png","12.5","","","","","stimuli/AF10_HO.jpg","",""
"explore-choice","13","63827","0.0-13.0","p39056","A2CF2BD4Q0ZDJN","3RDTX9JRTZ7MP6YQMJD0Z3DG4HK978","3L0KT67Y8GMQWPOK808SIVXSJHNSY1","emotion","mismatch","uniform","","","","","","","2421.300000011921","62821.09999999404","65242.40000000596","[""stimuli/WM07_HO.jpg"",""stimuli/WM09_CC.jpg"",""stimuli/AF10_FO.jpg"",""stimuli/AM06_AO.jpg""]","stimuli/WM07_HO.jpg","stimuli/WM09_CC.jpg","stimuli/AF10_FO.jpg","stimuli/AM06_AO.jpg","pos1","stimuli/WM07_HO.jpg","HO","WM07","0","3","6","8","stimuli/stars_6.png","15.5","[""HO"",""CC"",""FO"",""AO""]","[""WM07"",""WM09"",""AF10"",""AM06""]","[6,7,2,2]","[8,6,4,2]","","",""
"show-reward","14","65834","0.0-14.0","p39056","A2CF2BD4Q0ZDJN","3RDTX9JRTZ7MP6YQMJD0Z3DG4HK978","3L0KT67Y8GMQWPOK808SIVXSJHNSY1","emotion","mismatch","uniform","","","","","","","","65745.19999998808","67749.59999999404","","","","","","","","","","","","6","","stimuli/stars_6.png","15.5","","","","","stimuli/WM07_HO.jpg","",""
"explore-choice","15","68602","0.0-15.0","p39056","A2CF2BD4Q0ZDJN","3RDTX9JRTZ7MP6YQMJD0Z3DG4HK978","3L0KT67Y8GMQWPOK808SIVXSJHNSY1","emotion","mismatch","uniform","","","","","","","2265.7000000178814","67752.19999998808","70017.90000000596","[""stimuli/WM07_HO.jpg"",""stimuli/AF10_CC.jpg"",""stimuli/AM06_AO.jpg"",""stimuli/WM09_FO.jpg""]","stimuli/WM07_HO.jpg","stimuli/AF10_CC.jpg","stimuli/AM06_AO.jpg","stimuli/WM09_FO.jpg","pos2","stimuli/AF10_CC.jpg","CC","AF10","1","2","4","6","stimuli/stars_4.png","17.5","[""HO"",""CC"",""AO"",""FO""]","[""WM07"",""AF10"",""AM06"",""WM09""]","[7,4,3,3]","[8,6,2,4]","","",""
"show-reward","16","70607","0.0-16.0","p39056","A2CF2BD4Q0ZDJN","3RDTX9JRTZ7MP6YQMJD0Z3DG4HK978","3L0KT67Y8GMQWPOK808SIVXSJHNSY1","emotion","mismatch","uniform","","","","","","","","70519.59999999404","72522.30000001192","","","","","","","","","","","","4","","stimuli/stars_4.png","17.5","","","","","stimuli/AF10_CC.jpg","",""
"explore-choice","17","73195","0.0-17.0","p39056","A2CF2BD4Q0ZDJN","3RDTX9JRTZ7MP6YQMJD0Z3DG4HK978","3L0KT67Y8GMQWPOK808SIVXSJHNSY1","emotion","mismatch","uniform","","","","","","","2085.9000000059605","72524.5","74610.40000000596","[""stimuli/AF10_HO.jpg"",""stimuli/WM09_FO.jpg"",""stimuli/WM07_AO.jpg"",""stimuli/AM06_CC.jpg""]","stimuli/AF10_HO.jpg","stimuli/WM09_FO.jpg","stimuli/WM07_AO.jpg","stimuli/AM06_CC.jpg","pos3","stimuli/WM07_AO.jpg","AO","WM07","2","0","0","2","stimuli/stars_0.png","17.5","[""HO"",""FO"",""AO"",""CC""]","[""AF10"",""WM09"",""WM07"",""AM06""]","[6,6,0,4]","[8,4,2,6]","","",""
"show-reward","18","75201","0.0-18.0","p39056","A2CF2BD4Q0ZDJN","3RDTX9JRTZ7MP6YQMJD0Z3DG4HK978","3L0KT67Y8GMQWPOK808SIVXSJHNSY1","emotion","mismatch","uniform","","","","","","","","75113.59999999404","77116.90000000596","","","","","","","","","","","","0","","stimuli/stars_0.png","17.5","","","","","stimuli/WM07_AO.jpg","",""
"explore-choice","19","78852","0.0-19.0","p39056","A2CF2BD4Q0ZDJN","3RDTX9JRTZ7MP6YQMJD0Z3DG4HK978","3L0KT67Y8GMQWPOK808SIVXSJHNSY1","emotion","mismatch","uniform","","","","","","","3147","77119.80000001192","80266.80000001192","[""stimuli/AF10_AO.jpg"",""stimuli/AM06_FO.jpg"",""stimuli/WM07_CC.jpg"",""stimuli/WM09_HO.jpg""]","stimuli/AF10_AO.jpg","stimuli/AM06_FO.jpg","stimuli/WM07_CC.jpg","stimuli/WM09_HO.jpg","pos4","stimuli/WM09_HO.jpg","HO","WM09","3","3","6","8","stimuli/stars_6.png","20.5","[""AO"",""FO"",""CC"",""HO""]","[""AF10"",""AM06"",""WM07"",""WM09""]","[2,2,8,6]","[2,4,6,8]","","",""
"show-reward","20","80858","0.0-20.0","p39056","A2CF2BD4Q0ZDJN","3RDTX9JRTZ7MP6YQMJD0Z3DG4HK978","3L0KT67Y8GMQWPOK808SIVXSJHNSY1","emotion","mismatch","uniform","","","","","","","","80770","82774.19999998808","","","","","","","","","","","","6","","stimuli/stars_6.png","20.5","","","","","stimuli/WM09_HO.jpg","",""
"explore-choice","21","85181","0.0-21.0","p39056","A2CF2BD4Q0ZDJN","3RDTX9JRTZ7MP6YQMJD0Z3DG4HK978","3L0KT67Y8GMQWPOK808SIVXSJHNSY1","emotion","mismatch","uniform","","","","","","","3820.899999976158","82776.30000001192","86597.19999998808","[""stimuli/AM06_CC.jpg"",""stimuli/WM09_AO.jpg"",""stimuli/WM07_HO.jpg"",""stimuli/AF10_FO.jpg""]","stimuli/AM06_CC.jpg","stimuli/WM09_AO.jpg","stimuli/WM07_HO.jpg","stimuli/AF10_FO.jpg","pos3","stimuli/WM07_HO.jpg","HO","WM07","2","5","10","8","stimuli/stars_10.png","25.5","[""CC"",""AO"",""HO"",""FO""]","[""AM06"",""WM09"",""WM07"",""AF10""]","[7,0,10,5]","[6,2,8,4]","","",""
"show-reward","22","87184","0.0-22.0","p39056","A2CF2BD4Q0ZDJN","3RDTX9JRTZ7MP6YQMJD0Z3DG4HK978","3L0KT67Y8GMQWPOK808SIVXSJHNSY1","emotion","mismatch","uniform","","","","","","","","87098.5","89100.30000001192","","","","","","","","","","","","10","","stimuli/stars_10.png","25.5","","","","","stimuli/WM07_HO.jpg","",""
"explore-choice","23","89963","0.0-23.0","p39056","A2CF2BD4Q0ZDJN","3RDTX9JRTZ7MP6YQMJD0Z3DG4HK978","3L0KT67Y8GMQWPOK808SIVXSJHNSY1","emotion","mismatch","uniform","","","","","","","2276","89102.40000000596","91378.40000000596","[""stimuli/AF10_AO.jpg"",""stimuli/WM09_CC.jpg"",""stimuli/AM06_FO.jpg"",""stimuli/WM07_HO.jpg""]","stimuli/AF10_AO.jpg","stimuli/WM09_CC.jpg","stimuli/AM06_FO.jpg","stimuli/WM07_HO.jpg","pos3","stimuli/AM06_FO.jpg","FO","AM06","2","2","4","4","stimuli/stars_4.png","27.5","[""AO"",""CC"",""FO"",""HO""]","[""AF10"",""WM09"",""AM06"",""WM07""]","[1,7,4,7]","[2,6,4,8]","","",""
"show-reward","24","91969","0.0-24.0","p39056","A2CF2BD4Q0ZDJN","3RDTX9JRTZ7MP6YQMJD0Z3DG4HK978","3L0KT67Y8GMQWPOK808SIVXSJHNSY1","emotion","mismatch","uniform","","","","","","","","91881","93884.80000001192","","","","","","","","","","","","4","","stimuli/stars_4.png","27.5","","","","","stimuli/AM06_FO.jpg","",""
"explore-choice","25","93834","0.0-25.0","p39056","A2CF2BD4Q0ZDJN","3RDTX9JRTZ7MP6YQMJD0Z3DG4HK978","3L0KT67Y8GMQWPOK808SIVXSJHNSY1","emotion","mismatch","uniform","","","","","","","1362.699999988079","93887.5","95250.19999998808","[""stimuli/WM09_FO.jpg"",""stimuli/AF10_AO.jpg"",""stimuli/WM07_HO.jpg"",""stimuli/AM06_CC.jpg""]","stimuli/WM09_FO.jpg","stimuli/AF10_AO.jpg","stimuli/WM07_HO.jpg","stimuli/AM06_CC.jpg","pos3","stimuli/WM07_HO.jpg","HO","WM07","2","4","8","8","stimuli/stars_8.png","31.5","[""FO"",""AO"",""HO"",""CC""]","[""WM09"",""AF10"",""WM07"",""AM06""]","[5,1,8,4]","[4,2,8,6]","","",""
"show-reward","26","95840","0.0-26.0","p39056","A2CF2BD4Q0ZDJN","3RDTX9JRTZ7MP6YQMJD0Z3DG4HK978","3L0KT67Y8GMQWPOK808SIVXSJHNSY1","emotion","mismatch","uniform","","","","","","","","95752.40000000596","97756.19999998808","","","","","","","","","","","","8","","stimuli/stars_8.png","31.5","","","","","stimuli/WM07_HO.jpg","",""
"explore-choice","27","97754","0.0-27.0","p39056","A2CF2BD4Q0ZDJN","3RDTX9JRTZ7MP6YQMJD0Z3DG4HK978","3L0KT67Y8GMQWPOK808SIVXSJHNSY1","emotion","mismatch","uniform","","","","","","","1411.7999999821186","97758.30000001192","99170.09999999404","[""stimuli/WM07_FO.jpg"",""stimuli/WM09_HO.jpg"",""stimuli/AF10_AO.jpg"",""stimuli/AM06_CC.jpg""]","stimuli/WM07_FO.jpg","stimuli/WM09_HO.jpg","stimuli/AF10_AO.jpg","stimuli/AM06_CC.jpg","pos2","stimuli/WM09_HO.jpg","HO","WM09","1","4.5","9","8","stimuli/stars_9.png","36","[""FO"",""HO"",""AO"",""CC""]","[""WM07"",""WM09"",""AF10"",""AM06""]","[3,9,1,6]","[4,8,2,6]","","",""
"show-reward","28","99760","0.0-28.0","p39056","A2CF2BD4Q0ZDJN","3RDTX9JRTZ7MP6YQMJD0Z3DG4HK978","3L0KT67Y8GMQWPOK808SIVXSJHNSY1","emotion","mismatch","uniform","","","","","","","","99672.30000001192","101675.90000000596","","","","","","","","","","","","9","","stimuli/stars_9.png","36","","","","","stimuli/WM09_HO.jpg","",""
"explore-choice","29","105419","0.0-29.0","p39056","A2CF2BD4Q0ZDJN","3RDTX9JRTZ7MP6YQMJD0Z3DG4HK978","3L0KT67Y8GMQWPOK808SIVXSJHNSY1","emotion","mismatch","uniform","","","","","","","5156.5999999940395","101677.90000000596","106834.5","[""stimuli/WM09_HO.jpg"",""stimuli/AM06_AO.jpg"",""stimuli/WM07_FO.jpg"",""stimuli/AF10_CC.jpg""]","stimuli/WM09_HO.jpg","stimuli/AM06_AO.jpg","stimuli/WM07_FO.jpg","stimuli/AF10_CC.jpg","pos1","stimuli/WM09_HO.jpg","HO","WM09","0","4","8","8","stimuli/stars_8.png","40","[""HO"",""AO"",""FO"",""CC""]","[""WM09"",""AM06"",""WM07"",""AF10""]","[8,3,4,4]","[8,2,4,6]","","",""
"show-reward","30","107422","0.0-30.0","p39056","A2CF2BD4Q0ZDJN","3RDTX9JRTZ7MP6YQMJD0Z3DG4HK978","3L0KT67Y8GMQWPOK808SIVXSJHNSY1","emotion","mismatch","uniform","","","","","","","","107336.19999998808","109338.5","","","","","","","","","","","","8","","stimuli/stars_8.png","40","","","","","stimuli/WM09_HO.jpg","",""
"explore-choice","31","109419","0.0-31.0","p39056","A2CF2BD4Q0ZDJN","3RDTX9JRTZ7MP6YQMJD0Z3DG4HK978","3L0KT67Y8GMQWPOK808SIVXSJHNSY1","emotion","mismatch","uniform","","","","","","","1494.2999999821186","109340.30000001192","110834.59999999404","[""stimuli/WM09_HO.jpg"",""stimuli/AF10_FO.jpg"",""stimuli/WM07_AO.jpg"",""stimuli/AM06_CC.jpg""]","stimuli/WM09_HO.jpg","stimuli/AF10_FO.jpg","stimuli/WM07_AO.jpg","stimuli/AM06_CC.jpg","pos2","stimuli/AF10_FO.jpg","FO","AF10","1","2.5","5","4","stimuli/stars_5.png","42.5","[""HO"",""FO"",""AO"",""CC""]","[""WM09"",""AF10"",""WM07"",""AM06""]","[10,5,4,7]","[8,4,2,6]","","",""
"show-reward","32","111425","0.0-32.0","p39056","A2CF2BD4Q0ZDJN","3RDTX9JRTZ7MP6YQMJD0Z3DG4HK978","3L0KT67Y8GMQWPOK808SIVXSJHNSY1","emotion","mismatch","uniform","","","","","","","","111337.30000001192","113341.40000000596","","","","","","","","","","","","5","","stimuli/stars_5.png","42.5","","","","","stimuli/AF10_FO.jpg","",""
"explore-choice","33","113212","0.0-33.0","p39056","A2CF2BD4Q0ZDJN","3RDTX9JRTZ7MP6YQMJD0Z3DG4HK978","3L0KT67Y8GMQWPOK808SIVXSJHNSY1","emotion","mismatch","uniform","","","","","","","1284.5","113343.19999998808","114627.69999998808","[""stimuli/AF10_CC.jpg"",""stimuli/WM09_FO.jpg"",""stimuli/AM06_HO.jpg"",""stimuli/WM07_AO.jpg""]","stimuli/AF10_CC.jpg","stimuli/WM09_FO.jpg","stimuli/AM06_HO.jpg","stimuli/WM07_AO.jpg","pos4","stimuli/WM07_AO.jpg","AO","WM07","3","0.5","1","2","stimuli/stars_1.png","43","[""CC"",""FO"",""HO"",""AO""]","[""AF10"",""WM09"",""AM06"",""WM07""]","[8,6,9,1]","[6,4,8,2]","","",""
"show-reward","34","115218","0.0-34.0","p39056","A2CF2BD4Q0ZDJN","3RDTX9JRTZ7MP6YQMJD0Z3DG4HK978","3L0KT67Y8GMQWPOK808SIVXSJHNSY1","emotion","mismatch","uniform","","","","","","","","115130.30000001192","117134.09999999404","","","","","","","","","","","","1","","stimuli/stars_1.png","43","","","","","stimuli/WM07_AO.jpg","",""
"explore-choice","35","119214","0.0-35.0","p39056","A2CF2BD4Q0ZDJN","3RDTX9JRTZ7MP6YQMJD0Z3DG4HK978","3L0KT67Y8GMQWPOK808SIVXSJHNSY1","emotion","mismatch","uniform","","","","","","","3492.699999988079","117136.5","120629.19999998808","[""stimuli/WM07_CC.jpg"",""stimuli/AF10_HO.jpg"",""stimuli/AM06_AO.jpg"",""stimuli/WM09_FO.jpg""]","stimuli/WM07_CC.jpg","stimuli/AF10_HO.jpg","stimuli/AM06_AO.jpg","stimuli/WM09_FO.jpg","pos2","stimuli/AF10_HO.jpg","HO","AF10","1","5","10","8","stimuli/stars_10.png","48","[""CC"",""HO"",""AO"",""FO""]","[""WM07"",""AF10"",""AM06"",""WM09""]","[6,10,2,6]","[6,8,2,4]","","",""
"show-reward","36","121220","0.0-36.0","p39056","A2CF2BD4Q0ZDJN","3RDTX9JRTZ7MP6YQMJD0Z3DG4HK978","3L0KT67Y8GMQWPOK808SIVXSJHNSY1","emotion","mismatch","uniform","","","","","","","","121132.5","123135.90000000596","","","","","","","","","","","","10","","stimuli/stars_10.png","48","","","","","stimuli/AF10_HO.jpg","",""
"explore-choice","37","123339","0.0-37.0","p39056","A2CF2BD4Q0ZDJN","3RDTX9JRTZ7MP6YQMJD0Z3DG4HK978","3L0KT67Y8GMQWPOK808SIVXSJHNSY1","emotion","mismatch","uniform","","","","","","","1617.8999999761581","123136.80000001192","124754.69999998808","[""stimuli/AF10_AO.jpg"",""stimuli/WM07_CC.jpg"",""stimuli/WM09_FO.jpg"",""stimuli/AM06_HO.jpg""]","stimuli/AF10_AO.jpg","stimuli/WM07_CC.jpg","stimuli/WM09_FO.jpg","stimuli/AM06_HO.jpg","pos4","stimuli/AM06_HO.jpg","HO","AM06","3","4.5","9","8","stimuli/stars_9.png","52.5","[""AO"",""CC"",""FO"",""HO""]","[""AF10"",""WM07"",""WM09"",""AM06""]","[4,4,2,9]","[2,6,4,8]","","",""
"show-reward","38","125345","0.0-38.0","p39056","A2CF2BD4Q0ZDJN","3RDTX9JRTZ7MP6YQMJD0Z3DG4HK978","3L0KT67Y8GMQWPOK808SIVXSJHNSY1","emotion","mismatch","uniform","","","","","","","","125257.5","127261","","","","","","","","","","","","9","","stimuli/stars_9.png","52.5","","","","","stimuli/AM06_HO.jpg","",""
"explore-choice","39","127283","0.0-39.0","p39056","A2CF2BD4Q0ZDJN","3RDTX9JRTZ7MP6YQMJD0Z3DG4HK978","3L0KT67Y8GMQWPOK808SIVXSJHNSY1","emotion","mismatch","uniform","","","","","","","1435","127263.19999998808","128698.19999998808","[""stimuli/AM06_CC.jpg"",""stimuli/WM07_FO.jpg"",""stimuli/AF10_HO.jpg"",""stimuli/WM09_AO.jpg""]","stimuli/AM06_CC.jpg","stimuli/WM07_FO.jpg","stimuli/AF10_HO.jpg","stimuli/WM09_AO.jpg","pos3","stimuli/AF10_HO.jpg","HO","AF10","2","4","8","8","stimuli/stars_8.png","56.5","[""CC"",""FO"",""HO"",""AO""]","[""AM06"",""WM07"",""AF10"",""WM09""]","[7,4,8,1]","[6,4,8,2]","","",""
"show-reward","40","129287","0.0-40.0","p39056","A2CF2BD4Q0ZDJN","3RDTX9JRTZ7MP6YQMJD0Z3DG4HK978","3L0KT67Y8GMQWPOK808SIVXSJHNSY1","emotion","mismatch","uniform","","","","","","","","129200.09999999404","131202.80000001192","","","","","","","","","","","","8","","stimuli/stars_8.png","56.5","","","","","stimuli/AF10_HO.jpg","",""
"explore-choice","41","132299","0.0-41.0","p39056","A2CF2BD4Q0ZDJN","3RDTX9JRTZ7MP6YQMJD0Z3DG4HK978","3L0KT67Y8GMQWPOK808SIVXSJHNSY1","emotion","mismatch","uniform","","","","","","","2509.4000000059605","131205.19999998808","133714.59999999404","[""stimuli/WM09_HO.jpg"",""stimuli/AM06_AO.jpg"",""stimuli/WM07_CC.jpg"",""stimuli/AF10_FO.jpg""]","stimuli/WM09_HO.jpg","stimuli/AM06_AO.jpg","stimuli/WM07_CC.jpg","stimuli/AF10_FO.jpg","pos1","stimuli/WM09_HO.jpg","HO","WM09","0","5","10","8","stimuli/stars_10.png","61.5","[""HO"",""AO"",""CC"",""FO""]","[""WM09"",""AM06"",""WM07"",""AF10""]","[10,1,7,5]","[8,2,6,4]","","",""
"show-reward","42","134305","0.0-42.0","p39056","A2CF2BD4Q0ZDJN","3RDTX9JRTZ7MP6YQMJD0Z3DG4HK978","3L0KT67Y8GMQWPOK808SIVXSJHNSY1","emotion","mismatch","uniform","","","","","","","","134217.40000000596","136221.19999998808","","","","","","","","","","","","10","","stimuli/stars_10.png","61.5","","","","","stimuli/WM09_HO.jpg","",""
"explore-choice","43","138443","0.0-43.0","p39056","A2CF2BD4Q0ZDJN","3RDTX9JRTZ7MP6YQMJD0Z3DG4HK978","3L0KT67Y8GMQWPOK808SIVXSJHNSY1","emotion","mismatch","uniform","","","","","","","3635","136223.30000001192","139858.30000001192","[""stimuli/AF10_CC.jpg"",""stimuli/AM06_HO.jpg"",""stimuli/WM07_FO.jpg"",""stimuli/WM09_AO.jpg""]","stimuli/AF10_CC.jpg","stimuli/AM06_HO.jpg","stimuli/WM07_FO.jpg","stimuli/WM09_AO.jpg","pos2","stimuli/AM06_HO.jpg","HO","AM06","1","3","6","8","stimuli/stars_6.png","64.5","[""CC"",""HO"",""FO"",""AO""]","[""AF10"",""AM06"",""WM07"",""WM09""]","[4,6,4,3]","[6,8,4,2]","","",""
"show-reward","44","140449","0.0-44.0","p39056","A2CF2BD4Q0ZDJN","3RDTX9JRTZ7MP6YQMJD0Z3DG4HK978","3L0KT67Y8GMQWPOK808SIVXSJHNSY1","emotion","mismatch","uniform","","","","","","","","140360.90000000596","142364.80000001192","","","","","","","","","","","","6","","stimuli/stars_6.png","64.5","","","","","stimuli/AM06_HO.jpg","",""
"explore-choice","45","144346","0.0-45.0","p39056","A2CF2BD4Q0ZDJN","3RDTX9JRTZ7MP6YQMJD0Z3DG4HK978","3L0KT67Y8GMQWPOK808SIVXSJHNSY1","emotion","mismatch","uniform","","","","","","","3396.2999999821186","142365.90000000596","145762.19999998808","[""stimuli/AF10_HO.jpg"",""stimuli/WM07_FO.jpg"",""stimuli/WM09_CC.jpg"",""stimuli/AM06_AO.jpg""]","stimuli/AF10_HO.jpg","stimuli/WM07_FO.jpg","stimuli/WM09_CC.jpg","stimuli/AM06_AO.jpg","pos1","stimuli/AF10_HO.jpg","HO","AF10","0","5","10","8","stimuli/stars_10.png","69.5","[""HO"",""FO"",""CC"",""AO""]","[""AF10"",""WM07"",""WM09"",""AM06""]","[10,4,6,1]","[8,4,6,2]","","",""
"show-reward","46","146349","0.0-46.0","p39056","A2CF2BD4Q0ZDJN","3RDTX9JRTZ7MP6YQMJD0Z3DG4HK978","3L0KT67Y8GMQWPOK808SIVXSJHNSY1","emotion","mismatch","uniform","","","","","","","","146263.5","148265.30000001192","","","","","","","","","","","","10","","stimuli/stars_10.png","69.5","","","","","stimuli/AF10_HO.jpg","",""
"explore-choice","47","147955","0.0-47.0","p39056","A2CF2BD4Q0ZDJN","3RDTX9JRTZ7MP6YQMJD0Z3DG4HK978","3L0KT67Y8GMQWPOK808SIVXSJHNSY1","emotion","mismatch","uniform","","","","","","","1103.4000000059605","148267.40000000596","149370.80000001192","[""stimuli/AM06_FO.jpg"",""stimuli/AF10_HO.jpg"",""stimuli/WM07_AO.jpg"",""stimuli/WM09_CC.jpg""]","stimuli/AM06_FO.jpg","stimuli/AF10_HO.jpg","stimuli/WM07_AO.jpg","stimuli/WM09_CC.jpg","pos2","stimuli/AF10_HO.jpg","HO","AF10","1","3","6","8","stimuli/stars_6.png","72.5","[""FO"",""HO"",""AO"",""CC""]","[""AM06"",""AF10"",""WM07"",""WM09""]","[5,6,4,6]","[4,8,2,6]","","",""
"show-reward","48","149961","0.0-48.0","p39056","A2CF2BD4Q0ZDJN","3RDTX9JRTZ7MP6YQMJD0Z3DG4HK978","3L0KT67Y8GMQWPOK808SIVXSJHNSY1","emotion","mismatch","uniform","","","","","","","","149873.30000001192","151876.90000000596","","","","","","","","","","","","6","","stimuli/stars_6.png","72.5","","","","","stimuli/AF10_HO.jpg","",""
"explore-choice","49","152467","0.0-49.0","p39056","A2CF2BD4Q0ZDJN","3RDTX9JRTZ7MP6YQMJD0Z3DG4HK978","3L0KT67Y8GMQWPOK808SIVXSJHNSY1","emotion","mismatch","uniform","","","","","","","2003.699999988079","151879","153882.69999998808","[""stimuli/WM09_AO.jpg"",""stimuli/AF10_CC.jpg"",""stimuli/AM06_FO.jpg"",""stimuli/WM07_HO.jpg""]","stimuli/WM09_AO.jpg","stimuli/AF10_CC.jpg","stimuli/AM06_FO.jpg","stimuli/WM07_HO.jpg","pos4","stimuli/WM07_HO.jpg","HO","WM07","3","3","6","8","stimuli/stars_6.png","75.5","[""AO"",""CC"",""FO"",""HO""]","[""WM09"",""AF10"",""AM06"",""WM07""]","[4,8,5,6]","[2,6,4,8]","","",""
"show-reward","50","154469","0.0-50.0","p39056","A2CF2BD4Q0ZDJN","3RDTX9JRTZ7MP6YQMJD0Z3DG4HK978","3L0KT67Y8GMQWPOK808SIVXSJHNSY1","emotion","mismatch","uniform","","","","","","","","154384","156385.40000000596","","","","","","","","","","","","6","","stimuli/stars_6.png","75.5","","","","","stimuli/WM07_HO.jpg","",""
"explore-choice","51","156531","0.0-51.0","p39056","A2CF2BD4Q0ZDJN","3RDTX9JRTZ7MP6YQMJD0Z3DG4HK978","3L0KT67Y8GMQWPOK808SIVXSJHNSY1","emotion","mismatch","uniform","","","","","","","1560.300000011921","156386.5","157946.80000001192","[""stimuli/AM06_FO.jpg"",""stimuli/WM07_AO.jpg"",""stimuli/WM09_HO.jpg"",""stimuli/AF10_CC.jpg""]","stimuli/AM06_FO.jpg","stimuli/WM07_AO.jpg","stimuli/WM09_HO.jpg","stimuli/AF10_CC.jpg","pos3","stimuli/WM09_HO.jpg","HO","WM09","2","3","6","8","stimuli/stars_6.png","78.5","[""FO"",""AO"",""HO"",""CC""]","[""AM06"",""WM07"",""WM09"",""AF10""]","[2,3,6,6]","[4,2,8,6]","","",""
"show-reward","52","158537","0.0-52.0","p39056","A2CF2BD4Q0ZDJN","3RDTX9JRTZ7MP6YQMJD0Z3DG4HK978","3L0KT67Y8GMQWPOK808SIVXSJHNSY1","emotion","mismatch","uniform","","","","","","","","158449.09999999404","160452.69999998808","","","","","","","","","","","","6","","stimuli/stars_6.png","78.5","","","","","stimuli/WM09_HO.jpg","",""
"explore-choice","53","161386","0.0-53.0","p39056","A2CF2BD4Q0ZDJN","3RDTX9JRTZ7MP6YQMJD0Z3DG4HK978","3L0KT67Y8GMQWPOK808SIVXSJHNSY1","emotion","mismatch","uniform","","","","","","","2346.600000023842","160454.69999998808","162801.30000001192","[""stimuli/AF10_AO.jpg"",""stimuli/WM07_FO.jpg"",""stimuli/AM06_HO.jpg"",""stimuli/WM09_CC.jpg""]","stimuli/AF10_AO.jpg","stimuli/WM07_FO.jpg","stimuli/AM06_HO.jpg","stimuli/WM09_CC.jpg","pos3","stimuli/AM06_HO.jpg","HO","AM06","2","5","10","8","stimuli/stars_10.png","83.5","[""AO"",""FO"",""HO"",""CC""]","[""AF10"",""WM07"",""AM06"",""WM09""]","[0,5,10,5]","[2,4,8,6]","","",""
"show-reward","54","163392","0.0-54.0","p39056","A2CF2BD4Q0ZDJN","3RDTX9JRTZ7MP6YQMJD0Z3DG4HK978","3L0KT67Y8GMQWPOK808SIVXSJHNSY1","emotion","mismatch","uniform","","","","","","","","163304","165307.5","","","","","","","","","","","","10","","stimuli/stars_10.png","83.5","","","","","stimuli/AM06_HO.jpg","",""
"explore-choice","55","165579","0.0-55.0","p39056","A2CF2BD4Q0ZDJN","3RDTX9JRTZ7MP6YQMJD0Z3DG4HK978","3L0KT67Y8GMQWPOK808SIVXSJHNSY1","emotion","mismatch","uniform","","","","","","","1684.6000000238419","165309.69999998808","166994.30000001192","[""stimuli/AF10_AO.jpg"",""stimuli/WM09_HO.jpg"",""stimuli/WM07_CC.jpg"",""stimuli/AM06_FO.jpg""]","stimuli/AF10_AO.jpg","stimuli/WM09_HO.jpg","stimuli/WM07_CC.jpg","stimuli/AM06_FO.jpg","pos2","stimuli/WM09_HO.jpg","HO","WM09","1","3","6","8","stimuli/stars_6.png","86.5","[""AO"",""HO"",""CC"",""FO""]","[""AF10"",""WM09"",""WM07"",""AM06""]","[2,6,8,2]","[2,8,6,4]","","",""
"show-reward","56","167584","0.0-56.0","p39056","A2CF2BD4Q0ZDJN","3RDTX9JRTZ7MP6YQMJD0Z3DG4HK978","3L0KT67Y8GMQWPOK808SIVXSJHNSY1","emotion","mismatch","uniform","","","","","","","","167497","169500.30000001192","","","","","","","","","","","","6","","stimuli/stars_6.png","86.5","","","","","stimuli/WM09_HO.jpg","",""
"explore-choice","57","171450","0.0-57.0","p39056","A2CF2BD4Q0ZDJN","3RDTX9JRTZ7MP6YQMJD0Z3DG4HK978","3L0KT67Y8GMQWPOK808SIVXSJHNSY1","emotion","mismatch","uniform","","","","","","","3363.800000011921","169502.5","172866.30000001192","[""stimuli/AM06_AO.jpg"",""stimuli/WM09_CC.jpg"",""stimuli/WM07_HO.jpg"",""stimuli/AF10_FO.jpg""]","stimuli/AM06_AO.jpg","stimuli/WM09_CC.jpg","stimuli/WM07_HO.jpg","stimuli/AF10_FO.jpg","pos3","stimuli/WM07_HO.jpg","HO","WM07","2","3","6","8","stimuli/stars_6.png","89.5","[""AO"",""CC"",""HO"",""FO""]","[""AM06"",""WM09"",""WM07"",""AF10""]","[2,7,6,2]","[2,6,8,4]","","",""
"show-reward","58","173454","0.0-58.0","p39056","A2CF2BD4Q0ZDJN","3RDTX9JRTZ7MP6YQMJD0Z3DG4HK978","3L0KT67Y8GMQWPOK808SIVXSJHNSY1","emotion","mismatch","uniform","","","","","","","","173367.5","175369.59999999404","","","","","","","","","","","","6","","stimuli/stars_6.png","89.5","","","","","stimuli/WM07_HO.jpg","",""
"explore-choice","59","176523","0.0-59.0","p39056","A2CF2BD4Q0ZDJN","3RDTX9JRTZ7MP6YQMJD0Z3DG4HK978","3L0KT67Y8GMQWPOK808SIVXSJHNSY1","emotion","mismatch","uniform","","","","","","","2567.0999999940395","175371.5","177938.59999999404","[""stimuli/WM07_AO.jpg"",""stimuli/AM06_HO.jpg"",""stimuli/AF10_FO.jpg"",""stimuli/WM09_CC.jpg""]","stimuli/WM07_AO.jpg","stimuli/AM06_HO.jpg","stimuli/AF10_FO.jpg","stimuli/WM09_CC.jpg","pos2","stimuli/AM06_HO.jpg","HO","AM06","1","3.5","7","8","stimuli/stars_7.png","93","[""AO"",""HO"",""FO"",""CC""]","[""WM07"",""AM06"",""AF10"",""WM09""]","[3,7,6,5]","[2,8,4,6]","","",""
"show-reward","60","178529","0.0-60.0","p39056","A2CF2BD4Q0ZDJN","3RDTX9JRTZ7MP6YQMJD0Z3DG4HK978","3L0KT67Y8GMQWPOK808SIVXSJHNSY1","emotion","mismatch","uniform","","","","","","","","178441.5","180445","","","","","","","","","","","","7","","stimuli/stars_7.png","93","","","","","stimuli/AM06_HO.jpg","",""
"explore-choice","61","181098","0.0-61.0","p39056","A2CF2BD4Q0ZDJN","3RDTX9JRTZ7MP6YQMJD0Z3DG4HK978","3L0KT67Y8GMQWPOK808SIVXSJHNSY1","emotion","mismatch","uniform","","","","","","","2066.600000023842","180447.19999998808","182513.80000001192","[""stimuli/WM07_AO.jpg"",""stimuli/AM06_FO.jpg"",""stimuli/AF10_CC.jpg"",""stimuli/WM09_HO.jpg""]","stimuli/WM07_AO.jpg","stimuli/AM06_FO.jpg","stimuli/AF10_CC.jpg","stimuli/WM09_HO.jpg","pos3","stimuli/AF10_CC.jpg","CC","AF10","2","3","6","6","stimuli/stars_6.png","96","[""AO"",""FO"",""CC"",""HO""]","[""WM07"",""AM06"",""AF10"",""WM09""]","[3,2,6,6]","[2,4,6,8]","","",""
"show-reward","62","183103","0.0-62.0","p39056","A2CF2BD4Q0ZDJN","3RDTX9JRTZ7MP6YQMJD0Z3DG4HK978","3L0KT67Y8GMQWPOK808SIVXSJHNSY1","emotion","mismatch","uniform","","","","","","","","183016","185019.09999999404","","","","","","","","","","","","6","","stimuli/stars_6.png","96","","","","","stimuli/AF10_CC.jpg","",""
"explore-choice","63","186022","0.0-63.0","p39056","A2CF2BD4Q0ZDJN","3RDTX9JRTZ7MP6YQMJD0Z3DG4HK978","3L0KT67Y8GMQWPOK808SIVXSJHNSY1","emotion","mismatch","uniform","","","","","","","2413.0999999940395","185021.30000001192","187434.40000000596","[""stimuli/AF10_AO.jpg"",""stimuli/WM09_FO.jpg"",""stimuli/AM06_HO.jpg"",""stimuli/WM07_CC.jpg""]","stimuli/AF10_AO.jpg","stimuli/WM09_FO.jpg","stimuli/AM06_HO.jpg","stimuli/WM07_CC.jpg","pos4","stimuli/WM07_CC.jpg","CC","WM07","3","2","4","6","stimuli/stars_4.png","98","[""AO"",""FO"",""HO"",""CC""]","[""AF10"",""WM09"",""AM06"",""WM07""]","[4,2,9,4]","[2,4,8,6]","","",""
"show-reward","64","188027","0.0-64.0","p39056","A2CF2BD4Q0ZDJN","3RDTX9JRTZ7MP6YQMJD0Z3DG4HK978","3L0KT67Y8GMQWPOK808SIVXSJHNSY1","emotion","mismatch","uniform","","","","","","","","187939.90000000596","189943.40000000596","","","","","","","","","","","","4","","stimuli/stars_4.png","98","","","","","stimuli/WM07_CC.jpg","",""
"explore-choice","65","191250","0.0-65.0","p39056","A2CF2BD4Q0ZDJN","3RDTX9JRTZ7MP6YQMJD0Z3DG4HK978","3L0KT67Y8GMQWPOK808SIVXSJHNSY1","emotion","mismatch","uniform","","","","","","","2719.9000000059605","189945.59999999404","192665.5","[""stimuli/WM09_AO.jpg"",""stimuli/AF10_CC.jpg"",""stimuli/WM07_FO.jpg"",""stimuli/AM06_HO.jpg""]","stimuli/WM09_AO.jpg","stimuli/AF10_CC.jpg","stimuli/WM07_FO.jpg","stimuli/AM06_HO.jpg","pos4","stimuli/AM06_HO.jpg","HO","AM06","3","3","6","8","stimuli/stars_6.png","101","[""AO"",""CC"",""FO"",""HO""]","[""WM09"",""AF10"",""WM07"",""AM06""]","[3,4,4,6]","[2,6,4,8]","","",""
"show-reward","66","193256","0.0-66.0","p39056","A2CF2BD4Q0ZDJN","3RDTX9JRTZ7MP6YQMJD0Z3DG4HK978","3L0KT67Y8GMQWPOK808SIVXSJHNSY1","emotion","mismatch","uniform","","","","","","","","193168.09999999404","195171.69999998808","","","","","","","","","","","","6","","stimuli/stars_6.png","101","","","","","stimuli/AM06_HO.jpg","",""
"explore-choice","67","196602","0.0-67.0","p39056","A2CF2BD4Q0ZDJN","3RDTX9JRTZ7MP6YQMJD0Z3DG4HK978","3L0KT67Y8GMQWPOK808SIVXSJHNSY1","emotion","mismatch","uniform","","","","","","","2844","195174.09999999404","198018.09999999404","[""stimuli/WM07_HO.jpg"",""stimuli/AF10_AO.jpg"",""stimuli/AM06_CC.jpg"",""stimuli/WM09_FO.jpg""]","stimuli/WM07_HO.jpg","stimuli/AF10_AO.jpg","stimuli/AM06_CC.jpg","stimuli/WM09_FO.jpg","pos1","stimuli/WM07_HO.jpg","HO","WM07","0","4","8","8","stimuli/stars_8.png","105","[""HO"",""AO"",""CC"",""FO""]","[""WM07"",""AF10"",""AM06"",""WM09""]","[8,1,4,5]","[8,2,6,4]","","",""
"show-reward","68","198608","0.0-68.0","p39056","A2CF2BD4Q0ZDJN","3RDTX9JRTZ7MP6YQMJD0Z3DG4HK978","3L0KT67Y8GMQWPOK808SIVXSJHNSY1","emotion","mismatch","uniform","","","","","","","","198520.40000000596","200523.59999999404","","","","","","","","","","","","8","","stimuli/stars_8.png","105","","","","","stimuli/WM07_HO.jpg","",""
"explore-choice","69","201795","0.0-69.0","p39056","A2CF2BD4Q0ZDJN","3RDTX9JRTZ7MP6YQMJD0Z3DG4HK978","3L0KT67Y8GMQWPOK808SIVXSJHNSY1","emotion","mismatch","uniform","","","","","","","2684.800000011921","200525.59999999404","203210.40000000596","[""stimuli/WM09_FO.jpg"",""stimuli/WM07_AO.jpg"",""stimuli/AM06_HO.jpg"",""stimuli/AF10_CC.jpg""]","stimuli/WM09_FO.jpg","stimuli/WM07_AO.jpg","stimuli/AM06_HO.jpg","stimuli/AF10_CC.jpg","pos3","stimuli/AM06_HO.jpg","HO","AM06","2","4.5","9","8","stimuli/stars_9.png","109.5","[""FO"",""AO"",""HO"",""CC""]","[""WM09"",""WM07"",""AM06"",""AF10""]","[6,1,9,8]","[4,2,8,6]","","",""
"show-reward","70","203801","0.0-70.0","p39056","A2CF2BD4Q0ZDJN","3RDTX9JRTZ7MP6YQMJD0Z3DG4HK978","3L0KT67Y8GMQWPOK808SIVXSJHNSY1","emotion","mismatch","uniform","","","","","","","","203713.09999999404","205716.80000001192","","","","","","","","","","","","9","","stimuli/stars_9.png","109.5","","","","","stimuli/AM06_HO.jpg","",""
"explore-choice","71","206498","0.0-71.0","p39056","A2CF2BD4Q0ZDJN","3RDTX9JRTZ7MP6YQMJD0Z3DG4HK978","3L0KT67Y8GMQWPOK808SIVXSJHNSY1","emotion","mismatch","uniform","","","","","","","2194.5","205718.69999998808","207913.19999998808","[""stimuli/WM09_FO.jpg"",""stimuli/AF10_HO.jpg"",""stimuli/AM06_AO.jpg"",""stimuli/WM07_CC.jpg""]","stimuli/WM09_FO.jpg","stimuli/AF10_HO.jpg","stimuli/AM06_AO.jpg","stimuli/WM07_CC.jpg","pos2","stimuli/AF10_HO.jpg","HO","AF10","1","5","10","8","stimuli/stars_10.png","114.5","[""FO"",""HO"",""AO"",""CC""]","[""WM09"",""AF10"",""AM06"",""WM07""]","[6,10,2,6]","[4,8,2,6]","","",""
"show-reward","72","208504","0.0-72.0","p39056","A2CF2BD4Q0ZDJN","3RDTX9JRTZ7MP6YQMJD0Z3DG4HK978","3L0KT67Y8GMQWPOK808SIVXSJHNSY1","emotion","mismatch","uniform","","","","","","","","208415.80000001192","210419.80000001192","","","","","","","","","","","","10","","stimuli/stars_10.png","114.5","","","","","stimuli/AF10_HO.jpg","",""
"explore-choice","73","218579","0.0-73.0","p39056","A2CF2BD4Q0ZDJN","3RDTX9JRTZ7MP6YQMJD0Z3DG4HK978","3L0KT67Y8GMQWPOK808SIVXSJHNSY1","emotion","mismatch","uniform","","","","","","","9572.5","210421.80000001192","219994.30000001192","[""stimuli/WM07_CC.jpg"",""stimuli/AM06_HO.jpg"",""stimuli/AF10_FO.jpg"",""stimuli/WM09_AO.jpg""]","stimuli/WM07_CC.jpg","stimuli/AM06_HO.jpg","stimuli/AF10_FO.jpg","stimuli/WM09_AO.jpg","pos2","stimuli/AM06_HO.jpg","HO","AM06","1","3","6","8","stimuli/stars_6.png","117.5","[""CC"",""HO"",""FO"",""AO""]","[""WM07"",""AM06"",""AF10"",""WM09""]","[8,6,3,3]","[6,8,4,2]","","",""
"show-reward","74","220585","0.0-74.0","p39056","A2CF2BD4Q0ZDJN","3RDTX9JRTZ7MP6YQMJD0Z3DG4HK978","3L0KT67Y8GMQWPOK808SIVXSJHNSY1","emotion","mismatch","uniform","","","","","","","","220497.30000001192","222501","","","","","","","","","","","","6","","stimuli/stars_6.png","117.5","","","","","stimuli/AM06_HO.jpg","",""
"explore-choice","75","224084","0.0-75.0","p39056","A2CF2BD4Q0ZDJN","3RDTX9JRTZ7MP6YQMJD0Z3DG4HK978","3L0KT67Y8GMQWPOK808SIVXSJHNSY1","emotion","mismatch","uniform","","","","","","","2996.2000000178814","222503.09999999404","225499.30000001192","[""stimuli/AF10_FO.jpg"",""stimuli/WM07_AO.jpg"",""stimuli/WM09_HO.jpg"",""stimuli/AM06_CC.jpg""]","stimuli/AF10_FO.jpg","stimuli/WM07_AO.jpg","stimuli/WM09_HO.jpg","stimuli/AM06_CC.jpg","pos3","stimuli/WM09_HO.jpg","HO","WM09","2","5","10","8","stimuli/stars_10.png","122.5","[""FO"",""AO"",""HO"",""CC""]","[""AF10"",""WM07"",""WM09"",""AM06""]","[5,4,10,7]","[4,2,8,6]","","",""
"show-reward","76","226087","0.0-76.0","p39056","A2CF2BD4Q0ZDJN","3RDTX9JRTZ7MP6YQMJD0Z3DG4HK978","3L0KT67Y8GMQWPOK808SIVXSJHNSY1","emotion","mismatch","uniform","","","","","","","","226001.19999998808","228003.19999998808","","","","","","","","","","","","10","","stimuli/stars_10.png","122.5","","","","","stimuli/WM09_HO.jpg","",""
"explore-choice","77","228418","0.0-77.0","p39056","A2CF2BD4Q0ZDJN","3RDTX9JRTZ7MP6YQMJD0Z3DG4HK978","3L0KT67Y8GMQWPOK808SIVXSJHNSY1","emotion","mismatch","uniform","","","","","","","1828.5999999940395","228005.09999999404","229833.69999998808","[""stimuli/AM06_AO.jpg"",""stimuli/WM07_FO.jpg"",""stimuli/AF10_HO.jpg"",""stimuli/WM09_CC.jpg""]","stimuli/AM06_AO.jpg","stimuli/WM07_FO.jpg","stimuli/AF10_HO.jpg","stimuli/WM09_CC.jpg","pos3","stimuli/AF10_HO.jpg","HO","AF10","2","5","10","8","stimuli/stars_10.png","127.5","[""AO"",""FO"",""HO"",""CC""]","[""AM06"",""WM07"",""AF10"",""WM09""]","[1,4,10,6]","[2,4,8,6]","","",""
"show-reward","78","230422","0.0-78.0","p39056","A2CF2BD4Q0ZDJN","3RDTX9JRTZ7MP6YQMJD0Z3DG4HK978","3L0KT67Y8GMQWPOK808SIVXSJHNSY1","emotion","mismatch","uniform","","","","","","","","230335","232337.5","","","","","","","","","","","","10","","stimuli/stars_10.png","127.5","","","","","stimuli/AF10_HO.jpg","",""
"explore-choice","79","232698","0.0-79.0","p39056","A2CF2BD4Q0ZDJN","3RDTX9JRTZ7MP6YQMJD0Z3DG4HK978","3L0KT67Y8GMQWPOK808SIVXSJHNSY1","emotion","mismatch","uniform","","","","","","","1773.5","232339.69999998808","234113.19999998808","[""stimuli/WM09_CC.jpg"",""stimuli/WM07_HO.jpg"",""stimuli/AF10_AO.jpg"",""stimuli/AM06_FO.jpg""]","stimuli/WM09_CC.jpg","stimuli/WM07_HO.jpg","stimuli/AF10_AO.jpg","stimuli/AM06_FO.jpg","pos2","stimuli/WM07_HO.jpg","HO","WM07","1","3.5","7","8","stimuli/stars_7.png","131","[""CC"",""HO"",""AO"",""FO""]","[""WM09"",""WM07"",""AF10"",""AM06""]","[7,7,1,4]","[6,8,2,4]","","",""
"show-reward","80","234703","0.0-80.0","p39056","A2CF2BD4Q0ZDJN","3RDTX9JRTZ7MP6YQMJD0Z3DG4HK978","3L0KT67Y8GMQWPOK808SIVXSJHNSY1","emotion","mismatch","uniform","","","","","","","","234615.90000000596","236619.30000001192","","","","","","","","","","","","7","","stimuli/stars_7.png","131","","","","","stimuli/WM07_HO.jpg","",""
"explore-choice","81","237179","0.0-81.0","p39056","A2CF2BD4Q0ZDJN","3RDTX9JRTZ7MP6YQMJD0Z3DG4HK978","3L0KT67Y8GMQWPOK808SIVXSJHNSY1","emotion","mismatch","uniform","","","","","","","1974.0999999940395","236620.40000000596","238594.5","[""stimuli/WM07_FO.jpg"",""stimuli/WM09_AO.jpg"",""stimuli/AM06_CC.jpg"",""stimuli/AF10_HO.jpg""]","stimuli/WM07_FO.jpg","stimuli/WM09_AO.jpg","stimuli/AM06_CC.jpg","stimuli/AF10_HO.jpg","pos4","stimuli/AF10_HO.jpg","HO","AF10","3","4","8","8","stimuli/stars_8.png","135","[""FO"",""AO"",""CC"",""HO""]","[""WM07"",""WM09"",""AM06"",""AF10""]","[4,1,7,8]","[4,2,6,8]","","",""
"show-reward","82","239185","0.0-82.0","p39056","A2CF2BD4Q0ZDJN","3RDTX9JRTZ7MP6YQMJD0Z3DG4HK978","3L0KT67Y8GMQWPOK808SIVXSJHNSY1","emotion","mismatch","uniform","","","","","","","","239097.30000001192","241100.69999998808","","","","","","","","","","","","8","","stimuli/stars_8.png","135","","","","","stimuli/AF10_HO.jpg","",""
"explore-choice","83","243051","0.0-83.0","p39056","A2CF2BD4Q0ZDJN","3RDTX9JRTZ7MP6YQMJD0Z3DG4HK978","3L0KT67Y8GMQWPOK808SIVXSJHNSY1","emotion","mismatch","uniform","","","","","","","3363.4000000059605","241103","244466.40000000596","[""stimuli/AM06_CC.jpg"",""stimuli/WM07_AO.jpg"",""stimuli/AF10_HO.jpg"",""stimuli/WM09_FO.jpg""]","stimuli/AM06_CC.jpg","stimuli/WM07_AO.jpg","stimuli/AF10_HO.jpg","stimuli/WM09_FO.jpg","pos3","stimuli/AF10_HO.jpg","HO","AF10","2","3","6","8","stimuli/stars_6.png","138","[""CC"",""AO"",""HO"",""FO""]","[""AM06"",""WM07"",""AF10"",""WM09""]","[4,0,6,6]","[6,2,8,4]","","",""
"show-reward","84","245057","0.0-84.0","p39056","A2CF2BD4Q0ZDJN","3RDTX9JRTZ7MP6YQMJD0Z3DG4HK978","3L0KT67Y8GMQWPOK808SIVXSJHNSY1","emotion","mismatch","uniform","","","","","","","","244969.40000000596","246972.69999998808","","","","","","","","","","","","6","","stimuli/stars_6.png","138","","","","","stimuli/AF10_HO.jpg","",""
"explore-choice","85","247579","0.0-85.0","p39056","A2CF2BD4Q0ZDJN","3RDTX9JRTZ7MP6YQMJD0Z3DG4HK978","3L0KT67Y8GMQWPOK808SIVXSJHNSY1","emotion","mismatch","uniform","","","","","","","2019.5999999940395","246974.90000000596","248994.5","[""stimuli/WM07_HO.jpg"",""stimuli/AF10_CC.jpg"",""stimuli/AM06_FO.jpg"",""stimuli/WM09_AO.jpg""]","stimuli/WM07_HO.jpg","stimuli/AF10_CC.jpg","stimuli/AM06_FO.jpg","stimuli/WM09_AO.jpg","pos1","stimuli/WM07_HO.jpg","HO","WM07","0","3","6","8","stimuli/stars_6.png","141","[""HO"",""CC"",""FO"",""AO""]","[""WM07"",""AF10"",""AM06"",""WM09""]","[6,8,5,4]","[8,6,4,2]","","",""
"show-reward","86","249585","0.0-86.0","p39056","A2CF2BD4Q0ZDJN","3RDTX9JRTZ7MP6YQMJD0Z3DG4HK978","3L0KT67Y8GMQWPOK808SIVXSJHNSY1","emotion","mismatch","uniform","","","","","","","","249497.09999999404","251500.5","","","","","","","","","","","","6","","stimuli/stars_6.png","141","","","","","stimuli/WM07_HO.jpg","",""
"explore-choice","87","251924","0.0-87.0","p39056","A2CF2BD4Q0ZDJN","3RDTX9JRTZ7MP6YQMJD0Z3DG4HK978","3L0KT67Y8GMQWPOK808SIVXSJHNSY1","emotion","mismatch","uniform","","","","","","","1837.0999999940395","251502.5","253339.59999999404","[""stimuli/AF10_HO.jpg"",""stimuli/AM06_FO.jpg"",""stimuli/WM07_CC.jpg"",""stimuli/WM09_AO.jpg""]","stimuli/AF10_HO.jpg","stimuli/AM06_FO.jpg","stimuli/WM07_CC.jpg","stimuli/WM09_AO.jpg","pos1","stimuli/AF10_HO.jpg","HO","AF10","0","5","10","8","stimuli/stars_10.png","146","[""HO"",""FO"",""CC"",""AO""]","[""AF10"",""AM06"",""WM07"",""WM09""]","[10,5,5,1]","[8,4,6,2]","","",""
"show-reward","88","253930","0.0-88.0","p39056","A2CF2BD4Q0ZDJN","3RDTX9JRTZ7MP6YQMJD0Z3DG4HK978","3L0KT67Y8GMQWPOK808SIVXSJHNSY1","emotion","mismatch","uniform","","","","","","","","253842.30000001192","255846","","","","","","","","","","","","10","","stimuli/stars_10.png","146","","","","","stimuli/AF10_HO.jpg","",""
"explore-choice","89","258347","0.0-89.0","p39056","A2CF2BD4Q0ZDJN","3RDTX9JRTZ7MP6YQMJD0Z3DG4HK978","3L0KT67Y8GMQWPOK808SIVXSJHNSY1","emotion","mismatch","uniform","","","","","","","3914.5","255848.09999999404","259762.59999999404","[""stimuli/AM06_HO.jpg"",""stimuli/WM07_FO.jpg"",""stimuli/WM09_CC.jpg"",""stimuli/AF10_AO.jpg""]","stimuli/AM06_HO.jpg","stimuli/WM07_FO.jpg","stimuli/WM09_CC.jpg","stimuli/AF10_AO.jpg","pos1","stimuli/AM06_HO.jpg","HO","AM06","0","5","10","8","stimuli/stars_10.png","151","[""HO"",""FO"",""CC"",""AO""]","[""AM06"",""WM07"",""WM09"",""AF10""]","[10,5,5,0]","[8,4,6,2]","","",""
"show-reward","90","260349","0.0-90.0","p39056","A2CF2BD4Q0ZDJN","3RDTX9JRTZ7MP6YQMJD0Z3DG4HK978","3L0KT67Y8GMQWPOK808SIVXSJHNSY1","emotion","mismatch","uniform","","","","","","","","260264","262265.5","","","","","","","","","","","","10","","stimuli/stars_10.png","151","","","","","stimuli/AM06_HO.jpg","",""
"explore-choice","91","264067","0.0-91.0","p39056","A2CF2BD4Q0ZDJN","3RDTX9JRTZ7MP6YQMJD0Z3DG4HK978","3L0KT67Y8GMQWPOK808SIVXSJHNSY1","emotion","mismatch","uniform","","","","","","","3215.7000000178814","262266.59999999404","265482.3000000119","[""stimuli/AF10_CC.jpg"",""stimuli/WM09_HO.jpg"",""stimuli/WM07_FO.jpg"",""stimuli/AM06_AO.jpg""]","stimuli/AF10_CC.jpg","stimuli/WM09_HO.jpg","stimuli/WM07_FO.jpg","stimuli/AM06_AO.jpg","pos2","stimuli/WM09_HO.jpg","HO","WM09","1","4","8","8","stimuli/stars_8.png","155","[""CC"",""HO"",""FO"",""AO""]","[""AF10"",""WM09"",""WM07"",""AM06""]","[4,8,4,3]","[6,8,4,2]","","",""
"show-reward","92","266071","0.0-92.0","p39056","A2CF2BD4Q0ZDJN","3RDTX9JRTZ7MP6YQMJD0Z3DG4HK978","3L0KT67Y8GMQWPOK808SIVXSJHNSY1","emotion","mismatch","uniform","","","","","","","","265984.1999999881","267986.59999999404","","","","","","","","","","","","8","","stimuli/stars_8.png","155","","","","","stimuli/WM09_HO.jpg","",""
"explore-choice","93","268811","0.0-93.0","p39056","A2CF2BD4Q0ZDJN","3RDTX9JRTZ7MP6YQMJD0Z3DG4HK978","3L0KT67Y8GMQWPOK808SIVXSJHNSY1","emotion","mismatch","uniform","","","","","","","2237.2000000178814","267989.09999999404","270226.3000000119","[""stimuli/WM07_AO.jpg"",""stimuli/WM09_CC.jpg"",""stimuli/AM06_FO.jpg"",""stimuli/AF10_HO.jpg""]","stimuli/WM07_AO.jpg","stimuli/WM09_CC.jpg","stimuli/AM06_FO.jpg","stimuli/AF10_HO.jpg","pos4","stimuli/AF10_HO.jpg","HO","AF10","3","3","6","8","stimuli/stars_6.png","158","[""AO"",""CC"",""FO"",""HO""]","[""WM07"",""WM09"",""AM06"",""AF10""]","[4,6,5,6]","[2,6,4,8]","","",""
"show-reward","94","270821","0.0-94.0","p39056","A2CF2BD4Q0ZDJN","3RDTX9JRTZ7MP6YQMJD0Z3DG4HK978","3L0KT67Y8GMQWPOK808SIVXSJHNSY1","emotion","mismatch","uniform","","","","","","","","270729.40000000596","272736.3000000119","","","","","","","","","","","","6","","stimuli/stars_6.png","158","","","","","stimuli/AF10_HO.jpg","",""
"explore-choice","95","275571","0.0-95.0","p39056","A2CF2BD4Q0ZDJN","3RDTX9JRTZ7MP6YQMJD0Z3DG4HK978","3L0KT67Y8GMQWPOK808SIVXSJHNSY1","emotion","mismatch","uniform","","","","","","","4248.4000000059605","272738.59999999404","276987","[""stimuli/WM09_HO.jpg"",""stimuli/WM07_CC.jpg"",""stimuli/AF10_FO.jpg"",""stimuli/AM06_AO.jpg""]","stimuli/WM09_HO.jpg","stimuli/WM07_CC.jpg","stimuli/AF10_FO.jpg","stimuli/AM06_AO.jpg","pos1","stimuli/WM09_HO.jpg","HO","WM09","0","5","10","8","stimuli/stars_10.png","163","[""HO"",""CC"",""FO"",""AO""]","[""WM09"",""WM07"",""AF10"",""AM06""]","[10,7,5,1]","[8,6,4,2]","","",""
"show-reward","96","277577","0.0-96.0","p39056","A2CF2BD4Q0ZDJN","3RDTX9JRTZ7MP6YQMJD0Z3DG4HK978","3L0KT67Y8GMQWPOK808SIVXSJHNSY1","emotion","mismatch","uniform","","","","","","","","277489.5","279493","","","","","","","","","","","","10","","stimuli/stars_10.png","163","","","","","stimuli/WM09_HO.jpg","",""
"explore-choice","97","278955","0.0-97.0","p39056","A2CF2BD4Q0ZDJN","3RDTX9JRTZ7MP6YQMJD0Z3DG4HK978","3L0KT67Y8GMQWPOK808SIVXSJHNSY1","emotion","mismatch","uniform","","","","","","","876.5","279494.40000000596","280370.90000000596","[""stimuli/WM09_HO.jpg"",""stimuli/AF10_AO.jpg"",""stimuli/WM07_FO.jpg"",""stimuli/AM06_CC.jpg""]","stimuli/WM09_HO.jpg","stimuli/AF10_AO.jpg","stimuli/WM07_FO.jpg","stimuli/AM06_CC.jpg","pos1","stimuli/WM09_HO.jpg","HO","WM09","0","4.5","9","8","stimuli/stars_9.png","167.5","[""HO"",""AO"",""FO"",""CC""]","[""WM09"",""AF10"",""WM07"",""AM06""]","[9,1,3,6]","[8,2,4,6]","","",""
"show-reward","98","280959","0.0-98.0","p39056","A2CF2BD4Q0ZDJN","3RDTX9JRTZ7MP6YQMJD0Z3DG4HK978","3L0KT67Y8GMQWPOK808SIVXSJHNSY1","emotion","mismatch","uniform","","","","","","","","280872.40000000596","282874.8000000119","","","","","","","","","","","","9","","stimuli/stars_9.png","167.5","","","","","stimuli/WM09_HO.jpg","",""
"explore-choice","99","283451","0.0-99.0","p39056","A2CF2BD4Q0ZDJN","3RDTX9JRTZ7MP6YQMJD0Z3DG4HK978","3L0KT67Y8GMQWPOK808SIVXSJHNSY1","emotion","mismatch","uniform","","","","","","","1989.6000000238419","282877.1999999881","284866.8000000119","[""stimuli/AM06_CC.jpg"",""stimuli/AF10_FO.jpg"",""stimuli/WM07_HO.jpg"",""stimuli/WM09_AO.jpg""]","stimuli/AM06_CC.jpg","stimuli/AF10_FO.jpg","stimuli/WM07_HO.jpg","stimuli/WM09_AO.jpg","pos3","stimuli/WM07_HO.jpg","HO","WM07","2","5","10","8","stimuli/stars_10.png","172.5","[""CC"",""FO"",""HO"",""AO""]","[""AM06"",""AF10"",""WM07"",""WM09""]","[7,5,10,0]","[6,4,8,2]","","",""
"show-reward","100","285457","0.0-100.0","p39056","A2CF2BD4Q0ZDJN","3RDTX9JRTZ7MP6YQMJD0Z3DG4HK978","3L0KT67Y8GMQWPOK808SIVXSJHNSY1","emotion","mismatch","uniform","","","","","","","","285369.5","287372.90000000596","","","","","","","","","","","","10","","stimuli/stars_10.png","172.5","","","","","stimuli/WM07_HO.jpg","",""
"explore-choice","101","287682","0.0-101.0","p39056","A2CF2BD4Q0ZDJN","3RDTX9JRTZ7MP6YQMJD0Z3DG4HK978","3L0KT67Y8GMQWPOK808SIVXSJHNSY1","emotion","mismatch","uniform","","","","","","","1723.5999999940395","287374.40000000596","289098","[""stimuli/AM06_AO.jpg"",""stimuli/WM07_HO.jpg"",""stimuli/AF10_CC.jpg"",""stimuli/WM09_FO.jpg""]","stimuli/AM06_AO.jpg","stimuli/WM07_HO.jpg","stimuli/AF10_CC.jpg","stimuli/WM09_FO.jpg","pos2","stimuli/WM07_HO.jpg","HO","WM07","1","3.5","7","8","stimuli/stars_7.png","176","[""AO"",""HO"",""CC"",""FO""]","[""AM06"",""WM07"",""AF10"",""WM09""]","[3,7,4,3]","[2,8,6,4]","","",""
"show-reward","102","289685","0.0-102.0","p39056","A2CF2BD4Q0ZDJN","3RDTX9JRTZ7MP6YQMJD0Z3DG4HK978","3L0KT67Y8GMQWPOK808SIVXSJHNSY1","emotion","mismatch","uniform","","","","","","","","289599.09999999404","291600.90000000596","","","","","","","","","","","","7","","stimuli/stars_7.png","176","","","","","stimuli/WM07_HO.jpg","",""
"explore-choice","103","293651","0.0-103.0","p39056","A2CF2BD4Q0ZDJN","3RDTX9JRTZ7MP6YQMJD0Z3DG4HK978","3L0KT67Y8GMQWPOK808SIVXSJHNSY1","emotion","mismatch","uniform","","","","","","","3464","291602.8000000119","295066.8000000119","[""stimuli/BF05_HE.jpg"",""stimuli/HF02_SC.jpg"",""stimuli/WM11_SUR.jpg"",""stimuli/BM07_DO.jpg""]","stimuli/BF05_HE.jpg","stimuli/HF02_SC.jpg","stimuli/WM11_SUR.jpg","stimuli/BM07_DO.jpg","pos1","stimuli/BF05_HE.jpg","HE","BF05","0","1","2","4","stimuli/stars_2.png","177","[""HE"",""SC"",""SUR"",""DO""]","[""BF05"",""HF02"",""WM11"",""BM07""]","[2,9,4,4]","[4,8,2,6]","","",""
"show-reward","104","295654","0.0-104.0","p39056","A2CF2BD4Q0ZDJN","3RDTX9JRTZ7MP6YQMJD0Z3DG4HK978","3L0KT67Y8GMQWPOK808SIVXSJHNSY1","emotion","mismatch","uniform","","","","","","","","295568.1999999881","297570.09999999404","","","","","","","","","","","","2","","stimuli/stars_2.png","177","","","","","stimuli/BF05_HE.jpg","",""
"explore-choice","105","298562","0.0-105.0","p39056","A2CF2BD4Q0ZDJN","3RDTX9JRTZ7MP6YQMJD0Z3DG4HK978","3L0KT67Y8GMQWPOK808SIVXSJHNSY1","emotion","mismatch","uniform","","","","","","","2405.800000011921","297571.6999999881","299977.5","[""stimuli/HF02_HE.jpg"",""stimuli/BM07_SUR.jpg"",""stimuli/BF05_SC.jpg"",""stimuli/WM11_DO.jpg""]","stimuli/HF02_HE.jpg","stimuli/BM07_SUR.jpg","stimuli/BF05_SC.jpg","stimuli/WM11_DO.jpg","pos1","stimuli/HF02_HE.jpg","HE","HF02","0","4.5","9","8","stimuli/stars_9.png","181.5","[""HE"",""SUR"",""SC"",""DO""]","[""HF02"",""BM07"",""BF05"",""WM11""]","[9,6,6,0]","[8,6,4,2]","","",""
"show-reward","106","300565","0.0-106.0","p39056","A2CF2BD4Q0ZDJN","3RDTX9JRTZ7MP6YQMJD0Z3DG4HK978","3L0KT67Y8GMQWPOK808SIVXSJHNSY1","emotion","mismatch","uniform","","","","","","","","300478.6999999881","302480.6999999881","","","","","","","","","","","","9","","stimuli/stars_9.png","181.5","","","","","stimuli/HF02_HE.jpg","",""
"explore-choice","107","303706","0.0-107.0","p39056","A2CF2BD4Q0ZDJN","3RDTX9JRTZ7MP6YQMJD0Z3DG4HK978","3L0KT67Y8GMQWPOK808SIVXSJHNSY1","emotion","mismatch","uniform","","","","","","","2638.699999988079","302483","305121.6999999881","[""stimuli/WM11_SC.jpg"",""stimuli/BM07_HE.jpg"",""stimuli/HF02_SUR.jpg"",""stimuli/BF05_DO.jpg""]","stimuli/WM11_SC.jpg","stimuli/BM07_HE.jpg","stimuli/HF02_SUR.jpg","stimuli/BF05_DO.jpg","pos3","stimuli/HF02_SUR.jpg","SUR","HF02","2","4.5","9","8","stimuli/stars_9.png","186","[""SC"",""HE"",""SUR"",""DO""]","[""WM11"",""BM07"",""HF02"",""BF05""]","[4,5,9,4]","[2,6,8,4]","","",""
"show-reward","108","305709","0.0-108.0","p39056","A2CF2BD4Q0ZDJN","3RDTX9JRTZ7MP6YQMJD0Z3DG4HK978","3L0KT67Y8GMQWPOK808SIVXSJHNSY1","emotion","mismatch","uniform","","","","","","","","305623.09999999404","307625.3000000119","","","","","","","","","","","","9","","stimuli/stars_9.png","186","","","","","stimuli/HF02_SUR.jpg","",""
"explore-choice","109","311387","0.0-109.0","p39056","A2CF2BD4Q0ZDJN","3RDTX9JRTZ7MP6YQMJD0Z3DG4HK978","3L0KT67Y8GMQWPOK808SIVXSJHNSY1","emotion","mismatch","uniform","","","","","","","5175.4000000059605","307627.09999999404","312802.5","[""stimuli/HF02_HE.jpg"",""stimuli/BM07_DO.jpg"",""stimuli/WM11_SC.jpg"",""stimuli/BF05_SUR.jpg""]","stimuli/HF02_HE.jpg","stimuli/BM07_DO.jpg","stimuli/WM11_SC.jpg","stimuli/BF05_SUR.jpg","pos1","stimuli/HF02_HE.jpg","HE","HF02","0","3","6","8","stimuli/stars_6.png","189","[""HE"",""DO"",""SC"",""SUR""]","[""HF02"",""BM07"",""WM11"",""BF05""]","[6,4,4,3]","[8,6,2,4]","","",""
"show-reward","110","313392","0.0-110.0","p39056","A2CF2BD4Q0ZDJN","3RDTX9JRTZ7MP6YQMJD0Z3DG4HK978","3L0KT67Y8GMQWPOK808SIVXSJHNSY1","emotion","mismatch","uniform","","","","","","","","313305.3000000119","315308.59999999404","","","","","","","","","","","","6","","stimuli/stars_6.png","189","","","","","stimuli/HF02_HE.jpg","",""
"explore-choice","111","315386","0.0-111.0","p39056","A2CF2BD4Q0ZDJN","3RDTX9JRTZ7MP6YQMJD0Z3DG4HK978","3L0KT67Y8GMQWPOK808SIVXSJHNSY1","emotion","mismatch","uniform","","","","","","","1492.2999999821186","315309.40000000596","316801.6999999881","[""stimuli/WM11_SUR.jpg"",""stimuli/BF05_SC.jpg"",""stimuli/BM07_DO.jpg"",""stimuli/HF02_HE.jpg""]","stimuli/WM11_SUR.jpg","stimuli/BF05_SC.jpg","stimuli/BM07_DO.jpg","stimuli/HF02_HE.jpg","pos4","stimuli/HF02_HE.jpg","HE","HF02","3","3.5","7","8","stimuli/stars_7.png","192.5","[""SUR"",""SC"",""DO"",""HE""]","[""WM11"",""BF05"",""BM07"",""HF02""]","[1,2,8,7]","[2,4,6,8]","","",""
"show-reward","112","317392","0.0-112.0","p39056","A2CF2BD4Q0ZDJN","3RDTX9JRTZ7MP6YQMJD0Z3DG4HK978","3L0KT67Y8GMQWPOK808SIVXSJHNSY1","emotion","mismatch","uniform","","","","","","","","317304.1999999881","319307.6999999881","","","","","","","","","","","","7","","stimuli/stars_7.png","192.5","","","","","stimuli/HF02_HE.jpg","",""
"explore-choice","113","320667","0.0-113.0","p39056","A2CF2BD4Q0ZDJN","3RDTX9JRTZ7MP6YQMJD0Z3DG4HK978","3L0KT67Y8GMQWPOK808SIVXSJHNSY1","emotion","mismatch","uniform","","","","","","","2774","319308.6999999881","322082.6999999881","[""stimuli/BF05_DO.jpg"",""stimuli/WM11_SUR.jpg"",""stimuli/HF02_SC.jpg"",""stimuli/BM07_HE.jpg""]","stimuli/BF05_DO.jpg","stimuli/WM11_SUR.jpg","stimuli/HF02_SC.jpg","stimuli/BM07_HE.jpg","pos4","stimuli/BM07_HE.jpg","HE","BM07","3","4","8","6","stimuli/stars_8.png","196.5","[""DO"",""SUR"",""SC"",""HE""]","[""BF05"",""WM11"",""HF02"",""BM07""]","[2,1,8,8]","[4,2,8,6]","","",""
"show-reward","114","322673","0.0-114.0","p39056","A2CF2BD4Q0ZDJN","3RDTX9JRTZ7MP6YQMJD0Z3DG4HK978","3L0KT67Y8GMQWPOK808SIVXSJHNSY1","emotion","mismatch","uniform","","","","","","","","322585.6999999881","324589.3000000119","","","","","","","","","","","","8","","stimuli/stars_8.png","196.5","","","","","stimuli/BM07_HE.jpg","",""
"explore-choice","115","326083","0.0-115.0","p39056","A2CF2BD4Q0ZDJN","3RDTX9JRTZ7MP6YQMJD0Z3DG4HK978","3L0KT67Y8GMQWPOK808SIVXSJHNSY1","emotion","mismatch","uniform","","","","","","","2907.5999999940395","324591.40000000596","327499","[""stimuli/WM11_SC.jpg"",""stimuli/HF02_DO.jpg"",""stimuli/BM07_HE.jpg"",""stimuli/BF05_SUR.jpg""]","stimuli/WM11_SC.jpg","stimuli/HF02_DO.jpg","stimuli/BM07_HE.jpg","stimuli/BF05_SUR.jpg","pos3","stimuli/BM07_HE.jpg","HE","BM07","2","4","8","6","stimuli/stars_8.png","200.5","[""SC"",""DO"",""HE"",""SUR""]","[""WM11"",""HF02"",""BM07"",""BF05""]","[4,8,8,4]","[2,8,6,4]","","",""
"show-reward","116","328087","0.0-116.0","p39056","A2CF2BD4Q0ZDJN","3RDTX9JRTZ7MP6YQMJD0Z3DG4HK978","3L0KT67Y8GMQWPOK808SIVXSJHNSY1","emotion","mismatch","uniform","","","","","","","","328000.6999999881","330003.40000000596","","","","","","","","","","","","8","","stimuli/stars_8.png","200.5","","","","","stimuli/BM07_HE.jpg","",""
"explore-choice","117","332939","0.0-117.0","p39056","A2CF2BD4Q0ZDJN","3RDTX9JRTZ7MP6YQMJD0Z3DG4HK978","3L0KT67Y8GMQWPOK808SIVXSJHNSY1","emotion","mismatch","uniform","","","","","","","4348.899999976158","330005.3000000119","334354.1999999881","[""stimuli/BF05_SC.jpg"",""stimuli/WM11_DO.jpg"",""stimuli/HF02_SUR.jpg"",""stimuli/BM07_HE.jpg""]","stimuli/BF05_SC.jpg","stimuli/WM11_DO.jpg","stimuli/HF02_SUR.jpg","stimuli/BM07_HE.jpg","pos4","stimuli/BM07_HE.jpg","HE","BM07","3","2","4","6","stimuli/stars_4.png","202.5","[""SC"",""DO"",""SUR"",""HE""]","[""BF05"",""WM11"",""HF02"",""BM07""]","[5,2,7,4]","[4,2,8,6]","","",""
"show-reward","118","334942","0.0-118.0","p39056","A2CF2BD4Q0ZDJN","3RDTX9JRTZ7MP6YQMJD0Z3DG4HK978","3L0KT67Y8GMQWPOK808SIVXSJHNSY1","emotion","mismatch","uniform","","","","","","","","334856","336858","","","","","","","","","","","","4","","stimuli/stars_4.png","202.5","","","","","stimuli/BM07_HE.jpg","",""
"explore-choice","119","336963","0.0-119.0","p39056","A2CF2BD4Q0ZDJN","3RDTX9JRTZ7MP6YQMJD0Z3DG4HK978","3L0KT67Y8GMQWPOK808SIVXSJHNSY1","emotion","mismatch","uniform","","","","","","","1518.9000000059605","336860","338378.90000000596","[""stimuli/BF05_DO.jpg"",""stimuli/HF02_SUR.jpg"",""stimuli/BM07_SC.jpg"",""stimuli/WM11_HE.jpg""]","stimuli/BF05_DO.jpg","stimuli/HF02_SUR.jpg","stimuli/BM07_SC.jpg","stimuli/WM11_HE.jpg","pos2","stimuli/HF02_SUR.jpg","SUR","HF02","1","4.5","9","8","stimuli/stars_9.png","207","[""DO"",""SUR"",""SC"",""HE""]","[""BF05"",""HF02"",""BM07"",""WM11""]","[6,9,8,1]","[4,8,6,2]","","",""
"show-reward","120","338968","0.0-120.0","p39056","A2CF2BD4Q0ZDJN","3RDTX9JRTZ7MP6YQMJD0Z3DG4HK978","3L0KT67Y8GMQWPOK808SIVXSJHNSY1","emotion","mismatch","uniform","","","","","","","","338881.5","340884.59999999404","","","","","","","","","","","","9","","stimuli/stars_9.png","207","","","","","stimuli/HF02_SUR.jpg","",""
"explore-choice","121","342531","0.0-121.0","p39056","A2CF2BD4Q0ZDJN","3RDTX9JRTZ7MP6YQMJD0Z3DG4HK978","3L0KT67Y8GMQWPOK808SIVXSJHNSY1","emotion","mismatch","uniform","","","","","","","3061.0999999940395","340885.59999999404","343946.6999999881","[""stimuli/BM07_DO.jpg"",""stimuli/HF02_SC.jpg"",""stimuli/WM11_HE.jpg"",""stimuli/BF05_SUR.jpg""]","stimuli/BM07_DO.jpg","stimuli/HF02_SC.jpg","stimuli/WM11_HE.jpg","stimuli/BF05_SUR.jpg","pos3","stimuli/WM11_HE.jpg","HE","WM11","2","0","0","2","stimuli/stars_0.png","207","[""DO"",""SC"",""HE"",""SUR""]","[""BM07"",""HF02"",""WM11"",""BF05""]","[4,10,0,6]","[6,8,2,4]","","",""
"show-reward","122","344537","0.0-122.0","p39056","A2CF2BD4Q0ZDJN","3RDTX9JRTZ7MP6YQMJD0Z3DG4HK978","3L0KT67Y8GMQWPOK808SIVXSJHNSY1","emotion","mismatch","uniform","","","","","","","","344449.5","346452.6999999881","","","","","","","","","","","","0","","stimuli/stars_0.png","207","","","","","stimuli/WM11_HE.jpg","",""
"explore-choice","123","349954","0.0-123.0","p39056","A2CF2BD4Q0ZDJN","3RDTX9JRTZ7MP6YQMJD0Z3DG4HK978","3L0KT67Y8GMQWPOK808SIVXSJHNSY1","emotion","mismatch","uniform","","","","","","","4914.799999982119","346454.90000000596","351369.6999999881","[""stimuli/WM11_SUR.jpg"",""stimuli/BM07_HE.jpg"",""stimuli/BF05_SC.jpg"",""stimuli/HF02_DO.jpg""]","stimuli/WM11_SUR.jpg","stimuli/BM07_HE.jpg","stimuli/BF05_SC.jpg","stimuli/HF02_DO.jpg","pos2","stimuli/BM07_HE.jpg","HE","BM07","1","4","8","6","stimuli/stars_8.png","211","[""SUR"",""HE"",""SC"",""DO""]","[""WM11"",""BM07"",""BF05"",""HF02""]","[0,8,5,7]","[2,6,4,8]","","",""
"show-reward","124","351964","0.0-124.0","p39056","A2CF2BD4Q0ZDJN","3RDTX9JRTZ7MP6YQMJD0Z3DG4HK978","3L0KT67Y8GMQWPOK808SIVXSJHNSY1","emotion","mismatch","uniform","","","","","","","","351872.59999999404","353879.8000000119","","","","","","","","","","","","8","","stimuli/stars_8.png","211","","","","","stimuli/BM07_HE.jpg","",""
"explore-choice","125","354395","0.0-125.0","p39056","A2CF2BD4Q0ZDJN","3RDTX9JRTZ7MP6YQMJD0Z3DG4HK978","3L0KT67Y8GMQWPOK808SIVXSJHNSY1","emotion","mismatch","uniform","","","","","","","1928.199999988079","353882","355810.1999999881","[""stimuli/WM11_DO.jpg"",""stimuli/HF02_HE.jpg"",""stimuli/BF05_SUR.jpg"",""stimuli/BM07_SC.jpg""]","stimuli/WM11_DO.jpg","stimuli/HF02_HE.jpg","stimuli/BF05_SUR.jpg","stimuli/BM07_SC.jpg","pos2","stimuli/HF02_HE.jpg","HE","HF02","1","3","6","8","stimuli/stars_6.png","214","[""DO"",""HE"",""SUR"",""SC""]","[""WM11"",""HF02"",""BF05"",""BM07""]","[4,6,4,4]","[2,8,4,6]","","",""
"show-reward","126","356401","0.0-126.0","p39056","A2CF2BD4Q0ZDJN","3RDTX9JRTZ7MP6YQMJD0Z3DG4HK978","3L0KT67Y8GMQWPOK808SIVXSJHNSY1","emotion","mismatch","uniform","","","","","","","","356312.6999999881","358317","","","","","","","","","","","","6","","stimuli/stars_6.png","214","","","","","stimuli/HF02_HE.jpg","",""
"explore-choice","127","360779","0.0-127.0","p39056","A2CF2BD4Q0ZDJN","3RDTX9JRTZ7MP6YQMJD0Z3DG4HK978","3L0KT67Y8GMQWPOK808SIVXSJHNSY1","emotion","mismatch","uniform","","","","","","","3875.2000000178814","358319.1999999881","362194.40000000596","[""stimuli/WM11_SC.jpg"",""stimuli/HF02_DO.jpg"",""stimuli/BM07_SUR.jpg"",""stimuli/BF05_HE.jpg""]","stimuli/WM11_SC.jpg","stimuli/HF02_DO.jpg","stimuli/BM07_SUR.jpg","stimuli/BF05_HE.jpg","pos4","stimuli/BF05_HE.jpg","HE","BF05","3","1","2","4","stimuli/stars_2.png","215","[""SC"",""DO"",""SUR"",""HE""]","[""WM11"",""HF02"",""BM07"",""BF05""]","[4,7,5,2]","[2,8,6,4]","","",""
"show-reward","128","362785","0.0-128.0","p39056","A2CF2BD4Q0ZDJN","3RDTX9JRTZ7MP6YQMJD0Z3DG4HK978","3L0KT67Y8GMQWPOK808SIVXSJHNSY1","emotion","mismatch","uniform","","","","","","","","362697.3000000119","364700.6999999881","","","","","","","","","","","","2","","stimuli/stars_2.png","215","","","","","stimuli/BF05_HE.jpg","",""
"explore-choice","129","364787","0.0-129.0","p39056","A2CF2BD4Q0ZDJN","3RDTX9JRTZ7MP6YQMJD0Z3DG4HK978","3L0KT67Y8GMQWPOK808SIVXSJHNSY1","emotion","mismatch","uniform","","","","","","","1500","364702.6999999881","366202.6999999881","[""stimuli/BM07_SUR.jpg"",""stimuli/HF02_HE.jpg"",""stimuli/BF05_DO.jpg"",""stimuli/WM11_SC.jpg""]","stimuli/BM07_SUR.jpg","stimuli/HF02_HE.jpg","stimuli/BF05_DO.jpg","stimuli/WM11_SC.jpg","pos2","stimuli/HF02_HE.jpg","HE","HF02","1","3","6","8","stimuli/stars_6.png","218","[""SUR"",""HE"",""DO"",""SC""]","[""BM07"",""HF02"",""BF05"",""WM11""]","[7,6,2,1]","[6,8,4,2]","","",""
"show-reward","130","366793","0.0-130.0","p39056","A2CF2BD4Q0ZDJN","3RDTX9JRTZ7MP6YQMJD0Z3DG4HK978","3L0KT67Y8GMQWPOK808SIVXSJHNSY1","emotion","mismatch","uniform","","","","","","","","366705.40000000596","368709.09999999404","","","","","","","","","","","","6","","stimuli/stars_6.png","218","","","","","stimuli/HF02_HE.jpg","",""
"explore-choice","131","372403","0.0-131.0","p39056","A2CF2BD4Q0ZDJN","3RDTX9JRTZ7MP6YQMJD0Z3DG4HK978","3L0KT67Y8GMQWPOK808SIVXSJHNSY1","emotion","mismatch","uniform","","","","","","","5106.9000000059605","368711.09999999404","373818","[""stimuli/WM11_DO.jpg"",""stimuli/HF02_SC.jpg"",""stimuli/BM07_SUR.jpg"",""stimuli/BF05_HE.jpg""]","stimuli/WM11_DO.jpg","stimuli/HF02_SC.jpg","stimuli/BM07_SUR.jpg","stimuli/BF05_HE.jpg","pos3","stimuli/BM07_SUR.jpg","SUR","BM07","2","3.5","7","6","stimuli/stars_7.png","221.5","[""DO"",""SC"",""SUR"",""HE""]","[""WM11"",""HF02"",""BM07"",""BF05""]","[4,9,7,6]","[2,8,6,4]","","",""
"show-reward","132","374409","0.0-132.0","p39056","A2CF2BD4Q0ZDJN","3RDTX9JRTZ7MP6YQMJD0Z3DG4HK978","3L0KT67Y8GMQWPOK808SIVXSJHNSY1","emotion","mismatch","uniform","","","","","","","","374320.90000000596","376324.59999999404","","","","","","","","","","","","7","","stimuli/stars_7.png","221.5","","","","","stimuli/BM07_SUR.jpg","",""
"explore-choice","133","381587","0.0-133.0","p39056","A2CF2BD4Q0ZDJN","3RDTX9JRTZ7MP6YQMJD0Z3DG4HK978","3L0KT67Y8GMQWPOK808SIVXSJHNSY1","emotion","mismatch","uniform","","","","","","","6675.299999982119","376326.8000000119","383002.09999999404","[""stimuli/BM07_SUR.jpg"",""stimuli/HF02_SC.jpg"",""stimuli/WM11_HE.jpg"",""stimuli/BF05_DO.jpg""]","stimuli/BM07_SUR.jpg","stimuli/HF02_SC.jpg","stimuli/WM11_HE.jpg","stimuli/BF05_DO.jpg","pos1","stimuli/BM07_SUR.jpg","SUR","BM07","0","2.5","5","6","stimuli/stars_5.png","224","[""SUR"",""SC"",""HE"",""DO""]","[""BM07"",""HF02"",""WM11"",""BF05""]","[5,10,0,2]","[6,8,2,4]","","",""
"show-reward","134","383592","0.0-134.0","p39056","A2CF2BD4Q0ZDJN","3RDTX9JRTZ7MP6YQMJD0Z3DG4HK978","3L0KT67Y8GMQWPOK808SIVXSJHNSY1","emotion","mismatch","uniform","","","","","","","","383504.90000000596","385508.3000000119","","","","","","","","","","","","5","","stimuli/stars_5.png","224","","","","","stimuli/BM07_SUR.jpg","",""
"explore-choice","135","390147","0.0-135.0","p39056","A2CF2BD4Q0ZDJN","3RDTX9JRTZ7MP6YQMJD0Z3DG4HK978","3L0KT67Y8GMQWPOK808SIVXSJHNSY1","emotion","mismatch","uniform","","","","","","","6052.300000011921","385510.1999999881","391562.5","[""stimuli/BM07_SC.jpg"",""stimuli/WM11_HE.jpg"",""stimuli/BF05_SUR.jpg"",""stimuli/HF02_DO.jpg""]","stimuli/BM07_SC.jpg","stimuli/WM11_HE.jpg","stimuli/BF05_SUR.jpg","stimuli/HF02_DO.jpg","pos3","stimuli/BF05_SUR.jpg","SUR","BF05","2","3","6","4","stimuli/stars_6.png","227","[""SC"",""HE"",""SUR"",""DO""]","[""BM07"",""WM11"",""BF05"",""HF02""]","[7,1,6,7]","[6,2,4,8]","","",""
"show-reward","136","392154","0.0-136.0","p39056","A2CF2BD4Q0ZDJN","3RDTX9JRTZ7MP6YQMJD0Z3DG4HK978","3L0KT67Y8GMQWPOK808SIVXSJHNSY1","emotion","mismatch","uniform","","","","","","","","392065.6999999881","394069.1999999881","","","","","","","","","","","","6","","stimuli/stars_6.png","227","","","","","stimuli/BF05_SUR.jpg","",""
"explore-choice","137","396460","0.0-137.0","p39056","A2CF2BD4Q0ZDJN","3RDTX9JRTZ7MP6YQMJD0Z3DG4HK978","3L0KT67Y8GMQWPOK808SIVXSJHNSY1","emotion","mismatch","uniform","","","","","","","3803.4000000059605","394071.59999999404","397875","[""stimuli/BM07_SUR.jpg"",""stimuli/BF05_SC.jpg"",""stimuli/HF02_DO.jpg"",""stimuli/WM11_HE.jpg""]","stimuli/BM07_SUR.jpg","stimuli/BF05_SC.jpg","stimuli/HF02_DO.jpg","stimuli/WM11_HE.jpg","pos1","stimuli/BM07_SUR.jpg","SUR","BM07","0","3.5","7","6","stimuli/stars_7.png","230.5","[""SUR"",""SC"",""DO"",""HE""]","[""BM07"",""BF05"",""HF02"",""WM11""]","[7,4,8,1]","[6,4,8,2]","","",""
"show-reward","138","398466","0.0-138.0","p39056","A2CF2BD4Q0ZDJN","3RDTX9JRTZ7MP6YQMJD0Z3DG4HK978","3L0KT67Y8GMQWPOK808SIVXSJHNSY1","emotion","mismatch","uniform","","","","","","","","398378.09999999404","400381.8000000119","","","","","","","","","","","","7","","stimuli/stars_7.png","230.5","","","","","stimuli/BM07_SUR.jpg","",""
"explore-choice","139","402323","0.0-139.0","p39056","A2CF2BD4Q0ZDJN","3RDTX9JRTZ7MP6YQMJD0Z3DG4HK978","3L0KT67Y8GMQWPOK808SIVXSJHNSY1","emotion","mismatch","uniform","","","","","","","3354.199999988079","400383.90000000596","403738.09999999404","[""stimuli/WM11_SC.jpg"",""stimuli/HF02_SUR.jpg"",""stimuli/BF05_HE.jpg"",""stimuli/BM07_DO.jpg""]","stimuli/WM11_SC.jpg","stimuli/HF02_SUR.jpg","stimuli/BF05_HE.jpg","stimuli/BM07_DO.jpg","pos2","stimuli/HF02_SUR.jpg","SUR","HF02","1","3","6","8","stimuli/stars_6.png","233.5","[""SC"",""SUR"",""HE"",""DO""]","[""WM11"",""HF02"",""BF05"",""BM07""]","[0,6,3,8]","[2,8,4,6]","","",""
"show-reward","140","404329","0.0-140.0","p39056","A2CF2BD4Q0ZDJN","3RDTX9JRTZ7MP6YQMJD0Z3DG4HK978","3L0KT67Y8GMQWPOK808SIVXSJHNSY1","emotion","mismatch","uniform","","","","","","","","404241.1999999881","406244.5","","","","","","","","","","","","6","","stimuli/stars_6.png","233.5","","","","","stimuli/HF02_SUR.jpg","",""
"explore-choice","141","411731","0.0-141.0","p39056","A2CF2BD4Q0ZDJN","3RDTX9JRTZ7MP6YQMJD0Z3DG4HK978","3L0KT67Y8GMQWPOK808SIVXSJHNSY1","emotion","mismatch","uniform","","","","","","","6899.4000000059605","406247.09999999404","413146.5","[""stimuli/BF05_HE.jpg"",""stimuli/WM11_SUR.jpg"",""stimuli/HF02_DO.jpg"",""stimuli/BM07_SC.jpg""]","stimuli/BF05_HE.jpg","stimuli/WM11_SUR.jpg","stimuli/HF02_DO.jpg","stimuli/BM07_SC.jpg","pos2","stimuli/WM11_SUR.jpg","SUR","WM11","1","0.5","1","2","stimuli/stars_1.png","234","[""HE"",""SUR"",""DO"",""SC""]","[""BF05"",""WM11"",""HF02"",""BM07""]","[5,1,9,8]","[4,2,8,6]","","",""
"show-reward","142","413736","0.0-142.0","p39056","A2CF2BD4Q0ZDJN","3RDTX9JRTZ7MP6YQMJD0Z3DG4HK978","3L0KT67Y8GMQWPOK808SIVXSJHNSY1","emotion","mismatch","uniform","","","","","","","","413649.09999999404","415652.40000000596","","","","","","","","","","","","1","","stimuli/stars_1.png","234","","","","","stimuli/WM11_SUR.jpg","",""
"explore-choice","143","416234","0.0-143.0","p39056","A2CF2BD4Q0ZDJN","3RDTX9JRTZ7MP6YQMJD0Z3DG4HK978","3L0KT67Y8GMQWPOK808SIVXSJHNSY1","emotion","mismatch","uniform","","","","","","","1995.800000011921","415653.5","417649.3000000119","[""stimuli/WM11_HE.jpg"",""stimuli/BM07_DO.jpg"",""stimuli/BF05_SC.jpg"",""stimuli/HF02_SUR.jpg""]","stimuli/WM11_HE.jpg","stimuli/BM07_DO.jpg","stimuli/BF05_SC.jpg","stimuli/HF02_SUR.jpg","pos4","stimuli/HF02_SUR.jpg","SUR","HF02","3","5","10","8","stimuli/stars_10.png","239","[""HE"",""DO"",""SC"",""SUR""]","[""WM11"",""BM07"",""BF05"",""HF02""]","[3,7,3,10]","[2,6,4,8]","","",""
"show-reward","144","418239","0.0-144.0","p39056","A2CF2BD4Q0ZDJN","3RDTX9JRTZ7MP6YQMJD0Z3DG4HK978","3L0KT67Y8GMQWPOK808SIVXSJHNSY1","emotion","mismatch","uniform","","","","","","","","418151.59999999404","420155.1999999881","","","","","","","","","","","","10","","stimuli/stars_10.png","239","","","","","stimuli/HF02_SUR.jpg","",""
"explore-choice","145","421834","0.0-145.0","p39056","A2CF2BD4Q0ZDJN","3RDTX9JRTZ7MP6YQMJD0Z3DG4HK978","3L0KT67Y8GMQWPOK808SIVXSJHNSY1","emotion","mismatch","uniform","","","","","","","3092","420157.3000000119","423249.3000000119","[""stimuli/WM11_DO.jpg"",""stimuli/BM07_HE.jpg"",""stimuli/BF05_SUR.jpg"",""stimuli/HF02_SC.jpg""]","stimuli/WM11_DO.jpg","stimuli/BM07_HE.jpg","stimuli/BF05_SUR.jpg","stimuli/HF02_SC.jpg","pos2","stimuli/BM07_HE.jpg","HE","BM07","1","2","4","6","stimuli/stars_4.png","241","[""DO"",""HE"",""SUR"",""SC""]","[""WM11"",""BM07"",""BF05"",""HF02""]","[2,4,5,10]","[2,6,4,8]","","",""
"show-reward","146","423840","0.0-146.0","p39056","A2CF2BD4Q0ZDJN","3RDTX9JRTZ7MP6YQMJD0Z3DG4HK978","3L0KT67Y8GMQWPOK808SIVXSJHNSY1","emotion","mismatch","uniform","","","","","","","","423752.1999999881","425755.5","","","","","","","","","","","","4","","stimuli/stars_4.png","241","","","","","stimuli/BM07_HE.jpg","",""
"explore-choice","147","426755","0.0-147.0","p39056","A2CF2BD4Q0ZDJN","3RDTX9JRTZ7MP6YQMJD0Z3DG4HK978","3L0KT67Y8GMQWPOK808SIVXSJHNSY1","emotion","mismatch","uniform","","","","","","","2412.800000011921","425757.6999999881","428170.5","[""stimuli/BF05_DO.jpg"",""stimuli/WM11_SUR.jpg"",""stimuli/HF02_HE.jpg"",""stimuli/BM07_SC.jpg""]","stimuli/BF05_DO.jpg","stimuli/WM11_SUR.jpg","stimuli/HF02_HE.jpg","stimuli/BM07_SC.jpg","pos3","stimuli/HF02_HE.jpg","HE","HF02","2","4","8","8","stimuli/stars_8.png","245","[""DO"",""SUR"",""HE"",""SC""]","[""BF05"",""WM11"",""HF02"",""BM07""]","[5,3,8,4]","[4,2,8,6]","","",""
"show-reward","148","428761","0.0-148.0","p39056","A2CF2BD4Q0ZDJN","3RDTX9JRTZ7MP6YQMJD0Z3DG4HK978","3L0KT67Y8GMQWPOK808SIVXSJHNSY1","emotion","mismatch","uniform","","","","","","","","428673.3000000119","430676.8000000119","","","","","","","","","","","","8","","stimuli/stars_8.png","245","","","","","stimuli/HF02_HE.jpg","",""
"explore-choice","149","431267","0.0-149.0","p39056","A2CF2BD4Q0ZDJN","3RDTX9JRTZ7MP6YQMJD0Z3DG4HK978","3L0KT67Y8GMQWPOK808SIVXSJHNSY1","emotion","mismatch","uniform","","","","","","","2003.6000000238419","430678.6999999881","432682.3000000119","[""stimuli/BF05_HE.jpg"",""stimuli/BM07_SC.jpg"",""stimuli/HF02_SUR.jpg"",""stimuli/WM11_DO.jpg""]","stimuli/BF05_HE.jpg","stimuli/BM07_SC.jpg","stimuli/HF02_SUR.jpg","stimuli/WM11_DO.jpg","pos3","stimuli/HF02_SUR.jpg","SUR","HF02","2","4.5","9","8","stimuli/stars_9.png","249.5","[""HE"",""SC"",""SUR"",""DO""]","[""BF05"",""BM07"",""HF02"",""WM11""]","[3,8,9,1]","[4,6,8,2]","","",""
"show-reward","150","433272","0.0-150.0","p39056","A2CF2BD4Q0ZDJN","3RDTX9JRTZ7MP6YQMJD0Z3DG4HK978","3L0KT67Y8GMQWPOK808SIVXSJHNSY1","emotion","mismatch","uniform","","","","","","","","433184.90000000596","435188.3000000119","","","","","","","","","","","","9","","stimuli/stars_9.png","249.5","","","","","stimuli/HF02_SUR.jpg","",""
"explore-choice","151","435507","0.0-151.0","p39056","A2CF2BD4Q0ZDJN","3RDTX9JRTZ7MP6YQMJD0Z3DG4HK978","3L0KT67Y8GMQWPOK808SIVXSJHNSY1","emotion","mismatch","uniform","","","","","","","1732.2999999821186","435190.40000000596","436922.6999999881","[""stimuli/BF05_DO.jpg"",""stimuli/HF02_HE.jpg"",""stimuli/WM11_SC.jpg"",""stimuli/BM07_SUR.jpg""]","stimuli/BF05_DO.jpg","stimuli/HF02_HE.jpg","stimuli/WM11_SC.jpg","stimuli/BM07_SUR.jpg","pos2","stimuli/HF02_HE.jpg","HE","HF02","1","3","6","8","stimuli/stars_6.png","252.5","[""DO"",""HE"",""SC"",""SUR""]","[""BF05"",""HF02"",""WM11"",""BM07""]","[2,6,1,7]","[4,8,2,6]","","",""
"show-reward","152","437510","0.0-152.0","p39056","A2CF2BD4Q0ZDJN","3RDTX9JRTZ7MP6YQMJD0Z3DG4HK978","3L0KT67Y8GMQWPOK808SIVXSJHNSY1","emotion","mismatch","uniform","","","","","","","","437424.1999999881","439426.09999999404","","","","","","","","","","","","6","","stimuli/stars_6.png","252.5","","","","","stimuli/HF02_HE.jpg","",""
"explore-choice","153","445851","0.0-153.0","p39056","A2CF2BD4Q0ZDJN","3RDTX9JRTZ7MP6YQMJD0Z3DG4HK978","3L0KT67Y8GMQWPOK808SIVXSJHNSY1","emotion","mismatch","uniform","","","","","","","7838.199999988079","439428","447266.1999999881","[""stimuli/WM11_SUR.jpg"",""stimuli/HF02_SC.jpg"",""stimuli/BF05_HE.jpg"",""stimuli/BM07_DO.jpg""]","stimuli/WM11_SUR.jpg","stimuli/HF02_SC.jpg","stimuli/BF05_HE.jpg","stimuli/BM07_DO.jpg","pos4","stimuli/BM07_DO.jpg","DO","BM07","3","2","4","6","stimuli/stars_4.png","254.5","[""SUR"",""SC"",""HE"",""DO""]","[""WM11"",""HF02"",""BF05"",""BM07""]","[4,9,2,4]","[2,8,4,6]","","",""
"show-reward","154","447856","0.0-154.0","p39056","A2CF2BD4Q0ZDJN","3RDTX9JRTZ7MP6YQMJD0Z3DG4HK978","3L0KT67Y8GMQWPOK808SIVXSJHNSY1","emotion","mismatch","uniform","","","","","","","","447769","449772.5","","","","","","","","","","","","4","","stimuli/stars_4.png","254.5","","","","","stimuli/BM07_DO.jpg","",""
"explore-choice","155","449730","0.0-155.0","p39056","A2CF2BD4Q0ZDJN","3RDTX9JRTZ7MP6YQMJD0Z3DG4HK978","3L0KT67Y8GMQWPOK808SIVXSJHNSY1","emotion","mismatch","uniform","","","","","","","1371","449774.40000000596","451145.40000000596","[""stimuli/WM11_DO.jpg"",""stimuli/HF02_HE.jpg"",""stimuli/BF05_SUR.jpg"",""stimuli/BM07_SC.jpg""]","stimuli/WM11_DO.jpg","stimuli/HF02_HE.jpg","stimuli/BF05_SUR.jpg","stimuli/BM07_SC.jpg","pos2","stimuli/HF02_HE.jpg","HE","HF02","1","3","6","8","stimuli/stars_6.png","257.5","[""DO"",""HE"",""SUR"",""SC""]","[""WM11"",""HF02"",""BF05"",""BM07""]","[4,6,4,4]","[2,8,4,6]","","",""
"show-reward","156","451736","0.0-156.0","p39056","A2CF2BD4Q0ZDJN","3RDTX9JRTZ7MP6YQMJD0Z3DG4HK978","3L0KT67Y8GMQWPOK808SIVXSJHNSY1","emotion","mismatch","uniform","","","","","","","","451648.3000000119","453651.90000000596","","","","","","","","","","","","6","","stimuli/stars_6.png","257.5","","","","","stimuli/HF02_HE.jpg","",""
"explore-choice","157","460818","0.0-157.0","p39056","A2CF2BD4Q0ZDJN","3RDTX9JRTZ7MP6YQMJD0Z3DG4HK978","3L0KT67Y8GMQWPOK808SIVXSJHNSY1","emotion","mismatch","uniform","","","","","","","8580.40000000596","453653","462233.40000000596","[""stimuli/BM07_HE.jpg"",""stimuli/BF05_SC.jpg"",""stimuli/WM11_SUR.jpg"",""stimuli/HF02_DO.jpg""]","stimuli/BM07_HE.jpg","stimuli/BF05_SC.jpg","stimuli/WM11_SUR.jpg","stimuli/HF02_DO.jpg","pos1","stimuli/BM07_HE.jpg","HE","BM07","0","4","8","6","stimuli/stars_8.png","261.5","[""HE"",""SC"",""SUR"",""DO""]","[""BM07"",""BF05"",""WM11"",""HF02""]","[8,5,0,7]","[6,4,2,8]","","",""
"show-reward","158","462824","0.0-158.0","p39056","A2CF2BD4Q0ZDJN","3RDTX9JRTZ7MP6YQMJD0Z3DG4HK978","3L0KT67Y8GMQWPOK808SIVXSJHNSY1","emotion","mismatch","uniform","","","","","","","","462736.09999999404","464739.59999999404","","","","","","","","","","","","8","","stimuli/stars_8.png","261.5","","","","","stimuli/BM07_HE.jpg","",""
"explore-choice","159","467571","0.0-159.0","p39056","A2CF2BD4Q0ZDJN","3RDTX9JRTZ7MP6YQMJD0Z3DG4HK978","3L0KT67Y8GMQWPOK808SIVXSJHNSY1","emotion","mismatch","uniform","","","","","","","4245","464741.8000000119","468986.8000000119","[""stimuli/WM11_HE.jpg"",""stimuli/HF02_SC.jpg"",""stimuli/BF05_SUR.jpg"",""stimuli/BM07_DO.jpg""]","stimuli/WM11_HE.jpg","stimuli/HF02_SC.jpg","stimuli/BF05_SUR.jpg","stimuli/BM07_DO.jpg","pos1","stimuli/WM11_HE.jpg","HE","WM11","0","0","0","2","stimuli/stars_0.png","261.5","[""HE"",""SC"",""SUR"",""DO""]","[""WM11"",""HF02"",""BF05"",""BM07""]","[0,10,6,4]","[2,8,4,6]","","",""
"show-reward","160","469577","0.0-160.0","p39056","A2CF2BD4Q0ZDJN","3RDTX9JRTZ7MP6YQMJD0Z3DG4HK978","3L0KT67Y8GMQWPOK808SIVXSJHNSY1","emotion","mismatch","uniform","","","","","","","","469489.5","471492.90000000596","","","","","","","","","","","","0","","stimuli/stars_0.png","261.5","","","","","stimuli/WM11_HE.jpg","",""
"explore-choice","161","473715","0.0-161.0","p39056","A2CF2BD4Q0ZDJN","3RDTX9JRTZ7MP6YQMJD0Z3DG4HK978","3L0KT67Y8GMQWPOK808SIVXSJHNSY1","emotion","mismatch","uniform","","","","","","","3635.800000011921","471495.09999999404","475130.90000000596","[""stimuli/BF05_HE.jpg"",""stimuli/BM07_SUR.jpg"",""stimuli/HF02_SC.jpg"",""stimuli/WM11_DO.jpg""]","stimuli/BF05_HE.jpg","stimuli/BM07_SUR.jpg","stimuli/HF02_SC.jpg","stimuli/WM11_DO.jpg","pos2","stimuli/BM07_SUR.jpg","SUR","BM07","1","3.5","7","6","stimuli/stars_7.png","265","[""HE"",""SUR"",""SC"",""DO""]","[""BF05"",""BM07"",""HF02"",""WM11""]","[6,7,9,4]","[4,6,8,2]","","",""
"show-reward","162","475720","0.0-162.0","p39056","A2CF2BD4Q0ZDJN","3RDTX9JRTZ7MP6YQMJD0Z3DG4HK978","3L0KT67Y8GMQWPOK808SIVXSJHNSY1","emotion","mismatch","uniform","","","","","","","","475633.1999999881","477636.09999999404","","","","","","","","","","","","7","","stimuli/stars_7.png","265","","","","","stimuli/BM07_SUR.jpg","",""
"explore-choice","163","478507","0.0-163.0","p39056","A2CF2BD4Q0ZDJN","3RDTX9JRTZ7MP6YQMJD0Z3DG4HK978","3L0KT67Y8GMQWPOK808SIVXSJHNSY1","emotion","mismatch","uniform","","","","","","","2285.300000011921","477637.5","479922.8000000119","[""stimuli/HF02_HE.jpg"",""stimuli/BM07_DO.jpg"",""stimuli/BF05_SC.jpg"",""stimuli/WM11_SUR.jpg""]","stimuli/HF02_HE.jpg","stimuli/BM07_DO.jpg","stimuli/BF05_SC.jpg","stimuli/WM11_SUR.jpg","pos1","stimuli/HF02_HE.jpg","HE","HF02","0","3.5","7","8","stimuli/stars_7.png","268.5","[""HE"",""DO"",""SC"",""SUR""]","[""HF02"",""BM07"",""BF05"",""WM11""]","[7,8,2,1]","[8,6,4,2]","","",""
"show-reward","164","480513","0.0-164.0","p39056","A2CF2BD4Q0ZDJN","3RDTX9JRTZ7MP6YQMJD0Z3DG4HK978","3L0KT67Y8GMQWPOK808SIVXSJHNSY1","emotion","mismatch","uniform","","","","","","","","480425.5","482428.90000000596","","","","","","","","","","","","7","","stimuli/stars_7.png","268.5","","","","","stimuli/HF02_HE.jpg","",""
"explore-choice","165","483131","0.0-165.0","p39056","A2CF2BD4Q0ZDJN","3RDTX9JRTZ7MP6YQMJD0Z3DG4HK978","3L0KT67Y8GMQWPOK808SIVXSJHNSY1","emotion","mismatch","uniform","","","","","","","2115.5999999940395","482431","484546.59999999404","[""stimuli/BF05_DO.jpg"",""stimuli/WM11_SUR.jpg"",""stimuli/BM07_SC.jpg"",""stimuli/HF02_HE.jpg""]","stimuli/BF05_DO.jpg","stimuli/WM11_SUR.jpg","stimuli/BM07_SC.jpg","stimuli/HF02_HE.jpg","pos4","stimuli/HF02_HE.jpg","HE","HF02","3","4","8","8","stimuli/stars_8.png","272.5","[""DO"",""SUR"",""SC"",""HE""]","[""BF05"",""WM11"",""BM07"",""HF02""]","[5,3,4,8]","[4,2,6,8]","","",""
"show-reward","166","485138","0.0-166.0","p39056","A2CF2BD4Q0ZDJN","3RDTX9JRTZ7MP6YQMJD0Z3DG4HK978","3L0KT67Y8GMQWPOK808SIVXSJHNSY1","emotion","mismatch","uniform","","","","","","","","485049.59999999404","487053.90000000596","","","","","","","","","","","","8","","stimuli/stars_8.png","272.5","","","","","stimuli/HF02_HE.jpg","",""
"explore-choice","167","491395","0.0-167.0","p39056","A2CF2BD4Q0ZDJN","3RDTX9JRTZ7MP6YQMJD0Z3DG4HK978","3L0KT67Y8GMQWPOK808SIVXSJHNSY1","emotion","mismatch","uniform","","","","","","","5754.300000011921","487056","492810.3000000119","[""stimuli/WM11_SUR.jpg"",""stimuli/HF02_SC.jpg"",""stimuli/BM07_HE.jpg"",""stimuli/BF05_DO.jpg""]","stimuli/WM11_SUR.jpg","stimuli/HF02_SC.jpg","stimuli/BM07_HE.jpg","stimuli/BF05_DO.jpg","pos3","stimuli/BM07_HE.jpg","HE","BM07","2","4","8","6","stimuli/stars_8.png","276.5","[""SUR"",""SC"",""HE"",""DO""]","[""WM11"",""HF02"",""BM07"",""BF05""]","[1,8,8,2]","[2,8,6,4]","","",""
"show-reward","168","493399","0.0-168.0","p39056","A2CF2BD4Q0ZDJN","3RDTX9JRTZ7MP6YQMJD0Z3DG4HK978","3L0KT67Y8GMQWPOK808SIVXSJHNSY1","emotion","mismatch","uniform","","","","","","","","493312.6999999881","495315.5","","","","","","","","","","","","8","","stimuli/stars_8.png","276.5","","","","","stimuli/BM07_HE.jpg","",""
"explore-choice","169","496115","0.0-169.0","p39056","A2CF2BD4Q0ZDJN","3RDTX9JRTZ7MP6YQMJD0Z3DG4HK978","3L0KT67Y8GMQWPOK808SIVXSJHNSY1","emotion","mismatch","uniform","","","","","","","2213.0999999940395","495317","497530.09999999404","[""stimuli/BF05_HE.jpg"",""stimuli/BM07_SC.jpg"",""stimuli/HF02_SUR.jpg"",""stimuli/WM11_DO.jpg""]","stimuli/BF05_HE.jpg","stimuli/BM07_SC.jpg","stimuli/HF02_SUR.jpg","stimuli/WM11_DO.jpg","pos3","stimuli/HF02_SUR.jpg","SUR","HF02","2","4.5","9","8","stimuli/stars_9.png","281","[""HE"",""SC"",""SUR"",""DO""]","[""BF05"",""BM07"",""HF02"",""WM11""]","[3,8,9,1]","[4,6,8,2]","","",""
"show-reward","170","498120","0.0-170.0","p39056","A2CF2BD4Q0ZDJN","3RDTX9JRTZ7MP6YQMJD0Z3DG4HK978","3L0KT67Y8GMQWPOK808SIVXSJHNSY1","emotion","mismatch","uniform","","","","","","","","498032.90000000596","500036.40000000596","","","","","","","","","","","","9","","stimuli/stars_9.png","281","","","","","stimuli/HF02_SUR.jpg","",""
"explore-choice","171","501136","0.0-171.0","p39056","A2CF2BD4Q0ZDJN","3RDTX9JRTZ7MP6YQMJD0Z3DG4HK978","3L0KT67Y8GMQWPOK808SIVXSJHNSY1","emotion","mismatch","uniform","","","","","","","2508.399999976158","500038.3000000119","502546.6999999881","[""stimuli/BM07_DO.jpg"",""stimuli/WM11_HE.jpg"",""stimuli/BF05_SC.jpg"",""stimuli/HF02_SUR.jpg""]","stimuli/BM07_DO.jpg","stimuli/WM11_HE.jpg","stimuli/BF05_SC.jpg","stimuli/HF02_SUR.jpg","pos4","stimuli/HF02_SUR.jpg","SUR","HF02","3","5","10","8","stimuli/stars_10.png","286","[""DO"",""HE"",""SC"",""SUR""]","[""BM07"",""WM11"",""BF05"",""HF02""]","[7,3,3,10]","[6,2,4,8]","","",""
"show-reward","172","503140","0.0-172.0","p39056","A2CF2BD4Q0ZDJN","3RDTX9JRTZ7MP6YQMJD0Z3DG4HK978","3L0KT67Y8GMQWPOK808SIVXSJHNSY1","emotion","mismatch","uniform","","","","","","","","503054","505056.09999999404","","","","","","","","","","","","10","","stimuli/stars_10.png","286","","","","","stimuli/HF02_SUR.jpg","",""
"explore-choice","173","516787","0.0-173.0","p39056","A2CF2BD4Q0ZDJN","3RDTX9JRTZ7MP6YQMJD0Z3DG4HK978","3L0KT67Y8GMQWPOK808SIVXSJHNSY1","emotion","mismatch","uniform","","","","","","","13144.90000000596","505057.59999999404","518202.5","[""stimuli/HF02_HE.jpg"",""stimuli/BF05_SUR.jpg"",""stimuli/BM07_DO.jpg"",""stimuli/WM11_SC.jpg""]","stimuli/HF02_HE.jpg","stimuli/BF05_SUR.jpg","stimuli/BM07_DO.jpg","stimuli/WM11_SC.jpg","pos1","stimuli/HF02_HE.jpg","HE","HF02","0","3","6","8","stimuli/stars_6.png","289","[""HE"",""SUR"",""DO"",""SC""]","[""HF02"",""BF05"",""BM07"",""WM11""]","[6,3,4,4]","[8,4,6,2]","","",""
"show-reward","174","518793","0.0-174.0","p39056","A2CF2BD4Q0ZDJN","3RDTX9JRTZ7MP6YQMJD0Z3DG4HK978","3L0KT67Y8GMQWPOK808SIVXSJHNSY1","emotion","mismatch","uniform","","","","","","","","518705.40000000596","520708.59999999404","","","","","","","","","","","","6","","stimuli/stars_6.png","289","","","","","stimuli/HF02_HE.jpg","",""
"explore-choice","175","523786","0.0-175.0","p39056","A2CF2BD4Q0ZDJN","3RDTX9JRTZ7MP6YQMJD0Z3DG4HK978","3L0KT67Y8GMQWPOK808SIVXSJHNSY1","emotion","mismatch","uniform","","","","","","","4491.299999982119","520709.90000000596","525201.1999999881","[""stimuli/BF05_SC.jpg"",""stimuli/HF02_SUR.jpg"",""stimuli/WM11_DO.jpg"",""stimuli/BM07_HE.jpg""]","stimuli/BF05_SC.jpg","stimuli/HF02_SUR.jpg","stimuli/WM11_DO.jpg","stimuli/BM07_HE.jpg","pos2","stimuli/HF02_SUR.jpg","SUR","HF02","1","3.5","7","8","stimuli/stars_7.png","292.5","[""SC"",""SUR"",""DO"",""HE""]","[""BF05"",""HF02"",""WM11"",""BM07""]","[5,7,2,4]","[4,8,2,6]","","",""
"show-reward","176","525791","0.0-176.0","p39056","A2CF2BD4Q0ZDJN","3RDTX9JRTZ7MP6YQMJD0Z3DG4HK978","3L0KT67Y8GMQWPOK808SIVXSJHNSY1","emotion","mismatch","uniform","","","","","","","","525703.8000000119","527707.1999999881","","","","","","","","","","","","7","","stimuli/stars_7.png","292.5","","","","","stimuli/HF02_SUR.jpg","",""
"explore-choice","177","530170","0.0-177.0","p39056","A2CF2BD4Q0ZDJN","3RDTX9JRTZ7MP6YQMJD0Z3DG4HK978","3L0KT67Y8GMQWPOK808SIVXSJHNSY1","emotion","mismatch","uniform","","","","","","","3876.2999999821186","527709.400000006","531585.6999999881","[""stimuli/BF05_DO.jpg"",""stimuli/WM11_SC.jpg"",""stimuli/BM07_HE.jpg"",""stimuli/HF02_SUR.jpg""]","stimuli/BF05_DO.jpg","stimuli/WM11_SC.jpg","stimuli/BM07_HE.jpg","stimuli/HF02_SUR.jpg","pos4","stimuli/HF02_SUR.jpg","SUR","HF02","3","4.5","9","8","stimuli/stars_9.png","297","[""DO"",""SC"",""HE"",""SUR""]","[""BF05"",""WM11"",""BM07"",""HF02""]","[4,4,5,9]","[4,2,6,8]","","",""
"show-reward","178","532174","0.0-178.0","p39056","A2CF2BD4Q0ZDJN","3RDTX9JRTZ7MP6YQMJD0Z3DG4HK978","3L0KT67Y8GMQWPOK808SIVXSJHNSY1","emotion","mismatch","uniform","","","","","","","","532087.3000000119","534089.599999994","","","","","","","","","","","","9","","stimuli/stars_9.png","297","","","","","stimuli/HF02_SUR.jpg","",""
"explore-choice","179","534546","0.0-179.0","p39056","A2CF2BD4Q0ZDJN","3RDTX9JRTZ7MP6YQMJD0Z3DG4HK978","3L0KT67Y8GMQWPOK808SIVXSJHNSY1","emotion","mismatch","uniform","","","","","","","1869.5","534091.900000006","535961.400000006","[""stimuli/BF05_SUR.jpg"",""stimuli/WM11_DO.jpg"",""stimuli/HF02_SC.jpg"",""stimuli/BM07_HE.jpg""]","stimuli/BF05_SUR.jpg","stimuli/WM11_DO.jpg","stimuli/HF02_SC.jpg","stimuli/BM07_HE.jpg","pos4","stimuli/BM07_HE.jpg","HE","BM07","3","2","4","6","stimuli/stars_4.png","299","[""SUR"",""DO"",""SC"",""HE""]","[""BF05"",""WM11"",""HF02"",""BM07""]","[5,2,10,4]","[4,2,8,6]","","",""
"show-reward","180","536551","0.0-180.0","p39056","A2CF2BD4Q0ZDJN","3RDTX9JRTZ7MP6YQMJD0Z3DG4HK978","3L0KT67Y8GMQWPOK808SIVXSJHNSY1","emotion","mismatch","uniform","","","","","","","","536464","538467.3000000119","","","","","","","","","","","","4","","stimuli/stars_4.png","299","","","","","stimuli/BM07_HE.jpg","",""
"explore-choice","181","538492","0.0-181.0","p39056","A2CF2BD4Q0ZDJN","3RDTX9JRTZ7MP6YQMJD0Z3DG4HK978","3L0KT67Y8GMQWPOK808SIVXSJHNSY1","emotion","mismatch","uniform","","","","","","","1437.2000000178814","538469.599999994","539906.8000000119","[""stimuli/HF02_HE.jpg"",""stimuli/BF05_SC.jpg"",""stimuli/WM11_DO.jpg"",""stimuli/BM07_SUR.jpg""]","stimuli/HF02_HE.jpg","stimuli/BF05_SC.jpg","stimuli/WM11_DO.jpg","stimuli/BM07_SUR.jpg","pos1","stimuli/HF02_HE.jpg","HE","HF02","0","4.5","9","8","stimuli/stars_9.png","303.5","[""HE"",""SC"",""DO"",""SUR""]","[""HF02"",""BF05"",""WM11"",""BM07""]","[9,6,0,6]","[8,4,2,6]","","",""
"show-reward","182","540497","0.0-182.0","p39056","A2CF2BD4Q0ZDJN","3RDTX9JRTZ7MP6YQMJD0Z3DG4HK978","3L0KT67Y8GMQWPOK808SIVXSJHNSY1","emotion","mismatch","uniform","","","","","","","","540409.6999999881","542413","","","","","","","","","","","","9","","stimuli/stars_9.png","303.5","","","","","stimuli/HF02_HE.jpg","",""
"explore-choice","183","542787","0.0-183.0","p39056","A2CF2BD4Q0ZDJN","3RDTX9JRTZ7MP6YQMJD0Z3DG4HK978","3L0KT67Y8GMQWPOK808SIVXSJHNSY1","emotion","mismatch","uniform","","","","","","","1787.1000000238419","542415.1999999881","544202.3000000119","[""stimuli/HF02_SUR.jpg"",""stimuli/WM11_HE.jpg"",""stimuli/BM07_SC.jpg"",""stimuli/BF05_DO.jpg""]","stimuli/HF02_SUR.jpg","stimuli/WM11_HE.jpg","stimuli/BM07_SC.jpg","stimuli/BF05_DO.jpg","pos1","stimuli/HF02_SUR.jpg","SUR","HF02","0","4.5","9","8","stimuli/stars_9.png","308","[""SUR"",""HE"",""SC"",""DO""]","[""HF02"",""WM11"",""BM07"",""BF05""]","[9,1,8,6]","[8,2,6,4]","","",""
"show-reward","184","544792","0.0-184.0","p39056","A2CF2BD4Q0ZDJN","3RDTX9JRTZ7MP6YQMJD0Z3DG4HK978","3L0KT67Y8GMQWPOK808SIVXSJHNSY1","emotion","mismatch","uniform","","","","","","","","544704.8000000119","546707.900000006","","","","","","","","","","","","9","","stimuli/stars_9.png","308","","","","","stimuli/HF02_SUR.jpg","",""
"explore-choice","185","549083","0.0-185.0","p39056","A2CF2BD4Q0ZDJN","3RDTX9JRTZ7MP6YQMJD0Z3DG4HK978","3L0KT67Y8GMQWPOK808SIVXSJHNSY1","emotion","mismatch","uniform","","","","","","","3788.7999999821186","546709.900000006","550498.6999999881","[""stimuli/HF02_DO.jpg"",""stimuli/BM07_SUR.jpg"",""stimuli/BF05_SC.jpg"",""stimuli/WM11_HE.jpg""]","stimuli/HF02_DO.jpg","stimuli/BM07_SUR.jpg","stimuli/BF05_SC.jpg","stimuli/WM11_HE.jpg","pos2","stimuli/BM07_SUR.jpg","SUR","BM07","1","3.5","7","6","stimuli/stars_7.png","311.5","[""DO"",""SUR"",""SC"",""HE""]","[""HF02"",""BM07"",""BF05"",""WM11""]","[8,7,4,1]","[8,6,4,2]","","",""
"show-reward","186","551087","0.0-186.0","p39056","A2CF2BD4Q0ZDJN","3RDTX9JRTZ7MP6YQMJD0Z3DG4HK978","3L0KT67Y8GMQWPOK808SIVXSJHNSY1","emotion","mismatch","uniform","","","","","","","","551001","553003.3000000119","","","","","","","","","","","","7","","stimuli/stars_7.png","311.5","","","","","stimuli/BM07_SUR.jpg","",""
"explore-choice","187","555379","0.0-187.0","p39056","A2CF2BD4Q0ZDJN","3RDTX9JRTZ7MP6YQMJD0Z3DG4HK978","3L0KT67Y8GMQWPOK808SIVXSJHNSY1","emotion","mismatch","uniform","","","","","","","3789.9000000059605","553004.900000006","556794.8000000119","[""stimuli/WM11_SC.jpg"",""stimuli/BF05_SUR.jpg"",""stimuli/BM07_HE.jpg"",""stimuli/HF02_DO.jpg""]","stimuli/WM11_SC.jpg","stimuli/BF05_SUR.jpg","stimuli/BM07_HE.jpg","stimuli/HF02_DO.jpg","pos3","stimuli/BM07_HE.jpg","HE","BM07","2","4","8","6","stimuli/stars_8.png","315.5","[""SC"",""SUR"",""HE"",""DO""]","[""WM11"",""BF05"",""BM07"",""HF02""]","[4,4,8,8]","[2,4,6,8]","","",""
"show-reward","188","557383","0.0-188.0","p39056","A2CF2BD4Q0ZDJN","3RDTX9JRTZ7MP6YQMJD0Z3DG4HK978","3L0KT67Y8GMQWPOK808SIVXSJHNSY1","emotion","mismatch","uniform","","","","","","","","557296.5","559298.6999999881","","","","","","","","","","","","8","","stimuli/stars_8.png","315.5","","","","","stimuli/BM07_HE.jpg","",""
"explore-choice","189","561843","0.0-189.0","p39056","A2CF2BD4Q0ZDJN","3RDTX9JRTZ7MP6YQMJD0Z3DG4HK978","3L0KT67Y8GMQWPOK808SIVXSJHNSY1","emotion","mismatch","uniform","","","","","","","3957.5","559300.6999999881","563258.1999999881","[""stimuli/BF05_HE.jpg"",""stimuli/BM07_SUR.jpg"",""stimuli/WM11_SC.jpg"",""stimuli/HF02_DO.jpg""]","stimuli/BF05_HE.jpg","stimuli/BM07_SUR.jpg","stimuli/WM11_SC.jpg","stimuli/HF02_DO.jpg","pos2","stimuli/BM07_SUR.jpg","SUR","BM07","1","2.5","5","6","stimuli/stars_5.png","318","[""HE"",""SUR"",""SC"",""DO""]","[""BF05"",""BM07"",""WM11"",""HF02""]","[2,5,4,7]","[4,6,2,8]","","",""
"show-reward","190","563849","0.0-190.0","p39056","A2CF2BD4Q0ZDJN","3RDTX9JRTZ7MP6YQMJD0Z3DG4HK978","3L0KT67Y8GMQWPOK808SIVXSJHNSY1","emotion","mismatch","uniform","","","","","","","","563761.099999994","565765","","","","","","","","","","","","5","","stimuli/stars_5.png","318","","","","","stimuli/BM07_SUR.jpg","",""
"explore-choice","191","565995","0.0-191.0","p39056","A2CF2BD4Q0ZDJN","3RDTX9JRTZ7MP6YQMJD0Z3DG4HK978","3L0KT67Y8GMQWPOK808SIVXSJHNSY1","emotion","mismatch","uniform","","","","","","","1643.5999999940395","565767.099999994","567410.6999999881","[""stimuli/BF05_HE.jpg"",""stimuli/BM07_SC.jpg"",""stimuli/WM11_SUR.jpg"",""stimuli/HF02_DO.jpg""]","stimuli/BF05_HE.jpg","stimuli/BM07_SC.jpg","stimuli/WM11_SUR.jpg","stimuli/HF02_DO.jpg","pos4","stimuli/HF02_DO.jpg","DO","HF02","3","4.5","9","8","stimuli/stars_9.png","322.5","[""HE"",""SC"",""SUR"",""DO""]","[""BF05"",""BM07"",""WM11"",""HF02""]","[5,8,1,9]","[4,6,2,8]","","",""
"show-reward","192","568001","0.0-192.0","p39056","A2CF2BD4Q0ZDJN","3RDTX9JRTZ7MP6YQMJD0Z3DG4HK978","3L0KT67Y8GMQWPOK808SIVXSJHNSY1","emotion","mismatch","uniform","","","","","","","","567913.099999994","569916.5","","","","","","","","","","","","9","","stimuli/stars_9.png","322.5","","","","","stimuli/HF02_DO.jpg","",""
"explore-choice","193","570595","0.0-193.0","p39056","A2CF2BD4Q0ZDJN","3RDTX9JRTZ7MP6YQMJD0Z3DG4HK978","3L0KT67Y8GMQWPOK808SIVXSJHNSY1","emotion","mismatch","uniform","","","","","","","2091.800000011921","569918.599999994","572010.400000006","[""stimuli/WM11_HE.jpg"",""stimuli/HF02_DO.jpg"",""stimuli/BM07_SC.jpg"",""stimuli/BF05_SUR.jpg""]","stimuli/WM11_HE.jpg","stimuli/HF02_DO.jpg","stimuli/BM07_SC.jpg","stimuli/BF05_SUR.jpg","pos2","stimuli/HF02_DO.jpg","DO","HF02","1","3.5","7","8","stimuli/stars_7.png","326","[""HE"",""DO"",""SC"",""SUR""]","[""WM11"",""HF02"",""BM07"",""BF05""]","[1,7,7,6]","[2,8,6,4]","","",""
"show-reward","194","572601","0.0-194.0","p39056","A2CF2BD4Q0ZDJN","3RDTX9JRTZ7MP6YQMJD0Z3DG4HK978","3L0KT67Y8GMQWPOK808SIVXSJHNSY1","emotion","mismatch","uniform","","","","","","","","572513","574516.599999994","","","","","","","","","","","","7","","stimuli/stars_7.png","326","","","","","stimuli/HF02_DO.jpg","",""
"explore-choice","195","575475","0.0-195.0","p39056","A2CF2BD4Q0ZDJN","3RDTX9JRTZ7MP6YQMJD0Z3DG4HK978","3L0KT67Y8GMQWPOK808SIVXSJHNSY1","emotion","mismatch","uniform","","","","","","","2371.399999976158","574518.8000000119","576890.1999999881","[""stimuli/WM11_SC.jpg"",""stimuli/BF05_HE.jpg"",""stimuli/BM07_DO.jpg"",""stimuli/HF02_SUR.jpg""]","stimuli/WM11_SC.jpg","stimuli/BF05_HE.jpg","stimuli/BM07_DO.jpg","stimuli/HF02_SUR.jpg","pos4","stimuli/HF02_SUR.jpg","SUR","HF02","3","3","6","8","stimuli/stars_6.png","329","[""SC"",""HE"",""DO"",""SUR""]","[""WM11"",""BF05"",""BM07"",""HF02""]","[0,3,8,6]","[2,4,6,8]","","",""
"show-reward","196","577483","0.0-196.0","p39056","A2CF2BD4Q0ZDJN","3RDTX9JRTZ7MP6YQMJD0Z3DG4HK978","3L0KT67Y8GMQWPOK808SIVXSJHNSY1","emotion","mismatch","uniform","","","","","","","","577392.6999999881","579398.8000000119","","","","","","","","","","","","6","","stimuli/stars_6.png","329","","","","","stimuli/HF02_SUR.jpg","",""
"explore-choice","197","581547","0.0-197.0","p39056","A2CF2BD4Q0ZDJN","3RDTX9JRTZ7MP6YQMJD0Z3DG4HK978","3L0KT67Y8GMQWPOK808SIVXSJHNSY1","emotion","mismatch","uniform","","","","","","","3563.199999988079","579399.8000000119","582963","[""stimuli/HF02_SC.jpg"",""stimuli/WM11_HE.jpg"",""stimuli/BM07_SUR.jpg"",""stimuli/BF05_DO.jpg""]","stimuli/HF02_SC.jpg","stimuli/WM11_HE.jpg","stimuli/BM07_SUR.jpg","stimuli/BF05_DO.jpg","pos3","stimuli/BM07_SUR.jpg","SUR","BM07","2","2.5","5","6","stimuli/stars_5.png","331.5","[""SC"",""HE"",""SUR"",""DO""]","[""HF02"",""WM11"",""BM07"",""BF05""]","[10,0,5,2]","[8,2,6,4]","","",""
"show-reward","198","583551","0.0-198.0","p39056","A2CF2BD4Q0ZDJN","3RDTX9JRTZ7MP6YQMJD0Z3DG4HK978","3L0KT67Y8GMQWPOK808SIVXSJHNSY1","emotion","mismatch","uniform","","","","","","","","583464.8000000119","585467.1999999881","","","","","","","","","","","","5","","stimuli/stars_5.png","331.5","","","","","stimuli/BM07_SUR.jpg","",""
"instructions","199","588648","0.0-199.0","p39056","A2CF2BD4Q0ZDJN","3RDTX9JRTZ7MP6YQMJD0Z3DG4HK978","3L0KT67Y8GMQWPOK808SIVXSJHNSY1","emotion","mismatch","uniform","","","","","","[{""page_index"":0,""viewing_time"":5094.300000011921}]","5095.9000000059605","","","","","","","","","","","","","","","","","","","","","","","",""
"survey-text","200","593862","0.0-200.0-0.0","p39056","A2CF2BD4Q0ZDJN","3RDTX9JRTZ7MP6YQMJD0Z3DG4HK978","3L0KT67Y8GMQWPOK808SIVXSJHNSY1","emotion","mismatch","uniform","","","","","","","5207.299999982119","","","","","","","","","","","","","","","","","","","","","","","{""age"":""60""}",""
"survey-text","201","598885","0.0-200.0-1.0","p39056","A2CF2BD4Q0ZDJN","3RDTX9JRTZ7MP6YQMJD0Z3DG4HK978","3L0KT67Y8GMQWPOK808SIVXSJHNSY1","emotion","mismatch","uniform","","","","","","","5020.9000000059605","","","","","","","","","","","","","","","","","","","","","","","{""gender"":""male""}",""
"survey-text","202","609222","0.0-200.0-2.0","p39056","A2CF2BD4Q0ZDJN","3RDTX9JRTZ7MP6YQMJD0Z3DG4HK978","3L0KT67Y8GMQWPOK808SIVXSJHNSY1","emotion","mismatch","uniform","","","","","","","10334","","","","","","","","","","","","","","","","","","","","","","","{""country"":""United States""}",""
"survey-text","203","622791","0.0-200.0-3.0","p39056","A2CF2BD4Q0ZDJN","3RDTX9JRTZ7MP6YQMJD0Z3DG4HK978","3L0KT67Y8GMQWPOK808SIVXSJHNSY1","emotion","mismatch","uniform","","","","","","","13566.299999982119","","","","","","","","","","","","","","","","","","","","","","","{""language"":""English"",""other_languages"":""""}",""
"survey-multi-select","204","625208","0.0-201.0","p39056","A2CF2BD4Q0ZDJN","3RDTX9JRTZ7MP6YQMJD0Z3DG4HK978","3L0KT67Y8GMQWPOK808SIVXSJHNSY1","emotion","mismatch","uniform","","","","","","","2406.199999988079","","","","","","","","","","","","","","","","","","","","","","","{""race"":[""White""]}","[0]"
"survey-multi-choice","205","627968","0.0-202.0","p39056","A2CF2BD4Q0ZDJN","3RDTX9JRTZ7MP6YQMJD0Z3DG4HK978","3L0KT67Y8GMQWPOK808SIVXSJHNSY1","emotion","mismatch","uniform","","","","","","","2754.199999988079","","","","","","","","","","","","","","","","","","","","","","","{""education"":""Bachelor's degree""}","[0]"
"survey-text","206","685024","0.0-203.0","p39056","A2CF2BD4Q0ZDJN","3RDTX9JRTZ7MP6YQMJD0Z3DG4HK978","3L0KT67Y8GMQWPOK808SIVXSJHNSY1","emotion","mismatch","uniform","","","","","","","57032.40000000596","","","","","","","","","","","","","","","","","","","","","","","{""patterns"":""I thought generally positive expressions were worth more but there were exceptions"",""strategy"":""I just tried to sample the different expressions to get an idea of their value."",""comments"":""""}",""
