"trial_type","trial_index","time_elapsed","internal_node_id","subject","workerId","hitId","assignmentId","structure_condition","match_condition","noise_type","success","timeout","failed_images","failed_audio","failed_video","view_history","rt","start_time","end_time","stimuli","image1","image2","image3","image4","choiceLocation","choiceImage","choiceEmotion","choiceModel","choice_index","reward_score","reward","reward_score_unadjusted","reward_image","score_after_trial","emotions","models","rewards","rewards_unadjusted","stimulus","response","question_order"
"pavlovia","0","7","0.0-0.0","p332530","A1XBKS1U674XFA","3RZS0FBRWLGDTA9TUPH81F59AWHPC0","3XIQGXAUMEEFDMEIF1OF4QUNUWU7XZ","model","match","uniform","","","","","","","","","","","","","","","","","","","","","","","","","","","","","","",""
"preload","1","26683","0.0-1.0","p332530","A1XBKS1U674XFA","3RZS0FBRWLGDTA9TUPH81F59AWHPC0","3XIQGXAUMEEFDMEIF1OF4QUNUWU7XZ","model","match","uniform","true","false","[]","[]","[]","","","","","","","","","","","","","","","","","","","","","","","","","",""
"fullscreen","2","31430","0.0-2.0","p332530","A1XBKS1U674XFA","3RZS0FBRWLGDTA9TUPH81F59AWHPC0","3XIQGXAUMEEFDMEIF1OF4QUNUWU7XZ","model","match","uniform","true","","","","","","","","","","","","","","","","","","","","","","","","","","","","","",""
"instructions","3","35741","0.0-3.0","p332530","A1XBKS1U674XFA","3RZS0FBRWLGDTA9TUPH81F59AWHPC0","3XIQGXAUMEEFDMEIF1OF4QUNUWU7XZ","model","match","uniform","","","","","","[{""page_index"":0,""viewing_time"":4309.399999976158}]","4310.5","","","","","","","","","","","","","","","","","","","","","","","",""
"explore-choice","4","39221","0.0-4.0","p332530","A1XBKS1U674XFA","3RZS0FBRWLGDTA9TUPH81F59AWHPC0","3XIQGXAUMEEFDMEIF1OF4QUNUWU7XZ","model","match","uniform","","","","","","","2963.2000000476837","38543","41506.200000047684","[""stimuli/sheep.jpg"",""stimuli/hammer.jpg"",""stimuli/basketball.jpg"",""stimuli/horse.jpg""]","stimuli/sheep.jpg","stimuli/hammer.jpg","stimuli/basketball.jpg","stimuli/horse.jpg","pos4","stimuli/horse.jpg","","","3","64","64","64","stimuli/stars_8.png","65","","","","","","",""
"explore-choice","5","41889","0.0-5.0","p332530","A1XBKS1U674XFA","3RZS0FBRWLGDTA9TUPH81F59AWHPC0","3XIQGXAUMEEFDMEIF1OF4QUNUWU7XZ","model","match","uniform","","","","","","","2157.3000000715256","42022.5","44179.800000071526","[""stimuli/hammer.jpg"",""stimuli/basketball.jpg"",""stimuli/horse.jpg"",""stimuli/sheep.jpg""]","stimuli/hammer.jpg","stimuli/basketball.jpg","stimuli/horse.jpg","stimuli/sheep.jpg","pos1","stimuli/hammer.jpg","","","0","8","8","8","stimuli/stars_2.png","9","","","","","","",""
"instructions","6","66010","0.0-6.0","p332530","A1XBKS1U674XFA","3RZS0FBRWLGDTA9TUPH81F59AWHPC0","3XIQGXAUMEEFDMEIF1OF4QUNUWU7XZ","model","match","uniform","","","","","","[{""page_index"":0,""viewing_time"":24118.799999952316}]","24119.100000023842","","","","","","","","","","","","","","","","","","","","","","","",""
"explore-choice","7","69866","0.0-7.0","p332530","A1XBKS1U674XFA","3RZS0FBRWLGDTA9TUPH81F59AWHPC0","3XIQGXAUMEEFDMEIF1OF4QUNUWU7XZ","model","match","uniform","","","","","","","3352.4000000953674","68811.89999997616","72164.30000007153","[""stimuli/WF11_HE.jpg"",""stimuli/AF09_SUR.jpg"",""stimuli/HM10_DO.jpg"",""stimuli/HF09_CC.jpg""]","stimuli/WF11_HE.jpg","stimuli/AF09_SUR.jpg","stimuli/HM10_DO.jpg","stimuli/HF09_CC.jpg","pos4","stimuli/HF09_CC.jpg","CC","HF09","3","3","6","4","stimuli/stars_6.png","4","[""HE"",""SUR"",""DO"",""CC""]","[""WF11"",""AF09"",""HM10"",""HF09""]","[5,3,7,6]","[6,2,8,4]","","",""
"show-reward","8","71871","0.0-8.0","p332530","A1XBKS1U674XFA","3RZS0FBRWLGDTA9TUPH81F59AWHPC0","3XIQGXAUMEEFDMEIF1OF4QUNUWU7XZ","model","match","uniform","","","","","","","","72669","74671.5","","","","","","","","","","","","6","","stimuli/stars_6.png","4","","","","","stimuli/HF09_CC.jpg","",""
"explore-choice","9","74919","0.0-9.0","p332530","A1XBKS1U674XFA","3RZS0FBRWLGDTA9TUPH81F59AWHPC0","3XIQGXAUMEEFDMEIF1OF4QUNUWU7XZ","model","match","uniform","","","","","","","2536.6999999284744","74673.20000004768","77209.89999997616","[""stimuli/HM10_HE.jpg"",""stimuli/HF09_SUR.jpg"",""stimuli/WF11_DO.jpg"",""stimuli/AF09_CC.jpg""]","stimuli/HM10_HE.jpg","stimuli/HF09_SUR.jpg","stimuli/WF11_DO.jpg","stimuli/AF09_CC.jpg","pos3","stimuli/WF11_DO.jpg","DO","WF11","2","2.5","5","6","stimuli/stars_5.png","6.5","[""HE"",""SUR"",""DO"",""CC""]","[""HM10"",""HF09"",""WF11"",""AF09""]","[8,6,5,0]","[8,4,6,2]","","",""
"show-reward","10","76936","0.0-10.0","p332530","A1XBKS1U674XFA","3RZS0FBRWLGDTA9TUPH81F59AWHPC0","3XIQGXAUMEEFDMEIF1OF4QUNUWU7XZ","model","match","uniform","","","","","","","","77720.60000002384","79736.5","","","","","","","","","","","","5","","stimuli/stars_5.png","6.5","","","","","stimuli/WF11_DO.jpg","",""
"explore-choice","11","80225","0.0-11.0","p332530","A1XBKS1U674XFA","3RZS0FBRWLGDTA9TUPH81F59AWHPC0","3XIQGXAUMEEFDMEIF1OF4QUNUWU7XZ","model","match","uniform","","","","","","","2779.399999976158","79737.80000007153","82517.20000004768","[""stimuli/HM10_SUR.jpg"",""stimuli/HF09_DO.jpg"",""stimuli/WF11_CC.jpg"",""stimuli/AF09_HE.jpg""]","stimuli/HM10_SUR.jpg","stimuli/HF09_DO.jpg","stimuli/WF11_CC.jpg","stimuli/AF09_HE.jpg","pos2","stimuli/HF09_DO.jpg","DO","HF09","1","1","2","4","stimuli/stars_2.png","7.5","[""SUR"",""DO"",""CC"",""HE""]","[""HM10"",""HF09"",""WF11"",""AF09""]","[8,2,4,1]","[8,4,6,2]","","",""
"show-reward","12","82238","0.0-12.0","p332530","A1XBKS1U674XFA","3RZS0FBRWLGDTA9TUPH81F59AWHPC0","3XIQGXAUMEEFDMEIF1OF4QUNUWU7XZ","model","match","uniform","","","","","","","","83027.20000004768","85038.39999997616","","","","","","","","","","","","2","","stimuli/stars_2.png","7.5","","","","","stimuli/HF09_DO.jpg","",""
"explore-choice","13","84857","0.0-13.0","p332530","A1XBKS1U674XFA","3RZS0FBRWLGDTA9TUPH81F59AWHPC0","3XIQGXAUMEEFDMEIF1OF4QUNUWU7XZ","model","match","uniform","","","","","","","2106.7000000476837","85039.5","87146.20000004768","[""stimuli/HF09_SUR.jpg"",""stimuli/WF11_DO.jpg"",""stimuli/AF09_HE.jpg"",""stimuli/HM10_CC.jpg""]","stimuli/HF09_SUR.jpg","stimuli/WF11_DO.jpg","stimuli/AF09_HE.jpg","stimuli/HM10_CC.jpg","pos1","stimuli/HF09_SUR.jpg","SUR","HF09","0","1","2","4","stimuli/stars_2.png","8.5","[""SUR"",""DO"",""HE"",""CC""]","[""HF09"",""WF11"",""AF09"",""HM10""]","[2,7,0,8]","[4,6,2,8]","","",""
"show-reward","14","86868","0.0-14.0","p332530","A1XBKS1U674XFA","3RZS0FBRWLGDTA9TUPH81F59AWHPC0","3XIQGXAUMEEFDMEIF1OF4QUNUWU7XZ","model","match","uniform","","","","","","","","87658.70000004768","89668.39999997616","","","","","","","","","","","","2","","stimuli/stars_2.png","8.5","","","","","stimuli/HF09_SUR.jpg","",""
"explore-choice","15","89264","0.0-15.0","p332530","A1XBKS1U674XFA","3RZS0FBRWLGDTA9TUPH81F59AWHPC0","3XIQGXAUMEEFDMEIF1OF4QUNUWU7XZ","model","match","uniform","","","","","","","1883.6000000238419","89669.5","91553.10000002384","[""stimuli/HM10_HE.jpg"",""stimuli/AF09_DO.jpg"",""stimuli/HF09_CC.jpg"",""stimuli/WF11_SUR.jpg""]","stimuli/HM10_HE.jpg","stimuli/AF09_DO.jpg","stimuli/HF09_CC.jpg","stimuli/WF11_SUR.jpg","pos1","stimuli/HM10_HE.jpg","HE","HM10","0","3","6","8","stimuli/stars_6.png","11.5","[""HE"",""DO"",""CC"",""SUR""]","[""HM10"",""AF09"",""HF09"",""WF11""]","[6,2,2,5]","[8,2,4,6]","","",""
"show-reward","16","91283","0.0-16.0","p332530","A1XBKS1U674XFA","3RZS0FBRWLGDTA9TUPH81F59AWHPC0","3XIQGXAUMEEFDMEIF1OF4QUNUWU7XZ","model","match","uniform","","","","","","","","92065.70000004768","94082.80000007153","","","","","","","","","","","","6","","stimuli/stars_6.png","11.5","","","","","stimuli/HM10_HE.jpg","",""
"explore-choice","17","93889","0.0-17.0","p332530","A1XBKS1U674XFA","3RZS0FBRWLGDTA9TUPH81F59AWHPC0","3XIQGXAUMEEFDMEIF1OF4QUNUWU7XZ","model","match","uniform","","","","","","","2104.399999976158","94084.20000004768","96188.60000002384","[""stimuli/HM10_SUR.jpg"",""stimuli/AF09_DO.jpg"",""stimuli/WF11_HE.jpg"",""stimuli/HF09_CC.jpg""]","stimuli/HM10_SUR.jpg","stimuli/AF09_DO.jpg","stimuli/WF11_HE.jpg","stimuli/HF09_CC.jpg","pos1","stimuli/HM10_SUR.jpg","SUR","HM10","0","4.5","9","8","stimuli/stars_9.png","16","[""SUR"",""DO"",""HE"",""CC""]","[""HM10"",""AF09"",""WF11"",""HF09""]","[9,1,7,6]","[8,2,6,4]","","",""
"show-reward","18","95899","0.0-18.0","p332530","A1XBKS1U674XFA","3RZS0FBRWLGDTA9TUPH81F59AWHPC0","3XIQGXAUMEEFDMEIF1OF4QUNUWU7XZ","model","match","uniform","","","","","","","","96690.5","98699.39999997616","","","","","","","","","","","","9","","stimuli/stars_9.png","16","","","","","stimuli/HM10_SUR.jpg","",""
"explore-choice","19","98518","0.0-19.0","p332530","A1XBKS1U674XFA","3RZS0FBRWLGDTA9TUPH81F59AWHPC0","3XIQGXAUMEEFDMEIF1OF4QUNUWU7XZ","model","match","uniform","","","","","","","2107.100000023842","98700.60000002384","100807.70000004768","[""stimuli/WF11_DO.jpg"",""stimuli/HF09_HE.jpg"",""stimuli/AF09_CC.jpg"",""stimuli/HM10_SUR.jpg""]","stimuli/WF11_DO.jpg","stimuli/HF09_HE.jpg","stimuli/AF09_CC.jpg","stimuli/HM10_SUR.jpg","pos1","stimuli/WF11_DO.jpg","DO","WF11","0","4","8","6","stimuli/stars_8.png","20","[""DO"",""HE"",""CC"",""SUR""]","[""WF11"",""HF09"",""AF09"",""HM10""]","[8,3,2,7]","[6,4,2,8]","","",""
"show-reward","20","100532","0.0-20.0","p332530","A1XBKS1U674XFA","3RZS0FBRWLGDTA9TUPH81F59AWHPC0","3XIQGXAUMEEFDMEIF1OF4QUNUWU7XZ","model","match","uniform","","","","","","","","101319.39999997616","103332.5","","","","","","","","","","","","8","","stimuli/stars_8.png","20","","","","","stimuli/WF11_DO.jpg","",""
"explore-choice","21","102905","0.0-21.0","p332530","A1XBKS1U674XFA","3RZS0FBRWLGDTA9TUPH81F59AWHPC0","3XIQGXAUMEEFDMEIF1OF4QUNUWU7XZ","model","match","uniform","","","","","","","1864.9000000953674","103333.39999997616","105198.30000007153","[""stimuli/HF09_HE.jpg"",""stimuli/WF11_CC.jpg"",""stimuli/AF09_DO.jpg"",""stimuli/HM10_SUR.jpg""]","stimuli/HF09_HE.jpg","stimuli/WF11_CC.jpg","stimuli/AF09_DO.jpg","stimuli/HM10_SUR.jpg","pos4","stimuli/HM10_SUR.jpg","SUR","HM10","3","5","10","8","stimuli/stars_10.png","25","[""HE"",""CC"",""DO"",""SUR""]","[""HF09"",""WF11"",""AF09"",""HM10""]","[2,6,3,10]","[4,6,2,8]","","",""
"show-reward","22","104911","0.0-22.0","p332530","A1XBKS1U674XFA","3RZS0FBRWLGDTA9TUPH81F59AWHPC0","3XIQGXAUMEEFDMEIF1OF4QUNUWU7XZ","model","match","uniform","","","","","","","","105706","107710.80000007153","","","","","","","","","","","","10","","stimuli/stars_10.png","25","","","","","stimuli/HM10_SUR.jpg","",""
"explore-choice","23","107308","0.0-23.0","p332530","A1XBKS1U674XFA","3RZS0FBRWLGDTA9TUPH81F59AWHPC0","3XIQGXAUMEEFDMEIF1OF4QUNUWU7XZ","model","match","uniform","","","","","","","1892.5","107712","109604.5","[""stimuli/WF11_CC.jpg"",""stimuli/AF09_SUR.jpg"",""stimuli/HF09_HE.jpg"",""stimuli/HM10_DO.jpg""]","stimuli/WF11_CC.jpg","stimuli/AF09_SUR.jpg","stimuli/HF09_HE.jpg","stimuli/HM10_DO.jpg","pos4","stimuli/HM10_DO.jpg","DO","HM10","3","4.5","9","8","stimuli/stars_9.png","29.5","[""CC"",""SUR"",""HE"",""DO""]","[""WF11"",""AF09"",""HF09"",""HM10""]","[8,1,2,9]","[6,2,4,8]","","",""
"show-reward","24","109320","0.0-24.0","p332530","A1XBKS1U674XFA","3RZS0FBRWLGDTA9TUPH81F59AWHPC0","3XIQGXAUMEEFDMEIF1OF4QUNUWU7XZ","model","match","uniform","","","","","","","","110109.5","112119.89999997616","","","","","","","","","","","","9","","stimuli/stars_9.png","29.5","","","","","stimuli/HM10_DO.jpg","",""
"explore-choice","25","112408","0.0-25.0","p332530","A1XBKS1U674XFA","3RZS0FBRWLGDTA9TUPH81F59AWHPC0","3XIQGXAUMEEFDMEIF1OF4QUNUWU7XZ","model","match","uniform","","","","","","","2572.0999999046326","112121.30000007153","114693.39999997616","[""stimuli/WF11_HE.jpg"",""stimuli/HM10_CC.jpg"",""stimuli/AF09_DO.jpg"",""stimuli/HF09_SUR.jpg""]","stimuli/WF11_HE.jpg","stimuli/HM10_CC.jpg","stimuli/AF09_DO.jpg","stimuli/HF09_SUR.jpg","pos4","stimuli/HF09_SUR.jpg","SUR","HF09","3","3","6","4","stimuli/stars_6.png","32.5","[""HE"",""CC"",""DO"",""SUR""]","[""WF11"",""HM10"",""AF09"",""HF09""]","[6,6,3,6]","[6,8,2,4]","","",""
"show-reward","26","114415","0.0-26.0","p332530","A1XBKS1U674XFA","3RZS0FBRWLGDTA9TUPH81F59AWHPC0","3XIQGXAUMEEFDMEIF1OF4QUNUWU7XZ","model","match","uniform","","","","","","","","115209.5","117215.5","","","","","","","","","","","","6","","stimuli/stars_6.png","32.5","","","","","stimuli/HF09_SUR.jpg","",""
"explore-choice","27","116792","0.0-27.0","p332530","A1XBKS1U674XFA","3RZS0FBRWLGDTA9TUPH81F59AWHPC0","3XIQGXAUMEEFDMEIF1OF4QUNUWU7XZ","model","match","uniform","","","","","","","1869.1000000238419","117216.70000004768","119085.80000007153","[""stimuli/HF09_CC.jpg"",""stimuli/WF11_SUR.jpg"",""stimuli/AF09_HE.jpg"",""stimuli/HM10_DO.jpg""]","stimuli/HF09_CC.jpg","stimuli/WF11_SUR.jpg","stimuli/AF09_HE.jpg","stimuli/HM10_DO.jpg","pos4","stimuli/HM10_DO.jpg","DO","HM10","3","5","10","8","stimuli/stars_10.png","37.5","[""CC"",""SUR"",""HE"",""DO""]","[""HF09"",""WF11"",""AF09"",""HM10""]","[2,8,4,10]","[4,6,2,8]","","",""
"show-reward","28","118804","0.0-28.0","p332530","A1XBKS1U674XFA","3RZS0FBRWLGDTA9TUPH81F59AWHPC0","3XIQGXAUMEEFDMEIF1OF4QUNUWU7XZ","model","match","uniform","","","","","","","","119593.5","121604.60000002384","","","","","","","","","","","","10","","stimuli/stars_10.png","37.5","","","","","stimuli/HM10_DO.jpg","",""
"explore-choice","29","121455","0.0-29.0","p332530","A1XBKS1U674XFA","3RZS0FBRWLGDTA9TUPH81F59AWHPC0","3XIQGXAUMEEFDMEIF1OF4QUNUWU7XZ","model","match","uniform","","","","","","","2135","121605.80000007153","123740.80000007153","[""stimuli/WF11_CC.jpg"",""stimuli/HF09_SUR.jpg"",""stimuli/AF09_DO.jpg"",""stimuli/HM10_HE.jpg""]","stimuli/WF11_CC.jpg","stimuli/HF09_SUR.jpg","stimuli/AF09_DO.jpg","stimuli/HM10_HE.jpg","pos4","stimuli/HM10_HE.jpg","HE","HM10","3","4","8","8","stimuli/stars_8.png","41.5","[""CC"",""SUR"",""DO"",""HE""]","[""WF11"",""HF09"",""AF09"",""HM10""]","[7,6,3,8]","[6,4,2,8]","","",""
"show-reward","30","123470","0.0-30.0","p332530","A1XBKS1U674XFA","3RZS0FBRWLGDTA9TUPH81F59AWHPC0","3XIQGXAUMEEFDMEIF1OF4QUNUWU7XZ","model","match","uniform","","","","","","","","124256.39999997616","126270.30000007153","","","","","","","","","","","","8","","stimuli/stars_8.png","41.5","","","","","stimuli/HM10_HE.jpg","",""
"explore-choice","31","125391","0.0-31.0","p332530","A1XBKS1U674XFA","3RZS0FBRWLGDTA9TUPH81F59AWHPC0","3XIQGXAUMEEFDMEIF1OF4QUNUWU7XZ","model","match","uniform","","","","","","","1417","126271.5","127688.5","[""stimuli/AF09_CC.jpg"",""stimuli/HF09_SUR.jpg"",""stimuli/HM10_DO.jpg"",""stimuli/WF11_HE.jpg""]","stimuli/AF09_CC.jpg","stimuli/HF09_SUR.jpg","stimuli/HM10_DO.jpg","stimuli/WF11_HE.jpg","pos3","stimuli/HM10_DO.jpg","DO","HM10","2","4.5","9","8","stimuli/stars_9.png","46","[""CC"",""SUR"",""DO"",""HE""]","[""AF09"",""HF09"",""HM10"",""WF11""]","[2,4,9,8]","[2,4,8,6]","","",""
"show-reward","32","127401","0.0-32.0","p332530","A1XBKS1U674XFA","3RZS0FBRWLGDTA9TUPH81F59AWHPC0","3XIQGXAUMEEFDMEIF1OF4QUNUWU7XZ","model","match","uniform","","","","","","","","128192.5","130201.70000004768","","","","","","","","","","","","9","","stimuli/stars_9.png","46","","","","","stimuli/HM10_DO.jpg","",""
"explore-choice","33","129776","0.0-33.0","p332530","A1XBKS1U674XFA","3RZS0FBRWLGDTA9TUPH81F59AWHPC0","3XIQGXAUMEEFDMEIF1OF4QUNUWU7XZ","model","match","uniform","","","","","","","1864","130202.60000002384","132066.60000002384","[""stimuli/AF09_SUR.jpg"",""stimuli/HM10_HE.jpg"",""stimuli/WF11_DO.jpg"",""stimuli/HF09_CC.jpg""]","stimuli/AF09_SUR.jpg","stimuli/HM10_HE.jpg","stimuli/WF11_DO.jpg","stimuli/HF09_CC.jpg","pos3","stimuli/WF11_DO.jpg","DO","WF11","2","3.5","7","6","stimuli/stars_7.png","49.5","[""SUR"",""HE"",""DO"",""CC""]","[""AF09"",""HM10"",""WF11"",""HF09""]","[2,9,7,4]","[2,8,6,4]","","",""
"show-reward","34","131783","0.0-34.0","p332530","A1XBKS1U674XFA","3RZS0FBRWLGDTA9TUPH81F59AWHPC0","3XIQGXAUMEEFDMEIF1OF4QUNUWU7XZ","model","match","uniform","","","","","","","","132577.20000004768","134583.60000002384","","","","","","","","","","","","7","","stimuli/stars_7.png","49.5","","","","","stimuli/WF11_DO.jpg","",""
"explore-choice","35","134626","0.0-35.0","p332530","A1XBKS1U674XFA","3RZS0FBRWLGDTA9TUPH81F59AWHPC0","3XIQGXAUMEEFDMEIF1OF4QUNUWU7XZ","model","match","uniform","","","","","","","2335.600000023842","134584.5","136920.10000002384","[""stimuli/WF11_HE.jpg"",""stimuli/AF09_CC.jpg"",""stimuli/HF09_DO.jpg"",""stimuli/HM10_SUR.jpg""]","stimuli/WF11_HE.jpg","stimuli/AF09_CC.jpg","stimuli/HF09_DO.jpg","stimuli/HM10_SUR.jpg","pos4","stimuli/HM10_SUR.jpg","SUR","HM10","3","4","8","8","stimuli/stars_8.png","53.5","[""HE"",""CC"",""DO"",""SUR""]","[""WF11"",""AF09"",""HF09"",""HM10""]","[4,4,5,8]","[6,2,4,8]","","",""
"show-reward","36","136630","0.0-36.0","p332530","A1XBKS1U674XFA","3RZS0FBRWLGDTA9TUPH81F59AWHPC0","3XIQGXAUMEEFDMEIF1OF4QUNUWU7XZ","model","match","uniform","","","","","","","","137426.80000007153","139430.60000002384","","","","","","","","","","","","8","","stimuli/stars_8.png","53.5","","","","","stimuli/HM10_SUR.jpg","",""
"explore-choice","37","139057","0.0-37.0","p332530","A1XBKS1U674XFA","3RZS0FBRWLGDTA9TUPH81F59AWHPC0","3XIQGXAUMEEFDMEIF1OF4QUNUWU7XZ","model","match","uniform","","","","","","","1914","139431.89999997616","141345.89999997616","[""stimuli/WF11_SUR.jpg"",""stimuli/HF09_HE.jpg"",""stimuli/HM10_CC.jpg"",""stimuli/AF09_DO.jpg""]","stimuli/WF11_SUR.jpg","stimuli/HF09_HE.jpg","stimuli/HM10_CC.jpg","stimuli/AF09_DO.jpg","pos4","stimuli/AF09_DO.jpg","DO","AF09","3","1","2","2","stimuli/stars_2.png","54.5","[""SUR"",""HE"",""CC"",""DO""]","[""WF11"",""HF09"",""HM10"",""AF09""]","[4,6,10,2]","[6,4,8,2]","","",""
"show-reward","38","141066","0.0-38.0","p332530","A1XBKS1U674XFA","3RZS0FBRWLGDTA9TUPH81F59AWHPC0","3XIQGXAUMEEFDMEIF1OF4QUNUWU7XZ","model","match","uniform","","","","","","","","141858.70000004768","143865.70000004768","","","","","","","","","","","","2","","stimuli/stars_2.png","54.5","","","","","stimuli/AF09_DO.jpg","",""
"explore-choice","39","143701","0.0-39.0","p332530","A1XBKS1U674XFA","3RZS0FBRWLGDTA9TUPH81F59AWHPC0","3XIQGXAUMEEFDMEIF1OF4QUNUWU7XZ","model","match","uniform","","","","","","","2119.7999999523163","143866.80000007153","145986.60000002384","[""stimuli/WF11_SUR.jpg"",""stimuli/AF09_CC.jpg"",""stimuli/HF09_DO.jpg"",""stimuli/HM10_HE.jpg""]","stimuli/WF11_SUR.jpg","stimuli/AF09_CC.jpg","stimuli/HF09_DO.jpg","stimuli/HM10_HE.jpg","pos4","stimuli/HM10_HE.jpg","HE","HM10","3","3.5","7","8","stimuli/stars_7.png","58","[""SUR"",""CC"",""DO"",""HE""]","[""WF11"",""AF09"",""HF09"",""HM10""]","[8,2,6,7]","[6,2,4,8]","","",""
"show-reward","40","145712","0.0-40.0","p332530","A1XBKS1U674XFA","3RZS0FBRWLGDTA9TUPH81F59AWHPC0","3XIQGXAUMEEFDMEIF1OF4QUNUWU7XZ","model","match","uniform","","","","","","","","146502.70000004768","148512","","","","","","","","","","","","7","","stimuli/stars_7.png","58","","","","","stimuli/HM10_HE.jpg","",""
"explore-choice","41","147459","0.0-41.0","p332530","A1XBKS1U674XFA","3RZS0FBRWLGDTA9TUPH81F59AWHPC0","3XIQGXAUMEEFDMEIF1OF4QUNUWU7XZ","model","match","uniform","","","","","","","1233.1000000238419","148513.10000002384","149746.20000004768","[""stimuli/HF09_HE.jpg"",""stimuli/WF11_SUR.jpg"",""stimuli/AF09_CC.jpg"",""stimuli/HM10_DO.jpg""]","stimuli/HF09_HE.jpg","stimuli/WF11_SUR.jpg","stimuli/AF09_CC.jpg","stimuli/HM10_DO.jpg","pos2","stimuli/WF11_SUR.jpg","SUR","WF11","1","3.5","7","6","stimuli/stars_7.png","61.5","[""HE"",""SUR"",""CC"",""DO""]","[""HF09"",""WF11"",""AF09"",""HM10""]","[6,7,3,8]","[4,6,2,8]","","",""
"show-reward","42","149471","0.0-42.0","p332530","A1XBKS1U674XFA","3RZS0FBRWLGDTA9TUPH81F59AWHPC0","3XIQGXAUMEEFDMEIF1OF4QUNUWU7XZ","model","match","uniform","","","","","","","","150260.5","152271.10000002384","","","","","","","","","","","","7","","stimuli/stars_7.png","61.5","","","","","stimuli/WF11_SUR.jpg","",""
"explore-choice","43","151246","0.0-43.0","p332530","A1XBKS1U674XFA","3RZS0FBRWLGDTA9TUPH81F59AWHPC0","3XIQGXAUMEEFDMEIF1OF4QUNUWU7XZ","model","match","uniform","","","","","","","1266.3999999761581","152272.60000002384","153539","[""stimuli/HF09_SUR.jpg"",""stimuli/AF09_HE.jpg"",""stimuli/HM10_DO.jpg"",""stimuli/WF11_CC.jpg""]","stimuli/HF09_SUR.jpg","stimuli/AF09_HE.jpg","stimuli/HM10_DO.jpg","stimuli/WF11_CC.jpg","pos3","stimuli/HM10_DO.jpg","DO","HM10","2","3.5","7","8","stimuli/stars_7.png","65","[""SUR"",""HE"",""DO"",""CC""]","[""HF09"",""AF09"",""HM10"",""WF11""]","[2,3,7,8]","[4,2,8,6]","","",""
"show-reward","44","153265","0.0-44.0","p332530","A1XBKS1U674XFA","3RZS0FBRWLGDTA9TUPH81F59AWHPC0","3XIQGXAUMEEFDMEIF1OF4QUNUWU7XZ","model","match","uniform","","","","","","","","154047.80000007153","156065.20000004768","","","","","","","","","","","","7","","stimuli/stars_7.png","65","","","","","stimuli/HM10_DO.jpg","",""
"explore-choice","45","155105","0.0-45.0","p332530","A1XBKS1U674XFA","3RZS0FBRWLGDTA9TUPH81F59AWHPC0","3XIQGXAUMEEFDMEIF1OF4QUNUWU7XZ","model","match","uniform","","","","","","","1323.8000000715256","156066.39999997616","157390.20000004768","[""stimuli/HM10_CC.jpg"",""stimuli/WF11_HE.jpg"",""stimuli/AF09_SUR.jpg"",""stimuli/HF09_DO.jpg""]","stimuli/HM10_CC.jpg","stimuli/WF11_HE.jpg","stimuli/AF09_SUR.jpg","stimuli/HF09_DO.jpg","pos4","stimuli/HF09_DO.jpg","DO","HF09","3","1","2","4","stimuli/stars_2.png","66","[""CC"",""HE"",""SUR"",""DO""]","[""HM10"",""WF11"",""AF09"",""HF09""]","[7,8,3,2]","[8,6,2,4]","","",""
"show-reward","46","157114","0.0-46.0","p332530","A1XBKS1U674XFA","3RZS0FBRWLGDTA9TUPH81F59AWHPC0","3XIQGXAUMEEFDMEIF1OF4QUNUWU7XZ","model","match","uniform","","","","","","","","157905.80000007153","159914.10000002384","","","","","","","","","","","","2","","stimuli/stars_2.png","66","","","","","stimuli/HF09_DO.jpg","",""
"explore-choice","47","159087","0.0-47.0","p332530","A1XBKS1U674XFA","3RZS0FBRWLGDTA9TUPH81F59AWHPC0","3XIQGXAUMEEFDMEIF1OF4QUNUWU7XZ","model","match","uniform","","","","","","","1459.3000000715256","159915.5","161374.80000007153","[""stimuli/HF09_DO.jpg"",""stimuli/AF09_SUR.jpg"",""stimuli/HM10_HE.jpg"",""stimuli/WF11_CC.jpg""]","stimuli/HF09_DO.jpg","stimuli/AF09_SUR.jpg","stimuli/HM10_HE.jpg","stimuli/WF11_CC.jpg","pos3","stimuli/HM10_HE.jpg","HE","HM10","2","4.5","9","8","stimuli/stars_9.png","70.5","[""DO"",""SUR"",""HE"",""CC""]","[""HF09"",""AF09"",""HM10"",""WF11""]","[4,0,9,6]","[4,2,8,6]","","",""
"show-reward","48","161100","0.0-48.0","p332530","A1XBKS1U674XFA","3RZS0FBRWLGDTA9TUPH81F59AWHPC0","3XIQGXAUMEEFDMEIF1OF4QUNUWU7XZ","model","match","uniform","","","","","","","","161888.5","163900.20000004768","","","","","","","","","","","","9","","stimuli/stars_9.png","70.5","","","","","stimuli/HM10_HE.jpg","",""
"explore-choice","49","163012","0.0-49.0","p332530","A1XBKS1U674XFA","3RZS0FBRWLGDTA9TUPH81F59AWHPC0","3XIQGXAUMEEFDMEIF1OF4QUNUWU7XZ","model","match","uniform","","","","","","","1410.3999999761581","163901.5","165311.89999997616","[""stimuli/WF11_DO.jpg"",""stimuli/HF09_HE.jpg"",""stimuli/HM10_CC.jpg"",""stimuli/AF09_SUR.jpg""]","stimuli/WF11_DO.jpg","stimuli/HF09_HE.jpg","stimuli/HM10_CC.jpg","stimuli/AF09_SUR.jpg","pos3","stimuli/HM10_CC.jpg","CC","HM10","2","3","6","8","stimuli/stars_6.png","73.5","[""DO"",""HE"",""CC"",""SUR""]","[""WF11"",""HF09"",""HM10"",""AF09""]","[7,3,6,1]","[6,4,8,2]","","",""
"show-reward","50","165018","0.0-50.0","p332530","A1XBKS1U674XFA","3RZS0FBRWLGDTA9TUPH81F59AWHPC0","3XIQGXAUMEEFDMEIF1OF4QUNUWU7XZ","model","match","uniform","","","","","","","","165813.70000004768","167817.60000002384","","","","","","","","","","","","6","","stimuli/stars_6.png","73.5","","","","","stimuli/HM10_CC.jpg","",""
"explore-choice","51","166885","0.0-51.0","p332530","A1XBKS1U674XFA","3RZS0FBRWLGDTA9TUPH81F59AWHPC0","3XIQGXAUMEEFDMEIF1OF4QUNUWU7XZ","model","match","uniform","","","","","","","1359.6999999284744","167818.80000007153","169178.5","[""stimuli/HM10_CC.jpg"",""stimuli/HF09_DO.jpg"",""stimuli/AF09_HE.jpg"",""stimuli/WF11_SUR.jpg""]","stimuli/HM10_CC.jpg","stimuli/HF09_DO.jpg","stimuli/AF09_HE.jpg","stimuli/WF11_SUR.jpg","pos1","stimuli/HM10_CC.jpg","CC","HM10","0","4.5","9","8","stimuli/stars_9.png","78","[""CC"",""DO"",""HE"",""SUR""]","[""HM10"",""HF09"",""AF09"",""WF11""]","[9,2,3,5]","[8,4,2,6]","","",""
"show-reward","52","168896","0.0-52.0","p332530","A1XBKS1U674XFA","3RZS0FBRWLGDTA9TUPH81F59AWHPC0","3XIQGXAUMEEFDMEIF1OF4QUNUWU7XZ","model","match","uniform","","","","","","","","169686.20000004768","171695.70000004768","","","","","","","","","","","","9","","stimuli/stars_9.png","78","","","","","stimuli/HM10_CC.jpg","",""
"explore-choice","53","170508","0.0-53.0","p332530","A1XBKS1U674XFA","3RZS0FBRWLGDTA9TUPH81F59AWHPC0","3XIQGXAUMEEFDMEIF1OF4QUNUWU7XZ","model","match","uniform","","","","","","","1110.2000000476837","171697.10000002384","172807.30000007153","[""stimuli/HM10_SUR.jpg"",""stimuli/WF11_DO.jpg"",""stimuli/AF09_HE.jpg"",""stimuli/HF09_CC.jpg""]","stimuli/HM10_SUR.jpg","stimuli/WF11_DO.jpg","stimuli/AF09_HE.jpg","stimuli/HF09_CC.jpg","pos1","stimuli/HM10_SUR.jpg","SUR","HM10","0","5","10","8","stimuli/stars_10.png","83","[""SUR"",""DO"",""HE"",""CC""]","[""HM10"",""WF11"",""AF09"",""HF09""]","[10,8,0,6]","[8,6,2,4]","","",""
"show-reward","54","172512","0.0-54.0","p332530","A1XBKS1U674XFA","3RZS0FBRWLGDTA9TUPH81F59AWHPC0","3XIQGXAUMEEFDMEIF1OF4QUNUWU7XZ","model","match","uniform","","","","","","","","173309","175311.89999997616","","","","","","","","","","","","10","","stimuli/stars_10.png","83","","","","","stimuli/HM10_SUR.jpg","",""
"explore-choice","55","174257","0.0-55.0","p332530","A1XBKS1U674XFA","3RZS0FBRWLGDTA9TUPH81F59AWHPC0","3XIQGXAUMEEFDMEIF1OF4QUNUWU7XZ","model","match","uniform","","","","","","","1234.2999999523163","175313.20000004768","176547.5","[""stimuli/WF11_HE.jpg"",""stimuli/HF09_DO.jpg"",""stimuli/HM10_SUR.jpg"",""stimuli/AF09_CC.jpg""]","stimuli/WF11_HE.jpg","stimuli/HF09_DO.jpg","stimuli/HM10_SUR.jpg","stimuli/AF09_CC.jpg","pos2","stimuli/HF09_DO.jpg","DO","HF09","1","2.5","5","4","stimuli/stars_5.png","85.5","[""HE"",""DO"",""SUR"",""CC""]","[""WF11"",""HF09"",""HM10"",""AF09""]","[4,5,8,4]","[6,4,8,2]","","",""
"show-reward","56","176275","0.0-56.0","p332530","A1XBKS1U674XFA","3RZS0FBRWLGDTA9TUPH81F59AWHPC0","3XIQGXAUMEEFDMEIF1OF4QUNUWU7XZ","model","match","uniform","","","","","","","","177058.30000007153","179074.80000007153","","","","","","","","","","","","5","","stimuli/stars_5.png","85.5","","","","","stimuli/HF09_DO.jpg","",""
"explore-choice","57","177980","0.0-57.0","p332530","A1XBKS1U674XFA","3RZS0FBRWLGDTA9TUPH81F59AWHPC0","3XIQGXAUMEEFDMEIF1OF4QUNUWU7XZ","model","match","uniform","","","","","","","1197.7999999523163","179076.30000007153","180274.10000002384","[""stimuli/AF09_CC.jpg"",""stimuli/WF11_DO.jpg"",""stimuli/HF09_HE.jpg"",""stimuli/HM10_SUR.jpg""]","stimuli/AF09_CC.jpg","stimuli/WF11_DO.jpg","stimuli/HF09_HE.jpg","stimuli/HM10_SUR.jpg","pos4","stimuli/HM10_SUR.jpg","SUR","HM10","3","3.5","7","8","stimuli/stars_7.png","89","[""CC"",""DO"",""HE"",""SUR""]","[""AF09"",""WF11"",""HF09"",""HM10""]","[2,8,3,7]","[2,6,4,8]","","",""
"show-reward","58","179993","0.0-58.0","p332530","A1XBKS1U674XFA","3RZS0FBRWLGDTA9TUPH81F59AWHPC0","3XIQGXAUMEEFDMEIF1OF4QUNUWU7XZ","model","match","uniform","","","","","","","","180781.39999997616","182792.70000004768","","","","","","","","","","","","7","","stimuli/stars_7.png","89","","","","","stimuli/HM10_SUR.jpg","",""
"explore-choice","59","181922","0.0-59.0","p332530","A1XBKS1U674XFA","3RZS0FBRWLGDTA9TUPH81F59AWHPC0","3XIQGXAUMEEFDMEIF1OF4QUNUWU7XZ","model","match","uniform","","","","","","","1423.6999999284744","182794.20000004768","184217.89999997616","[""stimuli/HM10_DO.jpg"",""stimuli/AF09_HE.jpg"",""stimuli/HF09_CC.jpg"",""stimuli/WF11_SUR.jpg""]","stimuli/HM10_DO.jpg","stimuli/AF09_HE.jpg","stimuli/HF09_CC.jpg","stimuli/WF11_SUR.jpg","pos1","stimuli/HM10_DO.jpg","DO","HM10","0","5","10","8","stimuli/stars_10.png","94","[""DO"",""HE"",""CC"",""SUR""]","[""HM10"",""AF09"",""HF09"",""WF11""]","[10,4,2,8]","[8,2,4,6]","","",""
"show-reward","60","183926","0.0-60.0","p332530","A1XBKS1U674XFA","3RZS0FBRWLGDTA9TUPH81F59AWHPC0","3XIQGXAUMEEFDMEIF1OF4QUNUWU7XZ","model","match","uniform","","","","","","","","184722.89999997616","186726.10000002384","","","","","","","","","","","","10","","stimuli/stars_10.png","94","","","","","stimuli/HM10_DO.jpg","",""
"explore-choice","61","186231","0.0-61.0","p332530","A1XBKS1U674XFA","3RZS0FBRWLGDTA9TUPH81F59AWHPC0","3XIQGXAUMEEFDMEIF1OF4QUNUWU7XZ","model","match","uniform","","","","","","","1789.8999999761581","186727.20000004768","188517.10000002384","[""stimuli/AF09_HE.jpg"",""stimuli/HF09_DO.jpg"",""stimuli/HM10_SUR.jpg"",""stimuli/WF11_CC.jpg""]","stimuli/AF09_HE.jpg","stimuli/HF09_DO.jpg","stimuli/HM10_SUR.jpg","stimuli/WF11_CC.jpg","pos3","stimuli/HM10_SUR.jpg","SUR","HM10","2","4","8","8","stimuli/stars_8.png","98","[""HE"",""DO"",""SUR"",""CC""]","[""AF09"",""HF09"",""HM10"",""WF11""]","[1,2,8,4]","[2,4,8,6]","","",""
"show-reward","62","188244","0.0-62.0","p332530","A1XBKS1U674XFA","3RZS0FBRWLGDTA9TUPH81F59AWHPC0","3XIQGXAUMEEFDMEIF1OF4QUNUWU7XZ","model","match","uniform","","","","","","","","189032.10000002384","191044.20000004768","","","","","","","","","","","","8","","stimuli/stars_8.png","98","","","","","stimuli/HM10_SUR.jpg","",""
"explore-choice","63","191271","0.0-63.0","p332530","A1XBKS1U674XFA","3RZS0FBRWLGDTA9TUPH81F59AWHPC0","3XIQGXAUMEEFDMEIF1OF4QUNUWU7XZ","model","match","uniform","","","","","","","2511","191045.60000002384","193556.60000002384","[""stimuli/AF09_SUR.jpg"",""stimuli/HF09_CC.jpg"",""stimuli/HM10_HE.jpg"",""stimuli/WF11_DO.jpg""]","stimuli/AF09_SUR.jpg","stimuli/HF09_CC.jpg","stimuli/HM10_HE.jpg","stimuli/WF11_DO.jpg","pos4","stimuli/WF11_DO.jpg","DO","WF11","3","3.5","7","6","stimuli/stars_7.png","101.5","[""SUR"",""CC"",""HE"",""DO""]","[""AF09"",""HF09"",""HM10"",""WF11""]","[2,4,9,7]","[2,4,8,6]","","",""
"show-reward","64","193289","0.0-64.0","p332530","A1XBKS1U674XFA","3RZS0FBRWLGDTA9TUPH81F59AWHPC0","3XIQGXAUMEEFDMEIF1OF4QUNUWU7XZ","model","match","uniform","","","","","","","","194072.70000004768","196089.20000004768","","","","","","","","","","","","7","","stimuli/stars_7.png","101.5","","","","","stimuli/WF11_DO.jpg","",""
"explore-choice","65","195776","0.0-65.0","p332530","A1XBKS1U674XFA","3RZS0FBRWLGDTA9TUPH81F59AWHPC0","3XIQGXAUMEEFDMEIF1OF4QUNUWU7XZ","model","match","uniform","","","","","","","1973.7999999523163","196090.70000004768","198064.5","[""stimuli/AF09_SUR.jpg"",""stimuli/HM10_DO.jpg"",""stimuli/HF09_CC.jpg"",""stimuli/WF11_HE.jpg""]","stimuli/AF09_SUR.jpg","stimuli/HM10_DO.jpg","stimuli/HF09_CC.jpg","stimuli/WF11_HE.jpg","pos2","stimuli/HM10_DO.jpg","DO","HM10","1","3.5","7","8","stimuli/stars_7.png","105","[""SUR"",""DO"",""CC"",""HE""]","[""AF09"",""HM10"",""HF09"",""WF11""]","[3,7,6,5]","[2,8,4,6]","","",""
"show-reward","66","197779","0.0-66.0","p332530","A1XBKS1U674XFA","3RZS0FBRWLGDTA9TUPH81F59AWHPC0","3XIQGXAUMEEFDMEIF1OF4QUNUWU7XZ","model","match","uniform","","","","","","","","198577.30000007153","200579.5","","","","","","","","","","","","7","","stimuli/stars_7.png","105","","","","","stimuli/HM10_DO.jpg","",""
"explore-choice","67","200166","0.0-67.0","p332530","A1XBKS1U674XFA","3RZS0FBRWLGDTA9TUPH81F59AWHPC0","3XIQGXAUMEEFDMEIF1OF4QUNUWU7XZ","model","match","uniform","","","","","","","1871.0999999046326","200580.80000007153","202451.89999997616","[""stimuli/AF09_HE.jpg"",""stimuli/WF11_DO.jpg"",""stimuli/HF09_SUR.jpg"",""stimuli/HM10_CC.jpg""]","stimuli/AF09_HE.jpg","stimuli/WF11_DO.jpg","stimuli/HF09_SUR.jpg","stimuli/HM10_CC.jpg","pos3","stimuli/HF09_SUR.jpg","SUR","HF09","2","1","2","4","stimuli/stars_2.png","106","[""HE"",""DO"",""SUR"",""CC""]","[""AF09"",""WF11"",""HF09"",""HM10""]","[0,7,2,8]","[2,6,4,8]","","",""
"show-reward","68","202171","0.0-68.0","p332530","A1XBKS1U674XFA","3RZS0FBRWLGDTA9TUPH81F59AWHPC0","3XIQGXAUMEEFDMEIF1OF4QUNUWU7XZ","model","match","uniform","","","","","","","","202967.30000007153","204970.89999997616","","","","","","","","","","","","2","","stimuli/stars_2.png","106","","","","","stimuli/HF09_SUR.jpg","",""
"explore-choice","69","204673","0.0-69.0","p332530","A1XBKS1U674XFA","3RZS0FBRWLGDTA9TUPH81F59AWHPC0","3XIQGXAUMEEFDMEIF1OF4QUNUWU7XZ","model","match","uniform","","","","","","","1984.6999999284744","204972.20000004768","206956.89999997616","[""stimuli/HF09_DO.jpg"",""stimuli/WF11_HE.jpg"",""stimuli/AF09_SUR.jpg"",""stimuli/HM10_CC.jpg""]","stimuli/HF09_DO.jpg","stimuli/WF11_HE.jpg","stimuli/AF09_SUR.jpg","stimuli/HM10_CC.jpg","pos1","stimuli/HF09_DO.jpg","DO","HF09","0","1","2","4","stimuli/stars_2.png","107","[""DO"",""HE"",""SUR"",""CC""]","[""HF09"",""WF11"",""AF09"",""HM10""]","[2,8,3,7]","[4,6,2,8]","","",""
"show-reward","70","206688","0.0-70.0","p332530","A1XBKS1U674XFA","3RZS0FBRWLGDTA9TUPH81F59AWHPC0","3XIQGXAUMEEFDMEIF1OF4QUNUWU7XZ","model","match","uniform","","","","","","","","207474.10000002384","209487.70000004768","","","","","","","","","","","","2","","stimuli/stars_2.png","107","","","","","stimuli/HF09_DO.jpg","",""
"explore-choice","71","208239","0.0-71.0","p332530","A1XBKS1U674XFA","3RZS0FBRWLGDTA9TUPH81F59AWHPC0","3XIQGXAUMEEFDMEIF1OF4QUNUWU7XZ","model","match","uniform","","","","","","","1040.1999999284744","209488.70000004768","210528.89999997616","[""stimuli/HF09_CC.jpg"",""stimuli/WF11_DO.jpg"",""stimuli/AF09_HE.jpg"",""stimuli/HM10_SUR.jpg""]","stimuli/HF09_CC.jpg","stimuli/WF11_DO.jpg","stimuli/AF09_HE.jpg","stimuli/HM10_SUR.jpg","pos4","stimuli/HM10_SUR.jpg","SUR","HM10","3","5","10","8","stimuli/stars_10.png","112","[""CC"",""DO"",""HE"",""SUR""]","[""HF09"",""WF11"",""AF09"",""HM10""]","[6,8,0,10]","[4,6,2,8]","","",""
"show-reward","72","210251","0.0-72.0","p332530","A1XBKS1U674XFA","3RZS0FBRWLGDTA9TUPH81F59AWHPC0","3XIQGXAUMEEFDMEIF1OF4QUNUWU7XZ","model","match","uniform","","","","","","","","211039.80000007153","213051.20000004768","","","","","","","","","","","","10","","stimuli/stars_10.png","112","","","","","stimuli/HM10_SUR.jpg","",""
"explore-choice","73","212059","0.0-73.0","p332530","A1XBKS1U674XFA","3RZS0FBRWLGDTA9TUPH81F59AWHPC0","3XIQGXAUMEEFDMEIF1OF4QUNUWU7XZ","model","match","uniform","","","","","","","1297.7000000476837","213052.60000002384","214350.30000007153","[""stimuli/WF11_CC.jpg"",""stimuli/HF09_SUR.jpg"",""stimuli/HM10_HE.jpg"",""stimuli/AF09_DO.jpg""]","stimuli/WF11_CC.jpg","stimuli/HF09_SUR.jpg","stimuli/HM10_HE.jpg","stimuli/AF09_DO.jpg","pos3","stimuli/HM10_HE.jpg","HE","HM10","2","4","8","8","stimuli/stars_8.png","116","[""CC"",""SUR"",""HE"",""DO""]","[""WF11"",""HF09"",""HM10"",""AF09""]","[7,6,8,3]","[6,4,8,2]","","",""
"show-reward","74","214071","0.0-74.0","p332530","A1XBKS1U674XFA","3RZS0FBRWLGDTA9TUPH81F59AWHPC0","3XIQGXAUMEEFDMEIF1OF4QUNUWU7XZ","model","match","uniform","","","","","","","","214860.39999997616","216870.70000004768","","","","","","","","","","","","8","","stimuli/stars_8.png","116","","","","","stimuli/HM10_HE.jpg","",""
"explore-choice","75","215688","0.0-75.0","p332530","A1XBKS1U674XFA","3RZS0FBRWLGDTA9TUPH81F59AWHPC0","3XIQGXAUMEEFDMEIF1OF4QUNUWU7XZ","model","match","uniform","","","","","","","1109.6000000238419","216872.10000002384","217981.70000004768","[""stimuli/HF09_HE.jpg"",""stimuli/HM10_CC.jpg"",""stimuli/AF09_DO.jpg"",""stimuli/WF11_SUR.jpg""]","stimuli/HF09_HE.jpg","stimuli/HM10_CC.jpg","stimuli/AF09_DO.jpg","stimuli/WF11_SUR.jpg","pos2","stimuli/HM10_CC.jpg","CC","HM10","1","5","10","8","stimuli/stars_10.png","121","[""HE"",""CC"",""DO"",""SUR""]","[""HF09"",""HM10"",""AF09"",""WF11""]","[6,10,2,4]","[4,8,2,6]","","",""
"show-reward","76","217706","0.0-76.0","p332530","A1XBKS1U674XFA","3RZS0FBRWLGDTA9TUPH81F59AWHPC0","3XIQGXAUMEEFDMEIF1OF4QUNUWU7XZ","model","match","uniform","","","","","","","","218489.39999997616","220505.89999997616","","","","","","","","","","","","10","","stimuli/stars_10.png","121","","","","","stimuli/HM10_CC.jpg","",""
"explore-choice","77","219411","0.0-77.0","p332530","A1XBKS1U674XFA","3RZS0FBRWLGDTA9TUPH81F59AWHPC0","3XIQGXAUMEEFDMEIF1OF4QUNUWU7XZ","model","match","uniform","","","","","","","1201.5","220507.10000002384","221708.60000002384","[""stimuli/AF09_CC.jpg"",""stimuli/WF11_DO.jpg"",""stimuli/HM10_HE.jpg"",""stimuli/HF09_SUR.jpg""]","stimuli/AF09_CC.jpg","stimuli/WF11_DO.jpg","stimuli/HM10_HE.jpg","stimuli/HF09_SUR.jpg","pos3","stimuli/HM10_HE.jpg","HE","HM10","2","4","8","8","stimuli/stars_8.png","125","[""CC"",""DO"",""HE"",""SUR""]","[""AF09"",""WF11"",""HM10"",""HF09""]","[0,5,8,6]","[2,6,8,4]","","",""
"show-reward","78","221426","0.0-78.0","p332530","A1XBKS1U674XFA","3RZS0FBRWLGDTA9TUPH81F59AWHPC0","3XIQGXAUMEEFDMEIF1OF4QUNUWU7XZ","model","match","uniform","","","","","","","","222212.39999997616","224225.89999997616","","","","","","","","","","","","8","","stimuli/stars_8.png","125","","","","","stimuli/HM10_HE.jpg","",""
"explore-choice","79","223175","0.0-79.0","p332530","A1XBKS1U674XFA","3RZS0FBRWLGDTA9TUPH81F59AWHPC0","3XIQGXAUMEEFDMEIF1OF4QUNUWU7XZ","model","match","uniform","","","","","","","1235.8000000715256","224227.39999997616","225463.20000004768","[""stimuli/AF09_SUR.jpg"",""stimuli/HM10_DO.jpg"",""stimuli/HF09_HE.jpg"",""stimuli/WF11_CC.jpg""]","stimuli/AF09_SUR.jpg","stimuli/HM10_DO.jpg","stimuli/HF09_HE.jpg","stimuli/WF11_CC.jpg","pos2","stimuli/HM10_DO.jpg","DO","HM10","1","4.5","9","8","stimuli/stars_9.png","129.5","[""SUR"",""DO"",""HE"",""CC""]","[""AF09"",""HM10"",""HF09"",""WF11""]","[1,9,2,8]","[2,8,4,6]","","",""
"show-reward","80","225182","0.0-80.0","p332530","A1XBKS1U674XFA","3RZS0FBRWLGDTA9TUPH81F59AWHPC0","3XIQGXAUMEEFDMEIF1OF4QUNUWU7XZ","model","match","uniform","","","","","","","","225976.80000007153","227982.30000007153","","","","","","","","","","","","9","","stimuli/stars_9.png","129.5","","","","","stimuli/HM10_DO.jpg","",""
"explore-choice","81","226974","0.0-81.0","p332530","A1XBKS1U674XFA","3RZS0FBRWLGDTA9TUPH81F59AWHPC0","3XIQGXAUMEEFDMEIF1OF4QUNUWU7XZ","model","match","uniform","","","","","","","1284.1999999284744","227983.70000004768","229267.89999997616","[""stimuli/AF09_CC.jpg"",""stimuli/WF11_HE.jpg"",""stimuli/HM10_DO.jpg"",""stimuli/HF09_SUR.jpg""]","stimuli/AF09_CC.jpg","stimuli/WF11_HE.jpg","stimuli/HM10_DO.jpg","stimuli/HF09_SUR.jpg","pos3","stimuli/HM10_DO.jpg","DO","HM10","2","4.5","9","8","stimuli/stars_9.png","134","[""CC"",""HE"",""DO"",""SUR""]","[""AF09"",""WF11"",""HM10"",""HF09""]","[2,8,9,4]","[2,6,8,4]","","",""
"show-reward","82","228979","0.0-82.0","p332530","A1XBKS1U674XFA","3RZS0FBRWLGDTA9TUPH81F59AWHPC0","3XIQGXAUMEEFDMEIF1OF4QUNUWU7XZ","model","match","uniform","","","","","","","","229775.20000004768","231779.5","","","","","","","","","","","","9","","stimuli/stars_9.png","134","","","","","stimuli/HM10_DO.jpg","",""
"explore-choice","83","230739","0.0-83.0","p332530","A1XBKS1U674XFA","3RZS0FBRWLGDTA9TUPH81F59AWHPC0","3XIQGXAUMEEFDMEIF1OF4QUNUWU7XZ","model","match","uniform","","","","","","","1244.2000000476837","231780.89999997616","233025.10000002384","[""stimuli/HM10_SUR.jpg"",""stimuli/AF09_DO.jpg"",""stimuli/WF11_HE.jpg"",""stimuli/HF09_CC.jpg""]","stimuli/HM10_SUR.jpg","stimuli/AF09_DO.jpg","stimuli/WF11_HE.jpg","stimuli/HF09_CC.jpg","pos1","stimuli/HM10_SUR.jpg","SUR","HM10","0","4.5","9","8","stimuli/stars_9.png","138.5","[""SUR"",""DO"",""HE"",""CC""]","[""HM10"",""AF09"",""WF11"",""HF09""]","[9,1,7,6]","[8,2,6,4]","","",""
"show-reward","84","232758","0.0-84.0","p332530","A1XBKS1U674XFA","3RZS0FBRWLGDTA9TUPH81F59AWHPC0","3XIQGXAUMEEFDMEIF1OF4QUNUWU7XZ","model","match","uniform","","","","","","","","233540.60000002384","235557.70000004768","","","","","","","","","","","","9","","stimuli/stars_9.png","138.5","","","","","stimuli/HM10_SUR.jpg","",""
"explore-choice","85","234584","0.0-85.0","p332530","A1XBKS1U674XFA","3RZS0FBRWLGDTA9TUPH81F59AWHPC0","3XIQGXAUMEEFDMEIF1OF4QUNUWU7XZ","model","match","uniform","","","","","","","1312.5","235559.10000002384","236871.60000002384","[""stimuli/AF09_DO.jpg"",""stimuli/HM10_HE.jpg"",""stimuli/WF11_SUR.jpg"",""stimuli/HF09_CC.jpg""]","stimuli/AF09_DO.jpg","stimuli/HM10_HE.jpg","stimuli/WF11_SUR.jpg","stimuli/HF09_CC.jpg","pos2","stimuli/HM10_HE.jpg","HE","HM10","1","3","6","8","stimuli/stars_6.png","141.5","[""DO"",""HE"",""SUR"",""CC""]","[""AF09"",""HM10"",""WF11"",""HF09""]","[2,6,5,2]","[2,8,6,4]","","",""
"show-reward","86","236591","0.0-86.0","p332530","A1XBKS1U674XFA","3RZS0FBRWLGDTA9TUPH81F59AWHPC0","3XIQGXAUMEEFDMEIF1OF4QUNUWU7XZ","model","match","uniform","","","","","","","","237384.80000007153","239391","","","","","","","","","","","","6","","stimuli/stars_6.png","141.5","","","","","stimuli/HM10_HE.jpg","",""
"explore-choice","87","238449","0.0-87.0","p332530","A1XBKS1U674XFA","3RZS0FBRWLGDTA9TUPH81F59AWHPC0","3XIQGXAUMEEFDMEIF1OF4QUNUWU7XZ","model","match","uniform","","","","","","","1350.7000000476837","239392.10000002384","240742.80000007153","[""stimuli/HF09_SUR.jpg"",""stimuli/WF11_CC.jpg"",""stimuli/HM10_DO.jpg"",""stimuli/AF09_HE.jpg""]","stimuli/HF09_SUR.jpg","stimuli/WF11_CC.jpg","stimuli/HM10_DO.jpg","stimuli/AF09_HE.jpg","pos3","stimuli/HM10_DO.jpg","DO","HM10","2","3.5","7","8","stimuli/stars_7.png","145","[""SUR"",""CC"",""DO"",""HE""]","[""HF09"",""WF11"",""HM10"",""AF09""]","[2,8,7,3]","[4,6,8,2]","","",""
"show-reward","88","240469","0.0-88.0","p332530","A1XBKS1U674XFA","3RZS0FBRWLGDTA9TUPH81F59AWHPC0","3XIQGXAUMEEFDMEIF1OF4QUNUWU7XZ","model","match","uniform","","","","","","","","241250.70000004768","243268.70000004768","","","","","","","","","","","","7","","stimuli/stars_7.png","145","","","","","stimuli/HM10_DO.jpg","",""
"explore-choice","89","243527","0.0-89.0","p332530","A1XBKS1U674XFA","3RZS0FBRWLGDTA9TUPH81F59AWHPC0","3XIQGXAUMEEFDMEIF1OF4QUNUWU7XZ","model","match","uniform","","","","","","","2554.7000000476837","243269.89999997616","245824.60000002384","[""stimuli/HM10_HE.jpg"",""stimuli/HF09_DO.jpg"",""stimuli/WF11_CC.jpg"",""stimuli/AF09_SUR.jpg""]","stimuli/HM10_HE.jpg","stimuli/HF09_DO.jpg","stimuli/WF11_CC.jpg","stimuli/AF09_SUR.jpg","pos1","stimuli/HM10_HE.jpg","HE","HM10","0","4.5","9","8","stimuli/stars_9.png","149.5","[""HE"",""DO"",""CC"",""SUR""]","[""HM10"",""HF09"",""WF11"",""AF09""]","[9,4,6,0]","[8,4,6,2]","","",""
"show-reward","90","245532","0.0-90.0","p332530","A1XBKS1U674XFA","3RZS0FBRWLGDTA9TUPH81F59AWHPC0","3XIQGXAUMEEFDMEIF1OF4QUNUWU7XZ","model","match","uniform","","","","","","","","246328.20000004768","248332.39999997616","","","","","","","","","","","","9","","stimuli/stars_9.png","149.5","","","","","stimuli/HM10_HE.jpg","",""
"explore-choice","91","247463","0.0-91.0","p332530","A1XBKS1U674XFA","3RZS0FBRWLGDTA9TUPH81F59AWHPC0","3XIQGXAUMEEFDMEIF1OF4QUNUWU7XZ","model","match","uniform","","","","","","","1421.3999999761581","248333.60000002384","249755","[""stimuli/HF09_HE.jpg"",""stimuli/AF09_SUR.jpg"",""stimuli/HM10_CC.jpg"",""stimuli/WF11_DO.jpg""]","stimuli/HF09_HE.jpg","stimuli/AF09_SUR.jpg","stimuli/HM10_CC.jpg","stimuli/WF11_DO.jpg","pos4","stimuli/WF11_DO.jpg","DO","WF11","3","3.5","7","6","stimuli/stars_7.png","153","[""HE"",""SUR"",""CC"",""DO""]","[""HF09"",""AF09"",""HM10"",""WF11""]","[3,1,6,7]","[4,2,8,6]","","",""
"show-reward","92","249471","0.0-92.0","p332530","A1XBKS1U674XFA","3RZS0FBRWLGDTA9TUPH81F59AWHPC0","3XIQGXAUMEEFDMEIF1OF4QUNUWU7XZ","model","match","uniform","","","","","","","","250264","252270.70000004768","","","","","","","","","","","","7","","stimuli/stars_7.png","153","","","","","stimuli/WF11_DO.jpg","",""
"explore-choice","93","251350","0.0-93.0","p332530","A1XBKS1U674XFA","3RZS0FBRWLGDTA9TUPH81F59AWHPC0","3XIQGXAUMEEFDMEIF1OF4QUNUWU7XZ","model","match","uniform","","","","","","","1363.5","252272","253635.5","[""stimuli/HF09_HE.jpg"",""stimuli/HM10_DO.jpg"",""stimuli/WF11_SUR.jpg"",""stimuli/AF09_CC.jpg""]","stimuli/HF09_HE.jpg","stimuli/HM10_DO.jpg","stimuli/WF11_SUR.jpg","stimuli/AF09_CC.jpg","pos2","stimuli/HM10_DO.jpg","DO","HM10","1","4","8","8","stimuli/stars_8.png","157","[""HE"",""DO"",""SUR"",""CC""]","[""HF09"",""HM10"",""WF11"",""AF09""]","[6,8,7,3]","[4,8,6,2]","","",""
"show-reward","94","253368","0.0-94.0","p332530","A1XBKS1U674XFA","3RZS0FBRWLGDTA9TUPH81F59AWHPC0","3XIQGXAUMEEFDMEIF1OF4QUNUWU7XZ","model","match","uniform","","","","","","","","254151.39999997616","256167.89999997616","","","","","","","","","","","","8","","stimuli/stars_8.png","157","","","","","stimuli/HM10_DO.jpg","",""
"explore-choice","95","255966","0.0-95.0","p332530","A1XBKS1U674XFA","3RZS0FBRWLGDTA9TUPH81F59AWHPC0","3XIQGXAUMEEFDMEIF1OF4QUNUWU7XZ","model","match","uniform","","","","","","","2094","256169.10000002384","258263.10000002384","[""stimuli/HF09_DO.jpg"",""stimuli/AF09_HE.jpg"",""stimuli/HM10_CC.jpg"",""stimuli/WF11_SUR.jpg""]","stimuli/HF09_DO.jpg","stimuli/AF09_HE.jpg","stimuli/HM10_CC.jpg","stimuli/WF11_SUR.jpg","pos3","stimuli/HM10_CC.jpg","CC","HM10","2","4.5","9","8","stimuli/stars_9.png","161.5","[""DO"",""HE"",""CC"",""SUR""]","[""HF09"",""AF09"",""HM10"",""WF11""]","[2,3,9,5]","[4,2,8,6]","","",""
"show-reward","96","257981","0.0-96.0","p332530","A1XBKS1U674XFA","3RZS0FBRWLGDTA9TUPH81F59AWHPC0","3XIQGXAUMEEFDMEIF1OF4QUNUWU7XZ","model","match","uniform","","","","","","","","258767.20000004768","260781.20000004768","","","","","","","","","","","","9","","stimuli/stars_9.png","161.5","","","","","stimuli/HM10_CC.jpg","",""
"explore-choice","97","260140","0.0-97.0","p332530","A1XBKS1U674XFA","3RZS0FBRWLGDTA9TUPH81F59AWHPC0","3XIQGXAUMEEFDMEIF1OF4QUNUWU7XZ","model","match","uniform","","","","","","","1647.1000000238419","260782.70000004768","262429.8000000715","[""stimuli/AF09_DO.jpg"",""stimuli/WF11_HE.jpg"",""stimuli/HM10_CC.jpg"",""stimuli/HF09_SUR.jpg""]","stimuli/AF09_DO.jpg","stimuli/WF11_HE.jpg","stimuli/HM10_CC.jpg","stimuli/HF09_SUR.jpg","pos3","stimuli/HM10_CC.jpg","CC","HM10","2","3","6","8","stimuli/stars_6.png","164.5","[""DO"",""HE"",""CC"",""SUR""]","[""AF09"",""WF11"",""HM10"",""HF09""]","[3,6,6,6]","[2,6,8,4]","","",""
"show-reward","98","262149","0.0-98.0","p332530","A1XBKS1U674XFA","3RZS0FBRWLGDTA9TUPH81F59AWHPC0","3XIQGXAUMEEFDMEIF1OF4QUNUWU7XZ","model","match","uniform","","","","","","","","262941.10000002384","264949.5","","","","","","","","","","","","6","","stimuli/stars_6.png","164.5","","","","","stimuli/HM10_CC.jpg","",""
"explore-choice","99","264733","0.0-99.0","p332530","A1XBKS1U674XFA","3RZS0FBRWLGDTA9TUPH81F59AWHPC0","3XIQGXAUMEEFDMEIF1OF4QUNUWU7XZ","model","match","uniform","","","","","","","2077.5","264950.8000000715","267028.3000000715","[""stimuli/WF11_SUR.jpg"",""stimuli/HF09_DO.jpg"",""stimuli/HM10_HE.jpg"",""stimuli/AF09_CC.jpg""]","stimuli/WF11_SUR.jpg","stimuli/HF09_DO.jpg","stimuli/HM10_HE.jpg","stimuli/AF09_CC.jpg","pos4","stimuli/AF09_CC.jpg","CC","AF09","3","1","2","2","stimuli/stars_2.png","165.5","[""SUR"",""DO"",""HE"",""CC""]","[""WF11"",""HF09"",""HM10"",""AF09""]","[8,6,7,2]","[6,4,8,2]","","",""
"show-reward","100","266743","0.0-100.0","p332530","A1XBKS1U674XFA","3RZS0FBRWLGDTA9TUPH81F59AWHPC0","3XIQGXAUMEEFDMEIF1OF4QUNUWU7XZ","model","match","uniform","","","","","","","","267534.10000002384","269543.5","","","","","","","","","","","","2","","stimuli/stars_2.png","165.5","","","","","stimuli/AF09_CC.jpg","",""
"explore-choice","101","268679","0.0-101.0","p332530","A1XBKS1U674XFA","3RZS0FBRWLGDTA9TUPH81F59AWHPC0","3XIQGXAUMEEFDMEIF1OF4QUNUWU7XZ","model","match","uniform","","","","","","","1419","269544.7000000477","270963.7000000477","[""stimuli/HM10_SUR.jpg"",""stimuli/AF09_DO.jpg"",""stimuli/WF11_CC.jpg"",""stimuli/HF09_HE.jpg""]","stimuli/HM10_SUR.jpg","stimuli/AF09_DO.jpg","stimuli/WF11_CC.jpg","stimuli/HF09_HE.jpg","pos3","stimuli/WF11_CC.jpg","CC","WF11","2","3","6","6","stimuli/stars_6.png","168.5","[""SUR"",""DO"",""CC"",""HE""]","[""HM10"",""AF09"",""WF11"",""HF09""]","[10,3,6,2]","[8,2,6,4]","","",""
"show-reward","102","270689","0.0-102.0","p332530","A1XBKS1U674XFA","3RZS0FBRWLGDTA9TUPH81F59AWHPC0","3XIQGXAUMEEFDMEIF1OF4QUNUWU7XZ","model","match","uniform","","","","","","","","271480.2000000477","273488.8000000715","","","","","","","","","","","","6","","stimuli/stars_6.png","168.5","","","","","stimuli/WF11_CC.jpg","",""
"explore-choice","103","273980","0.0-103.0","p332530","A1XBKS1U674XFA","3RZS0FBRWLGDTA9TUPH81F59AWHPC0","3XIQGXAUMEEFDMEIF1OF4QUNUWU7XZ","model","match","uniform","","","","","","","2782.100000023842","273489.89999997616","276272","[""stimuli/AM05_FO.jpg"",""stimuli/AF10_SC.jpg"",""stimuli/BF04_HO.jpg"",""stimuli/HM07_AO.jpg""]","stimuli/AM05_FO.jpg","stimuli/AF10_SC.jpg","stimuli/BF04_HO.jpg","stimuli/HM07_AO.jpg","pos1","stimuli/AM05_FO.jpg","FO","AM05","0","1","2","2","stimuli/stars_2.png","169.5","[""FO"",""SC"",""HO"",""AO""]","[""AM05"",""AF10"",""BF04"",""HM07""]","[2,8,6,6]","[2,6,8,4]","","",""
"show-reward","104","275991","0.0-104.0","p332530","A1XBKS1U674XFA","3RZS0FBRWLGDTA9TUPH81F59AWHPC0","3XIQGXAUMEEFDMEIF1OF4QUNUWU7XZ","model","match","uniform","","","","","","","","276781.3000000715","278791.39999997616","","","","","","","","","","","","2","","stimuli/stars_2.png","169.5","","","","","stimuli/AM05_FO.jpg","",""
"explore-choice","105","278055","0.0-105.0","p332530","A1XBKS1U674XFA","3RZS0FBRWLGDTA9TUPH81F59AWHPC0","3XIQGXAUMEEFDMEIF1OF4QUNUWU7XZ","model","match","uniform","","","","","","","1551.5","278792.60000002384","280344.10000002384","[""stimuli/HM07_HO.jpg"",""stimuli/AM05_SC.jpg"",""stimuli/BF04_AO.jpg"",""stimuli/AF10_FO.jpg""]","stimuli/HM07_HO.jpg","stimuli/AM05_SC.jpg","stimuli/BF04_AO.jpg","stimuli/AF10_FO.jpg","pos3","stimuli/BF04_AO.jpg","AO","BF04","2","4.5","9","8","stimuli/stars_9.png","174","[""HO"",""SC"",""AO"",""FO""]","[""HM07"",""AM05"",""BF04"",""AF10""]","[4,0,9,4]","[4,2,8,6]","","",""
"show-reward","106","280069","0.0-106.0","p332530","A1XBKS1U674XFA","3RZS0FBRWLGDTA9TUPH81F59AWHPC0","3XIQGXAUMEEFDMEIF1OF4QUNUWU7XZ","model","match","uniform","","","","","","","","280855.60000002384","282868.89999997616","","","","","","","","","","","","9","","stimuli/stars_9.png","174","","","","","stimuli/BF04_AO.jpg","",""
"explore-choice","107","281802","0.0-107.0","p332530","A1XBKS1U674XFA","3RZS0FBRWLGDTA9TUPH81F59AWHPC0","3XIQGXAUMEEFDMEIF1OF4QUNUWU7XZ","model","match","uniform","","","","","","","1224.5","282870.2000000477","284094.7000000477","[""stimuli/AF10_HO.jpg"",""stimuli/AM05_AO.jpg"",""stimuli/HM07_FO.jpg"",""stimuli/BF04_SC.jpg""]","stimuli/AF10_HO.jpg","stimuli/AM05_AO.jpg","stimuli/HM07_FO.jpg","stimuli/BF04_SC.jpg","pos2","stimuli/AM05_AO.jpg","AO","AM05","1","2","4","2","stimuli/stars_4.png","176","[""HO"",""AO"",""FO"",""SC""]","[""AF10"",""AM05"",""HM07"",""BF04""]","[4,4,5,9]","[6,2,4,8]","","",""
"show-reward","108","283811","0.0-108.0","p332530","A1XBKS1U674XFA","3RZS0FBRWLGDTA9TUPH81F59AWHPC0","3XIQGXAUMEEFDMEIF1OF4QUNUWU7XZ","model","match","uniform","","","","","","","","284602.7000000477","286611","","","","","","","","","","","","4","","stimuli/stars_4.png","176","","","","","stimuli/AM05_AO.jpg","",""
"explore-choice","109","286314","0.0-109.0","p332530","A1XBKS1U674XFA","3RZS0FBRWLGDTA9TUPH81F59AWHPC0","3XIQGXAUMEEFDMEIF1OF4QUNUWU7XZ","model","match","uniform","","","","","","","1992.3999999761581","286612.3000000715","288604.7000000477","[""stimuli/AM05_HO.jpg"",""stimuli/AF10_AO.jpg"",""stimuli/HM07_SC.jpg"",""stimuli/BF04_FO.jpg""]","stimuli/AM05_HO.jpg","stimuli/AF10_AO.jpg","stimuli/HM07_SC.jpg","stimuli/BF04_FO.jpg","pos3","stimuli/HM07_SC.jpg","SC","HM07","2","2","4","4","stimuli/stars_4.png","178","[""HO"",""AO"",""SC"",""FO""]","[""AM05"",""AF10"",""HM07"",""BF04""]","[1,5,4,8]","[2,6,4,8]","","",""
"show-reward","110","288322","0.0-110.0","p332530","A1XBKS1U674XFA","3RZS0FBRWLGDTA9TUPH81F59AWHPC0","3XIQGXAUMEEFDMEIF1OF4QUNUWU7XZ","model","match","uniform","","","","","","","","289114.60000002384","291122","","","","","","","","","","","","4","","stimuli/stars_4.png","178","","","","","stimuli/HM07_SC.jpg","",""
"explore-choice","111","290093","0.0-111.0","p332530","A1XBKS1U674XFA","3RZS0FBRWLGDTA9TUPH81F59AWHPC0","3XIQGXAUMEEFDMEIF1OF4QUNUWU7XZ","model","match","uniform","","","","","","","1254.3999999761581","291123.5","292377.89999997616","[""stimuli/HM07_FO.jpg"",""stimuli/AM05_SC.jpg"",""stimuli/AF10_HO.jpg"",""stimuli/BF04_AO.jpg""]","stimuli/HM07_FO.jpg","stimuli/AM05_SC.jpg","stimuli/AF10_HO.jpg","stimuli/BF04_AO.jpg","pos4","stimuli/BF04_AO.jpg","AO","BF04","3","3.5","7","8","stimuli/stars_7.png","181.5","[""FO"",""SC"",""HO"",""AO""]","[""HM07"",""AM05"",""AF10"",""BF04""]","[2,2,4,7]","[4,2,6,8]","","",""
"show-reward","112","292096","0.0-112.0","p332530","A1XBKS1U674XFA","3RZS0FBRWLGDTA9TUPH81F59AWHPC0","3XIQGXAUMEEFDMEIF1OF4QUNUWU7XZ","model","match","uniform","","","","","","","","292893.5","294896","","","","","","","","","","","","7","","stimuli/stars_7.png","181.5","","","","","stimuli/BF04_AO.jpg","",""
"explore-choice","113","294387","0.0-113.0","p332530","A1XBKS1U674XFA","3RZS0FBRWLGDTA9TUPH81F59AWHPC0","3XIQGXAUMEEFDMEIF1OF4QUNUWU7XZ","model","match","uniform","","","","","","","1782.6999999284744","294897.2000000477","296679.89999997616","[""stimuli/BF04_AO.jpg"",""stimuli/HM07_HO.jpg"",""stimuli/AF10_SC.jpg"",""stimuli/AM05_FO.jpg""]","stimuli/BF04_AO.jpg","stimuli/HM07_HO.jpg","stimuli/AF10_SC.jpg","stimuli/AM05_FO.jpg","pos3","stimuli/AF10_SC.jpg","SC","AF10","2","4","8","6","stimuli/stars_8.png","185.5","[""AO"",""HO"",""SC"",""FO""]","[""BF04"",""HM07"",""AF10"",""AM05""]","[10,3,8,0]","[8,4,6,2]","","",""
"show-reward","114","296402","0.0-114.0","p332530","A1XBKS1U674XFA","3RZS0FBRWLGDTA9TUPH81F59AWHPC0","3XIQGXAUMEEFDMEIF1OF4QUNUWU7XZ","model","match","uniform","","","","","","","","297188","299201.5","","","","","","","","","","","","8","","stimuli/stars_8.png","185.5","","","","","stimuli/AF10_SC.jpg","",""
"explore-choice","115","298626","0.0-115.0","p332530","A1XBKS1U674XFA","3RZS0FBRWLGDTA9TUPH81F59AWHPC0","3XIQGXAUMEEFDMEIF1OF4QUNUWU7XZ","model","match","uniform","","","","","","","1713.8999999761581","299202.5","300916.39999997616","[""stimuli/HM07_HO.jpg"",""stimuli/AF10_AO.jpg"",""stimuli/AM05_FO.jpg"",""stimuli/BF04_SC.jpg""]","stimuli/HM07_HO.jpg","stimuli/AF10_AO.jpg","stimuli/AM05_FO.jpg","stimuli/BF04_SC.jpg","pos4","stimuli/BF04_SC.jpg","SC","BF04","3","4.5","9","8","stimuli/stars_9.png","190","[""HO"",""AO"",""FO"",""SC""]","[""HM07"",""AF10"",""AM05"",""BF04""]","[2,8,0,9]","[4,6,2,8]","","",""
"show-reward","116","300644","0.0-116.0","p332530","A1XBKS1U674XFA","3RZS0FBRWLGDTA9TUPH81F59AWHPC0","3XIQGXAUMEEFDMEIF1OF4QUNUWU7XZ","model","match","uniform","","","","","","","","301427.39999997616","303443.5","","","","","","","","","","","","9","","stimuli/stars_9.png","190","","","","","stimuli/BF04_SC.jpg","",""
"explore-choice","117","302494","0.0-117.0","p332530","A1XBKS1U674XFA","3RZS0FBRWLGDTA9TUPH81F59AWHPC0","3XIQGXAUMEEFDMEIF1OF4QUNUWU7XZ","model","match","uniform","","","","","","","1348.6000000238419","303444.5","304793.10000002384","[""stimuli/AM05_FO.jpg"",""stimuli/HM07_SC.jpg"",""stimuli/BF04_AO.jpg"",""stimuli/AF10_HO.jpg""]","stimuli/AM05_FO.jpg","stimuli/HM07_SC.jpg","stimuli/BF04_AO.jpg","stimuli/AF10_HO.jpg","pos4","stimuli/AF10_HO.jpg","HO","AF10","3","2.5","5","6","stimuli/stars_5.png","192.5","[""FO"",""SC"",""AO"",""HO""]","[""AM05"",""HM07"",""BF04"",""AF10""]","[1,5,8,5]","[2,4,8,6]","","",""
"show-reward","118","304505","0.0-118.0","p332530","A1XBKS1U674XFA","3RZS0FBRWLGDTA9TUPH81F59AWHPC0","3XIQGXAUMEEFDMEIF1OF4QUNUWU7XZ","model","match","uniform","","","","","","","","305295.10000002384","307304.8000000715","","","","","","","","","","","","5","","stimuli/stars_5.png","192.5","","","","","stimuli/AF10_HO.jpg","",""
"explore-choice","119","306551","0.0-119.0","p332530","A1XBKS1U674XFA","3RZS0FBRWLGDTA9TUPH81F59AWHPC0","3XIQGXAUMEEFDMEIF1OF4QUNUWU7XZ","model","match","uniform","","","","","","","1534.8999999761581","307306","308840.89999997616","[""stimuli/AM05_HO.jpg"",""stimuli/BF04_AO.jpg"",""stimuli/AF10_FO.jpg"",""stimuli/HM07_SC.jpg""]","stimuli/AM05_HO.jpg","stimuli/BF04_AO.jpg","stimuli/AF10_FO.jpg","stimuli/HM07_SC.jpg","pos1","stimuli/AM05_HO.jpg","HO","AM05","0","1","2","2","stimuli/stars_2.png","193.5","[""HO"",""AO"",""FO"",""SC""]","[""AM05"",""BF04"",""AF10"",""HM07""]","[2,7,7,2]","[2,8,6,4]","","",""
"show-reward","120","308566","0.0-120.0","p332530","A1XBKS1U674XFA","3RZS0FBRWLGDTA9TUPH81F59AWHPC0","3XIQGXAUMEEFDMEIF1OF4QUNUWU7XZ","model","match","uniform","","","","","","","","309352.2000000477","311366","","","","","","","","","","","","2","","stimuli/stars_2.png","193.5","","","","","stimuli/AM05_HO.jpg","",""
"explore-choice","121","310427","0.0-121.0","p332530","A1XBKS1U674XFA","3RZS0FBRWLGDTA9TUPH81F59AWHPC0","3XIQGXAUMEEFDMEIF1OF4QUNUWU7XZ","model","match","uniform","","","","","","","1347","311367.2000000477","312714.2000000477","[""stimuli/AF10_HO.jpg"",""stimuli/BF04_SC.jpg"",""stimuli/HM07_AO.jpg"",""stimuli/AM05_FO.jpg""]","stimuli/AF10_HO.jpg","stimuli/BF04_SC.jpg","stimuli/HM07_AO.jpg","stimuli/AM05_FO.jpg","pos3","stimuli/HM07_AO.jpg","AO","HM07","2","1.5","3","4","stimuli/stars_3.png","195","[""HO"",""SC"",""AO"",""FO""]","[""AF10"",""BF04"",""HM07"",""AM05""]","[5,9,3,3]","[6,8,4,2]","","",""
"show-reward","122","312439","0.0-122.0","p332530","A1XBKS1U674XFA","3RZS0FBRWLGDTA9TUPH81F59AWHPC0","3XIQGXAUMEEFDMEIF1OF4QUNUWU7XZ","model","match","uniform","","","","","","","","313227.7000000477","315238.5","","","","","","","","","","","","3","","stimuli/stars_3.png","195","","","","","stimuli/HM07_AO.jpg","",""
"explore-choice","123","314033","0.0-123.0","p332530","A1XBKS1U674XFA","3RZS0FBRWLGDTA9TUPH81F59AWHPC0","3XIQGXAUMEEFDMEIF1OF4QUNUWU7XZ","model","match","uniform","","","","","","","1089.8999999761581","315239.8000000715","316329.7000000477","[""stimuli/AM05_AO.jpg"",""stimuli/AF10_SC.jpg"",""stimuli/HM07_FO.jpg"",""stimuli/BF04_HO.jpg""]","stimuli/AM05_AO.jpg","stimuli/AF10_SC.jpg","stimuli/HM07_FO.jpg","stimuli/BF04_HO.jpg","pos4","stimuli/BF04_HO.jpg","HO","BF04","3","3","6","8","stimuli/stars_6.png","198","[""AO"",""SC"",""FO"",""HO""]","[""AM05"",""AF10"",""HM07"",""BF04""]","[4,8,2,6]","[2,6,4,8]","","",""
"show-reward","124","316048","0.0-124.0","p332530","A1XBKS1U674XFA","3RZS0FBRWLGDTA9TUPH81F59AWHPC0","3XIQGXAUMEEFDMEIF1OF4QUNUWU7XZ","model","match","uniform","","","","","","","","316834.60000002384","318847.8000000715","","","","","","","","","","","","6","","stimuli/stars_6.png","198","","","","","stimuli/BF04_HO.jpg","",""
"explore-choice","125","320596","0.0-125.0","p332530","A1XBKS1U674XFA","3RZS0FBRWLGDTA9TUPH81F59AWHPC0","3XIQGXAUMEEFDMEIF1OF4QUNUWU7XZ","model","match","uniform","","","","","","","4036.0999999046326","318848.8000000715","322884.89999997616","[""stimuli/AM05_HO.jpg"",""stimuli/AF10_FO.jpg"",""stimuli/BF04_SC.jpg"",""stimuli/HM07_AO.jpg""]","stimuli/AM05_HO.jpg","stimuli/AF10_FO.jpg","stimuli/BF04_SC.jpg","stimuli/HM07_AO.jpg","pos2","stimuli/AF10_FO.jpg","FO","AF10","1","3.5","7","6","stimuli/stars_7.png","201.5","[""HO"",""FO"",""SC"",""AO""]","[""AM05"",""AF10"",""BF04"",""HM07""]","[3,7,7,5]","[2,6,8,4]","","",""
"show-reward","126","322612","0.0-126.0","p332530","A1XBKS1U674XFA","3RZS0FBRWLGDTA9TUPH81F59AWHPC0","3XIQGXAUMEEFDMEIF1OF4QUNUWU7XZ","model","match","uniform","","","","","","","","323397.10000002384","325412.39999997616","","","","","","","","","","","","7","","stimuli/stars_7.png","201.5","","","","","stimuli/AF10_FO.jpg","",""
"explore-choice","127","324186","0.0-127.0","p332530","A1XBKS1U674XFA","3RZS0FBRWLGDTA9TUPH81F59AWHPC0","3XIQGXAUMEEFDMEIF1OF4QUNUWU7XZ","model","match","uniform","","","","","","","1067.3999999761581","325413.5","326480.89999997616","[""stimuli/AM05_SC.jpg"",""stimuli/HM07_AO.jpg"",""stimuli/BF04_FO.jpg"",""stimuli/AF10_HO.jpg""]","stimuli/AM05_SC.jpg","stimuli/HM07_AO.jpg","stimuli/BF04_FO.jpg","stimuli/AF10_HO.jpg","pos3","stimuli/BF04_FO.jpg","FO","BF04","2","4.5","9","8","stimuli/stars_9.png","206","[""SC"",""AO"",""FO"",""HO""]","[""AM05"",""HM07"",""BF04"",""AF10""]","[3,4,9,4]","[2,4,8,6]","","",""
"show-reward","128","326196","0.0-128.0","p332530","A1XBKS1U674XFA","3RZS0FBRWLGDTA9TUPH81F59AWHPC0","3XIQGXAUMEEFDMEIF1OF4QUNUWU7XZ","model","match","uniform","","","","","","","","326987.60000002384","328995.7000000477","","","","","","","","","","","","9","","stimuli/stars_9.png","206","","","","","stimuli/BF04_FO.jpg","",""
"explore-choice","129","327943","0.0-129.0","p332530","A1XBKS1U674XFA","3RZS0FBRWLGDTA9TUPH81F59AWHPC0","3XIQGXAUMEEFDMEIF1OF4QUNUWU7XZ","model","match","uniform","","","","","","","1232.1999999284744","328996.8000000715","330229","[""stimuli/AM05_HO.jpg"",""stimuli/BF04_FO.jpg"",""stimuli/AF10_SC.jpg"",""stimuli/HM07_AO.jpg""]","stimuli/AM05_HO.jpg","stimuli/BF04_FO.jpg","stimuli/AF10_SC.jpg","stimuli/HM07_AO.jpg","pos2","stimuli/BF04_FO.jpg","FO","BF04","1","5","10","8","stimuli/stars_10.png","211","[""HO"",""FO"",""SC"",""AO""]","[""AM05"",""BF04"",""AF10"",""HM07""]","[3,10,5,2]","[2,8,6,4]","","",""
"show-reward","130","329950","0.0-130.0","p332530","A1XBKS1U674XFA","3RZS0FBRWLGDTA9TUPH81F59AWHPC0","3XIQGXAUMEEFDMEIF1OF4QUNUWU7XZ","model","match","uniform","","","","","","","","330744.39999997616","332750.10000002384","","","","","","","","","","","","10","","stimuli/stars_10.png","211","","","","","stimuli/BF04_FO.jpg","",""
"explore-choice","131","331632","0.0-131.0","p332530","A1XBKS1U674XFA","3RZS0FBRWLGDTA9TUPH81F59AWHPC0","3XIQGXAUMEEFDMEIF1OF4QUNUWU7XZ","model","match","uniform","","","","","","","1175.6000000238419","332751","333926.60000002384","[""stimuli/AM05_AO.jpg"",""stimuli/HM07_HO.jpg"",""stimuli/BF04_FO.jpg"",""stimuli/AF10_SC.jpg""]","stimuli/AM05_AO.jpg","stimuli/HM07_HO.jpg","stimuli/BF04_FO.jpg","stimuli/AF10_SC.jpg","pos3","stimuli/BF04_FO.jpg","FO","BF04","2","3.5","7","8","stimuli/stars_7.png","214.5","[""AO"",""HO"",""FO"",""SC""]","[""AM05"",""HM07"",""BF04"",""AF10""]","[4,6,7,8]","[2,4,8,6]","","",""
"show-reward","132","333635","0.0-132.0","p332530","A1XBKS1U674XFA","3RZS0FBRWLGDTA9TUPH81F59AWHPC0","3XIQGXAUMEEFDMEIF1OF4QUNUWU7XZ","model","match","uniform","","","","","","","","334432.7000000477","336435.39999997616","","","","","","","","","","","","7","","stimuli/stars_7.png","214.5","","","","","stimuli/BF04_FO.jpg","",""
"explore-choice","133","335152","0.0-133.0","p332530","A1XBKS1U674XFA","3RZS0FBRWLGDTA9TUPH81F59AWHPC0","3XIQGXAUMEEFDMEIF1OF4QUNUWU7XZ","model","match","uniform","","","","","","","1009","336436.10000002384","337445.10000002384","[""stimuli/AF10_AO.jpg"",""stimuli/BF04_HO.jpg"",""stimuli/HM07_SC.jpg"",""stimuli/AM05_FO.jpg""]","stimuli/AF10_AO.jpg","stimuli/BF04_HO.jpg","stimuli/HM07_SC.jpg","stimuli/AM05_FO.jpg","pos2","stimuli/BF04_HO.jpg","HO","BF04","1","4","8","8","stimuli/stars_8.png","218.5","[""AO"",""HO"",""SC"",""FO""]","[""AF10"",""BF04"",""HM07"",""AM05""]","[8,8,6,0]","[6,8,4,2]","","",""
"show-reward","134","337170","0.0-134.0","p332530","A1XBKS1U674XFA","3RZS0FBRWLGDTA9TUPH81F59AWHPC0","3XIQGXAUMEEFDMEIF1OF4QUNUWU7XZ","model","match","uniform","","","","","","","","337953.2000000477","339970.3000000715","","","","","","","","","","","","8","","stimuli/stars_8.png","218.5","","","","","stimuli/BF04_HO.jpg","",""
"explore-choice","135","338867","0.0-135.0","p332530","A1XBKS1U674XFA","3RZS0FBRWLGDTA9TUPH81F59AWHPC0","3XIQGXAUMEEFDMEIF1OF4QUNUWU7XZ","model","match","uniform","","","","","","","1188.8999999761581","339971.5","341160.39999997616","[""stimuli/HM07_HO.jpg"",""stimuli/BF04_FO.jpg"",""stimuli/AM05_SC.jpg"",""stimuli/AF10_AO.jpg""]","stimuli/HM07_HO.jpg","stimuli/BF04_FO.jpg","stimuli/AM05_SC.jpg","stimuli/AF10_AO.jpg","pos2","stimuli/BF04_FO.jpg","FO","BF04","1","5","10","8","stimuli/stars_10.png","223.5","[""HO"",""FO"",""SC"",""AO""]","[""HM07"",""BF04"",""AM05"",""AF10""]","[3,10,2,7]","[4,8,2,6]","","",""
"show-reward","136","340874","0.0-136.0","p332530","A1XBKS1U674XFA","3RZS0FBRWLGDTA9TUPH81F59AWHPC0","3XIQGXAUMEEFDMEIF1OF4QUNUWU7XZ","model","match","uniform","","","","","","","","341668.60000002384","343674.89999997616","","","","","","","","","","","","10","","stimuli/stars_10.png","223.5","","","","","stimuli/BF04_FO.jpg","",""
"explore-choice","137","342768","0.0-137.0","p332530","A1XBKS1U674XFA","3RZS0FBRWLGDTA9TUPH81F59AWHPC0","3XIQGXAUMEEFDMEIF1OF4QUNUWU7XZ","model","match","uniform","","","","","","","1387.1000000238419","343675.89999997616","345063","[""stimuli/HM07_SC.jpg"",""stimuli/AF10_HO.jpg"",""stimuli/BF04_FO.jpg"",""stimuli/AM05_AO.jpg""]","stimuli/HM07_SC.jpg","stimuli/AF10_HO.jpg","stimuli/BF04_FO.jpg","stimuli/AM05_AO.jpg","pos3","stimuli/BF04_FO.jpg","FO","BF04","2","3.5","7","8","stimuli/stars_7.png","227","[""SC"",""HO"",""FO"",""AO""]","[""HM07"",""AF10"",""BF04"",""AM05""]","[3,6,7,4]","[4,6,8,2]","","",""
"show-reward","138","344784","0.0-138.0","p332530","A1XBKS1U674XFA","3RZS0FBRWLGDTA9TUPH81F59AWHPC0","3XIQGXAUMEEFDMEIF1OF4QUNUWU7XZ","model","match","uniform","","","","","","","","345569.5","347584.8000000715","","","","","","","","","","","","7","","stimuli/stars_7.png","227","","","","","stimuli/BF04_FO.jpg","",""
"explore-choice","139","346718","0.0-139.0","p332530","A1XBKS1U674XFA","3RZS0FBRWLGDTA9TUPH81F59AWHPC0","3XIQGXAUMEEFDMEIF1OF4QUNUWU7XZ","model","match","uniform","","","","","","","1421.2999999523163","347586.2000000477","349007.5","[""stimuli/AF10_AO.jpg"",""stimuli/AM05_SC.jpg"",""stimuli/BF04_HO.jpg"",""stimuli/HM07_FO.jpg""]","stimuli/AF10_AO.jpg","stimuli/AM05_SC.jpg","stimuli/BF04_HO.jpg","stimuli/HM07_FO.jpg","pos3","stimuli/BF04_HO.jpg","HO","BF04","2","3","6","8","stimuli/stars_6.png","230","[""AO"",""SC"",""HO"",""FO""]","[""AF10"",""AM05"",""BF04"",""HM07""]","[8,1,6,4]","[6,2,8,4]","","",""
"show-reward","140","348724","0.0-140.0","p332530","A1XBKS1U674XFA","3RZS0FBRWLGDTA9TUPH81F59AWHPC0","3XIQGXAUMEEFDMEIF1OF4QUNUWU7XZ","model","match","uniform","","","","","","","","349519.5","351524.2000000477","","","","","","","","","","","","6","","stimuli/stars_6.png","230","","","","","stimuli/BF04_HO.jpg","",""
"explore-choice","141","350745","0.0-141.0","p332530","A1XBKS1U674XFA","3RZS0FBRWLGDTA9TUPH81F59AWHPC0","3XIQGXAUMEEFDMEIF1OF4QUNUWU7XZ","model","match","uniform","","","","","","","1504.9000000953674","351525.39999997616","353030.3000000715","[""stimuli/AF10_SC.jpg"",""stimuli/AM05_HO.jpg"",""stimuli/HM07_FO.jpg"",""stimuli/BF04_AO.jpg""]","stimuli/AF10_SC.jpg","stimuli/AM05_HO.jpg","stimuli/HM07_FO.jpg","stimuli/BF04_AO.jpg","pos4","stimuli/BF04_AO.jpg","AO","BF04","3","5","10","8","stimuli/stars_10.png","235","[""SC"",""HO"",""FO"",""AO""]","[""AF10"",""AM05"",""HM07"",""BF04""]","[5,0,5,10]","[6,2,4,8]","","",""
"show-reward","142","352762","0.0-142.0","p332530","A1XBKS1U674XFA","3RZS0FBRWLGDTA9TUPH81F59AWHPC0","3XIQGXAUMEEFDMEIF1OF4QUNUWU7XZ","model","match","uniform","","","","","","","","353546.3000000715","355563","","","","","","","","","","","","10","","stimuli/stars_10.png","235","","","","","stimuli/BF04_AO.jpg","",""
"explore-choice","143","354367","0.0-143.0","p332530","A1XBKS1U674XFA","3RZS0FBRWLGDTA9TUPH81F59AWHPC0","3XIQGXAUMEEFDMEIF1OF4QUNUWU7XZ","model","match","uniform","","","","","","","1090.7000000476837","355564.10000002384","356654.8000000715","[""stimuli/HM07_HO.jpg"",""stimuli/AF10_FO.jpg"",""stimuli/BF04_SC.jpg"",""stimuli/AM05_AO.jpg""]","stimuli/HM07_HO.jpg","stimuli/AF10_FO.jpg","stimuli/BF04_SC.jpg","stimuli/AM05_AO.jpg","pos3","stimuli/BF04_SC.jpg","SC","BF04","2","4.5","9","8","stimuli/stars_9.png","239.5","[""HO"",""FO"",""SC"",""AO""]","[""HM07"",""AF10"",""BF04"",""AM05""]","[2,4,9,3]","[4,6,8,2]","","",""
"show-reward","144","356382","0.0-144.0","p332530","A1XBKS1U674XFA","3RZS0FBRWLGDTA9TUPH81F59AWHPC0","3XIQGXAUMEEFDMEIF1OF4QUNUWU7XZ","model","match","uniform","","","","","","","","357168.8000000715","359182","","","","","","","","","","","","9","","stimuli/stars_9.png","239.5","","","","","stimuli/BF04_SC.jpg","",""
"explore-choice","145","358079","0.0-145.0","p332530","A1XBKS1U674XFA","3RZS0FBRWLGDTA9TUPH81F59AWHPC0","3XIQGXAUMEEFDMEIF1OF4QUNUWU7XZ","model","match","uniform","","","","","","","1188.5","359183.39999997616","360371.89999997616","[""stimuli/BF04_SC.jpg"",""stimuli/HM07_FO.jpg"",""stimuli/AM05_HO.jpg"",""stimuli/AF10_AO.jpg""]","stimuli/BF04_SC.jpg","stimuli/HM07_FO.jpg","stimuli/AM05_HO.jpg","stimuli/AF10_AO.jpg","pos1","stimuli/BF04_SC.jpg","SC","BF04","0","4","8","8","stimuli/stars_8.png","243.5","[""SC"",""FO"",""HO"",""AO""]","[""BF04"",""HM07"",""AM05"",""AF10""]","[8,6,1,4]","[8,4,2,6]","","",""
"show-reward","146","360092","0.0-146.0","p332530","A1XBKS1U674XFA","3RZS0FBRWLGDTA9TUPH81F59AWHPC0","3XIQGXAUMEEFDMEIF1OF4QUNUWU7XZ","model","match","uniform","","","","","","","","360880","362892.3000000715","","","","","","","","","","","","8","","stimuli/stars_8.png","243.5","","","","","stimuli/BF04_SC.jpg","",""
"explore-choice","147","361619","0.0-147.0","p332530","A1XBKS1U674XFA","3RZS0FBRWLGDTA9TUPH81F59AWHPC0","3XIQGXAUMEEFDMEIF1OF4QUNUWU7XZ","model","match","uniform","","","","","","","1016.3999999761581","362893.60000002384","363910","[""stimuli/BF04_HO.jpg"",""stimuli/AM05_SC.jpg"",""stimuli/AF10_FO.jpg"",""stimuli/HM07_AO.jpg""]","stimuli/BF04_HO.jpg","stimuli/AM05_SC.jpg","stimuli/AF10_FO.jpg","stimuli/HM07_AO.jpg","pos1","stimuli/BF04_HO.jpg","HO","BF04","0","4","8","8","stimuli/stars_8.png","247.5","[""HO"",""SC"",""FO"",""AO""]","[""BF04"",""AM05"",""AF10"",""HM07""]","[8,3,5,4]","[8,2,6,4]","","",""
"show-reward","148","363628","0.0-148.0","p332530","A1XBKS1U674XFA","3RZS0FBRWLGDTA9TUPH81F59AWHPC0","3XIQGXAUMEEFDMEIF1OF4QUNUWU7XZ","model","match","uniform","","","","","","","","364420.7000000477","366428.5","","","","","","","","","","","","8","","stimuli/stars_8.png","247.5","","","","","stimuli/BF04_HO.jpg","",""
"explore-choice","149","365476","0.0-149.0","p332530","A1XBKS1U674XFA","3RZS0FBRWLGDTA9TUPH81F59AWHPC0","3XIQGXAUMEEFDMEIF1OF4QUNUWU7XZ","model","match","uniform","","","","","","","1345.3999999761581","366429.7000000477","367775.10000002384","[""stimuli/AF10_FO.jpg"",""stimuli/AM05_AO.jpg"",""stimuli/BF04_HO.jpg"",""stimuli/HM07_SC.jpg""]","stimuli/AF10_FO.jpg","stimuli/AM05_AO.jpg","stimuli/BF04_HO.jpg","stimuli/HM07_SC.jpg","pos3","stimuli/BF04_HO.jpg","HO","BF04","2","4","8","8","stimuli/stars_8.png","251.5","[""FO"",""AO"",""HO"",""SC""]","[""AF10"",""AM05"",""BF04"",""HM07""]","[5,0,8,6]","[6,2,8,4]","","",""
"show-reward","150","367481","0.0-150.0","p332530","A1XBKS1U674XFA","3RZS0FBRWLGDTA9TUPH81F59AWHPC0","3XIQGXAUMEEFDMEIF1OF4QUNUWU7XZ","model","match","uniform","","","","","","","","368278.10000002384","370281.10000002384","","","","","","","","","","","","8","","stimuli/stars_8.png","251.5","","","","","stimuli/BF04_HO.jpg","",""
"explore-choice","151","369380","0.0-151.0","p332530","A1XBKS1U674XFA","3RZS0FBRWLGDTA9TUPH81F59AWHPC0","3XIQGXAUMEEFDMEIF1OF4QUNUWU7XZ","model","match","uniform","","","","","","","1390.3000000715256","370282.5","371672.8000000715","[""stimuli/AM05_SC.jpg"",""stimuli/BF04_FO.jpg"",""stimuli/AF10_AO.jpg"",""stimuli/HM07_HO.jpg""]","stimuli/AM05_SC.jpg","stimuli/BF04_FO.jpg","stimuli/AF10_AO.jpg","stimuli/HM07_HO.jpg","pos2","stimuli/BF04_FO.jpg","FO","BF04","1","5","10","8","stimuli/stars_10.png","256.5","[""SC"",""FO"",""AO"",""HO""]","[""AM05"",""BF04"",""AF10"",""HM07""]","[2,10,7,3]","[2,8,6,4]","","",""
"show-reward","152","371393","0.0-152.0","p332530","A1XBKS1U674XFA","3RZS0FBRWLGDTA9TUPH81F59AWHPC0","3XIQGXAUMEEFDMEIF1OF4QUNUWU7XZ","model","match","uniform","","","","","","","","372181.89999997616","374193.10000002384","","","","","","","","","","","","10","","stimuli/stars_10.png","256.5","","","","","stimuli/BF04_FO.jpg","",""
"explore-choice","153","373045","0.0-153.0","p332530","A1XBKS1U674XFA","3RZS0FBRWLGDTA9TUPH81F59AWHPC0","3XIQGXAUMEEFDMEIF1OF4QUNUWU7XZ","model","match","uniform","","","","","","","1137.6000000238419","374194.10000002384","375331.7000000477","[""stimuli/HM07_HO.jpg"",""stimuli/BF04_SC.jpg"",""stimuli/AF10_AO.jpg"",""stimuli/AM05_FO.jpg""]","stimuli/HM07_HO.jpg","stimuli/BF04_SC.jpg","stimuli/AF10_AO.jpg","stimuli/AM05_FO.jpg","pos2","stimuli/BF04_SC.jpg","SC","BF04","1","4.5","9","8","stimuli/stars_9.png","261","[""HO"",""SC"",""AO"",""FO""]","[""HM07"",""BF04"",""AF10"",""AM05""]","[2,9,8,0]","[4,8,6,2]","","",""
"show-reward","154","375055","0.0-154.0","p332530","A1XBKS1U674XFA","3RZS0FBRWLGDTA9TUPH81F59AWHPC0","3XIQGXAUMEEFDMEIF1OF4QUNUWU7XZ","model","match","uniform","","","","","","","","375845.89999997616","377855.7000000477","","","","","","","","","","","","9","","stimuli/stars_9.png","261","","","","","stimuli/BF04_SC.jpg","",""
"explore-choice","155","376301","0.0-155.0","p332530","A1XBKS1U674XFA","3RZS0FBRWLGDTA9TUPH81F59AWHPC0","3XIQGXAUMEEFDMEIF1OF4QUNUWU7XZ","model","match","uniform","","","","","","","743.3000000715256","377857","378600.3000000715","[""stimuli/AM05_HO.jpg"",""stimuli/BF04_AO.jpg"",""stimuli/HM07_FO.jpg"",""stimuli/AF10_SC.jpg""]","stimuli/AM05_HO.jpg","stimuli/BF04_AO.jpg","stimuli/HM07_FO.jpg","stimuli/AF10_SC.jpg","pos2","stimuli/BF04_AO.jpg","AO","BF04","1","5","10","8","stimuli/stars_10.png","266","[""HO"",""AO"",""FO"",""SC""]","[""AM05"",""BF04"",""HM07"",""AF10""]","[0,10,5,5]","[2,8,4,6]","","",""
"show-reward","156","378318","0.0-156.0","p332530","A1XBKS1U674XFA","3RZS0FBRWLGDTA9TUPH81F59AWHPC0","3XIQGXAUMEEFDMEIF1OF4QUNUWU7XZ","model","match","uniform","","","","","","","","379103.3000000715","381118.60000002384","","","","","","","","","","","","10","","stimuli/stars_10.png","266","","","","","stimuli/BF04_AO.jpg","",""
"explore-choice","157","379795","0.0-157.0","p332530","A1XBKS1U674XFA","3RZS0FBRWLGDTA9TUPH81F59AWHPC0","3XIQGXAUMEEFDMEIF1OF4QUNUWU7XZ","model","match","uniform","","","","","","","969.7000000476837","381119.5","382089.2000000477","[""stimuli/BF04_AO.jpg"",""stimuli/HM07_FO.jpg"",""stimuli/AM05_SC.jpg"",""stimuli/AF10_HO.jpg""]","stimuli/BF04_AO.jpg","stimuli/HM07_FO.jpg","stimuli/AM05_SC.jpg","stimuli/AF10_HO.jpg","pos1","stimuli/BF04_AO.jpg","AO","BF04","0","3.5","7","8","stimuli/stars_7.png","269.5","[""AO"",""FO"",""SC"",""HO""]","[""BF04"",""HM07"",""AM05"",""AF10""]","[7,2,2,4]","[8,4,2,6]","","",""
"show-reward","158","381807","0.0-158.0","p332530","A1XBKS1U674XFA","3RZS0FBRWLGDTA9TUPH81F59AWHPC0","3XIQGXAUMEEFDMEIF1OF4QUNUWU7XZ","model","match","uniform","","","","","","","","382597","384607.7000000477","","","","","","","","","","","","7","","stimuli/stars_7.png","269.5","","","","","stimuli/BF04_AO.jpg","",""
"explore-choice","159","383585","0.0-159.0","p332530","A1XBKS1U674XFA","3RZS0FBRWLGDTA9TUPH81F59AWHPC0","3XIQGXAUMEEFDMEIF1OF4QUNUWU7XZ","model","match","uniform","","","","","","","1274.1000000238419","384608.60000002384","385882.7000000477","[""stimuli/BF04_HO.jpg"",""stimuli/AF10_AO.jpg"",""stimuli/HM07_FO.jpg"",""stimuli/AM05_SC.jpg""]","stimuli/BF04_HO.jpg","stimuli/AF10_AO.jpg","stimuli/HM07_FO.jpg","stimuli/AM05_SC.jpg","pos1","stimuli/BF04_HO.jpg","HO","BF04","0","3","6","8","stimuli/stars_6.png","272.5","[""HO"",""AO"",""FO"",""SC""]","[""BF04"",""AF10"",""HM07"",""AM05""]","[6,8,4,1]","[8,6,4,2]","","",""
"show-reward","160","385596","0.0-160.0","p332530","A1XBKS1U674XFA","3RZS0FBRWLGDTA9TUPH81F59AWHPC0","3XIQGXAUMEEFDMEIF1OF4QUNUWU7XZ","model","match","uniform","","","","","","","","386386.7000000477","388396.60000002384","","","","","","","","","","","","6","","stimuli/stars_6.png","272.5","","","","","stimuli/BF04_HO.jpg","",""
"explore-choice","161","387612","0.0-161.0","p332530","A1XBKS1U674XFA","3RZS0FBRWLGDTA9TUPH81F59AWHPC0","3XIQGXAUMEEFDMEIF1OF4QUNUWU7XZ","model","match","uniform","","","","","","","1501.6000000238419","388398","389899.60000002384","[""stimuli/AF10_SC.jpg"",""stimuli/HM07_HO.jpg"",""stimuli/AM05_AO.jpg"",""stimuli/BF04_FO.jpg""]","stimuli/AF10_SC.jpg","stimuli/HM07_HO.jpg","stimuli/AM05_AO.jpg","stimuli/BF04_FO.jpg","pos3","stimuli/AM05_AO.jpg","AO","AM05","2","2","4","2","stimuli/stars_4.png","274.5","[""SC"",""HO"",""AO"",""FO""]","[""AF10"",""HM07"",""AM05"",""BF04""]","[8,6,4,7]","[6,4,2,8]","","",""
"show-reward","162","389622","0.0-162.0","p332530","A1XBKS1U674XFA","3RZS0FBRWLGDTA9TUPH81F59AWHPC0","3XIQGXAUMEEFDMEIF1OF4QUNUWU7XZ","model","match","uniform","","","","","","","","390413.5","392422.5","","","","","","","","","","","","4","","stimuli/stars_4.png","274.5","","","","","stimuli/AM05_AO.jpg","",""
"explore-choice","163","391395","0.0-163.0","p332530","A1XBKS1U674XFA","3RZS0FBRWLGDTA9TUPH81F59AWHPC0","3XIQGXAUMEEFDMEIF1OF4QUNUWU7XZ","model","match","uniform","","","","","","","1267.3999999761581","392423.8000000715","393691.2000000477","[""stimuli/AF10_AO.jpg"",""stimuli/BF04_HO.jpg"",""stimuli/AM05_FO.jpg"",""stimuli/HM07_SC.jpg""]","stimuli/AF10_AO.jpg","stimuli/BF04_HO.jpg","stimuli/AM05_FO.jpg","stimuli/HM07_SC.jpg","pos2","stimuli/BF04_HO.jpg","HO","BF04","1","4","8","8","stimuli/stars_8.png","278.5","[""AO"",""HO"",""FO"",""SC""]","[""AF10"",""BF04"",""AM05"",""HM07""]","[8,8,0,6]","[6,8,2,4]","","",""
"show-reward","164","393403","0.0-164.0","p332530","A1XBKS1U674XFA","3RZS0FBRWLGDTA9TUPH81F59AWHPC0","3XIQGXAUMEEFDMEIF1OF4QUNUWU7XZ","model","match","uniform","","","","","","","","394197.2000000477","396203.7000000477","","","","","","","","","","","","8","","stimuli/stars_8.png","278.5","","","","","stimuli/BF04_HO.jpg","",""
"explore-choice","165","395633","0.0-165.0","p332530","A1XBKS1U674XFA","3RZS0FBRWLGDTA9TUPH81F59AWHPC0","3XIQGXAUMEEFDMEIF1OF4QUNUWU7XZ","model","match","uniform","","","","","","","1721.5","396205","397926.5","[""stimuli/AM05_AO.jpg"",""stimuli/HM07_SC.jpg"",""stimuli/BF04_HO.jpg"",""stimuli/AF10_FO.jpg""]","stimuli/AM05_AO.jpg","stimuli/HM07_SC.jpg","stimuli/BF04_HO.jpg","stimuli/AF10_FO.jpg","pos4","stimuli/AF10_FO.jpg","FO","AF10","3","2.5","5","6","stimuli/stars_5.png","281","[""AO"",""SC"",""HO"",""FO""]","[""AM05"",""HM07"",""BF04"",""AF10""]","[0,6,8,5]","[2,4,8,6]","","",""
"show-reward","166","397637","0.0-166.0","p332530","A1XBKS1U674XFA","3RZS0FBRWLGDTA9TUPH81F59AWHPC0","3XIQGXAUMEEFDMEIF1OF4QUNUWU7XZ","model","match","uniform","","","","","","","","398435","400438","","","","","","","","","","","","5","","stimuli/stars_5.png","281","","","","","stimuli/AF10_FO.jpg","",""
"explore-choice","167","399322","0.0-167.0","p332530","A1XBKS1U674XFA","3RZS0FBRWLGDTA9TUPH81F59AWHPC0","3XIQGXAUMEEFDMEIF1OF4QUNUWU7XZ","model","match","uniform","","","","","","","1171.5","400438.8000000715","401610.3000000715","[""stimuli/AF10_FO.jpg"",""stimuli/HM07_HO.jpg"",""stimuli/BF04_AO.jpg"",""stimuli/AM05_SC.jpg""]","stimuli/AF10_FO.jpg","stimuli/HM07_HO.jpg","stimuli/BF04_AO.jpg","stimuli/AM05_SC.jpg","pos3","stimuli/BF04_AO.jpg","AO","BF04","2","4.5","9","8","stimuli/stars_9.png","285.5","[""FO"",""HO"",""AO"",""SC""]","[""AF10"",""HM07"",""BF04"",""AM05""]","[4,4,9,0]","[6,4,8,2]","","",""
"show-reward","168","401336","0.0-168.0","p332530","A1XBKS1U674XFA","3RZS0FBRWLGDTA9TUPH81F59AWHPC0","3XIQGXAUMEEFDMEIF1OF4QUNUWU7XZ","model","match","uniform","","","","","","","","402124","404136.8000000715","","","","","","","","","","","","9","","stimuli/stars_9.png","285.5","","","","","stimuli/BF04_AO.jpg","",""
"explore-choice","169","403138","0.0-169.0","p332530","A1XBKS1U674XFA","3RZS0FBRWLGDTA9TUPH81F59AWHPC0","3XIQGXAUMEEFDMEIF1OF4QUNUWU7XZ","model","match","uniform","","","","","","","1294.1000000238419","404138.10000002384","405432.2000000477","[""stimuli/HM07_HO.jpg"",""stimuli/BF04_AO.jpg"",""stimuli/AM05_FO.jpg"",""stimuli/AF10_SC.jpg""]","stimuli/HM07_HO.jpg","stimuli/BF04_AO.jpg","stimuli/AM05_FO.jpg","stimuli/AF10_SC.jpg","pos2","stimuli/BF04_AO.jpg","AO","BF04","1","5","10","8","stimuli/stars_10.png","290.5","[""HO"",""AO"",""FO"",""SC""]","[""HM07"",""BF04"",""AM05"",""AF10""]","[3,10,0,8]","[4,8,2,6]","","",""
"show-reward","170","405156","0.0-170.0","p332530","A1XBKS1U674XFA","3RZS0FBRWLGDTA9TUPH81F59AWHPC0","3XIQGXAUMEEFDMEIF1OF4QUNUWU7XZ","model","match","uniform","","","","","","","","405939.7000000477","407956.7000000477","","","","","","","","","","","","10","","stimuli/stars_10.png","290.5","","","","","stimuli/BF04_AO.jpg","",""
"explore-choice","171","406891","0.0-171.0","p332530","A1XBKS1U674XFA","3RZS0FBRWLGDTA9TUPH81F59AWHPC0","3XIQGXAUMEEFDMEIF1OF4QUNUWU7XZ","model","match","uniform","","","","","","","1224","407959.60000002384","409183.60000002384","[""stimuli/HM07_SC.jpg"",""stimuli/BF04_FO.jpg"",""stimuli/AF10_HO.jpg"",""stimuli/AM05_AO.jpg""]","stimuli/HM07_SC.jpg","stimuli/BF04_FO.jpg","stimuli/AF10_HO.jpg","stimuli/AM05_AO.jpg","pos2","stimuli/BF04_FO.jpg","FO","BF04","1","3.5","7","8","stimuli/stars_7.png","294","[""SC"",""FO"",""HO"",""AO""]","[""HM07"",""BF04"",""AF10"",""AM05""]","[3,7,6,4]","[4,8,6,2]","","",""
"show-reward","172","408905","0.0-172.0","p332530","A1XBKS1U674XFA","3RZS0FBRWLGDTA9TUPH81F59AWHPC0","3XIQGXAUMEEFDMEIF1OF4QUNUWU7XZ","model","match","uniform","","","","","","","","409693.10000002384","411705.39999997616","","","","","","","","","","","","7","","stimuli/stars_7.png","294","","","","","stimuli/BF04_FO.jpg","",""
"explore-choice","173","410737","0.0-173.0","p332530","A1XBKS1U674XFA","3RZS0FBRWLGDTA9TUPH81F59AWHPC0","3XIQGXAUMEEFDMEIF1OF4QUNUWU7XZ","model","match","uniform","","","","","","","1318.2000000476837","411706.89999997616","413025.10000002384","[""stimuli/AM05_HO.jpg"",""stimuli/AF10_AO.jpg"",""stimuli/HM07_SC.jpg"",""stimuli/BF04_FO.jpg""]","stimuli/AM05_HO.jpg","stimuli/AF10_AO.jpg","stimuli/HM07_SC.jpg","stimuli/BF04_FO.jpg","pos4","stimuli/BF04_FO.jpg","FO","BF04","3","4","8","8","stimuli/stars_8.png","298","[""HO"",""AO"",""SC"",""FO""]","[""AM05"",""AF10"",""HM07"",""BF04""]","[1,5,4,8]","[2,6,4,8]","","",""
"show-reward","174","412742","0.0-174.0","p332530","A1XBKS1U674XFA","3RZS0FBRWLGDTA9TUPH81F59AWHPC0","3XIQGXAUMEEFDMEIF1OF4QUNUWU7XZ","model","match","uniform","","","","","","","","413539","415543.10000002384","","","","","","","","","","","","8","","stimuli/stars_8.png","298","","","","","stimuli/BF04_FO.jpg","",""
"explore-choice","175","414872","0.0-175.0","p332530","A1XBKS1U674XFA","3RZS0FBRWLGDTA9TUPH81F59AWHPC0","3XIQGXAUMEEFDMEIF1OF4QUNUWU7XZ","model","match","uniform","","","","","","","1620.7000000476837","415544.39999997616","417165.10000002384","[""stimuli/BF04_FO.jpg"",""stimuli/AF10_SC.jpg"",""stimuli/AM05_HO.jpg"",""stimuli/HM07_AO.jpg""]","stimuli/BF04_FO.jpg","stimuli/AF10_SC.jpg","stimuli/AM05_HO.jpg","stimuli/HM07_AO.jpg","pos1","stimuli/BF04_FO.jpg","FO","BF04","0","5","10","8","stimuli/stars_10.png","303","[""FO"",""SC"",""HO"",""AO""]","[""BF04"",""AF10"",""AM05"",""HM07""]","[10,5,3,2]","[8,6,2,4]","","",""
"show-reward","176","416878","0.0-176.0","p332530","A1XBKS1U674XFA","3RZS0FBRWLGDTA9TUPH81F59AWHPC0","3XIQGXAUMEEFDMEIF1OF4QUNUWU7XZ","model","match","uniform","","","","","","","","417674.2000000477","419678.89999997616","","","","","","","","","","","","10","","stimuli/stars_10.png","303","","","","","stimuli/BF04_FO.jpg","",""
"explore-choice","177","418833","0.0-177.0","p332530","A1XBKS1U674XFA","3RZS0FBRWLGDTA9TUPH81F59AWHPC0","3XIQGXAUMEEFDMEIF1OF4QUNUWU7XZ","model","match","uniform","","","","","","","1452.5","419680","421132.5","[""stimuli/HM07_SC.jpg"",""stimuli/AM05_HO.jpg"",""stimuli/BF04_AO.jpg"",""stimuli/AF10_FO.jpg""]","stimuli/HM07_SC.jpg","stimuli/AM05_HO.jpg","stimuli/BF04_AO.jpg","stimuli/AF10_FO.jpg","pos3","stimuli/BF04_AO.jpg","AO","BF04","2","3.5","7","8","stimuli/stars_7.png","306.5","[""SC"",""HO"",""AO"",""FO""]","[""HM07"",""AM05"",""BF04"",""AF10""]","[2,2,7,7]","[4,2,8,6]","","",""
"show-reward","178","420841","0.0-178.0","p332530","A1XBKS1U674XFA","3RZS0FBRWLGDTA9TUPH81F59AWHPC0","3XIQGXAUMEEFDMEIF1OF4QUNUWU7XZ","model","match","uniform","","","","","","","","421635.3000000715","423641.7000000477","","","","","","","","","","","","7","","stimuli/stars_7.png","306.5","","","","","stimuli/BF04_AO.jpg","",""
"explore-choice","179","423803","0.0-179.0","p332530","A1XBKS1U674XFA","3RZS0FBRWLGDTA9TUPH81F59AWHPC0","3XIQGXAUMEEFDMEIF1OF4QUNUWU7XZ","model","match","uniform","","","","","","","2447.8000000715256","423643","426090.8000000715","[""stimuli/BF04_SC.jpg"",""stimuli/AM05_AO.jpg"",""stimuli/AF10_FO.jpg"",""stimuli/HM07_HO.jpg""]","stimuli/BF04_SC.jpg","stimuli/AM05_AO.jpg","stimuli/AF10_FO.jpg","stimuli/HM07_HO.jpg","pos1","stimuli/BF04_SC.jpg","SC","BF04","0","4.5","9","8","stimuli/stars_9.png","311","[""SC"",""AO"",""FO"",""HO""]","[""BF04"",""AM05"",""AF10"",""HM07""]","[9,3,4,2]","[8,2,6,4]","","",""
"show-reward","180","425816","0.0-180.0","p332530","A1XBKS1U674XFA","3RZS0FBRWLGDTA9TUPH81F59AWHPC0","3XIQGXAUMEEFDMEIF1OF4QUNUWU7XZ","model","match","uniform","","","","","","","","426605.8000000715","428616.8000000715","","","","","","","","","","","","9","","stimuli/stars_9.png","311","","","","","stimuli/BF04_SC.jpg","",""
"explore-choice","181","427985","0.0-181.0","p332530","A1XBKS1U674XFA","3RZS0FBRWLGDTA9TUPH81F59AWHPC0","3XIQGXAUMEEFDMEIF1OF4QUNUWU7XZ","model","match","uniform","","","","","","","1656.7000000476837","428618.10000002384","430274.8000000715","[""stimuli/HM07_AO.jpg"",""stimuli/AM05_FO.jpg"",""stimuli/AF10_SC.jpg"",""stimuli/BF04_HO.jpg""]","stimuli/HM07_AO.jpg","stimuli/AM05_FO.jpg","stimuli/AF10_SC.jpg","stimuli/BF04_HO.jpg","pos4","stimuli/BF04_HO.jpg","HO","BF04","3","3","6","8","stimuli/stars_6.png","314","[""AO"",""FO"",""SC"",""HO""]","[""HM07"",""AM05"",""AF10"",""BF04""]","[6,2,8,6]","[4,2,6,8]","","",""
"show-reward","182","429989","0.0-182.0","p332530","A1XBKS1U674XFA","3RZS0FBRWLGDTA9TUPH81F59AWHPC0","3XIQGXAUMEEFDMEIF1OF4QUNUWU7XZ","model","match","uniform","","","","","","","","430786.89999997616","432789.89999997616","","","","","","","","","","","","6","","stimuli/stars_6.png","314","","","","","stimuli/BF04_HO.jpg","",""
"explore-choice","183","432029","0.0-183.0","p332530","A1XBKS1U674XFA","3RZS0FBRWLGDTA9TUPH81F59AWHPC0","3XIQGXAUMEEFDMEIF1OF4QUNUWU7XZ","model","match","uniform","","","","","","","1527.6999999284744","432791.2000000477","434318.89999997616","[""stimuli/AF10_SC.jpg"",""stimuli/HM07_FO.jpg"",""stimuli/AM05_AO.jpg"",""stimuli/BF04_HO.jpg""]","stimuli/AF10_SC.jpg","stimuli/HM07_FO.jpg","stimuli/AM05_AO.jpg","stimuli/BF04_HO.jpg","pos4","stimuli/BF04_HO.jpg","HO","BF04","3","3","6","8","stimuli/stars_6.png","317","[""SC"",""FO"",""AO"",""HO""]","[""AF10"",""HM07"",""AM05"",""BF04""]","[8,2,4,6]","[6,4,2,8]","","",""
"show-reward","184","434046","0.0-184.0","p332530","A1XBKS1U674XFA","3RZS0FBRWLGDTA9TUPH81F59AWHPC0","3XIQGXAUMEEFDMEIF1OF4QUNUWU7XZ","model","match","uniform","","","","","","","","434831","436846.7000000477","","","","","","","","","","","","6","","stimuli/stars_6.png","317","","","","","stimuli/BF04_HO.jpg","",""
"explore-choice","185","436546","0.0-185.0","p332530","A1XBKS1U674XFA","3RZS0FBRWLGDTA9TUPH81F59AWHPC0","3XIQGXAUMEEFDMEIF1OF4QUNUWU7XZ","model","match","uniform","","","","","","","1988.1000000238419","436848","438836.10000002384","[""stimuli/BF04_SC.jpg"",""stimuli/AM05_FO.jpg"",""stimuli/HM07_AO.jpg"",""stimuli/AF10_HO.jpg""]","stimuli/BF04_SC.jpg","stimuli/AM05_FO.jpg","stimuli/HM07_AO.jpg","stimuli/AF10_HO.jpg","pos1","stimuli/BF04_SC.jpg","SC","BF04","0","4.5","9","8","stimuli/stars_9.png","321.5","[""SC"",""FO"",""AO"",""HO""]","[""BF04"",""AM05"",""HM07"",""AF10""]","[9,3,3,5]","[8,2,4,6]","","",""
"show-reward","186","438550","0.0-186.0","p332530","A1XBKS1U674XFA","3RZS0FBRWLGDTA9TUPH81F59AWHPC0","3XIQGXAUMEEFDMEIF1OF4QUNUWU7XZ","model","match","uniform","","","","","","","","439348.39999997616","441351.2000000477","","","","","","","","","","","","9","","stimuli/stars_9.png","321.5","","","","","stimuli/BF04_SC.jpg","",""
"explore-choice","187","440603","0.0-187.0","p332530","A1XBKS1U674XFA","3RZS0FBRWLGDTA9TUPH81F59AWHPC0","3XIQGXAUMEEFDMEIF1OF4QUNUWU7XZ","model","match","uniform","","","","","","","1549.3999999761581","441352.3000000715","442901.7000000477","[""stimuli/AM05_HO.jpg"",""stimuli/AF10_AO.jpg"",""stimuli/BF04_SC.jpg"",""stimuli/HM07_FO.jpg""]","stimuli/AM05_HO.jpg","stimuli/AF10_AO.jpg","stimuli/BF04_SC.jpg","stimuli/HM07_FO.jpg","pos3","stimuli/BF04_SC.jpg","SC","BF04","2","4","8","8","stimuli/stars_8.png","325.5","[""HO"",""AO"",""SC"",""FO""]","[""AM05"",""AF10"",""BF04"",""HM07""]","[1,4,8,6]","[2,6,8,4]","","",""
"show-reward","188","442616","0.0-188.0","p332530","A1XBKS1U674XFA","3RZS0FBRWLGDTA9TUPH81F59AWHPC0","3XIQGXAUMEEFDMEIF1OF4QUNUWU7XZ","model","match","uniform","","","","","","","","443404.60000002384","445417","","","","","","","","","","","","8","","stimuli/stars_8.png","325.5","","","","","stimuli/BF04_SC.jpg","",""
"explore-choice","189","444818","0.0-189.0","p332530","A1XBKS1U674XFA","3RZS0FBRWLGDTA9TUPH81F59AWHPC0","3XIQGXAUMEEFDMEIF1OF4QUNUWU7XZ","model","match","uniform","","","","","","","1690.2000000476837","445418.39999997616","447108.60000002384","[""stimuli/AM05_FO.jpg"",""stimuli/BF04_AO.jpg"",""stimuli/AF10_HO.jpg"",""stimuli/HM07_SC.jpg""]","stimuli/AM05_FO.jpg","stimuli/BF04_AO.jpg","stimuli/AF10_HO.jpg","stimuli/HM07_SC.jpg","pos2","stimuli/BF04_AO.jpg","AO","BF04","1","4","8","8","stimuli/stars_8.png","329.5","[""FO"",""AO"",""HO"",""SC""]","[""AM05"",""BF04"",""AF10"",""HM07""]","[1,8,5,5]","[2,8,6,4]","","",""
"show-reward","190","446833","0.0-190.0","p332530","A1XBKS1U674XFA","3RZS0FBRWLGDTA9TUPH81F59AWHPC0","3XIQGXAUMEEFDMEIF1OF4QUNUWU7XZ","model","match","uniform","","","","","","","","447620.7000000477","449634.10000002384","","","","","","","","","","","","8","","stimuli/stars_8.png","329.5","","","","","stimuli/BF04_AO.jpg","",""
"explore-choice","191","449413","0.0-191.0","p332530","A1XBKS1U674XFA","3RZS0FBRWLGDTA9TUPH81F59AWHPC0","3XIQGXAUMEEFDMEIF1OF4QUNUWU7XZ","model","match","uniform","","","","","","","2067.1999999284744","449635.3000000715","451702.5","[""stimuli/AM05_SC.jpg"",""stimuli/HM07_AO.jpg"",""stimuli/AF10_FO.jpg"",""stimuli/BF04_HO.jpg""]","stimuli/AM05_SC.jpg","stimuli/HM07_AO.jpg","stimuli/AF10_FO.jpg","stimuli/BF04_HO.jpg","pos4","stimuli/BF04_HO.jpg","HO","BF04","3","4","8","8","stimuli/stars_8.png","333.5","[""SC"",""AO"",""FO"",""HO""]","[""AM05"",""HM07"",""AF10"",""BF04""]","[3,4,5,8]","[2,4,6,8]","","",""
"show-reward","192","451419","0.0-192.0","p332530","A1XBKS1U674XFA","3RZS0FBRWLGDTA9TUPH81F59AWHPC0","3XIQGXAUMEEFDMEIF1OF4QUNUWU7XZ","model","match","uniform","","","","","","","","452215.39999997616","454220","","","","","","","","","","","","8","","stimuli/stars_8.png","333.5","","","","","stimuli/BF04_HO.jpg","",""
"explore-choice","193","453231","0.0-193.0","p332530","A1XBKS1U674XFA","3RZS0FBRWLGDTA9TUPH81F59AWHPC0","3XIQGXAUMEEFDMEIF1OF4QUNUWU7XZ","model","match","uniform","","","","","","","1304.3999999761581","454220.8000000715","455525.2000000477","[""stimuli/AF10_FO.jpg"",""stimuli/AM05_HO.jpg"",""stimuli/HM07_AO.jpg"",""stimuli/BF04_SC.jpg""]","stimuli/AF10_FO.jpg","stimuli/AM05_HO.jpg","stimuli/HM07_AO.jpg","stimuli/BF04_SC.jpg","pos4","stimuli/BF04_SC.jpg","SC","BF04","3","3.5","7","8","stimuli/stars_7.png","337","[""FO"",""HO"",""AO"",""SC""]","[""AF10"",""AM05"",""HM07"",""BF04""]","[7,3,5,7]","[6,2,4,8]","","",""
"show-reward","194","455236","0.0-194.0","p332530","A1XBKS1U674XFA","3RZS0FBRWLGDTA9TUPH81F59AWHPC0","3XIQGXAUMEEFDMEIF1OF4QUNUWU7XZ","model","match","uniform","","","","","","","","456032.89999997616","458036.89999997616","","","","","","","","","","","","7","","stimuli/stars_7.png","337","","","","","stimuli/BF04_SC.jpg","",""
"explore-choice","195","456661","0.0-195.0","p332530","A1XBKS1U674XFA","3RZS0FBRWLGDTA9TUPH81F59AWHPC0","3XIQGXAUMEEFDMEIF1OF4QUNUWU7XZ","model","match","uniform","","","","","","","922.6000000238419","458038.39999997616","458961","[""stimuli/AM05_SC.jpg"",""stimuli/HM07_AO.jpg"",""stimuli/AF10_HO.jpg"",""stimuli/BF04_FO.jpg""]","stimuli/AM05_SC.jpg","stimuli/HM07_AO.jpg","stimuli/AF10_HO.jpg","stimuli/BF04_FO.jpg","pos4","stimuli/BF04_FO.jpg","FO","BF04","3","4.5","9","8","stimuli/stars_9.png","341.5","[""SC"",""AO"",""HO"",""FO""]","[""AM05"",""HM07"",""AF10"",""BF04""]","[3,4,4,9]","[2,4,6,8]","","",""
"show-reward","196","458673","0.0-196.0","p332530","A1XBKS1U674XFA","3RZS0FBRWLGDTA9TUPH81F59AWHPC0","3XIQGXAUMEEFDMEIF1OF4QUNUWU7XZ","model","match","uniform","","","","","","","","459463.60000002384","461474.3000000715","","","","","","","","","","","","9","","stimuli/stars_9.png","341.5","","","","","stimuli/BF04_FO.jpg","",""
"explore-choice","197","460422","0.0-197.0","p332530","A1XBKS1U674XFA","3RZS0FBRWLGDTA9TUPH81F59AWHPC0","3XIQGXAUMEEFDMEIF1OF4QUNUWU7XZ","model","match","uniform","","","","","","","1240.1999999284744","461475.7000000477","462715.89999997616","[""stimuli/BF04_SC.jpg"",""stimuli/AF10_HO.jpg"",""stimuli/AM05_AO.jpg"",""stimuli/HM07_FO.jpg""]","stimuli/BF04_SC.jpg","stimuli/AF10_HO.jpg","stimuli/AM05_AO.jpg","stimuli/HM07_FO.jpg","pos1","stimuli/BF04_SC.jpg","SC","BF04","0","4.5","9","8","stimuli/stars_9.png","346","[""SC"",""HO"",""AO"",""FO""]","[""BF04"",""AF10"",""AM05"",""HM07""]","[9,4,4,5]","[8,6,2,4]","","",""
"show-reward","198","462433","0.0-198.0","p332530","A1XBKS1U674XFA","3RZS0FBRWLGDTA9TUPH81F59AWHPC0","3XIQGXAUMEEFDMEIF1OF4QUNUWU7XZ","model","match","uniform","","","","","","","","463225.39999997616","465234.8000000715","","","","","","","","","","","","9","","stimuli/stars_9.png","346","","","","","stimuli/BF04_SC.jpg","",""
"instructions","199","467631","0.0-199.0","p332530","A1XBKS1U674XFA","3RZS0FBRWLGDTA9TUPH81F59AWHPC0","3XIQGXAUMEEFDMEIF1OF4QUNUWU7XZ","model","match","uniform","","","","","","[{""page_index"":0,""viewing_time"":5196.799999952316}]","5197.299999952316","","","","","","","","","","","","","","","","","","","","","","","",""
"survey-text","200","471849","0.0-200.0-0.0","p332530","A1XBKS1U674XFA","3RZS0FBRWLGDTA9TUPH81F59AWHPC0","3XIQGXAUMEEFDMEIF1OF4QUNUWU7XZ","model","match","uniform","","","","","","","4212","","","","","","","","","","","","","","","","","","","","","","","{""age"":""41""}",""
"survey-text","201","476196","0.0-200.0-1.0","p332530","A1XBKS1U674XFA","3RZS0FBRWLGDTA9TUPH81F59AWHPC0","3XIQGXAUMEEFDMEIF1OF4QUNUWU7XZ","model","match","uniform","","","","","","","4343","","","","","","","","","","","","","","","","","","","","","","","{""gender"":""female""}",""
"survey-text","202","487303","0.0-200.0-2.0","p332530","A1XBKS1U674XFA","3RZS0FBRWLGDTA9TUPH81F59AWHPC0","3XIQGXAUMEEFDMEIF1OF4QUNUWU7XZ","model","match","uniform","","","","","","","11103.899999976158","","","","","","","","","","","","","","","","","","","","","","","{""country"":""United States""}",""
"survey-text","203","492359","0.0-200.0-3.0","p332530","A1XBKS1U674XFA","3RZS0FBRWLGDTA9TUPH81F59AWHPC0","3XIQGXAUMEEFDMEIF1OF4QUNUWU7XZ","model","match","uniform","","","","","","","5051.600000023842","","","","","","","","","","","","","","","","","","","","","","","{""language"":""English"",""other_languages"":""""}",""
"survey-multi-select","204","496528","0.0-201.0","p332530","A1XBKS1U674XFA","3RZS0FBRWLGDTA9TUPH81F59AWHPC0","3XIQGXAUMEEFDMEIF1OF4QUNUWU7XZ","model","match","uniform","","","","","","","4162.899999976158","","","","","","","","","","","","","","","","","","","","","","","{""race"":[""White""]}","[0]"
"survey-multi-choice","205","500719","0.0-202.0","p332530","A1XBKS1U674XFA","3RZS0FBRWLGDTA9TUPH81F59AWHPC0","3XIQGXAUMEEFDMEIF1OF4QUNUWU7XZ","model","match","uniform","","","","","","","4187.100000023842","","","","","","","","","","","","","","","","","","","","","","","{""education"":""Some college/ university""}","[0]"
"survey-text","206","549432","0.0-203.0","p332530","A1XBKS1U674XFA","3RZS0FBRWLGDTA9TUPH81F59AWHPC0","3XIQGXAUMEEFDMEIF1OF4QUNUWU7XZ","model","match","uniform","","","","","","","48692.60000002384","","","","","","","","","","","","","","","","","","","","","","","{""patterns"":""I noticed that certain people scored higher stars"",""strategy"":""When I found a person whose picture scored higher, I continued selecting that person pics"",""comments"":""""}",""
