"trial_type","trial_index","time_elapsed","internal_node_id","subject","workerId","hitId","assignmentId","structure_condition","match_condition","noise_type","success","timeout","failed_images","failed_audio","failed_video","view_history","rt","start_time","end_time","stimuli","image1","image2","image3","image4","choiceLocation","choiceImage","choiceEmotion","choiceModel","choice_index","reward_score","reward","reward_score_unadjusted","reward_image","score_after_trial","emotions","models","rewards","rewards_unadjusted","stimulus","response","question_order"
"pavlovia","0","30","0.0-0.0","p777668","A1DC5O5XEIMM1M","3WRBLBQ2GSENM5LEFQY1C5PG0GV0GC","3U4J9857OGH80JBHA5WXFT3VBS2B7O","model","mismatch","uniform","","","","","","","","","","","","","","","","","","","","","","","","","","","","","","",""
"preload","1","33170","0.0-1.0","p777668","A1DC5O5XEIMM1M","3WRBLBQ2GSENM5LEFQY1C5PG0GV0GC","3U4J9857OGH80JBHA5WXFT3VBS2B7O","model","mismatch","uniform","true","false","[]","[]","[]","","","","","","","","","","","","","","","","","","","","","","","","","",""
"fullscreen","2","37681","0.0-2.0","p777668","A1DC5O5XEIMM1M","3WRBLBQ2GSENM5LEFQY1C5PG0GV0GC","3U4J9857OGH80JBHA5WXFT3VBS2B7O","model","mismatch","uniform","true","","","","","","","","","","","","","","","","","","","","","","","","","","","","","",""
"instructions","3","42681","0.0-3.0","p777668","A1DC5O5XEIMM1M","3WRBLBQ2GSENM5LEFQY1C5PG0GV0GC","3U4J9857OGH80JBHA5WXFT3VBS2B7O","model","mismatch","uniform","","","","","","[{""page_index"":0,""viewing_time"":4996}]","4997.89999961853","","","","","","","","","","","","","","","","","","","","","","","",""
"explore-choice","4","46479","0.0-4.0","p777668","A1DC5O5XEIMM1M","3WRBLBQ2GSENM5LEFQY1C5PG0GV0GC","3U4J9857OGH80JBHA5WXFT3VBS2B7O","model","mismatch","uniform","","","","","","","3293.6000003814697","48505.5","51799.10000038147","[""stimuli/sheep.jpg"",""stimuli/hammer.jpg"",""stimuli/basketball.jpg"",""stimuli/horse.jpg""]","stimuli/sheep.jpg","stimuli/hammer.jpg","stimuli/basketball.jpg","stimuli/horse.jpg","pos4","stimuli/horse.jpg","","","3","64","64","64","stimuli/stars_8.png","65","","","","","","",""
"explore-choice","5","49778","0.0-5.0","p777668","A1DC5O5XEIMM1M","3WRBLBQ2GSENM5LEFQY1C5PG0GV0GC","3U4J9857OGH80JBHA5WXFT3VBS2B7O","model","mismatch","uniform","","","","","","","2787.699999809265","52302.5","55090.199999809265","[""stimuli/hammer.jpg"",""stimuli/basketball.jpg"",""stimuli/horse.jpg"",""stimuli/sheep.jpg""]","stimuli/hammer.jpg","stimuli/basketball.jpg","stimuli/horse.jpg","stimuli/sheep.jpg","pos1","stimuli/hammer.jpg","","","0","8","8","8","stimuli/stars_2.png","9","","","","","","",""
"instructions","6","52591","0.0-6.0","p777668","A1DC5O5XEIMM1M","3WRBLBQ2GSENM5LEFQY1C5PG0GV0GC","3U4J9857OGH80JBHA5WXFT3VBS2B7O","model","mismatch","uniform","","","","","","[{""page_index"":0,""viewing_time"":2811.4000005722046}]","2811.800000190735","","","","","","","","","","","","","","","","","","","","","","","",""
"explore-choice","7","68700","0.0-7.0","p777668","A1DC5O5XEIMM1M","3WRBLBQ2GSENM5LEFQY1C5PG0GV0GC","3U4J9857OGH80JBHA5WXFT3VBS2B7O","model","mismatch","uniform","","","","","","","15533.5","58415.300000190735","73948.80000019073","[""stimuli/AM09_DO.jpg"",""stimuli/BF08_HO.jpg"",""stimuli/AF09_SC.jpg"",""stimuli/BF05_SUR.jpg""]","stimuli/AM09_DO.jpg","stimuli/BF08_HO.jpg","stimuli/AF09_SC.jpg","stimuli/BF05_SUR.jpg","pos2","stimuli/BF08_HO.jpg","HO","BF08","1","4.5","9","8","stimuli/stars_9.png","5.5","[""DO"",""HO"",""SC"",""SUR""]","[""AM09"",""BF08"",""AF09"",""BF05""]","[8,9,1,5]","[6,8,2,4]","","",""
"show-reward","8","70736","0.0-8.0","p777668","A1DC5O5XEIMM1M","3WRBLBQ2GSENM5LEFQY1C5PG0GV0GC","3U4J9857OGH80JBHA5WXFT3VBS2B7O","model","mismatch","uniform","","","","","","","","74528.10000038147","76556.39999961853","","","","","","","","","","","","9","","stimuli/stars_9.png","5.5","","","","","stimuli/BF08_HO.jpg","",""
"explore-choice","9","76213","0.0-9.0","p777668","A1DC5O5XEIMM1M","3WRBLBQ2GSENM5LEFQY1C5PG0GV0GC","3U4J9857OGH80JBHA5WXFT3VBS2B7O","model","mismatch","uniform","","","","","","","4955.900000572205","76559.19999980927","81515.10000038147","[""stimuli/BF08_HO.jpg"",""stimuli/AF09_DO.jpg"",""stimuli/AM09_SUR.jpg"",""stimuli/BF05_SC.jpg""]","stimuli/BF08_HO.jpg","stimuli/AF09_DO.jpg","stimuli/AM09_SUR.jpg","stimuli/BF05_SC.jpg","pos1","stimuli/BF08_HO.jpg","HO","BF08","0","3","6","8","stimuli/stars_6.png","8.5","[""HO"",""DO"",""SUR"",""SC""]","[""BF08"",""AF09"",""AM09"",""BF05""]","[6,4,4,5]","[8,2,6,4]","","",""
"show-reward","10","78235","0.0-10.0","p777668","A1DC5O5XEIMM1M","3WRBLBQ2GSENM5LEFQY1C5PG0GV0GC","3U4J9857OGH80JBHA5WXFT3VBS2B7O","model","mismatch","uniform","","","","","","","","82035.89999961853","84055.30000019073","","","","","","","","","","","","6","","stimuli/stars_6.png","8.5","","","","","stimuli/BF08_HO.jpg","",""
"explore-choice","11","81146","0.0-11.0","p777668","A1DC5O5XEIMM1M","3WRBLBQ2GSENM5LEFQY1C5PG0GV0GC","3U4J9857OGH80JBHA5WXFT3VBS2B7O","model","mismatch","uniform","","","","","","","2405.7000007629395","84057.39999961853","86463.10000038147","[""stimuli/BF05_DO.jpg"",""stimuli/AM09_SC.jpg"",""stimuli/BF08_SUR.jpg"",""stimuli/AF09_HO.jpg""]","stimuli/BF05_DO.jpg","stimuli/AM09_SC.jpg","stimuli/BF08_SUR.jpg","stimuli/AF09_HO.jpg","pos4","stimuli/AF09_HO.jpg","HO","AF09","3","0","0","2","stimuli/stars_0.png","8.5","[""DO"",""SC"",""SUR"",""HO""]","[""BF05"",""AM09"",""BF08"",""AF09""]","[3,6,6,0]","[4,6,8,2]","","",""
"show-reward","12","83220","0.0-12.0","p777668","A1DC5O5XEIMM1M","3WRBLBQ2GSENM5LEFQY1C5PG0GV0GC","3U4J9857OGH80JBHA5WXFT3VBS2B7O","model","mismatch","uniform","","","","","","","","86969.19999980927","89040.69999980927","","","","","","","","","","","","0","","stimuli/stars_0.png","8.5","","","","","stimuli/AF09_HO.jpg","",""
"explore-choice","13","89245","0.0-13.0","p777668","A1DC5O5XEIMM1M","3WRBLBQ2GSENM5LEFQY1C5PG0GV0GC","3U4J9857OGH80JBHA5WXFT3VBS2B7O","model","mismatch","uniform","","","","","","","5512.5","89045","94557.5","[""stimuli/BF05_SC.jpg"",""stimuli/AM09_HO.jpg"",""stimuli/BF08_SUR.jpg"",""stimuli/AF09_DO.jpg""]","stimuli/BF05_SC.jpg","stimuli/AM09_HO.jpg","stimuli/BF08_SUR.jpg","stimuli/AF09_DO.jpg","pos2","stimuli/AM09_HO.jpg","HO","AM09","1","4","8","6","stimuli/stars_8.png","12.5","[""SC"",""HO"",""SUR"",""DO""]","[""BF05"",""AM09"",""BF08"",""AF09""]","[6,8,6,4]","[4,6,8,2]","","",""
"show-reward","14","91251","0.0-14.0","p777668","A1DC5O5XEIMM1M","3WRBLBQ2GSENM5LEFQY1C5PG0GV0GC","3U4J9857OGH80JBHA5WXFT3VBS2B7O","model","mismatch","uniform","","","","","","","","95067.30000019073","97071.5","","","","","","","","","","","","8","","stimuli/stars_8.png","12.5","","","","","stimuli/AM09_HO.jpg","",""
"explore-choice","15","95167","0.0-15.0","p777668","A1DC5O5XEIMM1M","3WRBLBQ2GSENM5LEFQY1C5PG0GV0GC","3U4J9857OGH80JBHA5WXFT3VBS2B7O","model","mismatch","uniform","","","","","","","3398.300000190735","97073.19999980927","100471.5","[""stimuli/BF05_SUR.jpg"",""stimuli/AM09_SC.jpg"",""stimuli/BF08_HO.jpg"",""stimuli/AF09_DO.jpg""]","stimuli/BF05_SUR.jpg","stimuli/AM09_SC.jpg","stimuli/BF08_HO.jpg","stimuli/AF09_DO.jpg","pos3","stimuli/BF08_HO.jpg","HO","BF08","2","3.5","7","8","stimuli/stars_7.png","16","[""SUR"",""SC"",""HO"",""DO""]","[""BF05"",""AM09"",""BF08"",""AF09""]","[4,7,7,4]","[4,6,8,2]","","",""
"show-reward","16","97182","0.0-16.0","p777668","A1DC5O5XEIMM1M","3WRBLBQ2GSENM5LEFQY1C5PG0GV0GC","3U4J9857OGH80JBHA5WXFT3VBS2B7O","model","mismatch","uniform","","","","","","","","100989.10000038147","103002.19999980927","","","","","","","","","","","","7","","stimuli/stars_7.png","16","","","","","stimuli/BF08_HO.jpg","",""
"explore-choice","17","100102","0.0-17.0","p777668","A1DC5O5XEIMM1M","3WRBLBQ2GSENM5LEFQY1C5PG0GV0GC","3U4J9857OGH80JBHA5WXFT3VBS2B7O","model","mismatch","uniform","","","","","","","2380.199999809265","103003.80000019073","105384","[""stimuli/AF09_SC.jpg"",""stimuli/BF08_SUR.jpg"",""stimuli/BF05_HO.jpg"",""stimuli/AM09_DO.jpg""]","stimuli/AF09_SC.jpg","stimuli/BF08_SUR.jpg","stimuli/BF05_HO.jpg","stimuli/AM09_DO.jpg","pos4","stimuli/AM09_DO.jpg","DO","AM09","3","3.5","7","6","stimuli/stars_7.png","19.5","[""SC"",""SUR"",""HO"",""DO""]","[""AF09"",""BF08"",""BF05"",""AM09""]","[2,6,2,7]","[2,8,4,6]","","",""
"show-reward","18","102128","0.0-18.0","p777668","A1DC5O5XEIMM1M","3WRBLBQ2GSENM5LEFQY1C5PG0GV0GC","3U4J9857OGH80JBHA5WXFT3VBS2B7O","model","mismatch","uniform","","","","","","","","105933.39999961853","107948.60000038147","","","","","","","","","","","","7","","stimuli/stars_7.png","19.5","","","","","stimuli/AM09_DO.jpg","",""
"explore-choice","19","104830","0.0-19.0","p777668","A1DC5O5XEIMM1M","3WRBLBQ2GSENM5LEFQY1C5PG0GV0GC","3U4J9857OGH80JBHA5WXFT3VBS2B7O","model","mismatch","uniform","","","","","","","2193.3999996185303","107951","110144.39999961853","[""stimuli/BF08_DO.jpg"",""stimuli/BF05_SUR.jpg"",""stimuli/AM09_SC.jpg"",""stimuli/AF09_HO.jpg""]","stimuli/BF08_DO.jpg","stimuli/BF05_SUR.jpg","stimuli/AM09_SC.jpg","stimuli/AF09_HO.jpg","pos2","stimuli/BF05_SUR.jpg","SUR","BF05","1","1","2","4","stimuli/stars_2.png","20.5","[""DO"",""SUR"",""SC"",""HO""]","[""BF08"",""BF05"",""AM09"",""AF09""]","[7,2,4,4]","[8,4,6,2]","","",""
"show-reward","20","106866","0.0-20.0","p777668","A1DC5O5XEIMM1M","3WRBLBQ2GSENM5LEFQY1C5PG0GV0GC","3U4J9857OGH80JBHA5WXFT3VBS2B7O","model","mismatch","uniform","","","","","","","","110652.19999980927","112686.19999980927","","","","","","","","","","","","2","","stimuli/stars_2.png","20.5","","","","","stimuli/BF05_SUR.jpg","",""
"explore-choice","21","110037","0.0-21.0","p777668","A1DC5O5XEIMM1M","3WRBLBQ2GSENM5LEFQY1C5PG0GV0GC","3U4J9857OGH80JBHA5WXFT3VBS2B7O","model","mismatch","uniform","","","","","","","2660.5999994277954","112688.80000019073","115349.39999961853","[""stimuli/BF05_SC.jpg"",""stimuli/AM09_HO.jpg"",""stimuli/BF08_DO.jpg"",""stimuli/AF09_SUR.jpg""]","stimuli/BF05_SC.jpg","stimuli/AM09_HO.jpg","stimuli/BF08_DO.jpg","stimuli/AF09_SUR.jpg","pos3","stimuli/BF08_DO.jpg","DO","BF08","2","5","10","8","stimuli/stars_10.png","25.5","[""SC"",""HO"",""DO"",""SUR""]","[""BF05"",""AM09"",""BF08"",""AF09""]","[6,6,10,1]","[4,6,8,2]","","",""
"show-reward","22","112058","0.0-22.0","p777668","A1DC5O5XEIMM1M","3WRBLBQ2GSENM5LEFQY1C5PG0GV0GC","3U4J9857OGH80JBHA5WXFT3VBS2B7O","model","mismatch","uniform","","","","","","","","115860.19999980927","117878.80000019073","","","","","","","","","","","","10","","stimuli/stars_10.png","25.5","","","","","stimuli/BF08_DO.jpg","",""
"explore-choice","23","115895","0.0-23.0","p777668","A1DC5O5XEIMM1M","3WRBLBQ2GSENM5LEFQY1C5PG0GV0GC","3U4J9857OGH80JBHA5WXFT3VBS2B7O","model","mismatch","uniform","","","","","","","3317.5999994277954","117880.10000038147","121197.69999980927","[""stimuli/AM09_SC.jpg"",""stimuli/BF05_DO.jpg"",""stimuli/AF09_SUR.jpg"",""stimuli/BF08_HO.jpg""]","stimuli/AM09_SC.jpg","stimuli/BF05_DO.jpg","stimuli/AF09_SUR.jpg","stimuli/BF08_HO.jpg","pos4","stimuli/BF08_HO.jpg","HO","BF08","3","3.5","7","8","stimuli/stars_7.png","29","[""SC"",""DO"",""SUR"",""HO""]","[""AM09"",""BF05"",""AF09"",""BF08""]","[4,6,4,7]","[6,4,2,8]","","",""
"show-reward","24","117933","0.0-24.0","p777668","A1DC5O5XEIMM1M","3WRBLBQ2GSENM5LEFQY1C5PG0GV0GC","3U4J9857OGH80JBHA5WXFT3VBS2B7O","model","mismatch","uniform","","","","","","","","121715.60000038147","123752.19999980927","","","","","","","","","","","","7","","stimuli/stars_7.png","29","","","","","stimuli/BF08_HO.jpg","",""
"explore-choice","25","121137","0.0-25.0","p777668","A1DC5O5XEIMM1M","3WRBLBQ2GSENM5LEFQY1C5PG0GV0GC","3U4J9857OGH80JBHA5WXFT3VBS2B7O","model","mismatch","uniform","","","","","","","2689.6000003814697","123754.19999980927","126443.80000019073","[""stimuli/AM09_DO.jpg"",""stimuli/BF08_SC.jpg"",""stimuli/BF05_HO.jpg"",""stimuli/AF09_SUR.jpg""]","stimuli/AM09_DO.jpg","stimuli/BF08_SC.jpg","stimuli/BF05_HO.jpg","stimuli/AF09_SUR.jpg","pos2","stimuli/BF08_SC.jpg","SC","BF08","1","4.5","9","8","stimuli/stars_9.png","33.5","[""DO"",""SC"",""HO"",""SUR""]","[""AM09"",""BF08"",""BF05"",""AF09""]","[7,9,5,1]","[6,8,4,2]","","",""
"show-reward","26","123149","0.0-26.0","p777668","A1DC5O5XEIMM1M","3WRBLBQ2GSENM5LEFQY1C5PG0GV0GC","3U4J9857OGH80JBHA5WXFT3VBS2B7O","model","mismatch","uniform","","","","","","","","126958.5","128967.39999961853","","","","","","","","","","","","9","","stimuli/stars_9.png","33.5","","","","","stimuli/BF08_SC.jpg","",""
"explore-choice","27","125415","0.0-27.0","p777668","A1DC5O5XEIMM1M","3WRBLBQ2GSENM5LEFQY1C5PG0GV0GC","3U4J9857OGH80JBHA5WXFT3VBS2B7O","model","mismatch","uniform","","","","","","","1762.6000003814697","128970.39999961853","130733","[""stimuli/AM09_SUR.jpg"",""stimuli/AF09_SC.jpg"",""stimuli/BF08_HO.jpg"",""stimuli/BF05_DO.jpg""]","stimuli/AM09_SUR.jpg","stimuli/AF09_SC.jpg","stimuli/BF08_HO.jpg","stimuli/BF05_DO.jpg","pos4","stimuli/BF05_DO.jpg","DO","BF05","3","1.5","3","4","stimuli/stars_3.png","35","[""SUR"",""SC"",""HO"",""DO""]","[""AM09"",""AF09"",""BF08"",""BF05""]","[5,3,10,3]","[6,2,8,4]","","",""
"show-reward","28","127422","0.0-28.0","p777668","A1DC5O5XEIMM1M","3WRBLBQ2GSENM5LEFQY1C5PG0GV0GC","3U4J9857OGH80JBHA5WXFT3VBS2B7O","model","mismatch","uniform","","","","","","","","131235.80000019073","133241.39999961853","","","","","","","","","","","","3","","stimuli/stars_3.png","35","","","","","stimuli/BF05_DO.jpg","",""
"explore-choice","29","129264","0.0-29.0","p777668","A1DC5O5XEIMM1M","3WRBLBQ2GSENM5LEFQY1C5PG0GV0GC","3U4J9857OGH80JBHA5WXFT3VBS2B7O","model","mismatch","uniform","","","","","","","1275.6000003814697","133243","134518.60000038147","[""stimuli/AM09_HO.jpg"",""stimuli/BF08_SC.jpg"",""stimuli/AF09_DO.jpg"",""stimuli/BF05_SUR.jpg""]","stimuli/AM09_HO.jpg","stimuli/BF08_SC.jpg","stimuli/AF09_DO.jpg","stimuli/BF05_SUR.jpg","pos1","stimuli/AM09_HO.jpg","HO","AM09","0","4","8","6","stimuli/stars_8.png","39","[""HO"",""SC"",""DO"",""SUR""]","[""AM09"",""BF08"",""AF09"",""BF05""]","[8,8,4,4]","[6,8,2,4]","","",""
"show-reward","30","131282","0.0-30.0","p777668","A1DC5O5XEIMM1M","3WRBLBQ2GSENM5LEFQY1C5PG0GV0GC","3U4J9857OGH80JBHA5WXFT3VBS2B7O","model","mismatch","uniform","","","","","","","","135085.60000038147","137100","","","","","","","","","","","","8","","stimuli/stars_8.png","39","","","","","stimuli/AM09_HO.jpg","",""
"explore-choice","31","133222","0.0-31.0","p777668","A1DC5O5XEIMM1M","3WRBLBQ2GSENM5LEFQY1C5PG0GV0GC","3U4J9857OGH80JBHA5WXFT3VBS2B7O","model","mismatch","uniform","","","","","","","1431.1999998092651","137102.80000019073","138534","[""stimuli/BF05_SUR.jpg"",""stimuli/AF09_SC.jpg"",""stimuli/AM09_HO.jpg"",""stimuli/BF08_DO.jpg""]","stimuli/BF05_SUR.jpg","stimuli/AF09_SC.jpg","stimuli/AM09_HO.jpg","stimuli/BF08_DO.jpg","pos2","stimuli/AF09_SC.jpg","SC","AF09","1","0","0","2","stimuli/stars_0.png","39","[""SUR"",""SC"",""HO"",""DO""]","[""BF05"",""AF09"",""AM09"",""BF08""]","[5,0,5,8]","[4,2,6,8]","","",""
"show-reward","32","135244","0.0-32.0","p777668","A1DC5O5XEIMM1M","3WRBLBQ2GSENM5LEFQY1C5PG0GV0GC","3U4J9857OGH80JBHA5WXFT3VBS2B7O","model","mismatch","uniform","","","","","","","","139043.69999980927","141063.5","","","","","","","","","","","","0","","stimuli/stars_0.png","39","","","","","stimuli/AF09_SC.jpg","",""
"explore-choice","33","137660","0.0-33.0","p777668","A1DC5O5XEIMM1M","3WRBLBQ2GSENM5LEFQY1C5PG0GV0GC","3U4J9857OGH80JBHA5WXFT3VBS2B7O","model","mismatch","uniform","","","","","","","1913.3000001907349","141064.69999980927","142978","[""stimuli/BF05_HO.jpg"",""stimuli/AF09_DO.jpg"",""stimuli/BF08_SC.jpg"",""stimuli/AM09_SUR.jpg""]","stimuli/BF05_HO.jpg","stimuli/AF09_DO.jpg","stimuli/BF08_SC.jpg","stimuli/AM09_SUR.jpg","pos3","stimuli/BF08_SC.jpg","SC","BF08","2","3.5","7","8","stimuli/stars_7.png","42.5","[""HO"",""DO"",""SC"",""SUR""]","[""BF05"",""AF09"",""BF08"",""AM09""]","[4,2,7,7]","[4,2,8,6]","","",""
"show-reward","34","139694","0.0-34.0","p777668","A1DC5O5XEIMM1M","3WRBLBQ2GSENM5LEFQY1C5PG0GV0GC","3U4J9857OGH80JBHA5WXFT3VBS2B7O","model","mismatch","uniform","","","","","","","","143481.69999980927","145512.30000019073","","","","","","","","","","","","7","","stimuli/stars_7.png","42.5","","","","","stimuli/BF08_SC.jpg","",""
"explore-choice","35","141763","0.0-35.0","p777668","A1DC5O5XEIMM1M","3WRBLBQ2GSENM5LEFQY1C5PG0GV0GC","3U4J9857OGH80JBHA5WXFT3VBS2B7O","model","mismatch","uniform","","","","","","","1555.4000005722046","145514.89999961853","147070.30000019073","[""stimuli/BF05_HO.jpg"",""stimuli/BF08_DO.jpg"",""stimuli/AM09_SC.jpg"",""stimuli/AF09_SUR.jpg""]","stimuli/BF05_HO.jpg","stimuli/BF08_DO.jpg","stimuli/AM09_SC.jpg","stimuli/AF09_SUR.jpg","pos1","stimuli/BF05_HO.jpg","HO","BF05","0","1.5","3","4","stimuli/stars_3.png","44","[""HO"",""DO"",""SC"",""SUR""]","[""BF05"",""BF08"",""AM09"",""AF09""]","[3,6,6,0]","[4,8,6,2]","","",""
"show-reward","36","143776","0.0-36.0","p777668","A1DC5O5XEIMM1M","3WRBLBQ2GSENM5LEFQY1C5PG0GV0GC","3U4J9857OGH80JBHA5WXFT3VBS2B7O","model","mismatch","uniform","","","","","","","","147585.89999961853","149595.60000038147","","","","","","","","","","","","3","","stimuli/stars_3.png","44","","","","","stimuli/BF05_HO.jpg","",""
"explore-choice","37","146704","0.0-37.0","p777668","A1DC5O5XEIMM1M","3WRBLBQ2GSENM5LEFQY1C5PG0GV0GC","3U4J9857OGH80JBHA5WXFT3VBS2B7O","model","mismatch","uniform","","","","","","","2416.800000190735","149596.89999961853","152013.69999980927","[""stimuli/BF05_SUR.jpg"",""stimuli/AM09_DO.jpg"",""stimuli/AF09_HO.jpg"",""stimuli/BF08_SC.jpg""]","stimuli/BF05_SUR.jpg","stimuli/AM09_DO.jpg","stimuli/AF09_HO.jpg","stimuli/BF08_SC.jpg","pos2","stimuli/AM09_DO.jpg","DO","AM09","1","3.5","7","6","stimuli/stars_7.png","47.5","[""SUR"",""DO"",""HO"",""SC""]","[""BF05"",""AM09"",""AF09"",""BF08""]","[5,7,0,10]","[4,6,2,8]","","",""
"show-reward","38","148720","0.0-38.0","p777668","A1DC5O5XEIMM1M","3WRBLBQ2GSENM5LEFQY1C5PG0GV0GC","3U4J9857OGH80JBHA5WXFT3VBS2B7O","model","mismatch","uniform","","","","","","","","152525.19999980927","154538.89999961853","","","","","","","","","","","","7","","stimuli/stars_7.png","47.5","","","","","stimuli/AM09_DO.jpg","",""
"explore-choice","39","151414","0.0-39.0","p777668","A1DC5O5XEIMM1M","3WRBLBQ2GSENM5LEFQY1C5PG0GV0GC","3U4J9857OGH80JBHA5WXFT3VBS2B7O","model","mismatch","uniform","","","","","","","2186.3999996185303","154540.60000038147","156727","[""stimuli/AF09_SUR.jpg"",""stimuli/AM09_HO.jpg"",""stimuli/BF05_DO.jpg"",""stimuli/BF08_SC.jpg""]","stimuli/AF09_SUR.jpg","stimuli/AM09_HO.jpg","stimuli/BF05_DO.jpg","stimuli/BF08_SC.jpg","pos2","stimuli/AM09_HO.jpg","HO","AM09","1","3.5","7","6","stimuli/stars_7.png","51","[""SUR"",""HO"",""DO"",""SC""]","[""AF09"",""AM09"",""BF05"",""BF08""]","[1,7,4,7]","[2,6,4,8]","","",""
"show-reward","40","153429","0.0-40.0","p777668","A1DC5O5XEIMM1M","3WRBLBQ2GSENM5LEFQY1C5PG0GV0GC","3U4J9857OGH80JBHA5WXFT3VBS2B7O","model","mismatch","uniform","","","","","","","","157235","159247","","","","","","","","","","","","7","","stimuli/stars_7.png","51","","","","","stimuli/AM09_HO.jpg","",""
"explore-choice","41","156264","0.0-41.0","p777668","A1DC5O5XEIMM1M","3WRBLBQ2GSENM5LEFQY1C5PG0GV0GC","3U4J9857OGH80JBHA5WXFT3VBS2B7O","model","mismatch","uniform","","","","","","","2323.699999809265","159250.5","161574.19999980927","[""stimuli/BF08_SUR.jpg"",""stimuli/AM09_SC.jpg"",""stimuli/BF05_HO.jpg"",""stimuli/AF09_DO.jpg""]","stimuli/BF08_SUR.jpg","stimuli/AM09_SC.jpg","stimuli/BF05_HO.jpg","stimuli/AF09_DO.jpg","pos2","stimuli/AM09_SC.jpg","SC","AM09","1","2.5","5","6","stimuli/stars_5.png","53.5","[""SUR"",""SC"",""HO"",""DO""]","[""BF08"",""AM09"",""BF05"",""AF09""]","[10,5,4,1]","[8,6,4,2]","","",""
"show-reward","42","158287","0.0-42.0","p777668","A1DC5O5XEIMM1M","3WRBLBQ2GSENM5LEFQY1C5PG0GV0GC","3U4J9857OGH80JBHA5WXFT3VBS2B7O","model","mismatch","uniform","","","","","","","","162086","164105.89999961853","","","","","","","","","","","","5","","stimuli/stars_5.png","53.5","","","","","stimuli/AM09_SC.jpg","",""
"explore-choice","43","160656","0.0-43.0","p777668","A1DC5O5XEIMM1M","3WRBLBQ2GSENM5LEFQY1C5PG0GV0GC","3U4J9857OGH80JBHA5WXFT3VBS2B7O","model","mismatch","uniform","","","","","","","1851.5","164107.39999961853","165958.89999961853","[""stimuli/BF08_SUR.jpg"",""stimuli/AM09_HO.jpg"",""stimuli/AF09_SC.jpg"",""stimuli/BF05_DO.jpg""]","stimuli/BF08_SUR.jpg","stimuli/AM09_HO.jpg","stimuli/AF09_SC.jpg","stimuli/BF05_DO.jpg","pos4","stimuli/BF05_DO.jpg","DO","BF05","3","2.5","5","4","stimuli/stars_5.png","56","[""SUR"",""HO"",""SC"",""DO""]","[""BF08"",""AM09"",""AF09"",""BF05""]","[9,6,0,5]","[8,6,2,4]","","",""
"show-reward","44","162664","0.0-44.0","p777668","A1DC5O5XEIMM1M","3WRBLBQ2GSENM5LEFQY1C5PG0GV0GC","3U4J9857OGH80JBHA5WXFT3VBS2B7O","model","mismatch","uniform","","","","","","","","166478","168483.39999961853","","","","","","","","","","","","5","","stimuli/stars_5.png","56","","","","","stimuli/BF05_DO.jpg","",""
"explore-choice","45","164684","0.0-45.0","p777668","A1DC5O5XEIMM1M","3WRBLBQ2GSENM5LEFQY1C5PG0GV0GC","3U4J9857OGH80JBHA5WXFT3VBS2B7O","model","mismatch","uniform","","","","","","","1514.3999996185303","168486.5","170000.89999961853","[""stimuli/AM09_DO.jpg"",""stimuli/BF05_SC.jpg"",""stimuli/AF09_SUR.jpg"",""stimuli/BF08_HO.jpg""]","stimuli/AM09_DO.jpg","stimuli/BF05_SC.jpg","stimuli/AF09_SUR.jpg","stimuli/BF08_HO.jpg","pos3","stimuli/AF09_SUR.jpg","SUR","AF09","2","1.5","3","2","stimuli/stars_3.png","57.5","[""DO"",""SC"",""SUR"",""HO""]","[""AM09"",""BF05"",""AF09"",""BF08""]","[8,5,3,9]","[6,4,2,8]","","",""
"show-reward","46","166699","0.0-46.0","p777668","A1DC5O5XEIMM1M","3WRBLBQ2GSENM5LEFQY1C5PG0GV0GC","3U4J9857OGH80JBHA5WXFT3VBS2B7O","model","mismatch","uniform","","","","","","","","170505.10000038147","172517.10000038147","","","","","","","","","","","","3","","stimuli/stars_3.png","57.5","","","","","stimuli/AF09_SUR.jpg","",""
"explore-choice","47","170270","0.0-47.0","p777668","A1DC5O5XEIMM1M","3WRBLBQ2GSENM5LEFQY1C5PG0GV0GC","3U4J9857OGH80JBHA5WXFT3VBS2B7O","model","mismatch","uniform","","","","","","","3044.800000190735","172520.19999980927","175565","[""stimuli/BF05_DO.jpg"",""stimuli/BF08_SC.jpg"",""stimuli/AF09_HO.jpg"",""stimuli/AM09_SUR.jpg""]","stimuli/BF05_DO.jpg","stimuli/BF08_SC.jpg","stimuli/AF09_HO.jpg","stimuli/AM09_SUR.jpg","pos2","stimuli/BF08_SC.jpg","SC","BF08","1","4","8","8","stimuli/stars_8.png","61.5","[""DO"",""SC"",""HO"",""SUR""]","[""BF05"",""BF08"",""AF09"",""AM09""]","[4,8,2,5]","[4,8,2,6]","","",""
"show-reward","48","172284","0.0-48.0","p777668","A1DC5O5XEIMM1M","3WRBLBQ2GSENM5LEFQY1C5PG0GV0GC","3U4J9857OGH80JBHA5WXFT3VBS2B7O","model","mismatch","uniform","","","","","","","","176091.69999980927","178103","","","","","","","","","","","","8","","stimuli/stars_8.png","61.5","","","","","stimuli/BF08_SC.jpg","",""
"explore-choice","49","174619","0.0-49.0","p777668","A1DC5O5XEIMM1M","3WRBLBQ2GSENM5LEFQY1C5PG0GV0GC","3U4J9857OGH80JBHA5WXFT3VBS2B7O","model","mismatch","uniform","","","","","","","1821.4000005722046","178104.89999961853","179926.30000019073","[""stimuli/BF05_HO.jpg"",""stimuli/BF08_DO.jpg"",""stimuli/AM09_SUR.jpg"",""stimuli/AF09_SC.jpg""]","stimuli/BF05_HO.jpg","stimuli/BF08_DO.jpg","stimuli/AM09_SUR.jpg","stimuli/AF09_SC.jpg","pos3","stimuli/AM09_SUR.jpg","SUR","AM09","2","2.5","5","6","stimuli/stars_5.png","64","[""HO"",""DO"",""SUR"",""SC""]","[""BF05"",""BF08"",""AM09"",""AF09""]","[2,10,5,4]","[4,8,6,2]","","",""
"show-reward","50","176628","0.0-50.0","p777668","A1DC5O5XEIMM1M","3WRBLBQ2GSENM5LEFQY1C5PG0GV0GC","3U4J9857OGH80JBHA5WXFT3VBS2B7O","model","mismatch","uniform","","","","","","","","180441.19999980927","182445.30000019073","","","","","","","","","","","","5","","stimuli/stars_5.png","64","","","","","stimuli/AM09_SUR.jpg","",""
"explore-choice","51","178938","0.0-51.0","p777668","A1DC5O5XEIMM1M","3WRBLBQ2GSENM5LEFQY1C5PG0GV0GC","3U4J9857OGH80JBHA5WXFT3VBS2B7O","model","mismatch","uniform","","","","","","","1790.3999996185303","182446.80000019073","184237.19999980927","[""stimuli/BF05_SC.jpg"",""stimuli/AF09_HO.jpg"",""stimuli/AM09_DO.jpg"",""stimuli/BF08_SUR.jpg""]","stimuli/BF05_SC.jpg","stimuli/AF09_HO.jpg","stimuli/AM09_DO.jpg","stimuli/BF08_SUR.jpg","pos2","stimuli/AF09_HO.jpg","HO","AF09","1","0","0","2","stimuli/stars_0.png","64","[""SC"",""HO"",""DO"",""SUR""]","[""BF05"",""AF09"",""AM09"",""BF08""]","[4,0,5,9]","[4,2,6,8]","","",""
"show-reward","52","180944","0.0-52.0","p777668","A1DC5O5XEIMM1M","3WRBLBQ2GSENM5LEFQY1C5PG0GV0GC","3U4J9857OGH80JBHA5WXFT3VBS2B7O","model","mismatch","uniform","","","","","","","","184757.19999980927","186760.80000019073","","","","","","","","","","","","0","","stimuli/stars_0.png","64","","","","","stimuli/AF09_HO.jpg","",""
"explore-choice","53","183399","0.0-53.0","p777668","A1DC5O5XEIMM1M","3WRBLBQ2GSENM5LEFQY1C5PG0GV0GC","3U4J9857OGH80JBHA5WXFT3VBS2B7O","model","mismatch","uniform","","","","","","","1937.1000003814697","186763.19999980927","188700.30000019073","[""stimuli/BF05_SC.jpg"",""stimuli/BF08_DO.jpg"",""stimuli/AF09_HO.jpg"",""stimuli/AM09_SUR.jpg""]","stimuli/BF05_SC.jpg","stimuli/BF08_DO.jpg","stimuli/AF09_HO.jpg","stimuli/AM09_SUR.jpg","pos3","stimuli/AF09_HO.jpg","HO","AF09","2","0.5","1","2","stimuli/stars_1.png","64.5","[""SC"",""DO"",""HO"",""SUR""]","[""BF05"",""BF08"",""AF09"",""AM09""]","[2,6,1,7]","[4,8,2,6]","","",""
"show-reward","54","185418","0.0-54.0","p777668","A1DC5O5XEIMM1M","3WRBLBQ2GSENM5LEFQY1C5PG0GV0GC","3U4J9857OGH80JBHA5WXFT3VBS2B7O","model","mismatch","uniform","","","","","","","","189218.60000038147","191235.30000019073","","","","","","","","","","","","1","","stimuli/stars_1.png","64.5","","","","","stimuli/AF09_HO.jpg","",""
"explore-choice","55","187811","0.0-55.0","p777668","A1DC5O5XEIMM1M","3WRBLBQ2GSENM5LEFQY1C5PG0GV0GC","3U4J9857OGH80JBHA5WXFT3VBS2B7O","model","mismatch","uniform","","","","","","","1879.5999994277954","191236.80000019073","193116.39999961853","[""stimuli/BF08_DO.jpg"",""stimuli/AM09_SC.jpg"",""stimuli/BF05_SUR.jpg"",""stimuli/AF09_HO.jpg""]","stimuli/BF08_DO.jpg","stimuli/AM09_SC.jpg","stimuli/BF05_SUR.jpg","stimuli/AF09_HO.jpg","pos2","stimuli/AM09_SC.jpg","SC","AM09","1","2","4","6","stimuli/stars_4.png","66.5","[""DO"",""SC"",""SUR"",""HO""]","[""BF08"",""AM09"",""BF05"",""AF09""]","[7,4,2,4]","[8,6,4,2]","","",""
"show-reward","56","189820","0.0-56.0","p777668","A1DC5O5XEIMM1M","3WRBLBQ2GSENM5LEFQY1C5PG0GV0GC","3U4J9857OGH80JBHA5WXFT3VBS2B7O","model","mismatch","uniform","","","","","","","","193629.60000038147","195637.30000019073","","","","","","","","","","","","4","","stimuli/stars_4.png","66.5","","","","","stimuli/AM09_SC.jpg","",""
"explore-choice","57","192283","0.0-57.0","p777668","A1DC5O5XEIMM1M","3WRBLBQ2GSENM5LEFQY1C5PG0GV0GC","3U4J9857OGH80JBHA5WXFT3VBS2B7O","model","mismatch","uniform","","","","","","","1951.7000007629395","195639.89999961853","197591.60000038147","[""stimuli/AM09_DO.jpg"",""stimuli/BF05_SUR.jpg"",""stimuli/AF09_SC.jpg"",""stimuli/BF08_HO.jpg""]","stimuli/AM09_DO.jpg","stimuli/BF05_SUR.jpg","stimuli/AF09_SC.jpg","stimuli/BF08_HO.jpg","pos4","stimuli/BF08_HO.jpg","HO","BF08","3","4.5","9","8","stimuli/stars_9.png","71","[""DO"",""SUR"",""SC"",""HO""]","[""AM09"",""BF05"",""AF09"",""BF08""]","[8,5,1,9]","[6,4,2,8]","","",""
"show-reward","58","194298","0.0-58.0","p777668","A1DC5O5XEIMM1M","3WRBLBQ2GSENM5LEFQY1C5PG0GV0GC","3U4J9857OGH80JBHA5WXFT3VBS2B7O","model","mismatch","uniform","","","","","","","","198103.5","200115","","","","","","","","","","","","9","","stimuli/stars_9.png","71","","","","","stimuli/BF08_HO.jpg","",""
"explore-choice","59","200990","0.0-59.0","p777668","A1DC5O5XEIMM1M","3WRBLBQ2GSENM5LEFQY1C5PG0GV0GC","3U4J9857OGH80JBHA5WXFT3VBS2B7O","model","mismatch","uniform","","","","","","","6183.199999809265","200117","206300.19999980927","[""stimuli/BF08_SUR.jpg"",""stimuli/AF09_DO.jpg"",""stimuli/BF05_SC.jpg"",""stimuli/AM09_HO.jpg""]","stimuli/BF08_SUR.jpg","stimuli/AF09_DO.jpg","stimuli/BF05_SC.jpg","stimuli/AM09_HO.jpg","pos3","stimuli/BF05_SC.jpg","SC","BF05","2","3","6","4","stimuli/stars_6.png","74","[""SUR"",""DO"",""SC"",""HO""]","[""BF08"",""AF09"",""BF05"",""AM09""]","[6,4,6,8]","[8,2,4,6]","","",""
"show-reward","60","203014","0.0-60.0","p777668","A1DC5O5XEIMM1M","3WRBLBQ2GSENM5LEFQY1C5PG0GV0GC","3U4J9857OGH80JBHA5WXFT3VBS2B7O","model","mismatch","uniform","","","","","","","","206813.5","208830.30000019073","","","","","","","","","","","","6","","stimuli/stars_6.png","74","","","","","stimuli/BF05_SC.jpg","",""
"explore-choice","61","206002","0.0-61.0","p777668","A1DC5O5XEIMM1M","3WRBLBQ2GSENM5LEFQY1C5PG0GV0GC","3U4J9857OGH80JBHA5WXFT3VBS2B7O","model","mismatch","uniform","","","","","","","2473.4000005722046","208833.69999980927","211307.10000038147","[""stimuli/BF08_HO.jpg"",""stimuli/AF09_SUR.jpg"",""stimuli/AM09_DO.jpg"",""stimuli/BF05_SC.jpg""]","stimuli/BF08_HO.jpg","stimuli/AF09_SUR.jpg","stimuli/AM09_DO.jpg","stimuli/BF05_SC.jpg","pos2","stimuli/AF09_SUR.jpg","SUR","AF09","1","1.5","3","2","stimuli/stars_3.png","75.5","[""HO"",""SUR"",""DO"",""SC""]","[""BF08"",""AF09"",""AM09"",""BF05""]","[9,3,8,5]","[8,2,6,4]","","",""
"show-reward","62","208008","0.0-62.0","p777668","A1DC5O5XEIMM1M","3WRBLBQ2GSENM5LEFQY1C5PG0GV0GC","3U4J9857OGH80JBHA5WXFT3VBS2B7O","model","mismatch","uniform","","","","","","","","211821.30000019073","213824.69999980927","","","","","","","","","","","","3","","stimuli/stars_3.png","75.5","","","","","stimuli/AF09_SUR.jpg","",""
"explore-choice","63","209898","0.0-63.0","p777668","A1DC5O5XEIMM1M","3WRBLBQ2GSENM5LEFQY1C5PG0GV0GC","3U4J9857OGH80JBHA5WXFT3VBS2B7O","model","mismatch","uniform","","","","","","","1370.8000001907349","213827","215197.80000019073","[""stimuli/AM09_SC.jpg"",""stimuli/AF09_DO.jpg"",""stimuli/BF05_HO.jpg"",""stimuli/BF08_SUR.jpg""]","stimuli/AM09_SC.jpg","stimuli/AF09_DO.jpg","stimuli/BF05_HO.jpg","stimuli/BF08_SUR.jpg","pos4","stimuli/BF08_SUR.jpg","SUR","BF08","3","5","10","8","stimuli/stars_10.png","80.5","[""SC"",""DO"",""HO"",""SUR""]","[""AM09"",""AF09"",""BF05"",""BF08""]","[5,1,4,10]","[6,2,4,8]","","",""
"show-reward","64","211902","0.0-64.0","p777668","A1DC5O5XEIMM1M","3WRBLBQ2GSENM5LEFQY1C5PG0GV0GC","3U4J9857OGH80JBHA5WXFT3VBS2B7O","model","mismatch","uniform","","","","","","","","215717","217719.30000019073","","","","","","","","","","","","10","","stimuli/stars_10.png","80.5","","","","","stimuli/BF08_SUR.jpg","",""
"explore-choice","65","214292","0.0-65.0","p777668","A1DC5O5XEIMM1M","3WRBLBQ2GSENM5LEFQY1C5PG0GV0GC","3U4J9857OGH80JBHA5WXFT3VBS2B7O","model","mismatch","uniform","","","","","","","1853.3999996185303","217721.10000038147","219574.5","[""stimuli/BF05_DO.jpg"",""stimuli/BF08_SUR.jpg"",""stimuli/AF09_SC.jpg"",""stimuli/AM09_HO.jpg""]","stimuli/BF05_DO.jpg","stimuli/BF08_SUR.jpg","stimuli/AF09_SC.jpg","stimuli/AM09_HO.jpg","pos3","stimuli/AF09_SC.jpg","SC","AF09","2","0","0","2","stimuli/stars_0.png","80.5","[""DO"",""SUR"",""SC"",""HO""]","[""BF05"",""BF08"",""AF09"",""AM09""]","[5,9,0,6]","[4,8,2,6]","","",""
"show-reward","66","216304","0.0-66.0","p777668","A1DC5O5XEIMM1M","3WRBLBQ2GSENM5LEFQY1C5PG0GV0GC","3U4J9857OGH80JBHA5WXFT3VBS2B7O","model","mismatch","uniform","","","","","","","","220111.10000038147","222121.60000038147","","","","","","","","","","","","0","","stimuli/stars_0.png","80.5","","","","","stimuli/AF09_SC.jpg","",""
"explore-choice","67","218407","0.0-67.0","p777668","A1DC5O5XEIMM1M","3WRBLBQ2GSENM5LEFQY1C5PG0GV0GC","3U4J9857OGH80JBHA5WXFT3VBS2B7O","model","mismatch","uniform","","","","","","","1588.5","222124.10000038147","223712.60000038147","[""stimuli/BF05_DO.jpg"",""stimuli/BF08_SC.jpg"",""stimuli/AF09_SUR.jpg"",""stimuli/AM09_HO.jpg""]","stimuli/BF05_DO.jpg","stimuli/BF08_SC.jpg","stimuli/AF09_SUR.jpg","stimuli/AM09_HO.jpg","pos2","stimuli/BF08_SC.jpg","SC","BF08","1","3.5","7","8","stimuli/stars_7.png","84","[""DO"",""SC"",""SUR"",""HO""]","[""BF05"",""BF08"",""AF09"",""AM09""]","[4,7,1,7]","[4,8,2,6]","","",""
"show-reward","68","220415","0.0-68.0","p777668","A1DC5O5XEIMM1M","3WRBLBQ2GSENM5LEFQY1C5PG0GV0GC","3U4J9857OGH80JBHA5WXFT3VBS2B7O","model","mismatch","uniform","","","","","","","","224227.69999980927","226232.10000038147","","","","","","","","","","","","7","","stimuli/stars_7.png","84","","","","","stimuli/BF08_SC.jpg","",""
"explore-choice","69","222407","0.0-69.0","p777668","A1DC5O5XEIMM1M","3WRBLBQ2GSENM5LEFQY1C5PG0GV0GC","3U4J9857OGH80JBHA5WXFT3VBS2B7O","model","mismatch","uniform","","","","","","","1480.5","226234.80000019073","227715.30000019073","[""stimuli/BF05_HO.jpg"",""stimuli/AF09_SUR.jpg"",""stimuli/AM09_SC.jpg"",""stimuli/BF08_DO.jpg""]","stimuli/BF05_HO.jpg","stimuli/AF09_SUR.jpg","stimuli/AM09_SC.jpg","stimuli/BF08_DO.jpg","pos2","stimuli/AF09_SUR.jpg","SUR","AF09","1","0","0","2","stimuli/stars_0.png","84","[""HO"",""SUR"",""SC"",""DO""]","[""BF05"",""AF09"",""AM09"",""BF08""]","[3,0,6,6]","[4,2,6,8]","","",""
"show-reward","70","224422","0.0-70.0","p777668","A1DC5O5XEIMM1M","3WRBLBQ2GSENM5LEFQY1C5PG0GV0GC","3U4J9857OGH80JBHA5WXFT3VBS2B7O","model","mismatch","uniform","","","","","","","","228226.60000038147","230239.60000038147","","","","","","","","","","","","0","","stimuli/stars_0.png","84","","","","","stimuli/AF09_SUR.jpg","",""
"explore-choice","71","227681","0.0-71.0","p777668","A1DC5O5XEIMM1M","3WRBLBQ2GSENM5LEFQY1C5PG0GV0GC","3U4J9857OGH80JBHA5WXFT3VBS2B7O","model","mismatch","uniform","","","","","","","2742","230241.89999961853","232983.89999961853","[""stimuli/BF08_SUR.jpg"",""stimuli/AM09_DO.jpg"",""stimuli/AF09_SC.jpg"",""stimuli/BF05_HO.jpg""]","stimuli/BF08_SUR.jpg","stimuli/AM09_DO.jpg","stimuli/AF09_SC.jpg","stimuli/BF05_HO.jpg","pos3","stimuli/AF09_SC.jpg","SC","AF09","2","1","2","2","stimuli/stars_2.png","85","[""SUR"",""DO"",""SC"",""HO""]","[""BF08"",""AM09"",""AF09"",""BF05""]","[6,7,2,2]","[8,6,2,4]","","",""
"show-reward","72","229700","0.0-72.0","p777668","A1DC5O5XEIMM1M","3WRBLBQ2GSENM5LEFQY1C5PG0GV0GC","3U4J9857OGH80JBHA5WXFT3VBS2B7O","model","mismatch","uniform","","","","","","","","233500.10000038147","235516.80000019073","","","","","","","","","","","","2","","stimuli/stars_2.png","85","","","","","stimuli/AF09_SC.jpg","",""
"explore-choice","73","231790","0.0-73.0","p777668","A1DC5O5XEIMM1M","3WRBLBQ2GSENM5LEFQY1C5PG0GV0GC","3U4J9857OGH80JBHA5WXFT3VBS2B7O","model","mismatch","uniform","","","","","","","1584.7999992370605","235518.60000038147","237103.39999961853","[""stimuli/AM09_HO.jpg"",""stimuli/BF08_SC.jpg"",""stimuli/BF05_SUR.jpg"",""stimuli/AF09_DO.jpg""]","stimuli/AM09_HO.jpg","stimuli/BF08_SC.jpg","stimuli/BF05_SUR.jpg","stimuli/AF09_DO.jpg","pos1","stimuli/AM09_HO.jpg","HO","AM09","0","4","8","6","stimuli/stars_8.png","89","[""HO"",""SC"",""SUR"",""DO""]","[""AM09"",""BF08"",""BF05"",""AF09""]","[8,8,4,4]","[6,8,4,2]","","",""
"show-reward","74","233800","0.0-74.0","p777668","A1DC5O5XEIMM1M","3WRBLBQ2GSENM5LEFQY1C5PG0GV0GC","3U4J9857OGH80JBHA5WXFT3VBS2B7O","model","mismatch","uniform","","","","","","","","237611.39999961853","239616.80000019073","","","","","","","","","","","","8","","stimuli/stars_8.png","89","","","","","stimuli/AM09_HO.jpg","",""
"explore-choice","75","235663","0.0-75.0","p777668","A1DC5O5XEIMM1M","3WRBLBQ2GSENM5LEFQY1C5PG0GV0GC","3U4J9857OGH80JBHA5WXFT3VBS2B7O","model","mismatch","uniform","","","","","","","1354.0999994277954","239619.10000038147","240973.19999980927","[""stimuli/BF05_SC.jpg"",""stimuli/BF08_DO.jpg"",""stimuli/AF09_SUR.jpg"",""stimuli/AM09_HO.jpg""]","stimuli/BF05_SC.jpg","stimuli/BF08_DO.jpg","stimuli/AF09_SUR.jpg","stimuli/AM09_HO.jpg","pos2","stimuli/BF08_DO.jpg","DO","BF08","1","5","10","8","stimuli/stars_10.png","94","[""SC"",""DO"",""SUR"",""HO""]","[""BF05"",""BF08"",""AF09"",""AM09""]","[6,10,1,6]","[4,8,2,6]","","",""
"show-reward","76","237669","0.0-76.0","p777668","A1DC5O5XEIMM1M","3WRBLBQ2GSENM5LEFQY1C5PG0GV0GC","3U4J9857OGH80JBHA5WXFT3VBS2B7O","model","mismatch","uniform","","","","","","","","241480.69999980927","243485.10000038147","","","","","","","","","","","","10","","stimuli/stars_10.png","94","","","","","stimuli/BF08_DO.jpg","",""
"explore-choice","77","240136","0.0-77.0","p777668","A1DC5O5XEIMM1M","3WRBLBQ2GSENM5LEFQY1C5PG0GV0GC","3U4J9857OGH80JBHA5WXFT3VBS2B7O","model","mismatch","uniform","","","","","","","1931.8000001907349","243487.5","245419.30000019073","[""stimuli/BF08_SC.jpg"",""stimuli/AF09_HO.jpg"",""stimuli/BF05_DO.jpg"",""stimuli/AM09_SUR.jpg""]","stimuli/BF08_SC.jpg","stimuli/AF09_HO.jpg","stimuli/BF05_DO.jpg","stimuli/AM09_SUR.jpg","pos3","stimuli/BF05_DO.jpg","DO","BF05","2","2","4","4","stimuli/stars_4.png","96","[""SC"",""HO"",""DO"",""SUR""]","[""BF08"",""AF09"",""BF05"",""AM09""]","[8,2,4,5]","[8,2,4,6]","","",""
"show-reward","78","242153","0.0-78.0","p777668","A1DC5O5XEIMM1M","3WRBLBQ2GSENM5LEFQY1C5PG0GV0GC","3U4J9857OGH80JBHA5WXFT3VBS2B7O","model","mismatch","uniform","","","","","","","","245953.39999961853","247968.5","","","","","","","","","","","","4","","stimuli/stars_4.png","96","","","","","stimuli/BF05_DO.jpg","",""
"explore-choice","79","244541","0.0-79.0","p777668","A1DC5O5XEIMM1M","3WRBLBQ2GSENM5LEFQY1C5PG0GV0GC","3U4J9857OGH80JBHA5WXFT3VBS2B7O","model","mismatch","uniform","","","","","","","1871.1000003814697","247971.5","249842.60000038147","[""stimuli/AF09_HO.jpg"",""stimuli/AM09_DO.jpg"",""stimuli/BF08_SC.jpg"",""stimuli/BF05_SUR.jpg""]","stimuli/AF09_HO.jpg","stimuli/AM09_DO.jpg","stimuli/BF08_SC.jpg","stimuli/BF05_SUR.jpg","pos4","stimuli/BF05_SUR.jpg","SUR","BF05","3","2.5","5","4","stimuli/stars_5.png","98.5","[""HO"",""DO"",""SC"",""SUR""]","[""AF09"",""AM09"",""BF08"",""BF05""]","[0,7,10,5]","[2,6,8,4]","","",""
"show-reward","80","246570","0.0-80.0","p777668","A1DC5O5XEIMM1M","3WRBLBQ2GSENM5LEFQY1C5PG0GV0GC","3U4J9857OGH80JBHA5WXFT3VBS2B7O","model","mismatch","uniform","","","","","","","","250359.30000019073","252386.10000038147","","","","","","","","","","","","5","","stimuli/stars_5.png","98.5","","","","","stimuli/BF05_SUR.jpg","",""
"explore-choice","81","248466","0.0-81.0","p777668","A1DC5O5XEIMM1M","3WRBLBQ2GSENM5LEFQY1C5PG0GV0GC","3U4J9857OGH80JBHA5WXFT3VBS2B7O","model","mismatch","uniform","","","","","","","1392.6000003814697","252387.5","253780.10000038147","[""stimuli/BF05_SC.jpg"",""stimuli/BF08_SUR.jpg"",""stimuli/AM09_DO.jpg"",""stimuli/AF09_HO.jpg""]","stimuli/BF05_SC.jpg","stimuli/BF08_SUR.jpg","stimuli/AM09_DO.jpg","stimuli/AF09_HO.jpg","pos1","stimuli/BF05_SC.jpg","SC","BF05","0","2","4","4","stimuli/stars_4.png","100.5","[""SC"",""SUR"",""DO"",""HO""]","[""BF05"",""BF08"",""AM09"",""AF09""]","[4,9,5,0]","[4,8,6,2]","","",""
"show-reward","82","250478","0.0-82.0","p777668","A1DC5O5XEIMM1M","3WRBLBQ2GSENM5LEFQY1C5PG0GV0GC","3U4J9857OGH80JBHA5WXFT3VBS2B7O","model","mismatch","uniform","","","","","","","","254283.5","256294.5","","","","","","","","","","","","4","","stimuli/stars_4.png","100.5","","","","","stimuli/BF05_SC.jpg","",""
"explore-choice","83","252364","0.0-83.0","p777668","A1DC5O5XEIMM1M","3WRBLBQ2GSENM5LEFQY1C5PG0GV0GC","3U4J9857OGH80JBHA5WXFT3VBS2B7O","model","mismatch","uniform","","","","","","","1381.3000001907349","256296","257677.30000019073","[""stimuli/BF08_HO.jpg"",""stimuli/AM09_SC.jpg"",""stimuli/AF09_SUR.jpg"",""stimuli/BF05_DO.jpg""]","stimuli/BF08_HO.jpg","stimuli/AM09_SC.jpg","stimuli/AF09_SUR.jpg","stimuli/BF05_DO.jpg","pos2","stimuli/AM09_SC.jpg","SC","AM09","1","2","4","6","stimuli/stars_4.png","102.5","[""HO"",""SC"",""SUR"",""DO""]","[""BF08"",""AM09"",""AF09"",""BF05""]","[7,4,4,6]","[8,6,2,4]","","",""
"show-reward","84","254378","0.0-84.0","p777668","A1DC5O5XEIMM1M","3WRBLBQ2GSENM5LEFQY1C5PG0GV0GC","3U4J9857OGH80JBHA5WXFT3VBS2B7O","model","mismatch","uniform","","","","","","","","258181.30000019073","260193","","","","","","","","","","","","4","","stimuli/stars_4.png","102.5","","","","","stimuli/AM09_SC.jpg","",""
"explore-choice","85","256528","0.0-85.0","p777668","A1DC5O5XEIMM1M","3WRBLBQ2GSENM5LEFQY1C5PG0GV0GC","3U4J9857OGH80JBHA5WXFT3VBS2B7O","model","mismatch","uniform","","","","","","","1646.3999996185303","260195.60000038147","261842","[""stimuli/BF08_SC.jpg"",""stimuli/AF09_DO.jpg"",""stimuli/BF05_HO.jpg"",""stimuli/AM09_SUR.jpg""]","stimuli/BF08_SC.jpg","stimuli/AF09_DO.jpg","stimuli/BF05_HO.jpg","stimuli/AM09_SUR.jpg","pos3","stimuli/BF05_HO.jpg","HO","BF05","2","2","4","4","stimuli/stars_4.png","104.5","[""SC"",""DO"",""HO"",""SUR""]","[""BF08"",""AF09"",""BF05"",""AM09""]","[7,2,4,7]","[8,2,4,6]","","",""
"show-reward","86","258538","0.0-86.0","p777668","A1DC5O5XEIMM1M","3WRBLBQ2GSENM5LEFQY1C5PG0GV0GC","3U4J9857OGH80JBHA5WXFT3VBS2B7O","model","mismatch","uniform","","","","","","","","262346.19999980927","264353.60000038147","","","","","","","","","","","","4","","stimuli/stars_4.png","104.5","","","","","stimuli/BF05_HO.jpg","",""
"explore-choice","87","260426","0.0-87.0","p777668","A1DC5O5XEIMM1M","3WRBLBQ2GSENM5LEFQY1C5PG0GV0GC","3U4J9857OGH80JBHA5WXFT3VBS2B7O","model","mismatch","uniform","","","","","","","1384.6000003814697","264356","265740.60000038147","[""stimuli/BF05_DO.jpg"",""stimuli/BF08_HO.jpg"",""stimuli/AF09_SC.jpg"",""stimuli/AM09_SUR.jpg""]","stimuli/BF05_DO.jpg","stimuli/BF08_HO.jpg","stimuli/AF09_SC.jpg","stimuli/AM09_SUR.jpg","pos4","stimuli/AM09_SUR.jpg","SUR","AM09","3","2.5","5","6","stimuli/stars_5.png","107","[""DO"",""HO"",""SC"",""SUR""]","[""BF05"",""BF08"",""AF09"",""AM09""]","[3,10,3,5]","[4,8,2,6]","","",""
"show-reward","88","262431","0.0-88.0","p777668","A1DC5O5XEIMM1M","3WRBLBQ2GSENM5LEFQY1C5PG0GV0GC","3U4J9857OGH80JBHA5WXFT3VBS2B7O","model","mismatch","uniform","","","","","","","","266243.5","268246.89999961853","","","","","","","","","","","","5","","stimuli/stars_5.png","107","","","","","stimuli/AM09_SUR.jpg","",""
"explore-choice","89","264267","0.0-89.0","p777668","A1DC5O5XEIMM1M","3WRBLBQ2GSENM5LEFQY1C5PG0GV0GC","3U4J9857OGH80JBHA5WXFT3VBS2B7O","model","mismatch","uniform","","","","","","","1332.8000001907349","268248.19999980927","269581","[""stimuli/BF08_SC.jpg"",""stimuli/AM09_DO.jpg"",""stimuli/BF05_HO.jpg"",""stimuli/AF09_SUR.jpg""]","stimuli/BF08_SC.jpg","stimuli/AM09_DO.jpg","stimuli/BF05_HO.jpg","stimuli/AF09_SUR.jpg","pos2","stimuli/AM09_DO.jpg","DO","AM09","1","3.5","7","6","stimuli/stars_7.png","110.5","[""SC"",""DO"",""HO"",""SUR""]","[""BF08"",""AM09"",""BF05"",""AF09""]","[9,7,5,1]","[8,6,4,2]","","",""
"show-reward","90","266303","0.0-90.0","p777668","A1DC5O5XEIMM1M","3WRBLBQ2GSENM5LEFQY1C5PG0GV0GC","3U4J9857OGH80JBHA5WXFT3VBS2B7O","model","mismatch","uniform","","","","","","","","270084.60000038147","272117.30000019073","","","","","","","","","","","","7","","stimuli/stars_7.png","110.5","","","","","stimuli/AM09_DO.jpg","",""
"explore-choice","91","268143","0.0-91.0","p777668","A1DC5O5XEIMM1M","3WRBLBQ2GSENM5LEFQY1C5PG0GV0GC","3U4J9857OGH80JBHA5WXFT3VBS2B7O","model","mismatch","uniform","","","","","","","1323.6000003814697","272121","273444.60000038147","[""stimuli/AM09_HO.jpg"",""stimuli/AF09_SC.jpg"",""stimuli/BF05_SUR.jpg"",""stimuli/BF08_DO.jpg""]","stimuli/AM09_HO.jpg","stimuli/AF09_SC.jpg","stimuli/BF05_SUR.jpg","stimuli/BF08_DO.jpg","pos3","stimuli/BF05_SUR.jpg","SUR","BF05","2","2.5","5","4","stimuli/stars_5.png","113","[""HO"",""SC"",""SUR"",""DO""]","[""AM09"",""AF09"",""BF05"",""BF08""]","[5,0,5,8]","[6,2,4,8]","","",""
"show-reward","92","270150","0.0-92.0","p777668","A1DC5O5XEIMM1M","3WRBLBQ2GSENM5LEFQY1C5PG0GV0GC","3U4J9857OGH80JBHA5WXFT3VBS2B7O","model","mismatch","uniform","","","","","","","","273961.19999980927","275965.89999961853","","","","","","","","","","","","5","","stimuli/stars_5.png","113","","","","","stimuli/BF05_SUR.jpg","",""
"explore-choice","93","272479","0.0-93.0","p777668","A1DC5O5XEIMM1M","3WRBLBQ2GSENM5LEFQY1C5PG0GV0GC","3U4J9857OGH80JBHA5WXFT3VBS2B7O","model","mismatch","uniform","","","","","","","1812.1999998092651","275967.80000019073","277780","[""stimuli/AF09_HO.jpg"",""stimuli/BF08_SUR.jpg"",""stimuli/AM09_SC.jpg"",""stimuli/BF05_DO.jpg""]","stimuli/AF09_HO.jpg","stimuli/BF08_SUR.jpg","stimuli/AM09_SC.jpg","stimuli/BF05_DO.jpg","pos1","stimuli/AF09_HO.jpg","HO","AF09","0","0","0","2","stimuli/stars_0.png","113","[""HO"",""SUR"",""SC"",""DO""]","[""AF09"",""BF08"",""AM09"",""BF05""]","[0,6,6,3]","[2,8,6,4]","","",""
"show-reward","94","274483","0.0-94.0","p777668","A1DC5O5XEIMM1M","3WRBLBQ2GSENM5LEFQY1C5PG0GV0GC","3U4J9857OGH80JBHA5WXFT3VBS2B7O","model","mismatch","uniform","","","","","","","","278296.5","280299.30000019073","","","","","","","","","","","","0","","stimuli/stars_0.png","113","","","","","stimuli/AF09_HO.jpg","",""
"explore-choice","95","275933","0.0-95.0","p777668","A1DC5O5XEIMM1M","3WRBLBQ2GSENM5LEFQY1C5PG0GV0GC","3U4J9857OGH80JBHA5WXFT3VBS2B7O","model","mismatch","uniform","","","","","","","941.7999992370605","280300.60000038147","281242.39999961853","[""stimuli/AM09_SUR.jpg"",""stimuli/BF05_SC.jpg"",""stimuli/AF09_HO.jpg"",""stimuli/BF08_DO.jpg""]","stimuli/AM09_SUR.jpg","stimuli/BF05_SC.jpg","stimuli/AF09_HO.jpg","stimuli/BF08_DO.jpg","pos2","stimuli/BF05_SC.jpg","SC","BF05","1","1","2","4","stimuli/stars_2.png","114","[""SUR"",""SC"",""HO"",""DO""]","[""AM09"",""BF05"",""AF09"",""BF08""]","[7,2,1,6]","[6,4,2,8]","","",""
"show-reward","96","277955","0.0-96.0","p777668","A1DC5O5XEIMM1M","3WRBLBQ2GSENM5LEFQY1C5PG0GV0GC","3U4J9857OGH80JBHA5WXFT3VBS2B7O","model","mismatch","uniform","","","","","","","","281750.5","283769.19999980927","","","","","","","","","","","","2","","stimuli/stars_2.png","114","","","","","stimuli/BF05_SC.jpg","",""
"explore-choice","97","279947","0.0-97.0","p777668","A1DC5O5XEIMM1M","3WRBLBQ2GSENM5LEFQY1C5PG0GV0GC","3U4J9857OGH80JBHA5WXFT3VBS2B7O","model","mismatch","uniform","","","","","","","1461.1000003814697","283773.5","285234.60000038147","[""stimuli/BF05_SC.jpg"",""stimuli/AM09_SUR.jpg"",""stimuli/BF08_HO.jpg"",""stimuli/AF09_DO.jpg""]","stimuli/BF05_SC.jpg","stimuli/AM09_SUR.jpg","stimuli/BF08_HO.jpg","stimuli/AF09_DO.jpg","pos4","stimuli/AF09_DO.jpg","DO","AF09","3","2","4","2","stimuli/stars_4.png","116","[""SC"",""SUR"",""HO"",""DO""]","[""BF05"",""AM09"",""BF08"",""AF09""]","[5,4,6,4]","[4,6,8,2]","","",""
"show-reward","98","281952","0.0-98.0","p777668","A1DC5O5XEIMM1M","3WRBLBQ2GSENM5LEFQY1C5PG0GV0GC","3U4J9857OGH80JBHA5WXFT3VBS2B7O","model","mismatch","uniform","","","","","","","","285764.69999980927","287768","","","","","","","","","","","","4","","stimuli/stars_4.png","116","","","","","stimuli/AF09_DO.jpg","",""
"explore-choice","99","283961","0.0-99.0","p777668","A1DC5O5XEIMM1M","3WRBLBQ2GSENM5LEFQY1C5PG0GV0GC","3U4J9857OGH80JBHA5WXFT3VBS2B7O","model","mismatch","uniform","","","","","","","1499","287769.39999961853","289268.39999961853","[""stimuli/AM09_SC.jpg"",""stimuli/BF05_SUR.jpg"",""stimuli/AF09_DO.jpg"",""stimuli/BF08_HO.jpg""]","stimuli/AM09_SC.jpg","stimuli/BF05_SUR.jpg","stimuli/AF09_DO.jpg","stimuli/BF08_HO.jpg","pos1","stimuli/AM09_SC.jpg","SC","AM09","0","3.5","7","6","stimuli/stars_7.png","119.5","[""SC"",""SUR"",""DO"",""HO""]","[""AM09"",""BF05"",""AF09"",""BF08""]","[7,4,4,7]","[6,4,2,8]","","",""
"show-reward","100","285965","0.0-100.0","p777668","A1DC5O5XEIMM1M","3WRBLBQ2GSENM5LEFQY1C5PG0GV0GC","3U4J9857OGH80JBHA5WXFT3VBS2B7O","model","mismatch","uniform","","","","","","","","289779.10000038147","291781.5","","","","","","","","","","","","7","","stimuli/stars_7.png","119.5","","","","","stimuli/AM09_SC.jpg","",""
"explore-choice","101","290355","0.0-101.0","p777668","A1DC5O5XEIMM1M","3WRBLBQ2GSENM5LEFQY1C5PG0GV0GC","3U4J9857OGH80JBHA5WXFT3VBS2B7O","model","mismatch","uniform","","","","","","","3885.1000003814697","291783","295668.10000038147","[""stimuli/AF09_SC.jpg"",""stimuli/BF08_DO.jpg"",""stimuli/AM09_SUR.jpg"",""stimuli/BF05_HO.jpg""]","stimuli/AF09_SC.jpg","stimuli/BF08_DO.jpg","stimuli/AM09_SUR.jpg","stimuli/BF05_HO.jpg","pos3","stimuli/AM09_SUR.jpg","SUR","AM09","2","2.5","5","6","stimuli/stars_5.png","122","[""SC"",""DO"",""SUR"",""HO""]","[""AF09"",""BF08"",""AM09"",""BF05""]","[4,10,5,2]","[2,8,6,4]","","",""
"show-reward","102","292361","0.0-102.0","p777668","A1DC5O5XEIMM1M","3WRBLBQ2GSENM5LEFQY1C5PG0GV0GC","3U4J9857OGH80JBHA5WXFT3VBS2B7O","model","mismatch","uniform","","","","","","","","296172.69999980927","298177.19999980927","","","","","","","","","","","","5","","stimuli/stars_5.png","122","","","","","stimuli/AM09_SUR.jpg","",""
"explore-choice","103","296960","0.0-103.0","p777668","A1DC5O5XEIMM1M","3WRBLBQ2GSENM5LEFQY1C5PG0GV0GC","3U4J9857OGH80JBHA5WXFT3VBS2B7O","model","mismatch","uniform","","","","","","","4085.300000190735","298182.19999980927","302267.5","[""stimuli/BM04_FO.jpg"",""stimuli/WM11_CC.jpg"",""stimuli/HM10_HE.jpg"",""stimuli/WF06_AO.jpg""]","stimuli/BM04_FO.jpg","stimuli/WM11_CC.jpg","stimuli/HM10_HE.jpg","stimuli/WF06_AO.jpg","pos4","stimuli/WF06_AO.jpg","AO","WF06","3","2.5","5","6","stimuli/stars_5.png","124.5","[""FO"",""CC"",""HE"",""AO""]","[""BM04"",""WM11"",""HM10"",""WF06""]","[3,7,2,5]","[2,8,4,6]","","",""
"show-reward","104","298986","0.0-104.0","p777668","A1DC5O5XEIMM1M","3WRBLBQ2GSENM5LEFQY1C5PG0GV0GC","3U4J9857OGH80JBHA5WXFT3VBS2B7O","model","mismatch","uniform","","","","","","","","302775.80000019073","304799.19999980927","","","","","","","","","","","","5","","stimuli/stars_5.png","124.5","","","","","stimuli/WF06_AO.jpg","",""
"explore-choice","105","301023","0.0-105.0","p777668","A1DC5O5XEIMM1M","3WRBLBQ2GSENM5LEFQY1C5PG0GV0GC","3U4J9857OGH80JBHA5WXFT3VBS2B7O","model","mismatch","uniform","","","","","","","1507.9000005722046","304815.39999961853","306323.30000019073","[""stimuli/WF06_FO.jpg"",""stimuli/HM10_CC.jpg"",""stimuli/WM11_AO.jpg"",""stimuli/BM04_HE.jpg""]","stimuli/WF06_FO.jpg","stimuli/HM10_CC.jpg","stimuli/WM11_AO.jpg","stimuli/BM04_HE.jpg","pos2","stimuli/HM10_CC.jpg","CC","HM10","1","4","8","8","stimuli/stars_8.png","128.5","[""FO"",""CC"",""AO"",""HE""]","[""WF06"",""HM10"",""WM11"",""BM04""]","[3,8,8,4]","[2,8,6,4]","","",""
"show-reward","106","303028","0.0-106.0","p777668","A1DC5O5XEIMM1M","3WRBLBQ2GSENM5LEFQY1C5PG0GV0GC","3U4J9857OGH80JBHA5WXFT3VBS2B7O","model","mismatch","uniform","","","","","","","","306837.89999961853","308842.30000019073","","","","","","","","","","","","8","","stimuli/stars_8.png","128.5","","","","","stimuli/HM10_CC.jpg","",""
"explore-choice","107","305067","0.0-107.0","p777668","A1DC5O5XEIMM1M","3WRBLBQ2GSENM5LEFQY1C5PG0GV0GC","3U4J9857OGH80JBHA5WXFT3VBS2B7O","model","mismatch","uniform","","","","","","","1528.8000001907349","308844.30000019073","310373.10000038147","[""stimuli/BM04_HE.jpg"",""stimuli/HM10_FO.jpg"",""stimuli/WM11_AO.jpg"",""stimuli/WF06_CC.jpg""]","stimuli/BM04_HE.jpg","stimuli/HM10_FO.jpg","stimuli/WM11_AO.jpg","stimuli/WF06_CC.jpg","pos1","stimuli/BM04_HE.jpg","HE","BM04","0","2","4","4","stimuli/stars_4.png","130.5","[""HE"",""FO"",""AO"",""CC""]","[""BM04"",""HM10"",""WM11"",""WF06""]","[4,2,7,8]","[4,2,6,8]","","",""
"show-reward","108","307077","0.0-108.0","p777668","A1DC5O5XEIMM1M","3WRBLBQ2GSENM5LEFQY1C5PG0GV0GC","3U4J9857OGH80JBHA5WXFT3VBS2B7O","model","mismatch","uniform","","","","","","","","310882.89999961853","312890.60000038147","","","","","","","","","","","","4","","stimuli/stars_4.png","130.5","","","","","stimuli/BM04_HE.jpg","",""
"explore-choice","109","315891","0.0-109.0","p777668","A1DC5O5XEIMM1M","3WRBLBQ2GSENM5LEFQY1C5PG0GV0GC","3U4J9857OGH80JBHA5WXFT3VBS2B7O","model","mismatch","uniform","","","","","","","8298.699999809265","312892.60000038147","321191.30000019073","[""stimuli/HM10_AO.jpg"",""stimuli/WM11_CC.jpg"",""stimuli/WF06_FO.jpg"",""stimuli/BM04_HE.jpg""]","stimuli/HM10_AO.jpg","stimuli/WM11_CC.jpg","stimuli/WF06_FO.jpg","stimuli/BM04_HE.jpg","pos2","stimuli/WM11_CC.jpg","CC","WM11","1","3.5","7","8","stimuli/stars_7.png","134","[""AO"",""CC"",""FO"",""HE""]","[""HM10"",""WM11"",""WF06"",""BM04""]","[7,7,0,2]","[6,8,2,4]","","",""
"show-reward","110","317903","0.0-110.0","p777668","A1DC5O5XEIMM1M","3WRBLBQ2GSENM5LEFQY1C5PG0GV0GC","3U4J9857OGH80JBHA5WXFT3VBS2B7O","model","mismatch","uniform","","","","","","","","321706.60000038147","323716.60000038147","","","","","","","","","","","","7","","stimuli/stars_7.png","134","","","","","stimuli/WM11_CC.jpg","",""
"explore-choice","111","321844","0.0-111.0","p777668","A1DC5O5XEIMM1M","3WRBLBQ2GSENM5LEFQY1C5PG0GV0GC","3U4J9857OGH80JBHA5WXFT3VBS2B7O","model","mismatch","uniform","","","","","","","3430.6000003814697","323718.19999980927","327148.80000019073","[""stimuli/BM04_FO.jpg"",""stimuli/WF06_HE.jpg"",""stimuli/HM10_AO.jpg"",""stimuli/WM11_CC.jpg""]","stimuli/BM04_FO.jpg","stimuli/WF06_HE.jpg","stimuli/HM10_AO.jpg","stimuli/WM11_CC.jpg","pos3","stimuli/HM10_AO.jpg","AO","HM10","2","3.5","7","6","stimuli/stars_7.png","137.5","[""FO"",""HE"",""AO"",""CC""]","[""BM04"",""WF06"",""HM10"",""WM11""]","[1,6,7,8]","[2,4,6,8]","","",""
"show-reward","112","323860","0.0-112.0","p777668","A1DC5O5XEIMM1M","3WRBLBQ2GSENM5LEFQY1C5PG0GV0GC","3U4J9857OGH80JBHA5WXFT3VBS2B7O","model","mismatch","uniform","","","","","","","","327659.39999961853","329673.5","","","","","","","","","","","","7","","stimuli/stars_7.png","137.5","","","","","stimuli/HM10_AO.jpg","",""
"explore-choice","113","327436","0.0-113.0","p777668","A1DC5O5XEIMM1M","3WRBLBQ2GSENM5LEFQY1C5PG0GV0GC","3U4J9857OGH80JBHA5WXFT3VBS2B7O","model","mismatch","uniform","","","","","","","3066","329675.69999980927","332741.69999980927","[""stimuli/WM11_FO.jpg"",""stimuli/WF06_CC.jpg"",""stimuli/BM04_AO.jpg"",""stimuli/HM10_HE.jpg""]","stimuli/WM11_FO.jpg","stimuli/WF06_CC.jpg","stimuli/BM04_AO.jpg","stimuli/HM10_HE.jpg","pos4","stimuli/HM10_HE.jpg","HE","HM10","3","1.5","3","4","stimuli/stars_3.png","139","[""FO"",""CC"",""AO"",""HE""]","[""WM11"",""WF06"",""BM04"",""HM10""]","[4,8,5,3]","[2,8,6,4]","","",""
"show-reward","114","329440","0.0-114.0","p777668","A1DC5O5XEIMM1M","3WRBLBQ2GSENM5LEFQY1C5PG0GV0GC","3U4J9857OGH80JBHA5WXFT3VBS2B7O","model","mismatch","uniform","","","","","","","","333251.60000038147","335254","","","","","","","","","","","","3","","stimuli/stars_3.png","139","","","","","stimuli/HM10_HE.jpg","",""
"explore-choice","115","331182","0.0-115.0","p777668","A1DC5O5XEIMM1M","3WRBLBQ2GSENM5LEFQY1C5PG0GV0GC","3U4J9857OGH80JBHA5WXFT3VBS2B7O","model","mismatch","uniform","","","","","","","1227.5","335255.80000019073","336483.30000019073","[""stimuli/WF06_FO.jpg"",""stimuli/HM10_HE.jpg"",""stimuli/BM04_AO.jpg"",""stimuli/WM11_CC.jpg""]","stimuli/WF06_FO.jpg","stimuli/HM10_HE.jpg","stimuli/BM04_AO.jpg","stimuli/WM11_CC.jpg","pos2","stimuli/HM10_HE.jpg","HE","HM10","1","1.5","3","4","stimuli/stars_3.png","140.5","[""FO"",""HE"",""AO"",""CC""]","[""WF06"",""HM10"",""BM04"",""WM11""]","[4,3,8,6]","[2,4,6,8]","","",""
"show-reward","116","333242","0.0-116.0","p777668","A1DC5O5XEIMM1M","3WRBLBQ2GSENM5LEFQY1C5PG0GV0GC","3U4J9857OGH80JBHA5WXFT3VBS2B7O","model","mismatch","uniform","","","","","","","","336997.60000038147","339056.10000038147","","","","","","","","","","","","3","","stimuli/stars_3.png","140.5","","","","","stimuli/HM10_HE.jpg","",""
"explore-choice","117","334983","0.0-117.0","p777668","A1DC5O5XEIMM1M","3WRBLBQ2GSENM5LEFQY1C5PG0GV0GC","3U4J9857OGH80JBHA5WXFT3VBS2B7O","model","mismatch","uniform","","","","","","","1154.3000001907349","339057.80000019073","340212.10000038147","[""stimuli/BM04_FO.jpg"",""stimuli/WM11_AO.jpg"",""stimuli/WF06_CC.jpg"",""stimuli/HM10_HE.jpg""]","stimuli/BM04_FO.jpg","stimuli/WM11_AO.jpg","stimuli/WF06_CC.jpg","stimuli/HM10_HE.jpg","pos3","stimuli/WF06_CC.jpg","CC","WF06","2","5","10","8","stimuli/stars_10.png","145.5","[""FO"",""AO"",""CC"",""HE""]","[""BM04"",""WM11"",""WF06"",""HM10""]","[2,8,10,4]","[2,6,8,4]","","",""
"show-reward","118","336992","0.0-118.0","p777668","A1DC5O5XEIMM1M","3WRBLBQ2GSENM5LEFQY1C5PG0GV0GC","3U4J9857OGH80JBHA5WXFT3VBS2B7O","model","mismatch","uniform","","","","","","","","340798","342806.30000019073","","","","","","","","","","","","10","","stimuli/stars_10.png","145.5","","","","","stimuli/WF06_CC.jpg","",""
"explore-choice","119","339997","0.0-119.0","p777668","A1DC5O5XEIMM1M","3WRBLBQ2GSENM5LEFQY1C5PG0GV0GC","3U4J9857OGH80JBHA5WXFT3VBS2B7O","model","mismatch","uniform","","","","","","","2501.8999996185303","342808","345309.89999961853","[""stimuli/WF06_CC.jpg"",""stimuli/BM04_FO.jpg"",""stimuli/HM10_AO.jpg"",""stimuli/WM11_HE.jpg""]","stimuli/WF06_CC.jpg","stimuli/BM04_FO.jpg","stimuli/HM10_AO.jpg","stimuli/WM11_HE.jpg","pos2","stimuli/BM04_FO.jpg","FO","BM04","1","1.5","3","2","stimuli/stars_3.png","147","[""CC"",""FO"",""AO"",""HE""]","[""WF06"",""BM04"",""HM10"",""WM11""]","[10,3,7,5]","[8,2,6,4]","","",""
"show-reward","120","342011","0.0-120.0","p777668","A1DC5O5XEIMM1M","3WRBLBQ2GSENM5LEFQY1C5PG0GV0GC","3U4J9857OGH80JBHA5WXFT3VBS2B7O","model","mismatch","uniform","","","","","","","","345812.89999961853","347824.10000038147","","","","","","","","","","","","3","","stimuli/stars_3.png","147","","","","","stimuli/BM04_FO.jpg","",""
"explore-choice","121","343904","0.0-121.0","p777668","A1DC5O5XEIMM1M","3WRBLBQ2GSENM5LEFQY1C5PG0GV0GC","3U4J9857OGH80JBHA5WXFT3VBS2B7O","model","mismatch","uniform","","","","","","","1376.6999998092651","347826.80000019073","349203.5","[""stimuli/BM04_AO.jpg"",""stimuli/HM10_CC.jpg"",""stimuli/WM11_FO.jpg"",""stimuli/WF06_HE.jpg""]","stimuli/BM04_AO.jpg","stimuli/HM10_CC.jpg","stimuli/WM11_FO.jpg","stimuli/WF06_HE.jpg","pos4","stimuli/WF06_HE.jpg","HE","WF06","3","2","4","4","stimuli/stars_4.png","149","[""AO"",""CC"",""FO"",""HE""]","[""BM04"",""HM10"",""WM11"",""WF06""]","[8,7,3,4]","[6,8,2,4]","","",""
"show-reward","122","345910","0.0-122.0","p777668","A1DC5O5XEIMM1M","3WRBLBQ2GSENM5LEFQY1C5PG0GV0GC","3U4J9857OGH80JBHA5WXFT3VBS2B7O","model","mismatch","uniform","","","","","","","","349720","351723.89999961853","","","","","","","","","","","","4","","stimuli/stars_4.png","149","","","","","stimuli/WF06_HE.jpg","",""
"explore-choice","123","348087","0.0-123.0","p777668","A1DC5O5XEIMM1M","3WRBLBQ2GSENM5LEFQY1C5PG0GV0GC","3U4J9857OGH80JBHA5WXFT3VBS2B7O","model","mismatch","uniform","","","","","","","1662.5999994277954","351725.80000019073","353388.39999961853","[""stimuli/WF06_AO.jpg"",""stimuli/BM04_HE.jpg"",""stimuli/WM11_CC.jpg"",""stimuli/HM10_FO.jpg""]","stimuli/WF06_AO.jpg","stimuli/BM04_HE.jpg","stimuli/WM11_CC.jpg","stimuli/HM10_FO.jpg","pos1","stimuli/WF06_AO.jpg","AO","WF06","0","3","6","6","stimuli/stars_6.png","152","[""AO"",""HE"",""CC"",""FO""]","[""WF06"",""BM04"",""WM11"",""HM10""]","[6,2,6,4]","[6,4,8,2]","","",""
"show-reward","124","350092","0.0-124.0","p777668","A1DC5O5XEIMM1M","3WRBLBQ2GSENM5LEFQY1C5PG0GV0GC","3U4J9857OGH80JBHA5WXFT3VBS2B7O","model","mismatch","uniform","","","","","","","","353902.60000038147","355905.89999961853","","","","","","","","","","","","6","","stimuli/stars_6.png","152","","","","","stimuli/WF06_AO.jpg","",""
"explore-choice","125","352398","0.0-125.0","p777668","A1DC5O5XEIMM1M","3WRBLBQ2GSENM5LEFQY1C5PG0GV0GC","3U4J9857OGH80JBHA5WXFT3VBS2B7O","model","mismatch","uniform","","","","","","","1793.8000001907349","355906.80000019073","357700.60000038147","[""stimuli/WM11_AO.jpg"",""stimuli/BM04_CC.jpg"",""stimuli/WF06_HE.jpg"",""stimuli/HM10_FO.jpg""]","stimuli/WM11_AO.jpg","stimuli/BM04_CC.jpg","stimuli/WF06_HE.jpg","stimuli/HM10_FO.jpg","pos2","stimuli/BM04_CC.jpg","CC","BM04","1","4","8","8","stimuli/stars_8.png","156","[""AO"",""CC"",""HE"",""FO""]","[""WM11"",""BM04"",""WF06"",""HM10""]","[8,8,4,4]","[6,8,4,2]","","",""
"show-reward","126","354403","0.0-126.0","p777668","A1DC5O5XEIMM1M","3WRBLBQ2GSENM5LEFQY1C5PG0GV0GC","3U4J9857OGH80JBHA5WXFT3VBS2B7O","model","mismatch","uniform","","","","","","","","358213.80000019073","360217","","","","","","","","","","","","8","","stimuli/stars_8.png","156","","","","","stimuli/BM04_CC.jpg","",""
"explore-choice","127","356654","0.0-127.0","p777668","A1DC5O5XEIMM1M","3WRBLBQ2GSENM5LEFQY1C5PG0GV0GC","3U4J9857OGH80JBHA5WXFT3VBS2B7O","model","mismatch","uniform","","","","","","","1745.6999998092651","360219.19999980927","361964.89999961853","[""stimuli/BM04_FO.jpg"",""stimuli/WM11_HE.jpg"",""stimuli/HM10_CC.jpg"",""stimuli/WF06_AO.jpg""]","stimuli/BM04_FO.jpg","stimuli/WM11_HE.jpg","stimuli/HM10_CC.jpg","stimuli/WF06_AO.jpg","pos4","stimuli/WF06_AO.jpg","AO","WF06","3","2.5","5","6","stimuli/stars_5.png","158.5","[""FO"",""HE"",""CC"",""AO""]","[""BM04"",""WM11"",""HM10"",""WF06""]","[2,5,7,5]","[2,4,8,6]","","",""
"show-reward","128","358669","0.0-128.0","p777668","A1DC5O5XEIMM1M","3WRBLBQ2GSENM5LEFQY1C5PG0GV0GC","3U4J9857OGH80JBHA5WXFT3VBS2B7O","model","mismatch","uniform","","","","","","","","362468.60000038147","364480.60000038147","","","","","","","","","","","","5","","stimuli/stars_5.png","158.5","","","","","stimuli/WF06_AO.jpg","",""
"explore-choice","129","360906","0.0-129.0","p777668","A1DC5O5XEIMM1M","3WRBLBQ2GSENM5LEFQY1C5PG0GV0GC","3U4J9857OGH80JBHA5WXFT3VBS2B7O","model","mismatch","uniform","","","","","","","1721.2000007629395","364483.39999961853","366204.60000038147","[""stimuli/WM11_HE.jpg"",""stimuli/HM10_CC.jpg"",""stimuli/WF06_FO.jpg"",""stimuli/BM04_AO.jpg""]","stimuli/WM11_HE.jpg","stimuli/HM10_CC.jpg","stimuli/WF06_FO.jpg","stimuli/BM04_AO.jpg","pos3","stimuli/WF06_FO.jpg","FO","WF06","2","0.5","1","2","stimuli/stars_1.png","159","[""HE"",""CC"",""FO"",""AO""]","[""WM11"",""HM10"",""WF06"",""BM04""]","[3,7,1,4]","[4,8,2,6]","","",""
"show-reward","130","362912","0.0-130.0","p777668","A1DC5O5XEIMM1M","3WRBLBQ2GSENM5LEFQY1C5PG0GV0GC","3U4J9857OGH80JBHA5WXFT3VBS2B7O","model","mismatch","uniform","","","","","","","","366720.39999961853","368724","","","","","","","","","","","","1","","stimuli/stars_1.png","159","","","","","stimuli/WF06_FO.jpg","",""
"explore-choice","131","366115","0.0-131.0","p777668","A1DC5O5XEIMM1M","3WRBLBQ2GSENM5LEFQY1C5PG0GV0GC","3U4J9857OGH80JBHA5WXFT3VBS2B7O","model","mismatch","uniform","","","","","","","2691","368726.60000038147","371417.60000038147","[""stimuli/BM04_CC.jpg"",""stimuli/HM10_AO.jpg"",""stimuli/WF06_HE.jpg"",""stimuli/WM11_FO.jpg""]","stimuli/BM04_CC.jpg","stimuli/HM10_AO.jpg","stimuli/WF06_HE.jpg","stimuli/WM11_FO.jpg","pos1","stimuli/BM04_CC.jpg","CC","BM04","0","4.5","9","8","stimuli/stars_9.png","163.5","[""CC"",""AO"",""HE"",""FO""]","[""BM04"",""HM10"",""WF06"",""WM11""]","[9,4,6,1]","[8,6,4,2]","","",""
"show-reward","132","368118","0.0-132.0","p777668","A1DC5O5XEIMM1M","3WRBLBQ2GSENM5LEFQY1C5PG0GV0GC","3U4J9857OGH80JBHA5WXFT3VBS2B7O","model","mismatch","uniform","","","","","","","","371928.89999961853","373930.89999961853","","","","","","","","","","","","9","","stimuli/stars_9.png","163.5","","","","","stimuli/BM04_CC.jpg","",""
"explore-choice","133","371697","0.0-133.0","p777668","A1DC5O5XEIMM1M","3WRBLBQ2GSENM5LEFQY1C5PG0GV0GC","3U4J9857OGH80JBHA5WXFT3VBS2B7O","model","mismatch","uniform","","","","","","","3067.800000190735","373931.80000019073","376999.60000038147","[""stimuli/BM04_HE.jpg"",""stimuli/WF06_CC.jpg"",""stimuli/WM11_FO.jpg"",""stimuli/HM10_AO.jpg""]","stimuli/BM04_HE.jpg","stimuli/WF06_CC.jpg","stimuli/WM11_FO.jpg","stimuli/HM10_AO.jpg","pos2","stimuli/WF06_CC.jpg","CC","WF06","1","4","8","8","stimuli/stars_8.png","167.5","[""HE"",""CC"",""FO"",""AO""]","[""BM04"",""WF06"",""WM11"",""HM10""]","[4,8,1,6]","[4,8,2,6]","","",""
"show-reward","134","373702","0.0-134.0","p777668","A1DC5O5XEIMM1M","3WRBLBQ2GSENM5LEFQY1C5PG0GV0GC","3U4J9857OGH80JBHA5WXFT3VBS2B7O","model","mismatch","uniform","","","","","","","","377511.19999980927","379513.80000019073","","","","","","","","","","","","8","","stimuli/stars_8.png","167.5","","","","","stimuli/WF06_CC.jpg","",""
"explore-choice","135","375536","0.0-135.0","p777668","A1DC5O5XEIMM1M","3WRBLBQ2GSENM5LEFQY1C5PG0GV0GC","3U4J9857OGH80JBHA5WXFT3VBS2B7O","model","mismatch","uniform","","","","","","","1320.8999996185303","379516.10000038147","380837","[""stimuli/WF06_AO.jpg"",""stimuli/WM11_FO.jpg"",""stimuli/BM04_CC.jpg"",""stimuli/HM10_HE.jpg""]","stimuli/WF06_AO.jpg","stimuli/WM11_FO.jpg","stimuli/BM04_CC.jpg","stimuli/HM10_HE.jpg","pos3","stimuli/BM04_CC.jpg","CC","BM04","2","3.5","7","8","stimuli/stars_7.png","171","[""AO"",""FO"",""CC"",""HE""]","[""WF06"",""WM11"",""BM04"",""HM10""]","[7,0,7,4]","[6,2,8,4]","","",""
"show-reward","136","377546","0.0-136.0","p777668","A1DC5O5XEIMM1M","3WRBLBQ2GSENM5LEFQY1C5PG0GV0GC","3U4J9857OGH80JBHA5WXFT3VBS2B7O","model","mismatch","uniform","","","","","","","","381350.39999961853","383358.89999961853","","","","","","","","","","","","7","","stimuli/stars_7.png","171","","","","","stimuli/BM04_CC.jpg","",""
"explore-choice","137","381916","0.0-137.0","p777668","A1DC5O5XEIMM1M","3WRBLBQ2GSENM5LEFQY1C5PG0GV0GC","3U4J9857OGH80JBHA5WXFT3VBS2B7O","model","mismatch","uniform","","","","","","","3861.1000003814697","383360.19999980927","387221.30000019073","[""stimuli/BM04_HE.jpg"",""stimuli/HM10_CC.jpg"",""stimuli/WF06_AO.jpg"",""stimuli/WM11_FO.jpg""]","stimuli/BM04_HE.jpg","stimuli/HM10_CC.jpg","stimuli/WF06_AO.jpg","stimuli/WM11_FO.jpg","pos4","stimuli/WM11_FO.jpg","FO","WM11","3","2","4","2","stimuli/stars_4.png","173","[""HE"",""CC"",""AO"",""FO""]","[""BM04"",""HM10"",""WF06"",""WM11""]","[2,6,6,4]","[4,8,6,2]","","",""
"show-reward","138","383965","0.0-138.0","p777668","A1DC5O5XEIMM1M","3WRBLBQ2GSENM5LEFQY1C5PG0GV0GC","3U4J9857OGH80JBHA5WXFT3VBS2B7O","model","mismatch","uniform","","","","","","","","387730.10000038147","389776.89999961853","","","","","","","","","","","","4","","stimuli/stars_4.png","173","","","","","stimuli/WM11_FO.jpg","",""
"explore-choice","139","388949","0.0-139.0","p777668","A1DC5O5XEIMM1M","3WRBLBQ2GSENM5LEFQY1C5PG0GV0GC","3U4J9857OGH80JBHA5WXFT3VBS2B7O","model","mismatch","uniform","","","","","","","4479.800000190735","389779.5","394259.30000019073","[""stimuli/WM11_CC.jpg"",""stimuli/HM10_FO.jpg"",""stimuli/WF06_HE.jpg"",""stimuli/BM04_AO.jpg""]","stimuli/WM11_CC.jpg","stimuli/HM10_FO.jpg","stimuli/WF06_HE.jpg","stimuli/BM04_AO.jpg","pos2","stimuli/HM10_FO.jpg","FO","HM10","1","1","2","2","stimuli/stars_2.png","174","[""CC"",""FO"",""HE"",""AO""]","[""WM11"",""HM10"",""WF06"",""BM04""]","[8,2,4,6]","[8,2,4,6]","","",""
"show-reward","140","390957","0.0-140.0","p777668","A1DC5O5XEIMM1M","3WRBLBQ2GSENM5LEFQY1C5PG0GV0GC","3U4J9857OGH80JBHA5WXFT3VBS2B7O","model","mismatch","uniform","","","","","","","","394763.60000038147","396768.39999961853","","","","","","","","","","","","2","","stimuli/stars_2.png","174","","","","","stimuli/HM10_FO.jpg","",""
"explore-choice","141","393171","0.0-141.0","p777668","A1DC5O5XEIMM1M","3WRBLBQ2GSENM5LEFQY1C5PG0GV0GC","3U4J9857OGH80JBHA5WXFT3VBS2B7O","model","mismatch","uniform","","","","","","","1697.0999994277954","396783.30000019073","398480.39999961853","[""stimuli/WM11_AO.jpg"",""stimuli/WF06_FO.jpg"",""stimuli/BM04_CC.jpg"",""stimuli/HM10_HE.jpg""]","stimuli/WM11_AO.jpg","stimuli/WF06_FO.jpg","stimuli/BM04_CC.jpg","stimuli/HM10_HE.jpg","pos3","stimuli/BM04_CC.jpg","CC","BM04","2","5","10","8","stimuli/stars_10.png","179","[""AO"",""FO"",""CC"",""HE""]","[""WM11"",""WF06"",""BM04"",""HM10""]","[7,2,10,5]","[6,2,8,4]","","",""
"show-reward","142","395177","0.0-142.0","p777668","A1DC5O5XEIMM1M","3WRBLBQ2GSENM5LEFQY1C5PG0GV0GC","3U4J9857OGH80JBHA5WXFT3VBS2B7O","model","mismatch","uniform","","","","","","","","398985.19999980927","400989.80000019073","","","","","","","","","","","","10","","stimuli/stars_10.png","179","","","","","stimuli/BM04_CC.jpg","",""
"explore-choice","143","402901","0.0-143.0","p777668","A1DC5O5XEIMM1M","3WRBLBQ2GSENM5LEFQY1C5PG0GV0GC","3U4J9857OGH80JBHA5WXFT3VBS2B7O","model","mismatch","uniform","","","","","","","7212.10000038147","400991.89999961853","408204","[""stimuli/BM04_CC.jpg"",""stimuli/WM11_HE.jpg"",""stimuli/WF06_FO.jpg"",""stimuli/HM10_AO.jpg""]","stimuli/BM04_CC.jpg","stimuli/WM11_HE.jpg","stimuli/WF06_FO.jpg","stimuli/HM10_AO.jpg","pos4","stimuli/HM10_AO.jpg","AO","HM10","3","2.5","5","6","stimuli/stars_5.png","181.5","[""CC"",""HE"",""FO"",""AO""]","[""BM04"",""WM11"",""WF06"",""HM10""]","[8,5,1,5]","[8,4,2,6]","","",""
"show-reward","144","404930","0.0-144.0","p777668","A1DC5O5XEIMM1M","3WRBLBQ2GSENM5LEFQY1C5PG0GV0GC","3U4J9857OGH80JBHA5WXFT3VBS2B7O","model","mismatch","uniform","","","","","","","","408714.80000019073","410741.80000019073","","","","","","","","","","","","5","","stimuli/stars_5.png","181.5","","","","","stimuli/HM10_AO.jpg","",""
"explore-choice","145","410045","0.0-145.0","p777668","A1DC5O5XEIMM1M","3WRBLBQ2GSENM5LEFQY1C5PG0GV0GC","3U4J9857OGH80JBHA5WXFT3VBS2B7O","model","mismatch","uniform","","","","","","","4605","410743.80000019073","415348.80000019073","[""stimuli/BM04_FO.jpg"",""stimuli/WM11_AO.jpg"",""stimuli/WF06_HE.jpg"",""stimuli/HM10_CC.jpg""]","stimuli/BM04_FO.jpg","stimuli/WM11_AO.jpg","stimuli/WF06_HE.jpg","stimuli/HM10_CC.jpg","pos2","stimuli/WM11_AO.jpg","AO","WM11","1","4","8","6","stimuli/stars_8.png","185.5","[""FO"",""AO"",""HE"",""CC""]","[""BM04"",""WM11"",""WF06"",""HM10""]","[0,8,6,9]","[2,6,4,8]","","",""
"show-reward","146","412058","0.0-146.0","p777668","A1DC5O5XEIMM1M","3WRBLBQ2GSENM5LEFQY1C5PG0GV0GC","3U4J9857OGH80JBHA5WXFT3VBS2B7O","model","mismatch","uniform","","","","","","","","415860.10000038147","417869.60000038147","","","","","","","","","","","","8","","stimuli/stars_8.png","185.5","","","","","stimuli/WM11_AO.jpg","",""
"explore-choice","147","418218","0.0-147.0","p777668","A1DC5O5XEIMM1M","3WRBLBQ2GSENM5LEFQY1C5PG0GV0GC","3U4J9857OGH80JBHA5WXFT3VBS2B7O","model","mismatch","uniform","","","","","","","5651.300000190735","417876.30000019073","423527.60000038147","[""stimuli/BM04_CC.jpg"",""stimuli/WF06_AO.jpg"",""stimuli/WM11_HE.jpg"",""stimuli/HM10_FO.jpg""]","stimuli/BM04_CC.jpg","stimuli/WF06_AO.jpg","stimuli/WM11_HE.jpg","stimuli/HM10_FO.jpg","pos4","stimuli/HM10_FO.jpg","FO","HM10","3","0","0","2","stimuli/stars_0.png","185.5","[""CC"",""AO"",""HE"",""FO""]","[""BM04"",""WF06"",""WM11"",""HM10""]","[8,8,6,0]","[8,6,4,2]","","",""
"show-reward","148","420230","0.0-148.0","p777668","A1DC5O5XEIMM1M","3WRBLBQ2GSENM5LEFQY1C5PG0GV0GC","3U4J9857OGH80JBHA5WXFT3VBS2B7O","model","mismatch","uniform","","","","","","","","424031.10000038147","426039.5","","","","","","","","","","","","0","","stimuli/stars_0.png","185.5","","","","","stimuli/HM10_FO.jpg","",""
"explore-choice","149","423768","0.0-149.0","p777668","A1DC5O5XEIMM1M","3WRBLBQ2GSENM5LEFQY1C5PG0GV0GC","3U4J9857OGH80JBHA5WXFT3VBS2B7O","model","mismatch","uniform","","","","","","","3032.3999996185303","426042.80000019073","429075.19999980927","[""stimuli/WF06_CC.jpg"",""stimuli/HM10_FO.jpg"",""stimuli/BM04_AO.jpg"",""stimuli/WM11_HE.jpg""]","stimuli/WF06_CC.jpg","stimuli/HM10_FO.jpg","stimuli/BM04_AO.jpg","stimuli/WM11_HE.jpg","pos2","stimuli/HM10_FO.jpg","FO","HM10","1","1","2","2","stimuli/stars_2.png","186.5","[""CC"",""FO"",""AO"",""HE""]","[""WF06"",""HM10"",""BM04"",""WM11""]","[10,2,8,3]","[8,2,6,4]","","",""
"show-reward","150","425784","0.0-150.0","p777668","A1DC5O5XEIMM1M","3WRBLBQ2GSENM5LEFQY1C5PG0GV0GC","3U4J9857OGH80JBHA5WXFT3VBS2B7O","model","mismatch","uniform","","","","","","","","429580.19999980927","431594.89999961853","","","","","","","","","","","","2","","stimuli/stars_2.png","186.5","","","","","stimuli/HM10_FO.jpg","",""
"explore-choice","151","429394","0.0-151.0","p777668","A1DC5O5XEIMM1M","3WRBLBQ2GSENM5LEFQY1C5PG0GV0GC","3U4J9857OGH80JBHA5WXFT3VBS2B7O","model","mismatch","uniform","","","","","","","3105.300000190735","431596.5","434701.80000019073","[""stimuli/WF06_CC.jpg"",""stimuli/HM10_AO.jpg"",""stimuli/WM11_HE.jpg"",""stimuli/BM04_FO.jpg""]","stimuli/WF06_CC.jpg","stimuli/HM10_AO.jpg","stimuli/WM11_HE.jpg","stimuli/BM04_FO.jpg","pos3","stimuli/WM11_HE.jpg","HE","WM11","2","2.5","5","4","stimuli/stars_5.png","189","[""CC"",""AO"",""HE"",""FO""]","[""WF06"",""HM10"",""WM11"",""BM04""]","[10,7,5,3]","[8,6,4,2]","","",""
"show-reward","152","431418","0.0-152.0","p777668","A1DC5O5XEIMM1M","3WRBLBQ2GSENM5LEFQY1C5PG0GV0GC","3U4J9857OGH80JBHA5WXFT3VBS2B7O","model","mismatch","uniform","","","","","","","","435206.69999980927","437229","","","","","","","","","","","","5","","stimuli/stars_5.png","189","","","","","stimuli/WM11_HE.jpg","",""
"explore-choice","153","433640","0.0-153.0","p777668","A1DC5O5XEIMM1M","3WRBLBQ2GSENM5LEFQY1C5PG0GV0GC","3U4J9857OGH80JBHA5WXFT3VBS2B7O","model","mismatch","uniform","","","","","","","1710.7000007629395","437230.39999961853","438941.10000038147","[""stimuli/BM04_AO.jpg"",""stimuli/WF06_HE.jpg"",""stimuli/HM10_FO.jpg"",""stimuli/WM11_CC.jpg""]","stimuli/BM04_AO.jpg","stimuli/WF06_HE.jpg","stimuli/HM10_FO.jpg","stimuli/WM11_CC.jpg","pos2","stimuli/WF06_HE.jpg","HE","WF06","1","2","4","4","stimuli/stars_4.png","191","[""AO"",""HE"",""FO"",""CC""]","[""BM04"",""WF06"",""HM10"",""WM11""]","[6,4,2,8]","[6,4,2,8]","","",""
"show-reward","154","435684","0.0-154.0","p777668","A1DC5O5XEIMM1M","3WRBLBQ2GSENM5LEFQY1C5PG0GV0GC","3U4J9857OGH80JBHA5WXFT3VBS2B7O","model","mismatch","uniform","","","","","","","","439452.39999961853","441494.39999961853","","","","","","","","","","","","4","","stimuli/stars_4.png","191","","","","","stimuli/WF06_HE.jpg","",""
"explore-choice","155","437718","0.0-155.0","p777668","A1DC5O5XEIMM1M","3WRBLBQ2GSENM5LEFQY1C5PG0GV0GC","3U4J9857OGH80JBHA5WXFT3VBS2B7O","model","mismatch","uniform","","","","","","","1517","441497.30000019073","443014.30000019073","[""stimuli/HM10_CC.jpg"",""stimuli/BM04_AO.jpg"",""stimuli/WM11_FO.jpg"",""stimuli/WF06_HE.jpg""]","stimuli/HM10_CC.jpg","stimuli/BM04_AO.jpg","stimuli/WM11_FO.jpg","stimuli/WF06_HE.jpg","pos4","stimuli/WF06_HE.jpg","HE","WF06","3","2","4","4","stimuli/stars_4.png","193","[""CC"",""AO"",""FO"",""HE""]","[""HM10"",""BM04"",""WM11"",""WF06""]","[7,8,3,4]","[8,6,2,4]","","",""
"show-reward","156","439741","0.0-156.0","p777668","A1DC5O5XEIMM1M","3WRBLBQ2GSENM5LEFQY1C5PG0GV0GC","3U4J9857OGH80JBHA5WXFT3VBS2B7O","model","mismatch","uniform","","","","","","","","443530.10000038147","445551.5","","","","","","","","","","","","4","","stimuli/stars_4.png","193","","","","","stimuli/WF06_HE.jpg","",""
"explore-choice","157","441586","0.0-157.0","p777668","A1DC5O5XEIMM1M","3WRBLBQ2GSENM5LEFQY1C5PG0GV0GC","3U4J9857OGH80JBHA5WXFT3VBS2B7O","model","mismatch","uniform","","","","","","","1327.1000003814697","445553.89999961853","446881","[""stimuli/WM11_AO.jpg"",""stimuli/HM10_HE.jpg"",""stimuli/WF06_CC.jpg"",""stimuli/BM04_FO.jpg""]","stimuli/WM11_AO.jpg","stimuli/HM10_HE.jpg","stimuli/WF06_CC.jpg","stimuli/BM04_FO.jpg","pos2","stimuli/HM10_HE.jpg","HE","HM10","1","2","4","4","stimuli/stars_4.png","195","[""AO"",""HE"",""CC"",""FO""]","[""WM11"",""HM10"",""WF06"",""BM04""]","[8,4,10,2]","[6,4,8,2]","","",""
"show-reward","158","443599","0.0-158.0","p777668","A1DC5O5XEIMM1M","3WRBLBQ2GSENM5LEFQY1C5PG0GV0GC","3U4J9857OGH80JBHA5WXFT3VBS2B7O","model","mismatch","uniform","","","","","","","","447398.80000019073","449409.89999961853","","","","","","","","","","","","4","","stimuli/stars_4.png","195","","","","","stimuli/HM10_HE.jpg","",""
"explore-choice","159","446567","0.0-159.0","p777668","A1DC5O5XEIMM1M","3WRBLBQ2GSENM5LEFQY1C5PG0GV0GC","3U4J9857OGH80JBHA5WXFT3VBS2B7O","model","mismatch","uniform","","","","","","","2456","449411.80000019073","451867.80000019073","[""stimuli/BM04_AO.jpg"",""stimuli/WF06_FO.jpg"",""stimuli/WM11_CC.jpg"",""stimuli/HM10_HE.jpg""]","stimuli/BM04_AO.jpg","stimuli/WF06_FO.jpg","stimuli/WM11_CC.jpg","stimuli/HM10_HE.jpg","pos3","stimuli/WM11_CC.jpg","CC","WM11","2","3","6","8","stimuli/stars_6.png","198","[""AO"",""FO"",""CC"",""HE""]","[""BM04"",""WF06"",""WM11"",""HM10""]","[8,4,6,3]","[6,2,8,4]","","",""
"show-reward","160","448581","0.0-160.0","p777668","A1DC5O5XEIMM1M","3WRBLBQ2GSENM5LEFQY1C5PG0GV0GC","3U4J9857OGH80JBHA5WXFT3VBS2B7O","model","mismatch","uniform","","","","","","","","452379.60000038147","454391","","","","","","","","","","","","6","","stimuli/stars_6.png","198","","","","","stimuli/WM11_CC.jpg","",""
"explore-choice","161","450723","0.0-161.0","p777668","A1DC5O5XEIMM1M","3WRBLBQ2GSENM5LEFQY1C5PG0GV0GC","3U4J9857OGH80JBHA5WXFT3VBS2B7O","model","mismatch","uniform","","","","","","","1636","454393.19999980927","456029.19999980927","[""stimuli/WF06_FO.jpg"",""stimuli/HM10_HE.jpg"",""stimuli/BM04_CC.jpg"",""stimuli/WM11_AO.jpg""]","stimuli/WF06_FO.jpg","stimuli/HM10_HE.jpg","stimuli/BM04_CC.jpg","stimuli/WM11_AO.jpg","pos2","stimuli/HM10_HE.jpg","HE","HM10","1","2.5","5","4","stimuli/stars_5.png","200.5","[""FO"",""HE"",""CC"",""AO""]","[""WF06"",""HM10"",""BM04"",""WM11""]","[2,5,10,7]","[2,4,8,6]","","",""
"show-reward","162","452740","0.0-162.0","p777668","A1DC5O5XEIMM1M","3WRBLBQ2GSENM5LEFQY1C5PG0GV0GC","3U4J9857OGH80JBHA5WXFT3VBS2B7O","model","mismatch","uniform","","","","","","","","456535.80000019073","458549.80000019073","","","","","","","","","","","","5","","stimuli/stars_5.png","200.5","","","","","stimuli/HM10_HE.jpg","",""
"explore-choice","163","454334","0.0-163.0","p777668","A1DC5O5XEIMM1M","3WRBLBQ2GSENM5LEFQY1C5PG0GV0GC","3U4J9857OGH80JBHA5WXFT3VBS2B7O","model","mismatch","uniform","","","","","","","1085.0999994277954","458552.30000019073","459637.39999961853","[""stimuli/WM11_HE.jpg"",""stimuli/HM10_CC.jpg"",""stimuli/WF06_FO.jpg"",""stimuli/BM04_AO.jpg""]","stimuli/WM11_HE.jpg","stimuli/HM10_CC.jpg","stimuli/WF06_FO.jpg","stimuli/BM04_AO.jpg","pos3","stimuli/WF06_FO.jpg","FO","WF06","2","0.5","1","2","stimuli/stars_1.png","201","[""HE"",""CC"",""FO"",""AO""]","[""WM11"",""HM10"",""WF06"",""BM04""]","[3,7,1,4]","[4,8,2,6]","","",""
"show-reward","164","456353","0.0-164.0","p777668","A1DC5O5XEIMM1M","3WRBLBQ2GSENM5LEFQY1C5PG0GV0GC","3U4J9857OGH80JBHA5WXFT3VBS2B7O","model","mismatch","uniform","","","","","","","","460146.60000038147","462163.80000019073","","","","","","","","","","","","1","","stimuli/stars_1.png","201","","","","","stimuli/WF06_FO.jpg","",""
"explore-choice","165","458266","0.0-165.0","p777668","A1DC5O5XEIMM1M","3WRBLBQ2GSENM5LEFQY1C5PG0GV0GC","3U4J9857OGH80JBHA5WXFT3VBS2B7O","model","mismatch","uniform","","","","","","","1402.1000003814697","462166.19999980927","463568.30000019073","[""stimuli/WF06_CC.jpg"",""stimuli/HM10_FO.jpg"",""stimuli/BM04_HE.jpg"",""stimuli/WM11_AO.jpg""]","stimuli/WF06_CC.jpg","stimuli/HM10_FO.jpg","stimuli/BM04_HE.jpg","stimuli/WM11_AO.jpg","pos4","stimuli/WM11_AO.jpg","AO","WM11","3","3.5","7","6","stimuli/stars_7.png","204.5","[""CC"",""FO"",""HE"",""AO""]","[""WF06"",""HM10"",""BM04"",""WM11""]","[8,2,4,7]","[8,2,4,6]","","",""
"show-reward","166","460288","0.0-166.0","p777668","A1DC5O5XEIMM1M","3WRBLBQ2GSENM5LEFQY1C5PG0GV0GC","3U4J9857OGH80JBHA5WXFT3VBS2B7O","model","mismatch","uniform","","","","","","","","464078.69999980927","466097.5","","","","","","","","","","","","7","","stimuli/stars_7.png","204.5","","","","","stimuli/WM11_AO.jpg","",""
"explore-choice","167","462935","0.0-167.0","p777668","A1DC5O5XEIMM1M","3WRBLBQ2GSENM5LEFQY1C5PG0GV0GC","3U4J9857OGH80JBHA5WXFT3VBS2B7O","model","mismatch","uniform","","","","","","","2139.5999994277954","466101.80000019073","468241.39999961853","[""stimuli/WM11_FO.jpg"",""stimuli/HM10_AO.jpg"",""stimuli/WF06_HE.jpg"",""stimuli/BM04_CC.jpg""]","stimuli/WM11_FO.jpg","stimuli/HM10_AO.jpg","stimuli/WF06_HE.jpg","stimuli/BM04_CC.jpg","pos1","stimuli/WM11_FO.jpg","FO","WM11","0","0.5","1","2","stimuli/stars_1.png","205","[""FO"",""AO"",""HE"",""CC""]","[""WM11"",""HM10"",""WF06"",""BM04""]","[1,4,6,9]","[2,6,4,8]","","",""
"show-reward","168","464938","0.0-168.0","p777668","A1DC5O5XEIMM1M","3WRBLBQ2GSENM5LEFQY1C5PG0GV0GC","3U4J9857OGH80JBHA5WXFT3VBS2B7O","model","mismatch","uniform","","","","","","","","468746.89999961853","470749","","","","","","","","","","","","1","","stimuli/stars_1.png","205","","","","","stimuli/WM11_FO.jpg","",""
"explore-choice","169","466529","0.0-169.0","p777668","A1DC5O5XEIMM1M","3WRBLBQ2GSENM5LEFQY1C5PG0GV0GC","3U4J9857OGH80JBHA5WXFT3VBS2B7O","model","mismatch","uniform","","","","","","","1077.3000001907349","470750.39999961853","471827.69999980927","[""stimuli/BM04_AO.jpg"",""stimuli/HM10_HE.jpg"",""stimuli/WM11_FO.jpg"",""stimuli/WF06_CC.jpg""]","stimuli/BM04_AO.jpg","stimuli/HM10_HE.jpg","stimuli/WM11_FO.jpg","stimuli/WF06_CC.jpg","pos2","stimuli/HM10_HE.jpg","HE","HM10","1","1.5","3","4","stimuli/stars_3.png","206.5","[""AO"",""HE"",""FO"",""CC""]","[""BM04"",""HM10"",""WM11"",""WF06""]","[5,3,4,8]","[6,4,2,8]","","",""
"show-reward","170","468533","0.0-170.0","p777668","A1DC5O5XEIMM1M","3WRBLBQ2GSENM5LEFQY1C5PG0GV0GC","3U4J9857OGH80JBHA5WXFT3VBS2B7O","model","mismatch","uniform","","","","","","","","472341.5","474343.80000019073","","","","","","","","","","","","3","","stimuli/stars_3.png","206.5","","","","","stimuli/HM10_HE.jpg","",""
"explore-choice","171","470038","0.0-171.0","p777668","A1DC5O5XEIMM1M","3WRBLBQ2GSENM5LEFQY1C5PG0GV0GC","3U4J9857OGH80JBHA5WXFT3VBS2B7O","model","mismatch","uniform","","","","","","","997","474345.60000038147","475342.60000038147","[""stimuli/BM04_FO.jpg"",""stimuli/HM10_AO.jpg"",""stimuli/WM11_CC.jpg"",""stimuli/WF06_HE.jpg""]","stimuli/BM04_FO.jpg","stimuli/HM10_AO.jpg","stimuli/WM11_CC.jpg","stimuli/WF06_HE.jpg","pos3","stimuli/WM11_CC.jpg","CC","WM11","2","4","8","8","stimuli/stars_8.png","210.5","[""FO"",""AO"",""CC"",""HE""]","[""BM04"",""HM10"",""WM11"",""WF06""]","[1,7,8,6]","[2,6,8,4]","","",""
"show-reward","172","472054","0.0-172.0","p777668","A1DC5O5XEIMM1M","3WRBLBQ2GSENM5LEFQY1C5PG0GV0GC","3U4J9857OGH80JBHA5WXFT3VBS2B7O","model","mismatch","uniform","","","","","","","","475851.30000019073","477864.19999980927","","","","","","","","","","","","8","","stimuli/stars_8.png","210.5","","","","","stimuli/WM11_CC.jpg","",""
"explore-choice","173","473579","0.0-173.0","p777668","A1DC5O5XEIMM1M","3WRBLBQ2GSENM5LEFQY1C5PG0GV0GC","3U4J9857OGH80JBHA5WXFT3VBS2B7O","model","mismatch","uniform","","","","","","","1020.9000005722046","477866.89999961853","478887.80000019073","[""stimuli/HM10_AO.jpg"",""stimuli/WM11_CC.jpg"",""stimuli/WF06_FO.jpg"",""stimuli/BM04_HE.jpg""]","stimuli/HM10_AO.jpg","stimuli/WM11_CC.jpg","stimuli/WF06_FO.jpg","stimuli/BM04_HE.jpg","pos2","stimuli/WM11_CC.jpg","CC","WM11","1","3.5","7","8","stimuli/stars_7.png","214","[""AO"",""CC"",""FO"",""HE""]","[""HM10"",""WM11"",""WF06"",""BM04""]","[7,7,0,2]","[6,8,2,4]","","",""
"show-reward","174","475586","0.0-174.0","p777668","A1DC5O5XEIMM1M","3WRBLBQ2GSENM5LEFQY1C5PG0GV0GC","3U4J9857OGH80JBHA5WXFT3VBS2B7O","model","mismatch","uniform","","","","","","","","479392.10000038147","481397.19999980927","","","","","","","","","","","","7","","stimuli/stars_7.png","214","","","","","stimuli/WM11_CC.jpg","",""
"explore-choice","175","477135","0.0-175.0","p777668","A1DC5O5XEIMM1M","3WRBLBQ2GSENM5LEFQY1C5PG0GV0GC","3U4J9857OGH80JBHA5WXFT3VBS2B7O","model","mismatch","uniform","","","","","","","1022.7999992370605","481399.60000038147","482422.39999961853","[""stimuli/HM10_AO.jpg"",""stimuli/WF06_CC.jpg"",""stimuli/WM11_FO.jpg"",""stimuli/BM04_HE.jpg""]","stimuli/HM10_AO.jpg","stimuli/WF06_CC.jpg","stimuli/WM11_FO.jpg","stimuli/BM04_HE.jpg","pos4","stimuli/BM04_HE.jpg","HE","BM04","3","2","4","4","stimuli/stars_4.png","216","[""AO"",""CC"",""FO"",""HE""]","[""HM10"",""WF06"",""WM11"",""BM04""]","[6,8,1,4]","[6,8,2,4]","","",""
"show-reward","176","479138","0.0-176.0","p777668","A1DC5O5XEIMM1M","3WRBLBQ2GSENM5LEFQY1C5PG0GV0GC","3U4J9857OGH80JBHA5WXFT3VBS2B7O","model","mismatch","uniform","","","","","","","","482945.89999961853","484948.69999980927","","","","","","","","","","","","4","","stimuli/stars_4.png","216","","","","","stimuli/BM04_HE.jpg","",""
"explore-choice","177","480733","0.0-177.0","p777668","A1DC5O5XEIMM1M","3WRBLBQ2GSENM5LEFQY1C5PG0GV0GC","3U4J9857OGH80JBHA5WXFT3VBS2B7O","model","mismatch","uniform","","","","","","","1063","484949.80000019073","486012.80000019073","[""stimuli/HM10_FO.jpg"",""stimuli/BM04_HE.jpg"",""stimuli/WM11_CC.jpg"",""stimuli/WF06_AO.jpg""]","stimuli/HM10_FO.jpg","stimuli/BM04_HE.jpg","stimuli/WM11_CC.jpg","stimuli/WF06_AO.jpg","pos1","stimuli/HM10_FO.jpg","FO","HM10","0","2","4","2","stimuli/stars_4.png","218","[""FO"",""HE"",""CC"",""AO""]","[""HM10"",""BM04"",""WM11"",""WF06""]","[4,2,6,6]","[2,4,8,6]","","",""
"show-reward","178","482740","0.0-178.0","p777668","A1DC5O5XEIMM1M","3WRBLBQ2GSENM5LEFQY1C5PG0GV0GC","3U4J9857OGH80JBHA5WXFT3VBS2B7O","model","mismatch","uniform","","","","","","","","486545","488549.89999961853","","","","","","","","","","","","4","","stimuli/stars_4.png","218","","","","","stimuli/HM10_FO.jpg","",""
"explore-choice","179","484485","0.0-179.0","p777668","A1DC5O5XEIMM1M","3WRBLBQ2GSENM5LEFQY1C5PG0GV0GC","3U4J9857OGH80JBHA5WXFT3VBS2B7O","model","mismatch","uniform","","","","","","","1237.2000007629395","488551.39999961853","489788.60000038147","[""stimuli/WF06_AO.jpg"",""stimuli/WM11_CC.jpg"",""stimuli/HM10_HE.jpg"",""stimuli/BM04_FO.jpg""]","stimuli/WF06_AO.jpg","stimuli/WM11_CC.jpg","stimuli/HM10_HE.jpg","stimuli/BM04_FO.jpg","pos2","stimuli/WM11_CC.jpg","CC","WM11","1","3.5","7","8","stimuli/stars_7.png","221.5","[""AO"",""CC"",""HE"",""FO""]","[""WF06"",""WM11"",""HM10"",""BM04""]","[5,7,2,3]","[6,8,4,2]","","",""
"show-reward","180","486490","0.0-180.0","p777668","A1DC5O5XEIMM1M","3WRBLBQ2GSENM5LEFQY1C5PG0GV0GC","3U4J9857OGH80JBHA5WXFT3VBS2B7O","model","mismatch","uniform","","","","","","","","490297.39999961853","492299.39999961853","","","","","","","","","","","","7","","stimuli/stars_7.png","221.5","","","","","stimuli/WM11_CC.jpg","",""
"explore-choice","181","488026","0.0-181.0","p777668","A1DC5O5XEIMM1M","3WRBLBQ2GSENM5LEFQY1C5PG0GV0GC","3U4J9857OGH80JBHA5WXFT3VBS2B7O","model","mismatch","uniform","","","","","","","1031.8999996185303","492301.5","493333.39999961853","[""stimuli/BM04_CC.jpg"",""stimuli/WF06_AO.jpg"",""stimuli/HM10_FO.jpg"",""stimuli/WM11_HE.jpg""]","stimuli/BM04_CC.jpg","stimuli/WF06_AO.jpg","stimuli/HM10_FO.jpg","stimuli/WM11_HE.jpg","pos4","stimuli/WM11_HE.jpg","HE","WM11","3","3","6","4","stimuli/stars_6.png","224.5","[""CC"",""AO"",""FO"",""HE""]","[""BM04"",""WF06"",""HM10"",""WM11""]","[8,8,0,6]","[8,6,2,4]","","",""
"show-reward","182","490058","0.0-182.0","p777668","A1DC5O5XEIMM1M","3WRBLBQ2GSENM5LEFQY1C5PG0GV0GC","3U4J9857OGH80JBHA5WXFT3VBS2B7O","model","mismatch","uniform","","","","","","","","493855","495866.89999961853","","","","","","","","","","","","6","","stimuli/stars_6.png","224.5","","","","","stimuli/WM11_HE.jpg","",""
"explore-choice","183","491376","0.0-183.0","p777668","A1DC5O5XEIMM1M","3WRBLBQ2GSENM5LEFQY1C5PG0GV0GC","3U4J9857OGH80JBHA5WXFT3VBS2B7O","model","mismatch","uniform","","","","","","","799.9000005722046","495870.19999980927","496670.10000038147","[""stimuli/HM10_FO.jpg"",""stimuli/WF06_CC.jpg"",""stimuli/BM04_AO.jpg"",""stimuli/WM11_HE.jpg""]","stimuli/HM10_FO.jpg","stimuli/WF06_CC.jpg","stimuli/BM04_AO.jpg","stimuli/WM11_HE.jpg","pos1","stimuli/HM10_FO.jpg","FO","HM10","0","1","2","2","stimuli/stars_2.png","225.5","[""FO"",""CC"",""AO"",""HE""]","[""HM10"",""WF06"",""BM04"",""WM11""]","[2,10,8,3]","[2,8,6,4]","","",""
"show-reward","184","493383","0.0-184.0","p777668","A1DC5O5XEIMM1M","3WRBLBQ2GSENM5LEFQY1C5PG0GV0GC","3U4J9857OGH80JBHA5WXFT3VBS2B7O","model","mismatch","uniform","","","","","","","","497189","499193.5","","","","","","","","","","","","2","","stimuli/stars_2.png","225.5","","","","","stimuli/HM10_FO.jpg","",""
"explore-choice","185","495555","0.0-185.0","p777668","A1DC5O5XEIMM1M","3WRBLBQ2GSENM5LEFQY1C5PG0GV0GC","3U4J9857OGH80JBHA5WXFT3VBS2B7O","model","mismatch","uniform","","","","","","","1662.8000001907349","499195.19999980927","500858","[""stimuli/WM11_HE.jpg"",""stimuli/HM10_AO.jpg"",""stimuli/BM04_CC.jpg"",""stimuli/WF06_FO.jpg""]","stimuli/WM11_HE.jpg","stimuli/HM10_AO.jpg","stimuli/BM04_CC.jpg","stimuli/WF06_FO.jpg","pos2","stimuli/HM10_AO.jpg","AO","HM10","1","2.5","5","6","stimuli/stars_5.png","228","[""HE"",""AO"",""CC"",""FO""]","[""WM11"",""HM10"",""BM04"",""WF06""]","[5,5,8,1]","[4,6,8,2]","","",""
"show-reward","186","497579","0.0-186.0","p777668","A1DC5O5XEIMM1M","3WRBLBQ2GSENM5LEFQY1C5PG0GV0GC","3U4J9857OGH80JBHA5WXFT3VBS2B7O","model","mismatch","uniform","","","","","","","","501371.80000019073","503387.89999961853","","","","","","","","","","","","5","","stimuli/stars_5.png","228","","","","","stimuli/HM10_AO.jpg","",""
"explore-choice","187","500523","0.0-187.0","p777668","A1DC5O5XEIMM1M","3WRBLBQ2GSENM5LEFQY1C5PG0GV0GC","3U4J9857OGH80JBHA5WXFT3VBS2B7O","model","mismatch","uniform","","","","","","","2442.300000190735","503390.19999980927","505832.5","[""stimuli/BM04_FO.jpg"",""stimuli/WF06_AO.jpg"",""stimuli/WM11_HE.jpg"",""stimuli/HM10_CC.jpg""]","stimuli/BM04_FO.jpg","stimuli/WF06_AO.jpg","stimuli/WM11_HE.jpg","stimuli/HM10_CC.jpg","pos3","stimuli/WM11_HE.jpg","HE","WM11","2","2.5","5","4","stimuli/stars_5.png","230.5","[""FO"",""AO"",""HE"",""CC""]","[""BM04"",""WF06"",""WM11"",""HM10""]","[2,5,5,7]","[2,6,4,8]","","",""
"show-reward","188","502536","0.0-188.0","p777668","A1DC5O5XEIMM1M","3WRBLBQ2GSENM5LEFQY1C5PG0GV0GC","3U4J9857OGH80JBHA5WXFT3VBS2B7O","model","mismatch","uniform","","","","","","","","506334.60000038147","508345.80000019073","","","","","","","","","","","","5","","stimuli/stars_5.png","230.5","","","","","stimuli/WM11_HE.jpg","",""
"explore-choice","189","505220","0.0-189.0","p777668","A1DC5O5XEIMM1M","3WRBLBQ2GSENM5LEFQY1C5PG0GV0GC","3U4J9857OGH80JBHA5WXFT3VBS2B7O","model","mismatch","uniform","","","","","","","2163.5","508347.39999961853","510510.89999961853","[""stimuli/BM04_CC.jpg"",""stimuli/WF06_HE.jpg"",""stimuli/WM11_AO.jpg"",""stimuli/HM10_FO.jpg""]","stimuli/BM04_CC.jpg","stimuli/WF06_HE.jpg","stimuli/WM11_AO.jpg","stimuli/HM10_FO.jpg","pos4","stimuli/HM10_FO.jpg","FO","HM10","3","2","4","2","stimuli/stars_4.png","232.5","[""CC"",""HE"",""AO"",""FO""]","[""BM04"",""WF06"",""WM11"",""HM10""]","[8,4,8,4]","[8,4,6,2]","","",""
"show-reward","190","507238","0.0-190.0","p777668","A1DC5O5XEIMM1M","3WRBLBQ2GSENM5LEFQY1C5PG0GV0GC","3U4J9857OGH80JBHA5WXFT3VBS2B7O","model","mismatch","uniform","","","","","","","","511031.39999961853","513048.69999980927","","","","","","","","","","","","4","","stimuli/stars_4.png","232.5","","","","","stimuli/HM10_FO.jpg","",""
"explore-choice","191","509496","0.0-191.0","p777668","A1DC5O5XEIMM1M","3WRBLBQ2GSENM5LEFQY1C5PG0GV0GC","3U4J9857OGH80JBHA5WXFT3VBS2B7O","model","mismatch","uniform","","","","","","","1754.1999998092651","513050.19999980927","514804.39999961853","[""stimuli/WF06_AO.jpg"",""stimuli/BM04_CC.jpg"",""stimuli/WM11_FO.jpg"",""stimuli/HM10_HE.jpg""]","stimuli/WF06_AO.jpg","stimuli/BM04_CC.jpg","stimuli/WM11_FO.jpg","stimuli/HM10_HE.jpg","pos2","stimuli/BM04_CC.jpg","CC","BM04","1","3.5","7","8","stimuli/stars_7.png","236","[""AO"",""CC"",""FO"",""HE""]","[""WF06"",""BM04"",""WM11"",""HM10""]","[7,7,0,4]","[6,8,2,4]","","",""
"show-reward","192","511507","0.0-192.0","p777668","A1DC5O5XEIMM1M","3WRBLBQ2GSENM5LEFQY1C5PG0GV0GC","3U4J9857OGH80JBHA5WXFT3VBS2B7O","model","mismatch","uniform","","","","","","","","515308","517317","","","","","","","","","","","","7","","stimuli/stars_7.png","236","","","","","stimuli/BM04_CC.jpg","",""
"explore-choice","193","513763","0.0-193.0","p777668","A1DC5O5XEIMM1M","3WRBLBQ2GSENM5LEFQY1C5PG0GV0GC","3U4J9857OGH80JBHA5WXFT3VBS2B7O","model","mismatch","uniform","","","","","","","1742.9000005722046","517318.89999961853","519061.80000019073","[""stimuli/BM04_HE.jpg"",""stimuli/HM10_CC.jpg"",""stimuli/WM11_FO.jpg"",""stimuli/WF06_AO.jpg""]","stimuli/BM04_HE.jpg","stimuli/HM10_CC.jpg","stimuli/WM11_FO.jpg","stimuli/WF06_AO.jpg","pos3","stimuli/WM11_FO.jpg","FO","WM11","2","2","4","2","stimuli/stars_4.png","238","[""HE"",""CC"",""FO"",""AO""]","[""BM04"",""HM10"",""WM11"",""WF06""]","[2,6,4,6]","[4,8,2,6]","","",""
"show-reward","194","515783","0.0-194.0","p777668","A1DC5O5XEIMM1M","3WRBLBQ2GSENM5LEFQY1C5PG0GV0GC","3U4J9857OGH80JBHA5WXFT3VBS2B7O","model","mismatch","uniform","","","","","","","","519574.5","521591.89999961853","","","","","","","","","","","","4","","stimuli/stars_4.png","238","","","","","stimuli/WM11_FO.jpg","",""
"explore-choice","195","519407","0.0-195.0","p777668","A1DC5O5XEIMM1M","3WRBLBQ2GSENM5LEFQY1C5PG0GV0GC","3U4J9857OGH80JBHA5WXFT3VBS2B7O","model","mismatch","uniform","","","","","","","3095.4000005722046","521595.69999980927","524691.1000003815","[""stimuli/BM04_FO.jpg"",""stimuli/HM10_CC.jpg"",""stimuli/WF06_HE.jpg"",""stimuli/WM11_AO.jpg""]","stimuli/BM04_FO.jpg","stimuli/HM10_CC.jpg","stimuli/WF06_HE.jpg","stimuli/WM11_AO.jpg","pos4","stimuli/WM11_AO.jpg","AO","WM11","3","4","8","6","stimuli/stars_8.png","242","[""FO"",""CC"",""HE"",""AO""]","[""BM04"",""HM10"",""WF06"",""WM11""]","[0,9,6,8]","[2,8,4,6]","","",""
"show-reward","196","521428","0.0-196.0","p777668","A1DC5O5XEIMM1M","3WRBLBQ2GSENM5LEFQY1C5PG0GV0GC","3U4J9857OGH80JBHA5WXFT3VBS2B7O","model","mismatch","uniform","","","","","","","","525219","527237","","","","","","","","","","","","8","","stimuli/stars_8.png","242","","","","","stimuli/WM11_AO.jpg","",""
"explore-choice","197","524063","0.0-197.0","p777668","A1DC5O5XEIMM1M","3WRBLBQ2GSENM5LEFQY1C5PG0GV0GC","3U4J9857OGH80JBHA5WXFT3VBS2B7O","model","mismatch","uniform","","","","","","","2114.300000190735","527240.1999998093","529354.5","[""stimuli/WF06_FO.jpg"",""stimuli/BM04_HE.jpg"",""stimuli/WM11_AO.jpg"",""stimuli/HM10_CC.jpg""]","stimuli/WF06_FO.jpg","stimuli/BM04_HE.jpg","stimuli/WM11_AO.jpg","stimuli/HM10_CC.jpg","pos2","stimuli/BM04_HE.jpg","HE","BM04","1","2","4","4","stimuli/stars_4.png","244","[""FO"",""HE"",""AO"",""CC""]","[""WF06"",""BM04"",""WM11"",""HM10""]","[3,4,8,8]","[2,4,6,8]","","",""
"show-reward","198","526079","0.0-198.0","p777668","A1DC5O5XEIMM1M","3WRBLBQ2GSENM5LEFQY1C5PG0GV0GC","3U4J9857OGH80JBHA5WXFT3VBS2B7O","model","mismatch","uniform","","","","","","","","529874.8999996185","531889.1999998093","","","","","","","","","","","","4","","stimuli/stars_4.png","244","","","","","stimuli/BM04_HE.jpg","",""
"instructions","199","532444","0.0-199.0","p777668","A1DC5O5XEIMM1M","3WRBLBQ2GSENM5LEFQY1C5PG0GV0GC","3U4J9857OGH80JBHA5WXFT3VBS2B7O","model","mismatch","uniform","","","","","","[{""page_index"":0,""viewing_time"":6362.800000190735}]","6364","","","","","","","","","","","","","","","","","","","","","","","",""
"survey-text","200","536268","0.0-200.0-0.0","p777668","A1DC5O5XEIMM1M","3WRBLBQ2GSENM5LEFQY1C5PG0GV0GC","3U4J9857OGH80JBHA5WXFT3VBS2B7O","model","mismatch","uniform","","","","","","","3814.2999992370605","","","","","","","","","","","","","","","","","","","","","","","{""age"":""42""}",""
"survey-text","201","541549","0.0-200.0-1.0","p777668","A1DC5O5XEIMM1M","3WRBLBQ2GSENM5LEFQY1C5PG0GV0GC","3U4J9857OGH80JBHA5WXFT3VBS2B7O","model","mismatch","uniform","","","","","","","5273","","","","","","","","","","","","","","","","","","","","","","","{""gender"":""female""}",""
"survey-text","202","547945","0.0-200.0-2.0","p777668","A1DC5O5XEIMM1M","3WRBLBQ2GSENM5LEFQY1C5PG0GV0GC","3U4J9857OGH80JBHA5WXFT3VBS2B7O","model","mismatch","uniform","","","","","","","6391.599999427795","","","","","","","","","","","","","","","","","","","","","","","{""country"":""USA""}",""
"survey-text","203","559835","0.0-200.0-3.0","p777668","A1DC5O5XEIMM1M","3WRBLBQ2GSENM5LEFQY1C5PG0GV0GC","3U4J9857OGH80JBHA5WXFT3VBS2B7O","model","mismatch","uniform","","","","","","","11883.5","","","","","","","","","","","","","","","","","","","","","","","{""language"":""English"",""other_languages"":""no""}",""
"survey-multi-select","204","562447","0.0-201.0","p777668","A1DC5O5XEIMM1M","3WRBLBQ2GSENM5LEFQY1C5PG0GV0GC","3U4J9857OGH80JBHA5WXFT3VBS2B7O","model","mismatch","uniform","","","","","","","2606","","","","","","","","","","","","","","","","","","","","","","","{""race"":[""White""]}","[0]"
"survey-multi-choice","205","565044","0.0-202.0","p777668","A1DC5O5XEIMM1M","3WRBLBQ2GSENM5LEFQY1C5PG0GV0GC","3U4J9857OGH80JBHA5WXFT3VBS2B7O","model","mismatch","uniform","","","","","","","2591","","","","","","","","","","","","","","","","","","","","","","","{""education"":""Master's degree""}","[0]"
"survey-text","206","576777","0.0-203.0","p777668","A1DC5O5XEIMM1M","3WRBLBQ2GSENM5LEFQY1C5PG0GV0GC","3U4J9857OGH80JBHA5WXFT3VBS2B7O","model","mismatch","uniform","","","","","","","11724.199999809265","","","","","","","","","","","","","","","","","","","","","","","{""patterns"":""no"",""strategy"":""no"",""comments"":""nice study""}",""
