"trial_type","trial_index","time_elapsed","internal_node_id","subject","workerId","hitId","assignmentId","structure_condition","match_condition","noise_type","success","timeout","failed_images","failed_audio","failed_video","view_history","rt","start_time","end_time","stimuli","image1","image2","image3","image4","choiceLocation","choiceImage","choiceEmotion","choiceModel","choice_index","reward_score","reward","reward_score_unadjusted","reward_image","score_after_trial","emotions","models","rewards","rewards_unadjusted","stimulus","response","question_order"
"pavlovia","0","15","0.0-0.0","p542901","AU849EHZNGV2Z","3S1L4CQSFYBD9IN1W8PCJQ1H8N7AFE","3QHK8ZVMIOO7F40JEZX7YYLW6C7BLX","emotion","mismatch","uniform","","","","","","","","","","","","","","","","","","","","","","","","","","","","","","",""
"preload","1","5900","0.0-1.0","p542901","AU849EHZNGV2Z","3S1L4CQSFYBD9IN1W8PCJQ1H8N7AFE","3QHK8ZVMIOO7F40JEZX7YYLW6C7BLX","emotion","mismatch","uniform","true","false","[]","[]","[]","","","","","","","","","","","","","","","","","","","","","","","","","",""
"fullscreen","2","12288","0.0-2.0","p542901","AU849EHZNGV2Z","3S1L4CQSFYBD9IN1W8PCJQ1H8N7AFE","3QHK8ZVMIOO7F40JEZX7YYLW6C7BLX","emotion","mismatch","uniform","true","","","","","","","","","","","","","","","","","","","","","","","","","","","","","",""
"instructions","3","17010","0.0-3.0","p542901","AU849EHZNGV2Z","3S1L4CQSFYBD9IN1W8PCJQ1H8N7AFE","3QHK8ZVMIOO7F40JEZX7YYLW6C7BLX","emotion","mismatch","uniform","","","","","","[{""page_index"":0,""viewing_time"":4720.299999952316}]","4720.799999952316","","","","","","","","","","","","","","","","","","","","","","","",""
"explore-choice","4","19676","0.0-4.0","p542901","AU849EHZNGV2Z","3S1L4CQSFYBD9IN1W8PCJQ1H8N7AFE","3QHK8ZVMIOO7F40JEZX7YYLW6C7BLX","emotion","mismatch","uniform","","","","","","","2159.0999999046326","18772.300000071526","20931.399999976158","[""stimuli/sheep.jpg"",""stimuli/hammer.jpg"",""stimuli/basketball.jpg"",""stimuli/horse.jpg""]","stimuli/sheep.jpg","stimuli/hammer.jpg","stimuli/basketball.jpg","stimuli/horse.jpg","pos4","stimuli/horse.jpg","","","3","64","64","64","stimuli/stars_8.png","65","","","","","","",""
"explore-choice","5","21508","0.0-5.0","p542901","AU849EHZNGV2Z","3S1L4CQSFYBD9IN1W8PCJQ1H8N7AFE","3QHK8ZVMIOO7F40JEZX7YYLW6C7BLX","emotion","mismatch","uniform","","","","","","","1324.2999999523163","21438.800000071526","22763.100000023842","[""stimuli/hammer.jpg"",""stimuli/basketball.jpg"",""stimuli/horse.jpg"",""stimuli/sheep.jpg""]","stimuli/hammer.jpg","stimuli/basketball.jpg","stimuli/horse.jpg","stimuli/sheep.jpg","pos1","stimuli/hammer.jpg","","","0","8","8","8","stimuli/stars_2.png","9","","","","","","",""
"instructions","6","36130","0.0-6.0","p542901","AU849EHZNGV2Z","3S1L4CQSFYBD9IN1W8PCJQ1H8N7AFE","3QHK8ZVMIOO7F40JEZX7YYLW6C7BLX","emotion","mismatch","uniform","","","","","","[{""page_index"":0,""viewing_time"":14619.700000047684}]","14620","","","","","","","","","","","","","","","","","","","","","","","",""
"explore-choice","7","39832","0.0-7.0","p542901","AU849EHZNGV2Z","3S1L4CQSFYBD9IN1W8PCJQ1H8N7AFE","3QHK8ZVMIOO7F40JEZX7YYLW6C7BLX","emotion","mismatch","uniform","","","","","","","3199","37892.200000047684","41091.200000047684","[""stimuli/AF09_SC.jpg"",""stimuli/AM05_HE.jpg"",""stimuli/WM13_DO.jpg"",""stimuli/AM06_AO.jpg""]","stimuli/AF09_SC.jpg","stimuli/AM05_HE.jpg","stimuli/WM13_DO.jpg","stimuli/AM06_AO.jpg","pos4","stimuli/AM06_AO.jpg","AO","AM06","3","3.5","7","6","stimuli/stars_7.png","4.5","[""SC"",""HE"",""DO"",""AO""]","[""AF09"",""AM05"",""WM13"",""AM06""]","[5,4,10,7]","[4,2,8,6]","","",""
"show-reward","8","41840","0.0-8.0","p542901","AU849EHZNGV2Z","3S1L4CQSFYBD9IN1W8PCJQ1H8N7AFE","3QHK8ZVMIOO7F40JEZX7YYLW6C7BLX","emotion","mismatch","uniform","","","","","","","","41597.89999997616","43601.300000071526","","","","","","","","","","","","7","","stimuli/stars_7.png","4.5","","","","","stimuli/AM06_AO.jpg","",""
"explore-choice","9","45263","0.0-9.0","p542901","AU849EHZNGV2Z","3S1L4CQSFYBD9IN1W8PCJQ1H8N7AFE","3QHK8ZVMIOO7F40JEZX7YYLW6C7BLX","emotion","mismatch","uniform","","","","","","","2918.5","43604.5","46523","[""stimuli/AM06_HE.jpg"",""stimuli/WM13_SC.jpg"",""stimuli/AM05_AO.jpg"",""stimuli/AF09_DO.jpg""]","stimuli/AM06_HE.jpg","stimuli/WM13_SC.jpg","stimuli/AM05_AO.jpg","stimuli/AF09_DO.jpg","pos1","stimuli/AM06_HE.jpg","HE","AM06","0","1.5","3","2","stimuli/stars_3.png","6","[""HE"",""SC"",""AO"",""DO""]","[""AM06"",""WM13"",""AM05"",""AF09""]","[3,3,5,10]","[2,4,6,8]","","",""
"show-reward","10","47269","0.0-10.0","p542901","AU849EHZNGV2Z","3S1L4CQSFYBD9IN1W8PCJQ1H8N7AFE","3QHK8ZVMIOO7F40JEZX7YYLW6C7BLX","emotion","mismatch","uniform","","","","","","","","47026.39999997616","49030.39999997616","","","","","","","","","","","","3","","stimuli/stars_3.png","6","","","","","stimuli/AM06_HE.jpg","",""
"explore-choice","11","49055","0.0-11.0","p542901","AU849EHZNGV2Z","3S1L4CQSFYBD9IN1W8PCJQ1H8N7AFE","3QHK8ZVMIOO7F40JEZX7YYLW6C7BLX","emotion","mismatch","uniform","","","","","","","1283","49032.300000071526","50315.300000071526","[""stimuli/WM13_HE.jpg"",""stimuli/AF09_DO.jpg"",""stimuli/AM05_AO.jpg"",""stimuli/AM06_SC.jpg""]","stimuli/WM13_HE.jpg","stimuli/AF09_DO.jpg","stimuli/AM05_AO.jpg","stimuli/AM06_SC.jpg","pos2","stimuli/AF09_DO.jpg","DO","AF09","1","3","6","8","stimuli/stars_6.png","9","[""HE"",""DO"",""AO"",""SC""]","[""WM13"",""AF09"",""AM05"",""AM06""]","[0,6,4,2]","[2,8,6,4]","","",""
"show-reward","12","51063","0.0-12.0","p542901","AU849EHZNGV2Z","3S1L4CQSFYBD9IN1W8PCJQ1H8N7AFE","3QHK8ZVMIOO7F40JEZX7YYLW6C7BLX","emotion","mismatch","uniform","","","","","","","","50818.5","52824.10000002384","","","","","","","","","","","","6","","stimuli/stars_6.png","9","","","","","stimuli/AF09_DO.jpg","",""
"explore-choice","13","53415","0.0-13.0","p542901","AU849EHZNGV2Z","3S1L4CQSFYBD9IN1W8PCJQ1H8N7AFE","3QHK8ZVMIOO7F40JEZX7YYLW6C7BLX","emotion","mismatch","uniform","","","","","","","1848.8000000715256","52826.5","54675.300000071526","[""stimuli/AF09_DO.jpg"",""stimuli/AM06_AO.jpg"",""stimuli/WM13_SC.jpg"",""stimuli/AM05_HE.jpg""]","stimuli/AF09_DO.jpg","stimuli/AM06_AO.jpg","stimuli/WM13_SC.jpg","stimuli/AM05_HE.jpg","pos2","stimuli/AM06_AO.jpg","AO","AM06","1","2","4","6","stimuli/stars_4.png","11","[""DO"",""AO"",""SC"",""HE""]","[""AF09"",""AM06"",""WM13"",""AM05""]","[6,4,3,2]","[8,6,4,2]","","",""
"show-reward","14","55427","0.0-14.0","p542901","AU849EHZNGV2Z","3S1L4CQSFYBD9IN1W8PCJQ1H8N7AFE","3QHK8ZVMIOO7F40JEZX7YYLW6C7BLX","emotion","mismatch","uniform","","","","","","","","55178.10000002384","57188.60000002384","","","","","","","","","","","","4","","stimuli/stars_4.png","11","","","","","stimuli/AM06_AO.jpg","",""
"explore-choice","15","57337","0.0-15.0","p542901","AU849EHZNGV2Z","3S1L4CQSFYBD9IN1W8PCJQ1H8N7AFE","3QHK8ZVMIOO7F40JEZX7YYLW6C7BLX","emotion","mismatch","uniform","","","","","","","1406.2000000476837","57189.39999997616","58595.60000002384","[""stimuli/WM13_DO.jpg"",""stimuli/AM06_HE.jpg"",""stimuli/AF09_SC.jpg"",""stimuli/AM05_AO.jpg""]","stimuli/WM13_DO.jpg","stimuli/AM06_HE.jpg","stimuli/AF09_SC.jpg","stimuli/AM05_AO.jpg","pos1","stimuli/WM13_DO.jpg","DO","WM13","0","4","8","8","stimuli/stars_8.png","15","[""DO"",""HE"",""SC"",""AO""]","[""WM13"",""AM06"",""AF09"",""AM05""]","[8,4,2,4]","[8,2,4,6]","","",""
"show-reward","16","59343","0.0-16.0","p542901","AU849EHZNGV2Z","3S1L4CQSFYBD9IN1W8PCJQ1H8N7AFE","3QHK8ZVMIOO7F40JEZX7YYLW6C7BLX","emotion","mismatch","uniform","","","","","","","","59100.60000002384","61104.89999997616","","","","","","","","","","","","8","","stimuli/stars_8.png","15","","","","","stimuli/WM13_DO.jpg","",""
"explore-choice","17","61623","0.0-17.0","p542901","AU849EHZNGV2Z","3S1L4CQSFYBD9IN1W8PCJQ1H8N7AFE","3QHK8ZVMIOO7F40JEZX7YYLW6C7BLX","emotion","mismatch","uniform","","","","","","","1776.2999999523163","61106.800000071526","62883.10000002384","[""stimuli/AM06_HE.jpg"",""stimuli/AF09_AO.jpg"",""stimuli/AM05_SC.jpg"",""stimuli/WM13_DO.jpg""]","stimuli/AM06_HE.jpg","stimuli/AF09_AO.jpg","stimuli/AM05_SC.jpg","stimuli/WM13_DO.jpg","pos4","stimuli/WM13_DO.jpg","DO","WM13","3","3.5","7","8","stimuli/stars_7.png","18.5","[""HE"",""AO"",""SC"",""DO""]","[""AM06"",""AF09"",""AM05"",""WM13""]","[4,7,2,7]","[2,6,4,8]","","",""
"show-reward","18","63630","0.0-18.0","p542901","AU849EHZNGV2Z","3S1L4CQSFYBD9IN1W8PCJQ1H8N7AFE","3QHK8ZVMIOO7F40JEZX7YYLW6C7BLX","emotion","mismatch","uniform","","","","","","","","63386.10000002384","65391.5","","","","","","","","","","","","7","","stimuli/stars_7.png","18.5","","","","","stimuli/WM13_DO.jpg","",""
"explore-choice","19","65766","0.0-19.0","p542901","AU849EHZNGV2Z","3S1L4CQSFYBD9IN1W8PCJQ1H8N7AFE","3QHK8ZVMIOO7F40JEZX7YYLW6C7BLX","emotion","mismatch","uniform","","","","","","","1633.8999999761581","65393.300000071526","67027.20000004768","[""stimuli/WM13_HE.jpg"",""stimuli/AM05_SC.jpg"",""stimuli/AF09_DO.jpg"",""stimuli/AM06_AO.jpg""]","stimuli/WM13_HE.jpg","stimuli/AM05_SC.jpg","stimuli/AF09_DO.jpg","stimuli/AM06_AO.jpg","pos3","stimuli/AF09_DO.jpg","DO","AF09","2","3.5","7","8","stimuli/stars_7.png","22","[""HE"",""SC"",""DO"",""AO""]","[""WM13"",""AM05"",""AF09"",""AM06""]","[1,6,7,8]","[2,4,8,6]","","",""
"show-reward","20","67771","0.0-20.0","p542901","AU849EHZNGV2Z","3S1L4CQSFYBD9IN1W8PCJQ1H8N7AFE","3QHK8ZVMIOO7F40JEZX7YYLW6C7BLX","emotion","mismatch","uniform","","","","","","","","67528.30000007153","69532.5","","","","","","","","","","","","7","","stimuli/stars_7.png","22","","","","","stimuli/AF09_DO.jpg","",""
"explore-choice","21","69839","0.0-21.0","p542901","AU849EHZNGV2Z","3S1L4CQSFYBD9IN1W8PCJQ1H8N7AFE","3QHK8ZVMIOO7F40JEZX7YYLW6C7BLX","emotion","mismatch","uniform","","","","","","","1565.8999999761581","69533.30000007153","71099.20000004768","[""stimuli/AM05_HE.jpg"",""stimuli/AF09_SC.jpg"",""stimuli/WM13_AO.jpg"",""stimuli/AM06_DO.jpg""]","stimuli/AM05_HE.jpg","stimuli/AF09_SC.jpg","stimuli/WM13_AO.jpg","stimuli/AM06_DO.jpg","pos3","stimuli/WM13_AO.jpg","AO","WM13","2","2","4","6","stimuli/stars_4.png","24","[""HE"",""SC"",""AO"",""DO""]","[""AM05"",""AF09"",""WM13"",""AM06""]","[2,5,4,9]","[2,4,6,8]","","",""
"show-reward","22","71850","0.0-22.0","p542901","AU849EHZNGV2Z","3S1L4CQSFYBD9IN1W8PCJQ1H8N7AFE","3QHK8ZVMIOO7F40JEZX7YYLW6C7BLX","emotion","mismatch","uniform","","","","","","","","71602.10000002384","73611.39999997616","","","","","","","","","","","","4","","stimuli/stars_4.png","24","","","","","stimuli/WM13_AO.jpg","",""
"explore-choice","23","74055","0.0-23.0","p542901","AU849EHZNGV2Z","3S1L4CQSFYBD9IN1W8PCJQ1H8N7AFE","3QHK8ZVMIOO7F40JEZX7YYLW6C7BLX","emotion","mismatch","uniform","","","","","","","1702","73613.20000004768","75315.20000004768","[""stimuli/WM13_HE.jpg"",""stimuli/AM06_DO.jpg"",""stimuli/AF09_SC.jpg"",""stimuli/AM05_AO.jpg""]","stimuli/WM13_HE.jpg","stimuli/AM06_DO.jpg","stimuli/AF09_SC.jpg","stimuli/AM05_AO.jpg","pos2","stimuli/AM06_DO.jpg","DO","AM06","1","3.5","7","8","stimuli/stars_7.png","27.5","[""HE"",""DO"",""SC"",""AO""]","[""WM13"",""AM06"",""AF09"",""AM05""]","[3,7,2,6]","[2,8,4,6]","","",""
"show-reward","24","76062","0.0-24.0","p542901","AU849EHZNGV2Z","3S1L4CQSFYBD9IN1W8PCJQ1H8N7AFE","3QHK8ZVMIOO7F40JEZX7YYLW6C7BLX","emotion","mismatch","uniform","","","","","","","","75818.5","77823.70000004768","","","","","","","","","","","","7","","stimuli/stars_7.png","27.5","","","","","stimuli/AM06_DO.jpg","",""
"explore-choice","25","77511","0.0-25.0","p542901","AU849EHZNGV2Z","3S1L4CQSFYBD9IN1W8PCJQ1H8N7AFE","3QHK8ZVMIOO7F40JEZX7YYLW6C7BLX","emotion","mismatch","uniform","","","","","","","945.5","77825.70000004768","78771.20000004768","[""stimuli/AF09_SC.jpg"",""stimuli/AM05_DO.jpg"",""stimuli/AM06_HE.jpg"",""stimuli/WM13_AO.jpg""]","stimuli/AF09_SC.jpg","stimuli/AM05_DO.jpg","stimuli/AM06_HE.jpg","stimuli/WM13_AO.jpg","pos2","stimuli/AM05_DO.jpg","DO","AM05","1","4","8","8","stimuli/stars_8.png","31.5","[""SC"",""DO"",""HE"",""AO""]","[""AF09"",""AM05"",""AM06"",""WM13""]","[3,8,1,4]","[4,8,2,6]","","",""
"show-reward","26","79516","0.0-26.0","p542901","AU849EHZNGV2Z","3S1L4CQSFYBD9IN1W8PCJQ1H8N7AFE","3QHK8ZVMIOO7F40JEZX7YYLW6C7BLX","emotion","mismatch","uniform","","","","","","","","79273.60000002384","81277.80000007153","","","","","","","","","","","","8","","stimuli/stars_8.png","31.5","","","","","stimuli/AM05_DO.jpg","",""
"explore-choice","27","81526","0.0-27.0","p542901","AU849EHZNGV2Z","3S1L4CQSFYBD9IN1W8PCJQ1H8N7AFE","3QHK8ZVMIOO7F40JEZX7YYLW6C7BLX","emotion","mismatch","uniform","","","","","","","1508.7000000476837","81278.5","82787.20000004768","[""stimuli/WM13_HE.jpg"",""stimuli/AF09_SC.jpg"",""stimuli/AM05_DO.jpg"",""stimuli/AM06_AO.jpg""]","stimuli/WM13_HE.jpg","stimuli/AF09_SC.jpg","stimuli/AM05_DO.jpg","stimuli/AM06_AO.jpg","pos3","stimuli/AM05_DO.jpg","DO","AM05","2","3.5","7","8","stimuli/stars_7.png","35","[""HE"",""SC"",""DO"",""AO""]","[""WM13"",""AF09"",""AM05"",""AM06""]","[2,5,7,6]","[2,4,8,6]","","",""
"show-reward","28","83536","0.0-28.0","p542901","AU849EHZNGV2Z","3S1L4CQSFYBD9IN1W8PCJQ1H8N7AFE","3QHK8ZVMIOO7F40JEZX7YYLW6C7BLX","emotion","mismatch","uniform","","","","","","","","83289.60000002384","85297.60000002384","","","","","","","","","","","","7","","stimuli/stars_7.png","35","","","","","stimuli/AM05_DO.jpg","",""
"explore-choice","29","86174","0.0-29.0","p542901","AU849EHZNGV2Z","3S1L4CQSFYBD9IN1W8PCJQ1H8N7AFE","3QHK8ZVMIOO7F40JEZX7YYLW6C7BLX","emotion","mismatch","uniform","","","","","","","2135.5","85299.60000002384","87435.10000002384","[""stimuli/AM06_HE.jpg"",""stimuli/AM05_SC.jpg"",""stimuli/WM13_AO.jpg"",""stimuli/AF09_DO.jpg""]","stimuli/AM06_HE.jpg","stimuli/AM05_SC.jpg","stimuli/WM13_AO.jpg","stimuli/AF09_DO.jpg","pos4","stimuli/AF09_DO.jpg","DO","AF09","3","4.5","9","8","stimuli/stars_9.png","39.5","[""HE"",""SC"",""AO"",""DO""]","[""AM06"",""AM05"",""WM13"",""AF09""]","[0,2,6,9]","[2,4,6,8]","","",""
"show-reward","30","88182","0.0-30.0","p542901","AU849EHZNGV2Z","3S1L4CQSFYBD9IN1W8PCJQ1H8N7AFE","3QHK8ZVMIOO7F40JEZX7YYLW6C7BLX","emotion","mismatch","uniform","","","","","","","","87937.80000007153","89943.70000004768","","","","","","","","","","","","9","","stimuli/stars_9.png","39.5","","","","","stimuli/AF09_DO.jpg","",""
"explore-choice","31","90342","0.0-31.0","p542901","AU849EHZNGV2Z","3S1L4CQSFYBD9IN1W8PCJQ1H8N7AFE","3QHK8ZVMIOO7F40JEZX7YYLW6C7BLX","emotion","mismatch","uniform","","","","","","","1657.1999999284744","89946.20000004768","91603.39999997616","[""stimuli/AF09_AO.jpg"",""stimuli/WM13_HE.jpg"",""stimuli/AM05_SC.jpg"",""stimuli/AM06_DO.jpg""]","stimuli/AF09_AO.jpg","stimuli/WM13_HE.jpg","stimuli/AM05_SC.jpg","stimuli/AM06_DO.jpg","pos4","stimuli/AM06_DO.jpg","DO","AM06","3","4","8","8","stimuli/stars_8.png","43.5","[""AO"",""HE"",""SC"",""DO""]","[""AF09"",""WM13"",""AM05"",""AM06""]","[5,2,6,8]","[6,2,4,8]","","",""
"show-reward","32","92349","0.0-32.0","p542901","AU849EHZNGV2Z","3S1L4CQSFYBD9IN1W8PCJQ1H8N7AFE","3QHK8ZVMIOO7F40JEZX7YYLW6C7BLX","emotion","mismatch","uniform","","","","","","","","92106.20000004768","94111.20000004768","","","","","","","","","","","","8","","stimuli/stars_8.png","43.5","","","","","stimuli/AM06_DO.jpg","",""
"explore-choice","33","94702","0.0-33.0","p542901","AU849EHZNGV2Z","3S1L4CQSFYBD9IN1W8PCJQ1H8N7AFE","3QHK8ZVMIOO7F40JEZX7YYLW6C7BLX","emotion","mismatch","uniform","","","","","","","1851.2000000476837","94112","95963.20000004768","[""stimuli/AM06_SC.jpg"",""stimuli/WM13_AO.jpg"",""stimuli/AF09_HE.jpg"",""stimuli/AM05_DO.jpg""]","stimuli/AM06_SC.jpg","stimuli/WM13_AO.jpg","stimuli/AF09_HE.jpg","stimuli/AM05_DO.jpg","pos4","stimuli/AM05_DO.jpg","DO","AM05","3","4","8","8","stimuli/stars_8.png","47.5","[""SC"",""AO"",""HE"",""DO""]","[""AM06"",""WM13"",""AF09"",""AM05""]","[2,8,3,8]","[4,6,2,8]","","",""
"show-reward","34","96708","0.0-34.0","p542901","AU849EHZNGV2Z","3S1L4CQSFYBD9IN1W8PCJQ1H8N7AFE","3QHK8ZVMIOO7F40JEZX7YYLW6C7BLX","emotion","mismatch","uniform","","","","","","","","96465.5","98470.20000004768","","","","","","","","","","","","8","","stimuli/stars_8.png","47.5","","","","","stimuli/AM05_DO.jpg","",""
"explore-choice","35","101198","0.0-35.0","p542901","AU849EHZNGV2Z","3S1L4CQSFYBD9IN1W8PCJQ1H8N7AFE","3QHK8ZVMIOO7F40JEZX7YYLW6C7BLX","emotion","mismatch","uniform","","","","","","","3987.2000000476837","98472","102459.20000004768","[""stimuli/AM06_SC.jpg"",""stimuli/AM05_AO.jpg"",""stimuli/WM13_DO.jpg"",""stimuli/AF09_HE.jpg""]","stimuli/AM06_SC.jpg","stimuli/AM05_AO.jpg","stimuli/WM13_DO.jpg","stimuli/AF09_HE.jpg","pos3","stimuli/WM13_DO.jpg","DO","WM13","2","4","8","8","stimuli/stars_8.png","51.5","[""SC"",""AO"",""DO"",""HE""]","[""AM06"",""AM05"",""WM13"",""AF09""]","[5,6,8,1]","[4,6,8,2]","","",""
"show-reward","36","103207","0.0-36.0","p542901","AU849EHZNGV2Z","3S1L4CQSFYBD9IN1W8PCJQ1H8N7AFE","3QHK8ZVMIOO7F40JEZX7YYLW6C7BLX","emotion","mismatch","uniform","","","","","","","","102962.20000004768","104968.60000002384","","","","","","","","","","","","8","","stimuli/stars_8.png","51.5","","","","","stimuli/WM13_DO.jpg","",""
"explore-choice","37","105191","0.0-37.0","p542901","AU849EHZNGV2Z","3S1L4CQSFYBD9IN1W8PCJQ1H8N7AFE","3QHK8ZVMIOO7F40JEZX7YYLW6C7BLX","emotion","mismatch","uniform","","","","","","","1480.6000000238419","104970.70000004768","106451.30000007153","[""stimuli/AM06_AO.jpg"",""stimuli/AF09_HE.jpg"",""stimuli/AM05_DO.jpg"",""stimuli/WM13_SC.jpg""]","stimuli/AM06_AO.jpg","stimuli/AF09_HE.jpg","stimuli/AM05_DO.jpg","stimuli/WM13_SC.jpg","pos3","stimuli/AM05_DO.jpg","DO","AM05","2","4","8","8","stimuli/stars_8.png","55.5","[""AO"",""HE"",""DO"",""SC""]","[""AM06"",""AF09"",""AM05"",""WM13""]","[7,4,8,5]","[6,2,8,4]","","",""
"show-reward","38","107203","0.0-38.0","p542901","AU849EHZNGV2Z","3S1L4CQSFYBD9IN1W8PCJQ1H8N7AFE","3QHK8ZVMIOO7F40JEZX7YYLW6C7BLX","emotion","mismatch","uniform","","","","","","","","106954.89999997616","108965.30000007153","","","","","","","","","","","","8","","stimuli/stars_8.png","55.5","","","","","stimuli/AM05_DO.jpg","",""
"explore-choice","39","109934","0.0-39.0","p542901","AU849EHZNGV2Z","3S1L4CQSFYBD9IN1W8PCJQ1H8N7AFE","3QHK8ZVMIOO7F40JEZX7YYLW6C7BLX","emotion","mismatch","uniform","","","","","","","2228.9000000953674","108966.39999997616","111195.30000007153","[""stimuli/WM13_SC.jpg"",""stimuli/AF09_HE.jpg"",""stimuli/AM05_AO.jpg"",""stimuli/AM06_DO.jpg""]","stimuli/WM13_SC.jpg","stimuli/AF09_HE.jpg","stimuli/AM05_AO.jpg","stimuli/AM06_DO.jpg","pos4","stimuli/AM06_DO.jpg","DO","AM06","3","4.5","9","8","stimuli/stars_9.png","60","[""SC"",""HE"",""AO"",""DO""]","[""WM13"",""AF09"",""AM05"",""AM06""]","[5,3,5,9]","[4,2,6,8]","","",""
"show-reward","40","111941","0.0-40.0","p542901","AU849EHZNGV2Z","3S1L4CQSFYBD9IN1W8PCJQ1H8N7AFE","3QHK8ZVMIOO7F40JEZX7YYLW6C7BLX","emotion","mismatch","uniform","","","","","","","","111697.5","113703.5","","","","","","","","","","","","9","","stimuli/stars_9.png","60","","","","","stimuli/AM06_DO.jpg","",""
"explore-choice","41","113502","0.0-41.0","p542901","AU849EHZNGV2Z","3S1L4CQSFYBD9IN1W8PCJQ1H8N7AFE","3QHK8ZVMIOO7F40JEZX7YYLW6C7BLX","emotion","mismatch","uniform","","","","","","","1057.7999999523163","113705.20000004768","114763","[""stimuli/AM05_HE.jpg"",""stimuli/AM06_DO.jpg"",""stimuli/WM13_SC.jpg"",""stimuli/AF09_AO.jpg""]","stimuli/AM05_HE.jpg","stimuli/AM06_DO.jpg","stimuli/WM13_SC.jpg","stimuli/AF09_AO.jpg","pos2","stimuli/AM06_DO.jpg","DO","AM06","1","4.5","9","8","stimuli/stars_9.png","64.5","[""HE"",""DO"",""SC"",""AO""]","[""AM05"",""AM06"",""WM13"",""AF09""]","[1,9,5,5]","[2,8,4,6]","","",""
"show-reward","42","115509","0.0-42.0","p542901","AU849EHZNGV2Z","3S1L4CQSFYBD9IN1W8PCJQ1H8N7AFE","3QHK8ZVMIOO7F40JEZX7YYLW6C7BLX","emotion","mismatch","uniform","","","","","","","","115266.39999997616","117271.30000007153","","","","","","","","","","","","9","","stimuli/stars_9.png","64.5","","","","","stimuli/AM06_DO.jpg","",""
"explore-choice","43","118118","0.0-43.0","p542901","AU849EHZNGV2Z","3S1L4CQSFYBD9IN1W8PCJQ1H8N7AFE","3QHK8ZVMIOO7F40JEZX7YYLW6C7BLX","emotion","mismatch","uniform","","","","","","","2106","117273.20000004768","119379.20000004768","[""stimuli/WM13_DO.jpg"",""stimuli/AM06_SC.jpg"",""stimuli/AM05_HE.jpg"",""stimuli/AF09_AO.jpg""]","stimuli/WM13_DO.jpg","stimuli/AM06_SC.jpg","stimuli/AM05_HE.jpg","stimuli/AF09_AO.jpg","pos1","stimuli/WM13_DO.jpg","DO","WM13","0","4.5","9","8","stimuli/stars_9.png","69","[""DO"",""SC"",""HE"",""AO""]","[""WM13"",""AM06"",""AM05"",""AF09""]","[9,5,3,5]","[8,4,2,6]","","",""
"show-reward","44","120123","0.0-44.0","p542901","AU849EHZNGV2Z","3S1L4CQSFYBD9IN1W8PCJQ1H8N7AFE","3QHK8ZVMIOO7F40JEZX7YYLW6C7BLX","emotion","mismatch","uniform","","","","","","","","119880.60000002384","121885.30000007153","","","","","","","","","","","","9","","stimuli/stars_9.png","69","","","","","stimuli/WM13_DO.jpg","",""
"explore-choice","45","122478","0.0-45.0","p542901","AU849EHZNGV2Z","3S1L4CQSFYBD9IN1W8PCJQ1H8N7AFE","3QHK8ZVMIOO7F40JEZX7YYLW6C7BLX","emotion","mismatch","uniform","","","","","","","1853.5","121885.80000007153","123739.30000007153","[""stimuli/AM06_SC.jpg"",""stimuli/WM13_HE.jpg"",""stimuli/AF09_AO.jpg"",""stimuli/AM05_DO.jpg""]","stimuli/AM06_SC.jpg","stimuli/WM13_HE.jpg","stimuli/AF09_AO.jpg","stimuli/AM05_DO.jpg","pos4","stimuli/AM05_DO.jpg","DO","AM05","3","4","8","8","stimuli/stars_8.png","73","[""SC"",""HE"",""AO"",""DO""]","[""AM06"",""WM13"",""AF09"",""AM05""]","[5,2,7,8]","[4,2,6,8]","","",""
"show-reward","46","124489","0.0-46.0","p542901","AU849EHZNGV2Z","3S1L4CQSFYBD9IN1W8PCJQ1H8N7AFE","3QHK8ZVMIOO7F40JEZX7YYLW6C7BLX","emotion","mismatch","uniform","","","","","","","","124241.89999997616","126251.10000002384","","","","","","","","","","","","8","","stimuli/stars_8.png","73","","","","","stimuli/AM05_DO.jpg","",""
"explore-choice","47","126703","0.0-47.0","p542901","AU849EHZNGV2Z","3S1L4CQSFYBD9IN1W8PCJQ1H8N7AFE","3QHK8ZVMIOO7F40JEZX7YYLW6C7BLX","emotion","mismatch","uniform","","","","","","","1710.3000000715256","126253","127963.30000007153","[""stimuli/AM06_HE.jpg"",""stimuli/AF09_AO.jpg"",""stimuli/AM05_DO.jpg"",""stimuli/WM13_SC.jpg""]","stimuli/AM06_HE.jpg","stimuli/AF09_AO.jpg","stimuli/AM05_DO.jpg","stimuli/WM13_SC.jpg","pos3","stimuli/AM05_DO.jpg","DO","AM05","2","4.5","9","8","stimuli/stars_9.png","77.5","[""HE"",""AO"",""DO"",""SC""]","[""AM06"",""AF09"",""AM05"",""WM13""]","[0,5,9,6]","[2,6,8,4]","","",""
"show-reward","48","128710","0.0-48.0","p542901","AU849EHZNGV2Z","3S1L4CQSFYBD9IN1W8PCJQ1H8N7AFE","3QHK8ZVMIOO7F40JEZX7YYLW6C7BLX","emotion","mismatch","uniform","","","","","","","","128467.30000007153","130472.39999997616","","","","","","","","","","","","9","","stimuli/stars_9.png","77.5","","","","","stimuli/AM05_DO.jpg","",""
"explore-choice","49","132319","0.0-49.0","p542901","AU849EHZNGV2Z","3S1L4CQSFYBD9IN1W8PCJQ1H8N7AFE","3QHK8ZVMIOO7F40JEZX7YYLW6C7BLX","emotion","mismatch","uniform","","","","","","","3105.100000023842","130474.20000004768","133579.30000007153","[""stimuli/WM13_AO.jpg"",""stimuli/AF09_DO.jpg"",""stimuli/AM06_SC.jpg"",""stimuli/AM05_HE.jpg""]","stimuli/WM13_AO.jpg","stimuli/AF09_DO.jpg","stimuli/AM06_SC.jpg","stimuli/AM05_HE.jpg","pos2","stimuli/AF09_DO.jpg","DO","AF09","1","4","8","8","stimuli/stars_8.png","81.5","[""AO"",""DO"",""SC"",""HE""]","[""WM13"",""AF09"",""AM06"",""AM05""]","[7,8,4,2]","[6,8,4,2]","","",""
"show-reward","50","134331","0.0-50.0","p542901","AU849EHZNGV2Z","3S1L4CQSFYBD9IN1W8PCJQ1H8N7AFE","3QHK8ZVMIOO7F40JEZX7YYLW6C7BLX","emotion","mismatch","uniform","","","","","","","","134082.89999997616","136093.39999997616","","","","","","","","","","","","8","","stimuli/stars_8.png","81.5","","","","","stimuli/AF09_DO.jpg","",""
"explore-choice","51","137888","0.0-51.0","p542901","AU849EHZNGV2Z","3S1L4CQSFYBD9IN1W8PCJQ1H8N7AFE","3QHK8ZVMIOO7F40JEZX7YYLW6C7BLX","emotion","mismatch","uniform","","","","","","","3052.2999999523163","136095.10000002384","139147.39999997616","[""stimuli/AM06_DO.jpg"",""stimuli/WM13_AO.jpg"",""stimuli/AM05_SC.jpg"",""stimuli/AF09_HE.jpg""]","stimuli/AM06_DO.jpg","stimuli/WM13_AO.jpg","stimuli/AM05_SC.jpg","stimuli/AF09_HE.jpg","pos1","stimuli/AM06_DO.jpg","DO","AM06","0","4.5","9","8","stimuli/stars_9.png","86","[""DO"",""AO"",""SC"",""HE""]","[""AM06"",""WM13"",""AM05"",""AF09""]","[9,6,2,4]","[8,6,4,2]","","",""
"show-reward","52","139896","0.0-52.0","p542901","AU849EHZNGV2Z","3S1L4CQSFYBD9IN1W8PCJQ1H8N7AFE","3QHK8ZVMIOO7F40JEZX7YYLW6C7BLX","emotion","mismatch","uniform","","","","","","","","139651.10000002384","141657.39999997616","","","","","","","","","","","","9","","stimuli/stars_9.png","86","","","","","stimuli/AM06_DO.jpg","",""
"explore-choice","53","141543","0.0-53.0","p542901","AU849EHZNGV2Z","3S1L4CQSFYBD9IN1W8PCJQ1H8N7AFE","3QHK8ZVMIOO7F40JEZX7YYLW6C7BLX","emotion","mismatch","uniform","","","","","","","1143.8999999761581","141659.30000007153","142803.20000004768","[""stimuli/WM13_DO.jpg"",""stimuli/AM06_AO.jpg"",""stimuli/AM05_SC.jpg"",""stimuli/AF09_HE.jpg""]","stimuli/WM13_DO.jpg","stimuli/AM06_AO.jpg","stimuli/AM05_SC.jpg","stimuli/AF09_HE.jpg","pos1","stimuli/WM13_DO.jpg","DO","WM13","0","5","10","8","stimuli/stars_10.png","91","[""DO"",""AO"",""SC"",""HE""]","[""WM13"",""AM06"",""AM05"",""AF09""]","[10,4,2,0]","[8,6,4,2]","","",""
"show-reward","54","143550","0.0-54.0","p542901","AU849EHZNGV2Z","3S1L4CQSFYBD9IN1W8PCJQ1H8N7AFE","3QHK8ZVMIOO7F40JEZX7YYLW6C7BLX","emotion","mismatch","uniform","","","","","","","","143306.39999997616","145311.20000004768","","","","","","","","","","","","10","","stimuli/stars_10.png","91","","","","","stimuli/WM13_DO.jpg","",""
"explore-choice","55","146646","0.0-55.0","p542901","AU849EHZNGV2Z","3S1L4CQSFYBD9IN1W8PCJQ1H8N7AFE","3QHK8ZVMIOO7F40JEZX7YYLW6C7BLX","emotion","mismatch","uniform","","","","","","","2594.2000000476837","145313.10000002384","147907.30000007153","[""stimuli/WM13_AO.jpg"",""stimuli/AM05_DO.jpg"",""stimuli/AM06_SC.jpg"",""stimuli/AF09_HE.jpg""]","stimuli/WM13_AO.jpg","stimuli/AM05_DO.jpg","stimuli/AM06_SC.jpg","stimuli/AF09_HE.jpg","pos2","stimuli/AM05_DO.jpg","DO","AM05","1","4","8","8","stimuli/stars_8.png","95","[""AO"",""DO"",""SC"",""HE""]","[""WM13"",""AM05"",""AM06"",""AF09""]","[8,8,2,3]","[6,8,4,2]","","",""
"show-reward","56","148652","0.0-56.0","p542901","AU849EHZNGV2Z","3S1L4CQSFYBD9IN1W8PCJQ1H8N7AFE","3QHK8ZVMIOO7F40JEZX7YYLW6C7BLX","emotion","mismatch","uniform","","","","","","","","148410","150414.20000004768","","","","","","","","","","","","8","","stimuli/stars_8.png","95","","","","","stimuli/AM05_DO.jpg","",""
"explore-choice","57","151111","0.0-57.0","p542901","AU849EHZNGV2Z","3S1L4CQSFYBD9IN1W8PCJQ1H8N7AFE","3QHK8ZVMIOO7F40JEZX7YYLW6C7BLX","emotion","mismatch","uniform","","","","","","","1956.6999999284744","150414.70000004768","152371.39999997616","[""stimuli/AF09_SC.jpg"",""stimuli/AM06_HE.jpg"",""stimuli/WM13_DO.jpg"",""stimuli/AM05_AO.jpg""]","stimuli/AF09_SC.jpg","stimuli/AM06_HE.jpg","stimuli/WM13_DO.jpg","stimuli/AM05_AO.jpg","pos3","stimuli/WM13_DO.jpg","DO","WM13","2","4","8","8","stimuli/stars_8.png","99","[""SC"",""HE"",""DO"",""AO""]","[""AF09"",""AM06"",""WM13"",""AM05""]","[2,4,8,4]","[4,2,8,6]","","",""
"show-reward","58","153122","0.0-58.0","p542901","AU849EHZNGV2Z","3S1L4CQSFYBD9IN1W8PCJQ1H8N7AFE","3QHK8ZVMIOO7F40JEZX7YYLW6C7BLX","emotion","mismatch","uniform","","","","","","","","152874.89999997616","154883.60000002384","","","","","","","","","","","","8","","stimuli/stars_8.png","99","","","","","stimuli/WM13_DO.jpg","",""
"explore-choice","59","195022","0.0-59.0","p542901","AU849EHZNGV2Z","3S1L4CQSFYBD9IN1W8PCJQ1H8N7AFE","3QHK8ZVMIOO7F40JEZX7YYLW6C7BLX","emotion","mismatch","uniform","","","","","","","41397.90000009537","154885.39999997616","196283.30000007153","[""stimuli/AM06_HE.jpg"",""stimuli/AM05_SC.jpg"",""stimuli/WM13_DO.jpg"",""stimuli/AF09_AO.jpg""]","stimuli/AM06_HE.jpg","stimuli/AM05_SC.jpg","stimuli/WM13_DO.jpg","stimuli/AF09_AO.jpg","pos3","stimuli/WM13_DO.jpg","DO","WM13","2","3.5","7","8","stimuli/stars_7.png","102.5","[""HE"",""SC"",""DO"",""AO""]","[""AM06"",""AM05"",""WM13"",""AF09""]","[4,2,7,7]","[2,4,8,6]","","",""
"show-reward","60","197026","0.0-60.0","p542901","AU849EHZNGV2Z","3S1L4CQSFYBD9IN1W8PCJQ1H8N7AFE","3QHK8ZVMIOO7F40JEZX7YYLW6C7BLX","emotion","mismatch","uniform","","","","","","","","196784.89999997616","198787.10000002384","","","","","","","","","","","","7","","stimuli/stars_7.png","102.5","","","","","stimuli/WM13_DO.jpg","",""
"explore-choice","61","199207","0.0-61.0","p542901","AU849EHZNGV2Z","3S1L4CQSFYBD9IN1W8PCJQ1H8N7AFE","3QHK8ZVMIOO7F40JEZX7YYLW6C7BLX","emotion","mismatch","uniform","","","","","","","1678.4000000953674","198788.89999997616","200467.30000007153","[""stimuli/AM06_SC.jpg"",""stimuli/AM05_AO.jpg"",""stimuli/WM13_DO.jpg"",""stimuli/AF09_HE.jpg""]","stimuli/AM06_SC.jpg","stimuli/AM05_AO.jpg","stimuli/WM13_DO.jpg","stimuli/AF09_HE.jpg","pos3","stimuli/WM13_DO.jpg","DO","WM13","2","4","8","8","stimuli/stars_8.png","106.5","[""SC"",""AO"",""DO"",""HE""]","[""AM06"",""AM05"",""WM13"",""AF09""]","[5,6,8,1]","[4,6,8,2]","","",""
"show-reward","62","201214","0.0-62.0","p542901","AU849EHZNGV2Z","3S1L4CQSFYBD9IN1W8PCJQ1H8N7AFE","3QHK8ZVMIOO7F40JEZX7YYLW6C7BLX","emotion","mismatch","uniform","","","","","","","","200969.80000007153","202975.39999997616","","","","","","","","","","","","8","","stimuli/stars_8.png","106.5","","","","","stimuli/WM13_DO.jpg","",""
"explore-choice","63","204127","0.0-63.0","p542901","AU849EHZNGV2Z","3S1L4CQSFYBD9IN1W8PCJQ1H8N7AFE","3QHK8ZVMIOO7F40JEZX7YYLW6C7BLX","emotion","mismatch","uniform","","","","","","","2409.7000000476837","202977.60000002384","205387.30000007153","[""stimuli/AF09_DO.jpg"",""stimuli/AM06_SC.jpg"",""stimuli/AM05_HE.jpg"",""stimuli/WM13_AO.jpg""]","stimuli/AF09_DO.jpg","stimuli/AM06_SC.jpg","stimuli/AM05_HE.jpg","stimuli/WM13_AO.jpg","pos1","stimuli/AF09_DO.jpg","DO","AF09","0","4","8","8","stimuli/stars_8.png","110.5","[""DO"",""SC"",""HE"",""AO""]","[""AF09"",""AM06"",""AM05"",""WM13""]","[8,4,2,7]","[8,4,2,6]","","",""
"show-reward","64","206135","0.0-64.0","p542901","AU849EHZNGV2Z","3S1L4CQSFYBD9IN1W8PCJQ1H8N7AFE","3QHK8ZVMIOO7F40JEZX7YYLW6C7BLX","emotion","mismatch","uniform","","","","","","","","205890.60000002384","207896.30000007153","","","","","","","","","","","","8","","stimuli/stars_8.png","110.5","","","","","stimuli/AF09_DO.jpg","",""
"explore-choice","65","208312","0.0-65.0","p542901","AU849EHZNGV2Z","3S1L4CQSFYBD9IN1W8PCJQ1H8N7AFE","3QHK8ZVMIOO7F40JEZX7YYLW6C7BLX","emotion","mismatch","uniform","","","","","","","1674.2000000476837","207897.10000002384","209571.30000007153","[""stimuli/AF09_DO.jpg"",""stimuli/WM13_AO.jpg"",""stimuli/AM06_HE.jpg"",""stimuli/AM05_SC.jpg""]","stimuli/AF09_DO.jpg","stimuli/WM13_AO.jpg","stimuli/AM06_HE.jpg","stimuli/AM05_SC.jpg","pos1","stimuli/AF09_DO.jpg","DO","AF09","0","4.5","9","8","stimuli/stars_9.png","115","[""DO"",""AO"",""HE"",""SC""]","[""AF09"",""WM13"",""AM06"",""AM05""]","[9,6,0,2]","[8,6,2,4]","","",""
"show-reward","66","210318","0.0-66.0","p542901","AU849EHZNGV2Z","3S1L4CQSFYBD9IN1W8PCJQ1H8N7AFE","3QHK8ZVMIOO7F40JEZX7YYLW6C7BLX","emotion","mismatch","uniform","","","","","","","","210074.89999997616","212079.10000002384","","","","","","","","","","","","9","","stimuli/stars_9.png","115","","","","","stimuli/AF09_DO.jpg","",""
"explore-choice","67","212632","0.0-67.0","p542901","AU849EHZNGV2Z","3S1L4CQSFYBD9IN1W8PCJQ1H8N7AFE","3QHK8ZVMIOO7F40JEZX7YYLW6C7BLX","emotion","mismatch","uniform","","","","","","","1811.6000000238419","212079.89999997616","213891.5","[""stimuli/WM13_DO.jpg"",""stimuli/AF09_HE.jpg"",""stimuli/AM06_AO.jpg"",""stimuli/AM05_SC.jpg""]","stimuli/WM13_DO.jpg","stimuli/AF09_HE.jpg","stimuli/AM06_AO.jpg","stimuli/AM05_SC.jpg","pos1","stimuli/WM13_DO.jpg","DO","WM13","0","5","10","8","stimuli/stars_10.png","120","[""DO"",""HE"",""AO"",""SC""]","[""WM13"",""AF09"",""AM06"",""AM05""]","[10,0,4,2]","[8,2,6,4]","","",""
"show-reward","68","214640","0.0-68.0","p542901","AU849EHZNGV2Z","3S1L4CQSFYBD9IN1W8PCJQ1H8N7AFE","3QHK8ZVMIOO7F40JEZX7YYLW6C7BLX","emotion","mismatch","uniform","","","","","","","","214395.30000007153","216400.89999997616","","","","","","","","","","","","10","","stimuli/stars_10.png","120","","","","","stimuli/WM13_DO.jpg","",""
"explore-choice","69","217287","0.0-69.0","p542901","AU849EHZNGV2Z","3S1L4CQSFYBD9IN1W8PCJQ1H8N7AFE","3QHK8ZVMIOO7F40JEZX7YYLW6C7BLX","emotion","mismatch","uniform","","","","","","","2144.3000000715256","216403","218547.30000007153","[""stimuli/AM05_HE.jpg"",""stimuli/WM13_SC.jpg"",""stimuli/AM06_DO.jpg"",""stimuli/AF09_AO.jpg""]","stimuli/AM05_HE.jpg","stimuli/WM13_SC.jpg","stimuli/AM06_DO.jpg","stimuli/AF09_AO.jpg","pos4","stimuli/AF09_AO.jpg","AO","AF09","3","2.5","5","6","stimuli/stars_5.png","122.5","[""HE"",""SC"",""DO"",""AO""]","[""AM05"",""WM13"",""AM06"",""AF09""]","[1,5,9,5]","[2,4,8,6]","","",""
"show-reward","70","219297","0.0-70.0","p542901","AU849EHZNGV2Z","3S1L4CQSFYBD9IN1W8PCJQ1H8N7AFE","3QHK8ZVMIOO7F40JEZX7YYLW6C7BLX","emotion","mismatch","uniform","","","","","","","","219054.39999997616","221057.89999997616","","","","","","","","","","","","5","","stimuli/stars_5.png","122.5","","","","","stimuli/AF09_AO.jpg","",""
"explore-choice","71","221456","0.0-71.0","p542901","AU849EHZNGV2Z","3S1L4CQSFYBD9IN1W8PCJQ1H8N7AFE","3QHK8ZVMIOO7F40JEZX7YYLW6C7BLX","emotion","mismatch","uniform","","","","","","","1655.5","221059.80000007153","222715.30000007153","[""stimuli/WM13_AO.jpg"",""stimuli/AF09_SC.jpg"",""stimuli/AM05_HE.jpg"",""stimuli/AM06_DO.jpg""]","stimuli/WM13_AO.jpg","stimuli/AF09_SC.jpg","stimuli/AM05_HE.jpg","stimuli/AM06_DO.jpg","pos4","stimuli/AM06_DO.jpg","DO","AM06","3","4.5","9","8","stimuli/stars_9.png","127","[""AO"",""SC"",""HE"",""DO""]","[""WM13"",""AF09"",""AM05"",""AM06""]","[4,5,2,9]","[6,4,2,8]","","",""
"show-reward","72","223463","0.0-72.0","p542901","AU849EHZNGV2Z","3S1L4CQSFYBD9IN1W8PCJQ1H8N7AFE","3QHK8ZVMIOO7F40JEZX7YYLW6C7BLX","emotion","mismatch","uniform","","","","","","","","223219","225224.10000002384","","","","","","","","","","","","9","","stimuli/stars_9.png","127","","","","","stimuli/AM06_DO.jpg","",""
"explore-choice","73","226127","0.0-73.0","p542901","AU849EHZNGV2Z","3S1L4CQSFYBD9IN1W8PCJQ1H8N7AFE","3QHK8ZVMIOO7F40JEZX7YYLW6C7BLX","emotion","mismatch","uniform","","","","","","","2161.399999976158","225226","227387.39999997616","[""stimuli/AF09_AO.jpg"",""stimuli/AM05_HE.jpg"",""stimuli/AM06_SC.jpg"",""stimuli/WM13_DO.jpg""]","stimuli/AF09_AO.jpg","stimuli/AM05_HE.jpg","stimuli/AM06_SC.jpg","stimuli/WM13_DO.jpg","pos4","stimuli/WM13_DO.jpg","DO","WM13","3","4.5","9","8","stimuli/stars_9.png","131.5","[""AO"",""HE"",""SC"",""DO""]","[""AF09"",""AM05"",""AM06"",""WM13""]","[5,3,5,9]","[6,2,4,8]","","",""
"show-reward","74","228135","0.0-74.0","p542901","AU849EHZNGV2Z","3S1L4CQSFYBD9IN1W8PCJQ1H8N7AFE","3QHK8ZVMIOO7F40JEZX7YYLW6C7BLX","emotion","mismatch","uniform","","","","","","","","227890.20000004768","229895.89999997616","","","","","","","","","","","","9","","stimuli/stars_9.png","131.5","","","","","stimuli/WM13_DO.jpg","",""
"explore-choice","75","230943","0.0-75.0","p542901","AU849EHZNGV2Z","3S1L4CQSFYBD9IN1W8PCJQ1H8N7AFE","3QHK8ZVMIOO7F40JEZX7YYLW6C7BLX","emotion","mismatch","uniform","","","","","","","2305.5","229897.89999997616","232203.39999997616","[""stimuli/WM13_HE.jpg"",""stimuli/AM05_DO.jpg"",""stimuli/AF09_AO.jpg"",""stimuli/AM06_SC.jpg""]","stimuli/WM13_HE.jpg","stimuli/AM05_DO.jpg","stimuli/AF09_AO.jpg","stimuli/AM06_SC.jpg","pos2","stimuli/AM05_DO.jpg","DO","AM05","1","4","8","8","stimuli/stars_8.png","135.5","[""HE"",""DO"",""AO"",""SC""]","[""WM13"",""AM05"",""AF09"",""AM06""]","[2,8,7,5]","[2,8,6,4]","","",""
"show-reward","76","232949","0.0-76.0","p542901","AU849EHZNGV2Z","3S1L4CQSFYBD9IN1W8PCJQ1H8N7AFE","3QHK8ZVMIOO7F40JEZX7YYLW6C7BLX","emotion","mismatch","uniform","","","","","","","","232705.60000002384","234710.5","","","","","","","","","","","","8","","stimuli/stars_8.png","135.5","","","","","stimuli/AM05_DO.jpg","",""
"explore-choice","77","235663","0.0-77.0","p542901","AU849EHZNGV2Z","3S1L4CQSFYBD9IN1W8PCJQ1H8N7AFE","3QHK8ZVMIOO7F40JEZX7YYLW6C7BLX","emotion","mismatch","uniform","","","","","","","2211.8000000715256","234711.39999997616","236923.20000004768","[""stimuli/AM05_AO.jpg"",""stimuli/AM06_SC.jpg"",""stimuli/AF09_DO.jpg"",""stimuli/WM13_HE.jpg""]","stimuli/AM05_AO.jpg","stimuli/AM06_SC.jpg","stimuli/AF09_DO.jpg","stimuli/WM13_HE.jpg","pos3","stimuli/AF09_DO.jpg","DO","AF09","2","3","6","8","stimuli/stars_6.png","138.5","[""AO"",""SC"",""DO"",""HE""]","[""AM05"",""AM06"",""AF09"",""WM13""]","[4,2,6,0]","[6,4,8,2]","","",""
"show-reward","78","237671","0.0-78.0","p542901","AU849EHZNGV2Z","3S1L4CQSFYBD9IN1W8PCJQ1H8N7AFE","3QHK8ZVMIOO7F40JEZX7YYLW6C7BLX","emotion","mismatch","uniform","","","","","","","","237426.39999997616","239432.30000007153","","","","","","","","","","","","6","","stimuli/stars_6.png","138.5","","","","","stimuli/AF09_DO.jpg","",""
"explore-choice","79","240909","0.0-79.0","p542901","AU849EHZNGV2Z","3S1L4CQSFYBD9IN1W8PCJQ1H8N7AFE","3QHK8ZVMIOO7F40JEZX7YYLW6C7BLX","emotion","mismatch","uniform","","","","","","","2734.899999976158","239434","242168.89999997616","[""stimuli/WM13_HE.jpg"",""stimuli/AM05_SC.jpg"",""stimuli/AM06_AO.jpg"",""stimuli/AF09_DO.jpg""]","stimuli/WM13_HE.jpg","stimuli/AM05_SC.jpg","stimuli/AM06_AO.jpg","stimuli/AF09_DO.jpg","pos4","stimuli/AF09_DO.jpg","DO","AF09","3","3.5","7","8","stimuli/stars_7.png","142","[""HE"",""SC"",""AO"",""DO""]","[""WM13"",""AM05"",""AM06"",""AF09""]","[1,6,8,7]","[2,4,6,8]","","",""
"show-reward","80","242922","0.0-80.0","p542901","AU849EHZNGV2Z","3S1L4CQSFYBD9IN1W8PCJQ1H8N7AFE","3QHK8ZVMIOO7F40JEZX7YYLW6C7BLX","emotion","mismatch","uniform","","","","","","","","242672.30000007153","244684","","","","","","","","","","","","7","","stimuli/stars_7.png","142","","","","","stimuli/AF09_DO.jpg","",""
"explore-choice","81","245263","0.0-81.0","p542901","AU849EHZNGV2Z","3S1L4CQSFYBD9IN1W8PCJQ1H8N7AFE","3QHK8ZVMIOO7F40JEZX7YYLW6C7BLX","emotion","mismatch","uniform","","","","","","","1838.6999999284744","244684.70000004768","246523.39999997616","[""stimuli/AM06_HE.jpg"",""stimuli/WM13_AO.jpg"",""stimuli/AM05_DO.jpg"",""stimuli/AF09_SC.jpg""]","stimuli/AM06_HE.jpg","stimuli/WM13_AO.jpg","stimuli/AM05_DO.jpg","stimuli/AF09_SC.jpg","pos3","stimuli/AM05_DO.jpg","DO","AM05","2","4","8","8","stimuli/stars_8.png","146","[""HE"",""AO"",""DO"",""SC""]","[""AM06"",""WM13"",""AM05"",""AF09""]","[1,4,8,3]","[2,6,8,4]","","",""
"show-reward","82","247274","0.0-82.0","p542901","AU849EHZNGV2Z","3S1L4CQSFYBD9IN1W8PCJQ1H8N7AFE","3QHK8ZVMIOO7F40JEZX7YYLW6C7BLX","emotion","mismatch","uniform","","","","","","","","247026.80000007153","249035.39999997616","","","","","","","","","","","","8","","stimuli/stars_8.png","146","","","","","stimuli/AM05_DO.jpg","",""
"explore-choice","83","250439","0.0-83.0","p542901","AU849EHZNGV2Z","3S1L4CQSFYBD9IN1W8PCJQ1H8N7AFE","3QHK8ZVMIOO7F40JEZX7YYLW6C7BLX","emotion","mismatch","uniform","","","","","","","2663.5","249036","251699.5","[""stimuli/AM06_DO.jpg"",""stimuli/AF09_AO.jpg"",""stimuli/AM05_SC.jpg"",""stimuli/WM13_HE.jpg""]","stimuli/AM06_DO.jpg","stimuli/AF09_AO.jpg","stimuli/AM05_SC.jpg","stimuli/WM13_HE.jpg","pos2","stimuli/AF09_AO.jpg","AO","AF09","1","2.5","5","6","stimuli/stars_5.png","148.5","[""DO"",""AO"",""SC"",""HE""]","[""AM06"",""AF09"",""AM05"",""WM13""]","[8,5,6,2]","[8,6,4,2]","","",""
"show-reward","84","252449","0.0-84.0","p542901","AU849EHZNGV2Z","3S1L4CQSFYBD9IN1W8PCJQ1H8N7AFE","3QHK8ZVMIOO7F40JEZX7YYLW6C7BLX","emotion","mismatch","uniform","","","","","","","","252203.20000004768","254211.10000002384","","","","","","","","","","","","5","","stimuli/stars_5.png","148.5","","","","","stimuli/AF09_AO.jpg","",""
"explore-choice","85","254719","0.0-85.0","p542901","AU849EHZNGV2Z","3S1L4CQSFYBD9IN1W8PCJQ1H8N7AFE","3QHK8ZVMIOO7F40JEZX7YYLW6C7BLX","emotion","mismatch","uniform","","","","","","","1767.6999999284744","254211.80000007153","255979.5","[""stimuli/WM13_SC.jpg"",""stimuli/AM05_AO.jpg"",""stimuli/AF09_DO.jpg"",""stimuli/AM06_HE.jpg""]","stimuli/WM13_SC.jpg","stimuli/AM05_AO.jpg","stimuli/AF09_DO.jpg","stimuli/AM06_HE.jpg","pos3","stimuli/AF09_DO.jpg","DO","AF09","2","5","10","8","stimuli/stars_10.png","153.5","[""SC"",""AO"",""DO"",""HE""]","[""WM13"",""AM05"",""AF09"",""AM06""]","[3,5,10,3]","[4,6,8,2]","","",""
"show-reward","86","256734","0.0-86.0","p542901","AU849EHZNGV2Z","3S1L4CQSFYBD9IN1W8PCJQ1H8N7AFE","3QHK8ZVMIOO7F40JEZX7YYLW6C7BLX","emotion","mismatch","uniform","","","","","","","","256482.30000007153","258495.70000004768","","","","","","","","","","","","10","","stimuli/stars_10.png","153.5","","","","","stimuli/AF09_DO.jpg","",""
"explore-choice","87","258654","0.0-87.0","p542901","AU849EHZNGV2Z","3S1L4CQSFYBD9IN1W8PCJQ1H8N7AFE","3QHK8ZVMIOO7F40JEZX7YYLW6C7BLX","emotion","mismatch","uniform","","","","","","","1417.2000000476837","258498.10000002384","259915.30000007153","[""stimuli/AM06_AO.jpg"",""stimuli/AM05_HE.jpg"",""stimuli/AF09_SC.jpg"",""stimuli/WM13_DO.jpg""]","stimuli/AM06_AO.jpg","stimuli/AM05_HE.jpg","stimuli/AF09_SC.jpg","stimuli/WM13_DO.jpg","pos3","stimuli/AF09_SC.jpg","SC","AF09","2","2.5","5","4","stimuli/stars_5.png","156","[""AO"",""HE"",""SC"",""DO""]","[""AM06"",""AM05"",""AF09"",""WM13""]","[7,4,5,10]","[6,2,4,8]","","",""
"show-reward","88","260661","0.0-88.0","p542901","AU849EHZNGV2Z","3S1L4CQSFYBD9IN1W8PCJQ1H8N7AFE","3QHK8ZVMIOO7F40JEZX7YYLW6C7BLX","emotion","mismatch","uniform","","","","","","","","260417.70000004768","262423.2000000477","","","","","","","","","","","","5","","stimuli/stars_5.png","156","","","","","stimuli/AF09_SC.jpg","",""
"explore-choice","89","262526","0.0-89.0","p542901","AU849EHZNGV2Z","3S1L4CQSFYBD9IN1W8PCJQ1H8N7AFE","3QHK8ZVMIOO7F40JEZX7YYLW6C7BLX","emotion","mismatch","uniform","","","","","","","1361.6999999284744","262425.8000000715","263787.5","[""stimuli/AF09_SC.jpg"",""stimuli/AM05_DO.jpg"",""stimuli/WM13_HE.jpg"",""stimuli/AM06_AO.jpg""]","stimuli/AF09_SC.jpg","stimuli/AM05_DO.jpg","stimuli/WM13_HE.jpg","stimuli/AM06_AO.jpg","pos2","stimuli/AM05_DO.jpg","DO","AM05","1","3.5","7","8","stimuli/stars_7.png","159.5","[""SC"",""DO"",""HE"",""AO""]","[""AF09"",""AM05"",""WM13"",""AM06""]","[5,7,2,6]","[4,8,2,6]","","",""
"show-reward","90","264530","0.0-90.0","p542901","AU849EHZNGV2Z","3S1L4CQSFYBD9IN1W8PCJQ1H8N7AFE","3QHK8ZVMIOO7F40JEZX7YYLW6C7BLX","emotion","mismatch","uniform","","","","","","","","264289","266291.8000000715","","","","","","","","","","","","7","","stimuli/stars_7.png","159.5","","","","","stimuli/AM05_DO.jpg","",""
"explore-choice","91","266447","0.0-91.0","p542901","AU849EHZNGV2Z","3S1L4CQSFYBD9IN1W8PCJQ1H8N7AFE","3QHK8ZVMIOO7F40JEZX7YYLW6C7BLX","emotion","mismatch","uniform","","","","","","","1414.6999999284744","266292.8000000715","267707.5","[""stimuli/WM13_SC.jpg"",""stimuli/AM06_DO.jpg"",""stimuli/AF09_HE.jpg"",""stimuli/AM05_AO.jpg""]","stimuli/WM13_SC.jpg","stimuli/AM06_DO.jpg","stimuli/AF09_HE.jpg","stimuli/AM05_AO.jpg","pos2","stimuli/AM06_DO.jpg","DO","AM06","1","4.5","9","8","stimuli/stars_9.png","164","[""SC"",""DO"",""HE"",""AO""]","[""WM13"",""AM06"",""AF09"",""AM05""]","[5,9,3,5]","[4,8,2,6]","","",""
"show-reward","92","268454","0.0-92.0","p542901","AU849EHZNGV2Z","3S1L4CQSFYBD9IN1W8PCJQ1H8N7AFE","3QHK8ZVMIOO7F40JEZX7YYLW6C7BLX","emotion","mismatch","uniform","","","","","","","","268210.8000000715","270216","","","","","","","","","","","","9","","stimuli/stars_9.png","164","","","","","stimuli/AM06_DO.jpg","",""
"explore-choice","93","270830","0.0-93.0","p542901","AU849EHZNGV2Z","3S1L4CQSFYBD9IN1W8PCJQ1H8N7AFE","3QHK8ZVMIOO7F40JEZX7YYLW6C7BLX","emotion","mismatch","uniform","","","","","","","1873.6000000238419","270218","272091.60000002384","[""stimuli/WM13_SC.jpg"",""stimuli/AF09_HE.jpg"",""stimuli/AM06_AO.jpg"",""stimuli/AM05_DO.jpg""]","stimuli/WM13_SC.jpg","stimuli/AF09_HE.jpg","stimuli/AM06_AO.jpg","stimuli/AM05_DO.jpg","pos4","stimuli/AM05_DO.jpg","DO","AM05","3","4","8","8","stimuli/stars_8.png","168","[""SC"",""HE"",""AO"",""DO""]","[""WM13"",""AF09"",""AM06"",""AM05""]","[5,4,7,8]","[4,2,6,8]","","",""
"show-reward","94","272837","0.0-94.0","p542901","AU849EHZNGV2Z","3S1L4CQSFYBD9IN1W8PCJQ1H8N7AFE","3QHK8ZVMIOO7F40JEZX7YYLW6C7BLX","emotion","mismatch","uniform","","","","","","","","272593.7000000477","274599.2000000477","","","","","","","","","","","","8","","stimuli/stars_8.png","168","","","","","stimuli/AM05_DO.jpg","",""
"explore-choice","95","275216","0.0-95.0","p542901","AU849EHZNGV2Z","3S1L4CQSFYBD9IN1W8PCJQ1H8N7AFE","3QHK8ZVMIOO7F40JEZX7YYLW6C7BLX","emotion","mismatch","uniform","","","","","","","1874.3999999761581","274601","276475.39999997616","[""stimuli/WM13_SC.jpg"",""stimuli/AM06_AO.jpg"",""stimuli/AM05_HE.jpg"",""stimuli/AF09_DO.jpg""]","stimuli/WM13_SC.jpg","stimuli/AM06_AO.jpg","stimuli/AM05_HE.jpg","stimuli/AF09_DO.jpg","pos4","stimuli/AF09_DO.jpg","DO","AF09","3","3","6","8","stimuli/stars_6.png","171","[""SC"",""AO"",""HE"",""DO""]","[""WM13"",""AM06"",""AM05"",""AF09""]","[3,4,2,6]","[4,6,2,8]","","",""
"show-reward","96","277222","0.0-96.0","p542901","AU849EHZNGV2Z","3S1L4CQSFYBD9IN1W8PCJQ1H8N7AFE","3QHK8ZVMIOO7F40JEZX7YYLW6C7BLX","emotion","mismatch","uniform","","","","","","","","276979.60000002384","278983.7000000477","","","","","","","","","","","","6","","stimuli/stars_6.png","171","","","","","stimuli/AF09_DO.jpg","",""
"explore-choice","97","280390","0.0-97.0","p542901","AU849EHZNGV2Z","3S1L4CQSFYBD9IN1W8PCJQ1H8N7AFE","3QHK8ZVMIOO7F40JEZX7YYLW6C7BLX","emotion","mismatch","uniform","","","","","","","2666.0999999046326","278985.3000000715","281651.39999997616","[""stimuli/AF09_SC.jpg"",""stimuli/WM13_HE.jpg"",""stimuli/AM06_DO.jpg"",""stimuli/AM05_AO.jpg""]","stimuli/AF09_SC.jpg","stimuli/WM13_HE.jpg","stimuli/AM06_DO.jpg","stimuli/AM05_AO.jpg","pos3","stimuli/AM06_DO.jpg","DO","AM06","2","3.5","7","8","stimuli/stars_7.png","174.5","[""SC"",""HE"",""DO"",""AO""]","[""AF09"",""WM13"",""AM06"",""AM05""]","[2,3,7,6]","[4,2,8,6]","","",""
"show-reward","98","282393","0.0-98.0","p542901","AU849EHZNGV2Z","3S1L4CQSFYBD9IN1W8PCJQ1H8N7AFE","3QHK8ZVMIOO7F40JEZX7YYLW6C7BLX","emotion","mismatch","uniform","","","","","","","","282153.10000002384","284155.5","","","","","","","","","","","","7","","stimuli/stars_7.png","174.5","","","","","stimuli/AM06_DO.jpg","",""
"explore-choice","99","284918","0.0-99.0","p542901","AU849EHZNGV2Z","3S1L4CQSFYBD9IN1W8PCJQ1H8N7AFE","3QHK8ZVMIOO7F40JEZX7YYLW6C7BLX","emotion","mismatch","uniform","","","","","","","2023.6000000238419","284156","286179.60000002384","[""stimuli/AF09_AO.jpg"",""stimuli/AM05_DO.jpg"",""stimuli/WM13_SC.jpg"",""stimuli/AM06_HE.jpg""]","stimuli/AF09_AO.jpg","stimuli/AM05_DO.jpg","stimuli/WM13_SC.jpg","stimuli/AM06_HE.jpg","pos2","stimuli/AM05_DO.jpg","DO","AM05","1","4.5","9","8","stimuli/stars_9.png","179","[""AO"",""DO"",""SC"",""HE""]","[""AF09"",""AM05"",""WM13"",""AM06""]","[5,9,6,0]","[6,8,4,2]","","",""
"show-reward","100","286925","0.0-100.0","p542901","AU849EHZNGV2Z","3S1L4CQSFYBD9IN1W8PCJQ1H8N7AFE","3QHK8ZVMIOO7F40JEZX7YYLW6C7BLX","emotion","mismatch","uniform","","","","","","","","286682","288686.89999997616","","","","","","","","","","","","9","","stimuli/stars_9.png","179","","","","","stimuli/AM05_DO.jpg","",""
"explore-choice","101","289624","0.0-101.0","p542901","AU849EHZNGV2Z","3S1L4CQSFYBD9IN1W8PCJQ1H8N7AFE","3QHK8ZVMIOO7F40JEZX7YYLW6C7BLX","emotion","mismatch","uniform","","","","","","","2195.899999976158","288687.5","290883.39999997616","[""stimuli/AM06_DO.jpg"",""stimuli/WM13_AO.jpg"",""stimuli/AM05_SC.jpg"",""stimuli/AF09_HE.jpg""]","stimuli/AM06_DO.jpg","stimuli/WM13_AO.jpg","stimuli/AM05_SC.jpg","stimuli/AF09_HE.jpg","pos1","stimuli/AM06_DO.jpg","DO","AM06","0","4.5","9","8","stimuli/stars_9.png","183.5","[""DO"",""AO"",""SC"",""HE""]","[""AM06"",""WM13"",""AM05"",""AF09""]","[9,6,2,4]","[8,6,4,2]","","",""
"show-reward","102","291630","0.0-102.0","p542901","AU849EHZNGV2Z","3S1L4CQSFYBD9IN1W8PCJQ1H8N7AFE","3QHK8ZVMIOO7F40JEZX7YYLW6C7BLX","emotion","mismatch","uniform","","","","","","","","291387.60000002384","293392.2000000477","","","","","","","","","","","","9","","stimuli/stars_9.png","183.5","","","","","stimuli/AM06_DO.jpg","",""
"explore-choice","103","296912","0.0-103.0","p542901","AU849EHZNGV2Z","3S1L4CQSFYBD9IN1W8PCJQ1H8N7AFE","3QHK8ZVMIOO7F40JEZX7YYLW6C7BLX","emotion","mismatch","uniform","","","","","","","4777.600000023842","293393.89999997616","298171.5","[""stimuli/BM04_HO.jpg"",""stimuli/BF05_SUR.jpg"",""stimuli/BF04_FO.jpg"",""stimuli/WM11_CC.jpg""]","stimuli/BM04_HO.jpg","stimuli/BF05_SUR.jpg","stimuli/BF04_FO.jpg","stimuli/WM11_CC.jpg","pos3","stimuli/BF04_FO.jpg","FO","BF04","2","2","4","6","stimuli/stars_4.png","185.5","[""HO"",""SUR"",""FO"",""CC""]","[""BM04"",""BF05"",""BF04"",""WM11""]","[4,2,4,9]","[2,4,6,8]","","",""
"show-reward","104","298919","0.0-104.0","p542901","AU849EHZNGV2Z","3S1L4CQSFYBD9IN1W8PCJQ1H8N7AFE","3QHK8ZVMIOO7F40JEZX7YYLW6C7BLX","emotion","mismatch","uniform","","","","","","","","298675.60000002384","300681.39999997616","","","","","","","","","","","","4","","stimuli/stars_4.png","185.5","","","","","stimuli/BF04_FO.jpg","",""
"explore-choice","105","300606","0.0-105.0","p542901","AU849EHZNGV2Z","3S1L4CQSFYBD9IN1W8PCJQ1H8N7AFE","3QHK8ZVMIOO7F40JEZX7YYLW6C7BLX","emotion","mismatch","uniform","","","","","","","1183.8999999761581","300683.60000002384","301867.5","[""stimuli/BF04_CC.jpg"",""stimuli/BF05_FO.jpg"",""stimuli/WM11_SUR.jpg"",""stimuli/BM04_HO.jpg""]","stimuli/BF04_CC.jpg","stimuli/BF05_FO.jpg","stimuli/WM11_SUR.jpg","stimuli/BM04_HO.jpg","pos2","stimuli/BF05_FO.jpg","FO","BF05","1","2.5","5","4","stimuli/stars_5.png","188","[""CC"",""FO"",""SUR"",""HO""]","[""BF04"",""BF05"",""WM11"",""BM04""]","[7,5,10,4]","[6,4,8,2]","","",""
"show-reward","106","302613","0.0-106.0","p542901","AU849EHZNGV2Z","3S1L4CQSFYBD9IN1W8PCJQ1H8N7AFE","3QHK8ZVMIOO7F40JEZX7YYLW6C7BLX","emotion","mismatch","uniform","","","","","","","","302370.2000000477","304375","","","","","","","","","","","","5","","stimuli/stars_5.png","188","","","","","stimuli/BF05_FO.jpg","",""
"explore-choice","107","304374","0.0-107.0","p542901","AU849EHZNGV2Z","3S1L4CQSFYBD9IN1W8PCJQ1H8N7AFE","3QHK8ZVMIOO7F40JEZX7YYLW6C7BLX","emotion","mismatch","uniform","","","","","","","1259.3999999761581","304376","305635.39999997616","[""stimuli/BF05_HO.jpg"",""stimuli/BM04_SUR.jpg"",""stimuli/BF04_FO.jpg"",""stimuli/WM11_CC.jpg""]","stimuli/BF05_HO.jpg","stimuli/BM04_SUR.jpg","stimuli/BF04_FO.jpg","stimuli/WM11_CC.jpg","pos2","stimuli/BM04_SUR.jpg","SUR","BM04","1","0.5","1","2","stimuli/stars_1.png","188.5","[""HO"",""SUR"",""FO"",""CC""]","[""BF05"",""BM04"",""BF04"",""WM11""]","[4,1,8,9]","[4,2,6,8]","","",""
"show-reward","108","306382","0.0-108.0","p542901","AU849EHZNGV2Z","3S1L4CQSFYBD9IN1W8PCJQ1H8N7AFE","3QHK8ZVMIOO7F40JEZX7YYLW6C7BLX","emotion","mismatch","uniform","","","","","","","","306138.3000000715","308143.8000000715","","","","","","","","","","","","1","","stimuli/stars_1.png","188.5","","","","","stimuli/BM04_SUR.jpg","",""
"explore-choice","109","309422","0.0-109.0","p542901","AU849EHZNGV2Z","3S1L4CQSFYBD9IN1W8PCJQ1H8N7AFE","3QHK8ZVMIOO7F40JEZX7YYLW6C7BLX","emotion","mismatch","uniform","","","","","","","2537.899999976158","308145.60000002384","310683.5","[""stimuli/BF04_CC.jpg"",""stimuli/BM04_FO.jpg"",""stimuli/BF05_SUR.jpg"",""stimuli/WM11_HO.jpg""]","stimuli/BF04_CC.jpg","stimuli/BM04_FO.jpg","stimuli/BF05_SUR.jpg","stimuli/WM11_HO.jpg","pos1","stimuli/BF04_CC.jpg","CC","BF04","0","3","6","6","stimuli/stars_6.png","191.5","[""CC"",""FO"",""SUR"",""HO""]","[""BF04"",""BM04"",""BF05"",""WM11""]","[6,3,4,8]","[6,2,4,8]","","",""
"show-reward","110","311433","0.0-110.0","p542901","AU849EHZNGV2Z","3S1L4CQSFYBD9IN1W8PCJQ1H8N7AFE","3QHK8ZVMIOO7F40JEZX7YYLW6C7BLX","emotion","mismatch","uniform","","","","","","","","311186.5","313195.3000000715","","","","","","","","","","","","6","","stimuli/stars_6.png","191.5","","","","","stimuli/BF04_CC.jpg","",""
"explore-choice","111","313159","0.0-111.0","p542901","AU849EHZNGV2Z","3S1L4CQSFYBD9IN1W8PCJQ1H8N7AFE","3QHK8ZVMIOO7F40JEZX7YYLW6C7BLX","emotion","mismatch","uniform","","","","","","","1223.7000000476837","313195.89999997616","314419.60000002384","[""stimuli/BM04_FO.jpg"",""stimuli/BF04_CC.jpg"",""stimuli/WM11_SUR.jpg"",""stimuli/BF05_HO.jpg""]","stimuli/BM04_FO.jpg","stimuli/BF04_CC.jpg","stimuli/WM11_SUR.jpg","stimuli/BF05_HO.jpg","pos4","stimuli/BF05_HO.jpg","HO","BF05","3","2","4","4","stimuli/stars_4.png","193.5","[""FO"",""CC"",""SUR"",""HO""]","[""BM04"",""BF04"",""WM11"",""BF05""]","[1,6,8,4]","[2,6,8,4]","","",""
"show-reward","112","315166","0.0-112.0","p542901","AU849EHZNGV2Z","3S1L4CQSFYBD9IN1W8PCJQ1H8N7AFE","3QHK8ZVMIOO7F40JEZX7YYLW6C7BLX","emotion","mismatch","uniform","","","","","","","","314922.7000000477","316928","","","","","","","","","","","","4","","stimuli/stars_4.png","193.5","","","","","stimuli/BF05_HO.jpg","",""
"explore-choice","113","317416","0.0-113.0","p542901","AU849EHZNGV2Z","3S1L4CQSFYBD9IN1W8PCJQ1H8N7AFE","3QHK8ZVMIOO7F40JEZX7YYLW6C7BLX","emotion","mismatch","uniform","","","","","","","1746.1999999284744","316929.8000000715","318676","[""stimuli/BF04_SUR.jpg"",""stimuli/BM04_CC.jpg"",""stimuli/WM11_FO.jpg"",""stimuli/BF05_HO.jpg""]","stimuli/BF04_SUR.jpg","stimuli/BM04_CC.jpg","stimuli/WM11_FO.jpg","stimuli/BF05_HO.jpg","pos3","stimuli/WM11_FO.jpg","FO","WM11","2","3.5","7","8","stimuli/stars_7.png","197","[""SUR"",""CC"",""FO"",""HO""]","[""BF04"",""BM04"",""WM11"",""BF05""]","[4,3,7,2]","[6,2,8,4]","","",""
"show-reward","114","319423","0.0-114.0","p542901","AU849EHZNGV2Z","3S1L4CQSFYBD9IN1W8PCJQ1H8N7AFE","3QHK8ZVMIOO7F40JEZX7YYLW6C7BLX","emotion","mismatch","uniform","","","","","","","","319179.10000002384","321185.2000000477","","","","","","","","","","","","7","","stimuli/stars_7.png","197","","","","","stimuli/WM11_FO.jpg","",""
"explore-choice","115","320758","0.0-115.0","p542901","AU849EHZNGV2Z","3S1L4CQSFYBD9IN1W8PCJQ1H8N7AFE","3QHK8ZVMIOO7F40JEZX7YYLW6C7BLX","emotion","mismatch","uniform","","","","","","","833.6999999284744","321185.8000000715","322019.5","[""stimuli/BM04_HO.jpg"",""stimuli/BF05_FO.jpg"",""stimuli/BF04_SUR.jpg"",""stimuli/WM11_CC.jpg""]","stimuli/BM04_HO.jpg","stimuli/BF05_FO.jpg","stimuli/BF04_SUR.jpg","stimuli/WM11_CC.jpg","pos2","stimuli/BF05_FO.jpg","FO","BF05","1","1.5","3","4","stimuli/stars_3.png","198.5","[""HO"",""FO"",""SUR"",""CC""]","[""BM04"",""BF05"",""BF04"",""WM11""]","[0,3,6,8]","[2,4,6,8]","","",""
"show-reward","116","322769","0.0-116.0","p542901","AU849EHZNGV2Z","3S1L4CQSFYBD9IN1W8PCJQ1H8N7AFE","3QHK8ZVMIOO7F40JEZX7YYLW6C7BLX","emotion","mismatch","uniform","","","","","","","","322522","324530.8000000715","","","","","","","","","","","","3","","stimuli/stars_3.png","198.5","","","","","stimuli/BF05_FO.jpg","",""
"explore-choice","117","325407","0.0-117.0","p542901","AU849EHZNGV2Z","3S1L4CQSFYBD9IN1W8PCJQ1H8N7AFE","3QHK8ZVMIOO7F40JEZX7YYLW6C7BLX","emotion","mismatch","uniform","","","","","","","2135.100000023842","324532.5","326667.60000002384","[""stimuli/WM11_HO.jpg"",""stimuli/BF05_CC.jpg"",""stimuli/BM04_SUR.jpg"",""stimuli/BF04_FO.jpg""]","stimuli/WM11_HO.jpg","stimuli/BF05_CC.jpg","stimuli/BM04_SUR.jpg","stimuli/BF04_FO.jpg","pos4","stimuli/BF04_FO.jpg","FO","BF04","3","2.5","5","6","stimuli/stars_5.png","201","[""HO"",""CC"",""SUR"",""FO""]","[""WM11"",""BF05"",""BM04"",""BF04""]","[6,2,1,5]","[8,4,2,6]","","",""
"show-reward","118","327413","0.0-118.0","p542901","AU849EHZNGV2Z","3S1L4CQSFYBD9IN1W8PCJQ1H8N7AFE","3QHK8ZVMIOO7F40JEZX7YYLW6C7BLX","emotion","mismatch","uniform","","","","","","","","327170.39999997616","329175","","","","","","","","","","","","5","","stimuli/stars_5.png","201","","","","","stimuli/BF04_FO.jpg","",""
"explore-choice","119","329559","0.0-119.0","p542901","AU849EHZNGV2Z","3S1L4CQSFYBD9IN1W8PCJQ1H8N7AFE","3QHK8ZVMIOO7F40JEZX7YYLW6C7BLX","emotion","mismatch","uniform","","","","","","","1642.8999999761581","329176.8000000715","330819.7000000477","[""stimuli/BF04_HO.jpg"",""stimuli/BF05_FO.jpg"",""stimuli/WM11_CC.jpg"",""stimuli/BM04_SUR.jpg""]","stimuli/BF04_HO.jpg","stimuli/BF05_FO.jpg","stimuli/WM11_CC.jpg","stimuli/BM04_SUR.jpg","pos1","stimuli/BF04_HO.jpg","HO","BF04","0","3.5","7","6","stimuli/stars_7.png","204.5","[""HO"",""FO"",""CC"",""SUR""]","[""BF04"",""BF05"",""WM11"",""BM04""]","[7,4,8,3]","[6,4,8,2]","","",""
"show-reward","120","331567","0.0-120.0","p542901","AU849EHZNGV2Z","3S1L4CQSFYBD9IN1W8PCJQ1H8N7AFE","3QHK8ZVMIOO7F40JEZX7YYLW6C7BLX","emotion","mismatch","uniform","","","","","","","","331323.10000002384","333328.5","","","","","","","","","","","","7","","stimuli/stars_7.png","204.5","","","","","stimuli/BF04_HO.jpg","",""
"explore-choice","121","333392","0.0-121.0","p542901","AU849EHZNGV2Z","3S1L4CQSFYBD9IN1W8PCJQ1H8N7AFE","3QHK8ZVMIOO7F40JEZX7YYLW6C7BLX","emotion","mismatch","uniform","","","","","","","1321.3000000715256","333330.39999997616","334651.7000000477","[""stimuli/BF05_CC.jpg"",""stimuli/BM04_SUR.jpg"",""stimuli/BF04_HO.jpg"",""stimuli/WM11_FO.jpg""]","stimuli/BF05_CC.jpg","stimuli/BM04_SUR.jpg","stimuli/BF04_HO.jpg","stimuli/WM11_FO.jpg","pos3","stimuli/BF04_HO.jpg","HO","BF04","2","2.5","5","6","stimuli/stars_5.png","207","[""CC"",""SUR"",""HO"",""FO""]","[""BF05"",""BM04"",""BF04"",""WM11""]","[4,2,5,9]","[4,2,6,8]","","",""
"show-reward","122","335400","0.0-122.0","p542901","AU849EHZNGV2Z","3S1L4CQSFYBD9IN1W8PCJQ1H8N7AFE","3QHK8ZVMIOO7F40JEZX7YYLW6C7BLX","emotion","mismatch","uniform","","","","","","","","335155.60000002384","337161.3000000715","","","","","","","","","","","","5","","stimuli/stars_5.png","207","","","","","stimuli/BF04_HO.jpg","",""
"explore-choice","123","336884","0.0-123.0","p542901","AU849EHZNGV2Z","3S1L4CQSFYBD9IN1W8PCJQ1H8N7AFE","3QHK8ZVMIOO7F40JEZX7YYLW6C7BLX","emotion","mismatch","uniform","","","","","","","968.3999999761581","337163.2000000477","338131.60000002384","[""stimuli/BF04_FO.jpg"",""stimuli/BM04_HO.jpg"",""stimuli/WM11_SUR.jpg"",""stimuli/BF05_CC.jpg""]","stimuli/BF04_FO.jpg","stimuli/BM04_HO.jpg","stimuli/WM11_SUR.jpg","stimuli/BF05_CC.jpg","pos2","stimuli/BM04_HO.jpg","HO","BM04","1","1.5","3","2","stimuli/stars_3.png","208.5","[""FO"",""HO"",""SUR"",""CC""]","[""BF04"",""BM04"",""WM11"",""BF05""]","[6,3,10,4]","[6,2,8,4]","","",""
"show-reward","124","338892","0.0-124.0","p542901","AU849EHZNGV2Z","3S1L4CQSFYBD9IN1W8PCJQ1H8N7AFE","3QHK8ZVMIOO7F40JEZX7YYLW6C7BLX","emotion","mismatch","uniform","","","","","","","","338647.7000000477","340653.5","","","","","","","","","","","","3","","stimuli/stars_3.png","208.5","","","","","stimuli/BM04_HO.jpg","",""
"explore-choice","125","340886","0.0-125.0","p542901","AU849EHZNGV2Z","3S1L4CQSFYBD9IN1W8PCJQ1H8N7AFE","3QHK8ZVMIOO7F40JEZX7YYLW6C7BLX","emotion","mismatch","uniform","","","","","","","1492.6000000238419","340655","342147.60000002384","[""stimuli/WM11_FO.jpg"",""stimuli/BF05_SUR.jpg"",""stimuli/BM04_HO.jpg"",""stimuli/BF04_CC.jpg""]","stimuli/WM11_FO.jpg","stimuli/BF05_SUR.jpg","stimuli/BM04_HO.jpg","stimuli/BF04_CC.jpg","pos1","stimuli/WM11_FO.jpg","FO","WM11","0","4","8","8","stimuli/stars_8.png","212.5","[""FO"",""SUR"",""HO"",""CC""]","[""WM11"",""BF05"",""BM04"",""BF04""]","[8,6,3,8]","[8,4,2,6]","","",""
"show-reward","126","342889","0.0-126.0","p542901","AU849EHZNGV2Z","3S1L4CQSFYBD9IN1W8PCJQ1H8N7AFE","3QHK8ZVMIOO7F40JEZX7YYLW6C7BLX","emotion","mismatch","uniform","","","","","","","","342648.60000002384","344651","","","","","","","","","","","","8","","stimuli/stars_8.png","212.5","","","","","stimuli/WM11_FO.jpg","",""
"explore-choice","127","345047","0.0-127.0","p542901","AU849EHZNGV2Z","3S1L4CQSFYBD9IN1W8PCJQ1H8N7AFE","3QHK8ZVMIOO7F40JEZX7YYLW6C7BLX","emotion","mismatch","uniform","","","","","","","1655.8999999761581","344651.60000002384","346307.5","[""stimuli/BF05_SUR.jpg"",""stimuli/BM04_FO.jpg"",""stimuli/WM11_CC.jpg"",""stimuli/BF04_HO.jpg""]","stimuli/BF05_SUR.jpg","stimuli/BM04_FO.jpg","stimuli/WM11_CC.jpg","stimuli/BF04_HO.jpg","pos1","stimuli/BF05_SUR.jpg","SUR","BF05","0","3","6","4","stimuli/stars_6.png","215.5","[""SUR"",""FO"",""CC"",""HO""]","[""BF05"",""BM04"",""WM11"",""BF04""]","[6,0,9,6]","[4,2,8,6]","","",""
"show-reward","128","347057","0.0-128.0","p542901","AU849EHZNGV2Z","3S1L4CQSFYBD9IN1W8PCJQ1H8N7AFE","3QHK8ZVMIOO7F40JEZX7YYLW6C7BLX","emotion","mismatch","uniform","","","","","","","","346810.39999997616","348818.8000000715","","","","","","","","","","","","6","","stimuli/stars_6.png","215.5","","","","","stimuli/BF05_SUR.jpg","",""
"explore-choice","129","349150","0.0-129.0","p542901","AU849EHZNGV2Z","3S1L4CQSFYBD9IN1W8PCJQ1H8N7AFE","3QHK8ZVMIOO7F40JEZX7YYLW6C7BLX","emotion","mismatch","uniform","","","","","","","1590.6999999284744","348820.7000000477","350411.39999997616","[""stimuli/BF05_HO.jpg"",""stimuli/WM11_CC.jpg"",""stimuli/BM04_FO.jpg"",""stimuli/BF04_SUR.jpg""]","stimuli/BF05_HO.jpg","stimuli/WM11_CC.jpg","stimuli/BM04_FO.jpg","stimuli/BF04_SUR.jpg","pos3","stimuli/BM04_FO.jpg","FO","BM04","2","0.5","1","2","stimuli/stars_1.png","216","[""HO"",""CC"",""FO"",""SUR""]","[""BF05"",""WM11"",""BM04"",""BF04""]","[2,10,1,8]","[4,8,2,6]","","",""
"show-reward","130","351158","0.0-130.0","p542901","AU849EHZNGV2Z","3S1L4CQSFYBD9IN1W8PCJQ1H8N7AFE","3QHK8ZVMIOO7F40JEZX7YYLW6C7BLX","emotion","mismatch","uniform","","","","","","","","350914.2000000477","352919.60000002384","","","","","","","","","","","","1","","stimuli/stars_1.png","216","","","","","stimuli/BM04_FO.jpg","",""
"explore-choice","131","352518","0.0-131.0","p542901","AU849EHZNGV2Z","3S1L4CQSFYBD9IN1W8PCJQ1H8N7AFE","3QHK8ZVMIOO7F40JEZX7YYLW6C7BLX","emotion","mismatch","uniform","","","","","","","858.1000000238419","352921.5","353779.60000002384","[""stimuli/WM11_FO.jpg"",""stimuli/BF04_SUR.jpg"",""stimuli/BF05_CC.jpg"",""stimuli/BM04_HO.jpg""]","stimuli/WM11_FO.jpg","stimuli/BF04_SUR.jpg","stimuli/BF05_CC.jpg","stimuli/BM04_HO.jpg","pos1","stimuli/WM11_FO.jpg","FO","WM11","0","3.5","7","8","stimuli/stars_7.png","219.5","[""FO"",""SUR"",""CC"",""HO""]","[""WM11"",""BF04"",""BF05"",""BM04""]","[7,6,5,1]","[8,6,4,2]","","",""
"show-reward","132","354522","0.0-132.0","p542901","AU849EHZNGV2Z","3S1L4CQSFYBD9IN1W8PCJQ1H8N7AFE","3QHK8ZVMIOO7F40JEZX7YYLW6C7BLX","emotion","mismatch","uniform","","","","","","","","354280.89999997616","356283.8000000715","","","","","","","","","","","","7","","stimuli/stars_7.png","219.5","","","","","stimuli/WM11_FO.jpg","",""
"explore-choice","133","356494","0.0-133.0","p542901","AU849EHZNGV2Z","3S1L4CQSFYBD9IN1W8PCJQ1H8N7AFE","3QHK8ZVMIOO7F40JEZX7YYLW6C7BLX","emotion","mismatch","uniform","","","","","","","1470.8999999761581","356284.60000002384","357755.5","[""stimuli/BF04_HO.jpg"",""stimuli/BF05_FO.jpg"",""stimuli/WM11_SUR.jpg"",""stimuli/BM04_CC.jpg""]","stimuli/BF04_HO.jpg","stimuli/BF05_FO.jpg","stimuli/WM11_SUR.jpg","stimuli/BM04_CC.jpg","pos3","stimuli/WM11_SUR.jpg","SUR","WM11","2","3.5","7","8","stimuli/stars_7.png","223","[""HO"",""FO"",""SUR"",""CC""]","[""BF04"",""BF05"",""WM11"",""BM04""]","[6,4,7,0]","[6,4,8,2]","","",""
"show-reward","134","358500","0.0-134.0","p542901","AU849EHZNGV2Z","3S1L4CQSFYBD9IN1W8PCJQ1H8N7AFE","3QHK8ZVMIOO7F40JEZX7YYLW6C7BLX","emotion","mismatch","uniform","","","","","","","","358257.3000000715","360261.60000002384","","","","","","","","","","","","7","","stimuli/stars_7.png","223","","","","","stimuli/WM11_SUR.jpg","",""
"explore-choice","135","359902","0.0-135.0","p542901","AU849EHZNGV2Z","3S1L4CQSFYBD9IN1W8PCJQ1H8N7AFE","3QHK8ZVMIOO7F40JEZX7YYLW6C7BLX","emotion","mismatch","uniform","","","","","","","900.1999999284744","360263.3000000715","361163.5","[""stimuli/BF04_CC.jpg"",""stimuli/WM11_FO.jpg"",""stimuli/BM04_SUR.jpg"",""stimuli/BF05_HO.jpg""]","stimuli/BF04_CC.jpg","stimuli/WM11_FO.jpg","stimuli/BM04_SUR.jpg","stimuli/BF05_HO.jpg","pos2","stimuli/WM11_FO.jpg","FO","WM11","1","3.5","7","8","stimuli/stars_7.png","226.5","[""CC"",""FO"",""SUR"",""HO""]","[""BF04"",""WM11"",""BM04"",""BF05""]","[5,7,0,3]","[6,8,2,4]","","",""
"show-reward","136","361909","0.0-136.0","p542901","AU849EHZNGV2Z","3S1L4CQSFYBD9IN1W8PCJQ1H8N7AFE","3QHK8ZVMIOO7F40JEZX7YYLW6C7BLX","emotion","mismatch","uniform","","","","","","","","361665.89999997616","363670.7000000477","","","","","","","","","","","","7","","stimuli/stars_7.png","226.5","","","","","stimuli/WM11_FO.jpg","",""
"explore-choice","137","363695","0.0-137.0","p542901","AU849EHZNGV2Z","3S1L4CQSFYBD9IN1W8PCJQ1H8N7AFE","3QHK8ZVMIOO7F40JEZX7YYLW6C7BLX","emotion","mismatch","uniform","","","","","","","1282.8999999761581","363672.60000002384","364955.5","[""stimuli/BF04_SUR.jpg"",""stimuli/BF05_CC.jpg"",""stimuli/WM11_HO.jpg"",""stimuli/BM04_FO.jpg""]","stimuli/BF04_SUR.jpg","stimuli/BF05_CC.jpg","stimuli/WM11_HO.jpg","stimuli/BM04_FO.jpg","pos3","stimuli/WM11_HO.jpg","HO","WM11","2","4.5","9","8","stimuli/stars_9.png","231","[""SUR"",""CC"",""HO"",""FO""]","[""BF04"",""BF05"",""WM11"",""BM04""]","[4,4,9,0]","[6,4,8,2]","","",""
"show-reward","138","365706","0.0-138.0","p542901","AU849EHZNGV2Z","3S1L4CQSFYBD9IN1W8PCJQ1H8N7AFE","3QHK8ZVMIOO7F40JEZX7YYLW6C7BLX","emotion","mismatch","uniform","","","","","","","","365458.39999997616","367468","","","","","","","","","","","","9","","stimuli/stars_9.png","231","","","","","stimuli/WM11_HO.jpg","",""
"explore-choice","139","367094","0.0-139.0","p542901","AU849EHZNGV2Z","3S1L4CQSFYBD9IN1W8PCJQ1H8N7AFE","3QHK8ZVMIOO7F40JEZX7YYLW6C7BLX","emotion","mismatch","uniform","","","","","","","885.8999999761581","367469.8000000715","368355.7000000477","[""stimuli/BF04_HO.jpg"",""stimuli/BF05_SUR.jpg"",""stimuli/BM04_CC.jpg"",""stimuli/WM11_FO.jpg""]","stimuli/BF04_HO.jpg","stimuli/BF05_SUR.jpg","stimuli/BM04_CC.jpg","stimuli/WM11_FO.jpg","pos4","stimuli/WM11_FO.jpg","FO","WM11","3","4.5","9","8","stimuli/stars_9.png","235.5","[""HO"",""SUR"",""CC"",""FO""]","[""BF04"",""BF05"",""BM04"",""WM11""]","[5,5,3,9]","[6,4,2,8]","","",""
"show-reward","140","369097","0.0-140.0","p542901","AU849EHZNGV2Z","3S1L4CQSFYBD9IN1W8PCJQ1H8N7AFE","3QHK8ZVMIOO7F40JEZX7YYLW6C7BLX","emotion","mismatch","uniform","","","","","","","","368856.8000000715","370859.2000000477","","","","","","","","","","","","9","","stimuli/stars_9.png","235.5","","","","","stimuli/WM11_FO.jpg","",""
"explore-choice","141","370351","0.0-141.0","p542901","AU849EHZNGV2Z","3S1L4CQSFYBD9IN1W8PCJQ1H8N7AFE","3QHK8ZVMIOO7F40JEZX7YYLW6C7BLX","emotion","mismatch","uniform","","","","","","","751.7000000476837","370859.89999997616","371611.60000002384","[""stimuli/BF04_FO.jpg"",""stimuli/WM11_SUR.jpg"",""stimuli/BM04_CC.jpg"",""stimuli/BF05_HO.jpg""]","stimuli/BF04_FO.jpg","stimuli/WM11_SUR.jpg","stimuli/BM04_CC.jpg","stimuli/BF05_HO.jpg","pos2","stimuli/WM11_SUR.jpg","SUR","WM11","1","4.5","9","8","stimuli/stars_9.png","240","[""FO"",""SUR"",""CC"",""HO""]","[""BF04"",""WM11"",""BM04"",""BF05""]","[8,9,1,4]","[6,8,2,4]","","",""
"show-reward","142","372359","0.0-142.0","p542901","AU849EHZNGV2Z","3S1L4CQSFYBD9IN1W8PCJQ1H8N7AFE","3QHK8ZVMIOO7F40JEZX7YYLW6C7BLX","emotion","mismatch","uniform","","","","","","","","372114.89999997616","374120.5","","","","","","","","","","","","9","","stimuli/stars_9.png","240","","","","","stimuli/WM11_SUR.jpg","",""
"explore-choice","143","373552","0.0-143.0","p542901","AU849EHZNGV2Z","3S1L4CQSFYBD9IN1W8PCJQ1H8N7AFE","3QHK8ZVMIOO7F40JEZX7YYLW6C7BLX","emotion","mismatch","uniform","","","","","","","689.2999999523163","374122.3000000715","374811.60000002384","[""stimuli/WM11_HO.jpg"",""stimuli/BF05_FO.jpg"",""stimuli/BF04_CC.jpg"",""stimuli/BM04_SUR.jpg""]","stimuli/WM11_HO.jpg","stimuli/BF05_FO.jpg","stimuli/BF04_CC.jpg","stimuli/BM04_SUR.jpg","pos1","stimuli/WM11_HO.jpg","HO","WM11","0","4.5","9","8","stimuli/stars_9.png","244.5","[""HO"",""FO"",""CC"",""SUR""]","[""WM11"",""BF05"",""BF04"",""BM04""]","[9,6,7,2]","[8,4,6,2]","","",""
"show-reward","144","375559","0.0-144.0","p542901","AU849EHZNGV2Z","3S1L4CQSFYBD9IN1W8PCJQ1H8N7AFE","3QHK8ZVMIOO7F40JEZX7YYLW6C7BLX","emotion","mismatch","uniform","","","","","","","","375316.7000000477","377321.10000002384","","","","","","","","","","","","9","","stimuli/stars_9.png","244.5","","","","","stimuli/WM11_HO.jpg","",""
"explore-choice","145","376598","0.0-145.0","p542901","AU849EHZNGV2Z","3S1L4CQSFYBD9IN1W8PCJQ1H8N7AFE","3QHK8ZVMIOO7F40JEZX7YYLW6C7BLX","emotion","mismatch","uniform","","","","","","","536.5999999046326","377322.8000000715","377859.39999997616","[""stimuli/WM11_SUR.jpg"",""stimuli/BF04_HO.jpg"",""stimuli/BF05_CC.jpg"",""stimuli/BM04_FO.jpg""]","stimuli/WM11_SUR.jpg","stimuli/BF04_HO.jpg","stimuli/BF05_CC.jpg","stimuli/BM04_FO.jpg","pos1","stimuli/WM11_SUR.jpg","SUR","WM11","0","3.5","7","8","stimuli/stars_7.png","248","[""SUR"",""HO"",""CC"",""FO""]","[""WM11"",""BF04"",""BF05"",""BM04""]","[7,8,3,4]","[8,6,4,2]","","",""
"show-reward","146","378604","0.0-146.0","p542901","AU849EHZNGV2Z","3S1L4CQSFYBD9IN1W8PCJQ1H8N7AFE","3QHK8ZVMIOO7F40JEZX7YYLW6C7BLX","emotion","mismatch","uniform","","","","","","","","378361.60000002384","380366.3000000715","","","","","","","","","","","","7","","stimuli/stars_7.png","248","","","","","stimuli/WM11_SUR.jpg","",""
"explore-choice","147","379686","0.0-147.0","p542901","AU849EHZNGV2Z","3S1L4CQSFYBD9IN1W8PCJQ1H8N7AFE","3QHK8ZVMIOO7F40JEZX7YYLW6C7BLX","emotion","mismatch","uniform","","","","","","","580.6000000238419","380366.89999997616","380947.5","[""stimuli/WM11_HO.jpg"",""stimuli/BF05_FO.jpg"",""stimuli/BM04_CC.jpg"",""stimuli/BF04_SUR.jpg""]","stimuli/WM11_HO.jpg","stimuli/BF05_FO.jpg","stimuli/BM04_CC.jpg","stimuli/BF04_SUR.jpg","pos1","stimuli/WM11_HO.jpg","HO","WM11","0","4.5","9","8","stimuli/stars_9.png","252.5","[""HO"",""FO"",""CC"",""SUR""]","[""WM11"",""BF05"",""BM04"",""BF04""]","[9,3,0,7]","[8,4,2,6]","","",""
"show-reward","148","381689","0.0-148.0","p542901","AU849EHZNGV2Z","3S1L4CQSFYBD9IN1W8PCJQ1H8N7AFE","3QHK8ZVMIOO7F40JEZX7YYLW6C7BLX","emotion","mismatch","uniform","","","","","","","","381448.39999997616","383450.8000000715","","","","","","","","","","","","9","","stimuli/stars_9.png","252.5","","","","","stimuli/WM11_HO.jpg","",""
"explore-choice","149","382966","0.0-149.0","p542901","AU849EHZNGV2Z","3S1L4CQSFYBD9IN1W8PCJQ1H8N7AFE","3QHK8ZVMIOO7F40JEZX7YYLW6C7BLX","emotion","mismatch","uniform","","","","","","","775.8999999761581","383451.60000002384","384227.5","[""stimuli/BF05_SUR.jpg"",""stimuli/BF04_FO.jpg"",""stimuli/WM11_HO.jpg"",""stimuli/BM04_CC.jpg""]","stimuli/BF05_SUR.jpg","stimuli/BF04_FO.jpg","stimuli/WM11_HO.jpg","stimuli/BM04_CC.jpg","pos3","stimuli/WM11_HO.jpg","HO","WM11","2","5","10","8","stimuli/stars_10.png","257.5","[""SUR"",""FO"",""HO"",""CC""]","[""BF05"",""BF04"",""WM11"",""BM04""]","[3,5,10,1]","[4,6,8,2]","","",""
"show-reward","150","384975","0.0-150.0","p542901","AU849EHZNGV2Z","3S1L4CQSFYBD9IN1W8PCJQ1H8N7AFE","3QHK8ZVMIOO7F40JEZX7YYLW6C7BLX","emotion","mismatch","uniform","","","","","","","","384730","386736.8000000715","","","","","","","","","","","","10","","stimuli/stars_10.png","257.5","","","","","stimuli/WM11_HO.jpg","",""
"explore-choice","151","386046","0.0-151.0","p542901","AU849EHZNGV2Z","3S1L4CQSFYBD9IN1W8PCJQ1H8N7AFE","3QHK8ZVMIOO7F40JEZX7YYLW6C7BLX","emotion","mismatch","uniform","","","","","","","568.7000000476837","386738.60000002384","387307.3000000715","[""stimuli/WM11_HO.jpg"",""stimuli/BM04_CC.jpg"",""stimuli/BF05_FO.jpg"",""stimuli/BF04_SUR.jpg""]","stimuli/WM11_HO.jpg","stimuli/BM04_CC.jpg","stimuli/BF05_FO.jpg","stimuli/BF04_SUR.jpg","pos1","stimuli/WM11_HO.jpg","HO","WM11","0","4.5","9","8","stimuli/stars_9.png","262","[""HO"",""CC"",""FO"",""SUR""]","[""WM11"",""BM04"",""BF05"",""BF04""]","[9,0,3,7]","[8,2,4,6]","","",""
"show-reward","152","388049","0.0-152.0","p542901","AU849EHZNGV2Z","3S1L4CQSFYBD9IN1W8PCJQ1H8N7AFE","3QHK8ZVMIOO7F40JEZX7YYLW6C7BLX","emotion","mismatch","uniform","","","","","","","","387809","389811","","","","","","","","","","","","9","","stimuli/stars_9.png","262","","","","","stimuli/WM11_HO.jpg","",""
"explore-choice","153","389130","0.0-153.0","p542901","AU849EHZNGV2Z","3S1L4CQSFYBD9IN1W8PCJQ1H8N7AFE","3QHK8ZVMIOO7F40JEZX7YYLW6C7BLX","emotion","mismatch","uniform","","","","","","","566.7000000476837","389813","390379.7000000477","[""stimuli/WM11_FO.jpg"",""stimuli/BF05_CC.jpg"",""stimuli/BF04_HO.jpg"",""stimuli/BM04_SUR.jpg""]","stimuli/WM11_FO.jpg","stimuli/BF05_CC.jpg","stimuli/BF04_HO.jpg","stimuli/BM04_SUR.jpg","pos1","stimuli/WM11_FO.jpg","FO","WM11","0","4.5","9","8","stimuli/stars_9.png","266.5","[""FO"",""CC"",""HO"",""SUR""]","[""WM11"",""BF05"",""BF04"",""BM04""]","[9,4,5,2]","[8,4,6,2]","","",""
"show-reward","154","391133","0.0-154.0","p542901","AU849EHZNGV2Z","3S1L4CQSFYBD9IN1W8PCJQ1H8N7AFE","3QHK8ZVMIOO7F40JEZX7YYLW6C7BLX","emotion","mismatch","uniform","","","","","","","","390892.60000002384","392894.89999997616","","","","","","","","","","","","9","","stimuli/stars_9.png","266.5","","","","","stimuli/WM11_FO.jpg","",""
"explore-choice","155","392335","0.0-155.0","p542901","AU849EHZNGV2Z","3S1L4CQSFYBD9IN1W8PCJQ1H8N7AFE","3QHK8ZVMIOO7F40JEZX7YYLW6C7BLX","emotion","mismatch","uniform","","","","","","","699.8999999761581","392895.7000000477","393595.60000002384","[""stimuli/BM04_CC.jpg"",""stimuli/BF05_SUR.jpg"",""stimuli/WM11_FO.jpg"",""stimuli/BF04_HO.jpg""]","stimuli/BM04_CC.jpg","stimuli/BF05_SUR.jpg","stimuli/WM11_FO.jpg","stimuli/BF04_HO.jpg","pos3","stimuli/WM11_FO.jpg","FO","WM11","2","4.5","9","8","stimuli/stars_9.png","271","[""CC"",""SUR"",""FO"",""HO""]","[""BM04"",""BF05"",""WM11"",""BF04""]","[3,5,9,5]","[2,4,8,6]","","",""
"show-reward","156","394341","0.0-156.0","p542901","AU849EHZNGV2Z","3S1L4CQSFYBD9IN1W8PCJQ1H8N7AFE","3QHK8ZVMIOO7F40JEZX7YYLW6C7BLX","emotion","mismatch","uniform","","","","","","","","394098.2000000477","396103","","","","","","","","","","","","9","","stimuli/stars_9.png","271","","","","","stimuli/WM11_FO.jpg","",""
"explore-choice","157","395455","0.0-157.0","p542901","AU849EHZNGV2Z","3S1L4CQSFYBD9IN1W8PCJQ1H8N7AFE","3QHK8ZVMIOO7F40JEZX7YYLW6C7BLX","emotion","mismatch","uniform","","","","","","","610.8000000715256","396104.89999997616","396715.7000000477","[""stimuli/WM11_FO.jpg"",""stimuli/BF05_HO.jpg"",""stimuli/BF04_CC.jpg"",""stimuli/BM04_SUR.jpg""]","stimuli/WM11_FO.jpg","stimuli/BF05_HO.jpg","stimuli/BF04_CC.jpg","stimuli/BM04_SUR.jpg","pos1","stimuli/WM11_FO.jpg","FO","WM11","0","3.5","7","8","stimuli/stars_7.png","274.5","[""FO"",""HO"",""CC"",""SUR""]","[""WM11"",""BF05"",""BF04"",""BM04""]","[7,3,5,0]","[8,4,6,2]","","",""
"show-reward","158","397462","0.0-158.0","p542901","AU849EHZNGV2Z","3S1L4CQSFYBD9IN1W8PCJQ1H8N7AFE","3QHK8ZVMIOO7F40JEZX7YYLW6C7BLX","emotion","mismatch","uniform","","","","","","","","397218.8000000715","399223.89999997616","","","","","","","","","","","","7","","stimuli/stars_7.png","274.5","","","","","stimuli/WM11_FO.jpg","",""
"explore-choice","159","398871","0.0-159.0","p542901","AU849EHZNGV2Z","3S1L4CQSFYBD9IN1W8PCJQ1H8N7AFE","3QHK8ZVMIOO7F40JEZX7YYLW6C7BLX","emotion","mismatch","uniform","","","","","","","905.8999999761581","399225.8000000715","400131.7000000477","[""stimuli/BF04_SUR.jpg"",""stimuli/BF05_CC.jpg"",""stimuli/BM04_FO.jpg"",""stimuli/WM11_HO.jpg""]","stimuli/BF04_SUR.jpg","stimuli/BF05_CC.jpg","stimuli/BM04_FO.jpg","stimuli/WM11_HO.jpg","pos4","stimuli/WM11_HO.jpg","HO","WM11","3","4.5","9","8","stimuli/stars_9.png","279","[""SUR"",""CC"",""FO"",""HO""]","[""BF04"",""BF05"",""BM04"",""WM11""]","[4,4,0,9]","[6,4,2,8]","","",""
"show-reward","160","400882","0.0-160.0","p542901","AU849EHZNGV2Z","3S1L4CQSFYBD9IN1W8PCJQ1H8N7AFE","3QHK8ZVMIOO7F40JEZX7YYLW6C7BLX","emotion","mismatch","uniform","","","","","","","","400634.3000000715","402643.7000000477","","","","","","","","","","","","9","","stimuli/stars_9.png","279","","","","","stimuli/WM11_HO.jpg","",""
"explore-choice","161","402238","0.0-161.0","p542901","AU849EHZNGV2Z","3S1L4CQSFYBD9IN1W8PCJQ1H8N7AFE","3QHK8ZVMIOO7F40JEZX7YYLW6C7BLX","emotion","mismatch","uniform","","","","","","","854.1000000238419","402645.5","403499.60000002384","[""stimuli/BF04_SUR.jpg"",""stimuli/BM04_HO.jpg"",""stimuli/BF05_CC.jpg"",""stimuli/WM11_FO.jpg""]","stimuli/BF04_SUR.jpg","stimuli/BM04_HO.jpg","stimuli/BF05_CC.jpg","stimuli/WM11_FO.jpg","pos4","stimuli/WM11_FO.jpg","FO","WM11","3","3.5","7","8","stimuli/stars_7.png","282.5","[""SUR"",""HO"",""CC"",""FO""]","[""BF04"",""BM04"",""BF05"",""WM11""]","[6,1,5,7]","[6,2,4,8]","","",""
"show-reward","162","404242","0.0-162.0","p542901","AU849EHZNGV2Z","3S1L4CQSFYBD9IN1W8PCJQ1H8N7AFE","3QHK8ZVMIOO7F40JEZX7YYLW6C7BLX","emotion","mismatch","uniform","","","","","","","","404001","406004.10000002384","","","","","","","","","","","","7","","stimuli/stars_7.png","282.5","","","","","stimuli/WM11_FO.jpg","",""
"explore-choice","163","406032","0.0-163.0","p542901","AU849EHZNGV2Z","3S1L4CQSFYBD9IN1W8PCJQ1H8N7AFE","3QHK8ZVMIOO7F40JEZX7YYLW6C7BLX","emotion","mismatch","uniform","","","","","","","1285.5","406006","407291.5","[""stimuli/WM11_SUR.jpg"",""stimuli/BF05_CC.jpg"",""stimuli/BM04_FO.jpg"",""stimuli/BF04_HO.jpg""]","stimuli/WM11_SUR.jpg","stimuli/BF05_CC.jpg","stimuli/BM04_FO.jpg","stimuli/BF04_HO.jpg","pos1","stimuli/WM11_SUR.jpg","SUR","WM11","0","3.5","7","8","stimuli/stars_7.png","286","[""SUR"",""CC"",""FO"",""HO""]","[""WM11"",""BF05"",""BM04"",""BF04""]","[7,3,4,8]","[8,4,2,6]","","",""
"show-reward","164","408039","0.0-164.0","p542901","AU849EHZNGV2Z","3S1L4CQSFYBD9IN1W8PCJQ1H8N7AFE","3QHK8ZVMIOO7F40JEZX7YYLW6C7BLX","emotion","mismatch","uniform","","","","","","","","407795.39999997616","409800.60000002384","","","","","","","","","","","","7","","stimuli/stars_7.png","286","","","","","stimuli/WM11_SUR.jpg","",""
"explore-choice","165","409334","0.0-165.0","p542901","AU849EHZNGV2Z","3S1L4CQSFYBD9IN1W8PCJQ1H8N7AFE","3QHK8ZVMIOO7F40JEZX7YYLW6C7BLX","emotion","mismatch","uniform","","","","","","","792.5","409803.10000002384","410595.60000002384","[""stimuli/BM04_CC.jpg"",""stimuli/BF04_HO.jpg"",""stimuli/WM11_SUR.jpg"",""stimuli/BF05_FO.jpg""]","stimuli/BM04_CC.jpg","stimuli/BF04_HO.jpg","stimuli/WM11_SUR.jpg","stimuli/BF05_FO.jpg","pos3","stimuli/WM11_SUR.jpg","SUR","WM11","2","3.5","7","8","stimuli/stars_7.png","289.5","[""CC"",""HO"",""SUR"",""FO""]","[""BM04"",""BF04"",""WM11"",""BF05""]","[0,6,7,4]","[2,6,8,4]","","",""
"show-reward","166","411338","0.0-166.0","p542901","AU849EHZNGV2Z","3S1L4CQSFYBD9IN1W8PCJQ1H8N7AFE","3QHK8ZVMIOO7F40JEZX7YYLW6C7BLX","emotion","mismatch","uniform","","","","","","","","411096.7000000477","413099.60000002384","","","","","","","","","","","","7","","stimuli/stars_7.png","289.5","","","","","stimuli/WM11_SUR.jpg","",""
"explore-choice","167","412751","0.0-167.0","p542901","AU849EHZNGV2Z","3S1L4CQSFYBD9IN1W8PCJQ1H8N7AFE","3QHK8ZVMIOO7F40JEZX7YYLW6C7BLX","emotion","mismatch","uniform","","","","","","","911.2999999523163","413100.3000000715","414011.60000002384","[""stimuli/BF04_CC.jpg"",""stimuli/BF05_SUR.jpg"",""stimuli/WM11_FO.jpg"",""stimuli/BM04_HO.jpg""]","stimuli/BF04_CC.jpg","stimuli/BF05_SUR.jpg","stimuli/WM11_FO.jpg","stimuli/BM04_HO.jpg","pos3","stimuli/WM11_FO.jpg","FO","WM11","2","4","8","8","stimuli/stars_8.png","293.5","[""CC"",""SUR"",""FO"",""HO""]","[""BF04"",""BF05"",""WM11"",""BM04""]","[8,6,8,3]","[6,4,8,2]","","",""
"show-reward","168","414759","0.0-168.0","p542901","AU849EHZNGV2Z","3S1L4CQSFYBD9IN1W8PCJQ1H8N7AFE","3QHK8ZVMIOO7F40JEZX7YYLW6C7BLX","emotion","mismatch","uniform","","","","","","","","414515","416520.3000000715","","","","","","","","","","","","8","","stimuli/stars_8.png","293.5","","","","","stimuli/WM11_FO.jpg","",""
"explore-choice","169","416135","0.0-169.0","p542901","AU849EHZNGV2Z","3S1L4CQSFYBD9IN1W8PCJQ1H8N7AFE","3QHK8ZVMIOO7F40JEZX7YYLW6C7BLX","emotion","mismatch","uniform","","","","","","","873.6000000238419","416522.10000002384","417395.7000000477","[""stimuli/BM04_SUR.jpg"",""stimuli/BF05_FO.jpg"",""stimuli/BF04_CC.jpg"",""stimuli/WM11_HO.jpg""]","stimuli/BM04_SUR.jpg","stimuli/BF05_FO.jpg","stimuli/BF04_CC.jpg","stimuli/WM11_HO.jpg","pos4","stimuli/WM11_HO.jpg","HO","WM11","3","4.5","9","8","stimuli/stars_9.png","298","[""SUR"",""FO"",""CC"",""HO""]","[""BM04"",""BF05"",""BF04"",""WM11""]","[2,6,7,9]","[2,4,6,8]","","",""
"show-reward","170","418148","0.0-170.0","p542901","AU849EHZNGV2Z","3S1L4CQSFYBD9IN1W8PCJQ1H8N7AFE","3QHK8ZVMIOO7F40JEZX7YYLW6C7BLX","emotion","mismatch","uniform","","","","","","","","417898.39999997616","419910.10000002384","","","","","","","","","","","","9","","stimuli/stars_9.png","298","","","","","stimuli/WM11_HO.jpg","",""
"explore-choice","171","419455","0.0-171.0","p542901","AU849EHZNGV2Z","3S1L4CQSFYBD9IN1W8PCJQ1H8N7AFE","3QHK8ZVMIOO7F40JEZX7YYLW6C7BLX","emotion","mismatch","uniform","","","","","","","803.5","419912.10000002384","420715.60000002384","[""stimuli/BF05_CC.jpg"",""stimuli/BM04_SUR.jpg"",""stimuli/WM11_HO.jpg"",""stimuli/BF04_FO.jpg""]","stimuli/BF05_CC.jpg","stimuli/BM04_SUR.jpg","stimuli/WM11_HO.jpg","stimuli/BF04_FO.jpg","pos3","stimuli/WM11_HO.jpg","HO","WM11","2","3","6","8","stimuli/stars_6.png","301","[""CC"",""SUR"",""HO"",""FO""]","[""BF05"",""BM04"",""WM11"",""BF04""]","[2,1,6,5]","[4,2,8,6]","","",""
"show-reward","172","421463","0.0-172.0","p542901","AU849EHZNGV2Z","3S1L4CQSFYBD9IN1W8PCJQ1H8N7AFE","3QHK8ZVMIOO7F40JEZX7YYLW6C7BLX","emotion","mismatch","uniform","","","","","","","","421218.2000000477","423225.2000000477","","","","","","","","","","","","6","","stimuli/stars_6.png","301","","","","","stimuli/WM11_HO.jpg","",""
"explore-choice","173","422759","0.0-173.0","p542901","AU849EHZNGV2Z","3S1L4CQSFYBD9IN1W8PCJQ1H8N7AFE","3QHK8ZVMIOO7F40JEZX7YYLW6C7BLX","emotion","mismatch","uniform","","","","","","","793.8000000715256","423225.89999997616","424019.7000000477","[""stimuli/WM11_FO.jpg"",""stimuli/BF04_SUR.jpg"",""stimuli/BF05_HO.jpg"",""stimuli/BM04_CC.jpg""]","stimuli/WM11_FO.jpg","stimuli/BF04_SUR.jpg","stimuli/BF05_HO.jpg","stimuli/BM04_CC.jpg","pos1","stimuli/WM11_FO.jpg","FO","WM11","0","3.5","7","8","stimuli/stars_7.png","304.5","[""FO"",""SUR"",""HO"",""CC""]","[""WM11"",""BF04"",""BF05"",""BM04""]","[7,4,2,3]","[8,6,4,2]","","",""
"show-reward","174","424766","0.0-174.0","p542901","AU849EHZNGV2Z","3S1L4CQSFYBD9IN1W8PCJQ1H8N7AFE","3QHK8ZVMIOO7F40JEZX7YYLW6C7BLX","emotion","mismatch","uniform","","","","","","","","424522.3000000715","426527.10000002384","","","","","","","","","","","","7","","stimuli/stars_7.png","304.5","","","","","stimuli/WM11_FO.jpg","",""
"explore-choice","175","426039","0.0-175.0","p542901","AU849EHZNGV2Z","3S1L4CQSFYBD9IN1W8PCJQ1H8N7AFE","3QHK8ZVMIOO7F40JEZX7YYLW6C7BLX","emotion","mismatch","uniform","","","","","","","771.1000000238419","426529.10000002384","427300.2000000477","[""stimuli/WM11_CC.jpg"",""stimuli/BF05_SUR.jpg"",""stimuli/BF04_HO.jpg"",""stimuli/BM04_FO.jpg""]","stimuli/WM11_CC.jpg","stimuli/BF05_SUR.jpg","stimuli/BF04_HO.jpg","stimuli/BM04_FO.jpg","pos1","stimuli/WM11_CC.jpg","CC","WM11","0","4.5","9","8","stimuli/stars_9.png","309","[""CC"",""SUR"",""HO"",""FO""]","[""WM11"",""BF05"",""BF04"",""BM04""]","[9,6,6,0]","[8,4,6,2]","","",""
"show-reward","176","428042","0.0-176.0","p542901","AU849EHZNGV2Z","3S1L4CQSFYBD9IN1W8PCJQ1H8N7AFE","3QHK8ZVMIOO7F40JEZX7YYLW6C7BLX","emotion","mismatch","uniform","","","","","","","","427801.10000002384","429803.39999997616","","","","","","","","","","","","9","","stimuli/stars_9.png","309","","","","","stimuli/WM11_CC.jpg","",""
"explore-choice","177","429255","0.0-177.0","p542901","AU849EHZNGV2Z","3S1L4CQSFYBD9IN1W8PCJQ1H8N7AFE","3QHK8ZVMIOO7F40JEZX7YYLW6C7BLX","emotion","mismatch","uniform","","","","","","","710.2000000476837","429805.39999997616","430515.60000002384","[""stimuli/BF05_FO.jpg"",""stimuli/WM11_SUR.jpg"",""stimuli/BM04_HO.jpg"",""stimuli/BF04_CC.jpg""]","stimuli/BF05_FO.jpg","stimuli/WM11_SUR.jpg","stimuli/BM04_HO.jpg","stimuli/BF04_CC.jpg","pos2","stimuli/WM11_SUR.jpg","SUR","WM11","1","5","10","8","stimuli/stars_10.png","314","[""FO"",""SUR"",""HO"",""CC""]","[""BF05"",""WM11"",""BM04"",""BF04""]","[5,10,4,7]","[4,8,2,6]","","",""
"show-reward","178","431260","0.0-178.0","p542901","AU849EHZNGV2Z","3S1L4CQSFYBD9IN1W8PCJQ1H8N7AFE","3QHK8ZVMIOO7F40JEZX7YYLW6C7BLX","emotion","mismatch","uniform","","","","","","","","431018.8000000715","433021.5","","","","","","","","","","","","10","","stimuli/stars_10.png","314","","","","","stimuli/WM11_SUR.jpg","",""
"explore-choice","179","432782","0.0-179.0","p542901","AU849EHZNGV2Z","3S1L4CQSFYBD9IN1W8PCJQ1H8N7AFE","3QHK8ZVMIOO7F40JEZX7YYLW6C7BLX","emotion","mismatch","uniform","","","","","","","1020","433023.7000000477","434043.7000000477","[""stimuli/BF05_SUR.jpg"",""stimuli/BM04_FO.jpg"",""stimuli/BF04_CC.jpg"",""stimuli/WM11_HO.jpg""]","stimuli/BF05_SUR.jpg","stimuli/BM04_FO.jpg","stimuli/BF04_CC.jpg","stimuli/WM11_HO.jpg","pos4","stimuli/WM11_HO.jpg","HO","WM11","3","4","8","8","stimuli/stars_8.png","318","[""SUR"",""FO"",""CC"",""HO""]","[""BF05"",""BM04"",""BF04"",""WM11""]","[4,3,6,8]","[4,2,6,8]","","",""
"show-reward","180","434785","0.0-180.0","p542901","AU849EHZNGV2Z","3S1L4CQSFYBD9IN1W8PCJQ1H8N7AFE","3QHK8ZVMIOO7F40JEZX7YYLW6C7BLX","emotion","mismatch","uniform","","","","","","","","434545","436547.3000000715","","","","","","","","","","","","8","","stimuli/stars_8.png","318","","","","","stimuli/WM11_HO.jpg","",""
"explore-choice","181","436215","0.0-181.0","p542901","AU849EHZNGV2Z","3S1L4CQSFYBD9IN1W8PCJQ1H8N7AFE","3QHK8ZVMIOO7F40JEZX7YYLW6C7BLX","emotion","mismatch","uniform","","","","","","","926.7000000476837","436549.10000002384","437475.8000000715","[""stimuli/BF04_FO.jpg"",""stimuli/BF05_SUR.jpg"",""stimuli/WM11_CC.jpg"",""stimuli/BM04_HO.jpg""]","stimuli/BF04_FO.jpg","stimuli/BF05_SUR.jpg","stimuli/WM11_CC.jpg","stimuli/BM04_HO.jpg","pos3","stimuli/WM11_CC.jpg","CC","WM11","2","4.5","9","8","stimuli/stars_9.png","322.5","[""FO"",""SUR"",""CC"",""HO""]","[""BF04"",""BF05"",""WM11"",""BM04""]","[4,2,9,4]","[6,4,8,2]","","",""
"show-reward","182","438223","0.0-182.0","p542901","AU849EHZNGV2Z","3S1L4CQSFYBD9IN1W8PCJQ1H8N7AFE","3QHK8ZVMIOO7F40JEZX7YYLW6C7BLX","emotion","mismatch","uniform","","","","","","","","437978.10000002384","439983.39999997616","","","","","","","","","","","","9","","stimuli/stars_9.png","322.5","","","","","stimuli/WM11_CC.jpg","",""
"explore-choice","183","439463","0.0-183.0","p542901","AU849EHZNGV2Z","3S1L4CQSFYBD9IN1W8PCJQ1H8N7AFE","3QHK8ZVMIOO7F40JEZX7YYLW6C7BLX","emotion","mismatch","uniform","","","","","","","738.1000000238419","439985.60000002384","440723.7000000477","[""stimuli/WM11_CC.jpg"",""stimuli/BF05_FO.jpg"",""stimuli/BM04_HO.jpg"",""stimuli/BF04_SUR.jpg""]","stimuli/WM11_CC.jpg","stimuli/BF05_FO.jpg","stimuli/BM04_HO.jpg","stimuli/BF04_SUR.jpg","pos1","stimuli/WM11_CC.jpg","CC","WM11","0","4","8","8","stimuli/stars_8.png","326.5","[""CC"",""FO"",""HO"",""SUR""]","[""WM11"",""BF05"",""BM04"",""BF04""]","[8,3,0,6]","[8,4,2,6]","","",""
"show-reward","184","441471","0.0-184.0","p542901","AU849EHZNGV2Z","3S1L4CQSFYBD9IN1W8PCJQ1H8N7AFE","3QHK8ZVMIOO7F40JEZX7YYLW6C7BLX","emotion","mismatch","uniform","","","","","","","","441226.5","443232.2000000477","","","","","","","","","","","","8","","stimuli/stars_8.png","326.5","","","","","stimuli/WM11_CC.jpg","",""
"explore-choice","185","442679","0.0-185.0","p542901","AU849EHZNGV2Z","3S1L4CQSFYBD9IN1W8PCJQ1H8N7AFE","3QHK8ZVMIOO7F40JEZX7YYLW6C7BLX","emotion","mismatch","uniform","","","","","","","705.7000000476837","443234","443939.7000000477","[""stimuli/WM11_HO.jpg"",""stimuli/BM04_CC.jpg"",""stimuli/BF04_FO.jpg"",""stimuli/BF05_SUR.jpg""]","stimuli/WM11_HO.jpg","stimuli/BM04_CC.jpg","stimuli/BF04_FO.jpg","stimuli/BF05_SUR.jpg","pos1","stimuli/WM11_HO.jpg","HO","WM11","0","5","10","8","stimuli/stars_10.png","331.5","[""HO"",""CC"",""FO"",""SUR""]","[""WM11"",""BM04"",""BF04"",""BF05""]","[10,1,5,3]","[8,2,6,4]","","",""
"show-reward","186","444686","0.0-186.0","p542901","AU849EHZNGV2Z","3S1L4CQSFYBD9IN1W8PCJQ1H8N7AFE","3QHK8ZVMIOO7F40JEZX7YYLW6C7BLX","emotion","mismatch","uniform","","","","","","","","444442.10000002384","446446.89999997616","","","","","","","","","","","","10","","stimuli/stars_10.png","331.5","","","","","stimuli/WM11_HO.jpg","",""
"explore-choice","187","446063","0.0-187.0","p542901","AU849EHZNGV2Z","3S1L4CQSFYBD9IN1W8PCJQ1H8N7AFE","3QHK8ZVMIOO7F40JEZX7YYLW6C7BLX","emotion","mismatch","uniform","","","","","","","875.1000000238419","446448.60000002384","447323.7000000477","[""stimuli/BM04_HO.jpg"",""stimuli/WM11_SUR.jpg"",""stimuli/BF05_CC.jpg"",""stimuli/BF04_FO.jpg""]","stimuli/BM04_HO.jpg","stimuli/WM11_SUR.jpg","stimuli/BF05_CC.jpg","stimuli/BF04_FO.jpg","pos2","stimuli/WM11_SUR.jpg","SUR","WM11","1","5","10","8","stimuli/stars_10.png","336.5","[""HO"",""SUR"",""CC"",""FO""]","[""BM04"",""WM11"",""BF05"",""BF04""]","[3,10,4,6]","[2,8,4,6]","","",""
"show-reward","188","448069","0.0-188.0","p542901","AU849EHZNGV2Z","3S1L4CQSFYBD9IN1W8PCJQ1H8N7AFE","3QHK8ZVMIOO7F40JEZX7YYLW6C7BLX","emotion","mismatch","uniform","","","","","","","","447825.89999997616","449830.10000002384","","","","","","","","","","","","10","","stimuli/stars_10.png","336.5","","","","","stimuli/WM11_SUR.jpg","",""
"explore-choice","189","451607","0.0-189.0","p542901","AU849EHZNGV2Z","3S1L4CQSFYBD9IN1W8PCJQ1H8N7AFE","3QHK8ZVMIOO7F40JEZX7YYLW6C7BLX","emotion","mismatch","uniform","","","","","","","3035.7000000476837","449831.89999997616","452867.60000002384","[""stimuli/BF04_HO.jpg"",""stimuli/BM04_SUR.jpg"",""stimuli/BF05_FO.jpg"",""stimuli/WM11_CC.jpg""]","stimuli/BF04_HO.jpg","stimuli/BM04_SUR.jpg","stimuli/BF05_FO.jpg","stimuli/WM11_CC.jpg","pos4","stimuli/WM11_CC.jpg","CC","WM11","3","4","8","8","stimuli/stars_8.png","340.5","[""HO"",""SUR"",""FO"",""CC""]","[""BF04"",""BM04"",""BF05"",""WM11""]","[7,3,4,8]","[6,2,4,8]","","",""
"show-reward","190","453616","0.0-190.0","p542901","AU849EHZNGV2Z","3S1L4CQSFYBD9IN1W8PCJQ1H8N7AFE","3QHK8ZVMIOO7F40JEZX7YYLW6C7BLX","emotion","mismatch","uniform","","","","","","","","453370.3000000715","455377.5","","","","","","","","","","","","8","","stimuli/stars_8.png","340.5","","","","","stimuli/WM11_CC.jpg","",""
"explore-choice","191","455032","0.0-191.0","p542901","AU849EHZNGV2Z","3S1L4CQSFYBD9IN1W8PCJQ1H8N7AFE","3QHK8ZVMIOO7F40JEZX7YYLW6C7BLX","emotion","mismatch","uniform","","","","","","","913","455378.7000000477","456291.7000000477","[""stimuli/WM11_SUR.jpg"",""stimuli/BF05_HO.jpg"",""stimuli/BM04_FO.jpg"",""stimuli/BF04_CC.jpg""]","stimuli/WM11_SUR.jpg","stimuli/BF05_HO.jpg","stimuli/BM04_FO.jpg","stimuli/BF04_CC.jpg","pos1","stimuli/WM11_SUR.jpg","SUR","WM11","0","4","8","8","stimuli/stars_8.png","344.5","[""SUR"",""HO"",""FO"",""CC""]","[""WM11"",""BF05"",""BM04"",""BF04""]","[8,4,1,6]","[8,4,2,6]","","",""
"show-reward","192","457039","0.0-192.0","p542901","AU849EHZNGV2Z","3S1L4CQSFYBD9IN1W8PCJQ1H8N7AFE","3QHK8ZVMIOO7F40JEZX7YYLW6C7BLX","emotion","mismatch","uniform","","","","","","","","456794.89999997616","458800","","","","","","","","","","","","8","","stimuli/stars_8.png","344.5","","","","","stimuli/WM11_SUR.jpg","",""
"explore-choice","193","458239","0.0-193.0","p542901","AU849EHZNGV2Z","3S1L4CQSFYBD9IN1W8PCJQ1H8N7AFE","3QHK8ZVMIOO7F40JEZX7YYLW6C7BLX","emotion","mismatch","uniform","","","","","","","697.8999999761581","458801.7000000477","459499.60000002384","[""stimuli/BF04_SUR.jpg"",""stimuli/WM11_CC.jpg"",""stimuli/BF05_HO.jpg"",""stimuli/BM04_FO.jpg""]","stimuli/BF04_SUR.jpg","stimuli/WM11_CC.jpg","stimuli/BF05_HO.jpg","stimuli/BM04_FO.jpg","pos2","stimuli/WM11_CC.jpg","CC","WM11","1","5","10","8","stimuli/stars_10.png","349.5","[""SUR"",""CC"",""HO"",""FO""]","[""BF04"",""WM11"",""BF05"",""BM04""]","[8,10,2,1]","[6,8,4,2]","","",""
"show-reward","194","460247","0.0-194.0","p542901","AU849EHZNGV2Z","3S1L4CQSFYBD9IN1W8PCJQ1H8N7AFE","3QHK8ZVMIOO7F40JEZX7YYLW6C7BLX","emotion","mismatch","uniform","","","","","","","","460002.3000000715","462008.39999997616","","","","","","","","","","","","10","","stimuli/stars_10.png","349.5","","","","","stimuli/WM11_CC.jpg","",""
"explore-choice","195","461361","0.0-195.0","p542901","AU849EHZNGV2Z","3S1L4CQSFYBD9IN1W8PCJQ1H8N7AFE","3QHK8ZVMIOO7F40JEZX7YYLW6C7BLX","emotion","mismatch","uniform","","","","","","","609.6000000238419","462010.2000000477","462619.8000000715","[""stimuli/BF04_FO.jpg"",""stimuli/WM11_CC.jpg"",""stimuli/BF05_HO.jpg"",""stimuli/BM04_SUR.jpg""]","stimuli/BF04_FO.jpg","stimuli/WM11_CC.jpg","stimuli/BF05_HO.jpg","stimuli/BM04_SUR.jpg","pos2","stimuli/WM11_CC.jpg","CC","WM11","1","4.5","9","8","stimuli/stars_9.png","354","[""FO"",""CC"",""HO"",""SUR""]","[""BF04"",""WM11"",""BF05"",""BM04""]","[8,9,4,1]","[6,8,4,2]","","",""
"show-reward","196","463368","0.0-196.0","p542901","AU849EHZNGV2Z","3S1L4CQSFYBD9IN1W8PCJQ1H8N7AFE","3QHK8ZVMIOO7F40JEZX7YYLW6C7BLX","emotion","mismatch","uniform","","","","","","","","463124.10000002384","465129.2000000477","","","","","","","","","","","","9","","stimuli/stars_9.png","354","","","","","stimuli/WM11_CC.jpg","",""
"explore-choice","197","464583","0.0-197.0","p542901","AU849EHZNGV2Z","3S1L4CQSFYBD9IN1W8PCJQ1H8N7AFE","3QHK8ZVMIOO7F40JEZX7YYLW6C7BLX","emotion","mismatch","uniform","","","","","","","712.8000000715256","465131","465843.8000000715","[""stimuli/WM11_SUR.jpg"",""stimuli/BF04_FO.jpg"",""stimuli/BF05_HO.jpg"",""stimuli/BM04_CC.jpg""]","stimuli/WM11_SUR.jpg","stimuli/BF04_FO.jpg","stimuli/BF05_HO.jpg","stimuli/BM04_CC.jpg","pos1","stimuli/WM11_SUR.jpg","SUR","WM11","0","4.5","9","8","stimuli/stars_9.png","358.5","[""SUR"",""FO"",""HO"",""CC""]","[""WM11"",""BF04"",""BF05"",""BM04""]","[9,8,4,1]","[8,6,4,2]","","",""
"show-reward","198","466588","0.0-198.0","p542901","AU849EHZNGV2Z","3S1L4CQSFYBD9IN1W8PCJQ1H8N7AFE","3QHK8ZVMIOO7F40JEZX7YYLW6C7BLX","emotion","mismatch","uniform","","","","","","","","466345.10000002384","468349.7000000477","","","","","","","","","","","","9","","stimuli/stars_9.png","358.5","","","","","stimuli/WM11_SUR.jpg","",""
"instructions","199","470251","0.0-199.0","p542901","AU849EHZNGV2Z","3S1L4CQSFYBD9IN1W8PCJQ1H8N7AFE","3QHK8ZVMIOO7F40JEZX7YYLW6C7BLX","emotion","mismatch","uniform","","","","","","[{""page_index"":0,""viewing_time"":3659.600000023842}]","3660.100000023842","","","","","","","","","","","","","","","","","","","","","","","",""
"survey-text","200","472906","0.0-200.0-0.0","p542901","AU849EHZNGV2Z","3S1L4CQSFYBD9IN1W8PCJQ1H8N7AFE","3QHK8ZVMIOO7F40JEZX7YYLW6C7BLX","emotion","mismatch","uniform","","","","","","","2652.8000000715256","","","","","","","","","","","","","","","","","","","","","","","{""age"":""36""}",""
"survey-text","201","476386","0.0-200.0-1.0","p542901","AU849EHZNGV2Z","3S1L4CQSFYBD9IN1W8PCJQ1H8N7AFE","3QHK8ZVMIOO7F40JEZX7YYLW6C7BLX","emotion","mismatch","uniform","","","","","","","3478.100000023842","","","","","","","","","","","","","","","","","","","","","","","{""gender"":""Male""}",""
"survey-text","202","481434","0.0-200.0-2.0","p542901","AU849EHZNGV2Z","3S1L4CQSFYBD9IN1W8PCJQ1H8N7AFE","3QHK8ZVMIOO7F40JEZX7YYLW6C7BLX","emotion","mismatch","uniform","","","","","","","5046.100000023842","","","","","","","","","","","","","","","","","","","","","","","{""country"":""United States""}",""
"survey-text","203","486442","0.0-200.0-3.0","p542901","AU849EHZNGV2Z","3S1L4CQSFYBD9IN1W8PCJQ1H8N7AFE","3QHK8ZVMIOO7F40JEZX7YYLW6C7BLX","emotion","mismatch","uniform","","","","","","","5005.800000071526","","","","","","","","","","","","","","","","","","","","","","","{""language"":""English"",""other_languages"":""N/A""}",""
"survey-multi-select","204","487986","0.0-201.0","p542901","AU849EHZNGV2Z","3S1L4CQSFYBD9IN1W8PCJQ1H8N7AFE","3QHK8ZVMIOO7F40JEZX7YYLW6C7BLX","emotion","mismatch","uniform","","","","","","","1536.3000000715256","","","","","","","","","","","","","","","","","","","","","","","{""race"":[""White""]}","[0]"
"survey-multi-choice","205","490434","0.0-202.0","p542901","AU849EHZNGV2Z","3S1L4CQSFYBD9IN1W8PCJQ1H8N7AFE","3QHK8ZVMIOO7F40JEZX7YYLW6C7BLX","emotion","mismatch","uniform","","","","","","","2445.7000000476837","","","","","","","","","","","","","","","","","","","","","","","{""education"":""Some college/ university""}","[0]"
"survey-text","206","539586","0.0-203.0","p542901","AU849EHZNGV2Z","3S1L4CQSFYBD9IN1W8PCJQ1H8N7AFE","3QHK8ZVMIOO7F40JEZX7YYLW6C7BLX","emotion","mismatch","uniform","","","","","","","49146.40000009537","","","","","","","","","","","","","","","","","","","","","","","{""patterns"":""It seemed in the first section that people with looks of disgust had higher scores. In the next section it seemed like the white guy had higher scores."",""strategy"":""I selected the people with looks of disgust in the first section and then the white guy in the next section."",""comments"":""No problems.""}",""
