"trial_type","trial_index","time_elapsed","internal_node_id","subject","workerId","hitId","assignmentId","structure_condition","match_condition","noise_type","success","timeout","failed_images","failed_audio","failed_video","view_history","rt","start_time","end_time","stimuli","image1","image2","image3","image4","choiceLocation","choiceImage","choiceEmotion","choiceModel","choice_index","reward_score","reward","reward_score_unadjusted","reward_image","score_after_trial","emotions","models","rewards","rewards_unadjusted","stimulus","response","question_order"
"pavlovia","0","10","0.0-0.0","p184505","A98E8M4QLI9RS","3S1L4CQSFYBD9IN1W8PCJQ1H8N7AFE","3WETL7AQWVEOAKTL7J2UZQRNWUU35A","model","mismatch","uniform","","","","","","","","","","","","","","","","","","","","","","","","","","","","","","",""
"preload","1","19964","0.0-1.0","p184505","A98E8M4QLI9RS","3S1L4CQSFYBD9IN1W8PCJQ1H8N7AFE","3WETL7AQWVEOAKTL7J2UZQRNWUU35A","model","mismatch","uniform","true","false","[]","[]","[]","","","","","","","","","","","","","","","","","","","","","","","","","",""
"fullscreen","2","24137","0.0-2.0","p184505","A98E8M4QLI9RS","3S1L4CQSFYBD9IN1W8PCJQ1H8N7AFE","3WETL7AQWVEOAKTL7J2UZQRNWUU35A","model","mismatch","uniform","true","","","","","","","","","","","","","","","","","","","","","","","","","","","","","",""
"instructions","3","30386","0.0-3.0","p184505","A98E8M4QLI9RS","3S1L4CQSFYBD9IN1W8PCJQ1H8N7AFE","3WETL7AQWVEOAKTL7J2UZQRNWUU35A","model","mismatch","uniform","","","","","","[{""page_index"":0,""viewing_time"":6248}]","6248","","","","","","","","","","","","","","","","","","","","","","","",""
"explore-choice","4","33199","0.0-4.0","p184505","A98E8M4QLI9RS","3S1L4CQSFYBD9IN1W8PCJQ1H8N7AFE","3WETL7AQWVEOAKTL7J2UZQRNWUU35A","model","mismatch","uniform","","","","","","","2299","32003","34302","[""stimuli/sheep.jpg"",""stimuli/hammer.jpg"",""stimuli/basketball.jpg"",""stimuli/horse.jpg""]","stimuli/sheep.jpg","stimuli/hammer.jpg","stimuli/basketball.jpg","stimuli/horse.jpg","pos4","stimuli/horse.jpg","","","3","64","64","64","stimuli/stars_8.png","65","","","","","","",""
"explore-choice","5","35528","0.0-5.0","p184505","A98E8M4QLI9RS","3S1L4CQSFYBD9IN1W8PCJQ1H8N7AFE","3WETL7AQWVEOAKTL7J2UZQRNWUU35A","model","mismatch","uniform","","","","","","","1817","34815","36632","[""stimuli/hammer.jpg"",""stimuli/basketball.jpg"",""stimuli/horse.jpg"",""stimuli/sheep.jpg""]","stimuli/hammer.jpg","stimuli/basketball.jpg","stimuli/horse.jpg","stimuli/sheep.jpg","pos1","stimuli/hammer.jpg","","","0","8","8","8","stimuli/stars_2.png","9","","","","","","",""
"instructions","6","62552","0.0-6.0","p184505","A98E8M4QLI9RS","3S1L4CQSFYBD9IN1W8PCJQ1H8N7AFE","3WETL7AQWVEOAKTL7J2UZQRNWUU35A","model","mismatch","uniform","","","","","","[{""page_index"":0,""viewing_time"":27023}]","27023","","","","","","","","","","","","","","","","","","","","","","","",""
"explore-choice","7","65677","0.0-7.0","p184505","A98E8M4QLI9RS","3S1L4CQSFYBD9IN1W8PCJQ1H8N7AFE","3WETL7AQWVEOAKTL7J2UZQRNWUU35A","model","mismatch","uniform","","","","","","","2624","64168","66792","[""stimuli/WM09_SC.jpg"",""stimuli/BF08_CC.jpg"",""stimuli/HM10_AO.jpg"",""stimuli/HF10_DO.jpg""]","stimuli/WM09_SC.jpg","stimuli/BF08_CC.jpg","stimuli/HM10_AO.jpg","stimuli/HF10_DO.jpg","pos2","stimuli/BF08_CC.jpg","CC","BF08","1","2.5","5","4","stimuli/stars_5.png","3.5","[""SC"",""CC"",""AO"",""DO""]","[""WM09"",""BF08"",""HM10"",""HF10""]","[4,5,6,8]","[2,4,6,8]","","",""
"show-reward","8","67694","0.0-8.0","p184505","A98E8M4QLI9RS","3S1L4CQSFYBD9IN1W8PCJQ1H8N7AFE","3WETL7AQWVEOAKTL7J2UZQRNWUU35A","model","mismatch","uniform","","","","","","","","67293","69308","","","","","","","","","","","","5","","stimuli/stars_5.png","3.5","","","","","stimuli/BF08_CC.jpg","",""
"explore-choice","9","69607","0.0-9.0","p184505","A98E8M4QLI9RS","3S1L4CQSFYBD9IN1W8PCJQ1H8N7AFE","3WETL7AQWVEOAKTL7J2UZQRNWUU35A","model","mismatch","uniform","","","","","","","1409","69310","70719","[""stimuli/HM10_DO.jpg"",""stimuli/HF10_AO.jpg"",""stimuli/BF08_CC.jpg"",""stimuli/WM09_SC.jpg""]","stimuli/HM10_DO.jpg","stimuli/HF10_AO.jpg","stimuli/BF08_CC.jpg","stimuli/WM09_SC.jpg","pos3","stimuli/BF08_CC.jpg","CC","BF08","2","2.5","5","4","stimuli/stars_5.png","6","[""DO"",""AO"",""CC"",""SC""]","[""HM10"",""HF10"",""BF08"",""WM09""]","[5,6,5,2]","[6,8,4,2]","","",""
"show-reward","10","71622","0.0-10.0","p184505","A98E8M4QLI9RS","3S1L4CQSFYBD9IN1W8PCJQ1H8N7AFE","3WETL7AQWVEOAKTL7J2UZQRNWUU35A","model","mismatch","uniform","","","","","","","","71223","73236","","","","","","","","","","","","5","","stimuli/stars_5.png","6","","","","","stimuli/BF08_CC.jpg","",""
"explore-choice","11","74299","0.0-11.0","p184505","A98E8M4QLI9RS","3S1L4CQSFYBD9IN1W8PCJQ1H8N7AFE","3WETL7AQWVEOAKTL7J2UZQRNWUU35A","model","mismatch","uniform","","","","","","","2165","73237","75402","[""stimuli/HM10_SC.jpg"",""stimuli/HF10_DO.jpg"",""stimuli/WM09_CC.jpg"",""stimuli/BF08_AO.jpg""]","stimuli/HM10_SC.jpg","stimuli/HF10_DO.jpg","stimuli/WM09_CC.jpg","stimuli/BF08_AO.jpg","pos1","stimuli/HM10_SC.jpg","SC","HM10","0","4","8","6","stimuli/stars_8.png","10","[""SC"",""DO"",""CC"",""AO""]","[""HM10"",""HF10"",""WM09"",""BF08""]","[8,6,1,3]","[6,8,2,4]","","",""
"show-reward","12","76310","0.0-12.0","p184505","A98E8M4QLI9RS","3S1L4CQSFYBD9IN1W8PCJQ1H8N7AFE","3WETL7AQWVEOAKTL7J2UZQRNWUU35A","model","mismatch","uniform","","","","","","","","75915","77925","","","","","","","","","","","","8","","stimuli/stars_8.png","10","","","","","stimuli/HM10_SC.jpg","",""
"explore-choice","13","79315","0.0-13.0","p184505","A98E8M4QLI9RS","3S1L4CQSFYBD9IN1W8PCJQ1H8N7AFE","3WETL7AQWVEOAKTL7J2UZQRNWUU35A","model","mismatch","uniform","","","","","","","2492","77927","80419","[""stimuli/BF08_AO.jpg"",""stimuli/HF10_SC.jpg"",""stimuli/WM09_CC.jpg"",""stimuli/HM10_DO.jpg""]","stimuli/BF08_AO.jpg","stimuli/HF10_SC.jpg","stimuli/WM09_CC.jpg","stimuli/HM10_DO.jpg","pos3","stimuli/WM09_CC.jpg","CC","WM09","2","0.5","1","2","stimuli/stars_1.png","10.5","[""AO"",""SC"",""CC"",""DO""]","[""BF08"",""HF10"",""WM09"",""HM10""]","[6,7,1,6]","[4,8,2,6]","","",""
"show-reward","14","81330","0.0-14.0","p184505","A98E8M4QLI9RS","3S1L4CQSFYBD9IN1W8PCJQ1H8N7AFE","3WETL7AQWVEOAKTL7J2UZQRNWUU35A","model","mismatch","uniform","","","","","","","","80931","82944","","","","","","","","","","","","1","","stimuli/stars_1.png","10.5","","","","","stimuli/WM09_CC.jpg","",""
"explore-choice","15","85243","0.0-15.0","p184505","A98E8M4QLI9RS","3S1L4CQSFYBD9IN1W8PCJQ1H8N7AFE","3WETL7AQWVEOAKTL7J2UZQRNWUU35A","model","mismatch","uniform","","","","","","","3411","82945","86356","[""stimuli/HF10_CC.jpg"",""stimuli/WM09_AO.jpg"",""stimuli/BF08_DO.jpg"",""stimuli/HM10_SC.jpg""]","stimuli/HF10_CC.jpg","stimuli/WM09_AO.jpg","stimuli/BF08_DO.jpg","stimuli/HM10_SC.jpg","pos4","stimuli/HM10_SC.jpg","SC","HM10","3","3","6","6","stimuli/stars_6.png","13.5","[""CC"",""AO"",""DO"",""SC""]","[""HF10"",""WM09"",""BF08"",""HM10""]","[7,2,5,6]","[8,2,4,6]","","",""
"show-reward","16","87258","0.0-16.0","p184505","A98E8M4QLI9RS","3S1L4CQSFYBD9IN1W8PCJQ1H8N7AFE","3WETL7AQWVEOAKTL7J2UZQRNWUU35A","model","mismatch","uniform","","","","","","","","86858","88872","","","","","","","","","","","","6","","stimuli/stars_6.png","13.5","","","","","stimuli/HM10_SC.jpg","",""
"explore-choice","17","88803","0.0-17.0","p184505","A98E8M4QLI9RS","3S1L4CQSFYBD9IN1W8PCJQ1H8N7AFE","3WETL7AQWVEOAKTL7J2UZQRNWUU35A","model","mismatch","uniform","","","","","","","1031","88874","89905","[""stimuli/WM09_AO.jpg"",""stimuli/BF08_CC.jpg"",""stimuli/HF10_SC.jpg"",""stimuli/HM10_DO.jpg""]","stimuli/WM09_AO.jpg","stimuli/BF08_CC.jpg","stimuli/HF10_SC.jpg","stimuli/HM10_DO.jpg","pos2","stimuli/BF08_CC.jpg","CC","BF08","1","1","2","4","stimuli/stars_2.png","14.5","[""AO"",""CC"",""SC"",""DO""]","[""WM09"",""BF08"",""HF10"",""HM10""]","[2,2,6,7]","[2,4,8,6]","","",""
"show-reward","18","90807","0.0-18.0","p184505","A98E8M4QLI9RS","3S1L4CQSFYBD9IN1W8PCJQ1H8N7AFE","3WETL7AQWVEOAKTL7J2UZQRNWUU35A","model","mismatch","uniform","","","","","","","","90418","92422","","","","","","","","","","","","2","","stimuli/stars_2.png","14.5","","","","","stimuli/BF08_CC.jpg","",""
"explore-choice","19","92343","0.0-19.0","p184505","A98E8M4QLI9RS","3S1L4CQSFYBD9IN1W8PCJQ1H8N7AFE","3WETL7AQWVEOAKTL7J2UZQRNWUU35A","model","mismatch","uniform","","","","","","","1026","92423","93449","[""stimuli/WM09_DO.jpg"",""stimuli/HM10_SC.jpg"",""stimuli/BF08_CC.jpg"",""stimuli/HF10_AO.jpg""]","stimuli/WM09_DO.jpg","stimuli/HM10_SC.jpg","stimuli/BF08_CC.jpg","stimuli/HF10_AO.jpg","pos1","stimuli/WM09_DO.jpg","DO","WM09","0","0","0","2","stimuli/stars_0.png","14.5","[""DO"",""SC"",""CC"",""AO""]","[""WM09"",""HM10"",""BF08"",""HF10""]","[0,4,2,7]","[2,6,4,8]","","",""
"show-reward","20","94360","0.0-20.0","p184505","A98E8M4QLI9RS","3S1L4CQSFYBD9IN1W8PCJQ1H8N7AFE","3WETL7AQWVEOAKTL7J2UZQRNWUU35A","model","mismatch","uniform","","","","","","","","93958","95974","","","","","","","","","","","","0","","stimuli/stars_0.png","14.5","","","","","stimuli/WM09_DO.jpg","",""
"explore-choice","21","96024","0.0-21.0","p184505","A98E8M4QLI9RS","3S1L4CQSFYBD9IN1W8PCJQ1H8N7AFE","3WETL7AQWVEOAKTL7J2UZQRNWUU35A","model","mismatch","uniform","","","","","","","1155","95976","97131","[""stimuli/BF08_SC.jpg"",""stimuli/WM09_DO.jpg"",""stimuli/HF10_AO.jpg"",""stimuli/HM10_CC.jpg""]","stimuli/BF08_SC.jpg","stimuli/WM09_DO.jpg","stimuli/HF10_AO.jpg","stimuli/HM10_CC.jpg","pos4","stimuli/HM10_CC.jpg","CC","HM10","3","3","6","6","stimuli/stars_6.png","17.5","[""SC"",""DO"",""AO"",""CC""]","[""BF08"",""WM09"",""HF10"",""HM10""]","[4,2,6,6]","[4,2,8,6]","","",""
"show-reward","22","98033","0.0-22.0","p184505","A98E8M4QLI9RS","3S1L4CQSFYBD9IN1W8PCJQ1H8N7AFE","3WETL7AQWVEOAKTL7J2UZQRNWUU35A","model","mismatch","uniform","","","","","","","","97640","99647","","","","","","","","","","","","6","","stimuli/stars_6.png","17.5","","","","","stimuli/HM10_CC.jpg","",""
"explore-choice","23","101459","0.0-23.0","p184505","A98E8M4QLI9RS","3S1L4CQSFYBD9IN1W8PCJQ1H8N7AFE","3WETL7AQWVEOAKTL7J2UZQRNWUU35A","model","mismatch","uniform","","","","","","","2911","99648","102559","[""stimuli/WM09_CC.jpg"",""stimuli/BF08_SC.jpg"",""stimuli/HM10_DO.jpg"",""stimuli/HF10_AO.jpg""]","stimuli/WM09_CC.jpg","stimuli/BF08_SC.jpg","stimuli/HM10_DO.jpg","stimuli/HF10_AO.jpg","pos4","stimuli/HF10_AO.jpg","AO","HF10","3","4.5","9","8","stimuli/stars_9.png","22","[""CC"",""SC"",""DO"",""AO""]","[""WM09"",""BF08"",""HM10"",""HF10""]","[2,3,8,9]","[2,4,6,8]","","",""
"show-reward","24","103470","0.0-24.0","p184505","A98E8M4QLI9RS","3S1L4CQSFYBD9IN1W8PCJQ1H8N7AFE","3WETL7AQWVEOAKTL7J2UZQRNWUU35A","model","mismatch","uniform","","","","","","","","103074","105084","","","","","","","","","","","","9","","stimuli/stars_9.png","22","","","","","stimuli/HF10_AO.jpg","",""
"explore-choice","25","105386","0.0-25.0","p184505","A98E8M4QLI9RS","3S1L4CQSFYBD9IN1W8PCJQ1H8N7AFE","3WETL7AQWVEOAKTL7J2UZQRNWUU35A","model","mismatch","uniform","","","","","","","1410","105085","106495","[""stimuli/BF08_SC.jpg"",""stimuli/HF10_CC.jpg"",""stimuli/WM09_AO.jpg"",""stimuli/HM10_DO.jpg""]","stimuli/BF08_SC.jpg","stimuli/HF10_CC.jpg","stimuli/WM09_AO.jpg","stimuli/HM10_DO.jpg","pos2","stimuli/HF10_CC.jpg","CC","HF10","1","4.5","9","8","stimuli/stars_9.png","26.5","[""SC"",""CC"",""AO"",""DO""]","[""BF08"",""HF10"",""WM09"",""HM10""]","[4,9,1,6]","[4,8,2,6]","","",""
"show-reward","26","107401","0.0-26.0","p184505","A98E8M4QLI9RS","3S1L4CQSFYBD9IN1W8PCJQ1H8N7AFE","3WETL7AQWVEOAKTL7J2UZQRNWUU35A","model","mismatch","uniform","","","","","","","","107001","109016","","","","","","","","","","","","9","","stimuli/stars_9.png","26.5","","","","","stimuli/HF10_CC.jpg","",""
"explore-choice","27","109174","0.0-27.0","p184505","A98E8M4QLI9RS","3S1L4CQSFYBD9IN1W8PCJQ1H8N7AFE","3WETL7AQWVEOAKTL7J2UZQRNWUU35A","model","mismatch","uniform","","","","","","","1257","109017","110274","[""stimuli/WM09_CC.jpg"",""stimuli/BF08_DO.jpg"",""stimuli/HM10_AO.jpg"",""stimuli/HF10_SC.jpg""]","stimuli/WM09_CC.jpg","stimuli/BF08_DO.jpg","stimuli/HM10_AO.jpg","stimuli/HF10_SC.jpg","pos4","stimuli/HF10_SC.jpg","SC","HF10","3","3","6","8","stimuli/stars_6.png","29.5","[""CC"",""DO"",""AO"",""SC""]","[""WM09"",""BF08"",""HM10"",""HF10""]","[2,5,8,6]","[2,4,6,8]","","",""
"show-reward","28","111182","0.0-28.0","p184505","A98E8M4QLI9RS","3S1L4CQSFYBD9IN1W8PCJQ1H8N7AFE","3WETL7AQWVEOAKTL7J2UZQRNWUU35A","model","mismatch","uniform","","","","","","","","110790","112796","","","","","","","","","","","","6","","stimuli/stars_6.png","29.5","","","","","stimuli/HF10_SC.jpg","",""
"explore-choice","29","112855","0.0-29.0","p184505","A98E8M4QLI9RS","3S1L4CQSFYBD9IN1W8PCJQ1H8N7AFE","3WETL7AQWVEOAKTL7J2UZQRNWUU35A","model","mismatch","uniform","","","","","","","1167","112797","113964","[""stimuli/WM09_AO.jpg"",""stimuli/HM10_SC.jpg"",""stimuli/BF08_CC.jpg"",""stimuli/HF10_DO.jpg""]","stimuli/WM09_AO.jpg","stimuli/HM10_SC.jpg","stimuli/BF08_CC.jpg","stimuli/HF10_DO.jpg","pos4","stimuli/HF10_DO.jpg","DO","HF10","3","4.5","9","8","stimuli/stars_9.png","34","[""AO"",""SC"",""CC"",""DO""]","[""WM09"",""HM10"",""BF08"",""HF10""]","[0,7,6,9]","[2,6,4,8]","","",""
"show-reward","30","114860","0.0-30.0","p184505","A98E8M4QLI9RS","3S1L4CQSFYBD9IN1W8PCJQ1H8N7AFE","3WETL7AQWVEOAKTL7J2UZQRNWUU35A","model","mismatch","uniform","","","","","","","","114469","116475","","","","","","","","","","","","9","","stimuli/stars_9.png","34","","","","","stimuli/HF10_DO.jpg","",""
"explore-choice","31","117205","0.0-31.0","p184505","A98E8M4QLI9RS","3S1L4CQSFYBD9IN1W8PCJQ1H8N7AFE","3WETL7AQWVEOAKTL7J2UZQRNWUU35A","model","mismatch","uniform","","","","","","","1834","116476","118310","[""stimuli/HF10_SC.jpg"",""stimuli/HM10_AO.jpg"",""stimuli/WM09_DO.jpg"",""stimuli/BF08_CC.jpg""]","stimuli/HF10_SC.jpg","stimuli/HM10_AO.jpg","stimuli/WM09_DO.jpg","stimuli/BF08_CC.jpg","pos1","stimuli/HF10_SC.jpg","SC","HF10","0","3.5","7","8","stimuli/stars_7.png","37.5","[""SC"",""AO"",""DO"",""CC""]","[""HF10"",""HM10"",""WM09"",""BF08""]","[7,6,4,6]","[8,6,2,4]","","",""
"show-reward","32","119225","0.0-32.0","p184505","A98E8M4QLI9RS","3S1L4CQSFYBD9IN1W8PCJQ1H8N7AFE","3WETL7AQWVEOAKTL7J2UZQRNWUU35A","model","mismatch","uniform","","","","","","","","118821","120838","","","","","","","","","","","","7","","stimuli/stars_7.png","37.5","","","","","stimuli/HF10_SC.jpg","",""
"explore-choice","33","120929","0.0-33.0","p184505","A98E8M4QLI9RS","3S1L4CQSFYBD9IN1W8PCJQ1H8N7AFE","3WETL7AQWVEOAKTL7J2UZQRNWUU35A","model","mismatch","uniform","","","","","","","1196","120839","122035","[""stimuli/WM09_SC.jpg"",""stimuli/BF08_DO.jpg"",""stimuli/HM10_AO.jpg"",""stimuli/HF10_CC.jpg""]","stimuli/WM09_SC.jpg","stimuli/BF08_DO.jpg","stimuli/HM10_AO.jpg","stimuli/HF10_CC.jpg","pos4","stimuli/HF10_CC.jpg","CC","HF10","3","4.5","9","8","stimuli/stars_9.png","42","[""SC"",""DO"",""AO"",""CC""]","[""WM09"",""BF08"",""HM10"",""HF10""]","[1,6,6,9]","[2,4,6,8]","","",""
"show-reward","34","122932","0.0-34.0","p184505","A98E8M4QLI9RS","3S1L4CQSFYBD9IN1W8PCJQ1H8N7AFE","3WETL7AQWVEOAKTL7J2UZQRNWUU35A","model","mismatch","uniform","","","","","","","","122544","124547","","","","","","","","","","","","9","","stimuli/stars_9.png","42","","","","","stimuli/HF10_CC.jpg","",""
"explore-choice","35","124554","0.0-35.0","p184505","A98E8M4QLI9RS","3S1L4CQSFYBD9IN1W8PCJQ1H8N7AFE","3WETL7AQWVEOAKTL7J2UZQRNWUU35A","model","mismatch","uniform","","","","","","","1108","124547","125655","[""stimuli/HF10_CC.jpg"",""stimuli/HM10_SC.jpg"",""stimuli/WM09_DO.jpg"",""stimuli/BF08_AO.jpg""]","stimuli/HF10_CC.jpg","stimuli/HM10_SC.jpg","stimuli/WM09_DO.jpg","stimuli/BF08_AO.jpg","pos1","stimuli/HF10_CC.jpg","CC","HF10","0","5","10","8","stimuli/stars_10.png","47","[""CC"",""SC"",""DO"",""AO""]","[""HF10"",""HM10"",""WM09"",""BF08""]","[10,6,0,6]","[8,6,2,4]","","",""
"show-reward","36","126566","0.0-36.0","p184505","A98E8M4QLI9RS","3S1L4CQSFYBD9IN1W8PCJQ1H8N7AFE","3WETL7AQWVEOAKTL7J2UZQRNWUU35A","model","mismatch","uniform","","","","","","","","126170","128181","","","","","","","","","","","","10","","stimuli/stars_10.png","47","","","","","stimuli/HF10_CC.jpg","",""
"explore-choice","37","128250","0.0-37.0","p184505","A98E8M4QLI9RS","3S1L4CQSFYBD9IN1W8PCJQ1H8N7AFE","3WETL7AQWVEOAKTL7J2UZQRNWUU35A","model","mismatch","uniform","","","","","","","1180","128181","129361","[""stimuli/BF08_DO.jpg"",""stimuli/WM09_SC.jpg"",""stimuli/HF10_AO.jpg"",""stimuli/HM10_CC.jpg""]","stimuli/BF08_DO.jpg","stimuli/WM09_SC.jpg","stimuli/HF10_AO.jpg","stimuli/HM10_CC.jpg","pos3","stimuli/HF10_AO.jpg","AO","HF10","2","4","8","8","stimuli/stars_8.png","51","[""DO"",""SC"",""AO"",""CC""]","[""BF08"",""WM09"",""HF10"",""HM10""]","[2,0,8,4]","[4,2,8,6]","","",""
"show-reward","38","130266","0.0-38.0","p184505","A98E8M4QLI9RS","3S1L4CQSFYBD9IN1W8PCJQ1H8N7AFE","3WETL7AQWVEOAKTL7J2UZQRNWUU35A","model","mismatch","uniform","","","","","","","","129866","131881","","","","","","","","","","","","8","","stimuli/stars_8.png","51","","","","","stimuli/HF10_AO.jpg","",""
"explore-choice","39","131733","0.0-39.0","p184505","A98E8M4QLI9RS","3S1L4CQSFYBD9IN1W8PCJQ1H8N7AFE","3WETL7AQWVEOAKTL7J2UZQRNWUU35A","model","mismatch","uniform","","","","","","","962","131882","132844","[""stimuli/WM09_SC.jpg"",""stimuli/BF08_AO.jpg"",""stimuli/HF10_DO.jpg"",""stimuli/HM10_CC.jpg""]","stimuli/WM09_SC.jpg","stimuli/BF08_AO.jpg","stimuli/HF10_DO.jpg","stimuli/HM10_CC.jpg","pos3","stimuli/HF10_DO.jpg","DO","HF10","2","5","10","8","stimuli/stars_10.png","56","[""SC"",""AO"",""DO"",""CC""]","[""WM09"",""BF08"",""HF10"",""HM10""]","[0,6,10,4]","[2,4,8,6]","","",""
"show-reward","40","133744","0.0-40.0","p184505","A98E8M4QLI9RS","3S1L4CQSFYBD9IN1W8PCJQ1H8N7AFE","3WETL7AQWVEOAKTL7J2UZQRNWUU35A","model","mismatch","uniform","","","","","","","","133348","135359","","","","","","","","","","","","10","","stimuli/stars_10.png","56","","","","","stimuli/HF10_DO.jpg","",""
"explore-choice","41","135592","0.0-41.0","p184505","A98E8M4QLI9RS","3S1L4CQSFYBD9IN1W8PCJQ1H8N7AFE","3WETL7AQWVEOAKTL7J2UZQRNWUU35A","model","mismatch","uniform","","","","","","","1341","135360","136701","[""stimuli/HF10_DO.jpg"",""stimuli/BF08_SC.jpg"",""stimuli/HM10_CC.jpg"",""stimuli/WM09_AO.jpg""]","stimuli/HF10_DO.jpg","stimuli/BF08_SC.jpg","stimuli/HM10_CC.jpg","stimuli/WM09_AO.jpg","pos1","stimuli/HF10_DO.jpg","DO","HF10","0","3","6","8","stimuli/stars_6.png","59","[""DO"",""SC"",""CC"",""AO""]","[""HF10"",""BF08"",""HM10"",""WM09""]","[6,6,6,1]","[8,4,6,2]","","",""
"show-reward","42","137598","0.0-42.0","p184505","A98E8M4QLI9RS","3S1L4CQSFYBD9IN1W8PCJQ1H8N7AFE","3WETL7AQWVEOAKTL7J2UZQRNWUU35A","model","mismatch","uniform","","","","","","","","137207","139212","","","","","","","","","","","","6","","stimuli/stars_6.png","59","","","","","stimuli/HF10_DO.jpg","",""
"explore-choice","43","139506","0.0-43.0","p184505","A98E8M4QLI9RS","3S1L4CQSFYBD9IN1W8PCJQ1H8N7AFE","3WETL7AQWVEOAKTL7J2UZQRNWUU35A","model","mismatch","uniform","","","","","","","1399","139214","140613","[""stimuli/BF08_SC.jpg"",""stimuli/HM10_AO.jpg"",""stimuli/HF10_CC.jpg"",""stimuli/WM09_DO.jpg""]","stimuli/BF08_SC.jpg","stimuli/HM10_AO.jpg","stimuli/HF10_CC.jpg","stimuli/WM09_DO.jpg","pos3","stimuli/HF10_CC.jpg","CC","HF10","2","3","6","8","stimuli/stars_6.png","62","[""SC"",""AO"",""CC"",""DO""]","[""BF08"",""HM10"",""HF10"",""WM09""]","[4,4,6,4]","[4,6,8,2]","","",""
"show-reward","44","141514","0.0-44.0","p184505","A98E8M4QLI9RS","3S1L4CQSFYBD9IN1W8PCJQ1H8N7AFE","3WETL7AQWVEOAKTL7J2UZQRNWUU35A","model","mismatch","uniform","","","","","","","","141122","143128","","","","","","","","","","","","6","","stimuli/stars_6.png","62","","","","","stimuli/HF10_CC.jpg","",""
"explore-choice","45","143226","0.0-45.0","p184505","A98E8M4QLI9RS","3S1L4CQSFYBD9IN1W8PCJQ1H8N7AFE","3WETL7AQWVEOAKTL7J2UZQRNWUU35A","model","mismatch","uniform","","","","","","","1207","143130","144337","[""stimuli/HM10_AO.jpg"",""stimuli/WM09_CC.jpg"",""stimuli/HF10_DO.jpg"",""stimuli/BF08_SC.jpg""]","stimuli/HM10_AO.jpg","stimuli/WM09_CC.jpg","stimuli/HF10_DO.jpg","stimuli/BF08_SC.jpg","pos3","stimuli/HF10_DO.jpg","DO","HF10","2","4.5","9","8","stimuli/stars_9.png","66.5","[""AO"",""CC"",""DO"",""SC""]","[""HM10"",""WM09"",""HF10"",""BF08""]","[8,3,9,3]","[6,2,8,4]","","",""
"show-reward","46","145234","0.0-46.0","p184505","A98E8M4QLI9RS","3S1L4CQSFYBD9IN1W8PCJQ1H8N7AFE","3WETL7AQWVEOAKTL7J2UZQRNWUU35A","model","mismatch","uniform","","","","","","","","144841","146848","","","","","","","","","","","","9","","stimuli/stars_9.png","66.5","","","","","stimuli/HF10_DO.jpg","",""
"explore-choice","47","146896","0.0-47.0","p184505","A98E8M4QLI9RS","3S1L4CQSFYBD9IN1W8PCJQ1H8N7AFE","3WETL7AQWVEOAKTL7J2UZQRNWUU35A","model","mismatch","uniform","","","","","","","1148","146849","147997","[""stimuli/HM10_DO.jpg"",""stimuli/HF10_CC.jpg"",""stimuli/WM09_SC.jpg"",""stimuli/BF08_AO.jpg""]","stimuli/HM10_DO.jpg","stimuli/HF10_CC.jpg","stimuli/WM09_SC.jpg","stimuli/BF08_AO.jpg","pos2","stimuli/HF10_CC.jpg","CC","HF10","1","4","8","8","stimuli/stars_8.png","70.5","[""DO"",""CC"",""SC"",""AO""]","[""HM10"",""HF10"",""WM09"",""BF08""]","[7,8,4,6]","[6,8,2,4]","","",""
"show-reward","48","148915","0.0-48.0","p184505","A98E8M4QLI9RS","3S1L4CQSFYBD9IN1W8PCJQ1H8N7AFE","3WETL7AQWVEOAKTL7J2UZQRNWUU35A","model","mismatch","uniform","","","","","","","","148512","150529","","","","","","","","","","","","8","","stimuli/stars_8.png","70.5","","","","","stimuli/HF10_CC.jpg","",""
"explore-choice","49","152430","0.0-49.0","p184505","A98E8M4QLI9RS","3S1L4CQSFYBD9IN1W8PCJQ1H8N7AFE","3WETL7AQWVEOAKTL7J2UZQRNWUU35A","model","mismatch","uniform","","","","","","","3007","150530","153537","[""stimuli/HF10_AO.jpg"",""stimuli/BF08_DO.jpg"",""stimuli/WM09_CC.jpg"",""stimuli/HM10_SC.jpg""]","stimuli/HF10_AO.jpg","stimuli/BF08_DO.jpg","stimuli/WM09_CC.jpg","stimuli/HM10_SC.jpg","pos1","stimuli/HF10_AO.jpg","AO","HF10","0","4.5","9","8","stimuli/stars_9.png","75","[""AO"",""DO"",""CC"",""SC""]","[""HF10"",""BF08"",""WM09"",""HM10""]","[9,5,2,8]","[8,4,2,6]","","",""
"show-reward","50","154434","0.0-50.0","p184505","A98E8M4QLI9RS","3S1L4CQSFYBD9IN1W8PCJQ1H8N7AFE","3WETL7AQWVEOAKTL7J2UZQRNWUU35A","model","mismatch","uniform","","","","","","","","154046","156049","","","","","","","","","","","","9","","stimuli/stars_9.png","75","","","","","stimuli/HF10_AO.jpg","",""
"explore-choice","51","156492","0.0-51.0","p184505","A98E8M4QLI9RS","3S1L4CQSFYBD9IN1W8PCJQ1H8N7AFE","3WETL7AQWVEOAKTL7J2UZQRNWUU35A","model","mismatch","uniform","","","","","","","1551","156049","157600","[""stimuli/HF10_SC.jpg"",""stimuli/HM10_CC.jpg"",""stimuli/WM09_DO.jpg"",""stimuli/BF08_AO.jpg""]","stimuli/HF10_SC.jpg","stimuli/HM10_CC.jpg","stimuli/WM09_DO.jpg","stimuli/BF08_AO.jpg","pos1","stimuli/HF10_SC.jpg","SC","HF10","0","4","8","8","stimuli/stars_8.png","79","[""SC"",""CC"",""DO"",""AO""]","[""HF10"",""HM10"",""WM09"",""BF08""]","[8,8,0,2]","[8,6,2,4]","","",""
"show-reward","52","158509","0.0-52.0","p184505","A98E8M4QLI9RS","3S1L4CQSFYBD9IN1W8PCJQ1H8N7AFE","3WETL7AQWVEOAKTL7J2UZQRNWUU35A","model","mismatch","uniform","","","","","","","","158108","160123","","","","","","","","","","","","8","","stimuli/stars_8.png","79","","","","","stimuli/HF10_SC.jpg","",""
"explore-choice","53","160238","0.0-53.0","p184505","A98E8M4QLI9RS","3S1L4CQSFYBD9IN1W8PCJQ1H8N7AFE","3WETL7AQWVEOAKTL7J2UZQRNWUU35A","model","mismatch","uniform","","","","","","","1213","160124","161337","[""stimuli/HF10_SC.jpg"",""stimuli/WM09_AO.jpg"",""stimuli/BF08_DO.jpg"",""stimuli/HM10_CC.jpg""]","stimuli/HF10_SC.jpg","stimuli/WM09_AO.jpg","stimuli/BF08_DO.jpg","stimuli/HM10_CC.jpg","pos3","stimuli/BF08_DO.jpg","DO","BF08","2","3","6","4","stimuli/stars_6.png","82","[""SC"",""AO"",""DO"",""CC""]","[""HF10"",""WM09"",""BF08"",""HM10""]","[10,0,6,6]","[8,2,4,6]","","",""
"show-reward","54","162244","0.0-54.0","p184505","A98E8M4QLI9RS","3S1L4CQSFYBD9IN1W8PCJQ1H8N7AFE","3WETL7AQWVEOAKTL7J2UZQRNWUU35A","model","mismatch","uniform","","","","","","","","161852","163858","","","","","","","","","","","","6","","stimuli/stars_6.png","82","","","","","stimuli/BF08_DO.jpg","",""
"explore-choice","55","163637","0.0-55.0","p184505","A98E8M4QLI9RS","3S1L4CQSFYBD9IN1W8PCJQ1H8N7AFE","3WETL7AQWVEOAKTL7J2UZQRNWUU35A","model","mismatch","uniform","","","","","","","877","163859","164736","[""stimuli/BF08_AO.jpg"",""stimuli/WM09_SC.jpg"",""stimuli/HF10_DO.jpg"",""stimuli/HM10_CC.jpg""]","stimuli/BF08_AO.jpg","stimuli/WM09_SC.jpg","stimuli/HF10_DO.jpg","stimuli/HM10_CC.jpg","pos3","stimuli/HF10_DO.jpg","DO","HF10","2","5","10","8","stimuli/stars_10.png","87","[""AO"",""SC"",""DO"",""CC""]","[""BF08"",""WM09"",""HF10"",""HM10""]","[6,0,10,4]","[4,2,8,6]","","",""
"show-reward","56","165640","0.0-56.0","p184505","A98E8M4QLI9RS","3S1L4CQSFYBD9IN1W8PCJQ1H8N7AFE","3WETL7AQWVEOAKTL7J2UZQRNWUU35A","model","mismatch","uniform","","","","","","","","165252","167254","","","","","","","","","","","","10","","stimuli/stars_10.png","87","","","","","stimuli/HF10_DO.jpg","",""
"explore-choice","57","167203","0.0-57.0","p184505","A98E8M4QLI9RS","3S1L4CQSFYBD9IN1W8PCJQ1H8N7AFE","3WETL7AQWVEOAKTL7J2UZQRNWUU35A","model","mismatch","uniform","","","","","","","1057","167254","168311","[""stimuli/HM10_SC.jpg"",""stimuli/WM09_AO.jpg"",""stimuli/HF10_DO.jpg"",""stimuli/BF08_CC.jpg""]","stimuli/HM10_SC.jpg","stimuli/WM09_AO.jpg","stimuli/HF10_DO.jpg","stimuli/BF08_CC.jpg","pos3","stimuli/HF10_DO.jpg","DO","HF10","2","4.5","9","8","stimuli/stars_9.png","91.5","[""SC"",""AO"",""DO"",""CC""]","[""HM10"",""WM09"",""HF10"",""BF08""]","[7,0,9,6]","[6,2,8,4]","","",""
"show-reward","58","169206","0.0-58.0","p184505","A98E8M4QLI9RS","3S1L4CQSFYBD9IN1W8PCJQ1H8N7AFE","3WETL7AQWVEOAKTL7J2UZQRNWUU35A","model","mismatch","uniform","","","","","","","","168817","170820","","","","","","","","","","","","9","","stimuli/stars_9.png","91.5","","","","","stimuli/HF10_DO.jpg","",""
"explore-choice","59","170852","0.0-59.0","p184505","A98E8M4QLI9RS","3S1L4CQSFYBD9IN1W8PCJQ1H8N7AFE","3WETL7AQWVEOAKTL7J2UZQRNWUU35A","model","mismatch","uniform","","","","","","","1139","170820","171959","[""stimuli/HF10_CC.jpg"",""stimuli/BF08_AO.jpg"",""stimuli/WM09_DO.jpg"",""stimuli/HM10_SC.jpg""]","stimuli/HF10_CC.jpg","stimuli/BF08_AO.jpg","stimuli/WM09_DO.jpg","stimuli/HM10_SC.jpg","pos1","stimuli/HF10_CC.jpg","CC","HF10","0","5","10","8","stimuli/stars_10.png","96.5","[""CC"",""AO"",""DO"",""SC""]","[""HF10"",""BF08"",""WM09"",""HM10""]","[10,6,0,6]","[8,4,2,6]","","",""
"show-reward","60","172861","0.0-60.0","p184505","A98E8M4QLI9RS","3S1L4CQSFYBD9IN1W8PCJQ1H8N7AFE","3WETL7AQWVEOAKTL7J2UZQRNWUU35A","model","mismatch","uniform","","","","","","","","172467","174476","","","","","","","","","","","","10","","stimuli/stars_10.png","96.5","","","","","stimuli/HF10_CC.jpg","",""
"explore-choice","61","174280","0.0-61.0","p184505","A98E8M4QLI9RS","3S1L4CQSFYBD9IN1W8PCJQ1H8N7AFE","3WETL7AQWVEOAKTL7J2UZQRNWUU35A","model","mismatch","uniform","","","","","","","910","174476","175386","[""stimuli/WM09_AO.jpg"",""stimuli/BF08_DO.jpg"",""stimuli/HM10_CC.jpg"",""stimuli/HF10_SC.jpg""]","stimuli/WM09_AO.jpg","stimuli/BF08_DO.jpg","stimuli/HM10_CC.jpg","stimuli/HF10_SC.jpg","pos4","stimuli/HF10_SC.jpg","SC","HF10","3","5","10","8","stimuli/stars_10.png","101.5","[""AO"",""DO"",""CC"",""SC""]","[""WM09"",""BF08"",""HM10"",""HF10""]","[0,6,6,10]","[2,4,6,8]","","",""
"show-reward","62","176297","0.0-62.0","p184505","A98E8M4QLI9RS","3S1L4CQSFYBD9IN1W8PCJQ1H8N7AFE","3WETL7AQWVEOAKTL7J2UZQRNWUU35A","model","mismatch","uniform","","","","","","","","175895","177910","","","","","","","","","","","","10","","stimuli/stars_10.png","101.5","","","","","stimuli/HF10_SC.jpg","",""
"explore-choice","63","177648","0.0-63.0","p184505","A98E8M4QLI9RS","3S1L4CQSFYBD9IN1W8PCJQ1H8N7AFE","3WETL7AQWVEOAKTL7J2UZQRNWUU35A","model","mismatch","uniform","","","","","","","841","177912","178753","[""stimuli/HF10_DO.jpg"",""stimuli/BF08_SC.jpg"",""stimuli/WM09_AO.jpg"",""stimuli/HM10_CC.jpg""]","stimuli/HF10_DO.jpg","stimuli/BF08_SC.jpg","stimuli/WM09_AO.jpg","stimuli/HM10_CC.jpg","pos1","stimuli/HF10_DO.jpg","DO","HF10","0","3","6","8","stimuli/stars_6.png","104.5","[""DO"",""SC"",""AO"",""CC""]","[""HF10"",""BF08"",""WM09"",""HM10""]","[6,6,1,6]","[8,4,2,6]","","",""
"show-reward","64","179662","0.0-64.0","p184505","A98E8M4QLI9RS","3S1L4CQSFYBD9IN1W8PCJQ1H8N7AFE","3WETL7AQWVEOAKTL7J2UZQRNWUU35A","model","mismatch","uniform","","","","","","","","179263","181276","","","","","","","","","","","","6","","stimuli/stars_6.png","104.5","","","","","stimuli/HF10_DO.jpg","",""
"explore-choice","65","182050","0.0-65.0","p184505","A98E8M4QLI9RS","3S1L4CQSFYBD9IN1W8PCJQ1H8N7AFE","3WETL7AQWVEOAKTL7J2UZQRNWUU35A","model","mismatch","uniform","","","","","","","1888","181277","183165","[""stimuli/HF10_DO.jpg"",""stimuli/WM09_CC.jpg"",""stimuli/BF08_AO.jpg"",""stimuli/HM10_SC.jpg""]","stimuli/HF10_DO.jpg","stimuli/WM09_CC.jpg","stimuli/BF08_AO.jpg","stimuli/HM10_SC.jpg","pos3","stimuli/BF08_AO.jpg","AO","BF08","2","1.5","3","4","stimuli/stars_3.png","106","[""DO"",""CC"",""AO"",""SC""]","[""HF10"",""WM09"",""BF08"",""HM10""]","[6,1,3,8]","[8,2,4,6]","","",""
"show-reward","66","184060","0.0-66.0","p184505","A98E8M4QLI9RS","3S1L4CQSFYBD9IN1W8PCJQ1H8N7AFE","3WETL7AQWVEOAKTL7J2UZQRNWUU35A","model","mismatch","uniform","","","","","","","","183666","185675","","","","","","","","","","","","3","","stimuli/stars_3.png","106","","","","","stimuli/BF08_AO.jpg","",""
"explore-choice","67","186426","0.0-67.0","p184505","A98E8M4QLI9RS","3S1L4CQSFYBD9IN1W8PCJQ1H8N7AFE","3WETL7AQWVEOAKTL7J2UZQRNWUU35A","model","mismatch","uniform","","","","","","","1851","185675","187526","[""stimuli/HF10_SC.jpg"",""stimuli/BF08_AO.jpg"",""stimuli/HM10_DO.jpg"",""stimuli/WM09_CC.jpg""]","stimuli/HF10_SC.jpg","stimuli/BF08_AO.jpg","stimuli/HM10_DO.jpg","stimuli/WM09_CC.jpg","pos1","stimuli/HF10_SC.jpg","SC","HF10","0","3.5","7","8","stimuli/stars_7.png","109.5","[""SC"",""AO"",""DO"",""CC""]","[""HF10"",""BF08"",""HM10"",""WM09""]","[7,6,6,1]","[8,4,6,2]","","",""
"show-reward","68","188441","0.0-68.0","p184505","A98E8M4QLI9RS","3S1L4CQSFYBD9IN1W8PCJQ1H8N7AFE","3WETL7AQWVEOAKTL7J2UZQRNWUU35A","model","mismatch","uniform","","","","","","","","188042","190056","","","","","","","","","","","","7","","stimuli/stars_7.png","109.5","","","","","stimuli/HF10_SC.jpg","",""
"explore-choice","69","190037","0.0-69.0","p184505","A98E8M4QLI9RS","3S1L4CQSFYBD9IN1W8PCJQ1H8N7AFE","3WETL7AQWVEOAKTL7J2UZQRNWUU35A","model","mismatch","uniform","","","","","","","1080","190057","191137","[""stimuli/HM10_AO.jpg"",""stimuli/HF10_CC.jpg"",""stimuli/BF08_DO.jpg"",""stimuli/WM09_SC.jpg""]","stimuli/HM10_AO.jpg","stimuli/HF10_CC.jpg","stimuli/BF08_DO.jpg","stimuli/WM09_SC.jpg","pos2","stimuli/HF10_CC.jpg","CC","HF10","1","4.5","9","8","stimuli/stars_9.png","114","[""AO"",""CC"",""DO"",""SC""]","[""HM10"",""HF10"",""BF08"",""WM09""]","[6,9,6,1]","[6,8,4,2]","","",""
"show-reward","70","192041","0.0-70.0","p184505","A98E8M4QLI9RS","3S1L4CQSFYBD9IN1W8PCJQ1H8N7AFE","3WETL7AQWVEOAKTL7J2UZQRNWUU35A","model","mismatch","uniform","","","","","","","","191652","193655","","","","","","","","","","","","9","","stimuli/stars_9.png","114","","","","","stimuli/HF10_CC.jpg","",""
"explore-choice","71","193447","0.0-71.0","p184505","A98E8M4QLI9RS","3S1L4CQSFYBD9IN1W8PCJQ1H8N7AFE","3WETL7AQWVEOAKTL7J2UZQRNWUU35A","model","mismatch","uniform","","","","","","","899","193656","194555","[""stimuli/HM10_CC.jpg"",""stimuli/HF10_SC.jpg"",""stimuli/BF08_AO.jpg"",""stimuli/WM09_DO.jpg""]","stimuli/HM10_CC.jpg","stimuli/HF10_SC.jpg","stimuli/BF08_AO.jpg","stimuli/WM09_DO.jpg","pos2","stimuli/HF10_SC.jpg","SC","HF10","1","4","8","8","stimuli/stars_8.png","118","[""CC"",""SC"",""AO"",""DO""]","[""HM10"",""HF10"",""BF08"",""WM09""]","[8,8,2,0]","[6,8,4,2]","","",""
"show-reward","72","195452","0.0-72.0","p184505","A98E8M4QLI9RS","3S1L4CQSFYBD9IN1W8PCJQ1H8N7AFE","3WETL7AQWVEOAKTL7J2UZQRNWUU35A","model","mismatch","uniform","","","","","","","","195062","197066","","","","","","","","","","","","8","","stimuli/stars_8.png","118","","","","","stimuli/HF10_SC.jpg","",""
"explore-choice","73","197007","0.0-73.0","p184505","A98E8M4QLI9RS","3S1L4CQSFYBD9IN1W8PCJQ1H8N7AFE","3WETL7AQWVEOAKTL7J2UZQRNWUU35A","model","mismatch","uniform","","","","","","","1044","197067","198111","[""stimuli/BF08_CC.jpg"",""stimuli/WM09_SC.jpg"",""stimuli/HM10_AO.jpg"",""stimuli/HF10_DO.jpg""]","stimuli/BF08_CC.jpg","stimuli/WM09_SC.jpg","stimuli/HM10_AO.jpg","stimuli/HF10_DO.jpg","pos4","stimuli/HF10_DO.jpg","DO","HF10","3","4","8","8","stimuli/stars_8.png","122","[""CC"",""SC"",""AO"",""DO""]","[""BF08"",""WM09"",""HM10"",""HF10""]","[5,4,6,8]","[4,2,6,8]","","",""
"show-reward","74","199011","0.0-74.0","p184505","A98E8M4QLI9RS","3S1L4CQSFYBD9IN1W8PCJQ1H8N7AFE","3WETL7AQWVEOAKTL7J2UZQRNWUU35A","model","mismatch","uniform","","","","","","","","198622","200625","","","","","","","","","","","","8","","stimuli/stars_8.png","122","","","","","stimuli/HF10_DO.jpg","",""
"explore-choice","75","200437","0.0-75.0","p184505","A98E8M4QLI9RS","3S1L4CQSFYBD9IN1W8PCJQ1H8N7AFE","3WETL7AQWVEOAKTL7J2UZQRNWUU35A","model","mismatch","uniform","","","","","","","911","200626","201537","[""stimuli/HF10_CC.jpg"",""stimuli/WM09_SC.jpg"",""stimuli/HM10_DO.jpg"",""stimuli/BF08_AO.jpg""]","stimuli/HF10_CC.jpg","stimuli/WM09_SC.jpg","stimuli/HM10_DO.jpg","stimuli/BF08_AO.jpg","pos1","stimuli/HF10_CC.jpg","CC","HF10","0","4","8","8","stimuli/stars_8.png","126","[""CC"",""SC"",""DO"",""AO""]","[""HF10"",""WM09"",""HM10"",""BF08""]","[8,4,7,6]","[8,2,6,4]","","",""
"show-reward","76","202452","0.0-76.0","p184505","A98E8M4QLI9RS","3S1L4CQSFYBD9IN1W8PCJQ1H8N7AFE","3WETL7AQWVEOAKTL7J2UZQRNWUU35A","model","mismatch","uniform","","","","","","","","202053","204066","","","","","","","","","","","","8","","stimuli/stars_8.png","126","","","","","stimuli/HF10_CC.jpg","",""
"explore-choice","77","203962","0.0-77.0","p184505","A98E8M4QLI9RS","3S1L4CQSFYBD9IN1W8PCJQ1H8N7AFE","3WETL7AQWVEOAKTL7J2UZQRNWUU35A","model","mismatch","uniform","","","","","","","998","204067","205065","[""stimuli/HM10_DO.jpg"",""stimuli/BF08_SC.jpg"",""stimuli/HF10_AO.jpg"",""stimuli/WM09_CC.jpg""]","stimuli/HM10_DO.jpg","stimuli/BF08_SC.jpg","stimuli/HF10_AO.jpg","stimuli/WM09_CC.jpg","pos3","stimuli/HF10_AO.jpg","AO","HF10","2","4.5","9","8","stimuli/stars_9.png","130.5","[""DO"",""SC"",""AO"",""CC""]","[""HM10"",""BF08"",""HF10"",""WM09""]","[8,3,9,2]","[6,4,8,2]","","",""
"show-reward","78","205980","0.0-78.0","p184505","A98E8M4QLI9RS","3S1L4CQSFYBD9IN1W8PCJQ1H8N7AFE","3WETL7AQWVEOAKTL7J2UZQRNWUU35A","model","mismatch","uniform","","","","","","","","205577","207593","","","","","","","","","","","","9","","stimuli/stars_9.png","130.5","","","","","stimuli/HF10_AO.jpg","",""
"explore-choice","79","207280","0.0-79.0","p184505","A98E8M4QLI9RS","3S1L4CQSFYBD9IN1W8PCJQ1H8N7AFE","3WETL7AQWVEOAKTL7J2UZQRNWUU35A","model","mismatch","uniform","","","","","","","795","207595","208390","[""stimuli/HM10_AO.jpg"",""stimuli/BF08_DO.jpg"",""stimuli/HF10_SC.jpg"",""stimuli/WM09_CC.jpg""]","stimuli/HM10_AO.jpg","stimuli/BF08_DO.jpg","stimuli/HF10_SC.jpg","stimuli/WM09_CC.jpg","pos3","stimuli/HF10_SC.jpg","SC","HF10","2","3","6","8","stimuli/stars_6.png","133.5","[""AO"",""DO"",""SC"",""CC""]","[""HM10"",""BF08"",""HF10"",""WM09""]","[8,5,6,2]","[6,4,8,2]","","",""
"show-reward","80","209297","0.0-80.0","p184505","A98E8M4QLI9RS","3S1L4CQSFYBD9IN1W8PCJQ1H8N7AFE","3WETL7AQWVEOAKTL7J2UZQRNWUU35A","model","mismatch","uniform","","","","","","","","208895","210911","","","","","","","","","","","","6","","stimuli/stars_6.png","133.5","","","","","stimuli/HF10_SC.jpg","",""
"explore-choice","81","210617","0.0-81.0","p184505","A98E8M4QLI9RS","3S1L4CQSFYBD9IN1W8PCJQ1H8N7AFE","3WETL7AQWVEOAKTL7J2UZQRNWUU35A","model","mismatch","uniform","","","","","","","815","210912","211727","[""stimuli/BF08_CC.jpg"",""stimuli/HF10_SC.jpg"",""stimuli/WM09_DO.jpg"",""stimuli/HM10_AO.jpg""]","stimuli/BF08_CC.jpg","stimuli/HF10_SC.jpg","stimuli/WM09_DO.jpg","stimuli/HM10_AO.jpg","pos2","stimuli/HF10_SC.jpg","SC","HF10","1","3.5","7","8","stimuli/stars_7.png","137","[""CC"",""SC"",""DO"",""AO""]","[""BF08"",""HF10"",""WM09"",""HM10""]","[6,7,4,6]","[4,8,2,6]","","",""
"show-reward","82","212620","0.0-82.0","p184505","A98E8M4QLI9RS","3S1L4CQSFYBD9IN1W8PCJQ1H8N7AFE","3WETL7AQWVEOAKTL7J2UZQRNWUU35A","model","mismatch","uniform","","","","","","","","212232","214235","","","","","","","","","","","","7","","stimuli/stars_7.png","137","","","","","stimuli/HF10_SC.jpg","",""
"explore-choice","83","213923","0.0-83.0","p184505","A98E8M4QLI9RS","3S1L4CQSFYBD9IN1W8PCJQ1H8N7AFE","3WETL7AQWVEOAKTL7J2UZQRNWUU35A","model","mismatch","uniform","","","","","","","796","214236","215032","[""stimuli/HM10_CC.jpg"",""stimuli/BF08_SC.jpg"",""stimuli/HF10_AO.jpg"",""stimuli/WM09_DO.jpg""]","stimuli/HM10_CC.jpg","stimuli/BF08_SC.jpg","stimuli/HF10_AO.jpg","stimuli/WM09_DO.jpg","pos3","stimuli/HF10_AO.jpg","AO","HF10","2","3","6","8","stimuli/stars_6.png","140","[""CC"",""SC"",""AO"",""DO""]","[""HM10"",""BF08"",""HF10"",""WM09""]","[6,4,6,2]","[6,4,8,2]","","",""
"show-reward","84","215935","0.0-84.0","p184505","A98E8M4QLI9RS","3S1L4CQSFYBD9IN1W8PCJQ1H8N7AFE","3WETL7AQWVEOAKTL7J2UZQRNWUU35A","model","mismatch","uniform","","","","","","","","215537","217549","","","","","","","","","","","","6","","stimuli/stars_6.png","140","","","","","stimuli/HF10_AO.jpg","",""
"explore-choice","85","217365","0.0-85.0","p184505","A98E8M4QLI9RS","3S1L4CQSFYBD9IN1W8PCJQ1H8N7AFE","3WETL7AQWVEOAKTL7J2UZQRNWUU35A","model","mismatch","uniform","","","","","","","924","217550","218474","[""stimuli/HF10_CC.jpg"",""stimuli/WM09_AO.jpg"",""stimuli/BF08_DO.jpg"",""stimuli/HM10_SC.jpg""]","stimuli/HF10_CC.jpg","stimuli/WM09_AO.jpg","stimuli/BF08_DO.jpg","stimuli/HM10_SC.jpg","pos1","stimuli/HF10_CC.jpg","CC","HF10","0","3.5","7","8","stimuli/stars_7.png","143.5","[""CC"",""AO"",""DO"",""SC""]","[""HF10"",""WM09"",""BF08"",""HM10""]","[7,2,5,6]","[8,2,4,6]","","",""
"show-reward","86","219377","0.0-86.0","p184505","A98E8M4QLI9RS","3S1L4CQSFYBD9IN1W8PCJQ1H8N7AFE","3WETL7AQWVEOAKTL7J2UZQRNWUU35A","model","mismatch","uniform","","","","","","","","218980","220991","","","","","","","","","","","","7","","stimuli/stars_7.png","143.5","","","","","stimuli/HF10_CC.jpg","",""
"explore-choice","87","222059","0.0-87.0","p184505","A98E8M4QLI9RS","3S1L4CQSFYBD9IN1W8PCJQ1H8N7AFE","3WETL7AQWVEOAKTL7J2UZQRNWUU35A","model","mismatch","uniform","","","","","","","2173","220992","223165","[""stimuli/HM10_DO.jpg"",""stimuli/WM09_AO.jpg"",""stimuli/BF08_CC.jpg"",""stimuli/HF10_SC.jpg""]","stimuli/HM10_DO.jpg","stimuli/WM09_AO.jpg","stimuli/BF08_CC.jpg","stimuli/HF10_SC.jpg","pos2","stimuli/WM09_AO.jpg","AO","WM09","1","1","2","2","stimuli/stars_2.png","144.5","[""DO"",""AO"",""CC"",""SC""]","[""HM10"",""WM09"",""BF08"",""HF10""]","[7,2,2,6]","[6,2,4,8]","","",""
"show-reward","88","224075","0.0-88.0","p184505","A98E8M4QLI9RS","3S1L4CQSFYBD9IN1W8PCJQ1H8N7AFE","3WETL7AQWVEOAKTL7J2UZQRNWUU35A","model","mismatch","uniform","","","","","","","","223674","225690","","","","","","","","","","","","2","","stimuli/stars_2.png","144.5","","","","","stimuli/WM09_AO.jpg","",""
"explore-choice","89","225766","0.0-89.0","p184505","A98E8M4QLI9RS","3S1L4CQSFYBD9IN1W8PCJQ1H8N7AFE","3WETL7AQWVEOAKTL7J2UZQRNWUU35A","model","mismatch","uniform","","","","","","","1180","225690","226870","[""stimuli/HF10_AO.jpg"",""stimuli/HM10_CC.jpg"",""stimuli/WM09_SC.jpg"",""stimuli/BF08_DO.jpg""]","stimuli/HF10_AO.jpg","stimuli/HM10_CC.jpg","stimuli/WM09_SC.jpg","stimuli/BF08_DO.jpg","pos2","stimuli/HM10_CC.jpg","CC","HM10","1","2","4","6","stimuli/stars_4.png","146.5","[""AO"",""CC"",""SC"",""DO""]","[""HF10"",""HM10"",""WM09"",""BF08""]","[8,4,0,2]","[8,6,2,4]","","",""
"show-reward","90","227775","0.0-90.0","p184505","A98E8M4QLI9RS","3S1L4CQSFYBD9IN1W8PCJQ1H8N7AFE","3WETL7AQWVEOAKTL7J2UZQRNWUU35A","model","mismatch","uniform","","","","","","","","227381","229389","","","","","","","","","","","","4","","stimuli/stars_4.png","146.5","","","","","stimuli/HM10_CC.jpg","",""
"explore-choice","91","229584","0.0-91.0","p184505","A98E8M4QLI9RS","3S1L4CQSFYBD9IN1W8PCJQ1H8N7AFE","3WETL7AQWVEOAKTL7J2UZQRNWUU35A","model","mismatch","uniform","","","","","","","1291","229391","230682","[""stimuli/WM09_AO.jpg"",""stimuli/HM10_DO.jpg"",""stimuli/HF10_CC.jpg"",""stimuli/BF08_SC.jpg""]","stimuli/WM09_AO.jpg","stimuli/HM10_DO.jpg","stimuli/HF10_CC.jpg","stimuli/BF08_SC.jpg","pos4","stimuli/BF08_SC.jpg","SC","BF08","3","2","4","4","stimuli/stars_4.png","148.5","[""AO"",""DO"",""CC"",""SC""]","[""WM09"",""HM10"",""HF10"",""BF08""]","[1,6,9,4]","[2,6,8,4]","","",""
"show-reward","92","231595","0.0-92.0","p184505","A98E8M4QLI9RS","3S1L4CQSFYBD9IN1W8PCJQ1H8N7AFE","3WETL7AQWVEOAKTL7J2UZQRNWUU35A","model","mismatch","uniform","","","","","","","","231198","233209","","","","","","","","","","","","4","","stimuli/stars_4.png","148.5","","","","","stimuli/BF08_SC.jpg","",""
"explore-choice","93","232807","0.0-93.0","p184505","A98E8M4QLI9RS","3S1L4CQSFYBD9IN1W8PCJQ1H8N7AFE","3WETL7AQWVEOAKTL7J2UZQRNWUU35A","model","mismatch","uniform","","","","","","","708","233210","233918","[""stimuli/HM10_SC.jpg"",""stimuli/HF10_AO.jpg"",""stimuli/BF08_CC.jpg"",""stimuli/WM09_DO.jpg""]","stimuli/HM10_SC.jpg","stimuli/HF10_AO.jpg","stimuli/BF08_CC.jpg","stimuli/WM09_DO.jpg","pos3","stimuli/BF08_CC.jpg","CC","BF08","2","1","2","4","stimuli/stars_2.png","149.5","[""SC"",""AO"",""CC"",""DO""]","[""HM10"",""HF10"",""BF08"",""WM09""]","[4,7,2,0]","[6,8,4,2]","","",""
"show-reward","94","234812","0.0-94.0","p184505","A98E8M4QLI9RS","3S1L4CQSFYBD9IN1W8PCJQ1H8N7AFE","3WETL7AQWVEOAKTL7J2UZQRNWUU35A","model","mismatch","uniform","","","","","","","","234422","236425","","","","","","","","","","","","2","","stimuli/stars_2.png","149.5","","","","","stimuli/BF08_CC.jpg","",""
"explore-choice","95","235975","0.0-95.0","p184505","A98E8M4QLI9RS","3S1L4CQSFYBD9IN1W8PCJQ1H8N7AFE","3WETL7AQWVEOAKTL7J2UZQRNWUU35A","model","mismatch","uniform","","","","","","","656","236426","237082","[""stimuli/HM10_AO.jpg"",""stimuli/HF10_DO.jpg"",""stimuli/BF08_SC.jpg"",""stimuli/WM09_CC.jpg""]","stimuli/HM10_AO.jpg","stimuli/HF10_DO.jpg","stimuli/BF08_SC.jpg","stimuli/WM09_CC.jpg","pos2","stimuli/HF10_DO.jpg","DO","HF10","1","4.5","9","8","stimuli/stars_9.png","154","[""AO"",""DO"",""SC"",""CC""]","[""HM10"",""HF10"",""BF08"",""WM09""]","[8,9,3,3]","[6,8,4,2]","","",""
"show-reward","96","237978","0.0-96.0","p184505","A98E8M4QLI9RS","3S1L4CQSFYBD9IN1W8PCJQ1H8N7AFE","3WETL7AQWVEOAKTL7J2UZQRNWUU35A","model","mismatch","uniform","","","","","","","","237590","239592","","","","","","","","","","","","9","","stimuli/stars_9.png","154","","","","","stimuli/HF10_DO.jpg","",""
"explore-choice","97","239342","0.0-97.0","p184505","A98E8M4QLI9RS","3S1L4CQSFYBD9IN1W8PCJQ1H8N7AFE","3WETL7AQWVEOAKTL7J2UZQRNWUU35A","model","mismatch","uniform","","","","","","","861","239593","240454","[""stimuli/WM09_SC.jpg"",""stimuli/BF08_CC.jpg"",""stimuli/HM10_DO.jpg"",""stimuli/HF10_AO.jpg""]","stimuli/WM09_SC.jpg","stimuli/BF08_CC.jpg","stimuli/HM10_DO.jpg","stimuli/HF10_AO.jpg","pos4","stimuli/HF10_AO.jpg","AO","HF10","3","3","6","8","stimuli/stars_6.png","157","[""SC"",""CC"",""DO"",""AO""]","[""WM09"",""BF08"",""HM10"",""HF10""]","[2,5,5,6]","[2,4,6,8]","","",""
"show-reward","98","241348","0.0-98.0","p184505","A98E8M4QLI9RS","3S1L4CQSFYBD9IN1W8PCJQ1H8N7AFE","3WETL7AQWVEOAKTL7J2UZQRNWUU35A","model","mismatch","uniform","","","","","","","","240957","242961","","","","","","","","","","","","6","","stimuli/stars_6.png","157","","","","","stimuli/HF10_AO.jpg","",""
"explore-choice","99","242653","0.0-99.0","p184505","A98E8M4QLI9RS","3S1L4CQSFYBD9IN1W8PCJQ1H8N7AFE","3WETL7AQWVEOAKTL7J2UZQRNWUU35A","model","mismatch","uniform","","","","","","","803","242962","243765","[""stimuli/BF08_SC.jpg"",""stimuli/HM10_AO.jpg"",""stimuli/HF10_CC.jpg"",""stimuli/WM09_DO.jpg""]","stimuli/BF08_SC.jpg","stimuli/HM10_AO.jpg","stimuli/HF10_CC.jpg","stimuli/WM09_DO.jpg","pos3","stimuli/HF10_CC.jpg","CC","HF10","2","3","6","8","stimuli/stars_6.png","160","[""SC"",""AO"",""CC"",""DO""]","[""BF08"",""HM10"",""HF10"",""WM09""]","[4,4,6,4]","[4,6,8,2]","","",""
"show-reward","100","244673","0.0-100.0","p184505","A98E8M4QLI9RS","3S1L4CQSFYBD9IN1W8PCJQ1H8N7AFE","3WETL7AQWVEOAKTL7J2UZQRNWUU35A","model","mismatch","uniform","","","","","","","","244269","246286","","","","","","","","","","","","6","","stimuli/stars_6.png","160","","","","","stimuli/HF10_CC.jpg","",""
"explore-choice","101","245942","0.0-101.0","p184505","A98E8M4QLI9RS","3S1L4CQSFYBD9IN1W8PCJQ1H8N7AFE","3WETL7AQWVEOAKTL7J2UZQRNWUU35A","model","mismatch","uniform","","","","","","","758","246287","247045","[""stimuli/HM10_SC.jpg"",""stimuli/HF10_AO.jpg"",""stimuli/WM09_CC.jpg"",""stimuli/BF08_DO.jpg""]","stimuli/HM10_SC.jpg","stimuli/HF10_AO.jpg","stimuli/WM09_CC.jpg","stimuli/BF08_DO.jpg","pos2","stimuli/HF10_AO.jpg","AO","HF10","1","4.5","9","8","stimuli/stars_9.png","164.5","[""SC"",""AO"",""CC"",""DO""]","[""HM10"",""HF10"",""WM09"",""BF08""]","[8,9,2,5]","[6,8,2,4]","","",""
"show-reward","102","247952","0.0-102.0","p184505","A98E8M4QLI9RS","3S1L4CQSFYBD9IN1W8PCJQ1H8N7AFE","3WETL7AQWVEOAKTL7J2UZQRNWUU35A","model","mismatch","uniform","","","","","","","","247557","249566","","","","","","","","","","","","9","","stimuli/stars_9.png","164.5","","","","","stimuli/HF10_AO.jpg","",""
"explore-choice","103","249360","0.0-103.0","p184505","A98E8M4QLI9RS","3S1L4CQSFYBD9IN1W8PCJQ1H8N7AFE","3WETL7AQWVEOAKTL7J2UZQRNWUU35A","model","mismatch","uniform","","","","","","","896","249567","250463","[""stimuli/BM07_SUR.jpg"",""stimuli/HF09_HO.jpg"",""stimuli/WM11_HE.jpg"",""stimuli/AM09_FO.jpg""]","stimuli/BM07_SUR.jpg","stimuli/HF09_HO.jpg","stimuli/WM11_HE.jpg","stimuli/AM09_FO.jpg","pos2","stimuli/HF09_HO.jpg","HO","HF09","1","1.5","3","4","stimuli/stars_3.png","166","[""SUR"",""HO"",""HE"",""FO""]","[""BM07"",""HF09"",""WM11"",""AM09""]","[0,3,5,7]","[2,4,6,8]","","",""
"show-reward","104","251376","0.0-104.0","p184505","A98E8M4QLI9RS","3S1L4CQSFYBD9IN1W8PCJQ1H8N7AFE","3WETL7AQWVEOAKTL7J2UZQRNWUU35A","model","mismatch","uniform","","","","","","","","250975","252990","","","","","","","","","","","","3","","stimuli/stars_3.png","166","","","","","stimuli/HF09_HO.jpg","",""
"explore-choice","105","253460","0.0-105.0","p184505","A98E8M4QLI9RS","3S1L4CQSFYBD9IN1W8PCJQ1H8N7AFE","3WETL7AQWVEOAKTL7J2UZQRNWUU35A","model","mismatch","uniform","","","","","","","1572","252990","254562","[""stimuli/AM09_SUR.jpg"",""stimuli/WM11_HE.jpg"",""stimuli/HF09_HO.jpg"",""stimuli/BM07_FO.jpg""]","stimuli/AM09_SUR.jpg","stimuli/WM11_HE.jpg","stimuli/HF09_HO.jpg","stimuli/BM07_FO.jpg","pos1","stimuli/AM09_SUR.jpg","SUR","AM09","0","0.5","1","2","stimuli/stars_1.png","166.5","[""SUR"",""HE"",""HO"",""FO""]","[""AM09"",""WM11"",""HF09"",""BM07""]","[1,6,6,7]","[2,6,4,8]","","",""
"show-reward","106","255475","0.0-106.0","p184505","A98E8M4QLI9RS","3S1L4CQSFYBD9IN1W8PCJQ1H8N7AFE","3WETL7AQWVEOAKTL7J2UZQRNWUU35A","model","mismatch","uniform","","","","","","","","255074","257089","","","","","","","","","","","","1","","stimuli/stars_1.png","166.5","","","","","stimuli/AM09_SUR.jpg","",""
"explore-choice","107","256939","0.0-107.0","p184505","A98E8M4QLI9RS","3S1L4CQSFYBD9IN1W8PCJQ1H8N7AFE","3WETL7AQWVEOAKTL7J2UZQRNWUU35A","model","mismatch","uniform","","","","","","","950","257090","258040","[""stimuli/BM07_FO.jpg"",""stimuli/WM11_HO.jpg"",""stimuli/AM09_HE.jpg"",""stimuli/HF09_SUR.jpg""]","stimuli/BM07_FO.jpg","stimuli/WM11_HO.jpg","stimuli/AM09_HE.jpg","stimuli/HF09_SUR.jpg","pos4","stimuli/HF09_SUR.jpg","SUR","HF09","3","0.5","1","2","stimuli/stars_1.png","167","[""FO"",""HO"",""HE"",""SUR""]","[""BM07"",""WM11"",""AM09"",""HF09""]","[10,5,7,1]","[8,4,6,2]","","",""
"show-reward","108","258945","0.0-108.0","p184505","A98E8M4QLI9RS","3S1L4CQSFYBD9IN1W8PCJQ1H8N7AFE","3WETL7AQWVEOAKTL7J2UZQRNWUU35A","model","mismatch","uniform","","","","","","","","258555","260560","","","","","","","","","","","","1","","stimuli/stars_1.png","167","","","","","stimuli/HF09_SUR.jpg","",""
"explore-choice","109","261001","0.0-109.0","p184505","A98E8M4QLI9RS","3S1L4CQSFYBD9IN1W8PCJQ1H8N7AFE","3WETL7AQWVEOAKTL7J2UZQRNWUU35A","model","mismatch","uniform","","","","","","","1542","260561","262103","[""stimuli/WM11_SUR.jpg"",""stimuli/BM07_FO.jpg"",""stimuli/AM09_HO.jpg"",""stimuli/HF09_HE.jpg""]","stimuli/WM11_SUR.jpg","stimuli/BM07_FO.jpg","stimuli/AM09_HO.jpg","stimuli/HF09_HE.jpg","pos1","stimuli/WM11_SUR.jpg","SUR","WM11","0","1","2","2","stimuli/stars_2.png","168","[""SUR"",""FO"",""HO"",""HE""]","[""WM11"",""BM07"",""AM09"",""HF09""]","[2,7,2,8]","[2,8,4,6]","","",""
"show-reward","110","263019","0.0-110.0","p184505","A98E8M4QLI9RS","3S1L4CQSFYBD9IN1W8PCJQ1H8N7AFE","3WETL7AQWVEOAKTL7J2UZQRNWUU35A","model","mismatch","uniform","","","","","","","","262616","264633","","","","","","","","","","","","2","","stimuli/stars_2.png","168","","","","","stimuli/WM11_SUR.jpg","",""
"explore-choice","111","264155","0.0-111.0","p184505","A98E8M4QLI9RS","3S1L4CQSFYBD9IN1W8PCJQ1H8N7AFE","3WETL7AQWVEOAKTL7J2UZQRNWUU35A","model","mismatch","uniform","","","","","","","623","264634","265257","[""stimuli/AM09_HO.jpg"",""stimuli/BM07_SUR.jpg"",""stimuli/HF09_FO.jpg"",""stimuli/WM11_HE.jpg""]","stimuli/AM09_HO.jpg","stimuli/BM07_SUR.jpg","stimuli/HF09_FO.jpg","stimuli/WM11_HE.jpg","pos2","stimuli/BM07_SUR.jpg","SUR","BM07","1","1.5","3","2","stimuli/stars_3.png","169.5","[""HO"",""SUR"",""FO"",""HE""]","[""AM09"",""BM07"",""HF09"",""WM11""]","[5,3,6,8]","[4,2,8,6]","","",""
"show-reward","112","266169","0.0-112.0","p184505","A98E8M4QLI9RS","3S1L4CQSFYBD9IN1W8PCJQ1H8N7AFE","3WETL7AQWVEOAKTL7J2UZQRNWUU35A","model","mismatch","uniform","","","","","","","","265770","267783","","","","","","","","","","","","3","","stimuli/stars_3.png","169.5","","","","","stimuli/BM07_SUR.jpg","",""
"explore-choice","113","267790","0.0-113.0","p184505","A98E8M4QLI9RS","3S1L4CQSFYBD9IN1W8PCJQ1H8N7AFE","3WETL7AQWVEOAKTL7J2UZQRNWUU35A","model","mismatch","uniform","","","","","","","1113","267784","268897","[""stimuli/BM07_HE.jpg"",""stimuli/AM09_SUR.jpg"",""stimuli/HF09_HO.jpg"",""stimuli/WM11_FO.jpg""]","stimuli/BM07_HE.jpg","stimuli/AM09_SUR.jpg","stimuli/HF09_HO.jpg","stimuli/WM11_FO.jpg","pos1","stimuli/BM07_HE.jpg","HE","BM07","0","3","6","6","stimuli/stars_6.png","172.5","[""HE"",""SUR"",""HO"",""FO""]","[""BM07"",""AM09"",""HF09"",""WM11""]","[6,1,3,8]","[6,2,4,8]","","",""
"show-reward","114","269800","0.0-114.0","p184505","A98E8M4QLI9RS","3S1L4CQSFYBD9IN1W8PCJQ1H8N7AFE","3WETL7AQWVEOAKTL7J2UZQRNWUU35A","model","mismatch","uniform","","","","","","","","269404","271414","","","","","","","","","","","","6","","stimuli/stars_6.png","172.5","","","","","stimuli/BM07_HE.jpg","",""
"explore-choice","115","271295","0.0-115.0","p184505","A98E8M4QLI9RS","3S1L4CQSFYBD9IN1W8PCJQ1H8N7AFE","3WETL7AQWVEOAKTL7J2UZQRNWUU35A","model","mismatch","uniform","","","","","","","989","271415","272404","[""stimuli/HF09_FO.jpg"",""stimuli/AM09_HE.jpg"",""stimuli/WM11_HO.jpg"",""stimuli/BM07_SUR.jpg""]","stimuli/HF09_FO.jpg","stimuli/AM09_HE.jpg","stimuli/WM11_HO.jpg","stimuli/BM07_SUR.jpg","pos4","stimuli/BM07_SUR.jpg","SUR","BM07","3","0","0","2","stimuli/stars_0.png","172.5","[""FO"",""HE"",""HO"",""SUR""]","[""HF09"",""AM09"",""WM11"",""BM07""]","[10,6,2,0]","[8,6,4,2]","","",""
"show-reward","116","273298","0.0-116.0","p184505","A98E8M4QLI9RS","3S1L4CQSFYBD9IN1W8PCJQ1H8N7AFE","3WETL7AQWVEOAKTL7J2UZQRNWUU35A","model","mismatch","uniform","","","","","","","","272911","274912","","","","","","","","","","","","0","","stimuli/stars_0.png","172.5","","","","","stimuli/BM07_SUR.jpg","",""
"explore-choice","117","274589","0.0-117.0","p184505","A98E8M4QLI9RS","3S1L4CQSFYBD9IN1W8PCJQ1H8N7AFE","3WETL7AQWVEOAKTL7J2UZQRNWUU35A","model","mismatch","uniform","","","","","","","787","274912","275699","[""stimuli/BM07_HE.jpg"",""stimuli/WM11_HO.jpg"",""stimuli/AM09_FO.jpg"",""stimuli/HF09_SUR.jpg""]","stimuli/BM07_HE.jpg","stimuli/WM11_HO.jpg","stimuli/AM09_FO.jpg","stimuli/HF09_SUR.jpg","pos3","stimuli/AM09_FO.jpg","FO","AM09","2","5","10","8","stimuli/stars_10.png","177.5","[""HE"",""HO"",""FO"",""SUR""]","[""BM07"",""WM11"",""AM09"",""HF09""]","[5,6,10,0]","[6,4,8,2]","","",""
"show-reward","118","276595","0.0-118.0","p184505","A98E8M4QLI9RS","3S1L4CQSFYBD9IN1W8PCJQ1H8N7AFE","3WETL7AQWVEOAKTL7J2UZQRNWUU35A","model","mismatch","uniform","","","","","","","","276203","278209","","","","","","","","","","","","10","","stimuli/stars_10.png","177.5","","","","","stimuli/AM09_FO.jpg","",""
"explore-choice","119","278058","0.0-119.0","p184505","A98E8M4QLI9RS","3S1L4CQSFYBD9IN1W8PCJQ1H8N7AFE","3WETL7AQWVEOAKTL7J2UZQRNWUU35A","model","mismatch","uniform","","","","","","","962","278209","279171","[""stimuli/AM09_SUR.jpg"",""stimuli/BM07_HO.jpg"",""stimuli/HF09_HE.jpg"",""stimuli/WM11_FO.jpg""]","stimuli/AM09_SUR.jpg","stimuli/BM07_HO.jpg","stimuli/HF09_HE.jpg","stimuli/WM11_FO.jpg","pos1","stimuli/AM09_SUR.jpg","SUR","AM09","0","1.5","3","2","stimuli/stars_3.png","179","[""SUR"",""HO"",""HE"",""FO""]","[""AM09"",""BM07"",""HF09"",""WM11""]","[3,5,6,7]","[2,4,6,8]","","",""
"show-reward","120","280067","0.0-120.0","p184505","A98E8M4QLI9RS","3S1L4CQSFYBD9IN1W8PCJQ1H8N7AFE","3WETL7AQWVEOAKTL7J2UZQRNWUU35A","model","mismatch","uniform","","","","","","","","279673","281681","","","","","","","","","","","","3","","stimuli/stars_3.png","179","","","","","stimuli/AM09_SUR.jpg","",""
"explore-choice","121","281914","0.0-121.0","p184505","A98E8M4QLI9RS","3S1L4CQSFYBD9IN1W8PCJQ1H8N7AFE","3WETL7AQWVEOAKTL7J2UZQRNWUU35A","model","mismatch","uniform","","","","","","","1345","281682","283027","[""stimuli/WM11_HO.jpg"",""stimuli/HF09_HE.jpg"",""stimuli/AM09_FO.jpg"",""stimuli/BM07_SUR.jpg""]","stimuli/WM11_HO.jpg","stimuli/HF09_HE.jpg","stimuli/AM09_FO.jpg","stimuli/BM07_SUR.jpg","pos3","stimuli/AM09_FO.jpg","FO","AM09","2","5","10","8","stimuli/stars_10.png","184","[""HO"",""HE"",""FO"",""SUR""]","[""WM11"",""HF09"",""AM09"",""BM07""]","[6,4,10,2]","[4,6,8,2]","","",""
"show-reward","122","283923","0.0-122.0","p184505","A98E8M4QLI9RS","3S1L4CQSFYBD9IN1W8PCJQ1H8N7AFE","3WETL7AQWVEOAKTL7J2UZQRNWUU35A","model","mismatch","uniform","","","","","","","","283528","285537","","","","","","","","","","","","10","","stimuli/stars_10.png","184","","","","","stimuli/AM09_FO.jpg","",""
"explore-choice","123","286302","0.0-123.0","p184505","A98E8M4QLI9RS","3S1L4CQSFYBD9IN1W8PCJQ1H8N7AFE","3WETL7AQWVEOAKTL7J2UZQRNWUU35A","model","mismatch","uniform","","","","","","","1868","285538","287406","[""stimuli/AM09_SUR.jpg"",""stimuli/BM07_HE.jpg"",""stimuli/WM11_HO.jpg"",""stimuli/HF09_FO.jpg""]","stimuli/AM09_SUR.jpg","stimuli/BM07_HE.jpg","stimuli/WM11_HO.jpg","stimuli/HF09_FO.jpg","pos1","stimuli/AM09_SUR.jpg","SUR","AM09","0","2","4","2","stimuli/stars_4.png","186","[""SUR"",""HE"",""HO"",""FO""]","[""AM09"",""BM07"",""WM11"",""HF09""]","[4,8,2,8]","[2,6,4,8]","","",""
"show-reward","124","288312","0.0-124.0","p184505","A98E8M4QLI9RS","3S1L4CQSFYBD9IN1W8PCJQ1H8N7AFE","3WETL7AQWVEOAKTL7J2UZQRNWUU35A","model","mismatch","uniform","","","","","","","","287917","289927","","","","","","","","","","","","4","","stimuli/stars_4.png","186","","","","","stimuli/AM09_SUR.jpg","",""
"explore-choice","125","289883","0.0-125.0","p184505","A98E8M4QLI9RS","3S1L4CQSFYBD9IN1W8PCJQ1H8N7AFE","3WETL7AQWVEOAKTL7J2UZQRNWUU35A","model","mismatch","uniform","","","","","","","1066","289927","290993","[""stimuli/BM07_SUR.jpg"",""stimuli/AM09_HE.jpg"",""stimuli/WM11_FO.jpg"",""stimuli/HF09_HO.jpg""]","stimuli/BM07_SUR.jpg","stimuli/AM09_HE.jpg","stimuli/WM11_FO.jpg","stimuli/HF09_HO.jpg","pos2","stimuli/AM09_HE.jpg","HE","AM09","1","2.5","5","6","stimuli/stars_5.png","188.5","[""SUR"",""HE"",""FO"",""HO""]","[""BM07"",""AM09"",""WM11"",""HF09""]","[2,5,9,4]","[2,6,8,4]","","",""
"show-reward","126","291886","0.0-126.0","p184505","A98E8M4QLI9RS","3S1L4CQSFYBD9IN1W8PCJQ1H8N7AFE","3WETL7AQWVEOAKTL7J2UZQRNWUU35A","model","mismatch","uniform","","","","","","","","291498","293501","","","","","","","","","","","","5","","stimuli/stars_5.png","188.5","","","","","stimuli/AM09_HE.jpg","",""
"explore-choice","127","293182","0.0-127.0","p184505","A98E8M4QLI9RS","3S1L4CQSFYBD9IN1W8PCJQ1H8N7AFE","3WETL7AQWVEOAKTL7J2UZQRNWUU35A","model","mismatch","uniform","","","","","","","793","293502","294295","[""stimuli/AM09_HO.jpg"",""stimuli/WM11_SUR.jpg"",""stimuli/BM07_HE.jpg"",""stimuli/HF09_FO.jpg""]","stimuli/AM09_HO.jpg","stimuli/WM11_SUR.jpg","stimuli/BM07_HE.jpg","stimuli/HF09_FO.jpg","pos1","stimuli/AM09_HO.jpg","HO","AM09","0","2","4","4","stimuli/stars_4.png","190.5","[""HO"",""SUR"",""HE"",""FO""]","[""AM09"",""WM11"",""BM07"",""HF09""]","[4,2,7,9]","[4,2,6,8]","","",""
"show-reward","128","295195","0.0-128.0","p184505","A98E8M4QLI9RS","3S1L4CQSFYBD9IN1W8PCJQ1H8N7AFE","3WETL7AQWVEOAKTL7J2UZQRNWUU35A","model","mismatch","uniform","","","","","","","","294797","296810","","","","","","","","","","","","4","","stimuli/stars_4.png","190.5","","","","","stimuli/AM09_HO.jpg","",""
"explore-choice","129","297221","0.0-129.0","p184505","A98E8M4QLI9RS","3S1L4CQSFYBD9IN1W8PCJQ1H8N7AFE","3WETL7AQWVEOAKTL7J2UZQRNWUU35A","model","mismatch","uniform","","","","","","","1523","296810","298333","[""stimuli/AM09_HE.jpg"",""stimuli/WM11_SUR.jpg"",""stimuli/BM07_FO.jpg"",""stimuli/HF09_HO.jpg""]","stimuli/AM09_HE.jpg","stimuli/WM11_SUR.jpg","stimuli/BM07_FO.jpg","stimuli/HF09_HO.jpg","pos1","stimuli/AM09_HE.jpg","HE","AM09","0","3.5","7","6","stimuli/stars_7.png","194","[""HE"",""SUR"",""FO"",""HO""]","[""AM09"",""WM11"",""BM07"",""HF09""]","[7,3,9,5]","[6,2,8,4]","","",""
"show-reward","130","299230","0.0-130.0","p184505","A98E8M4QLI9RS","3S1L4CQSFYBD9IN1W8PCJQ1H8N7AFE","3WETL7AQWVEOAKTL7J2UZQRNWUU35A","model","mismatch","uniform","","","","","","","","298837","300844","","","","","","","","","","","","7","","stimuli/stars_7.png","194","","","","","stimuli/AM09_HE.jpg","",""
"explore-choice","131","301257","0.0-131.0","p184505","A98E8M4QLI9RS","3S1L4CQSFYBD9IN1W8PCJQ1H8N7AFE","3WETL7AQWVEOAKTL7J2UZQRNWUU35A","model","mismatch","uniform","","","","","","","1514","300845","302359","[""stimuli/HF09_FO.jpg"",""stimuli/WM11_SUR.jpg"",""stimuli/BM07_HO.jpg"",""stimuli/AM09_HE.jpg""]","stimuli/HF09_FO.jpg","stimuli/WM11_SUR.jpg","stimuli/BM07_HO.jpg","stimuli/AM09_HE.jpg","pos4","stimuli/AM09_HE.jpg","HE","AM09","3","4","8","6","stimuli/stars_8.png","198","[""FO"",""SUR"",""HO"",""HE""]","[""HF09"",""WM11"",""BM07"",""AM09""]","[9,3,5,8]","[8,2,4,6]","","",""
"show-reward","132","303274","0.0-132.0","p184505","A98E8M4QLI9RS","3S1L4CQSFYBD9IN1W8PCJQ1H8N7AFE","3WETL7AQWVEOAKTL7J2UZQRNWUU35A","model","mismatch","uniform","","","","","","","","302872","304888","","","","","","","","","","","","8","","stimuli/stars_8.png","198","","","","","stimuli/AM09_HE.jpg","",""
"explore-choice","133","304725","0.0-133.0","p184505","A98E8M4QLI9RS","3S1L4CQSFYBD9IN1W8PCJQ1H8N7AFE","3WETL7AQWVEOAKTL7J2UZQRNWUU35A","model","mismatch","uniform","","","","","","","935","304889","305824","[""stimuli/HF09_HO.jpg"",""stimuli/BM07_HE.jpg"",""stimuli/WM11_SUR.jpg"",""stimuli/AM09_FO.jpg""]","stimuli/HF09_HO.jpg","stimuli/BM07_HE.jpg","stimuli/WM11_SUR.jpg","stimuli/AM09_FO.jpg","pos4","stimuli/AM09_FO.jpg","FO","AM09","3","4.5","9","8","stimuli/stars_9.png","202.5","[""HO"",""HE"",""SUR"",""FO""]","[""HF09"",""BM07"",""WM11"",""AM09""]","[4,7,4,9]","[4,6,2,8]","","",""
"show-reward","134","306729","0.0-134.0","p184505","A98E8M4QLI9RS","3S1L4CQSFYBD9IN1W8PCJQ1H8N7AFE","3WETL7AQWVEOAKTL7J2UZQRNWUU35A","model","mismatch","uniform","","","","","","","","306340","308343","","","","","","","","","","","","9","","stimuli/stars_9.png","202.5","","","","","stimuli/AM09_FO.jpg","",""
"explore-choice","135","308548","0.0-135.0","p184505","A98E8M4QLI9RS","3S1L4CQSFYBD9IN1W8PCJQ1H8N7AFE","3WETL7AQWVEOAKTL7J2UZQRNWUU35A","model","mismatch","uniform","","","","","","","1318","308343","309661","[""stimuli/AM09_FO.jpg"",""stimuli/BM07_HO.jpg"",""stimuli/WM11_HE.jpg"",""stimuli/HF09_SUR.jpg""]","stimuli/AM09_FO.jpg","stimuli/BM07_HO.jpg","stimuli/WM11_HE.jpg","stimuli/HF09_SUR.jpg","pos1","stimuli/AM09_FO.jpg","FO","AM09","0","3.5","7","8","stimuli/stars_7.png","206","[""FO"",""HO"",""HE"",""SUR""]","[""AM09"",""BM07"",""WM11"",""HF09""]","[7,5,4,2]","[8,4,6,2]","","",""
"show-reward","136","310554","0.0-136.0","p184505","A98E8M4QLI9RS","3S1L4CQSFYBD9IN1W8PCJQ1H8N7AFE","3WETL7AQWVEOAKTL7J2UZQRNWUU35A","model","mismatch","uniform","","","","","","","","310163","312168","","","","","","","","","","","","7","","stimuli/stars_7.png","206","","","","","stimuli/AM09_FO.jpg","",""
"explore-choice","137","311991","0.0-137.0","p184505","A98E8M4QLI9RS","3S1L4CQSFYBD9IN1W8PCJQ1H8N7AFE","3WETL7AQWVEOAKTL7J2UZQRNWUU35A","model","mismatch","uniform","","","","","","","925","312169","313094","[""stimuli/WM11_HE.jpg"",""stimuli/AM09_HO.jpg"",""stimuli/BM07_FO.jpg"",""stimuli/HF09_SUR.jpg""]","stimuli/WM11_HE.jpg","stimuli/AM09_HO.jpg","stimuli/BM07_FO.jpg","stimuli/HF09_SUR.jpg","pos2","stimuli/AM09_HO.jpg","HO","AM09","1","2.5","5","4","stimuli/stars_5.png","208.5","[""HE"",""HO"",""FO"",""SUR""]","[""WM11"",""AM09"",""BM07"",""HF09""]","[5,5,6,2]","[6,4,8,2]","","",""
"show-reward","138","314010","0.0-138.0","p184505","A98E8M4QLI9RS","3S1L4CQSFYBD9IN1W8PCJQ1H8N7AFE","3WETL7AQWVEOAKTL7J2UZQRNWUU35A","model","mismatch","uniform","","","","","","","","313607","315624","","","","","","","","","","","","5","","stimuli/stars_5.png","208.5","","","","","stimuli/AM09_HO.jpg","",""
"explore-choice","139","315584","0.0-139.0","p184505","A98E8M4QLI9RS","3S1L4CQSFYBD9IN1W8PCJQ1H8N7AFE","3WETL7AQWVEOAKTL7J2UZQRNWUU35A","model","mismatch","uniform","","","","","","","1070","315625","316695","[""stimuli/HF09_FO.jpg"",""stimuli/WM11_HE.jpg"",""stimuli/AM09_SUR.jpg"",""stimuli/BM07_HO.jpg""]","stimuli/HF09_FO.jpg","stimuli/WM11_HE.jpg","stimuli/AM09_SUR.jpg","stimuli/BM07_HO.jpg","pos3","stimuli/AM09_SUR.jpg","SUR","AM09","2","2","4","2","stimuli/stars_4.png","210.5","[""FO"",""HE"",""SUR"",""HO""]","[""HF09"",""WM11"",""AM09"",""BM07""]","[7,7,4,2]","[8,6,2,4]","","",""
"show-reward","140","317601","0.0-140.0","p184505","A98E8M4QLI9RS","3S1L4CQSFYBD9IN1W8PCJQ1H8N7AFE","3WETL7AQWVEOAKTL7J2UZQRNWUU35A","model","mismatch","uniform","","","","","","","","317199","319215","","","","","","","","","","","","4","","stimuli/stars_4.png","210.5","","","","","stimuli/AM09_SUR.jpg","",""
"explore-choice","141","319144","0.0-141.0","p184505","A98E8M4QLI9RS","3S1L4CQSFYBD9IN1W8PCJQ1H8N7AFE","3WETL7AQWVEOAKTL7J2UZQRNWUU35A","model","mismatch","uniform","","","","","","","1041","319216","320257","[""stimuli/HF09_SUR.jpg"",""stimuli/WM11_FO.jpg"",""stimuli/BM07_HE.jpg"",""stimuli/AM09_HO.jpg""]","stimuli/HF09_SUR.jpg","stimuli/WM11_FO.jpg","stimuli/BM07_HE.jpg","stimuli/AM09_HO.jpg","pos4","stimuli/AM09_HO.jpg","HO","AM09","3","2.5","5","4","stimuli/stars_5.png","213","[""SUR"",""FO"",""HE"",""HO""]","[""HF09"",""WM11"",""BM07"",""AM09""]","[0,9,8,5]","[2,8,6,4]","","",""
"show-reward","142","321154","0.0-142.0","p184505","A98E8M4QLI9RS","3S1L4CQSFYBD9IN1W8PCJQ1H8N7AFE","3WETL7AQWVEOAKTL7J2UZQRNWUU35A","model","mismatch","uniform","","","","","","","","320759","322769","","","","","","","","","","","","5","","stimuli/stars_5.png","213","","","","","stimuli/AM09_HO.jpg","",""
"explore-choice","143","322744","0.0-143.0","p184505","A98E8M4QLI9RS","3S1L4CQSFYBD9IN1W8PCJQ1H8N7AFE","3WETL7AQWVEOAKTL7J2UZQRNWUU35A","model","mismatch","uniform","","","","","","","1082","322769","323851","[""stimuli/WM11_FO.jpg"",""stimuli/HF09_SUR.jpg"",""stimuli/BM07_HO.jpg"",""stimuli/AM09_HE.jpg""]","stimuli/WM11_FO.jpg","stimuli/HF09_SUR.jpg","stimuli/BM07_HO.jpg","stimuli/AM09_HE.jpg","pos4","stimuli/AM09_HE.jpg","HE","AM09","3","2.5","5","6","stimuli/stars_5.png","215.5","[""FO"",""SUR"",""HO"",""HE""]","[""WM11"",""HF09"",""BM07"",""AM09""]","[6,0,3,5]","[8,2,4,6]","","",""
"show-reward","144","324749","0.0-144.0","p184505","A98E8M4QLI9RS","3S1L4CQSFYBD9IN1W8PCJQ1H8N7AFE","3WETL7AQWVEOAKTL7J2UZQRNWUU35A","model","mismatch","uniform","","","","","","","","324360","326363","","","","","","","","","","","","5","","stimuli/stars_5.png","215.5","","","","","stimuli/AM09_HE.jpg","",""
"explore-choice","145","326674","0.0-145.0","p184505","A98E8M4QLI9RS","3S1L4CQSFYBD9IN1W8PCJQ1H8N7AFE","3WETL7AQWVEOAKTL7J2UZQRNWUU35A","model","mismatch","uniform","","","","","","","1416","326364","327780","[""stimuli/HF09_HE.jpg"",""stimuli/WM11_SUR.jpg"",""stimuli/AM09_FO.jpg"",""stimuli/BM07_HO.jpg""]","stimuli/HF09_HE.jpg","stimuli/WM11_SUR.jpg","stimuli/AM09_FO.jpg","stimuli/BM07_HO.jpg","pos3","stimuli/AM09_FO.jpg","FO","AM09","2","3.5","7","8","stimuli/stars_7.png","219","[""HE"",""SUR"",""FO"",""HO""]","[""HF09"",""WM11"",""AM09"",""BM07""]","[4,2,7,3]","[6,2,8,4]","","",""
"show-reward","146","328681","0.0-146.0","p184505","A98E8M4QLI9RS","3S1L4CQSFYBD9IN1W8PCJQ1H8N7AFE","3WETL7AQWVEOAKTL7J2UZQRNWUU35A","model","mismatch","uniform","","","","","","","","328289","330295","","","","","","","","","","","","7","","stimuli/stars_7.png","219","","","","","stimuli/AM09_FO.jpg","",""
"explore-choice","147","330016","0.0-147.0","p184505","A98E8M4QLI9RS","3S1L4CQSFYBD9IN1W8PCJQ1H8N7AFE","3WETL7AQWVEOAKTL7J2UZQRNWUU35A","model","mismatch","uniform","","","","","","","821","330296","331117","[""stimuli/WM11_FO.jpg"",""stimuli/BM07_SUR.jpg"",""stimuli/HF09_HE.jpg"",""stimuli/AM09_HO.jpg""]","stimuli/WM11_FO.jpg","stimuli/BM07_SUR.jpg","stimuli/HF09_HE.jpg","stimuli/AM09_HO.jpg","pos4","stimuli/AM09_HO.jpg","HO","AM09","3","1.5","3","4","stimuli/stars_3.png","220.5","[""FO"",""SUR"",""HE"",""HO""]","[""WM11"",""BM07"",""HF09"",""AM09""]","[7,2,5,3]","[8,2,6,4]","","",""
"show-reward","148","332021","0.0-148.0","p184505","A98E8M4QLI9RS","3S1L4CQSFYBD9IN1W8PCJQ1H8N7AFE","3WETL7AQWVEOAKTL7J2UZQRNWUU35A","model","mismatch","uniform","","","","","","","","331631","333635","","","","","","","","","","","","3","","stimuli/stars_3.png","220.5","","","","","stimuli/AM09_HO.jpg","",""
"explore-choice","149","333696","0.0-149.0","p184505","A98E8M4QLI9RS","3S1L4CQSFYBD9IN1W8PCJQ1H8N7AFE","3WETL7AQWVEOAKTL7J2UZQRNWUU35A","model","mismatch","uniform","","","","","","","1168","333635","334803","[""stimuli/BM07_FO.jpg"",""stimuli/WM11_HO.jpg"",""stimuli/AM09_SUR.jpg"",""stimuli/HF09_HE.jpg""]","stimuli/BM07_FO.jpg","stimuli/WM11_HO.jpg","stimuli/AM09_SUR.jpg","stimuli/HF09_HE.jpg","pos3","stimuli/AM09_SUR.jpg","SUR","AM09","2","0","0","2","stimuli/stars_0.png","220.5","[""FO"",""HO"",""SUR"",""HE""]","[""BM07"",""WM11"",""AM09"",""HF09""]","[10,2,0,4]","[8,4,2,6]","","",""
"show-reward","150","335701","0.0-150.0","p184505","A98E8M4QLI9RS","3S1L4CQSFYBD9IN1W8PCJQ1H8N7AFE","3WETL7AQWVEOAKTL7J2UZQRNWUU35A","model","mismatch","uniform","","","","","","","","335311","337316","","","","","","","","","","","","0","","stimuli/stars_0.png","220.5","","","","","stimuli/AM09_SUR.jpg","",""
"explore-choice","151","337359","0.0-151.0","p184505","A98E8M4QLI9RS","3S1L4CQSFYBD9IN1W8PCJQ1H8N7AFE","3WETL7AQWVEOAKTL7J2UZQRNWUU35A","model","mismatch","uniform","","","","","","","1142","337316","338458","[""stimuli/BM07_HO.jpg"",""stimuli/AM09_SUR.jpg"",""stimuli/HF09_FO.jpg"",""stimuli/WM11_HE.jpg""]","stimuli/BM07_HO.jpg","stimuli/AM09_SUR.jpg","stimuli/HF09_FO.jpg","stimuli/WM11_HE.jpg","pos2","stimuli/AM09_SUR.jpg","SUR","AM09","1","2","4","2","stimuli/stars_4.png","222.5","[""HO"",""SUR"",""FO"",""HE""]","[""BM07"",""AM09"",""HF09"",""WM11""]","[2,4,7,7]","[4,2,8,6]","","",""
"show-reward","152","339373","0.0-152.0","p184505","A98E8M4QLI9RS","3S1L4CQSFYBD9IN1W8PCJQ1H8N7AFE","3WETL7AQWVEOAKTL7J2UZQRNWUU35A","model","mismatch","uniform","","","","","","","","338974","340988","","","","","","","","","","","","4","","stimuli/stars_4.png","222.5","","","","","stimuli/AM09_SUR.jpg","",""
"explore-choice","153","340953","0.0-153.0","p184505","A98E8M4QLI9RS","3S1L4CQSFYBD9IN1W8PCJQ1H8N7AFE","3WETL7AQWVEOAKTL7J2UZQRNWUU35A","model","mismatch","uniform","","","","","","","1066","340988","342054","[""stimuli/AM09_HO.jpg"",""stimuli/BM07_HE.jpg"",""stimuli/HF09_SUR.jpg"",""stimuli/WM11_FO.jpg""]","stimuli/AM09_HO.jpg","stimuli/BM07_HE.jpg","stimuli/HF09_SUR.jpg","stimuli/WM11_FO.jpg","pos1","stimuli/AM09_HO.jpg","HO","AM09","0","2.5","5","4","stimuli/stars_5.png","225","[""HO"",""HE"",""SUR"",""FO""]","[""AM09"",""BM07"",""HF09"",""WM11""]","[5,8,0,9]","[4,6,2,8]","","",""
"show-reward","154","342971","0.0-154.0","p184505","A98E8M4QLI9RS","3S1L4CQSFYBD9IN1W8PCJQ1H8N7AFE","3WETL7AQWVEOAKTL7J2UZQRNWUU35A","model","mismatch","uniform","","","","","","","","342568","344585","","","","","","","","","","","","5","","stimuli/stars_5.png","225","","","","","stimuli/AM09_HO.jpg","",""
"explore-choice","155","344316","0.0-155.0","p184505","A98E8M4QLI9RS","3S1L4CQSFYBD9IN1W8PCJQ1H8N7AFE","3WETL7AQWVEOAKTL7J2UZQRNWUU35A","model","mismatch","uniform","","","","","","","839","344586","345425","[""stimuli/HF09_SUR.jpg"",""stimuli/AM09_HE.jpg"",""stimuli/WM11_FO.jpg"",""stimuli/BM07_HO.jpg""]","stimuli/HF09_SUR.jpg","stimuli/AM09_HE.jpg","stimuli/WM11_FO.jpg","stimuli/BM07_HO.jpg","pos2","stimuli/AM09_HE.jpg","HE","AM09","1","2.5","5","6","stimuli/stars_5.png","227.5","[""SUR"",""HE"",""FO"",""HO""]","[""HF09"",""AM09"",""WM11"",""BM07""]","[0,5,6,3]","[2,6,8,4]","","",""
"show-reward","156","346327","0.0-156.0","p184505","A98E8M4QLI9RS","3S1L4CQSFYBD9IN1W8PCJQ1H8N7AFE","3WETL7AQWVEOAKTL7J2UZQRNWUU35A","model","mismatch","uniform","","","","","","","","345931","347941","","","","","","","","","","","","5","","stimuli/stars_5.png","227.5","","","","","stimuli/AM09_HE.jpg","",""
"explore-choice","157","348444","0.0-157.0","p184505","A98E8M4QLI9RS","3S1L4CQSFYBD9IN1W8PCJQ1H8N7AFE","3WETL7AQWVEOAKTL7J2UZQRNWUU35A","model","mismatch","uniform","","","","","","","1603","347942","349545","[""stimuli/BM07_HE.jpg"",""stimuli/HF09_HO.jpg"",""stimuli/WM11_FO.jpg"",""stimuli/AM09_SUR.jpg""]","stimuli/BM07_HE.jpg","stimuli/HF09_HO.jpg","stimuli/WM11_FO.jpg","stimuli/AM09_SUR.jpg","pos4","stimuli/AM09_SUR.jpg","SUR","AM09","3","0.5","1","2","stimuli/stars_1.png","228","[""HE"",""HO"",""FO"",""SUR""]","[""BM07"",""HF09"",""WM11"",""AM09""]","[6,3,8,1]","[6,4,8,2]","","",""
"show-reward","158","350453","0.0-158.0","p184505","A98E8M4QLI9RS","3S1L4CQSFYBD9IN1W8PCJQ1H8N7AFE","3WETL7AQWVEOAKTL7J2UZQRNWUU35A","model","mismatch","uniform","","","","","","","","350059","352067","","","","","","","","","","","","1","","stimuli/stars_1.png","228","","","","","stimuli/AM09_SUR.jpg","",""
"explore-choice","159","351761","0.0-159.0","p184505","A98E8M4QLI9RS","3S1L4CQSFYBD9IN1W8PCJQ1H8N7AFE","3WETL7AQWVEOAKTL7J2UZQRNWUU35A","model","mismatch","uniform","","","","","","","793","352068","352861","[""stimuli/BM07_FO.jpg"",""stimuli/WM11_HE.jpg"",""stimuli/HF09_HO.jpg"",""stimuli/AM09_SUR.jpg""]","stimuli/BM07_FO.jpg","stimuli/WM11_HE.jpg","stimuli/HF09_HO.jpg","stimuli/AM09_SUR.jpg","pos4","stimuli/AM09_SUR.jpg","SUR","AM09","3","0.5","1","2","stimuli/stars_1.png","228.5","[""FO"",""HE"",""HO"",""SUR""]","[""BM07"",""WM11"",""HF09"",""AM09""]","[7,6,6,1]","[8,6,4,2]","","",""
"show-reward","160","353777","0.0-160.0","p184505","A98E8M4QLI9RS","3S1L4CQSFYBD9IN1W8PCJQ1H8N7AFE","3WETL7AQWVEOAKTL7J2UZQRNWUU35A","model","mismatch","uniform","","","","","","","","353376","355391","","","","","","","","","","","","1","","stimuli/stars_1.png","228.5","","","","","stimuli/AM09_SUR.jpg","",""
"explore-choice","161","355554","0.0-161.0","p184505","A98E8M4QLI9RS","3S1L4CQSFYBD9IN1W8PCJQ1H8N7AFE","3WETL7AQWVEOAKTL7J2UZQRNWUU35A","model","mismatch","uniform","","","","","","","1273","355391","356664","[""stimuli/BM07_HE.jpg"",""stimuli/AM09_SUR.jpg"",""stimuli/HF09_FO.jpg"",""stimuli/WM11_HO.jpg""]","stimuli/BM07_HE.jpg","stimuli/AM09_SUR.jpg","stimuli/HF09_FO.jpg","stimuli/WM11_HO.jpg","pos2","stimuli/AM09_SUR.jpg","SUR","AM09","1","2","4","2","stimuli/stars_4.png","230.5","[""HE"",""SUR"",""FO"",""HO""]","[""BM07"",""AM09"",""HF09"",""WM11""]","[8,4,8,2]","[6,2,8,4]","","",""
"show-reward","162","357558","0.0-162.0","p184505","A98E8M4QLI9RS","3S1L4CQSFYBD9IN1W8PCJQ1H8N7AFE","3WETL7AQWVEOAKTL7J2UZQRNWUU35A","model","mismatch","uniform","","","","","","","","357169","359173","","","","","","","","","","","","4","","stimuli/stars_4.png","230.5","","","","","stimuli/AM09_SUR.jpg","",""
"explore-choice","163","359055","0.0-163.0","p184505","A98E8M4QLI9RS","3S1L4CQSFYBD9IN1W8PCJQ1H8N7AFE","3WETL7AQWVEOAKTL7J2UZQRNWUU35A","model","mismatch","uniform","","","","","","","979","359174","360153","[""stimuli/AM09_FO.jpg"",""stimuli/HF09_SUR.jpg"",""stimuli/BM07_HE.jpg"",""stimuli/WM11_HO.jpg""]","stimuli/AM09_FO.jpg","stimuli/HF09_SUR.jpg","stimuli/BM07_HE.jpg","stimuli/WM11_HO.jpg","pos1","stimuli/AM09_FO.jpg","FO","AM09","0","5","10","8","stimuli/stars_10.png","235.5","[""FO"",""SUR"",""HE"",""HO""]","[""AM09"",""HF09"",""BM07"",""WM11""]","[10,0,5,6]","[8,2,6,4]","","",""
"show-reward","164","361071","0.0-164.0","p184505","A98E8M4QLI9RS","3S1L4CQSFYBD9IN1W8PCJQ1H8N7AFE","3WETL7AQWVEOAKTL7J2UZQRNWUU35A","model","mismatch","uniform","","","","","","","","360669","362685","","","","","","","","","","","","10","","stimuli/stars_10.png","235.5","","","","","stimuli/AM09_FO.jpg","",""
"explore-choice","165","362461","0.0-165.0","p184505","A98E8M4QLI9RS","3S1L4CQSFYBD9IN1W8PCJQ1H8N7AFE","3WETL7AQWVEOAKTL7J2UZQRNWUU35A","model","mismatch","uniform","","","","","","","883","362685","363568","[""stimuli/HF09_SUR.jpg"",""stimuli/AM09_HO.jpg"",""stimuli/WM11_HE.jpg"",""stimuli/BM07_FO.jpg""]","stimuli/HF09_SUR.jpg","stimuli/AM09_HO.jpg","stimuli/WM11_HE.jpg","stimuli/BM07_FO.jpg","pos2","stimuli/AM09_HO.jpg","HO","AM09","1","2.5","5","4","stimuli/stars_5.png","238","[""SUR"",""HO"",""HE"",""FO""]","[""HF09"",""AM09"",""WM11"",""BM07""]","[2,5,5,6]","[2,4,6,8]","","",""
"show-reward","166","364466","0.0-166.0","p184505","A98E8M4QLI9RS","3S1L4CQSFYBD9IN1W8PCJQ1H8N7AFE","3WETL7AQWVEOAKTL7J2UZQRNWUU35A","model","mismatch","uniform","","","","","","","","364077","366080","","","","","","","","","","","","5","","stimuli/stars_5.png","238","","","","","stimuli/AM09_HO.jpg","",""
"explore-choice","167","366948","0.0-167.0","p184505","A98E8M4QLI9RS","3S1L4CQSFYBD9IN1W8PCJQ1H8N7AFE","3WETL7AQWVEOAKTL7J2UZQRNWUU35A","model","mismatch","uniform","","","","","","","1970","366081","368051","[""stimuli/HF09_HO.jpg"",""stimuli/BM07_SUR.jpg"",""stimuli/WM11_FO.jpg"",""stimuli/AM09_HE.jpg""]","stimuli/HF09_HO.jpg","stimuli/BM07_SUR.jpg","stimuli/WM11_FO.jpg","stimuli/AM09_HE.jpg","pos4","stimuli/AM09_HE.jpg","HE","AM09","3","2.5","5","6","stimuli/stars_5.png","240.5","[""HO"",""SUR"",""FO"",""HE""]","[""HF09"",""BM07"",""WM11"",""AM09""]","[4,2,9,5]","[4,2,8,6]","","",""
"show-reward","168","368950","0.0-168.0","p184505","A98E8M4QLI9RS","3S1L4CQSFYBD9IN1W8PCJQ1H8N7AFE","3WETL7AQWVEOAKTL7J2UZQRNWUU35A","model","mismatch","uniform","","","","","","","","368563","370564","","","","","","","","","","","","5","","stimuli/stars_5.png","240.5","","","","","stimuli/AM09_HE.jpg","",""
"explore-choice","169","371206","0.0-169.0","p184505","A98E8M4QLI9RS","3S1L4CQSFYBD9IN1W8PCJQ1H8N7AFE","3WETL7AQWVEOAKTL7J2UZQRNWUU35A","model","mismatch","uniform","","","","","","","1749","370565","372314","[""stimuli/BM07_HO.jpg"",""stimuli/WM11_SUR.jpg"",""stimuli/HF09_FO.jpg"",""stimuli/AM09_HE.jpg""]","stimuli/BM07_HO.jpg","stimuli/WM11_SUR.jpg","stimuli/HF09_FO.jpg","stimuli/AM09_HE.jpg","pos3","stimuli/HF09_FO.jpg","FO","HF09","2","4.5","9","8","stimuli/stars_9.png","245","[""HO"",""SUR"",""FO"",""HE""]","[""BM07"",""WM11"",""HF09"",""AM09""]","[5,3,9,8]","[4,2,8,6]","","",""
"show-reward","170","373222","0.0-170.0","p184505","A98E8M4QLI9RS","3S1L4CQSFYBD9IN1W8PCJQ1H8N7AFE","3WETL7AQWVEOAKTL7J2UZQRNWUU35A","model","mismatch","uniform","","","","","","","","372821","374836","","","","","","","","","","","","9","","stimuli/stars_9.png","245","","","","","stimuli/HF09_FO.jpg","",""
"explore-choice","171","374664","0.0-171.0","p184505","A98E8M4QLI9RS","3S1L4CQSFYBD9IN1W8PCJQ1H8N7AFE","3WETL7AQWVEOAKTL7J2UZQRNWUU35A","model","mismatch","uniform","","","","","","","934","374837","375771","[""stimuli/AM09_FO.jpg"",""stimuli/WM11_HE.jpg"",""stimuli/BM07_HO.jpg"",""stimuli/HF09_SUR.jpg""]","stimuli/AM09_FO.jpg","stimuli/WM11_HE.jpg","stimuli/BM07_HO.jpg","stimuli/HF09_SUR.jpg","pos4","stimuli/HF09_SUR.jpg","SUR","HF09","3","1","2","2","stimuli/stars_2.png","246","[""FO"",""HE"",""HO"",""SUR""]","[""AM09"",""WM11"",""BM07"",""HF09""]","[7,4,5,2]","[8,6,4,2]","","",""
"show-reward","172","376668","0.0-172.0","p184505","A98E8M4QLI9RS","3S1L4CQSFYBD9IN1W8PCJQ1H8N7AFE","3WETL7AQWVEOAKTL7J2UZQRNWUU35A","model","mismatch","uniform","","","","","","","","376279","378281","","","","","","","","","","","","2","","stimuli/stars_2.png","246","","","","","stimuli/HF09_SUR.jpg","",""
"explore-choice","173","379115","0.0-173.0","p184505","A98E8M4QLI9RS","3S1L4CQSFYBD9IN1W8PCJQ1H8N7AFE","3WETL7AQWVEOAKTL7J2UZQRNWUU35A","model","mismatch","uniform","","","","","","","1939","378284","380223","[""stimuli/AM09_SUR.jpg"",""stimuli/HF09_HE.jpg"",""stimuli/WM11_HO.jpg"",""stimuli/BM07_FO.jpg""]","stimuli/AM09_SUR.jpg","stimuli/HF09_HE.jpg","stimuli/WM11_HO.jpg","stimuli/BM07_FO.jpg","pos2","stimuli/HF09_HE.jpg","HE","HF09","1","2","4","6","stimuli/stars_4.png","248","[""SUR"",""HE"",""HO"",""FO""]","[""AM09"",""HF09"",""WM11"",""BM07""]","[0,4,2,10]","[2,6,4,8]","","",""
"show-reward","174","381121","0.0-174.0","p184505","A98E8M4QLI9RS","3S1L4CQSFYBD9IN1W8PCJQ1H8N7AFE","3WETL7AQWVEOAKTL7J2UZQRNWUU35A","model","mismatch","uniform","","","","","","","","380730","382736","","","","","","","","","","","","4","","stimuli/stars_4.png","248","","","","","stimuli/HF09_HE.jpg","",""
"explore-choice","175","382394","0.0-175.0","p184505","A98E8M4QLI9RS","3S1L4CQSFYBD9IN1W8PCJQ1H8N7AFE","3WETL7AQWVEOAKTL7J2UZQRNWUU35A","model","mismatch","uniform","","","","","","","760","382736","383496","[""stimuli/HF09_HE.jpg"",""stimuli/AM09_FO.jpg"",""stimuli/WM11_HO.jpg"",""stimuli/BM07_SUR.jpg""]","stimuli/HF09_HE.jpg","stimuli/AM09_FO.jpg","stimuli/WM11_HO.jpg","stimuli/BM07_SUR.jpg","pos1","stimuli/HF09_HE.jpg","HE","HF09","0","2","4","6","stimuli/stars_4.png","250","[""HE"",""FO"",""HO"",""SUR""]","[""HF09"",""AM09"",""WM11"",""BM07""]","[4,10,6,2]","[6,8,4,2]","","",""
"show-reward","176","384409","0.0-176.0","p184505","A98E8M4QLI9RS","3S1L4CQSFYBD9IN1W8PCJQ1H8N7AFE","3WETL7AQWVEOAKTL7J2UZQRNWUU35A","model","mismatch","uniform","","","","","","","","384010","386023","","","","","","","","","","","","4","","stimuli/stars_4.png","250","","","","","stimuli/HF09_HE.jpg","",""
"explore-choice","177","386323","0.0-177.0","p184505","A98E8M4QLI9RS","3S1L4CQSFYBD9IN1W8PCJQ1H8N7AFE","3WETL7AQWVEOAKTL7J2UZQRNWUU35A","model","mismatch","uniform","","","","","","","1399","386024","387423","[""stimuli/AM09_HO.jpg"",""stimuli/HF09_FO.jpg"",""stimuli/BM07_HE.jpg"",""stimuli/WM11_SUR.jpg""]","stimuli/AM09_HO.jpg","stimuli/HF09_FO.jpg","stimuli/BM07_HE.jpg","stimuli/WM11_SUR.jpg","pos2","stimuli/HF09_FO.jpg","FO","HF09","1","4.5","9","8","stimuli/stars_9.png","254.5","[""HO"",""FO"",""HE"",""SUR""]","[""AM09"",""HF09"",""BM07"",""WM11""]","[4,9,7,2]","[4,8,6,2]","","",""
"show-reward","178","388338","0.0-178.0","p184505","A98E8M4QLI9RS","3S1L4CQSFYBD9IN1W8PCJQ1H8N7AFE","3WETL7AQWVEOAKTL7J2UZQRNWUU35A","model","mismatch","uniform","","","","","","","","387938","389952","","","","","","","","","","","","9","","stimuli/stars_9.png","254.5","","","","","stimuli/HF09_FO.jpg","",""
"explore-choice","179","389863","0.0-179.0","p184505","A98E8M4QLI9RS","3S1L4CQSFYBD9IN1W8PCJQ1H8N7AFE","3WETL7AQWVEOAKTL7J2UZQRNWUU35A","model","mismatch","uniform","","","","","","","1017","389953","390970","[""stimuli/HF09_SUR.jpg"",""stimuli/WM11_HO.jpg"",""stimuli/BM07_FO.jpg"",""stimuli/AM09_HE.jpg""]","stimuli/HF09_SUR.jpg","stimuli/WM11_HO.jpg","stimuli/BM07_FO.jpg","stimuli/AM09_HE.jpg","pos1","stimuli/HF09_SUR.jpg","SUR","HF09","0","0.5","1","2","stimuli/stars_1.png","255","[""SUR"",""HO"",""FO"",""HE""]","[""HF09"",""WM11"",""BM07"",""AM09""]","[1,5,10,7]","[2,4,8,6]","","",""
"show-reward","180","391878","0.0-180.0","p184505","A98E8M4QLI9RS","3S1L4CQSFYBD9IN1W8PCJQ1H8N7AFE","3WETL7AQWVEOAKTL7J2UZQRNWUU35A","model","mismatch","uniform","","","","","","","","391478","393492","","","","","","","","","","","","1","","stimuli/stars_1.png","255","","","","","stimuli/HF09_SUR.jpg","",""
"explore-choice","181","393597","0.0-181.0","p184505","A98E8M4QLI9RS","3S1L4CQSFYBD9IN1W8PCJQ1H8N7AFE","3WETL7AQWVEOAKTL7J2UZQRNWUU35A","model","mismatch","uniform","","","","","","","1204","393493","394697","[""stimuli/HF09_HO.jpg"",""stimuli/BM07_SUR.jpg"",""stimuli/WM11_HE.jpg"",""stimuli/AM09_FO.jpg""]","stimuli/HF09_HO.jpg","stimuli/BM07_SUR.jpg","stimuli/WM11_HE.jpg","stimuli/AM09_FO.jpg","pos4","stimuli/AM09_FO.jpg","FO","AM09","3","3.5","7","8","stimuli/stars_7.png","258.5","[""HO"",""SUR"",""HE"",""FO""]","[""HF09"",""BM07"",""WM11"",""AM09""]","[3,0,5,7]","[4,2,6,8]","","",""
"show-reward","182","395615","0.0-182.0","p184505","A98E8M4QLI9RS","3S1L4CQSFYBD9IN1W8PCJQ1H8N7AFE","3WETL7AQWVEOAKTL7J2UZQRNWUU35A","model","mismatch","uniform","","","","","","","","395212","397228","","","","","","","","","","","","7","","stimuli/stars_7.png","258.5","","","","","stimuli/AM09_FO.jpg","",""
"explore-choice","183","397146","0.0-183.0","p184505","A98E8M4QLI9RS","3S1L4CQSFYBD9IN1W8PCJQ1H8N7AFE","3WETL7AQWVEOAKTL7J2UZQRNWUU35A","model","mismatch","uniform","","","","","","","1028","397230","398258","[""stimuli/HF09_FO.jpg"",""stimuli/WM11_HE.jpg"",""stimuli/BM07_SUR.jpg"",""stimuli/AM09_HO.jpg""]","stimuli/HF09_FO.jpg","stimuli/WM11_HE.jpg","stimuli/BM07_SUR.jpg","stimuli/AM09_HO.jpg","pos1","stimuli/HF09_FO.jpg","FO","HF09","0","3","6","8","stimuli/stars_6.png","261.5","[""FO"",""HE"",""SUR"",""HO""]","[""HF09"",""WM11"",""BM07"",""AM09""]","[6,8,3,5]","[8,6,2,4]","","",""
"show-reward","184","399156","0.0-184.0","p184505","A98E8M4QLI9RS","3S1L4CQSFYBD9IN1W8PCJQ1H8N7AFE","3WETL7AQWVEOAKTL7J2UZQRNWUU35A","model","mismatch","uniform","","","","","","","","398761","400769","","","","","","","","","","","","6","","stimuli/stars_6.png","261.5","","","","","stimuli/HF09_FO.jpg","",""
"explore-choice","185","400692","0.0-185.0","p184505","A98E8M4QLI9RS","3S1L4CQSFYBD9IN1W8PCJQ1H8N7AFE","3WETL7AQWVEOAKTL7J2UZQRNWUU35A","model","mismatch","uniform","","","","","","","1035","400771","401806","[""stimuli/AM09_HE.jpg"",""stimuli/BM07_FO.jpg"",""stimuli/HF09_HO.jpg"",""stimuli/WM11_SUR.jpg""]","stimuli/AM09_HE.jpg","stimuli/BM07_FO.jpg","stimuli/HF09_HO.jpg","stimuli/WM11_SUR.jpg","pos1","stimuli/AM09_HE.jpg","HE","AM09","0","3.5","7","6","stimuli/stars_7.png","265","[""HE"",""FO"",""HO"",""SUR""]","[""AM09"",""BM07"",""HF09"",""WM11""]","[7,9,5,3]","[6,8,4,2]","","",""
"show-reward","186","402696","0.0-186.0","p184505","A98E8M4QLI9RS","3S1L4CQSFYBD9IN1W8PCJQ1H8N7AFE","3WETL7AQWVEOAKTL7J2UZQRNWUU35A","model","mismatch","uniform","","","","","","","","402307","404310","","","","","","","","","","","","7","","stimuli/stars_7.png","265","","","","","stimuli/AM09_HE.jpg","",""
"explore-choice","187","405042","0.0-187.0","p184505","A98E8M4QLI9RS","3S1L4CQSFYBD9IN1W8PCJQ1H8N7AFE","3WETL7AQWVEOAKTL7J2UZQRNWUU35A","model","mismatch","uniform","","","","","","","1835","404311","406146","[""stimuli/WM11_HO.jpg"",""stimuli/HF09_FO.jpg"",""stimuli/AM09_HE.jpg"",""stimuli/BM07_SUR.jpg""]","stimuli/WM11_HO.jpg","stimuli/HF09_FO.jpg","stimuli/AM09_HE.jpg","stimuli/BM07_SUR.jpg","pos2","stimuli/HF09_FO.jpg","FO","HF09","1","5","10","8","stimuli/stars_10.png","270","[""HO"",""FO"",""HE"",""SUR""]","[""WM11"",""HF09"",""AM09"",""BM07""]","[2,10,6,0]","[4,8,6,2]","","",""
"show-reward","188","407050","0.0-188.0","p184505","A98E8M4QLI9RS","3S1L4CQSFYBD9IN1W8PCJQ1H8N7AFE","3WETL7AQWVEOAKTL7J2UZQRNWUU35A","model","mismatch","uniform","","","","","","","","406657","408664","","","","","","","","","","","","10","","stimuli/stars_10.png","270","","","","","stimuli/HF09_FO.jpg","",""
"explore-choice","189","409848","0.0-189.0","p184505","A98E8M4QLI9RS","3S1L4CQSFYBD9IN1W8PCJQ1H8N7AFE","3WETL7AQWVEOAKTL7J2UZQRNWUU35A","model","mismatch","uniform","","","","","","","2286","408665","410951","[""stimuli/AM09_FO.jpg"",""stimuli/HF09_HE.jpg"",""stimuli/BM07_HO.jpg"",""stimuli/WM11_SUR.jpg""]","stimuli/AM09_FO.jpg","stimuli/HF09_HE.jpg","stimuli/BM07_HO.jpg","stimuli/WM11_SUR.jpg","pos1","stimuli/AM09_FO.jpg","FO","AM09","0","3.5","7","8","stimuli/stars_7.png","273.5","[""FO"",""HE"",""HO"",""SUR""]","[""AM09"",""HF09"",""BM07"",""WM11""]","[7,4,3,2]","[8,6,4,2]","","",""
"show-reward","190","411864","0.0-190.0","p184505","A98E8M4QLI9RS","3S1L4CQSFYBD9IN1W8PCJQ1H8N7AFE","3WETL7AQWVEOAKTL7J2UZQRNWUU35A","model","mismatch","uniform","","","","","","","","411464","413478","","","","","","","","","","","","7","","stimuli/stars_7.png","273.5","","","","","stimuli/AM09_FO.jpg","",""
"explore-choice","191","413605","0.0-191.0","p184505","A98E8M4QLI9RS","3S1L4CQSFYBD9IN1W8PCJQ1H8N7AFE","3WETL7AQWVEOAKTL7J2UZQRNWUU35A","model","mismatch","uniform","","","","","","","1230","413479","414709","[""stimuli/BM07_SUR.jpg"",""stimuli/WM11_FO.jpg"",""stimuli/AM09_HO.jpg"",""stimuli/HF09_HE.jpg""]","stimuli/BM07_SUR.jpg","stimuli/WM11_FO.jpg","stimuli/AM09_HO.jpg","stimuli/HF09_HE.jpg","pos3","stimuli/AM09_HO.jpg","HO","AM09","2","1.5","3","4","stimuli/stars_3.png","275","[""SUR"",""FO"",""HO"",""HE""]","[""BM07"",""WM11"",""AM09"",""HF09""]","[2,7,3,5]","[2,8,4,6]","","",""
"show-reward","192","415608","0.0-192.0","p184505","A98E8M4QLI9RS","3S1L4CQSFYBD9IN1W8PCJQ1H8N7AFE","3WETL7AQWVEOAKTL7J2UZQRNWUU35A","model","mismatch","uniform","","","","","","","","415220","417223","","","","","","","","","","","","3","","stimuli/stars_3.png","275","","","","","stimuli/AM09_HO.jpg","",""
"explore-choice","193","417794","0.0-193.0","p184505","A98E8M4QLI9RS","3S1L4CQSFYBD9IN1W8PCJQ1H8N7AFE","3WETL7AQWVEOAKTL7J2UZQRNWUU35A","model","mismatch","uniform","","","","","","","1671","417224","418895","[""stimuli/WM11_FO.jpg"",""stimuli/BM07_HO.jpg"",""stimuli/HF09_HE.jpg"",""stimuli/AM09_SUR.jpg""]","stimuli/WM11_FO.jpg","stimuli/BM07_HO.jpg","stimuli/HF09_HE.jpg","stimuli/AM09_SUR.jpg","pos4","stimuli/AM09_SUR.jpg","SUR","AM09","3","1.5","3","2","stimuli/stars_3.png","276.5","[""FO"",""HO"",""HE"",""SUR""]","[""WM11"",""BM07"",""HF09"",""AM09""]","[7,5,6,3]","[8,4,6,2]","","",""
"show-reward","194","419797","0.0-194.0","p184505","A98E8M4QLI9RS","3S1L4CQSFYBD9IN1W8PCJQ1H8N7AFE","3WETL7AQWVEOAKTL7J2UZQRNWUU35A","model","mismatch","uniform","","","","","","","","419409","421411","","","","","","","","","","","","3","","stimuli/stars_3.png","276.5","","","","","stimuli/AM09_SUR.jpg","",""
"explore-choice","195","421818","0.0-195.0","p184505","A98E8M4QLI9RS","3S1L4CQSFYBD9IN1W8PCJQ1H8N7AFE","3WETL7AQWVEOAKTL7J2UZQRNWUU35A","model","mismatch","uniform","","","","","","","1510","421412","422922","[""stimuli/WM11_SUR.jpg"",""stimuli/AM09_FO.jpg"",""stimuli/HF09_HO.jpg"",""stimuli/BM07_HE.jpg""]","stimuli/WM11_SUR.jpg","stimuli/AM09_FO.jpg","stimuli/HF09_HO.jpg","stimuli/BM07_HE.jpg","pos2","stimuli/AM09_FO.jpg","FO","AM09","1","4.5","9","8","stimuli/stars_9.png","281","[""SUR"",""FO"",""HO"",""HE""]","[""WM11"",""AM09"",""HF09"",""BM07""]","[4,9,4,7]","[2,8,4,6]","","",""
"show-reward","196","423822","0.0-196.0","p184505","A98E8M4QLI9RS","3S1L4CQSFYBD9IN1W8PCJQ1H8N7AFE","3WETL7AQWVEOAKTL7J2UZQRNWUU35A","model","mismatch","uniform","","","","","","","","423433","425436","","","","","","","","","","","","9","","stimuli/stars_9.png","281","","","","","stimuli/AM09_FO.jpg","",""
"explore-choice","197","426052","0.0-197.0","p184505","A98E8M4QLI9RS","3S1L4CQSFYBD9IN1W8PCJQ1H8N7AFE","3WETL7AQWVEOAKTL7J2UZQRNWUU35A","model","mismatch","uniform","","","","","","","1720","425437","427157","[""stimuli/WM11_SUR.jpg"",""stimuli/BM07_FO.jpg"",""stimuli/HF09_HE.jpg"",""stimuli/AM09_HO.jpg""]","stimuli/WM11_SUR.jpg","stimuli/BM07_FO.jpg","stimuli/HF09_HE.jpg","stimuli/AM09_HO.jpg","pos4","stimuli/AM09_HO.jpg","HO","AM09","3","1","2","4","stimuli/stars_2.png","282","[""SUR"",""FO"",""HE"",""HO""]","[""WM11"",""BM07"",""HF09"",""AM09""]","[2,7,8,2]","[2,8,6,4]","","",""
"show-reward","198","428068","0.0-198.0","p184505","A98E8M4QLI9RS","3S1L4CQSFYBD9IN1W8PCJQ1H8N7AFE","3WETL7AQWVEOAKTL7J2UZQRNWUU35A","model","mismatch","uniform","","","","","","","","427666","429681","","","","","","","","","","","","2","","stimuli/stars_2.png","282","","","","","stimuli/AM09_HO.jpg","",""
"instructions","199","447188","0.0-199.0","p184505","A98E8M4QLI9RS","3S1L4CQSFYBD9IN1W8PCJQ1H8N7AFE","3WETL7AQWVEOAKTL7J2UZQRNWUU35A","model","mismatch","uniform","","","","","","[{""page_index"":0,""viewing_time"":19119}]","19119","","","","","","","","","","","","","","","","","","","","","","","",""
"survey-text","200","450194","0.0-200.0-0.0","p184505","A98E8M4QLI9RS","3S1L4CQSFYBD9IN1W8PCJQ1H8N7AFE","3WETL7AQWVEOAKTL7J2UZQRNWUU35A","model","mismatch","uniform","","","","","","","3001","","","","","","","","","","","","","","","","","","","","","","","{""age"":""55""}",""
"survey-text","201","454500","0.0-200.0-1.0","p184505","A98E8M4QLI9RS","3S1L4CQSFYBD9IN1W8PCJQ1H8N7AFE","3WETL7AQWVEOAKTL7J2UZQRNWUU35A","model","mismatch","uniform","","","","","","","4303","","","","","","","","","","","","","","","","","","","","","","","{""gender"":""female""}",""
"survey-text","202","460800","0.0-200.0-2.0","p184505","A98E8M4QLI9RS","3S1L4CQSFYBD9IN1W8PCJQ1H8N7AFE","3WETL7AQWVEOAKTL7J2UZQRNWUU35A","model","mismatch","uniform","","","","","","","6297","","","","","","","","","","","","","","","","","","","","","","","{""country"":""United States""}",""
"survey-text","203","469870","0.0-200.0-3.0","p184505","A98E8M4QLI9RS","3S1L4CQSFYBD9IN1W8PCJQ1H8N7AFE","3WETL7AQWVEOAKTL7J2UZQRNWUU35A","model","mismatch","uniform","","","","","","","9067","","","","","","","","","","","","","","","","","","","","","","","{""language"":""English"",""other_languages"":""n/a""}",""
"survey-multi-select","204","472107","0.0-201.0","p184505","A98E8M4QLI9RS","3S1L4CQSFYBD9IN1W8PCJQ1H8N7AFE","3WETL7AQWVEOAKTL7J2UZQRNWUU35A","model","mismatch","uniform","","","","","","","2235","","","","","","","","","","","","","","","","","","","","","","","{""race"":[""White""]}","[0]"
"survey-multi-choice","205","475054","0.0-202.0","p184505","A98E8M4QLI9RS","3S1L4CQSFYBD9IN1W8PCJQ1H8N7AFE","3WETL7AQWVEOAKTL7J2UZQRNWUU35A","model","mismatch","uniform","","","","","","","2946","","","","","","","","","","","","","","","","","","","","","","","{""education"":""Some college/ university""}","[0]"
"survey-text","206","517611","0.0-203.0","p184505","A98E8M4QLI9RS","3S1L4CQSFYBD9IN1W8PCJQ1H8N7AFE","3WETL7AQWVEOAKTL7J2UZQRNWUU35A","model","mismatch","uniform","","","","","","","42552","","","","","","","","","","","","","","","","","","","","","","","{""patterns"":""I did not notice any patterns"",""strategy"":""I did not use any strategy, just tried to remember which faces earned the most stars"",""comments"":""Thank you for the opportunity to participate in this study""}",""
