"trial_type","trial_index","time_elapsed","internal_node_id","subject","workerId","hitId","assignmentId","structure_condition","match_condition","noise_type","success","timeout","failed_images","failed_audio","failed_video","view_history","rt","start_time","end_time","stimuli","image1","image2","image3","image4","choiceLocation","choiceImage","choiceEmotion","choiceModel","choice_index","reward_score","reward","reward_score_unadjusted","reward_image","score_after_trial","emotions","models","rewards","rewards_unadjusted","stimulus","response","question_order"
"pavlovia","0","8","0.0-0.0","p9826","A3A8P4UR9A0DWQ","3RDTX9JRTZ7MP6YQMJD0Z3DG4HK978","3X0H8UUIT3UM7KTKTZQ4XYCC89NSW2","emotion","match","uniform","","","","","","","","","","","","","","","","","","","","","","","","","","","","","","",""
"preload","1","9248","0.0-1.0","p9826","A3A8P4UR9A0DWQ","3RDTX9JRTZ7MP6YQMJD0Z3DG4HK978","3X0H8UUIT3UM7KTKTZQ4XYCC89NSW2","emotion","match","uniform","true","false","[]","[]","[]","","","","","","","","","","","","","","","","","","","","","","","","","",""
"fullscreen","2","11201","0.0-2.0","p9826","A3A8P4UR9A0DWQ","3RDTX9JRTZ7MP6YQMJD0Z3DG4HK978","3X0H8UUIT3UM7KTKTZQ4XYCC89NSW2","emotion","match","uniform","true","","","","","","","","","","","","","","","","","","","","","","","","","","","","","",""
"instructions","3","12430","0.0-3.0","p9826","A3A8P4UR9A0DWQ","3RDTX9JRTZ7MP6YQMJD0Z3DG4HK978","3X0H8UUIT3UM7KTKTZQ4XYCC89NSW2","emotion","match","uniform","","","","","","[{""page_index"":0,""viewing_time"":1228}]","1228.2999999523163","","","","","","","","","","","","","","","","","","","","","","","",""
"explore-choice","4","15318","0.0-4.0","p9826","A3A8P4UR9A0DWQ","3RDTX9JRTZ7MP6YQMJD0Z3DG4HK978","3X0H8UUIT3UM7KTKTZQ4XYCC89NSW2","emotion","match","uniform","","","","","","","2379.2000000476837","14221.299999952316","16600.5","[""stimuli/sheep.jpg"",""stimuli/hammer.jpg"",""stimuli/basketball.jpg"",""stimuli/horse.jpg""]","stimuli/sheep.jpg","stimuli/hammer.jpg","stimuli/basketball.jpg","stimuli/horse.jpg","pos4","stimuli/horse.jpg","","","3","64","64","64","stimuli/stars_8.png","65","","","","","","",""
"explore-choice","5","17301","0.0-5.0","p9826","A3A8P4UR9A0DWQ","3RDTX9JRTZ7MP6YQMJD0Z3DG4HK978","3X0H8UUIT3UM7KTKTZQ4XYCC89NSW2","emotion","match","uniform","","","","","","","1477.7000000476837","17110","18587.700000047684","[""stimuli/hammer.jpg"",""stimuli/basketball.jpg"",""stimuli/horse.jpg"",""stimuli/sheep.jpg""]","stimuli/hammer.jpg","stimuli/basketball.jpg","stimuli/horse.jpg","stimuli/sheep.jpg","pos1","stimuli/hammer.jpg","","","0","8","8","8","stimuli/stars_2.png","9","","","","","","",""
"instructions","6","25281","0.0-6.0","p9826","A3A8P4UR9A0DWQ","3RDTX9JRTZ7MP6YQMJD0Z3DG4HK978","3X0H8UUIT3UM7KTKTZQ4XYCC89NSW2","emotion","match","uniform","","","","","","[{""page_index"":0,""viewing_time"":7978.799999952316}]","7979.199999809265","","","","","","","","","","","","","","","","","","","","","","","",""
"explore-choice","7","30437","0.0-7.0","p9826","A3A8P4UR9A0DWQ","3RDTX9JRTZ7MP6YQMJD0Z3DG4HK978","3X0H8UUIT3UM7KTKTZQ4XYCC89NSW2","emotion","match","uniform","","","","","","","4650.599999904633","27073.200000047684","31723.799999952316","[""stimuli/BM04_FO.jpg"",""stimuli/HM09_SC.jpg"",""stimuli/BM16_CC.jpg"",""stimuli/AF11_SUR.jpg""]","stimuli/BM04_FO.jpg","stimuli/HM09_SC.jpg","stimuli/BM16_CC.jpg","stimuli/AF11_SUR.jpg","pos1","stimuli/BM04_FO.jpg","FO","BM04","0","4.5","9","8","stimuli/stars_9.png","5.5","[""FO"",""SC"",""CC"",""SUR""]","[""BM04"",""HM09"",""BM16"",""AF11""]","[9,7,2,5]","[8,6,2,4]","","",""
"show-reward","8","32445","0.0-8.0","p9826","A3A8P4UR9A0DWQ","3RDTX9JRTZ7MP6YQMJD0Z3DG4HK978","3X0H8UUIT3UM7KTKTZQ4XYCC89NSW2","emotion","match","uniform","","","","","","","","32230.5","34235.700000047684","","","","","","","","","","","","9","","stimuli/stars_9.png","5.5","","","","","stimuli/BM04_FO.jpg","",""
"explore-choice","9","34758","0.0-9.0","p9826","A3A8P4UR9A0DWQ","3RDTX9JRTZ7MP6YQMJD0Z3DG4HK978","3X0H8UUIT3UM7KTKTZQ4XYCC89NSW2","emotion","match","uniform","","","","","","","1810.2999999523163","34237.5","36047.799999952316","[""stimuli/AF11_SC.jpg"",""stimuli/HM09_SUR.jpg"",""stimuli/BM04_FO.jpg"",""stimuli/BM16_CC.jpg""]","stimuli/AF11_SC.jpg","stimuli/HM09_SUR.jpg","stimuli/BM04_FO.jpg","stimuli/BM16_CC.jpg","pos2","stimuli/HM09_SUR.jpg","SUR","HM09","1","1.5","3","4","stimuli/stars_3.png","7","[""SC"",""SUR"",""FO"",""CC""]","[""AF11"",""HM09"",""BM04"",""BM16""]","[4,3,8,3]","[6,4,8,2]","","",""
"show-reward","10","36778","0.0-10.0","p9826","A3A8P4UR9A0DWQ","3RDTX9JRTZ7MP6YQMJD0Z3DG4HK978","3X0H8UUIT3UM7KTKTZQ4XYCC89NSW2","emotion","match","uniform","","","","","","","","36549.5","38568.40000009537","","","","","","","","","","","","3","","stimuli/stars_3.png","7","","","","","stimuli/HM09_SUR.jpg","",""
"explore-choice","11","39244","0.0-11.0","p9826","A3A8P4UR9A0DWQ","3RDTX9JRTZ7MP6YQMJD0Z3DG4HK978","3X0H8UUIT3UM7KTKTZQ4XYCC89NSW2","emotion","match","uniform","","","","","","","1958.4000000953674","38569.799999952316","40528.200000047684","[""stimuli/BM04_CC.jpg"",""stimuli/BM16_SC.jpg"",""stimuli/AF11_SUR.jpg"",""stimuli/HM09_FO.jpg""]","stimuli/BM04_CC.jpg","stimuli/BM16_SC.jpg","stimuli/AF11_SUR.jpg","stimuli/HM09_FO.jpg","pos4","stimuli/HM09_FO.jpg","FO","HM09","3","4.5","9","8","stimuli/stars_9.png","11.5","[""CC"",""SC"",""SUR"",""FO""]","[""BM04"",""BM16"",""AF11"",""HM09""]","[3,7,4,9]","[2,6,4,8]","","",""
"show-reward","12","41252","0.0-12.0","p9826","A3A8P4UR9A0DWQ","3RDTX9JRTZ7MP6YQMJD0Z3DG4HK978","3X0H8UUIT3UM7KTKTZQ4XYCC89NSW2","emotion","match","uniform","","","","","","","","41035.700000047684","43042.09999990463","","","","","","","","","","","","9","","stimuli/stars_9.png","11.5","","","","","stimuli/HM09_FO.jpg","",""
"explore-choice","13","43553","0.0-13.0","p9826","A3A8P4UR9A0DWQ","3RDTX9JRTZ7MP6YQMJD0Z3DG4HK978","3X0H8UUIT3UM7KTKTZQ4XYCC89NSW2","emotion","match","uniform","","","","","","","1792.7000000476837","43043.5","44836.200000047684","[""stimuli/AF11_SUR.jpg"",""stimuli/BM16_FO.jpg"",""stimuli/HM09_SC.jpg"",""stimuli/BM04_CC.jpg""]","stimuli/AF11_SUR.jpg","stimuli/BM16_FO.jpg","stimuli/HM09_SC.jpg","stimuli/BM04_CC.jpg","pos2","stimuli/BM16_FO.jpg","FO","BM16","1","4","8","8","stimuli/stars_8.png","15.5","[""SUR"",""FO"",""SC"",""CC""]","[""AF11"",""BM16"",""HM09"",""BM04""]","[2,8,5,1]","[4,8,6,2]","","",""
"show-reward","14","45561","0.0-14.0","p9826","A3A8P4UR9A0DWQ","3RDTX9JRTZ7MP6YQMJD0Z3DG4HK978","3X0H8UUIT3UM7KTKTZQ4XYCC89NSW2","emotion","match","uniform","","","","","","","","45344.90000009537","47348.90000009537","","","","","","","","","","","","8","","stimuli/stars_8.png","15.5","","","","","stimuli/BM16_FO.jpg","",""
"explore-choice","15","47053","0.0-15.0","p9826","A3A8P4UR9A0DWQ","3RDTX9JRTZ7MP6YQMJD0Z3DG4HK978","3X0H8UUIT3UM7KTKTZQ4XYCC89NSW2","emotion","match","uniform","","","","","","","987.6000001430511","47350.59999990463","48338.200000047684","[""stimuli/AF11_CC.jpg"",""stimuli/BM04_FO.jpg"",""stimuli/BM16_SC.jpg"",""stimuli/HM09_SUR.jpg""]","stimuli/AF11_CC.jpg","stimuli/BM04_FO.jpg","stimuli/BM16_SC.jpg","stimuli/HM09_SUR.jpg","pos2","stimuli/BM04_FO.jpg","FO","BM04","1","3","6","8","stimuli/stars_6.png","18.5","[""CC"",""FO"",""SC"",""SUR""]","[""AF11"",""BM04"",""BM16"",""HM09""]","[1,6,4,5]","[2,8,6,4]","","",""
"show-reward","16","49061","0.0-16.0","p9826","A3A8P4UR9A0DWQ","3RDTX9JRTZ7MP6YQMJD0Z3DG4HK978","3X0H8UUIT3UM7KTKTZQ4XYCC89NSW2","emotion","match","uniform","","","","","","","","48842.40000009537","50849.200000047684","","","","","","","","","","","","6","","stimuli/stars_6.png","18.5","","","","","stimuli/BM04_FO.jpg","",""
"explore-choice","17","51554","0.0-17.0","p9826","A3A8P4UR9A0DWQ","3RDTX9JRTZ7MP6YQMJD0Z3DG4HK978","3X0H8UUIT3UM7KTKTZQ4XYCC89NSW2","emotion","match","uniform","","","","","","","1975.2000000476837","50850.5","52825.700000047684","[""stimuli/AF11_FO.jpg"",""stimuli/HM09_CC.jpg"",""stimuli/BM04_SC.jpg"",""stimuli/BM16_SUR.jpg""]","stimuli/AF11_FO.jpg","stimuli/HM09_CC.jpg","stimuli/BM04_SC.jpg","stimuli/BM16_SUR.jpg","pos1","stimuli/AF11_FO.jpg","FO","AF11","0","4.5","9","8","stimuli/stars_9.png","23","[""FO"",""CC"",""SC"",""SUR""]","[""AF11"",""HM09"",""BM04"",""BM16""]","[9,4,4,5]","[8,2,6,4]","","",""
"show-reward","18","53566","0.0-18.0","p9826","A3A8P4UR9A0DWQ","3RDTX9JRTZ7MP6YQMJD0Z3DG4HK978","3X0H8UUIT3UM7KTKTZQ4XYCC89NSW2","emotion","match","uniform","","","","","","","","53343.59999990463","55354.299999952316","","","","","","","","","","","","9","","stimuli/stars_9.png","23","","","","","stimuli/AF11_FO.jpg","",""
"explore-choice","19","55575","0.0-19.0","p9826","A3A8P4UR9A0DWQ","3RDTX9JRTZ7MP6YQMJD0Z3DG4HK978","3X0H8UUIT3UM7KTKTZQ4XYCC89NSW2","emotion","match","uniform","","","","","","","1504.2000000476837","55356","56860.200000047684","[""stimuli/AF11_SC.jpg"",""stimuli/HM09_FO.jpg"",""stimuli/BM16_CC.jpg"",""stimuli/BM04_SUR.jpg""]","stimuli/AF11_SC.jpg","stimuli/HM09_FO.jpg","stimuli/BM16_CC.jpg","stimuli/BM04_SUR.jpg","pos2","stimuli/HM09_FO.jpg","FO","HM09","1","4","8","8","stimuli/stars_8.png","27","[""SC"",""FO"",""CC"",""SUR""]","[""AF11"",""HM09"",""BM16"",""BM04""]","[7,8,0,3]","[6,8,2,4]","","",""
"show-reward","20","57585","0.0-20.0","p9826","A3A8P4UR9A0DWQ","3RDTX9JRTZ7MP6YQMJD0Z3DG4HK978","3X0H8UUIT3UM7KTKTZQ4XYCC89NSW2","emotion","match","uniform","","","","","","","","57364.299999952316","59372.90000009537","","","","","","","","","","","","8","","stimuli/stars_8.png","27","","","","","stimuli/HM09_FO.jpg","",""
"explore-choice","21","59883","0.0-21.0","p9826","A3A8P4UR9A0DWQ","3RDTX9JRTZ7MP6YQMJD0Z3DG4HK978","3X0H8UUIT3UM7KTKTZQ4XYCC89NSW2","emotion","match","uniform","","","","","","","1793.2000000476837","59374.700000047684","61167.90000009537","[""stimuli/HM09_FO.jpg"",""stimuli/BM04_CC.jpg"",""stimuli/AF11_SC.jpg"",""stimuli/BM16_SUR.jpg""]","stimuli/HM09_FO.jpg","stimuli/BM04_CC.jpg","stimuli/AF11_SC.jpg","stimuli/BM16_SUR.jpg","pos1","stimuli/HM09_FO.jpg","FO","HM09","0","4","8","8","stimuli/stars_8.png","31","[""FO"",""CC"",""SC"",""SUR""]","[""HM09"",""BM04"",""AF11"",""BM16""]","[8,4,6,4]","[8,2,6,4]","","",""
"show-reward","22","61894","0.0-22.0","p9826","A3A8P4UR9A0DWQ","3RDTX9JRTZ7MP6YQMJD0Z3DG4HK978","3X0H8UUIT3UM7KTKTZQ4XYCC89NSW2","emotion","match","uniform","","","","","","","","61672.700000047684","63682.09999990463","","","","","","","","","","","","8","","stimuli/stars_8.png","31","","","","","stimuli/HM09_FO.jpg","",""
"explore-choice","23","63302","0.0-23.0","p9826","A3A8P4UR9A0DWQ","3RDTX9JRTZ7MP6YQMJD0Z3DG4HK978","3X0H8UUIT3UM7KTKTZQ4XYCC89NSW2","emotion","match","uniform","","","","","","","898.5","63683.40000009537","64581.90000009537","[""stimuli/AF11_FO.jpg"",""stimuli/BM04_SC.jpg"",""stimuli/BM16_CC.jpg"",""stimuli/HM09_SUR.jpg""]","stimuli/AF11_FO.jpg","stimuli/BM04_SC.jpg","stimuli/BM16_CC.jpg","stimuli/HM09_SUR.jpg","pos1","stimuli/AF11_FO.jpg","FO","AF11","0","4","8","8","stimuli/stars_8.png","35","[""FO"",""SC"",""CC"",""SUR""]","[""AF11"",""BM04"",""BM16"",""HM09""]","[8,6,0,6]","[8,6,2,4]","","",""
"show-reward","24","65314","0.0-24.0","p9826","A3A8P4UR9A0DWQ","3RDTX9JRTZ7MP6YQMJD0Z3DG4HK978","3X0H8UUIT3UM7KTKTZQ4XYCC89NSW2","emotion","match","uniform","","","","","","","","65091.700000047684","67102","","","","","","","","","","","","8","","stimuli/stars_8.png","35","","","","","stimuli/AF11_FO.jpg","",""
"explore-choice","25","68034","0.0-25.0","p9826","A3A8P4UR9A0DWQ","3RDTX9JRTZ7MP6YQMJD0Z3DG4HK978","3X0H8UUIT3UM7KTKTZQ4XYCC89NSW2","emotion","match","uniform","","","","","","","2218.7000000476837","67103.29999995232","69322","[""stimuli/BM16_FO.jpg"",""stimuli/HM09_SUR.jpg"",""stimuli/BM04_SC.jpg"",""stimuli/AF11_CC.jpg""]","stimuli/BM16_FO.jpg","stimuli/HM09_SUR.jpg","stimuli/BM04_SC.jpg","stimuli/AF11_CC.jpg","pos1","stimuli/BM16_FO.jpg","FO","BM16","0","4","8","8","stimuli/stars_8.png","39","[""FO"",""SUR"",""SC"",""CC""]","[""BM16"",""HM09"",""BM04"",""AF11""]","[8,6,6,1]","[8,4,6,2]","","",""
"show-reward","26","70040","0.0-26.0","p9826","A3A8P4UR9A0DWQ","3RDTX9JRTZ7MP6YQMJD0Z3DG4HK978","3X0H8UUIT3UM7KTKTZQ4XYCC89NSW2","emotion","match","uniform","","","","","","","","69823.79999995232","71828.5","","","","","","","","","","","","8","","stimuli/stars_8.png","39","","","","","stimuli/BM16_FO.jpg","",""
"explore-choice","27","72532","0.0-27.0","p9826","A3A8P4UR9A0DWQ","3RDTX9JRTZ7MP6YQMJD0Z3DG4HK978","3X0H8UUIT3UM7KTKTZQ4XYCC89NSW2","emotion","match","uniform","","","","","","","1987.7999999523163","71829.90000009537","73817.70000004768","[""stimuli/BM04_FO.jpg"",""stimuli/HM09_SC.jpg"",""stimuli/AF11_CC.jpg"",""stimuli/BM16_SUR.jpg""]","stimuli/BM04_FO.jpg","stimuli/HM09_SC.jpg","stimuli/AF11_CC.jpg","stimuli/BM16_SUR.jpg","pos1","stimuli/BM04_FO.jpg","FO","BM04","0","5","10","8","stimuli/stars_10.png","44","[""FO"",""SC"",""CC"",""SUR""]","[""BM04"",""HM09"",""AF11"",""BM16""]","[10,6,4,5]","[8,6,2,4]","","",""
"show-reward","28","74537","0.0-28.0","p9826","A3A8P4UR9A0DWQ","3RDTX9JRTZ7MP6YQMJD0Z3DG4HK978","3X0H8UUIT3UM7KTKTZQ4XYCC89NSW2","emotion","match","uniform","","","","","","","","74321","76325","","","","","","","","","","","","10","","stimuli/stars_10.png","44","","","","","stimuli/BM04_FO.jpg","",""
"explore-choice","29","76926","0.0-29.0","p9826","A3A8P4UR9A0DWQ","3RDTX9JRTZ7MP6YQMJD0Z3DG4HK978","3X0H8UUIT3UM7KTKTZQ4XYCC89NSW2","emotion","match","uniform","","","","","","","1883.9000000953674","76326.29999995232","78210.20000004768","[""stimuli/AF11_SC.jpg"",""stimuli/HM09_CC.jpg"",""stimuli/BM04_SUR.jpg"",""stimuli/BM16_FO.jpg""]","stimuli/AF11_SC.jpg","stimuli/HM09_CC.jpg","stimuli/BM04_SUR.jpg","stimuli/BM16_FO.jpg","pos4","stimuli/BM16_FO.jpg","FO","BM16","3","3.5","7","8","stimuli/stars_7.png","47.5","[""SC"",""CC"",""SUR"",""FO""]","[""AF11"",""HM09"",""BM04"",""BM16""]","[7,1,2,7]","[6,2,4,8]","","",""
"show-reward","30","78943","0.0-30.0","p9826","A3A8P4UR9A0DWQ","3RDTX9JRTZ7MP6YQMJD0Z3DG4HK978","3X0H8UUIT3UM7KTKTZQ4XYCC89NSW2","emotion","match","uniform","","","","","","","","78715.5","80730.90000009537","","","","","","","","","","","","7","","stimuli/stars_7.png","47.5","","","","","stimuli/BM16_FO.jpg","",""
"explore-choice","31","80956","0.0-31.0","p9826","A3A8P4UR9A0DWQ","3RDTX9JRTZ7MP6YQMJD0Z3DG4HK978","3X0H8UUIT3UM7KTKTZQ4XYCC89NSW2","emotion","match","uniform","","","","","","","1503.5","80732.5","82236","[""stimuli/BM04_SUR.jpg"",""stimuli/AF11_CC.jpg"",""stimuli/BM16_SC.jpg"",""stimuli/HM09_FO.jpg""]","stimuli/BM04_SUR.jpg","stimuli/AF11_CC.jpg","stimuli/BM16_SC.jpg","stimuli/HM09_FO.jpg","pos4","stimuli/HM09_FO.jpg","FO","HM09","3","5","10","8","stimuli/stars_10.png","52.5","[""SUR"",""CC"",""SC"",""FO""]","[""BM04"",""AF11"",""BM16"",""HM09""]","[2,2,4,10]","[4,2,6,8]","","",""
"show-reward","32","82961","0.0-32.0","p9826","A3A8P4UR9A0DWQ","3RDTX9JRTZ7MP6YQMJD0Z3DG4HK978","3X0H8UUIT3UM7KTKTZQ4XYCC89NSW2","emotion","match","uniform","","","","","","","","82745.70000004768","84748.79999995232","","","","","","","","","","","","10","","stimuli/stars_10.png","52.5","","","","","stimuli/HM09_FO.jpg","",""
"explore-choice","33","84362","0.0-33.0","p9826","A3A8P4UR9A0DWQ","3RDTX9JRTZ7MP6YQMJD0Z3DG4HK978","3X0H8UUIT3UM7KTKTZQ4XYCC89NSW2","emotion","match","uniform","","","","","","","899.7000000476837","84750.09999990463","85649.79999995232","[""stimuli/AF11_FO.jpg"",""stimuli/HM09_SC.jpg"",""stimuli/BM04_SUR.jpg"",""stimuli/BM16_CC.jpg""]","stimuli/AF11_FO.jpg","stimuli/HM09_SC.jpg","stimuli/BM04_SUR.jpg","stimuli/BM16_CC.jpg","pos1","stimuli/AF11_FO.jpg","FO","AF11","0","4","8","8","stimuli/stars_8.png","56.5","[""FO"",""SC"",""SUR"",""CC""]","[""AF11"",""HM09"",""BM04"",""BM16""]","[8,4,2,0]","[8,6,4,2]","","",""
"show-reward","34","86368","0.0-34.0","p9826","A3A8P4UR9A0DWQ","3RDTX9JRTZ7MP6YQMJD0Z3DG4HK978","3X0H8UUIT3UM7KTKTZQ4XYCC89NSW2","emotion","match","uniform","","","","","","","","86151.59999990463","88155.90000009537","","","","","","","","","","","","8","","stimuli/stars_8.png","56.5","","","","","stimuli/AF11_FO.jpg","",""
"explore-choice","35","87933","0.0-35.0","p9826","A3A8P4UR9A0DWQ","3RDTX9JRTZ7MP6YQMJD0Z3DG4HK978","3X0H8UUIT3UM7KTKTZQ4XYCC89NSW2","emotion","match","uniform","","","","","","","1063.0999999046326","88157","89220.09999990463","[""stimuli/BM16_SUR.jpg"",""stimuli/HM09_SC.jpg"",""stimuli/AF11_FO.jpg"",""stimuli/BM04_CC.jpg""]","stimuli/BM16_SUR.jpg","stimuli/HM09_SC.jpg","stimuli/AF11_FO.jpg","stimuli/BM04_CC.jpg","pos3","stimuli/AF11_FO.jpg","FO","AF11","2","3","6","8","stimuli/stars_6.png","59.5","[""SUR"",""SC"",""FO"",""CC""]","[""BM16"",""HM09"",""AF11"",""BM04""]","[5,6,6,3]","[4,6,8,2]","","",""
"show-reward","36","89939","0.0-36.0","p9826","A3A8P4UR9A0DWQ","3RDTX9JRTZ7MP6YQMJD0Z3DG4HK978","3X0H8UUIT3UM7KTKTZQ4XYCC89NSW2","emotion","match","uniform","","","","","","","","89722","91727.5","","","","","","","","","","","","6","","stimuli/stars_6.png","59.5","","","","","stimuli/AF11_FO.jpg","",""
"explore-choice","37","92454","0.0-37.0","p9826","A3A8P4UR9A0DWQ","3RDTX9JRTZ7MP6YQMJD0Z3DG4HK978","3X0H8UUIT3UM7KTKTZQ4XYCC89NSW2","emotion","match","uniform","","","","","","","2008.9000000953674","91728.79999995232","93737.70000004768","[""stimuli/AF11_SC.jpg"",""stimuli/BM16_SUR.jpg"",""stimuli/HM09_CC.jpg"",""stimuli/BM04_FO.jpg""]","stimuli/AF11_SC.jpg","stimuli/BM16_SUR.jpg","stimuli/HM09_CC.jpg","stimuli/BM04_FO.jpg","pos4","stimuli/BM04_FO.jpg","FO","BM04","3","3","6","8","stimuli/stars_6.png","62.5","[""SC"",""SUR"",""CC"",""FO""]","[""AF11"",""BM16"",""HM09"",""BM04""]","[8,2,3,6]","[6,4,2,8]","","",""
"show-reward","38","94472","0.0-38.0","p9826","A3A8P4UR9A0DWQ","3RDTX9JRTZ7MP6YQMJD0Z3DG4HK978","3X0H8UUIT3UM7KTKTZQ4XYCC89NSW2","emotion","match","uniform","","","","","","","","94243.29999995232","96260.29999995232","","","","","","","","","","","","6","","stimuli/stars_6.png","62.5","","","","","stimuli/BM04_FO.jpg","",""
"explore-choice","39","96801","0.0-39.0","p9826","A3A8P4UR9A0DWQ","3RDTX9JRTZ7MP6YQMJD0Z3DG4HK978","3X0H8UUIT3UM7KTKTZQ4XYCC89NSW2","emotion","match","uniform","","","","","","","1824.2999999523163","96261.90000009537","98086.20000004768","[""stimuli/BM16_SC.jpg"",""stimuli/AF11_SUR.jpg"",""stimuli/BM04_FO.jpg"",""stimuli/HM09_CC.jpg""]","stimuli/BM16_SC.jpg","stimuli/AF11_SUR.jpg","stimuli/BM04_FO.jpg","stimuli/HM09_CC.jpg","pos3","stimuli/BM04_FO.jpg","FO","BM04","2","4","8","8","stimuli/stars_8.png","66.5","[""SC"",""SUR"",""FO"",""CC""]","[""BM16"",""AF11"",""BM04"",""HM09""]","[8,4,8,4]","[6,4,8,2]","","",""
"show-reward","40","98806","0.0-40.0","p9826","A3A8P4UR9A0DWQ","3RDTX9JRTZ7MP6YQMJD0Z3DG4HK978","3X0H8UUIT3UM7KTKTZQ4XYCC89NSW2","emotion","match","uniform","","","","","","","","98590.09999990463","100593.79999995232","","","","","","","","","","","","8","","stimuli/stars_8.png","66.5","","","","","stimuli/BM04_FO.jpg","",""
"explore-choice","41","100850","0.0-41.0","p9826","A3A8P4UR9A0DWQ","3RDTX9JRTZ7MP6YQMJD0Z3DG4HK978","3X0H8UUIT3UM7KTKTZQ4XYCC89NSW2","emotion","match","uniform","","","","","","","1533.1000001430511","100595.09999990463","102128.20000004768","[""stimuli/BM04_SC.jpg"",""stimuli/AF11_SUR.jpg"",""stimuli/HM09_CC.jpg"",""stimuli/BM16_FO.jpg""]","stimuli/BM04_SC.jpg","stimuli/AF11_SUR.jpg","stimuli/HM09_CC.jpg","stimuli/BM16_FO.jpg","pos4","stimuli/BM16_FO.jpg","FO","BM16","3","4.5","9","8","stimuli/stars_9.png","71","[""SC"",""SUR"",""CC"",""FO""]","[""BM04"",""AF11"",""HM09"",""BM16""]","[4,4,0,9]","[6,4,2,8]","","",""
"show-reward","42","102863","0.0-42.0","p9826","A3A8P4UR9A0DWQ","3RDTX9JRTZ7MP6YQMJD0Z3DG4HK978","3X0H8UUIT3UM7KTKTZQ4XYCC89NSW2","emotion","match","uniform","","","","","","","","102639.40000009537","104650.59999990463","","","","","","","","","","","","9","","stimuli/stars_9.png","71","","","","","stimuli/BM16_FO.jpg","",""
"explore-choice","43","104493","0.0-43.0","p9826","A3A8P4UR9A0DWQ","3RDTX9JRTZ7MP6YQMJD0Z3DG4HK978","3X0H8UUIT3UM7KTKTZQ4XYCC89NSW2","emotion","match","uniform","","","","","","","1126.2000000476837","104652","105778.20000004768","[""stimuli/BM04_SC.jpg"",""stimuli/BM16_CC.jpg"",""stimuli/AF11_SUR.jpg"",""stimuli/HM09_FO.jpg""]","stimuli/BM04_SC.jpg","stimuli/BM16_CC.jpg","stimuli/AF11_SUR.jpg","stimuli/HM09_FO.jpg","pos4","stimuli/HM09_FO.jpg","FO","HM09","3","5","10","8","stimuli/stars_10.png","76","[""SC"",""CC"",""SUR"",""FO""]","[""BM04"",""BM16"",""AF11"",""HM09""]","[8,1,4,10]","[6,2,4,8]","","",""
"show-reward","44","106507","0.0-44.0","p9826","A3A8P4UR9A0DWQ","3RDTX9JRTZ7MP6YQMJD0Z3DG4HK978","3X0H8UUIT3UM7KTKTZQ4XYCC89NSW2","emotion","match","uniform","","","","","","","","106282.29999995232","108295.09999990463","","","","","","","","","","","","10","","stimuli/stars_10.png","76","","","","","stimuli/HM09_FO.jpg","",""
"explore-choice","45","108179","0.0-45.0","p9826","A3A8P4UR9A0DWQ","3RDTX9JRTZ7MP6YQMJD0Z3DG4HK978","3X0H8UUIT3UM7KTKTZQ4XYCC89NSW2","emotion","match","uniform","","","","","","","1163.2999999523163","108296.40000009537","109459.70000004768","[""stimuli/BM16_SC.jpg"",""stimuli/HM09_CC.jpg"",""stimuli/AF11_FO.jpg"",""stimuli/BM04_SUR.jpg""]","stimuli/BM16_SC.jpg","stimuli/HM09_CC.jpg","stimuli/AF11_FO.jpg","stimuli/BM04_SUR.jpg","pos4","stimuli/BM04_SUR.jpg","SUR","BM04","3","2.5","5","4","stimuli/stars_5.png","78.5","[""SC"",""CC"",""FO"",""SUR""]","[""BM16"",""HM09"",""AF11"",""BM04""]","[8,1,8,5]","[6,2,8,4]","","",""
"show-reward","46","110184","0.0-46.0","p9826","A3A8P4UR9A0DWQ","3RDTX9JRTZ7MP6YQMJD0Z3DG4HK978","3X0H8UUIT3UM7KTKTZQ4XYCC89NSW2","emotion","match","uniform","","","","","","","","109968.70000004768","111972","","","","","","","","","","","","5","","stimuli/stars_5.png","78.5","","","","","stimuli/BM04_SUR.jpg","",""
"explore-choice","47","112081","0.0-47.0","p9826","A3A8P4UR9A0DWQ","3RDTX9JRTZ7MP6YQMJD0Z3DG4HK978","3X0H8UUIT3UM7KTKTZQ4XYCC89NSW2","emotion","match","uniform","","","","","","","1394.7999999523163","111973.40000009537","113368.20000004768","[""stimuli/BM16_FO.jpg"",""stimuli/BM04_CC.jpg"",""stimuli/AF11_SC.jpg"",""stimuli/HM09_SUR.jpg""]","stimuli/BM16_FO.jpg","stimuli/BM04_CC.jpg","stimuli/AF11_SC.jpg","stimuli/HM09_SUR.jpg","pos1","stimuli/BM16_FO.jpg","FO","BM16","0","3","6","8","stimuli/stars_6.png","81.5","[""FO"",""CC"",""SC"",""SUR""]","[""BM16"",""BM04"",""AF11"",""HM09""]","[6,4,8,4]","[8,2,6,4]","","",""
"show-reward","48","114095","0.0-48.0","p9826","A3A8P4UR9A0DWQ","3RDTX9JRTZ7MP6YQMJD0Z3DG4HK978","3X0H8UUIT3UM7KTKTZQ4XYCC89NSW2","emotion","match","uniform","","","","","","","","113870.20000004768","115882.90000009537","","","","","","","","","","","","6","","stimuli/stars_6.png","81.5","","","","","stimuli/BM16_FO.jpg","",""
"explore-choice","49","115979","0.0-49.0","p9826","A3A8P4UR9A0DWQ","3RDTX9JRTZ7MP6YQMJD0Z3DG4HK978","3X0H8UUIT3UM7KTKTZQ4XYCC89NSW2","emotion","match","uniform","","","","","","","1376.3000001907349","115884.09999990463","117260.40000009537","[""stimuli/BM16_SUR.jpg"",""stimuli/HM09_FO.jpg"",""stimuli/AF11_CC.jpg"",""stimuli/BM04_SC.jpg""]","stimuli/BM16_SUR.jpg","stimuli/HM09_FO.jpg","stimuli/AF11_CC.jpg","stimuli/BM04_SC.jpg","pos1","stimuli/BM16_SUR.jpg","SUR","BM16","0","2.5","5","4","stimuli/stars_5.png","84","[""SUR"",""FO"",""CC"",""SC""]","[""BM16"",""HM09"",""AF11"",""BM04""]","[5,7,2,4]","[4,8,2,6]","","",""
"show-reward","50","117994","0.0-50.0","p9826","A3A8P4UR9A0DWQ","3RDTX9JRTZ7MP6YQMJD0Z3DG4HK978","3X0H8UUIT3UM7KTKTZQ4XYCC89NSW2","emotion","match","uniform","","","","","","","","117768.29999995232","119782.09999990463","","","","","","","","","","","","5","","stimuli/stars_5.png","84","","","","","stimuli/BM16_SUR.jpg","",""
"explore-choice","51","120038","0.0-51.0","p9826","A3A8P4UR9A0DWQ","3RDTX9JRTZ7MP6YQMJD0Z3DG4HK978","3X0H8UUIT3UM7KTKTZQ4XYCC89NSW2","emotion","match","uniform","","","","","","","1535","119783.29999995232","121318.29999995232","[""stimuli/AF11_CC.jpg"",""stimuli/BM04_SUR.jpg"",""stimuli/BM16_FO.jpg"",""stimuli/HM09_SC.jpg""]","stimuli/AF11_CC.jpg","stimuli/BM04_SUR.jpg","stimuli/BM16_FO.jpg","stimuli/HM09_SC.jpg","pos3","stimuli/BM16_FO.jpg","FO","BM16","2","4.5","9","8","stimuli/stars_9.png","88.5","[""CC"",""SUR"",""FO"",""SC""]","[""AF11"",""BM04"",""BM16"",""HM09""]","[4,2,9,8]","[2,4,8,6]","","",""
"show-reward","52","122044","0.0-52.0","p9826","A3A8P4UR9A0DWQ","3RDTX9JRTZ7MP6YQMJD0Z3DG4HK978","3X0H8UUIT3UM7KTKTZQ4XYCC89NSW2","emotion","match","uniform","","","","","","","","121827.09999990463","123831.79999995232","","","","","","","","","","","","9","","stimuli/stars_9.png","88.5","","","","","stimuli/BM16_FO.jpg","",""
"explore-choice","53","124807","0.0-53.0","p9826","A3A8P4UR9A0DWQ","3RDTX9JRTZ7MP6YQMJD0Z3DG4HK978","3X0H8UUIT3UM7KTKTZQ4XYCC89NSW2","emotion","match","uniform","","","","","","","2260.7999999523163","123833","126093.79999995232","[""stimuli/BM16_SC.jpg"",""stimuli/AF11_FO.jpg"",""stimuli/BM04_CC.jpg"",""stimuli/HM09_SUR.jpg""]","stimuli/BM16_SC.jpg","stimuli/AF11_FO.jpg","stimuli/BM04_CC.jpg","stimuli/HM09_SUR.jpg","pos2","stimuli/AF11_FO.jpg","FO","AF11","1","4","8","8","stimuli/stars_8.png","92.5","[""SC"",""FO"",""CC"",""SUR""]","[""BM16"",""AF11"",""BM04"",""HM09""]","[8,8,0,6]","[6,8,2,4]","","",""
"show-reward","54","126816","0.0-54.0","p9826","A3A8P4UR9A0DWQ","3RDTX9JRTZ7MP6YQMJD0Z3DG4HK978","3X0H8UUIT3UM7KTKTZQ4XYCC89NSW2","emotion","match","uniform","","","","","","","","126596.59999990463","128603.40000009537","","","","","","","","","","","","8","","stimuli/stars_8.png","92.5","","","","","stimuli/AF11_FO.jpg","",""
"explore-choice","55","128860","0.0-55.0","p9826","A3A8P4UR9A0DWQ","3RDTX9JRTZ7MP6YQMJD0Z3DG4HK978","3X0H8UUIT3UM7KTKTZQ4XYCC89NSW2","emotion","match","uniform","","","","","","","1540.5","128604.90000009537","130145.40000009537","[""stimuli/BM16_FO.jpg"",""stimuli/HM09_SUR.jpg"",""stimuli/BM04_SC.jpg"",""stimuli/AF11_CC.jpg""]","stimuli/BM16_FO.jpg","stimuli/HM09_SUR.jpg","stimuli/BM04_SC.jpg","stimuli/AF11_CC.jpg","pos1","stimuli/BM16_FO.jpg","FO","BM16","0","4","8","8","stimuli/stars_8.png","96.5","[""FO"",""SUR"",""SC"",""CC""]","[""BM16"",""HM09"",""BM04"",""AF11""]","[8,6,6,1]","[8,4,6,2]","","",""
"show-reward","56","130876","0.0-56.0","p9826","A3A8P4UR9A0DWQ","3RDTX9JRTZ7MP6YQMJD0Z3DG4HK978","3X0H8UUIT3UM7KTKTZQ4XYCC89NSW2","emotion","match","uniform","","","","","","","","130649","132663.59999990463","","","","","","","","","","","","8","","stimuli/stars_8.png","96.5","","","","","stimuli/BM16_FO.jpg","",""
"explore-choice","57","133304","0.0-57.0","p9826","A3A8P4UR9A0DWQ","3RDTX9JRTZ7MP6YQMJD0Z3DG4HK978","3X0H8UUIT3UM7KTKTZQ4XYCC89NSW2","emotion","match","uniform","","","","","","","1920.5","132665.09999990463","134585.59999990463","[""stimuli/BM16_SUR.jpg"",""stimuli/HM09_FO.jpg"",""stimuli/BM04_CC.jpg"",""stimuli/AF11_SC.jpg""]","stimuli/BM16_SUR.jpg","stimuli/HM09_FO.jpg","stimuli/BM04_CC.jpg","stimuli/AF11_SC.jpg","pos2","stimuli/HM09_FO.jpg","FO","HM09","1","4","8","8","stimuli/stars_8.png","100.5","[""SUR"",""FO"",""CC"",""SC""]","[""BM16"",""HM09"",""BM04"",""AF11""]","[4,8,4,6]","[4,8,2,6]","","",""
"show-reward","58","135322","0.0-58.0","p9826","A3A8P4UR9A0DWQ","3RDTX9JRTZ7MP6YQMJD0Z3DG4HK978","3X0H8UUIT3UM7KTKTZQ4XYCC89NSW2","emotion","match","uniform","","","","","","","","135093.29999995232","137109.90000009537","","","","","","","","","","","","8","","stimuli/stars_8.png","100.5","","","","","stimuli/HM09_FO.jpg","",""
"explore-choice","59","136802","0.0-59.0","p9826","A3A8P4UR9A0DWQ","3RDTX9JRTZ7MP6YQMJD0Z3DG4HK978","3X0H8UUIT3UM7KTKTZQ4XYCC89NSW2","emotion","match","uniform","","","","","","","976.5","137111.29999995232","138087.79999995232","[""stimuli/BM16_CC.jpg"",""stimuli/AF11_FO.jpg"",""stimuli/HM09_SUR.jpg"",""stimuli/BM04_SC.jpg""]","stimuli/BM16_CC.jpg","stimuli/AF11_FO.jpg","stimuli/HM09_SUR.jpg","stimuli/BM04_SC.jpg","pos2","stimuli/AF11_FO.jpg","FO","AF11","1","4","8","8","stimuli/stars_8.png","104.5","[""CC"",""FO"",""SUR"",""SC""]","[""BM16"",""AF11"",""HM09"",""BM04""]","[0,8,6,6]","[2,8,4,6]","","",""
"show-reward","60","138814","0.0-60.0","p9826","A3A8P4UR9A0DWQ","3RDTX9JRTZ7MP6YQMJD0Z3DG4HK978","3X0H8UUIT3UM7KTKTZQ4XYCC89NSW2","emotion","match","uniform","","","","","","","","138591.29999995232","140602.29999995232","","","","","","","","","","","","8","","stimuli/stars_8.png","104.5","","","","","stimuli/AF11_FO.jpg","",""
"explore-choice","61","142018","0.0-61.0","p9826","A3A8P4UR9A0DWQ","3RDTX9JRTZ7MP6YQMJD0Z3DG4HK978","3X0H8UUIT3UM7KTKTZQ4XYCC89NSW2","emotion","match","uniform","","","","","","","2700.7000000476837","140603.70000004768","143304.40000009537","[""stimuli/AF11_SC.jpg"",""stimuli/BM16_FO.jpg"",""stimuli/HM09_SUR.jpg"",""stimuli/BM04_CC.jpg""]","stimuli/AF11_SC.jpg","stimuli/BM16_FO.jpg","stimuli/HM09_SUR.jpg","stimuli/BM04_CC.jpg","pos2","stimuli/BM16_FO.jpg","FO","BM16","1","3","6","8","stimuli/stars_6.png","107.5","[""SC"",""FO"",""SUR"",""CC""]","[""AF11"",""BM16"",""HM09"",""BM04""]","[8,6,4,4]","[6,8,4,2]","","",""
"show-reward","62","144024","0.0-62.0","p9826","A3A8P4UR9A0DWQ","3RDTX9JRTZ7MP6YQMJD0Z3DG4HK978","3X0H8UUIT3UM7KTKTZQ4XYCC89NSW2","emotion","match","uniform","","","","","","","","143808","145812.40000009537","","","","","","","","","","","","6","","stimuli/stars_6.png","107.5","","","","","stimuli/BM16_FO.jpg","",""
"explore-choice","63","145366","0.0-63.0","p9826","A3A8P4UR9A0DWQ","3RDTX9JRTZ7MP6YQMJD0Z3DG4HK978","3X0H8UUIT3UM7KTKTZQ4XYCC89NSW2","emotion","match","uniform","","","","","","","828.5","145813.70000004768","146642.20000004768","[""stimuli/BM04_FO.jpg"",""stimuli/HM09_CC.jpg"",""stimuli/BM16_SUR.jpg"",""stimuli/AF11_SC.jpg""]","stimuli/BM04_FO.jpg","stimuli/HM09_CC.jpg","stimuli/BM16_SUR.jpg","stimuli/AF11_SC.jpg","pos1","stimuli/BM04_FO.jpg","FO","BM04","0","3","6","8","stimuli/stars_6.png","110.5","[""FO"",""CC"",""SUR"",""SC""]","[""BM04"",""HM09"",""BM16"",""AF11""]","[6,3,2,8]","[8,2,4,6]","","",""
"show-reward","64","147374","0.0-64.0","p9826","A3A8P4UR9A0DWQ","3RDTX9JRTZ7MP6YQMJD0Z3DG4HK978","3X0H8UUIT3UM7KTKTZQ4XYCC89NSW2","emotion","match","uniform","","","","","","","","147155.5","149161.59999990463","","","","","","","","","","","","6","","stimuli/stars_6.png","110.5","","","","","stimuli/BM04_FO.jpg","",""
"explore-choice","65","149174","0.0-65.0","p9826","A3A8P4UR9A0DWQ","3RDTX9JRTZ7MP6YQMJD0Z3DG4HK978","3X0H8UUIT3UM7KTKTZQ4XYCC89NSW2","emotion","match","uniform","","","","","","","1292.2999999523163","149163.29999995232","150455.59999990463","[""stimuli/HM09_SC.jpg"",""stimuli/AF11_SUR.jpg"",""stimuli/BM16_FO.jpg"",""stimuli/BM04_CC.jpg""]","stimuli/HM09_SC.jpg","stimuli/AF11_SUR.jpg","stimuli/BM16_FO.jpg","stimuli/BM04_CC.jpg","pos2","stimuli/AF11_SUR.jpg","SUR","AF11","1","1","2","4","stimuli/stars_2.png","111.5","[""SC"",""SUR"",""FO"",""CC""]","[""HM09"",""AF11"",""BM16"",""BM04""]","[5,2,8,1]","[6,4,8,2]","","",""
"show-reward","66","151183","0.0-66.0","p9826","A3A8P4UR9A0DWQ","3RDTX9JRTZ7MP6YQMJD0Z3DG4HK978","3X0H8UUIT3UM7KTKTZQ4XYCC89NSW2","emotion","match","uniform","","","","","","","","150962.59999990463","152971.09999990463","","","","","","","","","","","","2","","stimuli/stars_2.png","111.5","","","","","stimuli/AF11_SUR.jpg","",""
"explore-choice","67","153668","0.0-67.0","p9826","A3A8P4UR9A0DWQ","3RDTX9JRTZ7MP6YQMJD0Z3DG4HK978","3X0H8UUIT3UM7KTKTZQ4XYCC89NSW2","emotion","match","uniform","","","","","","","1977.5","152972.40000009537","154949.90000009537","[""stimuli/AF11_FO.jpg"",""stimuli/BM16_CC.jpg"",""stimuli/HM09_SC.jpg"",""stimuli/BM04_SUR.jpg""]","stimuli/AF11_FO.jpg","stimuli/BM16_CC.jpg","stimuli/HM09_SC.jpg","stimuli/BM04_SUR.jpg","pos1","stimuli/AF11_FO.jpg","FO","AF11","0","4","8","8","stimuli/stars_8.png","115.5","[""FO"",""CC"",""SC"",""SUR""]","[""AF11"",""BM16"",""HM09"",""BM04""]","[8,0,4,2]","[8,2,6,4]","","",""
"show-reward","68","155678","0.0-68.0","p9826","A3A8P4UR9A0DWQ","3RDTX9JRTZ7MP6YQMJD0Z3DG4HK978","3X0H8UUIT3UM7KTKTZQ4XYCC89NSW2","emotion","match","uniform","","","","","","","","155457.20000004768","157466.09999990463","","","","","","","","","","","","8","","stimuli/stars_8.png","115.5","","","","","stimuli/AF11_FO.jpg","",""
"explore-choice","69","157234","0.0-69.0","p9826","A3A8P4UR9A0DWQ","3RDTX9JRTZ7MP6YQMJD0Z3DG4HK978","3X0H8UUIT3UM7KTKTZQ4XYCC89NSW2","emotion","match","uniform","","","","","","","1054.2999999523163","157467.40000009537","158521.70000004768","[""stimuli/BM04_FO.jpg"",""stimuli/BM16_CC.jpg"",""stimuli/AF11_SC.jpg"",""stimuli/HM09_SUR.jpg""]","stimuli/BM04_FO.jpg","stimuli/BM16_CC.jpg","stimuli/AF11_SC.jpg","stimuli/HM09_SUR.jpg","pos1","stimuli/BM04_FO.jpg","FO","BM04","0","4","8","8","stimuli/stars_8.png","119.5","[""FO"",""CC"",""SC"",""SUR""]","[""BM04"",""BM16"",""AF11"",""HM09""]","[8,3,4,3]","[8,2,6,4]","","",""
"show-reward","70","159238","0.0-70.0","p9826","A3A8P4UR9A0DWQ","3RDTX9JRTZ7MP6YQMJD0Z3DG4HK978","3X0H8UUIT3UM7KTKTZQ4XYCC89NSW2","emotion","match","uniform","","","","","","","","159023.5","161025.79999995232","","","","","","","","","","","","8","","stimuli/stars_8.png","119.5","","","","","stimuli/BM04_FO.jpg","",""
"explore-choice","71","161126","0.0-71.0","p9826","A3A8P4UR9A0DWQ","3RDTX9JRTZ7MP6YQMJD0Z3DG4HK978","3X0H8UUIT3UM7KTKTZQ4XYCC89NSW2","emotion","match","uniform","","","","","","","1386.5999999046326","161027.20000004768","162413.79999995232","[""stimuli/BM04_SC.jpg"",""stimuli/HM09_FO.jpg"",""stimuli/BM16_SUR.jpg"",""stimuli/AF11_CC.jpg""]","stimuli/BM04_SC.jpg","stimuli/HM09_FO.jpg","stimuli/BM16_SUR.jpg","stimuli/AF11_CC.jpg","pos2","stimuli/HM09_FO.jpg","FO","HM09","1","3.5","7","8","stimuli/stars_7.png","123","[""SC"",""FO"",""SUR"",""CC""]","[""BM04"",""HM09"",""BM16"",""AF11""]","[4,7,5,2]","[6,8,4,2]","","",""
"show-reward","72","163133","0.0-72.0","p9826","A3A8P4UR9A0DWQ","3RDTX9JRTZ7MP6YQMJD0Z3DG4HK978","3X0H8UUIT3UM7KTKTZQ4XYCC89NSW2","emotion","match","uniform","","","","","","","","162915.40000009537","164920.59999990463","","","","","","","","","","","","7","","stimuli/stars_7.png","123","","","","","stimuli/HM09_FO.jpg","",""
"explore-choice","73","164974","0.0-73.0","p9826","A3A8P4UR9A0DWQ","3RDTX9JRTZ7MP6YQMJD0Z3DG4HK978","3X0H8UUIT3UM7KTKTZQ4XYCC89NSW2","emotion","match","uniform","","","","","","","1337.9000000953674","164921.79999995232","166259.70000004768","[""stimuli/BM16_FO.jpg"",""stimuli/BM04_SC.jpg"",""stimuli/AF11_SUR.jpg"",""stimuli/HM09_CC.jpg""]","stimuli/BM16_FO.jpg","stimuli/BM04_SC.jpg","stimuli/AF11_SUR.jpg","stimuli/HM09_CC.jpg","pos1","stimuli/BM16_FO.jpg","FO","BM16","0","4.5","9","8","stimuli/stars_9.png","127.5","[""FO"",""SC"",""SUR"",""CC""]","[""BM16"",""BM04"",""AF11"",""HM09""]","[9,4,4,0]","[8,6,4,2]","","",""
"show-reward","74","166991","0.0-74.0","p9826","A3A8P4UR9A0DWQ","3RDTX9JRTZ7MP6YQMJD0Z3DG4HK978","3X0H8UUIT3UM7KTKTZQ4XYCC89NSW2","emotion","match","uniform","","","","","","","","166763.29999995232","168778.40000009537","","","","","","","","","","","","9","","stimuli/stars_9.png","127.5","","","","","stimuli/BM16_FO.jpg","",""
"explore-choice","75","168915","0.0-75.0","p9826","A3A8P4UR9A0DWQ","3RDTX9JRTZ7MP6YQMJD0Z3DG4HK978","3X0H8UUIT3UM7KTKTZQ4XYCC89NSW2","emotion","match","uniform","","","","","","","1418.5999999046326","168779.70000004768","170198.29999995232","[""stimuli/BM04_FO.jpg"",""stimuli/BM16_SUR.jpg"",""stimuli/AF11_CC.jpg"",""stimuli/HM09_SC.jpg""]","stimuli/BM04_FO.jpg","stimuli/BM16_SUR.jpg","stimuli/AF11_CC.jpg","stimuli/HM09_SC.jpg","pos1","stimuli/BM04_FO.jpg","FO","BM04","0","5","10","8","stimuli/stars_10.png","132.5","[""FO"",""SUR"",""CC"",""SC""]","[""BM04"",""BM16"",""AF11"",""HM09""]","[10,5,4,6]","[8,4,2,6]","","",""
"show-reward","76","170925","0.0-76.0","p9826","A3A8P4UR9A0DWQ","3RDTX9JRTZ7MP6YQMJD0Z3DG4HK978","3X0H8UUIT3UM7KTKTZQ4XYCC89NSW2","emotion","match","uniform","","","","","","","","170704.5","172713.29999995232","","","","","","","","","","","","10","","stimuli/stars_10.png","132.5","","","","","stimuli/BM04_FO.jpg","",""
"explore-choice","77","172703","0.0-77.0","p9826","A3A8P4UR9A0DWQ","3RDTX9JRTZ7MP6YQMJD0Z3DG4HK978","3X0H8UUIT3UM7KTKTZQ4XYCC89NSW2","emotion","match","uniform","","","","","","","1267.1999998092651","172714.40000009537","173981.59999990463","[""stimuli/BM16_SUR.jpg"",""stimuli/BM04_SC.jpg"",""stimuli/AF11_FO.jpg"",""stimuli/HM09_CC.jpg""]","stimuli/BM16_SUR.jpg","stimuli/BM04_SC.jpg","stimuli/AF11_FO.jpg","stimuli/HM09_CC.jpg","pos3","stimuli/AF11_FO.jpg","FO","AF11","2","4.5","9","8","stimuli/stars_9.png","137","[""SUR"",""SC"",""FO"",""CC""]","[""BM16"",""BM04"",""AF11"",""HM09""]","[5,4,9,4]","[4,6,8,2]","","",""
"show-reward","78","174711","0.0-78.0","p9826","A3A8P4UR9A0DWQ","3RDTX9JRTZ7MP6YQMJD0Z3DG4HK978","3X0H8UUIT3UM7KTKTZQ4XYCC89NSW2","emotion","match","uniform","","","","","","","","174492","176499.20000004768","","","","","","","","","","","","9","","stimuli/stars_9.png","137","","","","","stimuli/AF11_FO.jpg","",""
"explore-choice","79","178131","0.0-79.0","p9826","A3A8P4UR9A0DWQ","3RDTX9JRTZ7MP6YQMJD0Z3DG4HK978","3X0H8UUIT3UM7KTKTZQ4XYCC89NSW2","emotion","match","uniform","","","","","","","2907.800000190735","176500.59999990463","179408.40000009537","[""stimuli/HM09_FO.jpg"",""stimuli/BM16_CC.jpg"",""stimuli/BM04_SC.jpg"",""stimuli/AF11_SUR.jpg""]","stimuli/HM09_FO.jpg","stimuli/BM16_CC.jpg","stimuli/BM04_SC.jpg","stimuli/AF11_SUR.jpg","pos1","stimuli/HM09_FO.jpg","FO","HM09","0","5","10","8","stimuli/stars_10.png","142","[""FO"",""CC"",""SC"",""SUR""]","[""HM09"",""BM16"",""BM04"",""AF11""]","[10,1,8,4]","[8,2,6,4]","","",""
"show-reward","80","180136","0.0-80.0","p9826","A3A8P4UR9A0DWQ","3RDTX9JRTZ7MP6YQMJD0Z3DG4HK978","3X0H8UUIT3UM7KTKTZQ4XYCC89NSW2","emotion","match","uniform","","","","","","","","179920.29999995232","181923.79999995232","","","","","","","","","","","","10","","stimuli/stars_10.png","142","","","","","stimuli/HM09_FO.jpg","",""
"explore-choice","81","181892","0.0-81.0","p9826","A3A8P4UR9A0DWQ","3RDTX9JRTZ7MP6YQMJD0Z3DG4HK978","3X0H8UUIT3UM7KTKTZQ4XYCC89NSW2","emotion","match","uniform","","","","","","","1251","181925.20000004768","183176.20000004768","[""stimuli/BM04_FO.jpg"",""stimuli/HM09_CC.jpg"",""stimuli/BM16_SC.jpg"",""stimuli/AF11_SUR.jpg""]","stimuli/BM04_FO.jpg","stimuli/HM09_CC.jpg","stimuli/BM16_SC.jpg","stimuli/AF11_SUR.jpg","pos1","stimuli/BM04_FO.jpg","FO","BM04","0","4","8","8","stimuli/stars_8.png","146","[""FO"",""CC"",""SC"",""SUR""]","[""BM04"",""HM09"",""BM16"",""AF11""]","[8,4,8,4]","[8,2,6,4]","","",""
"show-reward","82","183900","0.0-82.0","p9826","A3A8P4UR9A0DWQ","3RDTX9JRTZ7MP6YQMJD0Z3DG4HK978","3X0H8UUIT3UM7KTKTZQ4XYCC89NSW2","emotion","match","uniform","","","","","","","","183681.29999995232","185687.59999990463","","","","","","","","","","","","8","","stimuli/stars_8.png","146","","","","","stimuli/BM04_FO.jpg","",""
"explore-choice","83","185440","0.0-83.0","p9826","A3A8P4UR9A0DWQ","3RDTX9JRTZ7MP6YQMJD0Z3DG4HK978","3X0H8UUIT3UM7KTKTZQ4XYCC89NSW2","emotion","match","uniform","","","","","","","1034.7999999523163","185689","186723.79999995232","[""stimuli/HM09_CC.jpg"",""stimuli/BM16_SC.jpg"",""stimuli/BM04_SUR.jpg"",""stimuli/AF11_FO.jpg""]","stimuli/HM09_CC.jpg","stimuli/BM16_SC.jpg","stimuli/BM04_SUR.jpg","stimuli/AF11_FO.jpg","pos4","stimuli/AF11_FO.jpg","FO","AF11","3","4","8","8","stimuli/stars_8.png","150","[""CC"",""SC"",""SUR"",""FO""]","[""HM09"",""BM16"",""BM04"",""AF11""]","[1,8,5,8]","[2,6,4,8]","","",""
"show-reward","84","187452","0.0-84.0","p9826","A3A8P4UR9A0DWQ","3RDTX9JRTZ7MP6YQMJD0Z3DG4HK978","3X0H8UUIT3UM7KTKTZQ4XYCC89NSW2","emotion","match","uniform","","","","","","","","187229.20000004768","189239.40000009537","","","","","","","","","","","","8","","stimuli/stars_8.png","150","","","","","stimuli/AF11_FO.jpg","",""
"explore-choice","85","188947","0.0-85.0","p9826","A3A8P4UR9A0DWQ","3RDTX9JRTZ7MP6YQMJD0Z3DG4HK978","3X0H8UUIT3UM7KTKTZQ4XYCC89NSW2","emotion","match","uniform","","","","","","","991","189240.90000009537","190231.90000009537","[""stimuli/BM16_SC.jpg"",""stimuli/BM04_FO.jpg"",""stimuli/HM09_SUR.jpg"",""stimuli/AF11_CC.jpg""]","stimuli/BM16_SC.jpg","stimuli/BM04_FO.jpg","stimuli/HM09_SUR.jpg","stimuli/AF11_CC.jpg","pos2","stimuli/BM04_FO.jpg","FO","BM04","1","3","6","8","stimuli/stars_6.png","153","[""SC"",""FO"",""SUR"",""CC""]","[""BM16"",""BM04"",""HM09"",""AF11""]","[4,6,5,1]","[6,8,4,2]","","",""
"show-reward","86","190966","0.0-86.0","p9826","A3A8P4UR9A0DWQ","3RDTX9JRTZ7MP6YQMJD0Z3DG4HK978","3X0H8UUIT3UM7KTKTZQ4XYCC89NSW2","emotion","match","uniform","","","","","","","","190736","192753.40000009537","","","","","","","","","","","","6","","stimuli/stars_6.png","153","","","","","stimuli/BM04_FO.jpg","",""
"explore-choice","87","192578","0.0-87.0","p9826","A3A8P4UR9A0DWQ","3RDTX9JRTZ7MP6YQMJD0Z3DG4HK978","3X0H8UUIT3UM7KTKTZQ4XYCC89NSW2","emotion","match","uniform","","","","","","","1095.2999999523163","192754.79999995232","193850.09999990463","[""stimuli/AF11_FO.jpg"",""stimuli/BM16_SUR.jpg"",""stimuli/BM04_CC.jpg"",""stimuli/HM09_SC.jpg""]","stimuli/AF11_FO.jpg","stimuli/BM16_SUR.jpg","stimuli/BM04_CC.jpg","stimuli/HM09_SC.jpg","pos1","stimuli/AF11_FO.jpg","FO","AF11","0","3","6","8","stimuli/stars_6.png","156","[""FO"",""SUR"",""CC"",""SC""]","[""AF11"",""BM16"",""BM04"",""HM09""]","[6,5,3,6]","[8,4,2,6]","","",""
"show-reward","88","194590","0.0-88.0","p9826","A3A8P4UR9A0DWQ","3RDTX9JRTZ7MP6YQMJD0Z3DG4HK978","3X0H8UUIT3UM7KTKTZQ4XYCC89NSW2","emotion","match","uniform","","","","","","","","194367.29999995232","196377.79999995232","","","","","","","","","","","","6","","stimuli/stars_6.png","156","","","","","stimuli/AF11_FO.jpg","",""
"explore-choice","89","196370","0.0-89.0","p9826","A3A8P4UR9A0DWQ","3RDTX9JRTZ7MP6YQMJD0Z3DG4HK978","3X0H8UUIT3UM7KTKTZQ4XYCC89NSW2","emotion","match","uniform","","","","","","","1263","196379.40000009537","197642.40000009537","[""stimuli/AF11_CC.jpg"",""stimuli/BM16_FO.jpg"",""stimuli/HM09_SC.jpg"",""stimuli/BM04_SUR.jpg""]","stimuli/AF11_CC.jpg","stimuli/BM16_FO.jpg","stimuli/HM09_SC.jpg","stimuli/BM04_SUR.jpg","pos2","stimuli/BM16_FO.jpg","FO","BM16","1","4.5","9","8","stimuli/stars_9.png","160.5","[""CC"",""FO"",""SC"",""SUR""]","[""AF11"",""BM16"",""HM09"",""BM04""]","[4,9,8,2]","[2,8,6,4]","","",""
"show-reward","90","198376","0.0-90.0","p9826","A3A8P4UR9A0DWQ","3RDTX9JRTZ7MP6YQMJD0Z3DG4HK978","3X0H8UUIT3UM7KTKTZQ4XYCC89NSW2","emotion","match","uniform","","","","","","","","198159","200163.29999995232","","","","","","","","","","","","9","","stimuli/stars_9.png","160.5","","","","","stimuli/BM16_FO.jpg","",""
"explore-choice","91","200103","0.0-91.0","p9826","A3A8P4UR9A0DWQ","3RDTX9JRTZ7MP6YQMJD0Z3DG4HK978","3X0H8UUIT3UM7KTKTZQ4XYCC89NSW2","emotion","match","uniform","","","","","","","1211.4000000953674","200164.59999990463","201376","[""stimuli/BM16_CC.jpg"",""stimuli/AF11_SUR.jpg"",""stimuli/BM04_FO.jpg"",""stimuli/HM09_SC.jpg""]","stimuli/BM16_CC.jpg","stimuli/AF11_SUR.jpg","stimuli/BM04_FO.jpg","stimuli/HM09_SC.jpg","pos2","stimuli/AF11_SUR.jpg","SUR","AF11","1","2.5","5","4","stimuli/stars_5.png","163","[""CC"",""SUR"",""FO"",""SC""]","[""BM16"",""AF11"",""BM04"",""HM09""]","[2,5,9,7]","[2,4,8,6]","","",""
"show-reward","92","202112","0.0-92.0","p9826","A3A8P4UR9A0DWQ","3RDTX9JRTZ7MP6YQMJD0Z3DG4HK978","3X0H8UUIT3UM7KTKTZQ4XYCC89NSW2","emotion","match","uniform","","","","","","","","201892.20000004768","203899.79999995232","","","","","","","","","","","","5","","stimuli/stars_5.png","163","","","","","stimuli/AF11_SUR.jpg","",""
"explore-choice","93","203803","0.0-93.0","p9826","A3A8P4UR9A0DWQ","3RDTX9JRTZ7MP6YQMJD0Z3DG4HK978","3X0H8UUIT3UM7KTKTZQ4XYCC89NSW2","emotion","match","uniform","","","","","","","1187.2000000476837","203901","205088.20000004768","[""stimuli/BM16_FO.jpg"",""stimuli/HM09_CC.jpg"",""stimuli/BM04_SUR.jpg"",""stimuli/AF11_SC.jpg""]","stimuli/BM16_FO.jpg","stimuli/HM09_CC.jpg","stimuli/BM04_SUR.jpg","stimuli/AF11_SC.jpg","pos1","stimuli/BM16_FO.jpg","FO","BM16","0","3.5","7","8","stimuli/stars_7.png","166.5","[""FO"",""CC"",""SUR"",""SC""]","[""BM16"",""HM09"",""BM04"",""AF11""]","[7,1,2,7]","[8,2,4,6]","","",""
"show-reward","94","205807","0.0-94.0","p9826","A3A8P4UR9A0DWQ","3RDTX9JRTZ7MP6YQMJD0Z3DG4HK978","3X0H8UUIT3UM7KTKTZQ4XYCC89NSW2","emotion","match","uniform","","","","","","","","205591.70000004768","207594.5","","","","","","","","","","","","7","","stimuli/stars_7.png","166.5","","","","","stimuli/BM16_FO.jpg","",""
"explore-choice","95","208039","0.0-95.0","p9826","A3A8P4UR9A0DWQ","3RDTX9JRTZ7MP6YQMJD0Z3DG4HK978","3X0H8UUIT3UM7KTKTZQ4XYCC89NSW2","emotion","match","uniform","","","","","","","1729.9000000953674","207595.79999995232","209325.70000004768","[""stimuli/BM04_SUR.jpg"",""stimuli/HM09_FO.jpg"",""stimuli/BM16_CC.jpg"",""stimuli/AF11_SC.jpg""]","stimuli/BM04_SUR.jpg","stimuli/HM09_FO.jpg","stimuli/BM16_CC.jpg","stimuli/AF11_SC.jpg","pos2","stimuli/HM09_FO.jpg","FO","HM09","1","4","8","8","stimuli/stars_8.png","170.5","[""SUR"",""FO"",""CC"",""SC""]","[""BM04"",""HM09"",""BM16"",""AF11""]","[3,8,0,7]","[4,8,2,6]","","",""
"show-reward","96","210046","0.0-96.0","p9826","A3A8P4UR9A0DWQ","3RDTX9JRTZ7MP6YQMJD0Z3DG4HK978","3X0H8UUIT3UM7KTKTZQ4XYCC89NSW2","emotion","match","uniform","","","","","","","","209827.90000009537","211834.29999995232","","","","","","","","","","","","8","","stimuli/stars_8.png","170.5","","","","","stimuli/HM09_FO.jpg","",""
"explore-choice","97","211822","0.0-97.0","p9826","A3A8P4UR9A0DWQ","3RDTX9JRTZ7MP6YQMJD0Z3DG4HK978","3X0H8UUIT3UM7KTKTZQ4XYCC89NSW2","emotion","match","uniform","","","","","","","1272.4000000953674","211835.59999990463","213108","[""stimuli/BM04_CC.jpg"",""stimuli/BM16_SC.jpg"",""stimuli/AF11_SUR.jpg"",""stimuli/HM09_FO.jpg""]","stimuli/BM04_CC.jpg","stimuli/BM16_SC.jpg","stimuli/AF11_SUR.jpg","stimuli/HM09_FO.jpg","pos3","stimuli/AF11_SUR.jpg","SUR","AF11","2","2","4","4","stimuli/stars_4.png","172.5","[""CC"",""SC"",""SUR"",""FO""]","[""BM04"",""BM16"",""AF11"",""HM09""]","[3,7,4,9]","[2,6,4,8]","","",""
"show-reward","98","213831","0.0-98.0","p9826","A3A8P4UR9A0DWQ","3RDTX9JRTZ7MP6YQMJD0Z3DG4HK978","3X0H8UUIT3UM7KTKTZQ4XYCC89NSW2","emotion","match","uniform","","","","","","","","213611.5","215618.5","","","","","","","","","","","","4","","stimuli/stars_4.png","172.5","","","","","stimuli/AF11_SUR.jpg","",""
"explore-choice","99","215791","0.0-99.0","p9826","A3A8P4UR9A0DWQ","3RDTX9JRTZ7MP6YQMJD0Z3DG4HK978","3X0H8UUIT3UM7KTKTZQ4XYCC89NSW2","emotion","match","uniform","","","","","","","1458.2000000476837","215619.79999995232","217078","[""stimuli/BM04_SUR.jpg"",""stimuli/AF11_CC.jpg"",""stimuli/HM09_FO.jpg"",""stimuli/BM16_SC.jpg""]","stimuli/BM04_SUR.jpg","stimuli/AF11_CC.jpg","stimuli/HM09_FO.jpg","stimuli/BM16_SC.jpg","pos3","stimuli/HM09_FO.jpg","FO","HM09","2","5","10","8","stimuli/stars_10.png","177.5","[""SUR"",""CC"",""FO"",""SC""]","[""BM04"",""AF11"",""HM09"",""BM16""]","[2,2,10,4]","[4,2,8,6]","","",""
"show-reward","100","217796","0.0-100.0","p9826","A3A8P4UR9A0DWQ","3RDTX9JRTZ7MP6YQMJD0Z3DG4HK978","3X0H8UUIT3UM7KTKTZQ4XYCC89NSW2","emotion","match","uniform","","","","","","","","217580.40000009537","219583.79999995232","","","","","","","","","","","","10","","stimuli/stars_10.png","177.5","","","","","stimuli/HM09_FO.jpg","",""
"explore-choice","101","219555","0.0-101.0","p9826","A3A8P4UR9A0DWQ","3RDTX9JRTZ7MP6YQMJD0Z3DG4HK978","3X0H8UUIT3UM7KTKTZQ4XYCC89NSW2","emotion","match","uniform","","","","","","","1250.7999999523163","219585","220835.79999995232","[""stimuli/BM04_CC.jpg"",""stimuli/HM09_SUR.jpg"",""stimuli/BM16_SC.jpg"",""stimuli/AF11_FO.jpg""]","stimuli/BM04_CC.jpg","stimuli/HM09_SUR.jpg","stimuli/BM16_SC.jpg","stimuli/AF11_FO.jpg","pos2","stimuli/HM09_SUR.jpg","SUR","HM09","1","3","6","4","stimuli/stars_6.png","180.5","[""CC"",""SUR"",""SC"",""FO""]","[""BM04"",""HM09"",""BM16"",""AF11""]","[0,6,8,8]","[2,4,6,8]","","",""
"show-reward","102","221560","0.0-102.0","p9826","A3A8P4UR9A0DWQ","3RDTX9JRTZ7MP6YQMJD0Z3DG4HK978","3X0H8UUIT3UM7KTKTZQ4XYCC89NSW2","emotion","match","uniform","","","","","","","","221343.79999995232","223348.09999990463","","","","","","","","","","","","6","","stimuli/stars_6.png","180.5","","","","","stimuli/HM09_SUR.jpg","",""
"explore-choice","103","223872","0.0-103.0","p9826","A3A8P4UR9A0DWQ","3RDTX9JRTZ7MP6YQMJD0Z3DG4HK978","3X0H8UUIT3UM7KTKTZQ4XYCC89NSW2","emotion","match","uniform","","","","","","","1808.8999998569489","223349.40000009537","225158.29999995232","[""stimuli/AM06_AO.jpg"",""stimuli/WM11_DO.jpg"",""stimuli/AF02_HO.jpg"",""stimuli/BF06_HE.jpg""]","stimuli/AM06_AO.jpg","stimuli/WM11_DO.jpg","stimuli/AF02_HO.jpg","stimuli/BF06_HE.jpg","pos2","stimuli/WM11_DO.jpg","DO","WM11","1","0","0","2","stimuli/stars_0.png","180.5","[""AO"",""DO"",""HO"",""HE""]","[""AM06"",""WM11"",""AF02"",""BF06""]","[6,0,9,4]","[6,2,8,4]","","",""
"show-reward","104","225877","0.0-104.0","p9826","A3A8P4UR9A0DWQ","3RDTX9JRTZ7MP6YQMJD0Z3DG4HK978","3X0H8UUIT3UM7KTKTZQ4XYCC89NSW2","emotion","match","uniform","","","","","","","","225661.59999990463","227664.5","","","","","","","","","","","","0","","stimuli/stars_0.png","180.5","","","","","stimuli/WM11_DO.jpg","",""
"explore-choice","105","227906","0.0-105.0","p9826","A3A8P4UR9A0DWQ","3RDTX9JRTZ7MP6YQMJD0Z3DG4HK978","3X0H8UUIT3UM7KTKTZQ4XYCC89NSW2","emotion","match","uniform","","","","","","","1526.0999999046326","227665.90000009537","229192","[""stimuli/AM06_AO.jpg"",""stimuli/WM11_HE.jpg"",""stimuli/BF06_HO.jpg"",""stimuli/AF02_DO.jpg""]","stimuli/AM06_AO.jpg","stimuli/WM11_HE.jpg","stimuli/BF06_HO.jpg","stimuli/AF02_DO.jpg","pos3","stimuli/BF06_HO.jpg","HO","BF06","2","3.5","7","8","stimuli/stars_7.png","184","[""AO"",""HE"",""HO"",""DO""]","[""AM06"",""WM11"",""BF06"",""AF02""]","[5,3,7,0]","[6,4,8,2]","","",""
"show-reward","106","229914","0.0-106.0","p9826","A3A8P4UR9A0DWQ","3RDTX9JRTZ7MP6YQMJD0Z3DG4HK978","3X0H8UUIT3UM7KTKTZQ4XYCC89NSW2","emotion","match","uniform","","","","","","","","229695.40000009537","231701.90000009537","","","","","","","","","","","","7","","stimuli/stars_7.png","184","","","","","stimuli/BF06_HO.jpg","",""
"explore-choice","107","231443","0.0-107.0","p9826","A3A8P4UR9A0DWQ","3RDTX9JRTZ7MP6YQMJD0Z3DG4HK978","3X0H8UUIT3UM7KTKTZQ4XYCC89NSW2","emotion","match","uniform","","","","","","","1026.8000001907349","231703.09999990463","232729.90000009537","[""stimuli/WM11_HE.jpg"",""stimuli/BF06_AO.jpg"",""stimuli/AM06_HO.jpg"",""stimuli/AF02_DO.jpg""]","stimuli/WM11_HE.jpg","stimuli/BF06_AO.jpg","stimuli/AM06_HO.jpg","stimuli/AF02_DO.jpg","pos1","stimuli/WM11_HE.jpg","HE","WM11","0","2","4","4","stimuli/stars_4.png","186","[""HE"",""AO"",""HO"",""DO""]","[""WM11"",""BF06"",""AM06"",""AF02""]","[4,7,10,2]","[4,6,8,2]","","",""
"show-reward","108","233457","0.0-108.0","p9826","A3A8P4UR9A0DWQ","3RDTX9JRTZ7MP6YQMJD0Z3DG4HK978","3X0H8UUIT3UM7KTKTZQ4XYCC89NSW2","emotion","match","uniform","","","","","","","","233232.40000009537","235245.09999990463","","","","","","","","","","","","4","","stimuli/stars_4.png","186","","","","","stimuli/WM11_HE.jpg","",""
"explore-choice","109","235989","0.0-109.0","p9826","A3A8P4UR9A0DWQ","3RDTX9JRTZ7MP6YQMJD0Z3DG4HK978","3X0H8UUIT3UM7KTKTZQ4XYCC89NSW2","emotion","match","uniform","","","","","","","2024.9000000953674","235246.59999990463","237271.5","[""stimuli/WM11_AO.jpg"",""stimuli/BF06_HO.jpg"",""stimuli/AF02_DO.jpg"",""stimuli/AM06_HE.jpg""]","stimuli/WM11_AO.jpg","stimuli/BF06_HO.jpg","stimuli/AF02_DO.jpg","stimuli/AM06_HE.jpg","pos2","stimuli/BF06_HO.jpg","HO","BF06","1","3","6","8","stimuli/stars_6.png","189","[""AO"",""HO"",""DO"",""HE""]","[""WM11"",""BF06"",""AF02"",""AM06""]","[5,6,0,5]","[6,8,2,4]","","",""
"show-reward","110","237998","0.0-110.0","p9826","A3A8P4UR9A0DWQ","3RDTX9JRTZ7MP6YQMJD0Z3DG4HK978","3X0H8UUIT3UM7KTKTZQ4XYCC89NSW2","emotion","match","uniform","","","","","","","","237777.70000004768","239786.09999990463","","","","","","","","","","","","6","","stimuli/stars_6.png","189","","","","","stimuli/BF06_HO.jpg","",""
"explore-choice","111","241104","0.0-111.0","p9826","A3A8P4UR9A0DWQ","3RDTX9JRTZ7MP6YQMJD0Z3DG4HK978","3X0H8UUIT3UM7KTKTZQ4XYCC89NSW2","emotion","match","uniform","","","","","","","2596.4000000953674","239787.5","242383.90000009537","[""stimuli/AF02_AO.jpg"",""stimuli/AM06_HO.jpg"",""stimuli/BF06_DO.jpg"",""stimuli/WM11_HE.jpg""]","stimuli/AF02_AO.jpg","stimuli/AM06_HO.jpg","stimuli/BF06_DO.jpg","stimuli/WM11_HE.jpg","pos4","stimuli/WM11_HE.jpg","HE","WM11","3","2.5","5","4","stimuli/stars_5.png","191.5","[""AO"",""HO"",""DO"",""HE""]","[""AF02"",""AM06"",""BF06"",""WM11""]","[4,6,4,5]","[6,8,2,4]","","",""
"show-reward","112","243119","0.0-112.0","p9826","A3A8P4UR9A0DWQ","3RDTX9JRTZ7MP6YQMJD0Z3DG4HK978","3X0H8UUIT3UM7KTKTZQ4XYCC89NSW2","emotion","match","uniform","","","","","","","","242893.40000009537","244907","","","","","","","","","","","","5","","stimuli/stars_5.png","191.5","","","","","stimuli/WM11_HE.jpg","",""
"explore-choice","113","244967","0.0-113.0","p9826","A3A8P4UR9A0DWQ","3RDTX9JRTZ7MP6YQMJD0Z3DG4HK978","3X0H8UUIT3UM7KTKTZQ4XYCC89NSW2","emotion","match","uniform","","","","","","","1338","244908.5","246246.5","[""stimuli/AF02_AO.jpg"",""stimuli/WM11_HO.jpg"",""stimuli/BF06_HE.jpg"",""stimuli/AM06_DO.jpg""]","stimuli/AF02_AO.jpg","stimuli/WM11_HO.jpg","stimuli/BF06_HE.jpg","stimuli/AM06_DO.jpg","pos2","stimuli/WM11_HO.jpg","HO","WM11","1","5","10","8","stimuli/stars_10.png","196.5","[""AO"",""HO"",""HE"",""DO""]","[""AF02"",""WM11"",""BF06"",""AM06""]","[6,10,2,4]","[6,8,4,2]","","",""
"show-reward","114","246974","0.0-114.0","p9826","A3A8P4UR9A0DWQ","3RDTX9JRTZ7MP6YQMJD0Z3DG4HK978","3X0H8UUIT3UM7KTKTZQ4XYCC89NSW2","emotion","match","uniform","","","","","","","","246755.70000004768","248761.29999995232","","","","","","","","","","","","10","","stimuli/stars_10.png","196.5","","","","","stimuli/WM11_HO.jpg","",""
"explore-choice","115","248798","0.0-115.0","p9826","A3A8P4UR9A0DWQ","3RDTX9JRTZ7MP6YQMJD0Z3DG4HK978","3X0H8UUIT3UM7KTKTZQ4XYCC89NSW2","emotion","match","uniform","","","","","","","1311.5","248762.70000004768","250074.20000004768","[""stimuli/BF06_AO.jpg"",""stimuli/AF02_DO.jpg"",""stimuli/AM06_HE.jpg"",""stimuli/WM11_HO.jpg""]","stimuli/BF06_AO.jpg","stimuli/AF02_DO.jpg","stimuli/AM06_HE.jpg","stimuli/WM11_HO.jpg","pos4","stimuli/WM11_HO.jpg","HO","WM11","3","4","8","8","stimuli/stars_8.png","200.5","[""AO"",""DO"",""HE"",""HO""]","[""BF06"",""AF02"",""AM06"",""WM11""]","[6,1,4,8]","[6,2,4,8]","","",""
"show-reward","116","250807","0.0-116.0","p9826","A3A8P4UR9A0DWQ","3RDTX9JRTZ7MP6YQMJD0Z3DG4HK978","3X0H8UUIT3UM7KTKTZQ4XYCC89NSW2","emotion","match","uniform","","","","","","","","250587.5","252594.70000004768","","","","","","","","","","","","8","","stimuli/stars_8.png","200.5","","","","","stimuli/WM11_HO.jpg","",""
"explore-choice","117","253178","0.0-117.0","p9826","A3A8P4UR9A0DWQ","3RDTX9JRTZ7MP6YQMJD0Z3DG4HK978","3X0H8UUIT3UM7KTKTZQ4XYCC89NSW2","emotion","match","uniform","","","","","","","1856.0999999046326","252596","254452.09999990463","[""stimuli/AM06_AO.jpg"",""stimuli/AF02_HO.jpg"",""stimuli/WM11_HE.jpg"",""stimuli/BF06_DO.jpg""]","stimuli/AM06_AO.jpg","stimuli/AF02_HO.jpg","stimuli/WM11_HE.jpg","stimuli/BF06_DO.jpg","pos3","stimuli/WM11_HE.jpg","HE","WM11","2","2","4","4","stimuli/stars_4.png","202.5","[""AO"",""HO"",""HE"",""DO""]","[""AM06"",""AF02"",""WM11"",""BF06""]","[8,7,4,1]","[6,8,4,2]","","",""
"show-reward","118","255183","0.0-118.0","p9826","A3A8P4UR9A0DWQ","3RDTX9JRTZ7MP6YQMJD0Z3DG4HK978","3X0H8UUIT3UM7KTKTZQ4XYCC89NSW2","emotion","match","uniform","","","","","","","","254967.40000009537","256970.79999995232","","","","","","","","","","","","4","","stimuli/stars_4.png","202.5","","","","","stimuli/WM11_HE.jpg","",""
"explore-choice","119","257173","0.0-119.0","p9826","A3A8P4UR9A0DWQ","3RDTX9JRTZ7MP6YQMJD0Z3DG4HK978","3X0H8UUIT3UM7KTKTZQ4XYCC89NSW2","emotion","match","uniform","","","","","","","1488.0999999046326","256972","258460.09999990463","[""stimuli/AF02_HE.jpg"",""stimuli/BF06_HO.jpg"",""stimuli/AM06_DO.jpg"",""stimuli/WM11_AO.jpg""]","stimuli/AF02_HE.jpg","stimuli/BF06_HO.jpg","stimuli/AM06_DO.jpg","stimuli/WM11_AO.jpg","pos2","stimuli/BF06_HO.jpg","HO","BF06","1","3","6","8","stimuli/stars_6.png","205.5","[""HE"",""HO"",""DO"",""AO""]","[""AF02"",""BF06"",""AM06"",""WM11""]","[2,6,4,8]","[4,8,2,6]","","",""
"show-reward","120","259191","0.0-120.0","p9826","A3A8P4UR9A0DWQ","3RDTX9JRTZ7MP6YQMJD0Z3DG4HK978","3X0H8UUIT3UM7KTKTZQ4XYCC89NSW2","emotion","match","uniform","","","","","","","","258962.09999990463","260979.20000004768","","","","","","","","","","","","6","","stimuli/stars_6.png","205.5","","","","","stimuli/BF06_HO.jpg","",""
"explore-choice","121","262112","0.0-121.0","p9826","A3A8P4UR9A0DWQ","3RDTX9JRTZ7MP6YQMJD0Z3DG4HK978","3X0H8UUIT3UM7KTKTZQ4XYCC89NSW2","emotion","match","uniform","","","","","","","2418.899999856949","260980.70000004768","263399.59999990463","[""stimuli/AM06_HE.jpg"",""stimuli/WM11_AO.jpg"",""stimuli/BF06_DO.jpg"",""stimuli/AF02_HO.jpg""]","stimuli/AM06_HE.jpg","stimuli/WM11_AO.jpg","stimuli/BF06_DO.jpg","stimuli/AF02_HO.jpg","pos4","stimuli/AF02_HO.jpg","HO","AF02","3","3.5","7","8","stimuli/stars_7.png","209","[""HE"",""AO"",""DO"",""HO""]","[""AM06"",""WM11"",""BF06"",""AF02""]","[6,4,1,7]","[4,6,2,8]","","",""
"show-reward","122","264132","0.0-122.0","p9826","A3A8P4UR9A0DWQ","3RDTX9JRTZ7MP6YQMJD0Z3DG4HK978","3X0H8UUIT3UM7KTKTZQ4XYCC89NSW2","emotion","match","uniform","","","","","","","","263901.7000000477","265919.7000000477","","","","","","","","","","","","7","","stimuli/stars_7.png","209","","","","","stimuli/AF02_HO.jpg","",""
"explore-choice","123","265715","0.0-123.0","p9826","A3A8P4UR9A0DWQ","3RDTX9JRTZ7MP6YQMJD0Z3DG4HK978","3X0H8UUIT3UM7KTKTZQ4XYCC89NSW2","emotion","match","uniform","","","","","","","1081","265921.59999990463","267002.59999990463","[""stimuli/WM11_DO.jpg"",""stimuli/BF06_HE.jpg"",""stimuli/AM06_HO.jpg"",""stimuli/AF02_AO.jpg""]","stimuli/WM11_DO.jpg","stimuli/BF06_HE.jpg","stimuli/AM06_HO.jpg","stimuli/AF02_AO.jpg","pos2","stimuli/BF06_HE.jpg","HE","BF06","1","3","6","4","stimuli/stars_6.png","212","[""DO"",""HE"",""HO"",""AO""]","[""WM11"",""BF06"",""AM06"",""AF02""]","[4,6,6,5]","[2,4,8,6]","","",""
"show-reward","124","267724","0.0-124.0","p9826","A3A8P4UR9A0DWQ","3RDTX9JRTZ7MP6YQMJD0Z3DG4HK978","3X0H8UUIT3UM7KTKTZQ4XYCC89NSW2","emotion","match","uniform","","","","","","","","267503.7999999523","269511.5","","","","","","","","","","","","6","","stimuli/stars_6.png","212","","","","","stimuli/BF06_HE.jpg","",""
"explore-choice","125","270038","0.0-125.0","p9826","A3A8P4UR9A0DWQ","3RDTX9JRTZ7MP6YQMJD0Z3DG4HK978","3X0H8UUIT3UM7KTKTZQ4XYCC89NSW2","emotion","match","uniform","","","","","","","1811.1000001430511","269512.7999999523","271323.90000009537","[""stimuli/AM06_DO.jpg"",""stimuli/WM11_HE.jpg"",""stimuli/AF02_HO.jpg"",""stimuli/BF06_AO.jpg""]","stimuli/AM06_DO.jpg","stimuli/WM11_HE.jpg","stimuli/AF02_HO.jpg","stimuli/BF06_AO.jpg","pos3","stimuli/AF02_HO.jpg","HO","AF02","2","4.5","9","8","stimuli/stars_9.png","216.5","[""DO"",""HE"",""HO"",""AO""]","[""AM06"",""WM11"",""AF02"",""BF06""]","[2,6,9,6]","[2,4,8,6]","","",""
"show-reward","126","272042","0.0-126.0","p9826","A3A8P4UR9A0DWQ","3RDTX9JRTZ7MP6YQMJD0Z3DG4HK978","3X0H8UUIT3UM7KTKTZQ4XYCC89NSW2","emotion","match","uniform","","","","","","","","271827.59999990463","273830.2000000477","","","","","","","","","","","","9","","stimuli/stars_9.png","216.5","","","","","stimuli/AF02_HO.jpg","",""
"explore-choice","127","274150","0.0-127.0","p9826","A3A8P4UR9A0DWQ","3RDTX9JRTZ7MP6YQMJD0Z3DG4HK978","3X0H8UUIT3UM7KTKTZQ4XYCC89NSW2","emotion","match","uniform","","","","","","","1602.5","273831.59999990463","275434.09999990463","[""stimuli/WM11_HO.jpg"",""stimuli/BF06_DO.jpg"",""stimuli/AF02_AO.jpg"",""stimuli/AM06_HE.jpg""]","stimuli/WM11_HO.jpg","stimuli/BF06_DO.jpg","stimuli/AF02_AO.jpg","stimuli/AM06_HE.jpg","pos1","stimuli/WM11_HO.jpg","HO","WM11","0","3.5","7","8","stimuli/stars_7.png","220","[""HO"",""DO"",""AO"",""HE""]","[""WM11"",""BF06"",""AF02"",""AM06""]","[7,3,7,5]","[8,2,6,4]","","",""
"show-reward","128","276163","0.0-128.0","p9826","A3A8P4UR9A0DWQ","3RDTX9JRTZ7MP6YQMJD0Z3DG4HK978","3X0H8UUIT3UM7KTKTZQ4XYCC89NSW2","emotion","match","uniform","","","","","","","","275939.5","277950.5","","","","","","","","","","","","7","","stimuli/stars_7.png","220","","","","","stimuli/WM11_HO.jpg","",""
"explore-choice","129","277866","0.0-129.0","p9826","A3A8P4UR9A0DWQ","3RDTX9JRTZ7MP6YQMJD0Z3DG4HK978","3X0H8UUIT3UM7KTKTZQ4XYCC89NSW2","emotion","match","uniform","","","","","","","1192","277951.59999990463","279143.59999990463","[""stimuli/BF06_HE.jpg"",""stimuli/WM11_HO.jpg"",""stimuli/AM06_AO.jpg"",""stimuli/AF02_DO.jpg""]","stimuli/BF06_HE.jpg","stimuli/WM11_HO.jpg","stimuli/AM06_AO.jpg","stimuli/AF02_DO.jpg","pos2","stimuli/WM11_HO.jpg","HO","WM11","1","3.5","7","8","stimuli/stars_7.png","223.5","[""HE"",""HO"",""AO"",""DO""]","[""BF06"",""WM11"",""AM06"",""AF02""]","[5,7,5,0]","[4,8,6,2]","","",""
"show-reward","130","279877","0.0-130.0","p9826","A3A8P4UR9A0DWQ","3RDTX9JRTZ7MP6YQMJD0Z3DG4HK978","3X0H8UUIT3UM7KTKTZQ4XYCC89NSW2","emotion","match","uniform","","","","","","","","279655.2999999523","281664.5","","","","","","","","","","","","7","","stimuli/stars_7.png","223.5","","","","","stimuli/WM11_HO.jpg","",""
"explore-choice","131","282076","0.0-131.0","p9826","A3A8P4UR9A0DWQ","3RDTX9JRTZ7MP6YQMJD0Z3DG4HK978","3X0H8UUIT3UM7KTKTZQ4XYCC89NSW2","emotion","match","uniform","","","","","","","1689.9000000953674","281665.7999999523","283355.7000000477","[""stimuli/WM11_AO.jpg"",""stimuli/AF02_HE.jpg"",""stimuli/AM06_HO.jpg"",""stimuli/BF06_DO.jpg""]","stimuli/WM11_AO.jpg","stimuli/AF02_HE.jpg","stimuli/AM06_HO.jpg","stimuli/BF06_DO.jpg","pos2","stimuli/AF02_HE.jpg","HE","AF02","1","1","2","4","stimuli/stars_2.png","224.5","[""AO"",""HE"",""HO"",""DO""]","[""WM11"",""AF02"",""AM06"",""BF06""]","[5,2,8,3]","[6,4,8,2]","","",""
"show-reward","132","284082","0.0-132.0","p9826","A3A8P4UR9A0DWQ","3RDTX9JRTZ7MP6YQMJD0Z3DG4HK978","3X0H8UUIT3UM7KTKTZQ4XYCC89NSW2","emotion","match","uniform","","","","","","","","283865.7999999523","285869.7999999523","","","","","","","","","","","","2","","stimuli/stars_2.png","224.5","","","","","stimuli/AF02_HE.jpg","",""
"explore-choice","133","285886","0.0-133.0","p9826","A3A8P4UR9A0DWQ","3RDTX9JRTZ7MP6YQMJD0Z3DG4HK978","3X0H8UUIT3UM7KTKTZQ4XYCC89NSW2","emotion","match","uniform","","","","","","","1296.2999999523163","285871.2999999523","287167.59999990463","[""stimuli/WM11_HO.jpg"",""stimuli/AM06_AO.jpg"",""stimuli/AF02_HE.jpg"",""stimuli/BF06_DO.jpg""]","stimuli/WM11_HO.jpg","stimuli/AM06_AO.jpg","stimuli/AF02_HE.jpg","stimuli/BF06_DO.jpg","pos1","stimuli/WM11_HO.jpg","HO","WM11","0","5","10","8","stimuli/stars_10.png","229.5","[""HO"",""AO"",""HE"",""DO""]","[""WM11"",""AM06"",""AF02"",""BF06""]","[10,8,3,1]","[8,6,4,2]","","",""
"show-reward","134","287888","0.0-134.0","p9826","A3A8P4UR9A0DWQ","3RDTX9JRTZ7MP6YQMJD0Z3DG4HK978","3X0H8UUIT3UM7KTKTZQ4XYCC89NSW2","emotion","match","uniform","","","","","","","","287675.2000000477","289681.7999999523","","","","","","","","","","","","10","","stimuli/stars_10.png","229.5","","","","","stimuli/WM11_HO.jpg","",""
"explore-choice","135","289813","0.0-135.0","p9826","A3A8P4UR9A0DWQ","3RDTX9JRTZ7MP6YQMJD0Z3DG4HK978","3X0H8UUIT3UM7KTKTZQ4XYCC89NSW2","emotion","match","uniform","","","","","","","1423.1000001430511","289683.09999990463","291106.2000000477","[""stimuli/BF06_HO.jpg"",""stimuli/AM06_DO.jpg"",""stimuli/WM11_HE.jpg"",""stimuli/AF02_AO.jpg""]","stimuli/BF06_HO.jpg","stimuli/AM06_DO.jpg","stimuli/WM11_HE.jpg","stimuli/AF02_AO.jpg","pos1","stimuli/BF06_HO.jpg","HO","BF06","0","4","8","8","stimuli/stars_8.png","233.5","[""HO"",""DO"",""HE"",""AO""]","[""BF06"",""AM06"",""WM11"",""AF02""]","[8,4,6,6]","[8,2,4,6]","","",""
"show-reward","136","291817","0.0-136.0","p9826","A3A8P4UR9A0DWQ","3RDTX9JRTZ7MP6YQMJD0Z3DG4HK978","3X0H8UUIT3UM7KTKTZQ4XYCC89NSW2","emotion","match","uniform","","","","","","","","291608.2000000477","293610.7000000477","","","","","","","","","","","","8","","stimuli/stars_8.png","233.5","","","","","stimuli/BF06_HO.jpg","",""
"explore-choice","137","293276","0.0-137.0","p9826","A3A8P4UR9A0DWQ","3RDTX9JRTZ7MP6YQMJD0Z3DG4HK978","3X0H8UUIT3UM7KTKTZQ4XYCC89NSW2","emotion","match","uniform","","","","","","","954","293611.7999999523","294565.7999999523","[""stimuli/AF02_HO.jpg"",""stimuli/BF06_AO.jpg"",""stimuli/WM11_DO.jpg"",""stimuli/AM06_HE.jpg""]","stimuli/AF02_HO.jpg","stimuli/BF06_AO.jpg","stimuli/WM11_DO.jpg","stimuli/AM06_HE.jpg","pos1","stimuli/AF02_HO.jpg","HO","AF02","0","5","10","8","stimuli/stars_10.png","238.5","[""HO"",""AO"",""DO"",""HE""]","[""AF02"",""BF06"",""WM11"",""AM06""]","[10,7,2,3]","[8,6,2,4]","","",""
"show-reward","138","295286","0.0-138.0","p9826","A3A8P4UR9A0DWQ","3RDTX9JRTZ7MP6YQMJD0Z3DG4HK978","3X0H8UUIT3UM7KTKTZQ4XYCC89NSW2","emotion","match","uniform","","","","","","","","295070.7000000477","297079.2999999523","","","","","","","","","","","","10","","stimuli/stars_10.png","238.5","","","","","stimuli/AF02_HO.jpg","",""
"explore-choice","139","296913","0.0-139.0","p9826","A3A8P4UR9A0DWQ","3RDTX9JRTZ7MP6YQMJD0Z3DG4HK978","3X0H8UUIT3UM7KTKTZQ4XYCC89NSW2","emotion","match","uniform","","","","","","","1117.2999999523163","297080.7000000477","298198","[""stimuli/WM11_DO.jpg"",""stimuli/BF06_HO.jpg"",""stimuli/AF02_AO.jpg"",""stimuli/AM06_HE.jpg""]","stimuli/WM11_DO.jpg","stimuli/BF06_HO.jpg","stimuli/AF02_AO.jpg","stimuli/AM06_HE.jpg","pos2","stimuli/BF06_HO.jpg","HO","BF06","1","3.5","7","8","stimuli/stars_7.png","242","[""DO"",""HO"",""AO"",""HE""]","[""WM11"",""BF06"",""AF02"",""AM06""]","[3,7,6,2]","[2,8,6,4]","","",""
"show-reward","140","298920","0.0-140.0","p9826","A3A8P4UR9A0DWQ","3RDTX9JRTZ7MP6YQMJD0Z3DG4HK978","3X0H8UUIT3UM7KTKTZQ4XYCC89NSW2","emotion","match","uniform","","","","","","","","298707.5","300713.90000009537","","","","","","","","","","","","7","","stimuli/stars_7.png","242","","","","","stimuli/BF06_HO.jpg","",""
"explore-choice","141","301305","0.0-141.0","p9826","A3A8P4UR9A0DWQ","3RDTX9JRTZ7MP6YQMJD0Z3DG4HK978","3X0H8UUIT3UM7KTKTZQ4XYCC89NSW2","emotion","match","uniform","","","","","","","1882.7999999523163","300715.40000009537","302598.2000000477","[""stimuli/AM06_HO.jpg"",""stimuli/WM11_AO.jpg"",""stimuli/AF02_DO.jpg"",""stimuli/BF06_HE.jpg""]","stimuli/AM06_HO.jpg","stimuli/WM11_AO.jpg","stimuli/AF02_DO.jpg","stimuli/BF06_HE.jpg","pos4","stimuli/BF06_HE.jpg","HE","BF06","3","3","6","4","stimuli/stars_6.png","245","[""HO"",""AO"",""DO"",""HE""]","[""AM06"",""WM11"",""AF02"",""BF06""]","[9,4,2,6]","[8,6,2,4]","","",""
"show-reward","142","303322","0.0-142.0","p9826","A3A8P4UR9A0DWQ","3RDTX9JRTZ7MP6YQMJD0Z3DG4HK978","3X0H8UUIT3UM7KTKTZQ4XYCC89NSW2","emotion","match","uniform","","","","","","","","303099.7000000477","305115.2000000477","","","","","","","","","","","","6","","stimuli/stars_6.png","245","","","","","stimuli/BF06_HE.jpg","",""
"explore-choice","143","304641","0.0-143.0","p9826","A3A8P4UR9A0DWQ","3RDTX9JRTZ7MP6YQMJD0Z3DG4HK978","3X0H8UUIT3UM7KTKTZQ4XYCC89NSW2","emotion","match","uniform","","","","","","","815.2000000476837","305116.5","305931.7000000477","[""stimuli/BF06_HO.jpg"",""stimuli/WM11_DO.jpg"",""stimuli/AM06_AO.jpg"",""stimuli/AF02_HE.jpg""]","stimuli/BF06_HO.jpg","stimuli/WM11_DO.jpg","stimuli/AM06_AO.jpg","stimuli/AF02_HE.jpg","pos1","stimuli/BF06_HO.jpg","HO","BF06","0","4.5","9","8","stimuli/stars_9.png","249.5","[""HO"",""DO"",""AO"",""HE""]","[""BF06"",""WM11"",""AM06"",""AF02""]","[9,4,7,6]","[8,2,6,4]","","",""
"show-reward","144","306657","0.0-144.0","p9826","A3A8P4UR9A0DWQ","3RDTX9JRTZ7MP6YQMJD0Z3DG4HK978","3X0H8UUIT3UM7KTKTZQ4XYCC89NSW2","emotion","match","uniform","","","","","","","","306436.09999990463","308451","","","","","","","","","","","","9","","stimuli/stars_9.png","249.5","","","","","stimuli/BF06_HO.jpg","",""
"explore-choice","145","308560","0.0-145.0","p9826","A3A8P4UR9A0DWQ","3RDTX9JRTZ7MP6YQMJD0Z3DG4HK978","3X0H8UUIT3UM7KTKTZQ4XYCC89NSW2","emotion","match","uniform","","","","","","","1393.7999999523163","308452.2999999523","309846.09999990463","[""stimuli/BF06_AO.jpg"",""stimuli/AM06_DO.jpg"",""stimuli/AF02_HE.jpg"",""stimuli/WM11_HO.jpg""]","stimuli/BF06_AO.jpg","stimuli/AM06_DO.jpg","stimuli/AF02_HE.jpg","stimuli/WM11_HO.jpg","pos4","stimuli/WM11_HO.jpg","HO","WM11","3","4","8","8","stimuli/stars_8.png","253.5","[""AO"",""DO"",""HE"",""HO""]","[""BF06"",""AM06"",""AF02"",""WM11""]","[4,1,6,8]","[6,2,4,8]","","",""
"show-reward","146","310565","0.0-146.0","p9826","A3A8P4UR9A0DWQ","3RDTX9JRTZ7MP6YQMJD0Z3DG4HK978","3X0H8UUIT3UM7KTKTZQ4XYCC89NSW2","emotion","match","uniform","","","","","","","","310354.59999990463","312358.7000000477","","","","","","","","","","","","8","","stimuli/stars_8.png","253.5","","","","","stimuli/WM11_HO.jpg","",""
"explore-choice","147","313606","0.0-147.0","p9826","A3A8P4UR9A0DWQ","3RDTX9JRTZ7MP6YQMJD0Z3DG4HK978","3X0H8UUIT3UM7KTKTZQ4XYCC89NSW2","emotion","match","uniform","","","","","","","2533.9000000953674","312360","314893.90000009537","[""stimuli/BF06_AO.jpg"",""stimuli/AM06_HO.jpg"",""stimuli/AF02_HE.jpg"",""stimuli/WM11_DO.jpg""]","stimuli/BF06_AO.jpg","stimuli/AM06_HO.jpg","stimuli/AF02_HE.jpg","stimuli/WM11_DO.jpg","pos3","stimuli/AF02_HE.jpg","HE","AF02","2","1.5","3","4","stimuli/stars_3.png","255","[""AO"",""HO"",""HE"",""DO""]","[""BF06"",""AM06"",""AF02"",""WM11""]","[8,10,3,4]","[6,8,4,2]","","",""
"show-reward","148","315622","0.0-148.0","p9826","A3A8P4UR9A0DWQ","3RDTX9JRTZ7MP6YQMJD0Z3DG4HK978","3X0H8UUIT3UM7KTKTZQ4XYCC89NSW2","emotion","match","uniform","","","","","","","","315400.59999990463","317415.2999999523","","","","","","","","","","","","3","","stimuli/stars_3.png","255","","","","","stimuli/AF02_HE.jpg","",""
"explore-choice","149","317493","0.0-149.0","p9826","A3A8P4UR9A0DWQ","3RDTX9JRTZ7MP6YQMJD0Z3DG4HK978","3X0H8UUIT3UM7KTKTZQ4XYCC89NSW2","emotion","match","uniform","","","","","","","1369.0999999046326","317416.7000000477","318785.7999999523","[""stimuli/AM06_DO.jpg"",""stimuli/BF06_HE.jpg"",""stimuli/AF02_HO.jpg"",""stimuli/WM11_AO.jpg""]","stimuli/AM06_DO.jpg","stimuli/BF06_HE.jpg","stimuli/AF02_HO.jpg","stimuli/WM11_AO.jpg","pos2","stimuli/BF06_HE.jpg","HE","BF06","1","3","6","4","stimuli/stars_6.png","258","[""DO"",""HE"",""HO"",""AO""]","[""AM06"",""BF06"",""AF02"",""WM11""]","[1,6,6,8]","[2,4,8,6]","","",""
"show-reward","150","319510","0.0-150.0","p9826","A3A8P4UR9A0DWQ","3RDTX9JRTZ7MP6YQMJD0Z3DG4HK978","3X0H8UUIT3UM7KTKTZQ4XYCC89NSW2","emotion","match","uniform","","","","","","","","319287.7999999523","321303.7000000477","","","","","","","","","","","","6","","stimuli/stars_6.png","258","","","","","stimuli/BF06_HE.jpg","",""
"explore-choice","151","321407","0.0-151.0","p9826","A3A8P4UR9A0DWQ","3RDTX9JRTZ7MP6YQMJD0Z3DG4HK978","3X0H8UUIT3UM7KTKTZQ4XYCC89NSW2","emotion","match","uniform","","","","","","","1395.8000001907349","321304.59999990463","322700.40000009537","[""stimuli/AM06_AO.jpg"",""stimuli/AF02_DO.jpg"",""stimuli/BF06_HE.jpg"",""stimuli/WM11_HO.jpg""]","stimuli/AM06_AO.jpg","stimuli/AF02_DO.jpg","stimuli/BF06_HE.jpg","stimuli/WM11_HO.jpg","pos3","stimuli/BF06_HE.jpg","HE","BF06","2","2.5","5","4","stimuli/stars_5.png","260.5","[""AO"",""DO"",""HE"",""HO""]","[""AM06"",""AF02"",""BF06"",""WM11""]","[5,0,5,7]","[6,2,4,8]","","",""
"show-reward","152","323425","0.0-152.0","p9826","A3A8P4UR9A0DWQ","3RDTX9JRTZ7MP6YQMJD0Z3DG4HK978","3X0H8UUIT3UM7KTKTZQ4XYCC89NSW2","emotion","match","uniform","","","","","","","","323202.2999999523","325219","","","","","","","","","","","","5","","stimuli/stars_5.png","260.5","","","","","stimuli/BF06_HE.jpg","",""
"explore-choice","153","325415","0.0-153.0","p9826","A3A8P4UR9A0DWQ","3RDTX9JRTZ7MP6YQMJD0Z3DG4HK978","3X0H8UUIT3UM7KTKTZQ4XYCC89NSW2","emotion","match","uniform","","","","","","","1487.4000000953674","325220.2999999523","326707.7000000477","[""stimuli/WM11_HE.jpg"",""stimuli/AF02_HO.jpg"",""stimuli/AM06_DO.jpg"",""stimuli/BF06_AO.jpg""]","stimuli/WM11_HE.jpg","stimuli/AF02_HO.jpg","stimuli/AM06_DO.jpg","stimuli/BF06_AO.jpg","pos2","stimuli/AF02_HO.jpg","HO","AF02","1","4.5","9","8","stimuli/stars_9.png","265","[""HE"",""HO"",""DO"",""AO""]","[""WM11"",""AF02"",""AM06"",""BF06""]","[6,9,2,6]","[4,8,2,6]","","",""
"show-reward","154","327421","0.0-154.0","p9826","A3A8P4UR9A0DWQ","3RDTX9JRTZ7MP6YQMJD0Z3DG4HK978","3X0H8UUIT3UM7KTKTZQ4XYCC89NSW2","emotion","match","uniform","","","","","","","","327209.5","329214.09999990463","","","","","","","","","","","","9","","stimuli/stars_9.png","265","","","","","stimuli/AF02_HO.jpg","",""
"explore-choice","155","329102","0.0-155.0","p9826","A3A8P4UR9A0DWQ","3RDTX9JRTZ7MP6YQMJD0Z3DG4HK978","3X0H8UUIT3UM7KTKTZQ4XYCC89NSW2","emotion","match","uniform","","","","","","","1178","329215.59999990463","330393.59999990463","[""stimuli/WM11_HO.jpg"",""stimuli/BF06_AO.jpg"",""stimuli/AF02_HE.jpg"",""stimuli/AM06_DO.jpg""]","stimuli/WM11_HO.jpg","stimuli/BF06_AO.jpg","stimuli/AF02_HE.jpg","stimuli/AM06_DO.jpg","pos1","stimuli/WM11_HO.jpg","HO","WM11","0","4","8","8","stimuli/stars_8.png","269","[""HO"",""AO"",""HE"",""DO""]","[""WM11"",""BF06"",""AF02"",""AM06""]","[8,4,6,1]","[8,6,4,2]","","",""
"show-reward","156","331106","0.0-156.0","p9826","A3A8P4UR9A0DWQ","3RDTX9JRTZ7MP6YQMJD0Z3DG4HK978","3X0H8UUIT3UM7KTKTZQ4XYCC89NSW2","emotion","match","uniform","","","","","","","","330896.7000000477","332899.5","","","","","","","","","","","","8","","stimuli/stars_8.png","269","","","","","stimuli/WM11_HO.jpg","",""
"explore-choice","157","333077","0.0-157.0","p9826","A3A8P4UR9A0DWQ","3RDTX9JRTZ7MP6YQMJD0Z3DG4HK978","3X0H8UUIT3UM7KTKTZQ4XYCC89NSW2","emotion","match","uniform","","","","","","","1469.3999998569489","332900.7000000477","334370.09999990463","[""stimuli/WM11_AO.jpg"",""stimuli/AM06_HO.jpg"",""stimuli/BF06_DO.jpg"",""stimuli/AF02_HE.jpg""]","stimuli/WM11_AO.jpg","stimuli/AM06_HO.jpg","stimuli/BF06_DO.jpg","stimuli/AF02_HE.jpg","pos2","stimuli/AM06_HO.jpg","HO","AM06","1","4","8","8","stimuli/stars_8.png","273","[""AO"",""HO"",""DO"",""HE""]","[""WM11"",""AM06"",""BF06"",""AF02""]","[5,8,3,2]","[6,8,2,4]","","",""
"show-reward","158","335081","0.0-158.0","p9826","A3A8P4UR9A0DWQ","3RDTX9JRTZ7MP6YQMJD0Z3DG4HK978","3X0H8UUIT3UM7KTKTZQ4XYCC89NSW2","emotion","match","uniform","","","","","","","","334871.90000009537","336874.2999999523","","","","","","","","","","","","8","","stimuli/stars_8.png","273","","","","","stimuli/AM06_HO.jpg","",""
"explore-choice","159","337416","0.0-159.0","p9826","A3A8P4UR9A0DWQ","3RDTX9JRTZ7MP6YQMJD0Z3DG4HK978","3X0H8UUIT3UM7KTKTZQ4XYCC89NSW2","emotion","match","uniform","","","","","","","1830.0999999046326","336875.40000009537","338705.5","[""stimuli/AF02_HE.jpg"",""stimuli/AM06_HO.jpg"",""stimuli/BF06_AO.jpg"",""stimuli/WM11_DO.jpg""]","stimuli/AF02_HE.jpg","stimuli/AM06_HO.jpg","stimuli/BF06_AO.jpg","stimuli/WM11_DO.jpg","pos2","stimuli/AM06_HO.jpg","HO","AM06","1","5","10","8","stimuli/stars_10.png","278","[""HE"",""HO"",""AO"",""DO""]","[""AF02"",""AM06"",""BF06"",""WM11""]","[3,10,8,4]","[4,8,6,2]","","",""
"show-reward","160","339433","0.0-160.0","p9826","A3A8P4UR9A0DWQ","3RDTX9JRTZ7MP6YQMJD0Z3DG4HK978","3X0H8UUIT3UM7KTKTZQ4XYCC89NSW2","emotion","match","uniform","","","","","","","","339211","341226.59999990463","","","","","","","","","","","","10","","stimuli/stars_10.png","278","","","","","stimuli/AM06_HO.jpg","",""
"explore-choice","161","342251","0.0-161.0","p9826","A3A8P4UR9A0DWQ","3RDTX9JRTZ7MP6YQMJD0Z3DG4HK978","3X0H8UUIT3UM7KTKTZQ4XYCC89NSW2","emotion","match","uniform","","","","","","","2314.2999999523163","341227.90000009537","343542.2000000477","[""stimuli/AF02_DO.jpg"",""stimuli/AM06_HE.jpg"",""stimuli/WM11_AO.jpg"",""stimuli/BF06_HO.jpg""]","stimuli/AF02_DO.jpg","stimuli/AM06_HE.jpg","stimuli/WM11_AO.jpg","stimuli/BF06_HO.jpg","pos4","stimuli/BF06_HO.jpg","HO","BF06","3","3","6","8","stimuli/stars_6.png","281","[""DO"",""HE"",""AO"",""HO""]","[""AF02"",""AM06"",""WM11"",""BF06""]","[0,5,5,6]","[2,4,6,8]","","",""
"show-reward","162","344263","0.0-162.0","p9826","A3A8P4UR9A0DWQ","3RDTX9JRTZ7MP6YQMJD0Z3DG4HK978","3X0H8UUIT3UM7KTKTZQ4XYCC89NSW2","emotion","match","uniform","","","","","","","","344045.7000000477","346056.7000000477","","","","","","","","","","","","6","","stimuli/stars_6.png","281","","","","","stimuli/BF06_HO.jpg","",""
"explore-choice","163","347775","0.0-163.0","p9826","A3A8P4UR9A0DWQ","3RDTX9JRTZ7MP6YQMJD0Z3DG4HK978","3X0H8UUIT3UM7KTKTZQ4XYCC89NSW2","emotion","match","uniform","","","","","","","3009.5999999046326","346058.2000000477","349067.7999999523","[""stimuli/WM11_HE.jpg"",""stimuli/BF06_DO.jpg"",""stimuli/AM06_HO.jpg"",""stimuli/AF02_AO.jpg""]","stimuli/WM11_HE.jpg","stimuli/BF06_DO.jpg","stimuli/AM06_HO.jpg","stimuli/AF02_AO.jpg","pos4","stimuli/AF02_AO.jpg","AO","AF02","3","2","4","6","stimuli/stars_4.png","283","[""HE"",""DO"",""HO"",""AO""]","[""WM11"",""BF06"",""AM06"",""AF02""]","[5,4,6,4]","[4,2,8,6]","","",""
"show-reward","164","349779","0.0-164.0","p9826","A3A8P4UR9A0DWQ","3RDTX9JRTZ7MP6YQMJD0Z3DG4HK978","3X0H8UUIT3UM7KTKTZQ4XYCC89NSW2","emotion","match","uniform","","","","","","","","349571.5","351573.90000009537","","","","","","","","","","","","4","","stimuli/stars_4.png","283","","","","","stimuli/AF02_AO.jpg","",""
"explore-choice","165","351189","0.0-165.0","p9826","A3A8P4UR9A0DWQ","3RDTX9JRTZ7MP6YQMJD0Z3DG4HK978","3X0H8UUIT3UM7KTKTZQ4XYCC89NSW2","emotion","match","uniform","","","","","","","904.5999999046326","351575.2000000477","352479.7999999523","[""stimuli/BF06_HO.jpg"",""stimuli/AF02_HE.jpg"",""stimuli/AM06_AO.jpg"",""stimuli/WM11_DO.jpg""]","stimuli/BF06_HO.jpg","stimuli/AF02_HE.jpg","stimuli/AM06_AO.jpg","stimuli/WM11_DO.jpg","pos2","stimuli/AF02_HE.jpg","HE","AF02","1","3","6","4","stimuli/stars_6.png","286","[""HO"",""HE"",""AO"",""DO""]","[""BF06"",""AF02"",""AM06"",""WM11""]","[9,6,7,4]","[8,4,6,2]","","",""
"show-reward","166","353200","0.0-166.0","p9826","A3A8P4UR9A0DWQ","3RDTX9JRTZ7MP6YQMJD0Z3DG4HK978","3X0H8UUIT3UM7KTKTZQ4XYCC89NSW2","emotion","match","uniform","","","","","","","","352984.90000009537","354994.40000009537","","","","","","","","","","","","6","","stimuli/stars_6.png","286","","","","","stimuli/AF02_HE.jpg","",""
"explore-choice","167","355579","0.0-167.0","p9826","A3A8P4UR9A0DWQ","3RDTX9JRTZ7MP6YQMJD0Z3DG4HK978","3X0H8UUIT3UM7KTKTZQ4XYCC89NSW2","emotion","match","uniform","","","","","","","1876.2000000476837","354995.7000000477","356871.90000009537","[""stimuli/WM11_HE.jpg"",""stimuli/AF02_DO.jpg"",""stimuli/AM06_AO.jpg"",""stimuli/BF06_HO.jpg""]","stimuli/WM11_HE.jpg","stimuli/AF02_DO.jpg","stimuli/AM06_AO.jpg","stimuli/BF06_HO.jpg","pos4","stimuli/BF06_HO.jpg","HO","BF06","3","3.5","7","8","stimuli/stars_7.png","289.5","[""HE"",""DO"",""AO"",""HO""]","[""WM11"",""AF02"",""AM06"",""BF06""]","[3,0,5,7]","[4,2,6,8]","","",""
"show-reward","168","357584","0.0-168.0","p9826","A3A8P4UR9A0DWQ","3RDTX9JRTZ7MP6YQMJD0Z3DG4HK978","3X0H8UUIT3UM7KTKTZQ4XYCC89NSW2","emotion","match","uniform","","","","","","","","357375.2999999523","359378.2999999523","","","","","","","","","","","","7","","stimuli/stars_7.png","289.5","","","","","stimuli/BF06_HO.jpg","",""
"explore-choice","169","359352","0.0-169.0","p9826","A3A8P4UR9A0DWQ","3RDTX9JRTZ7MP6YQMJD0Z3DG4HK978","3X0H8UUIT3UM7KTKTZQ4XYCC89NSW2","emotion","match","uniform","","","","","","","1263.8999998569489","359379.7000000477","360643.59999990463","[""stimuli/BF06_HO.jpg"",""stimuli/WM11_DO.jpg"",""stimuli/AM06_HE.jpg"",""stimuli/AF02_AO.jpg""]","stimuli/BF06_HO.jpg","stimuli/WM11_DO.jpg","stimuli/AM06_HE.jpg","stimuli/AF02_AO.jpg","pos1","stimuli/BF06_HO.jpg","HO","BF06","0","3.5","7","8","stimuli/stars_7.png","293","[""HO"",""DO"",""HE"",""AO""]","[""BF06"",""WM11"",""AM06"",""AF02""]","[7,3,2,6]","[8,2,4,6]","","",""
"show-reward","170","361363","0.0-170.0","p9826","A3A8P4UR9A0DWQ","3RDTX9JRTZ7MP6YQMJD0Z3DG4HK978","3X0H8UUIT3UM7KTKTZQ4XYCC89NSW2","emotion","match","uniform","","","","","","","","361148.2000000477","363157.7999999523","","","","","","","","","","","","7","","stimuli/stars_7.png","293","","","","","stimuli/BF06_HO.jpg","",""
"explore-choice","171","362968","0.0-171.0","p9826","A3A8P4UR9A0DWQ","3RDTX9JRTZ7MP6YQMJD0Z3DG4HK978","3X0H8UUIT3UM7KTKTZQ4XYCC89NSW2","emotion","match","uniform","","","","","","","1102.6999998092651","363159.40000009537","364262.09999990463","[""stimuli/AM06_DO.jpg"",""stimuli/BF06_HE.jpg"",""stimuli/AF02_AO.jpg"",""stimuli/WM11_HO.jpg""]","stimuli/AM06_DO.jpg","stimuli/BF06_HE.jpg","stimuli/AF02_AO.jpg","stimuli/WM11_HO.jpg","pos2","stimuli/BF06_HE.jpg","HE","BF06","1","1","2","4","stimuli/stars_2.png","294","[""DO"",""HE"",""AO"",""HO""]","[""AM06"",""BF06"",""AF02"",""WM11""]","[4,2,6,10]","[2,4,6,8]","","",""
"show-reward","172","364972","0.0-172.0","p9826","A3A8P4UR9A0DWQ","3RDTX9JRTZ7MP6YQMJD0Z3DG4HK978","3X0H8UUIT3UM7KTKTZQ4XYCC89NSW2","emotion","match","uniform","","","","","","","","364764.5","366767.2000000477","","","","","","","","","","","","2","","stimuli/stars_2.png","294","","","","","stimuli/BF06_HE.jpg","",""
"explore-choice","173","368393","0.0-173.0","p9826","A3A8P4UR9A0DWQ","3RDTX9JRTZ7MP6YQMJD0Z3DG4HK978","3X0H8UUIT3UM7KTKTZQ4XYCC89NSW2","emotion","match","uniform","","","","","","","2909.4000000953674","366768.59999990463","369678","[""stimuli/WM11_HO.jpg"",""stimuli/AM06_HE.jpg"",""stimuli/AF02_AO.jpg"",""stimuli/BF06_DO.jpg""]","stimuli/WM11_HO.jpg","stimuli/AM06_HE.jpg","stimuli/AF02_AO.jpg","stimuli/BF06_DO.jpg","pos4","stimuli/BF06_DO.jpg","DO","BF06","3","1.5","3","2","stimuli/stars_3.png","295.5","[""HO"",""HE"",""AO"",""DO""]","[""WM11"",""AM06"",""AF02"",""BF06""]","[7,5,7,3]","[8,4,6,2]","","",""
"show-reward","174","370401","0.0-174.0","p9826","A3A8P4UR9A0DWQ","3RDTX9JRTZ7MP6YQMJD0Z3DG4HK978","3X0H8UUIT3UM7KTKTZQ4XYCC89NSW2","emotion","match","uniform","","","","","","","","370189.2999999523","372195.40000009537","","","","","","","","","","","","3","","stimuli/stars_3.png","295.5","","","","","stimuli/BF06_DO.jpg","",""
"explore-choice","175","373863","0.0-175.0","p9826","A3A8P4UR9A0DWQ","3RDTX9JRTZ7MP6YQMJD0Z3DG4HK978","3X0H8UUIT3UM7KTKTZQ4XYCC89NSW2","emotion","match","uniform","","","","","","","2953.7000000476837","372196.7999999523","375150.5","[""stimuli/AF02_HE.jpg"",""stimuli/BF06_HO.jpg"",""stimuli/WM11_AO.jpg"",""stimuli/AM06_DO.jpg""]","stimuli/AF02_HE.jpg","stimuli/BF06_HO.jpg","stimuli/WM11_AO.jpg","stimuli/AM06_DO.jpg","pos1","stimuli/AF02_HE.jpg","HE","AF02","0","1","2","4","stimuli/stars_2.png","296.5","[""HE"",""HO"",""AO"",""DO""]","[""AF02"",""BF06"",""WM11"",""AM06""]","[2,6,8,4]","[4,8,6,2]","","",""
"show-reward","176","375875","0.0-176.0","p9826","A3A8P4UR9A0DWQ","3RDTX9JRTZ7MP6YQMJD0Z3DG4HK978","3X0H8UUIT3UM7KTKTZQ4XYCC89NSW2","emotion","match","uniform","","","","","","","","375659.5","377670.2000000477","","","","","","","","","","","","2","","stimuli/stars_2.png","296.5","","","","","stimuli/AF02_HE.jpg","",""
"explore-choice","177","377566","0.0-177.0","p9826","A3A8P4UR9A0DWQ","3RDTX9JRTZ7MP6YQMJD0Z3DG4HK978","3X0H8UUIT3UM7KTKTZQ4XYCC89NSW2","emotion","match","uniform","","","","","","","1188.8000001907349","377671.59999990463","378860.40000009537","[""stimuli/AM06_AO.jpg"",""stimuli/AF02_HO.jpg"",""stimuli/WM11_HE.jpg"",""stimuli/BF06_DO.jpg""]","stimuli/AM06_AO.jpg","stimuli/AF02_HO.jpg","stimuli/WM11_HE.jpg","stimuli/BF06_DO.jpg","pos2","stimuli/AF02_HO.jpg","HO","AF02","1","3.5","7","8","stimuli/stars_7.png","300","[""AO"",""HO"",""HE"",""DO""]","[""AM06"",""AF02"",""WM11"",""BF06""]","[8,7,4,1]","[6,8,4,2]","","",""
"show-reward","178","379573","0.0-178.0","p9826","A3A8P4UR9A0DWQ","3RDTX9JRTZ7MP6YQMJD0Z3DG4HK978","3X0H8UUIT3UM7KTKTZQ4XYCC89NSW2","emotion","match","uniform","","","","","","","","379362.09999990463","381367.40000009537","","","","","","","","","","","","7","","stimuli/stars_7.png","300","","","","","stimuli/AF02_HO.jpg","",""
"explore-choice","179","381832","0.0-179.0","p9826","A3A8P4UR9A0DWQ","3RDTX9JRTZ7MP6YQMJD0Z3DG4HK978","3X0H8UUIT3UM7KTKTZQ4XYCC89NSW2","emotion","match","uniform","","","","","","","1757.5","381368.7999999523","383126.2999999523","[""stimuli/BF06_HE.jpg"",""stimuli/WM11_AO.jpg"",""stimuli/AM06_DO.jpg"",""stimuli/AF02_HO.jpg""]","stimuli/BF06_HE.jpg","stimuli/WM11_AO.jpg","stimuli/AM06_DO.jpg","stimuli/AF02_HO.jpg","pos1","stimuli/BF06_HE.jpg","HE","BF06","0","3","6","4","stimuli/stars_6.png","303","[""HE"",""AO"",""DO"",""HO""]","[""BF06"",""WM11"",""AM06"",""AF02""]","[6,8,1,6]","[4,6,2,8]","","",""
"show-reward","180","383839","0.0-180.0","p9826","A3A8P4UR9A0DWQ","3RDTX9JRTZ7MP6YQMJD0Z3DG4HK978","3X0H8UUIT3UM7KTKTZQ4XYCC89NSW2","emotion","match","uniform","","","","","","","","383628","385634.2000000477","","","","","","","","","","","","6","","stimuli/stars_6.png","303","","","","","stimuli/BF06_HE.jpg","",""
"explore-choice","181","386334","0.0-181.0","p9826","A3A8P4UR9A0DWQ","3RDTX9JRTZ7MP6YQMJD0Z3DG4HK978","3X0H8UUIT3UM7KTKTZQ4XYCC89NSW2","emotion","match","uniform","","","","","","","1992.2999999523163","385635.40000009537","387627.7000000477","[""stimuli/BF06_HE.jpg"",""stimuli/AM06_HO.jpg"",""stimuli/AF02_DO.jpg"",""stimuli/WM11_AO.jpg""]","stimuli/BF06_HE.jpg","stimuli/AM06_HO.jpg","stimuli/AF02_DO.jpg","stimuli/WM11_AO.jpg","pos1","stimuli/BF06_HE.jpg","HE","BF06","0","3","6","4","stimuli/stars_6.png","306","[""HE"",""HO"",""DO"",""AO""]","[""BF06"",""AM06"",""AF02"",""WM11""]","[6,9,2,4]","[4,8,2,6]","","",""
"show-reward","182","388350","0.0-182.0","p9826","A3A8P4UR9A0DWQ","3RDTX9JRTZ7MP6YQMJD0Z3DG4HK978","3X0H8UUIT3UM7KTKTZQ4XYCC89NSW2","emotion","match","uniform","","","","","","","","388130.2000000477","390144.90000009537","","","","","","","","","","","","6","","stimuli/stars_6.png","306","","","","","stimuli/BF06_HE.jpg","",""
"explore-choice","183","392362","0.0-183.0","p9826","A3A8P4UR9A0DWQ","3RDTX9JRTZ7MP6YQMJD0Z3DG4HK978","3X0H8UUIT3UM7KTKTZQ4XYCC89NSW2","emotion","match","uniform","","","","","","","3508","390146.2999999523","393654.2999999523","[""stimuli/AF02_AO.jpg"",""stimuli/AM06_DO.jpg"",""stimuli/BF06_HO.jpg"",""stimuli/WM11_HE.jpg""]","stimuli/AF02_AO.jpg","stimuli/AM06_DO.jpg","stimuli/BF06_HO.jpg","stimuli/WM11_HE.jpg","pos3","stimuli/BF06_HO.jpg","HO","BF06","2","4","8","8","stimuli/stars_8.png","310","[""AO"",""DO"",""HO"",""HE""]","[""AF02"",""AM06"",""BF06"",""WM11""]","[6,4,8,6]","[6,2,8,4]","","",""
"show-reward","184","394369","0.0-184.0","p9826","A3A8P4UR9A0DWQ","3RDTX9JRTZ7MP6YQMJD0Z3DG4HK978","3X0H8UUIT3UM7KTKTZQ4XYCC89NSW2","emotion","match","uniform","","","","","","","","394157.7000000477","396163.59999990463","","","","","","","","","","","","8","","stimuli/stars_8.png","310","","","","","stimuli/BF06_HO.jpg","",""
"explore-choice","185","396166","0.0-185.0","p9826","A3A8P4UR9A0DWQ","3RDTX9JRTZ7MP6YQMJD0Z3DG4HK978","3X0H8UUIT3UM7KTKTZQ4XYCC89NSW2","emotion","match","uniform","","","","","","","1295.5","396164.90000009537","397460.40000009537","[""stimuli/WM11_DO.jpg"",""stimuli/AF02_HO.jpg"",""stimuli/BF06_AO.jpg"",""stimuli/AM06_HE.jpg""]","stimuli/WM11_DO.jpg","stimuli/AF02_HO.jpg","stimuli/BF06_AO.jpg","stimuli/AM06_HE.jpg","pos2","stimuli/AF02_HO.jpg","HO","AF02","1","5","10","8","stimuli/stars_10.png","315","[""DO"",""HO"",""AO"",""HE""]","[""WM11"",""AF02"",""BF06"",""AM06""]","[2,10,7,3]","[2,8,6,4]","","",""
"show-reward","186","398176","0.0-186.0","p9826","A3A8P4UR9A0DWQ","3RDTX9JRTZ7MP6YQMJD0Z3DG4HK978","3X0H8UUIT3UM7KTKTZQ4XYCC89NSW2","emotion","match","uniform","","","","","","","","397962.09999990463","399970.90000009537","","","","","","","","","","","","10","","stimuli/stars_10.png","315","","","","","stimuli/AF02_HO.jpg","",""
"explore-choice","187","399836","0.0-187.0","p9826","A3A8P4UR9A0DWQ","3RDTX9JRTZ7MP6YQMJD0Z3DG4HK978","3X0H8UUIT3UM7KTKTZQ4XYCC89NSW2","emotion","match","uniform","","","","","","","1151.5","399972.09999990463","401123.59999990463","[""stimuli/AM06_HE.jpg"",""stimuli/WM11_AO.jpg"",""stimuli/BF06_DO.jpg"",""stimuli/AF02_HO.jpg""]","stimuli/AM06_HE.jpg","stimuli/WM11_AO.jpg","stimuli/BF06_DO.jpg","stimuli/AF02_HO.jpg","pos1","stimuli/AM06_HE.jpg","HE","AM06","0","3","6","4","stimuli/stars_6.png","318","[""HE"",""AO"",""DO"",""HO""]","[""AM06"",""WM11"",""BF06"",""AF02""]","[6,4,1,7]","[4,6,2,8]","","",""
"show-reward","188","401841","0.0-188.0","p9826","A3A8P4UR9A0DWQ","3RDTX9JRTZ7MP6YQMJD0Z3DG4HK978","3X0H8UUIT3UM7KTKTZQ4XYCC89NSW2","emotion","match","uniform","","","","","","","","401632.40000009537","403635.90000009537","","","","","","","","","","","","6","","stimuli/stars_6.png","318","","","","","stimuli/AM06_HE.jpg","",""
"explore-choice","189","404025","0.0-189.0","p9826","A3A8P4UR9A0DWQ","3RDTX9JRTZ7MP6YQMJD0Z3DG4HK978","3X0H8UUIT3UM7KTKTZQ4XYCC89NSW2","emotion","match","uniform","","","","","","","1675.2000000476837","403637.2000000477","405312.40000009537","[""stimuli/AM06_HE.jpg"",""stimuli/WM11_HO.jpg"",""stimuli/BF06_AO.jpg"",""stimuli/AF02_DO.jpg""]","stimuli/AM06_HE.jpg","stimuli/WM11_HO.jpg","stimuli/BF06_AO.jpg","stimuli/AF02_DO.jpg","pos2","stimuli/WM11_HO.jpg","HO","WM11","1","4","8","8","stimuli/stars_8.png","322","[""HE"",""HO"",""AO"",""DO""]","[""AM06"",""WM11"",""BF06"",""AF02""]","[4,8,6,1]","[4,8,6,2]","","",""
"show-reward","190","406037","0.0-190.0","p9826","A3A8P4UR9A0DWQ","3RDTX9JRTZ7MP6YQMJD0Z3DG4HK978","3X0H8UUIT3UM7KTKTZQ4XYCC89NSW2","emotion","match","uniform","","","","","","","","405820.7000000477","407831.59999990463","","","","","","","","","","","","8","","stimuli/stars_8.png","322","","","","","stimuli/WM11_HO.jpg","",""
"explore-choice","191","407654","0.0-191.0","p9826","A3A8P4UR9A0DWQ","3RDTX9JRTZ7MP6YQMJD0Z3DG4HK978","3X0H8UUIT3UM7KTKTZQ4XYCC89NSW2","emotion","match","uniform","","","","","","","1102.6999998092651","407832.90000009537","408935.59999990463","[""stimuli/AF02_AO.jpg"",""stimuli/BF06_HE.jpg"",""stimuli/WM11_DO.jpg"",""stimuli/AM06_HO.jpg""]","stimuli/AF02_AO.jpg","stimuli/BF06_HE.jpg","stimuli/WM11_DO.jpg","stimuli/AM06_HO.jpg","pos2","stimuli/BF06_HE.jpg","HE","BF06","1","3","6","4","stimuli/stars_6.png","325","[""AO"",""HE"",""DO"",""HO""]","[""AF02"",""BF06"",""WM11"",""AM06""]","[5,6,4,6]","[6,4,2,8]","","",""
"show-reward","192","409659","0.0-192.0","p9826","A3A8P4UR9A0DWQ","3RDTX9JRTZ7MP6YQMJD0Z3DG4HK978","3X0H8UUIT3UM7KTKTZQ4XYCC89NSW2","emotion","match","uniform","","","","","","","","409446.09999990463","411449.2000000477","","","","","","","","","","","","6","","stimuli/stars_6.png","325","","","","","stimuli/BF06_HE.jpg","",""
"explore-choice","193","411616","0.0-193.0","p9826","A3A8P4UR9A0DWQ","3RDTX9JRTZ7MP6YQMJD0Z3DG4HK978","3X0H8UUIT3UM7KTKTZQ4XYCC89NSW2","emotion","match","uniform","","","","","","","1453.5999999046326","411450.40000009537","412904","[""stimuli/WM11_HE.jpg"",""stimuli/AF02_DO.jpg"",""stimuli/AM06_HO.jpg"",""stimuli/BF06_AO.jpg""]","stimuli/WM11_HE.jpg","stimuli/AF02_DO.jpg","stimuli/AM06_HO.jpg","stimuli/BF06_AO.jpg","pos1","stimuli/WM11_HE.jpg","HE","WM11","0","2","4","4","stimuli/stars_4.png","327","[""HE"",""DO"",""HO"",""AO""]","[""WM11"",""AF02"",""AM06"",""BF06""]","[4,2,10,7]","[4,2,8,6]","","",""
"show-reward","194","413623","0.0-194.0","p9826","A3A8P4UR9A0DWQ","3RDTX9JRTZ7MP6YQMJD0Z3DG4HK978","3X0H8UUIT3UM7KTKTZQ4XYCC89NSW2","emotion","match","uniform","","","","","","","","413408","415413.5","","","","","","","","","","","","4","","stimuli/stars_4.png","327","","","","","stimuli/WM11_HE.jpg","",""
"explore-choice","195","414961","0.0-195.0","p9826","A3A8P4UR9A0DWQ","3RDTX9JRTZ7MP6YQMJD0Z3DG4HK978","3X0H8UUIT3UM7KTKTZQ4XYCC89NSW2","emotion","match","uniform","","","","","","","833.6000001430511","415414.7999999523","416248.40000009537","[""stimuli/WM11_DO.jpg"",""stimuli/BF06_HE.jpg"",""stimuli/AM06_AO.jpg"",""stimuli/AF02_HO.jpg""]","stimuli/WM11_DO.jpg","stimuli/BF06_HE.jpg","stimuli/AM06_AO.jpg","stimuli/AF02_HO.jpg","pos4","stimuli/AF02_HO.jpg","HO","AF02","3","4.5","9","8","stimuli/stars_9.png","331.5","[""DO"",""HE"",""AO"",""HO""]","[""WM11"",""BF06"",""AM06"",""AF02""]","[0,4,6,9]","[2,4,6,8]","","",""
"show-reward","196","416970","0.0-196.0","p9826","A3A8P4UR9A0DWQ","3RDTX9JRTZ7MP6YQMJD0Z3DG4HK978","3X0H8UUIT3UM7KTKTZQ4XYCC89NSW2","emotion","match","uniform","","","","","","","","416752","418760.7999999523","","","","","","","","","","","","9","","stimuli/stars_9.png","331.5","","","","","stimuli/AF02_HO.jpg","",""
"explore-choice","197","418972","0.0-197.0","p9826","A3A8P4UR9A0DWQ","3RDTX9JRTZ7MP6YQMJD0Z3DG4HK978","3X0H8UUIT3UM7KTKTZQ4XYCC89NSW2","emotion","match","uniform","","","","","","","1500.2000000476837","418761.7000000477","420261.90000009537","[""stimuli/WM11_HO.jpg"",""stimuli/AM06_AO.jpg"",""stimuli/AF02_HE.jpg"",""stimuli/BF06_DO.jpg""]","stimuli/WM11_HO.jpg","stimuli/AM06_AO.jpg","stimuli/AF02_HE.jpg","stimuli/BF06_DO.jpg","pos3","stimuli/AF02_HE.jpg","HE","AF02","2","1.5","3","4","stimuli/stars_3.png","333","[""HO"",""AO"",""HE"",""DO""]","[""WM11"",""AM06"",""AF02"",""BF06""]","[10,8,3,1]","[8,6,4,2]","","",""
"show-reward","198","420981","0.0-198.0","p9826","A3A8P4UR9A0DWQ","3RDTX9JRTZ7MP6YQMJD0Z3DG4HK978","3X0H8UUIT3UM7KTKTZQ4XYCC89NSW2","emotion","match","uniform","","","","","","","","420763.90000009537","422771.90000009537","","","","","","","","","","","","3","","stimuli/stars_3.png","333","","","","","stimuli/AF02_HE.jpg","",""
"instructions","199","424540","0.0-199.0","p9826","A3A8P4UR9A0DWQ","3RDTX9JRTZ7MP6YQMJD0Z3DG4HK978","3X0H8UUIT3UM7KTKTZQ4XYCC89NSW2","emotion","match","uniform","","","","","","[{""page_index"":0,""viewing_time"":3556.5}]","3557.2000000476837","","","","","","","","","","","","","","","","","","","","","","","",""
"survey-text","200","427419","0.0-200.0-0.0","p9826","A3A8P4UR9A0DWQ","3RDTX9JRTZ7MP6YQMJD0Z3DG4HK978","3X0H8UUIT3UM7KTKTZQ4XYCC89NSW2","emotion","match","uniform","","","","","","","2876.2999999523163","","","","","","","","","","","","","","","","","","","","","","","{""age"":""46""}",""
"survey-text","201","431747","0.0-200.0-1.0","p9826","A3A8P4UR9A0DWQ","3RDTX9JRTZ7MP6YQMJD0Z3DG4HK978","3X0H8UUIT3UM7KTKTZQ4XYCC89NSW2","emotion","match","uniform","","","","","","","4325.299999952316","","","","","","","","","","","","","","","","","","","","","","","{""gender"":""female""}",""
"survey-text","202","436773","0.0-200.0-2.0","p9826","A3A8P4UR9A0DWQ","3RDTX9JRTZ7MP6YQMJD0Z3DG4HK978","3X0H8UUIT3UM7KTKTZQ4XYCC89NSW2","emotion","match","uniform","","","","","","","5023.799999952316","","","","","","","","","","","","","","","","","","","","","","","{""country"":""United States""}",""
"survey-text","203","443731","0.0-200.0-3.0","p9826","A3A8P4UR9A0DWQ","3RDTX9JRTZ7MP6YQMJD0Z3DG4HK978","3X0H8UUIT3UM7KTKTZQ4XYCC89NSW2","emotion","match","uniform","","","","","","","6955.799999952316","","","","","","","","","","","","","","","","","","","","","","","{""language"":""English"",""other_languages"":""""}",""
"survey-multi-select","204","446173","0.0-201.0","p9826","A3A8P4UR9A0DWQ","3RDTX9JRTZ7MP6YQMJD0Z3DG4HK978","3X0H8UUIT3UM7KTKTZQ4XYCC89NSW2","emotion","match","uniform","","","","","","","2438.7000000476837","","","","","","","","","","","","","","","","","","","","","","","{""race"":[""White""]}","[0]"
"survey-multi-choice","205","449156","0.0-202.0","p9826","A3A8P4UR9A0DWQ","3RDTX9JRTZ7MP6YQMJD0Z3DG4HK978","3X0H8UUIT3UM7KTKTZQ4XYCC89NSW2","emotion","match","uniform","","","","","","","2981.0999999046326","","","","","","","","","","","","","","","","","","","","","","","{""education"":""Bachelor's degree""}","[0]"
"survey-text","206","473143","0.0-203.0","p9826","A3A8P4UR9A0DWQ","3RDTX9JRTZ7MP6YQMJD0Z3DG4HK978","3X0H8UUIT3UM7KTKTZQ4XYCC89NSW2","emotion","match","uniform","","","","","","","23986.900000095367","","","","","","","","","","","","","","","","","","","","","","","{""patterns"":""none"",""strategy"":""Tried to remember what gave the highest scores"",""comments"":""""}",""
