"trial_type","trial_index","time_elapsed","internal_node_id","subject","workerId","hitId","assignmentId","structure_condition","match_condition","noise_type","success","timeout","failed_images","failed_audio","failed_video","view_history","rt","start_time","end_time","stimuli","image1","image2","image3","image4","choiceLocation","choiceImage","choiceEmotion","choiceModel","choice_index","reward_score","reward","reward_score_unadjusted","reward_image","score_after_trial","emotions","models","rewards","rewards_unadjusted","stimulus","response","question_order"
"pavlovia","0","6","0.0-0.0","p439909","A11F3MA5FWH6SJ","3OWZNK3RYMVDNXPNEIRWZ8JM6MU2UY","31T4R4OBOUMRAO3NO5SSQD9DTD27CR","model","match","uniform","","","","","","","","","","","","","","","","","","","","","","","","","","","","","","",""
"preload","1","4907","0.0-1.0","p439909","A11F3MA5FWH6SJ","3OWZNK3RYMVDNXPNEIRWZ8JM6MU2UY","31T4R4OBOUMRAO3NO5SSQD9DTD27CR","model","match","uniform","true","false","[]","[]","[]","","","","","","","","","","","","","","","","","","","","","","","","","",""
"fullscreen","2","581708","0.0-2.0","p439909","A11F3MA5FWH6SJ","3OWZNK3RYMVDNXPNEIRWZ8JM6MU2UY","31T4R4OBOUMRAO3NO5SSQD9DTD27CR","model","match","uniform","true","","","","","","","","","","","","","","","","","","","","","","","","","","","","","",""
"instructions","3","582807","0.0-3.0","p439909","A11F3MA5FWH6SJ","3OWZNK3RYMVDNXPNEIRWZ8JM6MU2UY","31T4R4OBOUMRAO3NO5SSQD9DTD27CR","model","match","uniform","","","","","","[{""page_index"":0,""viewing_time"":1098.3999999910593}]","1098.5","","","","","","","","","","","","","","","","","","","","","","","",""
"explore-choice","4","585516","0.0-4.0","p439909","A11F3MA5FWH6SJ","3OWZNK3RYMVDNXPNEIRWZ8JM6MU2UY","31T4R4OBOUMRAO3NO5SSQD9DTD27CR","model","match","uniform","","","","","","","2207.3999999910593","584081.6000000089","586289","[""stimuli/sheep.jpg"",""stimuli/hammer.jpg"",""stimuli/basketball.jpg"",""stimuli/horse.jpg""]","stimuli/sheep.jpg","stimuli/hammer.jpg","stimuli/basketball.jpg","stimuli/horse.jpg","pos4","stimuli/horse.jpg","","","3","64","64","64","stimuli/stars_8.png","65","","","","","","",""
"explore-choice","5","586796","0.0-5.0","p439909","A11F3MA5FWH6SJ","3OWZNK3RYMVDNXPNEIRWZ8JM6MU2UY","31T4R4OBOUMRAO3NO5SSQD9DTD27CR","model","match","uniform","","","","","","","778.7999999970198","586790.1000000089","587568.900000006","[""stimuli/hammer.jpg"",""stimuli/basketball.jpg"",""stimuli/horse.jpg"",""stimuli/sheep.jpg""]","stimuli/hammer.jpg","stimuli/basketball.jpg","stimuli/horse.jpg","stimuli/sheep.jpg","pos1","stimuli/hammer.jpg","","","0","8","8","8","stimuli/stars_2.png","9","","","","","","",""
"instructions","6","596847","0.0-6.0","p439909","A11F3MA5FWH6SJ","3OWZNK3RYMVDNXPNEIRWZ8JM6MU2UY","31T4R4OBOUMRAO3NO5SSQD9DTD27CR","model","match","uniform","","","","","","[{""page_index"":0,""viewing_time"":10050.79999999702}]","10050.90000000596","","","","","","","","","","","","","","","","","","","","","","","",""
"explore-choice","7","598775","0.0-7.0","p439909","A11F3MA5FWH6SJ","3OWZNK3RYMVDNXPNEIRWZ8JM6MU2UY","31T4R4OBOUMRAO3NO5SSQD9DTD27CR","model","match","uniform","","","","","","","1415.5","598121.400000006","599536.900000006","[""stimuli/HF09_DO.jpg"",""stimuli/HM07_HE.jpg"",""stimuli/AM03_CC.jpg"",""stimuli/BM07_HO.jpg""]","stimuli/HF09_DO.jpg","stimuli/HM07_HE.jpg","stimuli/AM03_CC.jpg","stimuli/BM07_HO.jpg","pos1","stimuli/HF09_DO.jpg","DO","HF09","0","1","2","2","stimuli/stars_2.png","2","[""DO"",""HE"",""CC"",""HO""]","[""HF09"",""HM07"",""AM03"",""BM07""]","[2,2,10,6]","[2,4,8,6]","","",""
"show-reward","8","600778","0.0-8.0","p439909","A11F3MA5FWH6SJ","3OWZNK3RYMVDNXPNEIRWZ8JM6MU2UY","31T4R4OBOUMRAO3NO5SSQD9DTD27CR","model","match","uniform","","","","","","","","600049.6000000089","602051.700000003","","","","","","","","","","","","2","","stimuli/stars_2.png","2","","","","","stimuli/HF09_DO.jpg","",""
"explore-choice","9","603470","0.0-9.0","p439909","A11F3MA5FWH6SJ","3OWZNK3RYMVDNXPNEIRWZ8JM6MU2UY","31T4R4OBOUMRAO3NO5SSQD9DTD27CR","model","match","uniform","","","","","","","2180.6000000089407","602052.200000003","604232.8000000119","[""stimuli/AM03_DO.jpg"",""stimuli/BM07_CC.jpg"",""stimuli/HF09_HO.jpg"",""stimuli/HM07_HE.jpg""]","stimuli/AM03_DO.jpg","stimuli/BM07_CC.jpg","stimuli/HF09_HO.jpg","stimuli/HM07_HE.jpg","pos1","stimuli/AM03_DO.jpg","DO","AM03","0","4.5","9","8","stimuli/stars_9.png","6.5","[""DO"",""CC"",""HO"",""HE""]","[""AM03"",""BM07"",""HF09"",""HM07""]","[9,4,3,2]","[8,6,2,4]","","",""
"show-reward","10","605473","0.0-10.0","p439909","A11F3MA5FWH6SJ","3OWZNK3RYMVDNXPNEIRWZ8JM6MU2UY","31T4R4OBOUMRAO3NO5SSQD9DTD27CR","model","match","uniform","","","","","","","","604744.200000003","606746.700000003","","","","","","","","","","","","9","","stimuli/stars_9.png","6.5","","","","","stimuli/AM03_DO.jpg","",""
"explore-choice","11","607260","0.0-11.0","p439909","A11F3MA5FWH6SJ","3OWZNK3RYMVDNXPNEIRWZ8JM6MU2UY","31T4R4OBOUMRAO3NO5SSQD9DTD27CR","model","match","uniform","","","","","","","1285.7999999970198","606747.200000003","608033","[""stimuli/BM07_HE.jpg"",""stimuli/HM07_CC.jpg"",""stimuli/HF09_HO.jpg"",""stimuli/AM03_DO.jpg""]","stimuli/BM07_HE.jpg","stimuli/HM07_CC.jpg","stimuli/HF09_HO.jpg","stimuli/AM03_DO.jpg","pos4","stimuli/AM03_DO.jpg","DO","AM03","3","4","8","8","stimuli/stars_8.png","10.5","[""HE"",""CC"",""HO"",""DO""]","[""BM07"",""HM07"",""HF09"",""AM03""]","[8,4,4,8]","[6,4,2,8]","","",""
"show-reward","12","609262","0.0-12.0","p439909","A11F3MA5FWH6SJ","3OWZNK3RYMVDNXPNEIRWZ8JM6MU2UY","31T4R4OBOUMRAO3NO5SSQD9DTD27CR","model","match","uniform","","","","","","","","608533.8000000119","610535.8000000119","","","","","","","","","","","","8","","stimuli/stars_8.png","10.5","","","","","stimuli/AM03_DO.jpg","",""
"explore-choice","13","612240","0.0-13.0","p439909","A11F3MA5FWH6SJ","3OWZNK3RYMVDNXPNEIRWZ8JM6MU2UY","31T4R4OBOUMRAO3NO5SSQD9DTD27CR","model","match","uniform","","","","","","","2472.5999999940395","610536.3000000119","613008.900000006","[""stimuli/HF09_HE.jpg"",""stimuli/BM07_DO.jpg"",""stimuli/AM03_CC.jpg"",""stimuli/HM07_HO.jpg""]","stimuli/HF09_HE.jpg","stimuli/BM07_DO.jpg","stimuli/AM03_CC.jpg","stimuli/HM07_HO.jpg","pos3","stimuli/AM03_CC.jpg","CC","AM03","2","5","10","8","stimuli/stars_10.png","15.5","[""HE"",""DO"",""CC"",""HO""]","[""HF09"",""BM07"",""AM03"",""HM07""]","[1,4,10,6]","[2,6,8,4]","","",""
"show-reward","14","614248","0.0-14.0","p439909","A11F3MA5FWH6SJ","3OWZNK3RYMVDNXPNEIRWZ8JM6MU2UY","31T4R4OBOUMRAO3NO5SSQD9DTD27CR","model","match","uniform","","","","","","","","613514.200000003","615521.8000000119","","","","","","","","","","","","10","","stimuli/stars_10.png","15.5","","","","","stimuli/AM03_CC.jpg","",""
"explore-choice","15","615509","0.0-15.0","p439909","A11F3MA5FWH6SJ","3OWZNK3RYMVDNXPNEIRWZ8JM6MU2UY","31T4R4OBOUMRAO3NO5SSQD9DTD27CR","model","match","uniform","","","","","","","750.6999999880791","615522.3000000119","616273","[""stimuli/HM07_CC.jpg"",""stimuli/HF09_HO.jpg"",""stimuli/AM03_HE.jpg"",""stimuli/BM07_DO.jpg""]","stimuli/HM07_CC.jpg","stimuli/HF09_HO.jpg","stimuli/AM03_HE.jpg","stimuli/BM07_DO.jpg","pos3","stimuli/AM03_HE.jpg","HE","AM03","2","3","6","8","stimuli/stars_6.png","18.5","[""CC"",""HO"",""HE"",""DO""]","[""HM07"",""HF09"",""AM03"",""BM07""]","[3,4,6,7]","[4,2,8,6]","","",""
"show-reward","16","617512","0.0-16.0","p439909","A11F3MA5FWH6SJ","3OWZNK3RYMVDNXPNEIRWZ8JM6MU2UY","31T4R4OBOUMRAO3NO5SSQD9DTD27CR","model","match","uniform","","","","","","","","616783.200000003","618785.900000006","","","","","","","","","","","","6","","stimuli/stars_6.png","18.5","","","","","stimuli/AM03_HE.jpg","",""
"explore-choice","17","619486","0.0-17.0","p439909","A11F3MA5FWH6SJ","3OWZNK3RYMVDNXPNEIRWZ8JM6MU2UY","31T4R4OBOUMRAO3NO5SSQD9DTD27CR","model","match","uniform","","","","","","","1462.3999999910593","618786.6000000089","620249","[""stimuli/AM03_HO.jpg"",""stimuli/HM07_CC.jpg"",""stimuli/BM07_DO.jpg"",""stimuli/HF09_HE.jpg""]","stimuli/AM03_HO.jpg","stimuli/HM07_CC.jpg","stimuli/BM07_DO.jpg","stimuli/HF09_HE.jpg","pos2","stimuli/HM07_CC.jpg","CC","HM07","1","2.5","5","4","stimuli/stars_5.png","21","[""HO"",""CC"",""DO"",""HE""]","[""AM03"",""HM07"",""BM07"",""HF09""]","[9,5,5,3]","[8,4,6,2]","","",""
"show-reward","18","621487","0.0-18.0","p439909","A11F3MA5FWH6SJ","3OWZNK3RYMVDNXPNEIRWZ8JM6MU2UY","31T4R4OBOUMRAO3NO5SSQD9DTD27CR","model","match","uniform","","","","","","","","620760.1000000089","622761","","","","","","","","","","","","5","","stimuli/stars_5.png","21","","","","","stimuli/HM07_CC.jpg","",""
"explore-choice","19","624608","0.0-19.0","p439909","A11F3MA5FWH6SJ","3OWZNK3RYMVDNXPNEIRWZ8JM6MU2UY","31T4R4OBOUMRAO3NO5SSQD9DTD27CR","model","match","uniform","","","","","","","2607.3999999910593","622761.6000000089","625369","[""stimuli/AM03_CC.jpg"",""stimuli/HM07_HO.jpg"",""stimuli/HF09_DO.jpg"",""stimuli/BM07_HE.jpg""]","stimuli/AM03_CC.jpg","stimuli/HM07_HO.jpg","stimuli/HF09_DO.jpg","stimuli/BM07_HE.jpg","pos1","stimuli/AM03_CC.jpg","CC","AM03","0","3","6","8","stimuli/stars_6.png","24","[""CC"",""HO"",""DO"",""HE""]","[""AM03"",""HM07"",""HF09"",""BM07""]","[6,3,4,6]","[8,4,2,6]","","",""
"show-reward","20","626611","0.0-20.0","p439909","A11F3MA5FWH6SJ","3OWZNK3RYMVDNXPNEIRWZ8JM6MU2UY","31T4R4OBOUMRAO3NO5SSQD9DTD27CR","model","match","uniform","","","","","","","","625882.200000003","627884.5","","","","","","","","","","","","6","","stimuli/stars_6.png","24","","","","","stimuli/AM03_CC.jpg","",""
"explore-choice","21","628188","0.0-21.0","p439909","A11F3MA5FWH6SJ","3OWZNK3RYMVDNXPNEIRWZ8JM6MU2UY","31T4R4OBOUMRAO3NO5SSQD9DTD27CR","model","match","uniform","","","","","","","1068.300000011921","627885","628953.3000000119","[""stimuli/HF09_HE.jpg"",""stimuli/BM07_HO.jpg"",""stimuli/AM03_DO.jpg"",""stimuli/HM07_CC.jpg""]","stimuli/HF09_HE.jpg","stimuli/BM07_HO.jpg","stimuli/AM03_DO.jpg","stimuli/HM07_CC.jpg","pos3","stimuli/AM03_DO.jpg","DO","AM03","2","4","8","8","stimuli/stars_8.png","28","[""HE"",""HO"",""DO"",""CC""]","[""HF09"",""BM07"",""AM03"",""HM07""]","[0,7,8,3]","[2,6,8,4]","","",""
"show-reward","22","630190","0.0-22.0","p439909","A11F3MA5FWH6SJ","3OWZNK3RYMVDNXPNEIRWZ8JM6MU2UY","31T4R4OBOUMRAO3NO5SSQD9DTD27CR","model","match","uniform","","","","","","","","629462.6000000089","631464.200000003","","","","","","","","","","","","8","","stimuli/stars_8.png","28","","","","","stimuli/AM03_DO.jpg","",""
"explore-choice","23","632207","0.0-23.0","p439909","A11F3MA5FWH6SJ","3OWZNK3RYMVDNXPNEIRWZ8JM6MU2UY","31T4R4OBOUMRAO3NO5SSQD9DTD27CR","model","match","uniform","","","","","","","1504.3999999910593","631464.6000000089","632969","[""stimuli/HF09_CC.jpg"",""stimuli/BM07_HO.jpg"",""stimuli/AM03_HE.jpg"",""stimuli/HM07_DO.jpg""]","stimuli/HF09_CC.jpg","stimuli/BM07_HO.jpg","stimuli/AM03_HE.jpg","stimuli/HM07_DO.jpg","pos4","stimuli/HM07_DO.jpg","DO","HM07","3","3","6","4","stimuli/stars_6.png","31","[""CC"",""HO"",""HE"",""DO""]","[""HF09"",""BM07"",""AM03"",""HM07""]","[1,7,6,6]","[2,6,8,4]","","",""
"show-reward","24","634209","0.0-24.0","p439909","A11F3MA5FWH6SJ","3OWZNK3RYMVDNXPNEIRWZ8JM6MU2UY","31T4R4OBOUMRAO3NO5SSQD9DTD27CR","model","match","uniform","","","","","","","","633481.6000000089","635483.200000003","","","","","","","","","","","","6","","stimuli/stars_6.png","31","","","","","stimuli/HM07_DO.jpg","",""
"explore-choice","25","635581","0.0-25.0","p439909","A11F3MA5FWH6SJ","3OWZNK3RYMVDNXPNEIRWZ8JM6MU2UY","31T4R4OBOUMRAO3NO5SSQD9DTD27CR","model","match","uniform","","","","","","","861.5","635483.6000000089","636345.1000000089","[""stimuli/AM03_DO.jpg"",""stimuli/BM07_HO.jpg"",""stimuli/HF09_CC.jpg"",""stimuli/HM07_HE.jpg""]","stimuli/AM03_DO.jpg","stimuli/BM07_HO.jpg","stimuli/HF09_CC.jpg","stimuli/HM07_HE.jpg","pos1","stimuli/AM03_DO.jpg","DO","AM03","0","5","10","8","stimuli/stars_10.png","36","[""DO"",""HO"",""CC"",""HE""]","[""AM03"",""BM07"",""HF09"",""HM07""]","[10,4,4,6]","[8,6,2,4]","","",""
"show-reward","26","637583","0.0-26.0","p439909","A11F3MA5FWH6SJ","3OWZNK3RYMVDNXPNEIRWZ8JM6MU2UY","31T4R4OBOUMRAO3NO5SSQD9DTD27CR","model","match","uniform","","","","","","","","636855.5","638856.900000006","","","","","","","","","","","","10","","stimuli/stars_10.png","36","","","","","stimuli/AM03_DO.jpg","",""
"explore-choice","27","640015","0.0-27.0","p439909","A11F3MA5FWH6SJ","3OWZNK3RYMVDNXPNEIRWZ8JM6MU2UY","31T4R4OBOUMRAO3NO5SSQD9DTD27CR","model","match","uniform","","","","","","","1927.8999999910593","638857.3000000119","640785.200000003","[""stimuli/BM07_HO.jpg"",""stimuli/AM03_HE.jpg"",""stimuli/HM07_CC.jpg"",""stimuli/HF09_DO.jpg""]","stimuli/BM07_HO.jpg","stimuli/AM03_HE.jpg","stimuli/HM07_CC.jpg","stimuli/HF09_DO.jpg","pos1","stimuli/BM07_HO.jpg","HO","BM07","0","3.5","7","6","stimuli/stars_7.png","39.5","[""HO"",""HE"",""CC"",""DO""]","[""BM07"",""AM03"",""HM07"",""HF09""]","[7,6,6,0]","[6,8,4,2]","","",""
"show-reward","28","642022","0.0-28.0","p439909","A11F3MA5FWH6SJ","3OWZNK3RYMVDNXPNEIRWZ8JM6MU2UY","31T4R4OBOUMRAO3NO5SSQD9DTD27CR","model","match","uniform","","","","","","","","641293.700000003","643299.8000000119","","","","","","","","","","","","7","","stimuli/stars_7.png","39.5","","","","","stimuli/BM07_HO.jpg","",""
"explore-choice","29","644552","0.0-29.0","p439909","A11F3MA5FWH6SJ","3OWZNK3RYMVDNXPNEIRWZ8JM6MU2UY","31T4R4OBOUMRAO3NO5SSQD9DTD27CR","model","match","uniform","","","","","","","2028.7999999970198","643300.200000003","645329","[""stimuli/BM07_CC.jpg"",""stimuli/HF09_HE.jpg"",""stimuli/AM03_HO.jpg"",""stimuli/HM07_DO.jpg""]","stimuli/BM07_CC.jpg","stimuli/HF09_HE.jpg","stimuli/AM03_HO.jpg","stimuli/HM07_DO.jpg","pos1","stimuli/BM07_CC.jpg","CC","BM07","0","3.5","7","6","stimuli/stars_7.png","43","[""CC"",""HE"",""HO"",""DO""]","[""BM07"",""HF09"",""AM03"",""HM07""]","[7,0,8,3]","[6,2,8,4]","","",""
"show-reward","30","646558","0.0-30.0","p439909","A11F3MA5FWH6SJ","3OWZNK3RYMVDNXPNEIRWZ8JM6MU2UY","31T4R4OBOUMRAO3NO5SSQD9DTD27CR","model","match","uniform","","","","","","","","645829.900000006","647836","","","","","","","","","","","","7","","stimuli/stars_7.png","43","","","","","stimuli/BM07_CC.jpg","",""
"explore-choice","31","649190","0.0-31.0","p439909","A11F3MA5FWH6SJ","3OWZNK3RYMVDNXPNEIRWZ8JM6MU2UY","31T4R4OBOUMRAO3NO5SSQD9DTD27CR","model","match","uniform","","","","","","","2124.5","647836.5","649961","[""stimuli/AM03_CC.jpg"",""stimuli/BM07_DO.jpg"",""stimuli/HF09_HO.jpg"",""stimuli/HM07_HE.jpg""]","stimuli/AM03_CC.jpg","stimuli/BM07_DO.jpg","stimuli/HF09_HO.jpg","stimuli/HM07_HE.jpg","pos2","stimuli/BM07_DO.jpg","DO","BM07","1","3","6","6","stimuli/stars_6.png","46","[""CC"",""DO"",""HO"",""HE""]","[""AM03"",""BM07"",""HF09"",""HM07""]","[7,6,3,5]","[8,6,2,4]","","",""
"show-reward","32","651191","0.0-32.0","p439909","A11F3MA5FWH6SJ","3OWZNK3RYMVDNXPNEIRWZ8JM6MU2UY","31T4R4OBOUMRAO3NO5SSQD9DTD27CR","model","match","uniform","","","","","","","","650467.8000000119","652468.700000003","","","","","","","","","","","","6","","stimuli/stars_6.png","46","","","","","stimuli/BM07_DO.jpg","",""
"explore-choice","33","653827","0.0-33.0","p439909","A11F3MA5FWH6SJ","3OWZNK3RYMVDNXPNEIRWZ8JM6MU2UY","31T4R4OBOUMRAO3NO5SSQD9DTD27CR","model","match","uniform","","","","","","","2131.7000000029802","652469.200000003","654600.900000006","[""stimuli/HF09_CC.jpg"",""stimuli/BM07_DO.jpg"",""stimuli/HM07_HE.jpg"",""stimuli/AM03_HO.jpg""]","stimuli/HF09_CC.jpg","stimuli/BM07_DO.jpg","stimuli/HM07_HE.jpg","stimuli/AM03_HO.jpg","pos1","stimuli/HF09_CC.jpg","CC","HF09","0","0.5","1","2","stimuli/stars_1.png","46.5","[""CC"",""DO"",""HE"",""HO""]","[""HF09"",""BM07"",""HM07"",""AM03""]","[1,8,4,10]","[2,6,4,8]","","",""
"show-reward","34","655830","0.0-34.0","p439909","A11F3MA5FWH6SJ","3OWZNK3RYMVDNXPNEIRWZ8JM6MU2UY","31T4R4OBOUMRAO3NO5SSQD9DTD27CR","model","match","uniform","","","","","","","","655105.1000000089","657107.5","","","","","","","","","","","","1","","stimuli/stars_1.png","46.5","","","","","stimuli/HF09_CC.jpg","",""
"explore-choice","35","660007","0.0-35.0","p439909","A11F3MA5FWH6SJ","3OWZNK3RYMVDNXPNEIRWZ8JM6MU2UY","31T4R4OBOUMRAO3NO5SSQD9DTD27CR","model","match","uniform","","","","","","","3669.2000000029802","657107.900000006","660777.1000000089","[""stimuli/BM07_HE.jpg"",""stimuli/HF09_DO.jpg"",""stimuli/HM07_CC.jpg"",""stimuli/AM03_HO.jpg""]","stimuli/BM07_HE.jpg","stimuli/HF09_DO.jpg","stimuli/HM07_CC.jpg","stimuli/AM03_HO.jpg","pos1","stimuli/BM07_HE.jpg","HE","BM07","0","3","6","6","stimuli/stars_6.png","49.5","[""HE"",""DO"",""CC"",""HO""]","[""BM07"",""HF09"",""HM07"",""AM03""]","[6,4,3,6]","[6,2,4,8]","","",""
"show-reward","36","662009","0.0-36.0","p439909","A11F3MA5FWH6SJ","3OWZNK3RYMVDNXPNEIRWZ8JM6MU2UY","31T4R4OBOUMRAO3NO5SSQD9DTD27CR","model","match","uniform","","","","","","","","661284.900000006","663286.700000003","","","","","","","","","","","","6","","stimuli/stars_6.png","49.5","","","","","stimuli/BM07_HE.jpg","",""
"explore-choice","37","665026","0.0-37.0","p439909","A11F3MA5FWH6SJ","3OWZNK3RYMVDNXPNEIRWZ8JM6MU2UY","31T4R4OBOUMRAO3NO5SSQD9DTD27CR","model","match","uniform","","","","","","","2513.7000000029802","663287.200000003","665800.900000006","[""stimuli/HF09_HO.jpg"",""stimuli/AM03_CC.jpg"",""stimuli/BM07_HE.jpg"",""stimuli/HM07_DO.jpg""]","stimuli/HF09_HO.jpg","stimuli/AM03_CC.jpg","stimuli/BM07_HE.jpg","stimuli/HM07_DO.jpg","pos2","stimuli/AM03_CC.jpg","CC","AM03","1","3","6","8","stimuli/stars_6.png","52.5","[""HO"",""CC"",""HE"",""DO""]","[""HF09"",""AM03"",""BM07"",""HM07""]","[4,6,8,4]","[2,8,6,4]","","",""
"show-reward","38","667029","0.0-38.0","p439909","A11F3MA5FWH6SJ","3OWZNK3RYMVDNXPNEIRWZ8JM6MU2UY","31T4R4OBOUMRAO3NO5SSQD9DTD27CR","model","match","uniform","","","","","","","","666304.5","668306.6000000089","","","","","","","","","","","","6","","stimuli/stars_6.png","52.5","","","","","stimuli/AM03_CC.jpg","",""
"explore-choice","39","670096","0.0-39.0","p439909","A11F3MA5FWH6SJ","3OWZNK3RYMVDNXPNEIRWZ8JM6MU2UY","31T4R4OBOUMRAO3NO5SSQD9DTD27CR","model","match","uniform","","","","","","","2565.9000000059605","668307","670872.900000006","[""stimuli/AM03_HE.jpg"",""stimuli/HF09_HO.jpg"",""stimuli/HM07_DO.jpg"",""stimuli/BM07_CC.jpg""]","stimuli/AM03_HE.jpg","stimuli/HF09_HO.jpg","stimuli/HM07_DO.jpg","stimuli/BM07_CC.jpg","pos1","stimuli/AM03_HE.jpg","HE","AM03","0","3","6","8","stimuli/stars_6.png","55.5","[""HE"",""HO"",""DO"",""CC""]","[""AM03"",""HF09"",""HM07"",""BM07""]","[6,2,6,4]","[8,2,4,6]","","",""
"show-reward","40","672098","0.0-40.0","p439909","A11F3MA5FWH6SJ","3OWZNK3RYMVDNXPNEIRWZ8JM6MU2UY","31T4R4OBOUMRAO3NO5SSQD9DTD27CR","model","match","uniform","","","","","","","","671374.400000006","673375.8000000119","","","","","","","","","","","","6","","stimuli/stars_6.png","55.5","","","","","stimuli/AM03_HE.jpg","",""
"explore-choice","41","673697","0.0-41.0","p439909","A11F3MA5FWH6SJ","3OWZNK3RYMVDNXPNEIRWZ8JM6MU2UY","31T4R4OBOUMRAO3NO5SSQD9DTD27CR","model","match","uniform","","","","","","","1096.7999999970198","673376.1000000089","674472.900000006","[""stimuli/HM07_HO.jpg"",""stimuli/AM03_DO.jpg"",""stimuli/BM07_HE.jpg"",""stimuli/HF09_CC.jpg""]","stimuli/HM07_HO.jpg","stimuli/AM03_DO.jpg","stimuli/BM07_HE.jpg","stimuli/HF09_CC.jpg","pos2","stimuli/AM03_DO.jpg","DO","AM03","1","4","8","8","stimuli/stars_8.png","59.5","[""HO"",""DO"",""HE"",""CC""]","[""HM07"",""AM03"",""BM07"",""HF09""]","[6,8,4,1]","[4,8,6,2]","","",""
"show-reward","42","675699","0.0-42.0","p439909","A11F3MA5FWH6SJ","3OWZNK3RYMVDNXPNEIRWZ8JM6MU2UY","31T4R4OBOUMRAO3NO5SSQD9DTD27CR","model","match","uniform","","","","","","","","674975.400000006","676976.8000000119","","","","","","","","","","","","8","","stimuli/stars_8.png","59.5","","","","","stimuli/AM03_DO.jpg","",""
"explore-choice","43","677289","0.0-43.0","p439909","A11F3MA5FWH6SJ","3OWZNK3RYMVDNXPNEIRWZ8JM6MU2UY","31T4R4OBOUMRAO3NO5SSQD9DTD27CR","model","match","uniform","","","","","","","1087.5999999940395","676977.400000006","678065","[""stimuli/AM03_DO.jpg"",""stimuli/HF09_HE.jpg"",""stimuli/HM07_HO.jpg"",""stimuli/BM07_CC.jpg""]","stimuli/AM03_DO.jpg","stimuli/HF09_HE.jpg","stimuli/HM07_HO.jpg","stimuli/BM07_CC.jpg","pos1","stimuli/AM03_DO.jpg","DO","AM03","0","5","10","8","stimuli/stars_10.png","64.5","[""DO"",""HE"",""HO"",""CC""]","[""AM03"",""HF09"",""HM07"",""BM07""]","[10,3,5,4]","[8,2,4,6]","","",""
"show-reward","44","679291","0.0-44.0","p439909","A11F3MA5FWH6SJ","3OWZNK3RYMVDNXPNEIRWZ8JM6MU2UY","31T4R4OBOUMRAO3NO5SSQD9DTD27CR","model","match","uniform","","","","","","","","678567","680568.8000000119","","","","","","","","","","","","10","","stimuli/stars_10.png","64.5","","","","","stimuli/AM03_DO.jpg","",""
"explore-choice","45","681656","0.0-45.0","p439909","A11F3MA5FWH6SJ","3OWZNK3RYMVDNXPNEIRWZ8JM6MU2UY","31T4R4OBOUMRAO3NO5SSQD9DTD27CR","model","match","uniform","","","","","","","1864","680569.3000000119","682433.3000000119","[""stimuli/HM07_DO.jpg"",""stimuli/AM03_CC.jpg"",""stimuli/BM07_HO.jpg"",""stimuli/HF09_HE.jpg""]","stimuli/HM07_DO.jpg","stimuli/AM03_CC.jpg","stimuli/BM07_HO.jpg","stimuli/HF09_HE.jpg","pos4","stimuli/HF09_HE.jpg","HE","HF09","3","0.5","1","2","stimuli/stars_1.png","65","[""DO"",""CC"",""HO"",""HE""]","[""HM07"",""AM03"",""BM07"",""HF09""]","[3,8,4,1]","[4,8,6,2]","","",""
"show-reward","46","683658","0.0-46.0","p439909","A11F3MA5FWH6SJ","3OWZNK3RYMVDNXPNEIRWZ8JM6MU2UY","31T4R4OBOUMRAO3NO5SSQD9DTD27CR","model","match","uniform","","","","","","","","682934.3000000119","684935.6000000089","","","","","","","","","","","","1","","stimuli/stars_1.png","65","","","","","stimuli/HF09_HE.jpg","",""
"explore-choice","47","686343","0.0-47.0","p439909","A11F3MA5FWH6SJ","3OWZNK3RYMVDNXPNEIRWZ8JM6MU2UY","31T4R4OBOUMRAO3NO5SSQD9DTD27CR","model","match","uniform","","","","","","","2177","684935.900000006","687112.900000006","[""stimuli/HF09_DO.jpg"",""stimuli/BM07_CC.jpg"",""stimuli/AM03_HE.jpg"",""stimuli/HM07_HO.jpg""]","stimuli/HF09_DO.jpg","stimuli/BM07_CC.jpg","stimuli/AM03_HE.jpg","stimuli/HM07_HO.jpg","pos4","stimuli/HM07_HO.jpg","HO","HM07","3","1.5","3","4","stimuli/stars_3.png","66.5","[""DO"",""CC"",""HE"",""HO""]","[""HF09"",""BM07"",""AM03"",""HM07""]","[1,7,10,3]","[2,6,8,4]","","",""
"show-reward","48","688350","0.0-48.0","p439909","A11F3MA5FWH6SJ","3OWZNK3RYMVDNXPNEIRWZ8JM6MU2UY","31T4R4OBOUMRAO3NO5SSQD9DTD27CR","model","match","uniform","","","","","","","","687621.700000003","689628.1000000089","","","","","","","","","","","","3","","stimuli/stars_3.png","66.5","","","","","stimuli/HM07_HO.jpg","",""
"explore-choice","49","689698","0.0-49.0","p439909","A11F3MA5FWH6SJ","3OWZNK3RYMVDNXPNEIRWZ8JM6MU2UY","31T4R4OBOUMRAO3NO5SSQD9DTD27CR","model","match","uniform","","","","","","","844.5","689628.6000000089","690473.1000000089","[""stimuli/BM07_DO.jpg"",""stimuli/HM07_HO.jpg"",""stimuli/HF09_CC.jpg"",""stimuli/AM03_HE.jpg""]","stimuli/BM07_DO.jpg","stimuli/HM07_HO.jpg","stimuli/HF09_CC.jpg","stimuli/AM03_HE.jpg","pos2","stimuli/HM07_HO.jpg","HO","HM07","1","3","6","4","stimuli/stars_6.png","69.5","[""DO"",""HO"",""CC"",""HE""]","[""BM07"",""HM07"",""HF09"",""AM03""]","[5,6,2,10]","[6,4,2,8]","","",""
"show-reward","50","691699","0.0-50.0","p439909","A11F3MA5FWH6SJ","3OWZNK3RYMVDNXPNEIRWZ8JM6MU2UY","31T4R4OBOUMRAO3NO5SSQD9DTD27CR","model","match","uniform","","","","","","","","690975.8000000119","692976.700000003","","","","","","","","","","","","6","","stimuli/stars_6.png","69.5","","","","","stimuli/HM07_HO.jpg","",""
"explore-choice","51","692960","0.0-51.0","p439909","A11F3MA5FWH6SJ","3OWZNK3RYMVDNXPNEIRWZ8JM6MU2UY","31T4R4OBOUMRAO3NO5SSQD9DTD27CR","model","match","uniform","","","","","","","760","692977","693737","[""stimuli/AM03_HO.jpg"",""stimuli/HM07_DO.jpg"",""stimuli/HF09_CC.jpg"",""stimuli/BM07_HE.jpg""]","stimuli/AM03_HO.jpg","stimuli/HM07_DO.jpg","stimuli/HF09_CC.jpg","stimuli/BM07_HE.jpg","pos1","stimuli/AM03_HO.jpg","HO","AM03","0","3.5","7","8","stimuli/stars_7.png","73","[""HO"",""DO"",""CC"",""HE""]","[""AM03"",""HM07"",""HF09"",""BM07""]","[7,4,2,8]","[8,4,2,6]","","",""
"show-reward","52","694962","0.0-52.0","p439909","A11F3MA5FWH6SJ","3OWZNK3RYMVDNXPNEIRWZ8JM6MU2UY","31T4R4OBOUMRAO3NO5SSQD9DTD27CR","model","match","uniform","","","","","","","","694237.700000003","696240","","","","","","","","","","","","7","","stimuli/stars_7.png","73","","","","","stimuli/AM03_HO.jpg","",""
"explore-choice","53","696414","0.0-53.0","p439909","A11F3MA5FWH6SJ","3OWZNK3RYMVDNXPNEIRWZ8JM6MU2UY","31T4R4OBOUMRAO3NO5SSQD9DTD27CR","model","match","uniform","","","","","","","936.1999999880791","696240.8000000119","697177","[""stimuli/HF09_DO.jpg"",""stimuli/HM07_HE.jpg"",""stimuli/BM07_CC.jpg"",""stimuli/AM03_HO.jpg""]","stimuli/HF09_DO.jpg","stimuli/HM07_HE.jpg","stimuli/BM07_CC.jpg","stimuli/AM03_HO.jpg","pos4","stimuli/AM03_HO.jpg","HO","AM03","3","5","10","8","stimuli/stars_10.png","78","[""DO"",""HE"",""CC"",""HO""]","[""HF09"",""HM07"",""BM07"",""AM03""]","[4,4,8,10]","[2,4,6,8]","","",""
"show-reward","54","698418","0.0-54.0","p439909","A11F3MA5FWH6SJ","3OWZNK3RYMVDNXPNEIRWZ8JM6MU2UY","31T4R4OBOUMRAO3NO5SSQD9DTD27CR","model","match","uniform","","","","","","","","697692.6000000089","699695.3000000119","","","","","","","","","","","","10","","stimuli/stars_10.png","78","","","","","stimuli/AM03_HO.jpg","",""
"explore-choice","55","699545","0.0-55.0","p439909","A11F3MA5FWH6SJ","3OWZNK3RYMVDNXPNEIRWZ8JM6MU2UY","31T4R4OBOUMRAO3NO5SSQD9DTD27CR","model","match","uniform","","","","","","","625.4000000059605","699695.700000003","700321.1000000089","[""stimuli/BM07_HE.jpg"",""stimuli/AM03_HO.jpg"",""stimuli/HF09_CC.jpg"",""stimuli/HM07_DO.jpg""]","stimuli/BM07_HE.jpg","stimuli/AM03_HO.jpg","stimuli/HF09_CC.jpg","stimuli/HM07_DO.jpg","pos2","stimuli/AM03_HO.jpg","HO","AM03","1","3.5","7","8","stimuli/stars_7.png","81.5","[""HE"",""HO"",""CC"",""DO""]","[""BM07"",""AM03"",""HF09"",""HM07""]","[8,7,2,4]","[6,8,2,4]","","",""
"show-reward","56","701558","0.0-56.0","p439909","A11F3MA5FWH6SJ","3OWZNK3RYMVDNXPNEIRWZ8JM6MU2UY","31T4R4OBOUMRAO3NO5SSQD9DTD27CR","model","match","uniform","","","","","","","","700826.3000000119","702839.1000000089","","","","","","","","","","","","7","","stimuli/stars_7.png","81.5","","","","","stimuli/AM03_HO.jpg","",""
"explore-choice","57","703488","0.0-57.0","p439909","A11F3MA5FWH6SJ","3OWZNK3RYMVDNXPNEIRWZ8JM6MU2UY","31T4R4OBOUMRAO3NO5SSQD9DTD27CR","model","match","uniform","","","","","","","1425.5999999940395","702839.6000000089","704265.200000003","[""stimuli/HM07_HO.jpg"",""stimuli/HF09_DO.jpg"",""stimuli/AM03_CC.jpg"",""stimuli/BM07_HE.jpg""]","stimuli/HM07_HO.jpg","stimuli/HF09_DO.jpg","stimuli/AM03_CC.jpg","stimuli/BM07_HE.jpg","pos3","stimuli/AM03_CC.jpg","CC","AM03","2","3","6","8","stimuli/stars_6.png","84.5","[""HO"",""DO"",""CC"",""HE""]","[""HM07"",""HF09"",""AM03"",""BM07""]","[3,4,6,6]","[4,2,8,6]","","",""
"show-reward","58","705490","0.0-58.0","p439909","A11F3MA5FWH6SJ","3OWZNK3RYMVDNXPNEIRWZ8JM6MU2UY","31T4R4OBOUMRAO3NO5SSQD9DTD27CR","model","match","uniform","","","","","","","","704769","706771.3000000119","","","","","","","","","","","","6","","stimuli/stars_6.png","84.5","","","","","stimuli/AM03_CC.jpg","",""
"explore-choice","59","707611","0.0-59.0","p439909","A11F3MA5FWH6SJ","3OWZNK3RYMVDNXPNEIRWZ8JM6MU2UY","31T4R4OBOUMRAO3NO5SSQD9DTD27CR","model","match","uniform","","","","","","","1613.4000000059605","706771.700000003","708385.1000000089","[""stimuli/AM03_DO.jpg"",""stimuli/BM07_CC.jpg"",""stimuli/HF09_HE.jpg"",""stimuli/HM07_HO.jpg""]","stimuli/AM03_DO.jpg","stimuli/BM07_CC.jpg","stimuli/HF09_HE.jpg","stimuli/HM07_HO.jpg","pos1","stimuli/AM03_DO.jpg","DO","AM03","0","5","10","8","stimuli/stars_10.png","89.5","[""DO"",""CC"",""HE"",""HO""]","[""AM03"",""BM07"",""HF09"",""HM07""]","[10,4,3,5]","[8,6,2,4]","","",""
"show-reward","60","709612","0.0-60.0","p439909","A11F3MA5FWH6SJ","3OWZNK3RYMVDNXPNEIRWZ8JM6MU2UY","31T4R4OBOUMRAO3NO5SSQD9DTD27CR","model","match","uniform","","","","","","","","708891.900000006","710892.700000003","","","","","","","","","","","","10","","stimuli/stars_10.png","89.5","","","","","stimuli/AM03_DO.jpg","",""
"explore-choice","61","713302","0.0-61.0","p439909","A11F3MA5FWH6SJ","3OWZNK3RYMVDNXPNEIRWZ8JM6MU2UY","31T4R4OBOUMRAO3NO5SSQD9DTD27CR","model","match","uniform","","","","","","","3188.2000000029802","710893.1000000089","714081.3000000119","[""stimuli/HF09_HO.jpg"",""stimuli/AM03_CC.jpg"",""stimuli/HM07_DO.jpg"",""stimuli/BM07_HE.jpg""]","stimuli/HF09_HO.jpg","stimuli/AM03_CC.jpg","stimuli/HM07_DO.jpg","stimuli/BM07_HE.jpg","pos2","stimuli/AM03_CC.jpg","CC","AM03","1","3","6","8","stimuli/stars_6.png","92.5","[""HO"",""CC"",""DO"",""HE""]","[""HF09"",""AM03"",""HM07"",""BM07""]","[4,6,4,8]","[2,8,4,6]","","",""
"show-reward","62","715304","0.0-62.0","p439909","A11F3MA5FWH6SJ","3OWZNK3RYMVDNXPNEIRWZ8JM6MU2UY","31T4R4OBOUMRAO3NO5SSQD9DTD27CR","model","match","uniform","","","","","","","","714582.900000006","716584.5","","","","","","","","","","","","6","","stimuli/stars_6.png","92.5","","","","","stimuli/AM03_CC.jpg","",""
"explore-choice","63","716957","0.0-63.0","p439909","A11F3MA5FWH6SJ","3OWZNK3RYMVDNXPNEIRWZ8JM6MU2UY","31T4R4OBOUMRAO3NO5SSQD9DTD27CR","model","match","uniform","","","","","","","1152","716585.1000000089","717737.1000000089","[""stimuli/HF09_DO.jpg"",""stimuli/HM07_CC.jpg"",""stimuli/AM03_HE.jpg"",""stimuli/BM07_HO.jpg""]","stimuli/HF09_DO.jpg","stimuli/HM07_CC.jpg","stimuli/AM03_HE.jpg","stimuli/BM07_HO.jpg","pos3","stimuli/AM03_HE.jpg","HE","AM03","2","3","6","8","stimuli/stars_6.png","95.5","[""DO"",""CC"",""HE"",""HO""]","[""HF09"",""HM07"",""AM03"",""BM07""]","[0,6,6,7]","[2,4,8,6]","","",""
"show-reward","64","718969","0.0-64.0","p439909","A11F3MA5FWH6SJ","3OWZNK3RYMVDNXPNEIRWZ8JM6MU2UY","31T4R4OBOUMRAO3NO5SSQD9DTD27CR","model","match","uniform","","","","","","","","718238.3000000119","720250.1000000089","","","","","","","","","","","","6","","stimuli/stars_6.png","95.5","","","","","stimuli/AM03_HE.jpg","",""
"explore-choice","65","720034","0.0-65.0","p439909","A11F3MA5FWH6SJ","3OWZNK3RYMVDNXPNEIRWZ8JM6MU2UY","31T4R4OBOUMRAO3NO5SSQD9DTD27CR","model","match","uniform","","","","","","","550.2000000029802","720250.700000003","720800.900000006","[""stimuli/AM03_DO.jpg"",""stimuli/HF09_CC.jpg"",""stimuli/BM07_HE.jpg"",""stimuli/HM07_HO.jpg""]","stimuli/AM03_DO.jpg","stimuli/HF09_CC.jpg","stimuli/BM07_HE.jpg","stimuli/HM07_HO.jpg","pos1","stimuli/AM03_DO.jpg","DO","AM03","0","4","8","8","stimuli/stars_8.png","99.5","[""DO"",""CC"",""HE"",""HO""]","[""AM03"",""HF09"",""BM07"",""HM07""]","[8,1,4,6]","[8,2,6,4]","","",""
"show-reward","66","722036","0.0-66.0","p439909","A11F3MA5FWH6SJ","3OWZNK3RYMVDNXPNEIRWZ8JM6MU2UY","31T4R4OBOUMRAO3NO5SSQD9DTD27CR","model","match","uniform","","","","","","","","721315","723316.900000006","","","","","","","","","","","","8","","stimuli/stars_8.png","99.5","","","","","stimuli/AM03_DO.jpg","",""
"explore-choice","67","723598","0.0-67.0","p439909","A11F3MA5FWH6SJ","3OWZNK3RYMVDNXPNEIRWZ8JM6MU2UY","31T4R4OBOUMRAO3NO5SSQD9DTD27CR","model","match","uniform","","","","","","","1059.2000000029802","723317.6000000089","724376.8000000119","[""stimuli/BM07_HE.jpg"",""stimuli/HF09_DO.jpg"",""stimuli/AM03_HO.jpg"",""stimuli/HM07_CC.jpg""]","stimuli/BM07_HE.jpg","stimuli/HF09_DO.jpg","stimuli/AM03_HO.jpg","stimuli/HM07_CC.jpg","pos3","stimuli/AM03_HO.jpg","HO","AM03","2","3","6","8","stimuli/stars_6.png","102.5","[""HE"",""DO"",""HO"",""CC""]","[""BM07"",""HF09"",""AM03"",""HM07""]","[6,4,6,3]","[6,2,8,4]","","",""
"show-reward","68","725600","0.0-68.0","p439909","A11F3MA5FWH6SJ","3OWZNK3RYMVDNXPNEIRWZ8JM6MU2UY","31T4R4OBOUMRAO3NO5SSQD9DTD27CR","model","match","uniform","","","","","","","","724879.1000000089","726880.400000006","","","","","","","","","","","","6","","stimuli/stars_6.png","102.5","","","","","stimuli/AM03_HO.jpg","",""
"explore-choice","69","726697","0.0-69.0","p439909","A11F3MA5FWH6SJ","3OWZNK3RYMVDNXPNEIRWZ8JM6MU2UY","31T4R4OBOUMRAO3NO5SSQD9DTD27CR","model","match","uniform","","","","","","","592.2999999970198","726880.900000006","727473.200000003","[""stimuli/HM07_HE.jpg"",""stimuli/AM03_CC.jpg"",""stimuli/HF09_DO.jpg"",""stimuli/BM07_HO.jpg""]","stimuli/HM07_HE.jpg","stimuli/AM03_CC.jpg","stimuli/HF09_DO.jpg","stimuli/BM07_HO.jpg","pos2","stimuli/AM03_CC.jpg","CC","AM03","1","5","10","8","stimuli/stars_10.png","107.5","[""HE"",""CC"",""DO"",""HO""]","[""HM07"",""AM03"",""HF09"",""BM07""]","[2,10,2,6]","[4,8,2,6]","","",""
"show-reward","70","728705","0.0-70.0","p439909","A11F3MA5FWH6SJ","3OWZNK3RYMVDNXPNEIRWZ8JM6MU2UY","31T4R4OBOUMRAO3NO5SSQD9DTD27CR","model","match","uniform","","","","","","","","727977.700000003","729985.900000006","","","","","","","","","","","","10","","stimuli/stars_10.png","107.5","","","","","stimuli/AM03_CC.jpg","",""
"explore-choice","71","729923","0.0-71.0","p439909","A11F3MA5FWH6SJ","3OWZNK3RYMVDNXPNEIRWZ8JM6MU2UY","31T4R4OBOUMRAO3NO5SSQD9DTD27CR","model","match","uniform","","","","","","","702.3999999910593","729986.6000000089","730689","[""stimuli/HM07_DO.jpg"",""stimuli/HF09_HE.jpg"",""stimuli/AM03_CC.jpg"",""stimuli/BM07_HO.jpg""]","stimuli/HM07_DO.jpg","stimuli/HF09_HE.jpg","stimuli/AM03_CC.jpg","stimuli/BM07_HO.jpg","pos3","stimuli/AM03_CC.jpg","CC","AM03","2","4","8","8","stimuli/stars_8.png","111.5","[""DO"",""HE"",""CC"",""HO""]","[""HM07"",""HF09"",""AM03"",""BM07""]","[3,1,8,4]","[4,2,8,6]","","",""
"show-reward","72","731926","0.0-72.0","p439909","A11F3MA5FWH6SJ","3OWZNK3RYMVDNXPNEIRWZ8JM6MU2UY","31T4R4OBOUMRAO3NO5SSQD9DTD27CR","model","match","uniform","","","","","","","","731204.3000000119","733206.6000000089","","","","","","","","","","","","8","","stimuli/stars_8.png","111.5","","","","","stimuli/AM03_CC.jpg","",""
"explore-choice","73","733010","0.0-73.0","p439909","A11F3MA5FWH6SJ","3OWZNK3RYMVDNXPNEIRWZ8JM6MU2UY","31T4R4OBOUMRAO3NO5SSQD9DTD27CR","model","match","uniform","","","","","","","578.2000000029802","733207","733785.200000003","[""stimuli/HF09_CC.jpg"",""stimuli/HM07_DO.jpg"",""stimuli/AM03_HE.jpg"",""stimuli/BM07_HO.jpg""]","stimuli/HF09_CC.jpg","stimuli/HM07_DO.jpg","stimuli/AM03_HE.jpg","stimuli/BM07_HO.jpg","pos3","stimuli/AM03_HE.jpg","HE","AM03","2","3","6","8","stimuli/stars_6.png","114.5","[""CC"",""DO"",""HE"",""HO""]","[""HF09"",""HM07"",""AM03"",""BM07""]","[1,6,6,7]","[2,4,8,6]","","",""
"show-reward","74","735013","0.0-74.0","p439909","A11F3MA5FWH6SJ","3OWZNK3RYMVDNXPNEIRWZ8JM6MU2UY","31T4R4OBOUMRAO3NO5SSQD9DTD27CR","model","match","uniform","","","","","","","","734291.700000003","736293.700000003","","","","","","","","","","","","6","","stimuli/stars_6.png","114.5","","","","","stimuli/AM03_HE.jpg","",""
"explore-choice","75","736157","0.0-75.0","p439909","A11F3MA5FWH6SJ","3OWZNK3RYMVDNXPNEIRWZ8JM6MU2UY","31T4R4OBOUMRAO3NO5SSQD9DTD27CR","model","match","uniform","","","","","","","634.7000000029802","736294.200000003","736928.900000006","[""stimuli/AM03_DO.jpg"",""stimuli/HF09_HO.jpg"",""stimuli/BM07_CC.jpg"",""stimuli/HM07_HE.jpg""]","stimuli/AM03_DO.jpg","stimuli/HF09_HO.jpg","stimuli/BM07_CC.jpg","stimuli/HM07_HE.jpg","pos1","stimuli/AM03_DO.jpg","DO","AM03","0","4.5","9","8","stimuli/stars_9.png","119","[""DO"",""HO"",""CC"",""HE""]","[""AM03"",""HF09"",""BM07"",""HM07""]","[9,3,4,2]","[8,2,6,4]","","",""
"show-reward","76","738160","0.0-76.0","p439909","A11F3MA5FWH6SJ","3OWZNK3RYMVDNXPNEIRWZ8JM6MU2UY","31T4R4OBOUMRAO3NO5SSQD9DTD27CR","model","match","uniform","","","","","","","","737438.700000003","739440.6000000089","","","","","","","","","","","","9","","stimuli/stars_9.png","119","","","","","stimuli/AM03_DO.jpg","",""
"explore-choice","77","739335","0.0-77.0","p439909","A11F3MA5FWH6SJ","3OWZNK3RYMVDNXPNEIRWZ8JM6MU2UY","31T4R4OBOUMRAO3NO5SSQD9DTD27CR","model","match","uniform","","","","","","","664","739441.1000000089","740105.1000000089","[""stimuli/AM03_HO.jpg"",""stimuli/BM07_DO.jpg"",""stimuli/HF09_CC.jpg"",""stimuli/HM07_HE.jpg""]","stimuli/AM03_HO.jpg","stimuli/BM07_DO.jpg","stimuli/HF09_CC.jpg","stimuli/HM07_HE.jpg","pos1","stimuli/AM03_HO.jpg","HO","AM03","0","5","10","8","stimuli/stars_10.png","124","[""HO"",""DO"",""CC"",""HE""]","[""AM03"",""BM07"",""HF09"",""HM07""]","[10,8,1,4]","[8,6,2,4]","","",""
"show-reward","78","741341","0.0-78.0","p439909","A11F3MA5FWH6SJ","3OWZNK3RYMVDNXPNEIRWZ8JM6MU2UY","31T4R4OBOUMRAO3NO5SSQD9DTD27CR","model","match","uniform","","","","","","","","740616.200000003","742622.1000000089","","","","","","","","","","","","10","","stimuli/stars_10.png","124","","","","","stimuli/AM03_HO.jpg","",""
"explore-choice","79","742901","0.0-79.0","p439909","A11F3MA5FWH6SJ","3OWZNK3RYMVDNXPNEIRWZ8JM6MU2UY","31T4R4OBOUMRAO3NO5SSQD9DTD27CR","model","match","uniform","","","","","","","1058","742622.900000006","743680.900000006","[""stimuli/BM07_CC.jpg"",""stimuli/HF09_HE.jpg"",""stimuli/HM07_DO.jpg"",""stimuli/AM03_HO.jpg""]","stimuli/BM07_CC.jpg","stimuli/HF09_HE.jpg","stimuli/HM07_DO.jpg","stimuli/AM03_HO.jpg","pos4","stimuli/AM03_HO.jpg","HO","AM03","3","4","8","8","stimuli/stars_8.png","128","[""CC"",""HE"",""DO"",""HO""]","[""BM07"",""HF09"",""HM07"",""AM03""]","[7,0,3,8]","[6,2,4,8]","","",""
"show-reward","80","744902","0.0-80.0","p439909","A11F3MA5FWH6SJ","3OWZNK3RYMVDNXPNEIRWZ8JM6MU2UY","31T4R4OBOUMRAO3NO5SSQD9DTD27CR","model","match","uniform","","","","","","","","744182","746182.700000003","","","","","","","","","","","","8","","stimuli/stars_8.png","128","","","","","stimuli/AM03_HO.jpg","",""
"explore-choice","81","746151","0.0-81.0","p439909","A11F3MA5FWH6SJ","3OWZNK3RYMVDNXPNEIRWZ8JM6MU2UY","31T4R4OBOUMRAO3NO5SSQD9DTD27CR","model","match","uniform","","","","","","","737.8999999910593","746183.1000000089","746921","[""stimuli/HF09_HE.jpg"",""stimuli/HM07_CC.jpg"",""stimuli/AM03_DO.jpg"",""stimuli/BM07_HO.jpg""]","stimuli/HF09_HE.jpg","stimuli/HM07_CC.jpg","stimuli/AM03_DO.jpg","stimuli/BM07_HO.jpg","pos3","stimuli/AM03_DO.jpg","DO","AM03","2","4","8","8","stimuli/stars_8.png","132","[""HE"",""CC"",""DO"",""HO""]","[""HF09"",""HM07"",""AM03"",""BM07""]","[0,3,8,7]","[2,4,8,6]","","",""
"show-reward","82","748153","0.0-82.0","p439909","A11F3MA5FWH6SJ","3OWZNK3RYMVDNXPNEIRWZ8JM6MU2UY","31T4R4OBOUMRAO3NO5SSQD9DTD27CR","model","match","uniform","","","","","","","","747432.1000000089","749433.8000000119","","","","","","","","","","","","8","","stimuli/stars_8.png","132","","","","","stimuli/AM03_DO.jpg","",""
"explore-choice","83","749293","0.0-83.0","p439909","A11F3MA5FWH6SJ","3OWZNK3RYMVDNXPNEIRWZ8JM6MU2UY","31T4R4OBOUMRAO3NO5SSQD9DTD27CR","model","match","uniform","","","","","","","638.7999999970198","749434.200000003","750073","[""stimuli/AM03_CC.jpg"",""stimuli/BM07_DO.jpg"",""stimuli/HM07_HE.jpg"",""stimuli/HF09_HO.jpg""]","stimuli/AM03_CC.jpg","stimuli/BM07_DO.jpg","stimuli/HM07_HE.jpg","stimuli/HF09_HO.jpg","pos1","stimuli/AM03_CC.jpg","CC","AM03","0","3.5","7","8","stimuli/stars_7.png","135.5","[""CC"",""DO"",""HE"",""HO""]","[""AM03"",""BM07"",""HM07"",""HF09""]","[7,6,5,3]","[8,6,4,2]","","",""
"show-reward","84","751300","0.0-84.0","p439909","A11F3MA5FWH6SJ","3OWZNK3RYMVDNXPNEIRWZ8JM6MU2UY","31T4R4OBOUMRAO3NO5SSQD9DTD27CR","model","match","uniform","","","","","","","","750574.200000003","752580.8000000119","","","","","","","","","","","","7","","stimuli/stars_7.png","135.5","","","","","stimuli/AM03_CC.jpg","",""
"explore-choice","85","752239","0.0-85.0","p439909","A11F3MA5FWH6SJ","3OWZNK3RYMVDNXPNEIRWZ8JM6MU2UY","31T4R4OBOUMRAO3NO5SSQD9DTD27CR","model","match","uniform","","","","","","","435.79999999701977","752581.3000000119","753017.1000000089","[""stimuli/BM07_HE.jpg"",""stimuli/AM03_DO.jpg"",""stimuli/HF09_HO.jpg"",""stimuli/HM07_CC.jpg""]","stimuli/BM07_HE.jpg","stimuli/AM03_DO.jpg","stimuli/HF09_HO.jpg","stimuli/HM07_CC.jpg","pos2","stimuli/AM03_DO.jpg","DO","AM03","1","4","8","8","stimuli/stars_8.png","139.5","[""HE"",""DO"",""HO"",""CC""]","[""BM07"",""AM03"",""HF09"",""HM07""]","[8,8,4,4]","[6,8,2,4]","","",""
"show-reward","86","754242","0.0-86.0","p439909","A11F3MA5FWH6SJ","3OWZNK3RYMVDNXPNEIRWZ8JM6MU2UY","31T4R4OBOUMRAO3NO5SSQD9DTD27CR","model","match","uniform","","","","","","","","753520.700000003","755522.400000006","","","","","","","","","","","","8","","stimuli/stars_8.png","139.5","","","","","stimuli/AM03_DO.jpg","",""
"explore-choice","87","755179","0.0-87.0","p439909","A11F3MA5FWH6SJ","3OWZNK3RYMVDNXPNEIRWZ8JM6MU2UY","31T4R4OBOUMRAO3NO5SSQD9DTD27CR","model","match","uniform","","","","","","","430.19999998807907","755522.8000000119","755953","[""stimuli/HF09_CC.jpg"",""stimuli/HM07_HE.jpg"",""stimuli/AM03_DO.jpg"",""stimuli/BM07_HO.jpg""]","stimuli/HF09_CC.jpg","stimuli/HM07_HE.jpg","stimuli/AM03_DO.jpg","stimuli/BM07_HO.jpg","pos3","stimuli/AM03_DO.jpg","DO","AM03","2","5","10","8","stimuli/stars_10.png","144.5","[""CC"",""HE"",""DO"",""HO""]","[""HF09"",""HM07"",""AM03"",""BM07""]","[4,6,10,4]","[2,4,8,6]","","",""
"show-reward","88","757182","0.0-88.0","p439909","A11F3MA5FWH6SJ","3OWZNK3RYMVDNXPNEIRWZ8JM6MU2UY","31T4R4OBOUMRAO3NO5SSQD9DTD27CR","model","match","uniform","","","","","","","","756460.200000003","758462.6000000089","","","","","","","","","","","","10","","stimuli/stars_10.png","144.5","","","","","stimuli/AM03_DO.jpg","",""
"explore-choice","89","758613","0.0-89.0","p439909","A11F3MA5FWH6SJ","3OWZNK3RYMVDNXPNEIRWZ8JM6MU2UY","31T4R4OBOUMRAO3NO5SSQD9DTD27CR","model","match","uniform","","","","","","","930.4000000059605","758463","759393.400000006","[""stimuli/AM03_HE.jpg"",""stimuli/HM07_HO.jpg"",""stimuli/BM07_DO.jpg"",""stimuli/HF09_CC.jpg""]","stimuli/AM03_HE.jpg","stimuli/HM07_HO.jpg","stimuli/BM07_DO.jpg","stimuli/HF09_CC.jpg","pos1","stimuli/AM03_HE.jpg","HE","AM03","0","5","10","8","stimuli/stars_10.png","149.5","[""HE"",""HO"",""DO"",""CC""]","[""AM03"",""HM07"",""BM07"",""HF09""]","[10,6,5,2]","[8,4,6,2]","","",""
"show-reward","90","760611","0.0-90.0","p439909","A11F3MA5FWH6SJ","3OWZNK3RYMVDNXPNEIRWZ8JM6MU2UY","31T4R4OBOUMRAO3NO5SSQD9DTD27CR","model","match","uniform","","","","","","","","759894.200000003","761896.1000000089","","","","","","","","","","","","10","","stimuli/stars_10.png","149.5","","","","","stimuli/AM03_HE.jpg","",""
"explore-choice","91","761545","0.0-91.0","p439909","A11F3MA5FWH6SJ","3OWZNK3RYMVDNXPNEIRWZ8JM6MU2UY","31T4R4OBOUMRAO3NO5SSQD9DTD27CR","model","match","uniform","","","","","","","432.3999999910593","761896.6000000089","762329","[""stimuli/HM07_HO.jpg"",""stimuli/BM07_CC.jpg"",""stimuli/HF09_DO.jpg"",""stimuli/AM03_HE.jpg""]","stimuli/HM07_HO.jpg","stimuli/BM07_CC.jpg","stimuli/HF09_DO.jpg","stimuli/AM03_HE.jpg","pos4","stimuli/AM03_HE.jpg","HE","AM03","3","5","10","8","stimuli/stars_10.png","154.5","[""HO"",""CC"",""DO"",""HE""]","[""HM07"",""BM07"",""HF09"",""AM03""]","[3,7,1,10]","[4,6,2,8]","","",""
"show-reward","92","763561","0.0-92.0","p439909","A11F3MA5FWH6SJ","3OWZNK3RYMVDNXPNEIRWZ8JM6MU2UY","31T4R4OBOUMRAO3NO5SSQD9DTD27CR","model","match","uniform","","","","","","","","762830.3000000119","764846.1000000089","","","","","","","","","","","","10","","stimuli/stars_10.png","154.5","","","","","stimuli/AM03_HE.jpg","",""
"explore-choice","93","764481","0.0-93.0","p439909","A11F3MA5FWH6SJ","3OWZNK3RYMVDNXPNEIRWZ8JM6MU2UY","31T4R4OBOUMRAO3NO5SSQD9DTD27CR","model","match","uniform","","","","","","","418.5","764846.6000000089","765265.1000000089","[""stimuli/BM07_DO.jpg"",""stimuli/AM03_HE.jpg"",""stimuli/HF09_HO.jpg"",""stimuli/HM07_CC.jpg""]","stimuli/BM07_DO.jpg","stimuli/AM03_HE.jpg","stimuli/HF09_HO.jpg","stimuli/HM07_CC.jpg","pos2","stimuli/AM03_HE.jpg","HE","AM03","1","3","6","8","stimuli/stars_6.png","157.5","[""DO"",""HE"",""HO"",""CC""]","[""BM07"",""AM03"",""HF09"",""HM07""]","[7,6,4,3]","[6,8,2,4]","","",""
"show-reward","94","766486","0.0-94.0","p439909","A11F3MA5FWH6SJ","3OWZNK3RYMVDNXPNEIRWZ8JM6MU2UY","31T4R4OBOUMRAO3NO5SSQD9DTD27CR","model","match","uniform","","","","","","","","765766.200000003","767770.5","","","","","","","","","","","","6","","stimuli/stars_6.png","157.5","","","","","stimuli/AM03_HE.jpg","",""
"explore-choice","95","767369","0.0-95.0","p439909","A11F3MA5FWH6SJ","3OWZNK3RYMVDNXPNEIRWZ8JM6MU2UY","31T4R4OBOUMRAO3NO5SSQD9DTD27CR","model","match","uniform","","","","","","","382.09999999403954","767771.1000000089","768153.200000003","[""stimuli/BM07_DO.jpg"",""stimuli/HM07_CC.jpg"",""stimuli/AM03_HO.jpg"",""stimuli/HF09_HE.jpg""]","stimuli/BM07_DO.jpg","stimuli/HM07_CC.jpg","stimuli/AM03_HO.jpg","stimuli/HF09_HE.jpg","pos3","stimuli/AM03_HO.jpg","HO","AM03","2","4.5","9","8","stimuli/stars_9.png","162","[""DO"",""CC"",""HO"",""HE""]","[""BM07"",""HM07"",""AM03"",""HF09""]","[5,5,9,3]","[6,4,8,2]","","",""
"show-reward","96","769385","0.0-96.0","p439909","A11F3MA5FWH6SJ","3OWZNK3RYMVDNXPNEIRWZ8JM6MU2UY","31T4R4OBOUMRAO3NO5SSQD9DTD27CR","model","match","uniform","","","","","","","","768654.6000000089","770669.8000000119","","","","","","","","","","","","9","","stimuli/stars_9.png","162","","","","","stimuli/AM03_HO.jpg","",""
"explore-choice","97","770273","0.0-97.0","p439909","A11F3MA5FWH6SJ","3OWZNK3RYMVDNXPNEIRWZ8JM6MU2UY","31T4R4OBOUMRAO3NO5SSQD9DTD27CR","model","match","uniform","","","","","","","386.79999999701977","770670.200000003","771057","[""stimuli/AM03_CC.jpg"",""stimuli/HM07_HO.jpg"",""stimuli/HF09_HE.jpg"",""stimuli/BM07_DO.jpg""]","stimuli/AM03_CC.jpg","stimuli/HM07_HO.jpg","stimuli/HF09_HE.jpg","stimuli/BM07_DO.jpg","pos1","stimuli/AM03_CC.jpg","CC","AM03","0","5","10","8","stimuli/stars_10.png","167","[""CC"",""HO"",""HE"",""DO""]","[""AM03"",""HM07"",""HF09"",""BM07""]","[10,6,1,4]","[8,4,2,6]","","",""
"show-reward","98","772282","0.0-98.0","p439909","A11F3MA5FWH6SJ","3OWZNK3RYMVDNXPNEIRWZ8JM6MU2UY","31T4R4OBOUMRAO3NO5SSQD9DTD27CR","model","match","uniform","","","","","","","","771558","773567.3000000119","","","","","","","","","","","","10","","stimuli/stars_10.png","167","","","","","stimuli/AM03_CC.jpg","",""
"explore-choice","99","773232","0.0-99.0","p439909","A11F3MA5FWH6SJ","3OWZNK3RYMVDNXPNEIRWZ8JM6MU2UY","31T4R4OBOUMRAO3NO5SSQD9DTD27CR","model","match","uniform","","","","","","","449.20000000298023","773567.700000003","774016.900000006","[""stimuli/HM07_DO.jpg"",""stimuli/HF09_HO.jpg"",""stimuli/BM07_CC.jpg"",""stimuli/AM03_HE.jpg""]","stimuli/HM07_DO.jpg","stimuli/HF09_HO.jpg","stimuli/BM07_CC.jpg","stimuli/AM03_HE.jpg","pos4","stimuli/AM03_HE.jpg","HE","AM03","3","3","6","8","stimuli/stars_6.png","170","[""DO"",""HO"",""CC"",""HE""]","[""HM07"",""HF09"",""BM07"",""AM03""]","[6,2,4,6]","[4,2,6,8]","","",""
"show-reward","100","775242","0.0-100.0","p439909","A11F3MA5FWH6SJ","3OWZNK3RYMVDNXPNEIRWZ8JM6MU2UY","31T4R4OBOUMRAO3NO5SSQD9DTD27CR","model","match","uniform","","","","","","","","774517.5","776526.6000000089","","","","","","","","","","","","6","","stimuli/stars_6.png","170","","","","","stimuli/AM03_HE.jpg","",""
"explore-choice","101","778821","0.0-101.0","p439909","A11F3MA5FWH6SJ","3OWZNK3RYMVDNXPNEIRWZ8JM6MU2UY","31T4R4OBOUMRAO3NO5SSQD9DTD27CR","model","match","uniform","","","","","","","3066.1000000089407","776527.200000003","779593.3000000119","[""stimuli/BM07_CC.jpg"",""stimuli/HF09_DO.jpg"",""stimuli/AM03_HO.jpg"",""stimuli/HM07_HE.jpg""]","stimuli/BM07_CC.jpg","stimuli/HF09_DO.jpg","stimuli/AM03_HO.jpg","stimuli/HM07_HE.jpg","pos3","stimuli/AM03_HO.jpg","HO","AM03","2","5","10","8","stimuli/stars_10.png","175","[""CC"",""DO"",""HO"",""HE""]","[""BM07"",""HF09"",""AM03"",""HM07""]","[8,4,10,4]","[6,2,8,4]","","",""
"show-reward","102","780822","0.0-102.0","p439909","A11F3MA5FWH6SJ","3OWZNK3RYMVDNXPNEIRWZ8JM6MU2UY","31T4R4OBOUMRAO3NO5SSQD9DTD27CR","model","match","uniform","","","","","","","","780106.200000003","782107.3000000119","","","","","","","","","","","","10","","stimuli/stars_10.png","175","","","","","stimuli/AM03_HO.jpg","",""
"explore-choice","103","783804","0.0-103.0","p439909","A11F3MA5FWH6SJ","3OWZNK3RYMVDNXPNEIRWZ8JM6MU2UY","31T4R4OBOUMRAO3NO5SSQD9DTD27CR","model","match","uniform","","","","","","","2469.7999999970198","782107.700000003","784577.5","[""stimuli/AF11_FO.jpg"",""stimuli/BF05_SUR.jpg"",""stimuli/HM09_AO.jpg"",""stimuli/WF06_SC.jpg""]","stimuli/AF11_FO.jpg","stimuli/BF05_SUR.jpg","stimuli/HM09_AO.jpg","stimuli/WF06_SC.jpg","pos3","stimuli/HM09_AO.jpg","AO","HM09","2","4","8","8","stimuli/stars_8.png","179","[""FO"",""SUR"",""AO"",""SC""]","[""AF11"",""BF05"",""HM09"",""WF06""]","[4,5,8,7]","[2,4,8,6]","","",""
"show-reward","104","785807","0.0-104.0","p439909","A11F3MA5FWH6SJ","3OWZNK3RYMVDNXPNEIRWZ8JM6MU2UY","31T4R4OBOUMRAO3NO5SSQD9DTD27CR","model","match","uniform","","","","","","","","785089.3000000119","787091.400000006","","","","","","","","","","","","8","","stimuli/stars_8.png","179","","","","","stimuli/HM09_AO.jpg","",""
"explore-choice","105","787151","0.0-105.0","p439909","A11F3MA5FWH6SJ","3OWZNK3RYMVDNXPNEIRWZ8JM6MU2UY","31T4R4OBOUMRAO3NO5SSQD9DTD27CR","model","match","uniform","","","","","","","837.0999999940395","787091.8000000119","787928.900000006","[""stimuli/AF11_FO.jpg"",""stimuli/BF05_AO.jpg"",""stimuli/HM09_SC.jpg"",""stimuli/WF06_SUR.jpg""]","stimuli/AF11_FO.jpg","stimuli/BF05_AO.jpg","stimuli/HM09_SC.jpg","stimuli/WF06_SUR.jpg","pos1","stimuli/AF11_FO.jpg","FO","AF11","0","1","2","2","stimuli/stars_2.png","180","[""FO"",""AO"",""SC"",""SUR""]","[""AF11"",""BF05"",""HM09"",""WF06""]","[2,6,6,8]","[2,4,8,6]","","",""
"show-reward","106","789153","0.0-106.0","p439909","A11F3MA5FWH6SJ","3OWZNK3RYMVDNXPNEIRWZ8JM6MU2UY","31T4R4OBOUMRAO3NO5SSQD9DTD27CR","model","match","uniform","","","","","","","","788436.1000000089","790438","","","","","","","","","","","","2","","stimuli/stars_2.png","180","","","","","stimuli/AF11_FO.jpg","",""
"explore-choice","107","791716","0.0-107.0","p439909","A11F3MA5FWH6SJ","3OWZNK3RYMVDNXPNEIRWZ8JM6MU2UY","31T4R4OBOUMRAO3NO5SSQD9DTD27CR","model","match","uniform","","","","","","","2050.7000000029802","790438.700000003","792489.400000006","[""stimuli/WF06_FO.jpg"",""stimuli/HM09_SC.jpg"",""stimuli/BF05_AO.jpg"",""stimuli/AF11_SUR.jpg""]","stimuli/WF06_FO.jpg","stimuli/HM09_SC.jpg","stimuli/BF05_AO.jpg","stimuli/AF11_SUR.jpg","pos1","stimuli/WF06_FO.jpg","FO","WF06","0","2.5","5","6","stimuli/stars_5.png","182.5","[""FO"",""SC"",""AO"",""SUR""]","[""WF06"",""HM09"",""BF05"",""AF11""]","[5,9,6,2]","[6,8,4,2]","","",""
"show-reward","108","793719","0.0-108.0","p439909","A11F3MA5FWH6SJ","3OWZNK3RYMVDNXPNEIRWZ8JM6MU2UY","31T4R4OBOUMRAO3NO5SSQD9DTD27CR","model","match","uniform","","","","","","","","793001.3000000119","795003.5","","","","","","","","","","","","5","","stimuli/stars_5.png","182.5","","","","","stimuli/WF06_FO.jpg","",""
"explore-choice","109","795347","0.0-109.0","p439909","A11F3MA5FWH6SJ","3OWZNK3RYMVDNXPNEIRWZ8JM6MU2UY","31T4R4OBOUMRAO3NO5SSQD9DTD27CR","model","match","uniform","","","","","","","1117.3999999910593","795003.8000000119","796121.200000003","[""stimuli/AF11_AO.jpg"",""stimuli/WF06_FO.jpg"",""stimuli/BF05_SUR.jpg"",""stimuli/HM09_SC.jpg""]","stimuli/AF11_AO.jpg","stimuli/WF06_FO.jpg","stimuli/BF05_SUR.jpg","stimuli/HM09_SC.jpg","pos3","stimuli/BF05_SUR.jpg","SUR","BF05","2","2.5","5","4","stimuli/stars_5.png","185","[""AO"",""FO"",""SUR"",""SC""]","[""AF11"",""WF06"",""BF05"",""HM09""]","[0,4,5,8]","[2,6,4,8]","","",""
"show-reward","110","797348","0.0-110.0","p439909","A11F3MA5FWH6SJ","3OWZNK3RYMVDNXPNEIRWZ8JM6MU2UY","31T4R4OBOUMRAO3NO5SSQD9DTD27CR","model","match","uniform","","","","","","","","796632.200000003","798632.900000006","","","","","","","","","","","","5","","stimuli/stars_5.png","185","","","","","stimuli/BF05_SUR.jpg","",""
"explore-choice","111","798794","0.0-111.0","p439909","A11F3MA5FWH6SJ","3OWZNK3RYMVDNXPNEIRWZ8JM6MU2UY","31T4R4OBOUMRAO3NO5SSQD9DTD27CR","model","match","uniform","","","","","","","943.7000000029802","798633.400000006","799577.1000000089","[""stimuli/WF06_FO.jpg"",""stimuli/HM09_SUR.jpg"",""stimuli/AF11_AO.jpg"",""stimuli/BF05_SC.jpg""]","stimuli/WF06_FO.jpg","stimuli/HM09_SUR.jpg","stimuli/AF11_AO.jpg","stimuli/BF05_SC.jpg","pos2","stimuli/HM09_SUR.jpg","SUR","HM09","1","3.5","7","8","stimuli/stars_7.png","188.5","[""FO"",""SUR"",""AO"",""SC""]","[""WF06"",""HM09"",""AF11"",""BF05""]","[4,7,1,6]","[6,8,2,4]","","",""
"show-reward","112","800797","0.0-112.0","p439909","A11F3MA5FWH6SJ","3OWZNK3RYMVDNXPNEIRWZ8JM6MU2UY","31T4R4OBOUMRAO3NO5SSQD9DTD27CR","model","match","uniform","","","","","","","","800079.700000003","802082","","","","","","","","","","","","7","","stimuli/stars_7.png","188.5","","","","","stimuli/HM09_SUR.jpg","",""
"explore-choice","113","802086","0.0-113.0","p439909","A11F3MA5FWH6SJ","3OWZNK3RYMVDNXPNEIRWZ8JM6MU2UY","31T4R4OBOUMRAO3NO5SSQD9DTD27CR","model","match","uniform","","","","","","","774.6000000089407","802082.5","802857.1000000089","[""stimuli/BF05_AO.jpg"",""stimuli/WF06_FO.jpg"",""stimuli/AF11_SC.jpg"",""stimuli/HM09_SUR.jpg""]","stimuli/BF05_AO.jpg","stimuli/WF06_FO.jpg","stimuli/AF11_SC.jpg","stimuli/HM09_SUR.jpg","pos4","stimuli/HM09_SUR.jpg","SUR","HM09","3","4","8","8","stimuli/stars_8.png","192.5","[""AO"",""FO"",""SC"",""SUR""]","[""BF05"",""WF06"",""AF11"",""HM09""]","[6,8,1,8]","[4,6,2,8]","","",""
"show-reward","114","804092","0.0-114.0","p439909","A11F3MA5FWH6SJ","3OWZNK3RYMVDNXPNEIRWZ8JM6MU2UY","31T4R4OBOUMRAO3NO5SSQD9DTD27CR","model","match","uniform","","","","","","","","803371.400000006","805377","","","","","","","","","","","","8","","stimuli/stars_8.png","192.5","","","","","stimuli/HM09_SUR.jpg","",""
"explore-choice","115","805334","0.0-115.0","p439909","A11F3MA5FWH6SJ","3OWZNK3RYMVDNXPNEIRWZ8JM6MU2UY","31T4R4OBOUMRAO3NO5SSQD9DTD27CR","model","match","uniform","","","","","","","727.3999999910593","805377.6000000089","806105","[""stimuli/WF06_AO.jpg"",""stimuli/AF11_SC.jpg"",""stimuli/HM09_FO.jpg"",""stimuli/BF05_SUR.jpg""]","stimuli/WF06_AO.jpg","stimuli/AF11_SC.jpg","stimuli/HM09_FO.jpg","stimuli/BF05_SUR.jpg","pos3","stimuli/HM09_FO.jpg","FO","HM09","2","4.5","9","8","stimuli/stars_9.png","197","[""AO"",""SC"",""FO"",""SUR""]","[""WF06"",""AF11"",""HM09"",""BF05""]","[7,0,9,2]","[6,2,8,4]","","",""
"show-reward","116","807336","0.0-116.0","p439909","A11F3MA5FWH6SJ","3OWZNK3RYMVDNXPNEIRWZ8JM6MU2UY","31T4R4OBOUMRAO3NO5SSQD9DTD27CR","model","match","uniform","","","","","","","","806619.1000000089","808620.6000000089","","","","","","","","","","","","9","","stimuli/stars_9.png","197","","","","","stimuli/HM09_FO.jpg","",""
"explore-choice","117","808746","0.0-117.0","p439909","A11F3MA5FWH6SJ","3OWZNK3RYMVDNXPNEIRWZ8JM6MU2UY","31T4R4OBOUMRAO3NO5SSQD9DTD27CR","model","match","uniform","","","","","","","908.2000000029802","808621","809529.200000003","[""stimuli/AF11_FO.jpg"",""stimuli/HM09_SUR.jpg"",""stimuli/WF06_AO.jpg"",""stimuli/BF05_SC.jpg""]","stimuli/AF11_FO.jpg","stimuli/HM09_SUR.jpg","stimuli/WF06_AO.jpg","stimuli/BF05_SC.jpg","pos2","stimuli/HM09_SUR.jpg","SUR","HM09","1","3.5","7","8","stimuli/stars_7.png","200.5","[""FO"",""SUR"",""AO"",""SC""]","[""AF11"",""HM09"",""WF06"",""BF05""]","[4,7,7,6]","[2,8,6,4]","","",""
"show-reward","118","810747","0.0-118.0","p439909","A11F3MA5FWH6SJ","3OWZNK3RYMVDNXPNEIRWZ8JM6MU2UY","31T4R4OBOUMRAO3NO5SSQD9DTD27CR","model","match","uniform","","","","","","","","810031.200000003","812032.3000000119","","","","","","","","","","","","7","","stimuli/stars_7.png","200.5","","","","","stimuli/HM09_SUR.jpg","",""
"explore-choice","119","812185","0.0-119.0","p439909","A11F3MA5FWH6SJ","3OWZNK3RYMVDNXPNEIRWZ8JM6MU2UY","31T4R4OBOUMRAO3NO5SSQD9DTD27CR","model","match","uniform","","","","","","","936.6000000089407","812032.700000003","812969.3000000119","[""stimuli/BF05_FO.jpg"",""stimuli/WF06_SUR.jpg"",""stimuli/HM09_SC.jpg"",""stimuli/AF11_AO.jpg""]","stimuli/BF05_FO.jpg","stimuli/WF06_SUR.jpg","stimuli/HM09_SC.jpg","stimuli/AF11_AO.jpg","pos3","stimuli/HM09_SC.jpg","SC","HM09","2","3.5","7","8","stimuli/stars_7.png","204","[""FO"",""SUR"",""SC"",""AO""]","[""BF05"",""WF06"",""HM09"",""AF11""]","[6,8,7,1]","[4,6,8,2]","","",""
"show-reward","120","814187","0.0-120.0","p439909","A11F3MA5FWH6SJ","3OWZNK3RYMVDNXPNEIRWZ8JM6MU2UY","31T4R4OBOUMRAO3NO5SSQD9DTD27CR","model","match","uniform","","","","","","","","813470.3000000119","815471.700000003","","","","","","","","","","","","7","","stimuli/stars_7.png","204","","","","","stimuli/HM09_SC.jpg","",""
"explore-choice","121","815192","0.0-121.0","p439909","A11F3MA5FWH6SJ","3OWZNK3RYMVDNXPNEIRWZ8JM6MU2UY","31T4R4OBOUMRAO3NO5SSQD9DTD27CR","model","match","uniform","","","","","","","497.09999999403954","815472.1000000089","815969.200000003","[""stimuli/AF11_SUR.jpg"",""stimuli/HM09_FO.jpg"",""stimuli/BF05_SC.jpg"",""stimuli/WF06_AO.jpg""]","stimuli/AF11_SUR.jpg","stimuli/HM09_FO.jpg","stimuli/BF05_SC.jpg","stimuli/WF06_AO.jpg","pos2","stimuli/HM09_FO.jpg","FO","HM09","1","4","8","8","stimuli/stars_8.png","208","[""SUR"",""FO"",""SC"",""AO""]","[""AF11"",""HM09"",""BF05"",""WF06""]","[3,8,5,7]","[2,8,4,6]","","",""
"show-reward","122","817193","0.0-122.0","p439909","A11F3MA5FWH6SJ","3OWZNK3RYMVDNXPNEIRWZ8JM6MU2UY","31T4R4OBOUMRAO3NO5SSQD9DTD27CR","model","match","uniform","","","","","","","","816476.900000006","818478.1000000089","","","","","","","","","","","","8","","stimuli/stars_8.png","208","","","","","stimuli/HM09_FO.jpg","",""
"explore-choice","123","818274","0.0-123.0","p439909","A11F3MA5FWH6SJ","3OWZNK3RYMVDNXPNEIRWZ8JM6MU2UY","31T4R4OBOUMRAO3NO5SSQD9DTD27CR","model","match","uniform","","","","","","","578.6000000089407","818478.5","819057.1000000089","[""stimuli/AF11_AO.jpg"",""stimuli/HM09_SUR.jpg"",""stimuli/BF05_FO.jpg"",""stimuli/WF06_SC.jpg""]","stimuli/AF11_AO.jpg","stimuli/HM09_SUR.jpg","stimuli/BF05_FO.jpg","stimuli/WF06_SC.jpg","pos2","stimuli/HM09_SUR.jpg","SUR","HM09","1","3","6","8","stimuli/stars_6.png","211","[""AO"",""SUR"",""FO"",""SC""]","[""AF11"",""HM09"",""BF05"",""WF06""]","[2,6,3,5]","[2,8,4,6]","","",""
"show-reward","124","820273","0.0-124.0","p439909","A11F3MA5FWH6SJ","3OWZNK3RYMVDNXPNEIRWZ8JM6MU2UY","31T4R4OBOUMRAO3NO5SSQD9DTD27CR","model","match","uniform","","","","","","","","819559","821560.400000006","","","","","","","","","","","","6","","stimuli/stars_6.png","211","","","","","stimuli/HM09_SUR.jpg","",""
"explore-choice","125","821967","0.0-125.0","p439909","A11F3MA5FWH6SJ","3OWZNK3RYMVDNXPNEIRWZ8JM6MU2UY","31T4R4OBOUMRAO3NO5SSQD9DTD27CR","model","match","uniform","","","","","","","1184.2999999970198","821560.900000006","822745.200000003","[""stimuli/HM09_FO.jpg"",""stimuli/BF05_AO.jpg"",""stimuli/WF06_SUR.jpg"",""stimuli/AF11_SC.jpg""]","stimuli/HM09_FO.jpg","stimuli/BF05_AO.jpg","stimuli/WF06_SUR.jpg","stimuli/AF11_SC.jpg","pos1","stimuli/HM09_FO.jpg","FO","HM09","0","3","6","8","stimuli/stars_6.png","214","[""FO"",""AO"",""SUR"",""SC""]","[""HM09"",""BF05"",""WF06"",""AF11""]","[6,3,7,2]","[8,4,6,2]","","",""
"show-reward","126","823978","0.0-126.0","p439909","A11F3MA5FWH6SJ","3OWZNK3RYMVDNXPNEIRWZ8JM6MU2UY","31T4R4OBOUMRAO3NO5SSQD9DTD27CR","model","match","uniform","","","","","","","","823255.200000003","825265.400000006","","","","","","","","","","","","6","","stimuli/stars_6.png","214","","","","","stimuli/HM09_FO.jpg","",""
"explore-choice","127","825207","0.0-127.0","p439909","A11F3MA5FWH6SJ","3OWZNK3RYMVDNXPNEIRWZ8JM6MU2UY","31T4R4OBOUMRAO3NO5SSQD9DTD27CR","model","match","uniform","","","","","","","719","825266","825985","[""stimuli/AF11_SC.jpg"",""stimuli/BF05_FO.jpg"",""stimuli/HM09_AO.jpg"",""stimuli/WF06_SUR.jpg""]","stimuli/AF11_SC.jpg","stimuli/BF05_FO.jpg","stimuli/HM09_AO.jpg","stimuli/WF06_SUR.jpg","pos3","stimuli/HM09_AO.jpg","AO","HM09","2","3.5","7","8","stimuli/stars_7.png","217.5","[""SC"",""FO"",""AO"",""SUR""]","[""AF11"",""BF05"",""HM09"",""WF06""]","[3,4,7,4]","[2,4,8,6]","","",""
"show-reward","128","827223","0.0-128.0","p439909","A11F3MA5FWH6SJ","3OWZNK3RYMVDNXPNEIRWZ8JM6MU2UY","31T4R4OBOUMRAO3NO5SSQD9DTD27CR","model","match","uniform","","","","","","","","826495.400000006","828510.3000000119","","","","","","","","","","","","7","","stimuli/stars_7.png","217.5","","","","","stimuli/HM09_AO.jpg","",""
"explore-choice","129","828263","0.0-129.0","p439909","A11F3MA5FWH6SJ","3OWZNK3RYMVDNXPNEIRWZ8JM6MU2UY","31T4R4OBOUMRAO3NO5SSQD9DTD27CR","model","match","uniform","","","","","","","538","828511","829049","[""stimuli/HM09_AO.jpg"",""stimuli/AF11_SUR.jpg"",""stimuli/BF05_FO.jpg"",""stimuli/WF06_SC.jpg""]","stimuli/HM09_AO.jpg","stimuli/AF11_SUR.jpg","stimuli/BF05_FO.jpg","stimuli/WF06_SC.jpg","pos1","stimuli/HM09_AO.jpg","AO","HM09","0","3","6","8","stimuli/stars_6.png","220.5","[""AO"",""SUR"",""FO"",""SC""]","[""HM09"",""AF11"",""BF05"",""WF06""]","[6,1,3,5]","[8,2,4,6]","","",""
"show-reward","130","830267","0.0-130.0","p439909","A11F3MA5FWH6SJ","3OWZNK3RYMVDNXPNEIRWZ8JM6MU2UY","31T4R4OBOUMRAO3NO5SSQD9DTD27CR","model","match","uniform","","","","","","","","829551.400000006","831554.8000000119","","","","","","","","","","","","6","","stimuli/stars_6.png","220.5","","","","","stimuli/HM09_AO.jpg","",""
"explore-choice","131","831818","0.0-131.0","p439909","A11F3MA5FWH6SJ","3OWZNK3RYMVDNXPNEIRWZ8JM6MU2UY","31T4R4OBOUMRAO3NO5SSQD9DTD27CR","model","match","uniform","","","","","","","1038","831555.200000003","832593.200000003","[""stimuli/BF05_SC.jpg"",""stimuli/AF11_AO.jpg"",""stimuli/HM09_FO.jpg"",""stimuli/WF06_SUR.jpg""]","stimuli/BF05_SC.jpg","stimuli/AF11_AO.jpg","stimuli/HM09_FO.jpg","stimuli/WF06_SUR.jpg","pos3","stimuli/HM09_FO.jpg","FO","HM09","2","4","8","8","stimuli/stars_8.png","224.5","[""SC"",""AO"",""FO"",""SUR""]","[""BF05"",""AF11"",""HM09"",""WF06""]","[4,0,8,7]","[4,2,8,6]","","",""
"show-reward","132","833821","0.0-132.0","p439909","A11F3MA5FWH6SJ","3OWZNK3RYMVDNXPNEIRWZ8JM6MU2UY","31T4R4OBOUMRAO3NO5SSQD9DTD27CR","model","match","uniform","","","","","","","","833106.3000000119","835108.900000006","","","","","","","","","","","","8","","stimuli/stars_8.png","224.5","","","","","stimuli/HM09_FO.jpg","",""
"explore-choice","133","835198","0.0-133.0","p439909","A11F3MA5FWH6SJ","3OWZNK3RYMVDNXPNEIRWZ8JM6MU2UY","31T4R4OBOUMRAO3NO5SSQD9DTD27CR","model","match","uniform","","","","","","","875.5999999940395","835109.3000000119","835984.900000006","[""stimuli/WF06_SC.jpg"",""stimuli/BF05_SUR.jpg"",""stimuli/AF11_AO.jpg"",""stimuli/HM09_FO.jpg""]","stimuli/WF06_SC.jpg","stimuli/BF05_SUR.jpg","stimuli/AF11_AO.jpg","stimuli/HM09_FO.jpg","pos4","stimuli/HM09_FO.jpg","FO","HM09","3","5","10","8","stimuli/stars_10.png","229.5","[""SC"",""SUR"",""AO"",""FO""]","[""WF06"",""BF05"",""AF11"",""HM09""]","[6,2,3,10]","[6,4,2,8]","","",""
"show-reward","134","837200","0.0-134.0","p439909","A11F3MA5FWH6SJ","3OWZNK3RYMVDNXPNEIRWZ8JM6MU2UY","31T4R4OBOUMRAO3NO5SSQD9DTD27CR","model","match","uniform","","","","","","","","836485.6000000089","838487.900000006","","","","","","","","","","","","10","","stimuli/stars_10.png","229.5","","","","","stimuli/HM09_FO.jpg","",""
"explore-choice","135","838512","0.0-135.0","p439909","A11F3MA5FWH6SJ","3OWZNK3RYMVDNXPNEIRWZ8JM6MU2UY","31T4R4OBOUMRAO3NO5SSQD9DTD27CR","model","match","uniform","","","","","","","808.8999999910593","838488.3000000119","839297.200000003","[""stimuli/BF05_FO.jpg"",""stimuli/HM09_SC.jpg"",""stimuli/AF11_SUR.jpg"",""stimuli/WF06_AO.jpg""]","stimuli/BF05_FO.jpg","stimuli/HM09_SC.jpg","stimuli/AF11_SUR.jpg","stimuli/WF06_AO.jpg","pos2","stimuli/HM09_SC.jpg","SC","HM09","1","3","6","8","stimuli/stars_6.png","232.5","[""FO"",""SC"",""SUR"",""AO""]","[""BF05"",""HM09"",""AF11"",""WF06""]","[6,6,3,5]","[4,8,2,6]","","",""
"show-reward","136","840514","0.0-136.0","p439909","A11F3MA5FWH6SJ","3OWZNK3RYMVDNXPNEIRWZ8JM6MU2UY","31T4R4OBOUMRAO3NO5SSQD9DTD27CR","model","match","uniform","","","","","","","","839800.200000003","841801.8000000119","","","","","","","","","","","","6","","stimuli/stars_6.png","232.5","","","","","stimuli/HM09_SC.jpg","",""
"explore-choice","137","841630","0.0-137.0","p439909","A11F3MA5FWH6SJ","3OWZNK3RYMVDNXPNEIRWZ8JM6MU2UY","31T4R4OBOUMRAO3NO5SSQD9DTD27CR","model","match","uniform","","","","","","","615","841802.200000003","842417.200000003","[""stimuli/BF05_AO.jpg"",""stimuli/HM09_SUR.jpg"",""stimuli/WF06_SC.jpg"",""stimuli/AF11_FO.jpg""]","stimuli/BF05_AO.jpg","stimuli/HM09_SUR.jpg","stimuli/WF06_SC.jpg","stimuli/AF11_FO.jpg","pos2","stimuli/HM09_SUR.jpg","SUR","HM09","1","3.5","7","8","stimuli/stars_7.png","236","[""AO"",""SUR"",""SC"",""FO""]","[""BF05"",""HM09"",""WF06"",""AF11""]","[6,7,4,2]","[4,8,6,2]","","",""
"show-reward","138","843644","0.0-138.0","p439909","A11F3MA5FWH6SJ","3OWZNK3RYMVDNXPNEIRWZ8JM6MU2UY","31T4R4OBOUMRAO3NO5SSQD9DTD27CR","model","match","uniform","","","","","","","","842918.200000003","844932.1000000089","","","","","","","","","","","","7","","stimuli/stars_7.png","236","","","","","stimuli/HM09_SUR.jpg","",""
"explore-choice","139","844859","0.0-139.0","p439909","A11F3MA5FWH6SJ","3OWZNK3RYMVDNXPNEIRWZ8JM6MU2UY","31T4R4OBOUMRAO3NO5SSQD9DTD27CR","model","match","uniform","","","","","","","708.6000000089407","844932.5","845641.1000000089","[""stimuli/AF11_SUR.jpg"",""stimuli/BF05_SC.jpg"",""stimuli/WF06_FO.jpg"",""stimuli/HM09_AO.jpg""]","stimuli/AF11_SUR.jpg","stimuli/BF05_SC.jpg","stimuli/WF06_FO.jpg","stimuli/HM09_AO.jpg","pos4","stimuli/HM09_AO.jpg","AO","HM09","3","4.5","9","8","stimuli/stars_9.png","240.5","[""SUR"",""SC"",""FO"",""AO""]","[""AF11"",""BF05"",""WF06"",""HM09""]","[2,6,4,9]","[2,4,6,8]","","",""
"show-reward","140","846871","0.0-140.0","p439909","A11F3MA5FWH6SJ","3OWZNK3RYMVDNXPNEIRWZ8JM6MU2UY","31T4R4OBOUMRAO3NO5SSQD9DTD27CR","model","match","uniform","","","","","","","","846146.8000000119","848158.5","","","","","","","","","","","","9","","stimuli/stars_9.png","240.5","","","","","stimuli/HM09_AO.jpg","",""
"explore-choice","141","847971","0.0-141.0","p439909","A11F3MA5FWH6SJ","3OWZNK3RYMVDNXPNEIRWZ8JM6MU2UY","31T4R4OBOUMRAO3NO5SSQD9DTD27CR","model","match","uniform","","","","","","","594.2000000029802","848158.900000006","848753.1000000089","[""stimuli/WF06_AO.jpg"",""stimuli/HM09_SUR.jpg"",""stimuli/AF11_SC.jpg"",""stimuli/BF05_FO.jpg""]","stimuli/WF06_AO.jpg","stimuli/HM09_SUR.jpg","stimuli/AF11_SC.jpg","stimuli/BF05_FO.jpg","pos2","stimuli/HM09_SUR.jpg","SUR","HM09","1","3.5","7","8","stimuli/stars_7.png","244","[""AO"",""SUR"",""SC"",""FO""]","[""WF06"",""HM09"",""AF11"",""BF05""]","[7,7,0,2]","[6,8,2,4]","","",""
"show-reward","142","849973","0.0-142.0","p439909","A11F3MA5FWH6SJ","3OWZNK3RYMVDNXPNEIRWZ8JM6MU2UY","31T4R4OBOUMRAO3NO5SSQD9DTD27CR","model","match","uniform","","","","","","","","849259","851261.1000000089","","","","","","","","","","","","7","","stimuli/stars_7.png","244","","","","","stimuli/HM09_SUR.jpg","",""
"explore-choice","143","851078","0.0-143.0","p439909","A11F3MA5FWH6SJ","3OWZNK3RYMVDNXPNEIRWZ8JM6MU2UY","31T4R4OBOUMRAO3NO5SSQD9DTD27CR","model","match","uniform","","","","","","","603.7000000029802","851261.6000000089","851865.3000000119","[""stimuli/AF11_SC.jpg"",""stimuli/WF06_FO.jpg"",""stimuli/BF05_SUR.jpg"",""stimuli/HM09_AO.jpg""]","stimuli/AF11_SC.jpg","stimuli/WF06_FO.jpg","stimuli/BF05_SUR.jpg","stimuli/HM09_AO.jpg","pos4","stimuli/HM09_AO.jpg","AO","HM09","3","4","8","8","stimuli/stars_8.png","248","[""SC"",""FO"",""SUR"",""AO""]","[""AF11"",""WF06"",""BF05"",""HM09""]","[1,6,3,8]","[2,6,4,8]","","",""
"show-reward","144","853080","0.0-144.0","p439909","A11F3MA5FWH6SJ","3OWZNK3RYMVDNXPNEIRWZ8JM6MU2UY","31T4R4OBOUMRAO3NO5SSQD9DTD27CR","model","match","uniform","","","","","","","","852366.1000000089","854367.700000003","","","","","","","","","","","","8","","stimuli/stars_8.png","248","","","","","stimuli/HM09_AO.jpg","",""
"explore-choice","145","854862","0.0-145.0","p439909","A11F3MA5FWH6SJ","3OWZNK3RYMVDNXPNEIRWZ8JM6MU2UY","31T4R4OBOUMRAO3NO5SSQD9DTD27CR","model","match","uniform","","","","","","","1281.1000000089407","854368","855649.1000000089","[""stimuli/HM09_AO.jpg"",""stimuli/AF11_FO.jpg"",""stimuli/BF05_SC.jpg"",""stimuli/WF06_SUR.jpg""]","stimuli/HM09_AO.jpg","stimuli/AF11_FO.jpg","stimuli/BF05_SC.jpg","stimuli/WF06_SUR.jpg","pos1","stimuli/HM09_AO.jpg","AO","HM09","0","3","6","8","stimuli/stars_6.png","251","[""AO"",""FO"",""SC"",""SUR""]","[""HM09"",""AF11"",""BF05"",""WF06""]","[6,4,3,5]","[8,2,4,6]","","",""
"show-reward","146","856864","0.0-146.0","p439909","A11F3MA5FWH6SJ","3OWZNK3RYMVDNXPNEIRWZ8JM6MU2UY","31T4R4OBOUMRAO3NO5SSQD9DTD27CR","model","match","uniform","","","","","","","","856150.400000006","858151.6000000089","","","","","","","","","","","","6","","stimuli/stars_6.png","251","","","","","stimuli/HM09_AO.jpg","",""
"explore-choice","147","858454","0.0-147.0","p439909","A11F3MA5FWH6SJ","3OWZNK3RYMVDNXPNEIRWZ8JM6MU2UY","31T4R4OBOUMRAO3NO5SSQD9DTD27CR","model","match","uniform","","","","","","","1080.8999999910593","858152.1000000089","859233","[""stimuli/BF05_SUR.jpg"",""stimuli/HM09_SC.jpg"",""stimuli/WF06_AO.jpg"",""stimuli/AF11_FO.jpg""]","stimuli/BF05_SUR.jpg","stimuli/HM09_SC.jpg","stimuli/WF06_AO.jpg","stimuli/AF11_FO.jpg","pos2","stimuli/HM09_SC.jpg","SC","HM09","1","4.5","9","8","stimuli/stars_9.png","255.5","[""SUR"",""SC"",""AO"",""FO""]","[""BF05"",""HM09"",""WF06"",""AF11""]","[3,9,8,2]","[4,8,6,2]","","",""
"show-reward","148","860456","0.0-148.0","p439909","A11F3MA5FWH6SJ","3OWZNK3RYMVDNXPNEIRWZ8JM6MU2UY","31T4R4OBOUMRAO3NO5SSQD9DTD27CR","model","match","uniform","","","","","","","","859741.8000000119","861743.200000003","","","","","","","","","","","","9","","stimuli/stars_9.png","255.5","","","","","stimuli/HM09_SC.jpg","",""
"explore-choice","149","861526","0.0-149.0","p439909","A11F3MA5FWH6SJ","3OWZNK3RYMVDNXPNEIRWZ8JM6MU2UY","31T4R4OBOUMRAO3NO5SSQD9DTD27CR","model","match","uniform","","","","","","","569.4000000059605","861743.700000003","862313.1000000089","[""stimuli/HM09_FO.jpg"",""stimuli/BF05_AO.jpg"",""stimuli/AF11_SUR.jpg"",""stimuli/WF06_SC.jpg""]","stimuli/HM09_FO.jpg","stimuli/BF05_AO.jpg","stimuli/AF11_SUR.jpg","stimuli/WF06_SC.jpg","pos1","stimuli/HM09_FO.jpg","FO","HM09","0","4.5","9","8","stimuli/stars_9.png","260","[""FO"",""AO"",""SUR"",""SC""]","[""HM09"",""BF05"",""AF11"",""WF06""]","[9,6,1,4]","[8,4,2,6]","","",""
"show-reward","150","863532","0.0-150.0","p439909","A11F3MA5FWH6SJ","3OWZNK3RYMVDNXPNEIRWZ8JM6MU2UY","31T4R4OBOUMRAO3NO5SSQD9DTD27CR","model","match","uniform","","","","","","","","862814.1000000089","864819.200000003","","","","","","","","","","","","9","","stimuli/stars_9.png","260","","","","","stimuli/HM09_FO.jpg","",""
"explore-choice","151","865998","0.0-151.0","p439909","A11F3MA5FWH6SJ","3OWZNK3RYMVDNXPNEIRWZ8JM6MU2UY","31T4R4OBOUMRAO3NO5SSQD9DTD27CR","model","match","uniform","","","","","","","1965.4000000059605","864819.700000003","866785.1000000089","[""stimuli/AF11_AO.jpg"",""stimuli/HM09_FO.jpg"",""stimuli/WF06_SUR.jpg"",""stimuli/BF05_SC.jpg""]","stimuli/AF11_AO.jpg","stimuli/HM09_FO.jpg","stimuli/WF06_SUR.jpg","stimuli/BF05_SC.jpg","pos2","stimuli/HM09_FO.jpg","FO","HM09","1","4","8","8","stimuli/stars_8.png","264","[""AO"",""FO"",""SUR"",""SC""]","[""AF11"",""HM09"",""WF06"",""BF05""]","[0,8,7,4]","[2,8,6,4]","","",""
"show-reward","152","868000","0.0-152.0","p439909","A11F3MA5FWH6SJ","3OWZNK3RYMVDNXPNEIRWZ8JM6MU2UY","31T4R4OBOUMRAO3NO5SSQD9DTD27CR","model","match","uniform","","","","","","","","867286","869287.8000000119","","","","","","","","","","","","8","","stimuli/stars_8.png","264","","","","","stimuli/HM09_FO.jpg","",""
"explore-choice","153","870814","0.0-153.0","p439909","A11F3MA5FWH6SJ","3OWZNK3RYMVDNXPNEIRWZ8JM6MU2UY","31T4R4OBOUMRAO3NO5SSQD9DTD27CR","model","match","uniform","","","","","","","2304.3999999910593","869288.6000000089","871593","[""stimuli/AF11_SUR.jpg"",""stimuli/WF06_SC.jpg"",""stimuli/HM09_AO.jpg"",""stimuli/BF05_FO.jpg""]","stimuli/AF11_SUR.jpg","stimuli/WF06_SC.jpg","stimuli/HM09_AO.jpg","stimuli/BF05_FO.jpg","pos3","stimuli/HM09_AO.jpg","AO","HM09","2","3","6","8","stimuli/stars_6.png","267","[""SUR"",""SC"",""AO"",""FO""]","[""AF11"",""WF06"",""HM09"",""BF05""]","[1,5,6,3]","[2,6,8,4]","","",""
"show-reward","154","872817","0.0-154.0","p439909","A11F3MA5FWH6SJ","3OWZNK3RYMVDNXPNEIRWZ8JM6MU2UY","31T4R4OBOUMRAO3NO5SSQD9DTD27CR","model","match","uniform","","","","","","","","872102.1000000089","874104.400000006","","","","","","","","","","","","6","","stimuli/stars_6.png","267","","","","","stimuli/HM09_AO.jpg","",""
"explore-choice","155","874596","0.0-155.0","p439909","A11F3MA5FWH6SJ","3OWZNK3RYMVDNXPNEIRWZ8JM6MU2UY","31T4R4OBOUMRAO3NO5SSQD9DTD27CR","model","match","uniform","","","","","","","1272.2000000029802","874104.900000006","875377.1000000089","[""stimuli/BF05_AO.jpg"",""stimuli/AF11_FO.jpg"",""stimuli/HM09_SUR.jpg"",""stimuli/WF06_SC.jpg""]","stimuli/BF05_AO.jpg","stimuli/AF11_FO.jpg","stimuli/HM09_SUR.jpg","stimuli/WF06_SC.jpg","pos3","stimuli/HM09_SUR.jpg","SUR","HM09","2","3.5","7","8","stimuli/stars_7.png","270.5","[""AO"",""FO"",""SUR"",""SC""]","[""BF05"",""AF11"",""HM09"",""WF06""]","[6,2,7,4]","[4,2,8,6]","","",""
"show-reward","156","876604","0.0-156.0","p439909","A11F3MA5FWH6SJ","3OWZNK3RYMVDNXPNEIRWZ8JM6MU2UY","31T4R4OBOUMRAO3NO5SSQD9DTD27CR","model","match","uniform","","","","","","","","875883.900000006","877891.200000003","","","","","","","","","","","","7","","stimuli/stars_7.png","270.5","","","","","stimuli/HM09_SUR.jpg","",""
"explore-choice","157","877727","0.0-157.0","p439909","A11F3MA5FWH6SJ","3OWZNK3RYMVDNXPNEIRWZ8JM6MU2UY","31T4R4OBOUMRAO3NO5SSQD9DTD27CR","model","match","uniform","","","","","","","621.6000000089407","877891.700000003","878513.3000000119","[""stimuli/HM09_SUR.jpg"",""stimuli/AF11_SC.jpg"",""stimuli/WF06_AO.jpg"",""stimuli/BF05_FO.jpg""]","stimuli/HM09_SUR.jpg","stimuli/AF11_SC.jpg","stimuli/WF06_AO.jpg","stimuli/BF05_FO.jpg","pos1","stimuli/HM09_SUR.jpg","SUR","HM09","0","3.5","7","8","stimuli/stars_7.png","274","[""SUR"",""SC"",""AO"",""FO""]","[""HM09"",""AF11"",""WF06"",""BF05""]","[7,0,7,2]","[8,2,6,4]","","",""
"show-reward","158","879734","0.0-158.0","p439909","A11F3MA5FWH6SJ","3OWZNK3RYMVDNXPNEIRWZ8JM6MU2UY","31T4R4OBOUMRAO3NO5SSQD9DTD27CR","model","match","uniform","","","","","","","","879015.3000000119","881024.400000006","","","","","","","","","","","","7","","stimuli/stars_7.png","274","","","","","stimuli/HM09_SUR.jpg","",""
"explore-choice","159","880935","0.0-159.0","p439909","A11F3MA5FWH6SJ","3OWZNK3RYMVDNXPNEIRWZ8JM6MU2UY","31T4R4OBOUMRAO3NO5SSQD9DTD27CR","model","match","uniform","","","","","","","688.2000000029802","881025","881713.200000003","[""stimuli/WF06_SUR.jpg"",""stimuli/HM09_AO.jpg"",""stimuli/AF11_SC.jpg"",""stimuli/BF05_FO.jpg""]","stimuli/WF06_SUR.jpg","stimuli/HM09_AO.jpg","stimuli/AF11_SC.jpg","stimuli/BF05_FO.jpg","pos2","stimuli/HM09_AO.jpg","AO","HM09","1","3.5","7","8","stimuli/stars_7.png","277.5","[""SUR"",""AO"",""SC"",""FO""]","[""WF06"",""HM09"",""AF11"",""BF05""]","[4,7,3,4]","[6,8,2,4]","","",""
"show-reward","160","882951","0.0-160.0","p439909","A11F3MA5FWH6SJ","3OWZNK3RYMVDNXPNEIRWZ8JM6MU2UY","31T4R4OBOUMRAO3NO5SSQD9DTD27CR","model","match","uniform","","","","","","","","882226.700000003","884241.700000003","","","","","","","","","","","","7","","stimuli/stars_7.png","277.5","","","","","stimuli/HM09_AO.jpg","",""
"explore-choice","161","884384","0.0-161.0","p439909","A11F3MA5FWH6SJ","3OWZNK3RYMVDNXPNEIRWZ8JM6MU2UY","31T4R4OBOUMRAO3NO5SSQD9DTD27CR","model","match","uniform","","","","","","","919.1000000089407","884242.200000003","885161.3000000119","[""stimuli/AF11_SC.jpg"",""stimuli/BF05_SUR.jpg"",""stimuli/WF06_FO.jpg"",""stimuli/HM09_AO.jpg""]","stimuli/AF11_SC.jpg","stimuli/BF05_SUR.jpg","stimuli/WF06_FO.jpg","stimuli/HM09_AO.jpg","pos4","stimuli/HM09_AO.jpg","AO","HM09","3","4","8","8","stimuli/stars_8.png","281.5","[""SC"",""SUR"",""FO"",""AO""]","[""AF11"",""BF05"",""WF06"",""HM09""]","[1,3,6,8]","[2,4,6,8]","","",""
"show-reward","162","886386","0.0-162.0","p439909","A11F3MA5FWH6SJ","3OWZNK3RYMVDNXPNEIRWZ8JM6MU2UY","31T4R4OBOUMRAO3NO5SSQD9DTD27CR","model","match","uniform","","","","","","","","885675.900000006","887677","","","","","","","","","","","","8","","stimuli/stars_8.png","281.5","","","","","stimuli/HM09_AO.jpg","",""
"explore-choice","163","887795","0.0-163.0","p439909","A11F3MA5FWH6SJ","3OWZNK3RYMVDNXPNEIRWZ8JM6MU2UY","31T4R4OBOUMRAO3NO5SSQD9DTD27CR","model","match","uniform","","","","","","","907.7000000029802","887677.400000006","888585.1000000089","[""stimuli/AF11_FO.jpg"",""stimuli/WF06_SUR.jpg"",""stimuli/HM09_AO.jpg"",""stimuli/BF05_SC.jpg""]","stimuli/AF11_FO.jpg","stimuli/WF06_SUR.jpg","stimuli/HM09_AO.jpg","stimuli/BF05_SC.jpg","pos3","stimuli/HM09_AO.jpg","AO","HM09","2","3","6","8","stimuli/stars_6.png","284.5","[""FO"",""SUR"",""AO"",""SC""]","[""AF11"",""WF06"",""HM09"",""BF05""]","[4,5,6,3]","[2,6,8,4]","","",""
"show-reward","164","889806","0.0-164.0","p439909","A11F3MA5FWH6SJ","3OWZNK3RYMVDNXPNEIRWZ8JM6MU2UY","31T4R4OBOUMRAO3NO5SSQD9DTD27CR","model","match","uniform","","","","","","","","889086.6000000089","891097.1000000089","","","","","","","","","","","","6","","stimuli/stars_6.png","284.5","","","","","stimuli/HM09_AO.jpg","",""
"explore-choice","165","890998","0.0-165.0","p439909","A11F3MA5FWH6SJ","3OWZNK3RYMVDNXPNEIRWZ8JM6MU2UY","31T4R4OBOUMRAO3NO5SSQD9DTD27CR","model","match","uniform","","","","","","","679.5","891097.700000003","891777.200000003","[""stimuli/AF11_SUR.jpg"",""stimuli/BF05_SC.jpg"",""stimuli/HM09_AO.jpg"",""stimuli/WF06_FO.jpg""]","stimuli/AF11_SUR.jpg","stimuli/BF05_SC.jpg","stimuli/HM09_AO.jpg","stimuli/WF06_FO.jpg","pos3","stimuli/HM09_AO.jpg","AO","HM09","2","4.5","9","8","stimuli/stars_9.png","289","[""SUR"",""SC"",""AO"",""FO""]","[""AF11"",""BF05"",""HM09"",""WF06""]","[2,6,9,4]","[2,4,8,6]","","",""
"show-reward","166","893006","0.0-166.0","p439909","A11F3MA5FWH6SJ","3OWZNK3RYMVDNXPNEIRWZ8JM6MU2UY","31T4R4OBOUMRAO3NO5SSQD9DTD27CR","model","match","uniform","","","","","","","","892289.5","894297.3000000119","","","","","","","","","","","","9","","stimuli/stars_9.png","289","","","","","stimuli/HM09_AO.jpg","",""
"explore-choice","167","894345","0.0-167.0","p439909","A11F3MA5FWH6SJ","3OWZNK3RYMVDNXPNEIRWZ8JM6MU2UY","31T4R4OBOUMRAO3NO5SSQD9DTD27CR","model","match","uniform","","","","","","","823.1999999880791","894297.8000000119","895121","[""stimuli/WF06_FO.jpg"",""stimuli/AF11_AO.jpg"",""stimuli/BF05_SUR.jpg"",""stimuli/HM09_SC.jpg""]","stimuli/WF06_FO.jpg","stimuli/AF11_AO.jpg","stimuli/BF05_SUR.jpg","stimuli/HM09_SC.jpg","pos4","stimuli/HM09_SC.jpg","SC","HM09","3","4","8","8","stimuli/stars_8.png","293","[""FO"",""AO"",""SUR"",""SC""]","[""WF06"",""AF11"",""BF05"",""HM09""]","[4,0,5,8]","[6,2,4,8]","","",""
"show-reward","168","896356","0.0-168.0","p439909","A11F3MA5FWH6SJ","3OWZNK3RYMVDNXPNEIRWZ8JM6MU2UY","31T4R4OBOUMRAO3NO5SSQD9DTD27CR","model","match","uniform","","","","","","","","895636.5","897646.700000003","","","","","","","","","","","","8","","stimuli/stars_8.png","293","","","","","stimuli/HM09_SC.jpg","",""
"explore-choice","169","897750","0.0-169.0","p439909","A11F3MA5FWH6SJ","3OWZNK3RYMVDNXPNEIRWZ8JM6MU2UY","31T4R4OBOUMRAO3NO5SSQD9DTD27CR","model","match","uniform","","","","","","","881.7999999970198","897647.400000006","898529.200000003","[""stimuli/WF06_SUR.jpg"",""stimuli/BF05_AO.jpg"",""stimuli/AF11_FO.jpg"",""stimuli/HM09_SC.jpg""]","stimuli/WF06_SUR.jpg","stimuli/BF05_AO.jpg","stimuli/AF11_FO.jpg","stimuli/HM09_SC.jpg","pos4","stimuli/HM09_SC.jpg","SC","HM09","3","3","6","8","stimuli/stars_6.png","296","[""SUR"",""AO"",""FO"",""SC""]","[""WF06"",""BF05"",""AF11"",""HM09""]","[8,6,2,6]","[6,4,2,8]","","",""
"show-reward","170","899758","0.0-170.0","p439909","A11F3MA5FWH6SJ","3OWZNK3RYMVDNXPNEIRWZ8JM6MU2UY","31T4R4OBOUMRAO3NO5SSQD9DTD27CR","model","match","uniform","","","","","","","","899041.200000003","901049","","","","","","","","","","","","6","","stimuli/stars_6.png","296","","","","","stimuli/HM09_SC.jpg","",""
"explore-choice","171","901203","0.0-171.0","p439909","A11F3MA5FWH6SJ","3OWZNK3RYMVDNXPNEIRWZ8JM6MU2UY","31T4R4OBOUMRAO3NO5SSQD9DTD27CR","model","match","uniform","","","","","","","943.6000000089407","901049.5","901993.1000000089","[""stimuli/BF05_SC.jpg"",""stimuli/WF06_FO.jpg"",""stimuli/HM09_SUR.jpg"",""stimuli/AF11_AO.jpg""]","stimuli/BF05_SC.jpg","stimuli/WF06_FO.jpg","stimuli/HM09_SUR.jpg","stimuli/AF11_AO.jpg","pos3","stimuli/HM09_SUR.jpg","SUR","HM09","2","3.5","7","8","stimuli/stars_7.png","299.5","[""SC"",""FO"",""SUR"",""AO""]","[""BF05"",""WF06"",""HM09"",""AF11""]","[6,4,7,1]","[4,6,8,2]","","",""
"show-reward","172","903206","0.0-172.0","p439909","A11F3MA5FWH6SJ","3OWZNK3RYMVDNXPNEIRWZ8JM6MU2UY","31T4R4OBOUMRAO3NO5SSQD9DTD27CR","model","match","uniform","","","","","","","","902495.1000000089","904497","","","","","","","","","","","","7","","stimuli/stars_7.png","299.5","","","","","stimuli/HM09_SUR.jpg","",""
"explore-choice","173","904299","0.0-173.0","p439909","A11F3MA5FWH6SJ","3OWZNK3RYMVDNXPNEIRWZ8JM6MU2UY","31T4R4OBOUMRAO3NO5SSQD9DTD27CR","model","match","uniform","","","","","","","583.5","904497.6000000089","905081.1000000089","[""stimuli/AF11_AO.jpg"",""stimuli/BF05_FO.jpg"",""stimuli/HM09_SUR.jpg"",""stimuli/WF06_SC.jpg""]","stimuli/AF11_AO.jpg","stimuli/BF05_FO.jpg","stimuli/HM09_SUR.jpg","stimuli/WF06_SC.jpg","pos3","stimuli/HM09_SUR.jpg","SUR","HM09","2","3","6","8","stimuli/stars_6.png","302.5","[""AO"",""FO"",""SUR"",""SC""]","[""AF11"",""BF05"",""HM09"",""WF06""]","[2,3,6,5]","[2,4,8,6]","","",""
"show-reward","174","906306","0.0-174.0","p439909","A11F3MA5FWH6SJ","3OWZNK3RYMVDNXPNEIRWZ8JM6MU2UY","31T4R4OBOUMRAO3NO5SSQD9DTD27CR","model","match","uniform","","","","","","","","905590.6000000089","907597.1000000089","","","","","","","","","","","","6","","stimuli/stars_6.png","302.5","","","","","stimuli/HM09_SUR.jpg","",""
"explore-choice","175","907627","0.0-175.0","p439909","A11F3MA5FWH6SJ","3OWZNK3RYMVDNXPNEIRWZ8JM6MU2UY","31T4R4OBOUMRAO3NO5SSQD9DTD27CR","model","match","uniform","","","","","","","819.2999999970198","907597.8000000119","908417.1000000089","[""stimuli/AF11_SUR.jpg"",""stimuli/HM09_FO.jpg"",""stimuli/WF06_AO.jpg"",""stimuli/BF05_SC.jpg""]","stimuli/AF11_SUR.jpg","stimuli/HM09_FO.jpg","stimuli/WF06_AO.jpg","stimuli/BF05_SC.jpg","pos2","stimuli/HM09_FO.jpg","FO","HM09","1","4","8","8","stimuli/stars_8.png","306.5","[""SUR"",""FO"",""AO"",""SC""]","[""AF11"",""HM09"",""WF06"",""BF05""]","[3,8,7,5]","[2,8,6,4]","","",""
"show-reward","176","909629","0.0-176.0","p439909","A11F3MA5FWH6SJ","3OWZNK3RYMVDNXPNEIRWZ8JM6MU2UY","31T4R4OBOUMRAO3NO5SSQD9DTD27CR","model","match","uniform","","","","","","","","908918.400000006","910919.900000006","","","","","","","","","","","","8","","stimuli/stars_8.png","306.5","","","","","stimuli/HM09_FO.jpg","",""
"explore-choice","177","910800","0.0-177.0","p439909","A11F3MA5FWH6SJ","3OWZNK3RYMVDNXPNEIRWZ8JM6MU2UY","31T4R4OBOUMRAO3NO5SSQD9DTD27CR","model","match","uniform","","","","","","","656.7999999970198","910920.6000000089","911577.400000006","[""stimuli/AF11_SUR.jpg"",""stimuli/BF05_AO.jpg"",""stimuli/HM09_FO.jpg"",""stimuli/WF06_SC.jpg""]","stimuli/AF11_SUR.jpg","stimuli/BF05_AO.jpg","stimuli/HM09_FO.jpg","stimuli/WF06_SC.jpg","pos3","stimuli/HM09_FO.jpg","FO","HM09","2","4.5","9","8","stimuli/stars_9.png","311","[""SUR"",""AO"",""FO"",""SC""]","[""AF11"",""BF05"",""HM09"",""WF06""]","[1,6,9,4]","[2,4,8,6]","","",""
"show-reward","178","912815","0.0-178.0","p439909","A11F3MA5FWH6SJ","3OWZNK3RYMVDNXPNEIRWZ8JM6MU2UY","31T4R4OBOUMRAO3NO5SSQD9DTD27CR","model","match","uniform","","","","","","","","912091.8000000119","914106.400000006","","","","","","","","","","","","9","","stimuli/stars_9.png","311","","","","","stimuli/HM09_FO.jpg","",""
"explore-choice","179","913948","0.0-179.0","p439909","A11F3MA5FWH6SJ","3OWZNK3RYMVDNXPNEIRWZ8JM6MU2UY","31T4R4OBOUMRAO3NO5SSQD9DTD27CR","model","match","uniform","","","","","","","622.0999999940395","914106.900000006","914729","[""stimuli/HM09_SC.jpg"",""stimuli/AF11_FO.jpg"",""stimuli/BF05_SUR.jpg"",""stimuli/WF06_AO.jpg""]","stimuli/HM09_SC.jpg","stimuli/AF11_FO.jpg","stimuli/BF05_SUR.jpg","stimuli/WF06_AO.jpg","pos1","stimuli/HM09_SC.jpg","SC","HM09","0","4.5","9","8","stimuli/stars_9.png","315.5","[""SC"",""FO"",""SUR"",""AO""]","[""HM09"",""AF11"",""BF05"",""WF06""]","[9,2,3,8]","[8,2,4,6]","","",""
"show-reward","180","915950","0.0-180.0","p439909","A11F3MA5FWH6SJ","3OWZNK3RYMVDNXPNEIRWZ8JM6MU2UY","31T4R4OBOUMRAO3NO5SSQD9DTD27CR","model","match","uniform","","","","","","","","915239.5","917241.5","","","","","","","","","","","","9","","stimuli/stars_9.png","315.5","","","","","stimuli/HM09_SC.jpg","",""
"explore-choice","181","917181","0.0-181.0","p439909","A11F3MA5FWH6SJ","3OWZNK3RYMVDNXPNEIRWZ8JM6MU2UY","31T4R4OBOUMRAO3NO5SSQD9DTD27CR","model","match","uniform","","","","","","","719.5","917241.8000000119","917961.3000000119","[""stimuli/AF11_SC.jpg"",""stimuli/BF05_SUR.jpg"",""stimuli/WF06_AO.jpg"",""stimuli/HM09_FO.jpg""]","stimuli/AF11_SC.jpg","stimuli/BF05_SUR.jpg","stimuli/WF06_AO.jpg","stimuli/HM09_FO.jpg","pos4","stimuli/HM09_FO.jpg","FO","HM09","3","4.5","9","8","stimuli/stars_9.png","320","[""SC"",""SUR"",""AO"",""FO""]","[""AF11"",""BF05"",""WF06"",""HM09""]","[0,2,7,9]","[2,4,6,8]","","",""
"show-reward","182","919182","0.0-182.0","p439909","A11F3MA5FWH6SJ","3OWZNK3RYMVDNXPNEIRWZ8JM6MU2UY","31T4R4OBOUMRAO3NO5SSQD9DTD27CR","model","match","uniform","","","","","","","","918472.200000003","920473.1000000089","","","","","","","","","","","","9","","stimuli/stars_9.png","320","","","","","stimuli/HM09_FO.jpg","",""
"explore-choice","183","920313","0.0-183.0","p439909","A11F3MA5FWH6SJ","3OWZNK3RYMVDNXPNEIRWZ8JM6MU2UY","31T4R4OBOUMRAO3NO5SSQD9DTD27CR","model","match","uniform","","","","","","","615.7000000029802","920473.6000000089","921089.3000000119","[""stimuli/HM09_FO.jpg"",""stimuli/BF05_SUR.jpg"",""stimuli/WF06_SC.jpg"",""stimuli/AF11_AO.jpg""]","stimuli/HM09_FO.jpg","stimuli/BF05_SUR.jpg","stimuli/WF06_SC.jpg","stimuli/AF11_AO.jpg","pos1","stimuli/HM09_FO.jpg","FO","HM09","0","5","10","8","stimuli/stars_10.png","325","[""FO"",""SUR"",""SC"",""AO""]","[""HM09"",""BF05"",""WF06"",""AF11""]","[10,2,6,3]","[8,4,6,2]","","",""
"show-reward","184","922316","0.0-184.0","p439909","A11F3MA5FWH6SJ","3OWZNK3RYMVDNXPNEIRWZ8JM6MU2UY","31T4R4OBOUMRAO3NO5SSQD9DTD27CR","model","match","uniform","","","","","","","","921605","923606.5","","","","","","","","","","","","10","","stimuli/stars_10.png","325","","","","","stimuli/HM09_FO.jpg","",""
"explore-choice","185","923380","0.0-185.0","p439909","A11F3MA5FWH6SJ","3OWZNK3RYMVDNXPNEIRWZ8JM6MU2UY","31T4R4OBOUMRAO3NO5SSQD9DTD27CR","model","match","uniform","","","","","","","562.1000000089407","923607","924169.1000000089","[""stimuli/HM09_FO.jpg"",""stimuli/AF11_SC.jpg"",""stimuli/BF05_AO.jpg"",""stimuli/WF06_SUR.jpg""]","stimuli/HM09_FO.jpg","stimuli/AF11_SC.jpg","stimuli/BF05_AO.jpg","stimuli/WF06_SUR.jpg","pos1","stimuli/HM09_FO.jpg","FO","HM09","0","3","6","8","stimuli/stars_6.png","328","[""FO"",""SC"",""AO"",""SUR""]","[""HM09"",""AF11"",""BF05"",""WF06""]","[6,2,3,7]","[8,2,4,6]","","",""
"show-reward","186","925396","0.0-186.0","p439909","A11F3MA5FWH6SJ","3OWZNK3RYMVDNXPNEIRWZ8JM6MU2UY","31T4R4OBOUMRAO3NO5SSQD9DTD27CR","model","match","uniform","","","","","","","","924671.200000003","926686.900000006","","","","","","","","","","","","6","","stimuli/stars_6.png","328","","","","","stimuli/HM09_FO.jpg","",""
"explore-choice","187","926610","0.0-187.0","p439909","A11F3MA5FWH6SJ","3OWZNK3RYMVDNXPNEIRWZ8JM6MU2UY","31T4R4OBOUMRAO3NO5SSQD9DTD27CR","model","match","uniform","","","","","","","713.5","926687.5","927401","[""stimuli/HM09_AO.jpg"",""stimuli/WF06_SC.jpg"",""stimuli/AF11_FO.jpg"",""stimuli/BF05_SUR.jpg""]","stimuli/HM09_AO.jpg","stimuli/WF06_SC.jpg","stimuli/AF11_FO.jpg","stimuli/BF05_SUR.jpg","pos1","stimuli/HM09_AO.jpg","AO","HM09","0","4","8","8","stimuli/stars_8.png","332","[""AO"",""SC"",""FO"",""SUR""]","[""HM09"",""WF06"",""AF11"",""BF05""]","[8,7,4,5]","[8,6,2,4]","","",""
"show-reward","188","928624","0.0-188.0","p439909","A11F3MA5FWH6SJ","3OWZNK3RYMVDNXPNEIRWZ8JM6MU2UY","31T4R4OBOUMRAO3NO5SSQD9DTD27CR","model","match","uniform","","","","","","","","927901.900000006","929915","","","","","","","","","","","","8","","stimuli/stars_8.png","332","","","","","stimuli/HM09_AO.jpg","",""
"explore-choice","189","929771","0.0-189.0","p439909","A11F3MA5FWH6SJ","3OWZNK3RYMVDNXPNEIRWZ8JM6MU2UY","31T4R4OBOUMRAO3NO5SSQD9DTD27CR","model","match","uniform","","","","","","","645.7000000029802","929915.5","930561.200000003","[""stimuli/AF11_FO.jpg"",""stimuli/BF05_SC.jpg"",""stimuli/WF06_AO.jpg"",""stimuli/HM09_SUR.jpg""]","stimuli/AF11_FO.jpg","stimuli/BF05_SC.jpg","stimuli/WF06_AO.jpg","stimuli/HM09_SUR.jpg","pos4","stimuli/HM09_SUR.jpg","SUR","HM09","3","3.5","7","8","stimuli/stars_7.png","335.5","[""FO"",""SC"",""AO"",""SUR""]","[""AF11"",""BF05"",""WF06"",""HM09""]","[4,6,7,7]","[2,4,6,8]","","",""
"show-reward","190","931773","0.0-190.0","p439909","A11F3MA5FWH6SJ","3OWZNK3RYMVDNXPNEIRWZ8JM6MU2UY","31T4R4OBOUMRAO3NO5SSQD9DTD27CR","model","match","uniform","","","","","","","","931062","933063.5","","","","","","","","","","","","7","","stimuli/stars_7.png","335.5","","","","","stimuli/HM09_SUR.jpg","",""
"explore-choice","191","932831","0.0-191.0","p439909","A11F3MA5FWH6SJ","3OWZNK3RYMVDNXPNEIRWZ8JM6MU2UY","31T4R4OBOUMRAO3NO5SSQD9DTD27CR","model","match","uniform","","","","","","","553.2000000029802","933064","933617.200000003","[""stimuli/HM09_SC.jpg"",""stimuli/AF11_SUR.jpg"",""stimuli/BF05_FO.jpg"",""stimuli/WF06_AO.jpg""]","stimuli/HM09_SC.jpg","stimuli/AF11_SUR.jpg","stimuli/BF05_FO.jpg","stimuli/WF06_AO.jpg","pos1","stimuli/HM09_SC.jpg","SC","HM09","0","3","6","8","stimuli/stars_6.png","338.5","[""SC"",""SUR"",""FO"",""AO""]","[""HM09"",""AF11"",""BF05"",""WF06""]","[6,3,6,5]","[8,2,4,6]","","",""
"show-reward","192","934833","0.0-192.0","p439909","A11F3MA5FWH6SJ","3OWZNK3RYMVDNXPNEIRWZ8JM6MU2UY","31T4R4OBOUMRAO3NO5SSQD9DTD27CR","model","match","uniform","","","","","","","","934122.3000000119","936124.200000003","","","","","","","","","","","","6","","stimuli/stars_6.png","338.5","","","","","stimuli/HM09_SC.jpg","",""
"explore-choice","193","935748","0.0-193.0","p439909","A11F3MA5FWH6SJ","3OWZNK3RYMVDNXPNEIRWZ8JM6MU2UY","31T4R4OBOUMRAO3NO5SSQD9DTD27CR","model","match","uniform","","","","","","","412.3999999910593","936124.8000000119","936537.200000003","[""stimuli/AF11_AO.jpg"",""stimuli/BF05_FO.jpg"",""stimuli/WF06_SUR.jpg"",""stimuli/HM09_SC.jpg""]","stimuli/AF11_AO.jpg","stimuli/BF05_FO.jpg","stimuli/WF06_SUR.jpg","stimuli/HM09_SC.jpg","pos4","stimuli/HM09_SC.jpg","SC","HM09","3","3.5","7","8","stimuli/stars_7.png","342","[""AO"",""FO"",""SUR"",""SC""]","[""AF11"",""BF05"",""WF06"",""HM09""]","[1,6,8,7]","[2,4,6,8]","","",""
"show-reward","194","937750","0.0-194.0","p439909","A11F3MA5FWH6SJ","3OWZNK3RYMVDNXPNEIRWZ8JM6MU2UY","31T4R4OBOUMRAO3NO5SSQD9DTD27CR","model","match","uniform","","","","","","","","937039","939040.8000000119","","","","","","","","","","","","7","","stimuli/stars_7.png","342","","","","","stimuli/HM09_SC.jpg","",""
"explore-choice","195","939762","0.0-195.0","p439909","A11F3MA5FWH6SJ","3OWZNK3RYMVDNXPNEIRWZ8JM6MU2UY","31T4R4OBOUMRAO3NO5SSQD9DTD27CR","model","match","uniform","","","","","","","1512.0999999940395","939041.3000000119","940553.400000006","[""stimuli/WF06_FO.jpg"",""stimuli/HM09_SUR.jpg"",""stimuli/AF11_SC.jpg"",""stimuli/BF05_AO.jpg""]","stimuli/WF06_FO.jpg","stimuli/HM09_SUR.jpg","stimuli/AF11_SC.jpg","stimuli/BF05_AO.jpg","pos2","stimuli/HM09_SUR.jpg","SUR","HM09","1","4","8","8","stimuli/stars_8.png","346","[""FO"",""SUR"",""SC"",""AO""]","[""WF06"",""HM09"",""AF11"",""BF05""]","[8,8,1,6]","[6,8,2,4]","","",""
"show-reward","196","941763","0.0-196.0","p439909","A11F3MA5FWH6SJ","3OWZNK3RYMVDNXPNEIRWZ8JM6MU2UY","31T4R4OBOUMRAO3NO5SSQD9DTD27CR","model","match","uniform","","","","","","","","941055.700000003","943056.8000000119","","","","","","","","","","","","8","","stimuli/stars_8.png","346","","","","","stimuli/HM09_SUR.jpg","",""
"explore-choice","197","943631","0.0-197.0","p439909","A11F3MA5FWH6SJ","3OWZNK3RYMVDNXPNEIRWZ8JM6MU2UY","31T4R4OBOUMRAO3NO5SSQD9DTD27CR","model","match","uniform","","","","","","","1360.1000000089407","943057.200000003","944417.3000000119","[""stimuli/WF06_FO.jpg"",""stimuli/BF05_AO.jpg"",""stimuli/HM09_SC.jpg"",""stimuli/AF11_SUR.jpg""]","stimuli/WF06_FO.jpg","stimuli/BF05_AO.jpg","stimuli/HM09_SC.jpg","stimuli/AF11_SUR.jpg","pos3","stimuli/HM09_SC.jpg","SC","HM09","2","4.5","9","8","stimuli/stars_9.png","350.5","[""FO"",""AO"",""SC"",""SUR""]","[""WF06"",""BF05"",""HM09"",""AF11""]","[5,6,9,2]","[6,4,8,2]","","",""
"show-reward","198","945635","0.0-198.0","p439909","A11F3MA5FWH6SJ","3OWZNK3RYMVDNXPNEIRWZ8JM6MU2UY","31T4R4OBOUMRAO3NO5SSQD9DTD27CR","model","match","uniform","","","","","","","","944925.400000006","946928.1000000089","","","","","","","","","","","","9","","stimuli/stars_9.png","350.5","","","","","stimuli/HM09_SC.jpg","",""
"instructions","199","950228","0.0-199.0","p439909","A11F3MA5FWH6SJ","3OWZNK3RYMVDNXPNEIRWZ8JM6MU2UY","31T4R4OBOUMRAO3NO5SSQD9DTD27CR","model","match","uniform","","","","","","[{""page_index"":0,""viewing_time"":4592.399999991059}]","4592.899999991059","","","","","","","","","","","","","","","","","","","","","","","",""
"survey-text","200","953020","0.0-200.0-0.0","p439909","A11F3MA5FWH6SJ","3OWZNK3RYMVDNXPNEIRWZ8JM6MU2UY","31T4R4OBOUMRAO3NO5SSQD9DTD27CR","model","match","uniform","","","","","","","2790.0999999940395","","","","","","","","","","","","","","","","","","","","","","","{""age"":""35""}",""
"survey-text","201","959836","0.0-200.0-1.0","p439909","A11F3MA5FWH6SJ","3OWZNK3RYMVDNXPNEIRWZ8JM6MU2UY","31T4R4OBOUMRAO3NO5SSQD9DTD27CR","model","match","uniform","","","","","","","6814.600000008941","","","","","","","","","","","","","","","","","","","","","","","{""gender"":""Male""}",""
"survey-text","202","964668","0.0-200.0-2.0","p439909","A11F3MA5FWH6SJ","3OWZNK3RYMVDNXPNEIRWZ8JM6MU2UY","31T4R4OBOUMRAO3NO5SSQD9DTD27CR","model","match","uniform","","","","","","","4830","","","","","","","","","","","","","","","","","","","","","","","{""country"":""United States""}",""
"survey-text","203","969164","0.0-200.0-3.0","p439909","A11F3MA5FWH6SJ","3OWZNK3RYMVDNXPNEIRWZ8JM6MU2UY","31T4R4OBOUMRAO3NO5SSQD9DTD27CR","model","match","uniform","","","","","","","4494.9000000059605","","","","","","","","","","","","","","","","","","","","","","","{""language"":""English"",""other_languages"":""N/A.""}",""
"survey-multi-select","204","972428","0.0-201.0","p439909","A11F3MA5FWH6SJ","3OWZNK3RYMVDNXPNEIRWZ8JM6MU2UY","31T4R4OBOUMRAO3NO5SSQD9DTD27CR","model","match","uniform","","","","","","","3260.2999999970198","","","","","","","","","","","","","","","","","","","","","","","{""race"":[""White""]}","[0]"
"survey-multi-choice","205","974332","0.0-202.0","p439909","A11F3MA5FWH6SJ","3OWZNK3RYMVDNXPNEIRWZ8JM6MU2UY","31T4R4OBOUMRAO3NO5SSQD9DTD27CR","model","match","uniform","","","","","","","1902.0999999940395","","","","","","","","","","","","","","","","","","","","","","","{""education"":""High school""}","[0]"
"survey-text","206","1023705","0.0-203.0","p439909","A11F3MA5FWH6SJ","3OWZNK3RYMVDNXPNEIRWZ8JM6MU2UY","31T4R4OBOUMRAO3NO5SSQD9DTD27CR","model","match","uniform","","","","","","","49372.09999999404","","","","","","","","","","","","","","","","","","","","","","","{""patterns"":""It seemed that the Hispanic male always had the higher amount of stars."",""strategy"":""Yes, I tried other choices and the Hispanic male seemed to always be the better choice for higher amount of stars."",""comments"":""N/A.\n""}",""
