"trial_type","trial_index","time_elapsed","internal_node_id","subject","workerId","hitId","assignmentId","structure_condition","match_condition","noise_type","success","timeout","failed_images","failed_audio","failed_video","view_history","rt","start_time","end_time","stimuli","image1","image2","image3","image4","choiceLocation","choiceImage","choiceEmotion","choiceModel","choice_index","reward_score","reward","reward_score_unadjusted","reward_image","score_after_trial","emotions","models","rewards","rewards_unadjusted","stimulus","response","question_order"
"pavlovia","0","11","0.0-0.0","p532437","A2T1LNI80EPOQR","3WRBLBQ2GSENM5LEFQY1C5PG0GV0GC","3R3YRB5GRH95FKILHZPCUAX91LEUAE","emotion","match","uniform","","","","","","","","","","","","","","","","","","","","","","","","","","","","","","",""
"preload","1","2056","0.0-1.0","p532437","A2T1LNI80EPOQR","3WRBLBQ2GSENM5LEFQY1C5PG0GV0GC","3R3YRB5GRH95FKILHZPCUAX91LEUAE","emotion","match","uniform","true","false","[]","[]","[]","","","","","","","","","","","","","","","","","","","","","","","","","",""
"fullscreen","2","4754","0.0-2.0","p532437","A2T1LNI80EPOQR","3WRBLBQ2GSENM5LEFQY1C5PG0GV0GC","3R3YRB5GRH95FKILHZPCUAX91LEUAE","emotion","match","uniform","true","","","","","","","","","","","","","","","","","","","","","","","","","","","","","",""
"instructions","3","13113","0.0-3.0","p532437","A2T1LNI80EPOQR","3WRBLBQ2GSENM5LEFQY1C5PG0GV0GC","3R3YRB5GRH95FKILHZPCUAX91LEUAE","emotion","match","uniform","","","","","","[{""page_index"":0,""viewing_time"":8357.199999999255}]","8357.5","","","","","","","","","","","","","","","","","","","","","","","",""
"explore-choice","4","15695","0.0-4.0","p532437","A2T1LNI80EPOQR","3WRBLBQ2GSENM5LEFQY1C5PG0GV0GC","3R3YRB5GRH95FKILHZPCUAX91LEUAE","emotion","match","uniform","","","","","","","2066.89999999851","14750.199999999255","16817.099999997765","[""stimuli/sheep.jpg"",""stimuli/hammer.jpg"",""stimuli/basketball.jpg"",""stimuli/horse.jpg""]","stimuli/sheep.jpg","stimuli/hammer.jpg","stimuli/basketball.jpg","stimuli/horse.jpg","pos4","stimuli/horse.jpg","","","3","64","64","64","stimuli/stars_8.png","65","","","","","","",""
"explore-choice","5","17320","0.0-5.0","p532437","A2T1LNI80EPOQR","3WRBLBQ2GSENM5LEFQY1C5PG0GV0GC","3R3YRB5GRH95FKILHZPCUAX91LEUAE","emotion","match","uniform","","","","","","","1110.800000000745","17332.89999999851","18443.699999999255","[""stimuli/hammer.jpg"",""stimuli/basketball.jpg"",""stimuli/horse.jpg"",""stimuli/sheep.jpg""]","stimuli/hammer.jpg","stimuli/basketball.jpg","stimuli/horse.jpg","stimuli/sheep.jpg","pos1","stimuli/hammer.jpg","","","0","8","8","8","stimuli/stars_2.png","9","","","","","","",""
"instructions","6","32457","0.0-6.0","p532437","A2T1LNI80EPOQR","3WRBLBQ2GSENM5LEFQY1C5PG0GV0GC","3R3YRB5GRH95FKILHZPCUAX91LEUAE","emotion","match","uniform","","","","","","[{""page_index"":0,""viewing_time"":15136}]","15136.300000000745","","","","","","","","","","","","","","","","","","","","","","","",""
"explore-choice","7","34044","0.0-7.0","p532437","A2T1LNI80EPOQR","3WRBLBQ2GSENM5LEFQY1C5PG0GV0GC","3R3YRB5GRH95FKILHZPCUAX91LEUAE","emotion","match","uniform","","","","","","","1080.1000000014901","34094.599999997765","35174.699999999255","[""stimuli/AF11_FO.jpg"",""stimuli/BM04_SUR.jpg"",""stimuli/WF14_AO.jpg"",""stimuli/BF08_SC.jpg""]","stimuli/AF11_FO.jpg","stimuli/BM04_SUR.jpg","stimuli/WF14_AO.jpg","stimuli/BF08_SC.jpg","pos1","stimuli/AF11_FO.jpg","FO","AF11","0","1.5","3","4","stimuli/stars_3.png","2.5","[""FO"",""SUR"",""AO"",""SC""]","[""AF11"",""BM04"",""WF14"",""BF08""]","[3,8,4,7]","[4,8,2,6]","","",""
"show-reward","8","36051","0.0-8.0","p532437","A2T1LNI80EPOQR","3WRBLBQ2GSENM5LEFQY1C5PG0GV0GC","3R3YRB5GRH95FKILHZPCUAX91LEUAE","emotion","match","uniform","","","","","","","","35681.79999999702","37687.5","","","","","","","","","","","","3","","stimuli/stars_3.png","2.5","","","","","stimuli/AF11_FO.jpg","",""
"explore-choice","9","37555","0.0-9.0","p532437","A2T1LNI80EPOQR","3WRBLBQ2GSENM5LEFQY1C5PG0GV0GC","3R3YRB5GRH95FKILHZPCUAX91LEUAE","emotion","match","uniform","","","","","","","992.3000000007451","37688.699999999255","38681","[""stimuli/AF11_SC.jpg"",""stimuli/BM04_AO.jpg"",""stimuli/BF08_SUR.jpg"",""stimuli/WF14_FO.jpg""]","stimuli/AF11_SC.jpg","stimuli/BM04_AO.jpg","stimuli/BF08_SUR.jpg","stimuli/WF14_FO.jpg","pos2","stimuli/BM04_AO.jpg","AO","BM04","1","1","2","2","stimuli/stars_2.png","3.5","[""SC"",""AO"",""SUR"",""FO""]","[""AF11"",""BM04"",""BF08"",""WF14""]","[8,2,7,2]","[6,2,8,4]","","",""
"show-reward","10","39557","0.0-10.0","p532437","A2T1LNI80EPOQR","3WRBLBQ2GSENM5LEFQY1C5PG0GV0GC","3R3YRB5GRH95FKILHZPCUAX91LEUAE","emotion","match","uniform","","","","","","","","39192.599999997765","41194.099999997765","","","","","","","","","","","","2","","stimuli/stars_2.png","3.5","","","","","stimuli/BM04_AO.jpg","",""
"explore-choice","11","41632","0.0-11.0","p532437","A2T1LNI80EPOQR","3WRBLBQ2GSENM5LEFQY1C5PG0GV0GC","3R3YRB5GRH95FKILHZPCUAX91LEUAE","emotion","match","uniform","","","","","","","1565.2999999970198","41195","42760.29999999702","[""stimuli/BF08_AO.jpg"",""stimuli/AF11_SUR.jpg"",""stimuli/BM04_FO.jpg"",""stimuli/WF14_SC.jpg""]","stimuli/BF08_AO.jpg","stimuli/AF11_SUR.jpg","stimuli/BM04_FO.jpg","stimuli/WF14_SC.jpg","pos4","stimuli/WF14_SC.jpg","SC","WF14","3","4","8","6","stimuli/stars_8.png","7.5","[""AO"",""SUR"",""FO"",""SC""]","[""BF08"",""AF11"",""BM04"",""WF14""]","[2,7,2,8]","[2,8,4,6]","","",""
"show-reward","12","43647","0.0-12.0","p532437","A2T1LNI80EPOQR","3WRBLBQ2GSENM5LEFQY1C5PG0GV0GC","3R3YRB5GRH95FKILHZPCUAX91LEUAE","emotion","match","uniform","","","","","","","","43269.5","45284","","","","","","","","","","","","8","","stimuli/stars_8.png","7.5","","","","","stimuli/WF14_SC.jpg","",""
"explore-choice","13","45211","0.0-13.0","p532437","A2T1LNI80EPOQR","3WRBLBQ2GSENM5LEFQY1C5PG0GV0GC","3R3YRB5GRH95FKILHZPCUAX91LEUAE","emotion","match","uniform","","","","","","","1056.199999999255","45284.89999999851","46341.099999997765","[""stimuli/AF11_FO.jpg"",""stimuli/WF14_SC.jpg"",""stimuli/BF08_SUR.jpg"",""stimuli/BM04_AO.jpg""]","stimuli/AF11_FO.jpg","stimuli/WF14_SC.jpg","stimuli/BF08_SUR.jpg","stimuli/BM04_AO.jpg","pos2","stimuli/WF14_SC.jpg","SC","WF14","1","3","6","6","stimuli/stars_6.png","10.5","[""FO"",""SC"",""SUR"",""AO""]","[""AF11"",""WF14"",""BF08"",""BM04""]","[4,6,8,0]","[4,6,8,2]","","",""
"show-reward","14","47228","0.0-14.0","p532437","A2T1LNI80EPOQR","3WRBLBQ2GSENM5LEFQY1C5PG0GV0GC","3R3YRB5GRH95FKILHZPCUAX91LEUAE","emotion","match","uniform","","","","","","","","46848.89999999851","48864.699999999255","","","","","","","","","","","","6","","stimuli/stars_6.png","10.5","","","","","stimuli/WF14_SC.jpg","",""
"explore-choice","15","48778","0.0-15.0","p532437","A2T1LNI80EPOQR","3WRBLBQ2GSENM5LEFQY1C5PG0GV0GC","3R3YRB5GRH95FKILHZPCUAX91LEUAE","emotion","match","uniform","","","","","","","1041.5","48865.79999999702","49907.29999999702","[""stimuli/BM04_FO.jpg"",""stimuli/WF14_AO.jpg"",""stimuli/AF11_SC.jpg"",""stimuli/BF08_SUR.jpg""]","stimuli/BM04_FO.jpg","stimuli/WF14_AO.jpg","stimuli/AF11_SC.jpg","stimuli/BF08_SUR.jpg","pos2","stimuli/WF14_AO.jpg","AO","WF14","1","2","4","2","stimuli/stars_4.png","12.5","[""FO"",""AO"",""SC"",""SUR""]","[""BM04"",""WF14"",""AF11"",""BF08""]","[3,4,6,9]","[4,2,6,8]","","",""
"show-reward","16","50788","0.0-16.0","p532437","A2T1LNI80EPOQR","3WRBLBQ2GSENM5LEFQY1C5PG0GV0GC","3R3YRB5GRH95FKILHZPCUAX91LEUAE","emotion","match","uniform","","","","","","","","50415.599999997765","52424.5","","","","","","","","","","","","4","","stimuli/stars_4.png","12.5","","","","","stimuli/WF14_AO.jpg","",""
"explore-choice","17","52578","0.0-17.0","p532437","A2T1LNI80EPOQR","3WRBLBQ2GSENM5LEFQY1C5PG0GV0GC","3R3YRB5GRH95FKILHZPCUAX91LEUAE","emotion","match","uniform","","","","","","","1277.7000000029802","52425.29999999702","53703","[""stimuli/BM04_SUR.jpg"",""stimuli/BF08_SC.jpg"",""stimuli/WF14_FO.jpg"",""stimuli/AF11_AO.jpg""]","stimuli/BM04_SUR.jpg","stimuli/BF08_SC.jpg","stimuli/WF14_FO.jpg","stimuli/AF11_AO.jpg","pos3","stimuli/WF14_FO.jpg","FO","WF14","2","3","6","4","stimuli/stars_6.png","15.5","[""SUR"",""SC"",""FO"",""AO""]","[""BM04"",""BF08"",""WF14"",""AF11""]","[6,4,6,4]","[8,6,4,2]","","",""
"show-reward","18","54585","0.0-18.0","p532437","A2T1LNI80EPOQR","3WRBLBQ2GSENM5LEFQY1C5PG0GV0GC","3R3YRB5GRH95FKILHZPCUAX91LEUAE","emotion","match","uniform","","","","","","","","54215.5","56221.199999999255","","","","","","","","","","","","6","","stimuli/stars_6.png","15.5","","","","","stimuli/WF14_FO.jpg","",""
"explore-choice","19","56162","0.0-19.0","p532437","A2T1LNI80EPOQR","3WRBLBQ2GSENM5LEFQY1C5PG0GV0GC","3R3YRB5GRH95FKILHZPCUAX91LEUAE","emotion","match","uniform","","","","","","","1061.5","56222.099999997765","57283.599999997765","[""stimuli/BF08_SUR.jpg"",""stimuli/AF11_AO.jpg"",""stimuli/WF14_FO.jpg"",""stimuli/BM04_SC.jpg""]","stimuli/BF08_SUR.jpg","stimuli/AF11_AO.jpg","stimuli/WF14_FO.jpg","stimuli/BM04_SC.jpg","pos1","stimuli/BF08_SUR.jpg","SUR","BF08","0","3.5","7","8","stimuli/stars_7.png","19","[""SUR"",""AO"",""FO"",""SC""]","[""BF08"",""AF11"",""WF14"",""BM04""]","[7,3,3,7]","[8,2,4,6]","","",""
"show-reward","20","58164","0.0-20.0","p532437","A2T1LNI80EPOQR","3WRBLBQ2GSENM5LEFQY1C5PG0GV0GC","3R3YRB5GRH95FKILHZPCUAX91LEUAE","emotion","match","uniform","","","","","","","","57799.099999997765","59800.099999997765","","","","","","","","","","","","7","","stimuli/stars_7.png","19","","","","","stimuli/BF08_SUR.jpg","",""
"explore-choice","21","59585","0.0-21.0","p532437","A2T1LNI80EPOQR","3WRBLBQ2GSENM5LEFQY1C5PG0GV0GC","3R3YRB5GRH95FKILHZPCUAX91LEUAE","emotion","match","uniform","","","","","","","906.8999999985099","59800.89999999851","60707.79999999702","[""stimuli/BF08_SC.jpg"",""stimuli/AF11_SUR.jpg"",""stimuli/WF14_AO.jpg"",""stimuli/BM04_FO.jpg""]","stimuli/BF08_SC.jpg","stimuli/AF11_SUR.jpg","stimuli/WF14_AO.jpg","stimuli/BM04_FO.jpg","pos1","stimuli/BF08_SC.jpg","SC","BF08","0","3","6","6","stimuli/stars_6.png","22","[""SC"",""SUR"",""AO"",""FO""]","[""BF08"",""AF11"",""WF14"",""BM04""]","[6,6,4,3]","[6,8,2,4]","","",""
"show-reward","22","61602","0.0-22.0","p532437","A2T1LNI80EPOQR","3WRBLBQ2GSENM5LEFQY1C5PG0GV0GC","3R3YRB5GRH95FKILHZPCUAX91LEUAE","emotion","match","uniform","","","","","","","","61222","63238","","","","","","","","","","","","6","","stimuli/stars_6.png","22","","","","","stimuli/BF08_SC.jpg","",""
"explore-choice","23","63632","0.0-23.0","p532437","A2T1LNI80EPOQR","3WRBLBQ2GSENM5LEFQY1C5PG0GV0GC","3R3YRB5GRH95FKILHZPCUAX91LEUAE","emotion","match","uniform","","","","","","","1517.5","63238.699999999255","64756.199999999255","[""stimuli/AF11_FO.jpg"",""stimuli/BM04_AO.jpg"",""stimuli/WF14_SUR.jpg"",""stimuli/BF08_SC.jpg""]","stimuli/AF11_FO.jpg","stimuli/BM04_AO.jpg","stimuli/WF14_SUR.jpg","stimuli/BF08_SC.jpg","pos4","stimuli/BF08_SC.jpg","SC","BF08","3","4","8","6","stimuli/stars_8.png","26","[""FO"",""AO"",""SUR"",""SC""]","[""AF11"",""BM04"",""WF14"",""BF08""]","[5,3,10,8]","[4,2,8,6]","","",""
"show-reward","24","65648","0.0-24.0","p532437","A2T1LNI80EPOQR","3WRBLBQ2GSENM5LEFQY1C5PG0GV0GC","3R3YRB5GRH95FKILHZPCUAX91LEUAE","emotion","match","uniform","","","","","","","","65269","67284.29999999702","","","","","","","","","","","","8","","stimuli/stars_8.png","26","","","","","stimuli/BF08_SC.jpg","",""
"explore-choice","25","67226","0.0-25.0","p532437","A2T1LNI80EPOQR","3WRBLBQ2GSENM5LEFQY1C5PG0GV0GC","3R3YRB5GRH95FKILHZPCUAX91LEUAE","emotion","match","uniform","","","","","","","1066.8999999985099","67285.19999999925","68352.09999999776","[""stimuli/AF11_FO.jpg"",""stimuli/WF14_AO.jpg"",""stimuli/BF08_SUR.jpg"",""stimuli/BM04_SC.jpg""]","stimuli/AF11_FO.jpg","stimuli/WF14_AO.jpg","stimuli/BF08_SUR.jpg","stimuli/BM04_SC.jpg","pos3","stimuli/BF08_SUR.jpg","SUR","BF08","2","5","10","8","stimuli/stars_10.png","31","[""FO"",""AO"",""SUR"",""SC""]","[""AF11"",""WF14"",""BF08"",""BM04""]","[5,1,10,5]","[4,2,8,6]","","",""
"show-reward","26","69229","0.0-26.0","p532437","A2T1LNI80EPOQR","3WRBLBQ2GSENM5LEFQY1C5PG0GV0GC","3R3YRB5GRH95FKILHZPCUAX91LEUAE","emotion","match","uniform","","","","","","","","68863.39999999851","70865.69999999925","","","","","","","","","","","","10","","stimuli/stars_10.png","31","","","","","stimuli/BF08_SUR.jpg","",""
"explore-choice","27","70890","0.0-27.0","p532437","A2T1LNI80EPOQR","3WRBLBQ2GSENM5LEFQY1C5PG0GV0GC","3R3YRB5GRH95FKILHZPCUAX91LEUAE","emotion","match","uniform","","","","","","","1151.5","70866.5","72018","[""stimuli/AF11_SC.jpg"",""stimuli/BF08_AO.jpg"",""stimuli/BM04_FO.jpg"",""stimuli/WF14_SUR.jpg""]","stimuli/AF11_SC.jpg","stimuli/BF08_AO.jpg","stimuli/BM04_FO.jpg","stimuli/WF14_SUR.jpg","pos2","stimuli/BF08_AO.jpg","AO","BF08","1","0","0","2","stimuli/stars_0.png","31","[""SC"",""AO"",""FO"",""SUR""]","[""AF11"",""BF08"",""BM04"",""WF14""]","[5,0,5,6]","[6,2,4,8]","","",""
"show-reward","28","72897","0.0-28.0","p532437","A2T1LNI80EPOQR","3WRBLBQ2GSENM5LEFQY1C5PG0GV0GC","3R3YRB5GRH95FKILHZPCUAX91LEUAE","emotion","match","uniform","","","","","","","","72526.79999999702","74533.89999999851","","","","","","","","","","","","0","","stimuli/stars_0.png","31","","","","","stimuli/BF08_AO.jpg","",""
"explore-choice","29","74461","0.0-29.0","p532437","A2T1LNI80EPOQR","3WRBLBQ2GSENM5LEFQY1C5PG0GV0GC","3R3YRB5GRH95FKILHZPCUAX91LEUAE","emotion","match","uniform","","","","","","","1049.8999999985099","74534.69999999925","75584.59999999776","[""stimuli/WF14_SC.jpg"",""stimuli/BM04_FO.jpg"",""stimuli/BF08_SUR.jpg"",""stimuli/AF11_AO.jpg""]","stimuli/WF14_SC.jpg","stimuli/BM04_FO.jpg","stimuli/BF08_SUR.jpg","stimuli/AF11_AO.jpg","pos3","stimuli/BF08_SUR.jpg","SUR","BF08","2","5","10","8","stimuli/stars_10.png","36","[""SC"",""FO"",""SUR"",""AO""]","[""WF14"",""BM04"",""BF08"",""AF11""]","[8,2,10,2]","[6,4,8,2]","","",""
"show-reward","30","76475","0.0-30.0","p532437","A2T1LNI80EPOQR","3WRBLBQ2GSENM5LEFQY1C5PG0GV0GC","3R3YRB5GRH95FKILHZPCUAX91LEUAE","emotion","match","uniform","","","","","","","","76098.5","78111.39999999851","","","","","","","","","","","","10","","stimuli/stars_10.png","36","","","","","stimuli/BF08_SUR.jpg","",""
"explore-choice","31","79257","0.0-31.0","p532437","A2T1LNI80EPOQR","3WRBLBQ2GSENM5LEFQY1C5PG0GV0GC","3R3YRB5GRH95FKILHZPCUAX91LEUAE","emotion","match","uniform","","","","","","","2262","78112.09999999776","80374.09999999776","[""stimuli/WF14_AO.jpg"",""stimuli/BM04_SUR.jpg"",""stimuli/AF11_SC.jpg"",""stimuli/BF08_FO.jpg""]","stimuli/WF14_AO.jpg","stimuli/BM04_SUR.jpg","stimuli/AF11_SC.jpg","stimuli/BF08_FO.jpg","pos2","stimuli/BM04_SUR.jpg","SUR","BM04","1","3","6","8","stimuli/stars_6.png","39","[""AO"",""SUR"",""SC"",""FO""]","[""WF14"",""BM04"",""AF11"",""BF08""]","[1,6,4,2]","[2,8,6,4]","","",""
"show-reward","32","81273","0.0-32.0","p532437","A2T1LNI80EPOQR","3WRBLBQ2GSENM5LEFQY1C5PG0GV0GC","3R3YRB5GRH95FKILHZPCUAX91LEUAE","emotion","match","uniform","","","","","","","","80894.09999999776","82909.29999999702","","","","","","","","","","","","6","","stimuli/stars_6.png","39","","","","","stimuli/BM04_SUR.jpg","",""
"explore-choice","33","83648","0.0-33.0","p532437","A2T1LNI80EPOQR","3WRBLBQ2GSENM5LEFQY1C5PG0GV0GC","3R3YRB5GRH95FKILHZPCUAX91LEUAE","emotion","match","uniform","","","","","","","1860.5","82910.09999999776","84770.59999999776","[""stimuli/WF14_SUR.jpg"",""stimuli/BM04_FO.jpg"",""stimuli/AF11_AO.jpg"",""stimuli/BF08_SC.jpg""]","stimuli/WF14_SUR.jpg","stimuli/BM04_FO.jpg","stimuli/AF11_AO.jpg","stimuli/BF08_SC.jpg","pos1","stimuli/WF14_SUR.jpg","SUR","WF14","0","3.5","7","8","stimuli/stars_7.png","42.5","[""SUR"",""FO"",""AO"",""SC""]","[""WF14"",""BM04"",""AF11"",""BF08""]","[7,3,2,5]","[8,4,2,6]","","",""
"show-reward","34","85663","0.0-34.0","p532437","A2T1LNI80EPOQR","3WRBLBQ2GSENM5LEFQY1C5PG0GV0GC","3R3YRB5GRH95FKILHZPCUAX91LEUAE","emotion","match","uniform","","","","","","","","85285.09999999776","87299.69999999925","","","","","","","","","","","","7","","stimuli/stars_7.png","42.5","","","","","stimuli/WF14_SUR.jpg","",""
"explore-choice","35","87710","0.0-35.0","p532437","A2T1LNI80EPOQR","3WRBLBQ2GSENM5LEFQY1C5PG0GV0GC","3R3YRB5GRH95FKILHZPCUAX91LEUAE","emotion","match","uniform","","","","","","","1532.5999999977648","87300.5","88833.09999999776","[""stimuli/BF08_AO.jpg"",""stimuli/BM04_SC.jpg"",""stimuli/WF14_SUR.jpg"",""stimuli/AF11_FO.jpg""]","stimuli/BF08_AO.jpg","stimuli/BM04_SC.jpg","stimuli/WF14_SUR.jpg","stimuli/AF11_FO.jpg","pos3","stimuli/WF14_SUR.jpg","SUR","WF14","2","4.5","9","8","stimuli/stars_9.png","47","[""AO"",""SC"",""SUR"",""FO""]","[""BF08"",""BM04"",""WF14"",""AF11""]","[0,7,9,4]","[2,6,8,4]","","",""
"show-reward","36","89726","0.0-36.0","p532437","A2T1LNI80EPOQR","3WRBLBQ2GSENM5LEFQY1C5PG0GV0GC","3R3YRB5GRH95FKILHZPCUAX91LEUAE","emotion","match","uniform","","","","","","","","89347.59999999776","91362.29999999702","","","","","","","","","","","","9","","stimuli/stars_9.png","47","","","","","stimuli/WF14_SUR.jpg","",""
"explore-choice","37","92126","0.0-37.0","p532437","A2T1LNI80EPOQR","3WRBLBQ2GSENM5LEFQY1C5PG0GV0GC","3R3YRB5GRH95FKILHZPCUAX91LEUAE","emotion","match","uniform","","","","","","","1894.5","91363","93257.5","[""stimuli/AF11_SUR.jpg"",""stimuli/WF14_SC.jpg"",""stimuli/BF08_FO.jpg"",""stimuli/BM04_AO.jpg""]","stimuli/AF11_SUR.jpg","stimuli/WF14_SC.jpg","stimuli/BF08_FO.jpg","stimuli/BM04_AO.jpg","pos1","stimuli/AF11_SUR.jpg","SUR","AF11","0","4.5","9","8","stimuli/stars_9.png","51.5","[""SUR"",""SC"",""FO"",""AO""]","[""AF11"",""WF14"",""BF08"",""BM04""]","[9,4,6,3]","[8,6,4,2]","","",""
"show-reward","38","94143","0.0-38.0","p532437","A2T1LNI80EPOQR","3WRBLBQ2GSENM5LEFQY1C5PG0GV0GC","3R3YRB5GRH95FKILHZPCUAX91LEUAE","emotion","match","uniform","","","","","","","","93762.79999999702","95779.89999999851","","","","","","","","","","","","9","","stimuli/stars_9.png","51.5","","","","","stimuli/AF11_SUR.jpg","",""
"explore-choice","39","95843","0.0-39.0","p532437","A2T1LNI80EPOQR","3WRBLBQ2GSENM5LEFQY1C5PG0GV0GC","3R3YRB5GRH95FKILHZPCUAX91LEUAE","emotion","match","uniform","","","","","","","1189.800000000745","95780.59999999776","96970.39999999851","[""stimuli/BF08_AO.jpg"",""stimuli/AF11_SUR.jpg"",""stimuli/BM04_SC.jpg"",""stimuli/WF14_FO.jpg""]","stimuli/BF08_AO.jpg","stimuli/AF11_SUR.jpg","stimuli/BM04_SC.jpg","stimuli/WF14_FO.jpg","pos2","stimuli/AF11_SUR.jpg","SUR","AF11","1","5","10","8","stimuli/stars_10.png","56.5","[""AO"",""SUR"",""SC"",""FO""]","[""BF08"",""AF11"",""BM04"",""WF14""]","[2,10,4,5]","[2,8,6,4]","","",""
"show-reward","40","97850","0.0-40.0","p532437","A2T1LNI80EPOQR","3WRBLBQ2GSENM5LEFQY1C5PG0GV0GC","3R3YRB5GRH95FKILHZPCUAX91LEUAE","emotion","match","uniform","","","","","","","","97480.39999999851","99485.89999999851","","","","","","","","","","","","10","","stimuli/stars_10.png","56.5","","","","","stimuli/AF11_SUR.jpg","",""
"explore-choice","41","99993","0.0-41.0","p532437","A2T1LNI80EPOQR","3WRBLBQ2GSENM5LEFQY1C5PG0GV0GC","3R3YRB5GRH95FKILHZPCUAX91LEUAE","emotion","match","uniform","","","","","","","1629.6000000014901","99486.79999999702","101116.39999999851","[""stimuli/BF08_AO.jpg"",""stimuli/AF11_SC.jpg"",""stimuli/WF14_FO.jpg"",""stimuli/BM04_SUR.jpg""]","stimuli/BF08_AO.jpg","stimuli/AF11_SC.jpg","stimuli/WF14_FO.jpg","stimuli/BM04_SUR.jpg","pos4","stimuli/BM04_SUR.jpg","SUR","BM04","3","3","6","8","stimuli/stars_6.png","59.5","[""AO"",""SC"",""FO"",""SUR""]","[""BF08"",""AF11"",""WF14"",""BM04""]","[0,5,6,6]","[2,6,4,8]","","",""
"show-reward","42","102009","0.0-42.0","p532437","A2T1LNI80EPOQR","3WRBLBQ2GSENM5LEFQY1C5PG0GV0GC","3R3YRB5GRH95FKILHZPCUAX91LEUAE","emotion","match","uniform","","","","","","","","101629.79999999702","103645","","","","","","","","","","","","6","","stimuli/stars_6.png","59.5","","","","","stimuli/BM04_SUR.jpg","",""
"explore-choice","43","103711","0.0-43.0","p532437","A2T1LNI80EPOQR","3WRBLBQ2GSENM5LEFQY1C5PG0GV0GC","3R3YRB5GRH95FKILHZPCUAX91LEUAE","emotion","match","uniform","","","","","","","1197.1000000014901","103646.09999999776","104843.19999999925","[""stimuli/BM04_AO.jpg"",""stimuli/WF14_SUR.jpg"",""stimuli/AF11_SC.jpg"",""stimuli/BF08_FO.jpg""]","stimuli/BM04_AO.jpg","stimuli/WF14_SUR.jpg","stimuli/AF11_SC.jpg","stimuli/BF08_FO.jpg","pos2","stimuli/WF14_SUR.jpg","SUR","WF14","1","4.5","9","8","stimuli/stars_9.png","64","[""AO"",""SUR"",""SC"",""FO""]","[""BM04"",""WF14"",""AF11"",""BF08""]","[3,9,8,2]","[2,8,6,4]","","",""
"show-reward","44","105725","0.0-44.0","p532437","A2T1LNI80EPOQR","3WRBLBQ2GSENM5LEFQY1C5PG0GV0GC","3R3YRB5GRH95FKILHZPCUAX91LEUAE","emotion","match","uniform","","","","","","","","105348.39999999851","107361.59999999776","","","","","","","","","","","","9","","stimuli/stars_9.png","64","","","","","stimuli/WF14_SUR.jpg","",""
"explore-choice","45","107277","0.0-45.0","p532437","A2T1LNI80EPOQR","3WRBLBQ2GSENM5LEFQY1C5PG0GV0GC","3R3YRB5GRH95FKILHZPCUAX91LEUAE","emotion","match","uniform","","","","","","","1035.5999999977648","107362.5","108398.09999999776","[""stimuli/BM04_SUR.jpg"",""stimuli/AF11_FO.jpg"",""stimuli/WF14_SC.jpg"",""stimuli/BF08_AO.jpg""]","stimuli/BM04_SUR.jpg","stimuli/AF11_FO.jpg","stimuli/WF14_SC.jpg","stimuli/BF08_AO.jpg","pos2","stimuli/AF11_FO.jpg","FO","AF11","1","2.5","5","4","stimuli/stars_5.png","66.5","[""SUR"",""FO"",""SC"",""AO""]","[""BM04"",""AF11"",""WF14"",""BF08""]","[7,5,4,1]","[8,4,6,2]","","",""
"show-reward","46","109288","0.0-46.0","p532437","A2T1LNI80EPOQR","3WRBLBQ2GSENM5LEFQY1C5PG0GV0GC","3R3YRB5GRH95FKILHZPCUAX91LEUAE","emotion","match","uniform","","","","","","","","108914.5","110924.69999999925","","","","","","","","","","","","5","","stimuli/stars_5.png","66.5","","","","","stimuli/AF11_FO.jpg","",""
"explore-choice","47","110966","0.0-47.0","p532437","A2T1LNI80EPOQR","3WRBLBQ2GSENM5LEFQY1C5PG0GV0GC","3R3YRB5GRH95FKILHZPCUAX91LEUAE","emotion","match","uniform","","","","","","","1172.6000000014901","110925.59999999776","112098.19999999925","[""stimuli/BM04_AO.jpg"",""stimuli/BF08_SC.jpg"",""stimuli/AF11_SUR.jpg"",""stimuli/WF14_FO.jpg""]","stimuli/BM04_AO.jpg","stimuli/BF08_SC.jpg","stimuli/AF11_SUR.jpg","stimuli/WF14_FO.jpg","pos3","stimuli/AF11_SUR.jpg","SUR","AF11","2","3","6","8","stimuli/stars_6.png","69.5","[""AO"",""SC"",""SUR"",""FO""]","[""BM04"",""BF08"",""AF11"",""WF14""]","[0,6,6,2]","[2,6,8,4]","","",""
"show-reward","48","112975","0.0-48.0","p532437","A2T1LNI80EPOQR","3WRBLBQ2GSENM5LEFQY1C5PG0GV0GC","3R3YRB5GRH95FKILHZPCUAX91LEUAE","emotion","match","uniform","","","","","","","","112602.89999999851","114611.69999999925","","","","","","","","","","","","6","","stimuli/stars_6.png","69.5","","","","","stimuli/AF11_SUR.jpg","",""
"explore-choice","49","116380","0.0-49.0","p532437","A2T1LNI80EPOQR","3WRBLBQ2GSENM5LEFQY1C5PG0GV0GC","3R3YRB5GRH95FKILHZPCUAX91LEUAE","emotion","match","uniform","","","","","","","2889.099999997765","114612.5","117501.59999999776","[""stimuli/BM04_SUR.jpg"",""stimuli/AF11_AO.jpg"",""stimuli/BF08_FO.jpg"",""stimuli/WF14_SC.jpg""]","stimuli/BM04_SUR.jpg","stimuli/AF11_AO.jpg","stimuli/BF08_FO.jpg","stimuli/WF14_SC.jpg","pos3","stimuli/BF08_FO.jpg","FO","BF08","2","2.5","5","4","stimuli/stars_5.png","72","[""SUR"",""AO"",""FO"",""SC""]","[""BM04"",""AF11"",""BF08"",""WF14""]","[10,0,5,4]","[8,2,4,6]","","",""
"show-reward","50","118396","0.0-50.0","p532437","A2T1LNI80EPOQR","3WRBLBQ2GSENM5LEFQY1C5PG0GV0GC","3R3YRB5GRH95FKILHZPCUAX91LEUAE","emotion","match","uniform","","","","","","","","118017.79999999702","120032.39999999851","","","","","","","","","","","","5","","stimuli/stars_5.png","72","","","","","stimuli/BF08_FO.jpg","",""
"explore-choice","51","120366","0.0-51.0","p532437","A2T1LNI80EPOQR","3WRBLBQ2GSENM5LEFQY1C5PG0GV0GC","3R3YRB5GRH95FKILHZPCUAX91LEUAE","emotion","match","uniform","","","","","","","1460","120033.29999999702","121493.29999999702","[""stimuli/BF08_FO.jpg"",""stimuli/BM04_SC.jpg"",""stimuli/AF11_AO.jpg"",""stimuli/WF14_SUR.jpg""]","stimuli/BF08_FO.jpg","stimuli/BM04_SC.jpg","stimuli/AF11_AO.jpg","stimuli/WF14_SUR.jpg","pos4","stimuli/WF14_SUR.jpg","SUR","WF14","3","3","6","8","stimuli/stars_6.png","75","[""FO"",""SC"",""AO"",""SUR""]","[""BF08"",""BM04"",""AF11"",""WF14""]","[4,6,3,6]","[4,6,2,8]","","",""
"show-reward","52","122383","0.0-52.0","p532437","A2T1LNI80EPOQR","3WRBLBQ2GSENM5LEFQY1C5PG0GV0GC","3R3YRB5GRH95FKILHZPCUAX91LEUAE","emotion","match","uniform","","","","","","","","122003.09999999776","124019.69999999925","","","","","","","","","","","","6","","stimuli/stars_6.png","75","","","","","stimuli/WF14_SUR.jpg","",""
"explore-choice","53","124110","0.0-53.0","p532437","A2T1LNI80EPOQR","3WRBLBQ2GSENM5LEFQY1C5PG0GV0GC","3R3YRB5GRH95FKILHZPCUAX91LEUAE","emotion","match","uniform","","","","","","","1222","124020.39999999851","125242.39999999851","[""stimuli/BM04_SC.jpg"",""stimuli/AF11_SUR.jpg"",""stimuli/WF14_AO.jpg"",""stimuli/BF08_FO.jpg""]","stimuli/BM04_SC.jpg","stimuli/AF11_SUR.jpg","stimuli/WF14_AO.jpg","stimuli/BF08_FO.jpg","pos2","stimuli/AF11_SUR.jpg","SUR","AF11","1","4","8","8","stimuli/stars_8.png","79","[""SC"",""SUR"",""AO"",""FO""]","[""BM04"",""AF11"",""WF14"",""BF08""]","[6,8,0,4]","[6,8,2,4]","","",""
"show-reward","54","126119","0.0-54.0","p532437","A2T1LNI80EPOQR","3WRBLBQ2GSENM5LEFQY1C5PG0GV0GC","3R3YRB5GRH95FKILHZPCUAX91LEUAE","emotion","match","uniform","","","","","","","","125747.09999999776","127755.09999999776","","","","","","","","","","","","8","","stimuli/stars_8.png","79","","","","","stimuli/AF11_SUR.jpg","",""
"explore-choice","55","128760","0.0-55.0","p532437","A2T1LNI80EPOQR","3WRBLBQ2GSENM5LEFQY1C5PG0GV0GC","3R3YRB5GRH95FKILHZPCUAX91LEUAE","emotion","match","uniform","","","","","","","2137.699999999255","127755.89999999851","129893.59999999776","[""stimuli/BM04_SUR.jpg"",""stimuli/WF14_AO.jpg"",""stimuli/AF11_SC.jpg"",""stimuli/BF08_FO.jpg""]","stimuli/BM04_SUR.jpg","stimuli/WF14_AO.jpg","stimuli/AF11_SC.jpg","stimuli/BF08_FO.jpg","pos1","stimuli/BM04_SUR.jpg","SUR","BM04","0","3","6","8","stimuli/stars_6.png","82","[""SUR"",""AO"",""SC"",""FO""]","[""BM04"",""WF14"",""AF11"",""BF08""]","[6,1,4,2]","[8,2,6,4]","","",""
"show-reward","56","130773","0.0-56.0","p532437","A2T1LNI80EPOQR","3WRBLBQ2GSENM5LEFQY1C5PG0GV0GC","3R3YRB5GRH95FKILHZPCUAX91LEUAE","emotion","match","uniform","","","","","","","","130397.39999999851","132409.8999999985","","","","","","","","","","","","6","","stimuli/stars_6.png","82","","","","","stimuli/BM04_SUR.jpg","",""
"explore-choice","57","133342","0.0-57.0","p532437","A2T1LNI80EPOQR","3WRBLBQ2GSENM5LEFQY1C5PG0GV0GC","3R3YRB5GRH95FKILHZPCUAX91LEUAE","emotion","match","uniform","","","","","","","2063.199999999255","132410.59999999776","134473.79999999702","[""stimuli/BM04_SC.jpg"",""stimuli/AF11_AO.jpg"",""stimuli/WF14_FO.jpg"",""stimuli/BF08_SUR.jpg""]","stimuli/BM04_SC.jpg","stimuli/AF11_AO.jpg","stimuli/WF14_FO.jpg","stimuli/BF08_SUR.jpg","pos4","stimuli/BF08_SUR.jpg","SUR","BF08","3","3.5","7","8","stimuli/stars_7.png","85.5","[""SC"",""AO"",""FO"",""SUR""]","[""BM04"",""AF11"",""WF14"",""BF08""]","[7,3,3,7]","[6,2,4,8]","","",""
"show-reward","58","135349","0.0-58.0","p532437","A2T1LNI80EPOQR","3WRBLBQ2GSENM5LEFQY1C5PG0GV0GC","3R3YRB5GRH95FKILHZPCUAX91LEUAE","emotion","match","uniform","","","","","","","","134979.59999999776","136986","","","","","","","","","","","","7","","stimuli/stars_7.png","85.5","","","","","stimuli/BF08_SUR.jpg","",""
"explore-choice","59","137743","0.0-59.0","p532437","A2T1LNI80EPOQR","3WRBLBQ2GSENM5LEFQY1C5PG0GV0GC","3R3YRB5GRH95FKILHZPCUAX91LEUAE","emotion","match","uniform","","","","","","","1893","136986.69999999925","138879.69999999925","[""stimuli/AF11_FO.jpg"",""stimuli/BF08_SC.jpg"",""stimuli/BM04_SUR.jpg"",""stimuli/WF14_AO.jpg""]","stimuli/AF11_FO.jpg","stimuli/BF08_SC.jpg","stimuli/BM04_SUR.jpg","stimuli/WF14_AO.jpg","pos1","stimuli/AF11_FO.jpg","FO","AF11","0","1.5","3","4","stimuli/stars_3.png","87","[""FO"",""SC"",""SUR"",""AO""]","[""AF11"",""BF08"",""BM04"",""WF14""]","[3,7,8,4]","[4,6,8,2]","","",""
"show-reward","60","139755","0.0-60.0","p532437","A2T1LNI80EPOQR","3WRBLBQ2GSENM5LEFQY1C5PG0GV0GC","3R3YRB5GRH95FKILHZPCUAX91LEUAE","emotion","match","uniform","","","","","","","","139380.79999999702","141391.69999999925","","","","","","","","","","","","3","","stimuli/stars_3.png","87","","","","","stimuli/AF11_FO.jpg","",""
"explore-choice","61","141709","0.0-61.0","p532437","A2T1LNI80EPOQR","3WRBLBQ2GSENM5LEFQY1C5PG0GV0GC","3R3YRB5GRH95FKILHZPCUAX91LEUAE","emotion","match","uniform","","","","","","","1450.300000000745","141392.79999999702","142843.09999999776","[""stimuli/WF14_FO.jpg"",""stimuli/BF08_AO.jpg"",""stimuli/AF11_SC.jpg"",""stimuli/BM04_SUR.jpg""]","stimuli/WF14_FO.jpg","stimuli/BF08_AO.jpg","stimuli/AF11_SC.jpg","stimuli/BM04_SUR.jpg","pos4","stimuli/BM04_SUR.jpg","SUR","BM04","3","3","6","8","stimuli/stars_6.png","90","[""FO"",""AO"",""SC"",""SUR""]","[""WF14"",""BF08"",""AF11"",""BM04""]","[6,0,5,6]","[4,2,6,8]","","",""
"show-reward","62","143724","0.0-62.0","p532437","A2T1LNI80EPOQR","3WRBLBQ2GSENM5LEFQY1C5PG0GV0GC","3R3YRB5GRH95FKILHZPCUAX91LEUAE","emotion","match","uniform","","","","","","","","143346.59999999776","145360.8999999985","","","","","","","","","","","","6","","stimuli/stars_6.png","90","","","","","stimuli/BM04_SUR.jpg","",""
"explore-choice","63","145742","0.0-63.0","p532437","A2T1LNI80EPOQR","3WRBLBQ2GSENM5LEFQY1C5PG0GV0GC","3R3YRB5GRH95FKILHZPCUAX91LEUAE","emotion","match","uniform","","","","","","","1502.8999999985099","145361.69999999925","146864.59999999776","[""stimuli/AF11_AO.jpg"",""stimuli/WF14_SUR.jpg"",""stimuli/BF08_FO.jpg"",""stimuli/BM04_SC.jpg""]","stimuli/AF11_AO.jpg","stimuli/WF14_SUR.jpg","stimuli/BF08_FO.jpg","stimuli/BM04_SC.jpg","pos2","stimuli/WF14_SUR.jpg","SUR","WF14","1","3","6","8","stimuli/stars_6.png","93","[""AO"",""SUR"",""FO"",""SC""]","[""AF11"",""WF14"",""BF08"",""BM04""]","[3,6,4,6]","[2,8,4,6]","","",""
"show-reward","64","147754","0.0-64.0","p532437","A2T1LNI80EPOQR","3WRBLBQ2GSENM5LEFQY1C5PG0GV0GC","3R3YRB5GRH95FKILHZPCUAX91LEUAE","emotion","match","uniform","","","","","","","","147379","149390.79999999702","","","","","","","","","","","","6","","stimuli/stars_6.png","93","","","","","stimuli/WF14_SUR.jpg","",""
"explore-choice","65","149691","0.0-65.0","p532437","A2T1LNI80EPOQR","3WRBLBQ2GSENM5LEFQY1C5PG0GV0GC","3R3YRB5GRH95FKILHZPCUAX91LEUAE","emotion","match","uniform","","","","","","","1423.699999999255","149391.69999999925","150815.3999999985","[""stimuli/BF08_SC.jpg"",""stimuli/BM04_AO.jpg"",""stimuli/WF14_SUR.jpg"",""stimuli/AF11_FO.jpg""]","stimuli/BF08_SC.jpg","stimuli/BM04_AO.jpg","stimuli/WF14_SUR.jpg","stimuli/AF11_FO.jpg","pos3","stimuli/WF14_SUR.jpg","SUR","WF14","2","5","10","8","stimuli/stars_10.png","98","[""SC"",""AO"",""SUR"",""FO""]","[""BF08"",""BM04"",""WF14"",""AF11""]","[8,3,10,5]","[6,2,8,4]","","",""
"show-reward","66","151707","0.0-66.0","p532437","A2T1LNI80EPOQR","3WRBLBQ2GSENM5LEFQY1C5PG0GV0GC","3R3YRB5GRH95FKILHZPCUAX91LEUAE","emotion","match","uniform","","","","","","","","151328.69999999925","153343.8999999985","","","","","","","","","","","","10","","stimuli/stars_10.png","98","","","","","stimuli/WF14_SUR.jpg","",""
"explore-choice","67","154412","0.0-67.0","p532437","A2T1LNI80EPOQR","3WRBLBQ2GSENM5LEFQY1C5PG0GV0GC","3R3YRB5GRH95FKILHZPCUAX91LEUAE","emotion","match","uniform","","","","","","","2190.5","153344.69999999925","155535.19999999925","[""stimuli/BM04_AO.jpg"",""stimuli/BF08_FO.jpg"",""stimuli/AF11_SUR.jpg"",""stimuli/WF14_SC.jpg""]","stimuli/BM04_AO.jpg","stimuli/BF08_FO.jpg","stimuli/AF11_SUR.jpg","stimuli/WF14_SC.jpg","pos3","stimuli/AF11_SUR.jpg","SUR","AF11","2","4.5","9","8","stimuli/stars_9.png","102.5","[""AO"",""FO"",""SUR"",""SC""]","[""BM04"",""BF08"",""AF11"",""WF14""]","[3,6,9,4]","[2,4,8,6]","","",""
"show-reward","68","156427","0.0-68.0","p532437","A2T1LNI80EPOQR","3WRBLBQ2GSENM5LEFQY1C5PG0GV0GC","3R3YRB5GRH95FKILHZPCUAX91LEUAE","emotion","match","uniform","","","","","","","","156048.79999999702","158063.79999999702","","","","","","","","","","","","9","","stimuli/stars_9.png","102.5","","","","","stimuli/AF11_SUR.jpg","",""
"explore-choice","69","159025","0.0-69.0","p532437","A2T1LNI80EPOQR","3WRBLBQ2GSENM5LEFQY1C5PG0GV0GC","3R3YRB5GRH95FKILHZPCUAX91LEUAE","emotion","match","uniform","","","","","","","2094","158064.5","160158.5","[""stimuli/BM04_SC.jpg"",""stimuli/BF08_SUR.jpg"",""stimuli/WF14_AO.jpg"",""stimuli/AF11_FO.jpg""]","stimuli/BM04_SC.jpg","stimuli/BF08_SUR.jpg","stimuli/WF14_AO.jpg","stimuli/AF11_FO.jpg","pos2","stimuli/BF08_SUR.jpg","SUR","BF08","1","5","10","8","stimuli/stars_10.png","107.5","[""SC"",""SUR"",""AO"",""FO""]","[""BM04"",""BF08"",""WF14"",""AF11""]","[5,10,1,5]","[6,8,2,4]","","",""
"show-reward","70","161035","0.0-70.0","p532437","A2T1LNI80EPOQR","3WRBLBQ2GSENM5LEFQY1C5PG0GV0GC","3R3YRB5GRH95FKILHZPCUAX91LEUAE","emotion","match","uniform","","","","","","","","160662.29999999702","162671.8999999985","","","","","","","","","","","","10","","stimuli/stars_10.png","107.5","","","","","stimuli/BF08_SUR.jpg","",""
"explore-choice","71","164109","0.0-71.0","p532437","A2T1LNI80EPOQR","3WRBLBQ2GSENM5LEFQY1C5PG0GV0GC","3R3YRB5GRH95FKILHZPCUAX91LEUAE","emotion","match","uniform","","","","","","","2557.800000000745","162672.59999999776","165230.3999999985","[""stimuli/BM04_AO.jpg"",""stimuli/WF14_FO.jpg"",""stimuli/AF11_SUR.jpg"",""stimuli/BF08_SC.jpg""]","stimuli/BM04_AO.jpg","stimuli/WF14_FO.jpg","stimuli/AF11_SUR.jpg","stimuli/BF08_SC.jpg","pos3","stimuli/AF11_SUR.jpg","SUR","AF11","2","3","6","8","stimuli/stars_6.png","110.5","[""AO"",""FO"",""SUR"",""SC""]","[""BM04"",""WF14"",""AF11"",""BF08""]","[0,2,6,6]","[2,4,8,6]","","",""
"show-reward","72","166113","0.0-72.0","p532437","A2T1LNI80EPOQR","3WRBLBQ2GSENM5LEFQY1C5PG0GV0GC","3R3YRB5GRH95FKILHZPCUAX91LEUAE","emotion","match","uniform","","","","","","","","165745.79999999702","167749.69999999925","","","","","","","","","","","","6","","stimuli/stars_6.png","110.5","","","","","stimuli/AF11_SUR.jpg","",""
"explore-choice","73","167693","0.0-73.0","p532437","A2T1LNI80EPOQR","3WRBLBQ2GSENM5LEFQY1C5PG0GV0GC","3R3YRB5GRH95FKILHZPCUAX91LEUAE","emotion","match","uniform","","","","","","","1067.800000000745","167750.59999999776","168818.3999999985","[""stimuli/BF08_AO.jpg"",""stimuli/BM04_FO.jpg"",""stimuli/WF14_SC.jpg"",""stimuli/AF11_SUR.jpg""]","stimuli/BF08_AO.jpg","stimuli/BM04_FO.jpg","stimuli/WF14_SC.jpg","stimuli/AF11_SUR.jpg","pos3","stimuli/WF14_SC.jpg","SC","WF14","2","4","8","6","stimuli/stars_8.png","114.5","[""AO"",""FO"",""SC"",""SUR""]","[""BF08"",""BM04"",""WF14"",""AF11""]","[2,2,8,7]","[2,4,6,8]","","",""
"show-reward","74","169701","0.0-74.0","p532437","A2T1LNI80EPOQR","3WRBLBQ2GSENM5LEFQY1C5PG0GV0GC","3R3YRB5GRH95FKILHZPCUAX91LEUAE","emotion","match","uniform","","","","","","","","169329.8999999985","171337.09999999776","","","","","","","","","","","","8","","stimuli/stars_8.png","114.5","","","","","stimuli/WF14_SC.jpg","",""
"explore-choice","75","171489","0.0-75.0","p532437","A2T1LNI80EPOQR","3WRBLBQ2GSENM5LEFQY1C5PG0GV0GC","3R3YRB5GRH95FKILHZPCUAX91LEUAE","emotion","match","uniform","","","","","","","1281.6000000014901","171337.79999999702","172619.3999999985","[""stimuli/WF14_SC.jpg"",""stimuli/AF11_AO.jpg"",""stimuli/BM04_FO.jpg"",""stimuli/BF08_SUR.jpg""]","stimuli/WF14_SC.jpg","stimuli/AF11_AO.jpg","stimuli/BM04_FO.jpg","stimuli/BF08_SUR.jpg","pos1","stimuli/WF14_SC.jpg","SC","WF14","0","4","8","6","stimuli/stars_8.png","118.5","[""SC"",""AO"",""FO"",""SUR""]","[""WF14"",""AF11"",""BM04"",""BF08""]","[8,2,2,10]","[6,2,4,8]","","",""
"show-reward","76","173504","0.0-76.0","p532437","A2T1LNI80EPOQR","3WRBLBQ2GSENM5LEFQY1C5PG0GV0GC","3R3YRB5GRH95FKILHZPCUAX91LEUAE","emotion","match","uniform","","","","","","","","173126.59999999776","175140.5","","","","","","","","","","","","8","","stimuli/stars_8.png","118.5","","","","","stimuli/WF14_SC.jpg","",""
"explore-choice","77","175287","0.0-77.0","p532437","A2T1LNI80EPOQR","3WRBLBQ2GSENM5LEFQY1C5PG0GV0GC","3R3YRB5GRH95FKILHZPCUAX91LEUAE","emotion","match","uniform","","","","","","","1279.8999999985099","175141.5","176421.3999999985","[""stimuli/BF08_SUR.jpg"",""stimuli/AF11_SC.jpg"",""stimuli/WF14_FO.jpg"",""stimuli/BM04_AO.jpg""]","stimuli/BF08_SUR.jpg","stimuli/AF11_SC.jpg","stimuli/WF14_FO.jpg","stimuli/BM04_AO.jpg","pos1","stimuli/BF08_SUR.jpg","SUR","BF08","0","3.5","7","8","stimuli/stars_7.png","122","[""SUR"",""SC"",""FO"",""AO""]","[""BF08"",""AF11"",""WF14"",""BM04""]","[7,8,2,2]","[8,6,4,2]","","",""
"show-reward","78","177302","0.0-78.0","p532437","A2T1LNI80EPOQR","3WRBLBQ2GSENM5LEFQY1C5PG0GV0GC","3R3YRB5GRH95FKILHZPCUAX91LEUAE","emotion","match","uniform","","","","","","","","176924.5","178938.3999999985","","","","","","","","","","","","7","","stimuli/stars_7.png","122","","","","","stimuli/BF08_SUR.jpg","",""
"explore-choice","79","179775","0.0-79.0","p532437","A2T1LNI80EPOQR","3WRBLBQ2GSENM5LEFQY1C5PG0GV0GC","3R3YRB5GRH95FKILHZPCUAX91LEUAE","emotion","match","uniform","","","","","","","1959.9000000022352","178939.09999999776","180899","[""stimuli/BF08_FO.jpg"",""stimuli/AF11_SC.jpg"",""stimuli/WF14_SUR.jpg"",""stimuli/BM04_AO.jpg""]","stimuli/BF08_FO.jpg","stimuli/AF11_SC.jpg","stimuli/WF14_SUR.jpg","stimuli/BM04_AO.jpg","pos3","stimuli/WF14_SUR.jpg","SUR","WF14","2","4.5","9","8","stimuli/stars_9.png","126.5","[""FO"",""SC"",""SUR"",""AO""]","[""BF08"",""AF11"",""WF14"",""BM04""]","[2,8,9,3]","[4,6,8,2]","","",""
"show-reward","80","181785","0.0-80.0","p532437","A2T1LNI80EPOQR","3WRBLBQ2GSENM5LEFQY1C5PG0GV0GC","3R3YRB5GRH95FKILHZPCUAX91LEUAE","emotion","match","uniform","","","","","","","","181412.59999999776","183421.59999999776","","","","","","","","","","","","9","","stimuli/stars_9.png","126.5","","","","","stimuli/WF14_SUR.jpg","",""
"explore-choice","81","184909","0.0-81.0","p532437","A2T1LNI80EPOQR","3WRBLBQ2GSENM5LEFQY1C5PG0GV0GC","3R3YRB5GRH95FKILHZPCUAX91LEUAE","emotion","match","uniform","","","","","","","2618.300000000745","183422.3999999985","186040.69999999925","[""stimuli/WF14_AO.jpg"",""stimuli/BF08_SC.jpg"",""stimuli/BM04_FO.jpg"",""stimuli/AF11_SUR.jpg""]","stimuli/WF14_AO.jpg","stimuli/BF08_SC.jpg","stimuli/BM04_FO.jpg","stimuli/AF11_SUR.jpg","pos4","stimuli/AF11_SUR.jpg","SUR","AF11","3","3","6","8","stimuli/stars_6.png","129.5","[""AO"",""SC"",""FO"",""SUR""]","[""WF14"",""BF08"",""BM04"",""AF11""]","[4,6,3,6]","[2,6,4,8]","","",""
"show-reward","82","186912","0.0-82.0","p532437","A2T1LNI80EPOQR","3WRBLBQ2GSENM5LEFQY1C5PG0GV0GC","3R3YRB5GRH95FKILHZPCUAX91LEUAE","emotion","match","uniform","","","","","","","","186545.79999999702","188548.19999999925","","","","","","","","","","","","6","","stimuli/stars_6.png","129.5","","","","","stimuli/AF11_SUR.jpg","",""
"explore-choice","83","189676","0.0-83.0","p532437","A2T1LNI80EPOQR","3WRBLBQ2GSENM5LEFQY1C5PG0GV0GC","3R3YRB5GRH95FKILHZPCUAX91LEUAE","emotion","match","uniform","","","","","","","2258.300000000745","188549.19999999925","190807.5","[""stimuli/BM04_SC.jpg"",""stimuli/BF08_FO.jpg"",""stimuli/WF14_AO.jpg"",""stimuli/AF11_SUR.jpg""]","stimuli/BM04_SC.jpg","stimuli/BF08_FO.jpg","stimuli/WF14_AO.jpg","stimuli/AF11_SUR.jpg","pos4","stimuli/AF11_SUR.jpg","SUR","AF11","3","4","8","8","stimuli/stars_8.png","133.5","[""SC"",""FO"",""AO"",""SUR""]","[""BM04"",""BF08"",""WF14"",""AF11""]","[6,4,0,8]","[6,4,2,8]","","",""
"show-reward","84","191692","0.0-84.0","p532437","A2T1LNI80EPOQR","3WRBLBQ2GSENM5LEFQY1C5PG0GV0GC","3R3YRB5GRH95FKILHZPCUAX91LEUAE","emotion","match","uniform","","","","","","","","191312.8999999985","193328.09999999776","","","","","","","","","","","","8","","stimuli/stars_8.png","133.5","","","","","stimuli/AF11_SUR.jpg","",""
"explore-choice","85","194675","0.0-85.0","p532437","A2T1LNI80EPOQR","3WRBLBQ2GSENM5LEFQY1C5PG0GV0GC","3R3YRB5GRH95FKILHZPCUAX91LEUAE","emotion","match","uniform","","","","","","","2476.89999999851","193329.19999999925","195806.09999999776","[""stimuli/WF14_FO.jpg"",""stimuli/AF11_AO.jpg"",""stimuli/BM04_SUR.jpg"",""stimuli/BF08_SC.jpg""]","stimuli/WF14_FO.jpg","stimuli/AF11_AO.jpg","stimuli/BM04_SUR.jpg","stimuli/BF08_SC.jpg","pos3","stimuli/BM04_SUR.jpg","SUR","BM04","2","3","6","8","stimuli/stars_6.png","136.5","[""FO"",""AO"",""SUR"",""SC""]","[""WF14"",""AF11"",""BM04"",""BF08""]","[6,4,6,4]","[4,2,8,6]","","",""
"show-reward","86","196692","0.0-86.0","p532437","A2T1LNI80EPOQR","3WRBLBQ2GSENM5LEFQY1C5PG0GV0GC","3R3YRB5GRH95FKILHZPCUAX91LEUAE","emotion","match","uniform","","","","","","","","196312.09999999776","198328.19999999925","","","","","","","","","","","","6","","stimuli/stars_6.png","136.5","","","","","stimuli/BM04_SUR.jpg","",""
"explore-choice","87","199959","0.0-87.0","p532437","A2T1LNI80EPOQR","3WRBLBQ2GSENM5LEFQY1C5PG0GV0GC","3R3YRB5GRH95FKILHZPCUAX91LEUAE","emotion","match","uniform","","","","","","","2766.099999997765","198329","201095.09999999776","[""stimuli/BF08_SUR.jpg"",""stimuli/AF11_FO.jpg"",""stimuli/WF14_SC.jpg"",""stimuli/BM04_AO.jpg""]","stimuli/BF08_SUR.jpg","stimuli/AF11_FO.jpg","stimuli/WF14_SC.jpg","stimuli/BM04_AO.jpg","pos2","stimuli/AF11_FO.jpg","FO","AF11","1","2","4","4","stimuli/stars_4.png","138.5","[""SUR"",""FO"",""SC"",""AO""]","[""BF08"",""AF11"",""WF14"",""BM04""]","[8,4,6,0]","[8,4,6,2]","","",""
"show-reward","88","201973","0.0-88.0","p532437","A2T1LNI80EPOQR","3WRBLBQ2GSENM5LEFQY1C5PG0GV0GC","3R3YRB5GRH95FKILHZPCUAX91LEUAE","emotion","match","uniform","","","","","","","","201596.29999999702","203609.69999999925","","","","","","","","","","","","4","","stimuli/stars_4.png","138.5","","","","","stimuli/AF11_FO.jpg","",""
"explore-choice","89","206473","0.0-89.0","p532437","A2T1LNI80EPOQR","3WRBLBQ2GSENM5LEFQY1C5PG0GV0GC","3R3YRB5GRH95FKILHZPCUAX91LEUAE","emotion","match","uniform","","","","","","","3984.7999999970198","203610.5","207595.29999999702","[""stimuli/BM04_SC.jpg"",""stimuli/BF08_AO.jpg"",""stimuli/AF11_SUR.jpg"",""stimuli/WF14_FO.jpg""]","stimuli/BM04_SC.jpg","stimuli/BF08_AO.jpg","stimuli/AF11_SUR.jpg","stimuli/WF14_FO.jpg","pos3","stimuli/AF11_SUR.jpg","SUR","AF11","2","5","10","8","stimuli/stars_10.png","143.5","[""SC"",""AO"",""SUR"",""FO""]","[""BM04"",""BF08"",""AF11"",""WF14""]","[4,2,10,5]","[6,2,8,4]","","",""
"show-reward","90","208489","0.0-90.0","p532437","A2T1LNI80EPOQR","3WRBLBQ2GSENM5LEFQY1C5PG0GV0GC","3R3YRB5GRH95FKILHZPCUAX91LEUAE","emotion","match","uniform","","","","","","","","208110.09999999776","210125.29999999702","","","","","","","","","","","","10","","stimuli/stars_10.png","143.5","","","","","stimuli/AF11_SUR.jpg","",""
"explore-choice","91","210707","0.0-91.0","p532437","A2T1LNI80EPOQR","3WRBLBQ2GSENM5LEFQY1C5PG0GV0GC","3R3YRB5GRH95FKILHZPCUAX91LEUAE","emotion","match","uniform","","","","","","","1709.5","210126.19999999925","211835.69999999925","[""stimuli/AF11_SC.jpg"",""stimuli/BM04_FO.jpg"",""stimuli/BF08_AO.jpg"",""stimuli/WF14_SUR.jpg""]","stimuli/AF11_SC.jpg","stimuli/BM04_FO.jpg","stimuli/BF08_AO.jpg","stimuli/WF14_SUR.jpg","pos4","stimuli/WF14_SUR.jpg","SUR","WF14","3","3","6","8","stimuli/stars_6.png","146.5","[""SC"",""FO"",""AO"",""SUR""]","[""AF11"",""BM04"",""BF08"",""WF14""]","[5,5,0,6]","[6,4,2,8]","","",""
"show-reward","92","212722","0.0-92.0","p532437","A2T1LNI80EPOQR","3WRBLBQ2GSENM5LEFQY1C5PG0GV0GC","3R3YRB5GRH95FKILHZPCUAX91LEUAE","emotion","match","uniform","","","","","","","","212344.29999999702","214358","","","","","","","","","","","","6","","stimuli/stars_6.png","146.5","","","","","stimuli/WF14_SUR.jpg","",""
"explore-choice","93","214708","0.0-93.0","p532437","A2T1LNI80EPOQR","3WRBLBQ2GSENM5LEFQY1C5PG0GV0GC","3R3YRB5GRH95FKILHZPCUAX91LEUAE","emotion","match","uniform","","","","","","","1480.5","214358.8999999985","215839.3999999985","[""stimuli/AF11_AO.jpg"",""stimuli/BM04_SUR.jpg"",""stimuli/BF08_FO.jpg"",""stimuli/WF14_SC.jpg""]","stimuli/AF11_AO.jpg","stimuli/BM04_SUR.jpg","stimuli/BF08_FO.jpg","stimuli/WF14_SC.jpg","pos4","stimuli/WF14_SC.jpg","SC","WF14","3","2","4","6","stimuli/stars_4.png","148.5","[""AO"",""SUR"",""FO"",""SC""]","[""AF11"",""BM04"",""BF08"",""WF14""]","[0,10,5,4]","[2,8,4,6]","","",""
"show-reward","94","216712","0.0-94.0","p532437","A2T1LNI80EPOQR","3WRBLBQ2GSENM5LEFQY1C5PG0GV0GC","3R3YRB5GRH95FKILHZPCUAX91LEUAE","emotion","match","uniform","","","","","","","","216345.5","218348.79999999702","","","","","","","","","","","","4","","stimuli/stars_4.png","148.5","","","","","stimuli/WF14_SC.jpg","",""
"explore-choice","95","218524","0.0-95.0","p532437","A2T1LNI80EPOQR","3WRBLBQ2GSENM5LEFQY1C5PG0GV0GC","3R3YRB5GRH95FKILHZPCUAX91LEUAE","emotion","match","uniform","","","","","","","1305","218349.69999999925","219654.69999999925","[""stimuli/BM04_FO.jpg"",""stimuli/BF08_SUR.jpg"",""stimuli/WF14_AO.jpg"",""stimuli/AF11_SC.jpg""]","stimuli/BM04_FO.jpg","stimuli/BF08_SUR.jpg","stimuli/WF14_AO.jpg","stimuli/AF11_SC.jpg","pos3","stimuli/WF14_AO.jpg","AO","WF14","2","2","4","2","stimuli/stars_4.png","150.5","[""FO"",""SUR"",""AO"",""SC""]","[""BM04"",""BF08"",""WF14"",""AF11""]","[3,9,4,6]","[4,8,2,6]","","",""
"show-reward","96","220536","0.0-96.0","p532437","A2T1LNI80EPOQR","3WRBLBQ2GSENM5LEFQY1C5PG0GV0GC","3R3YRB5GRH95FKILHZPCUAX91LEUAE","emotion","match","uniform","","","","","","","","220161","222172.29999999702","","","","","","","","","","","","4","","stimuli/stars_4.png","150.5","","","","","stimuli/WF14_AO.jpg","",""
"explore-choice","97","223056","0.0-97.0","p532437","A2T1LNI80EPOQR","3WRBLBQ2GSENM5LEFQY1C5PG0GV0GC","3R3YRB5GRH95FKILHZPCUAX91LEUAE","emotion","match","uniform","","","","","","","2009.2999999970198","222173","224182.29999999702","[""stimuli/WF14_SUR.jpg"",""stimuli/BM04_FO.jpg"",""stimuli/BF08_SC.jpg"",""stimuli/AF11_AO.jpg""]","stimuli/WF14_SUR.jpg","stimuli/BM04_FO.jpg","stimuli/BF08_SC.jpg","stimuli/AF11_AO.jpg","pos1","stimuli/WF14_SUR.jpg","SUR","WF14","0","3.5","7","8","stimuli/stars_7.png","154","[""SUR"",""FO"",""SC"",""AO""]","[""WF14"",""BM04"",""BF08"",""AF11""]","[7,3,5,2]","[8,4,6,2]","","",""
"show-reward","98","225068","0.0-98.0","p532437","A2T1LNI80EPOQR","3WRBLBQ2GSENM5LEFQY1C5PG0GV0GC","3R3YRB5GRH95FKILHZPCUAX91LEUAE","emotion","match","uniform","","","","","","","","224693.59999999776","226704.09999999776","","","","","","","","","","","","7","","stimuli/stars_7.png","154","","","","","stimuli/WF14_SUR.jpg","",""
"explore-choice","99","227990","0.0-99.0","p532437","A2T1LNI80EPOQR","3WRBLBQ2GSENM5LEFQY1C5PG0GV0GC","3R3YRB5GRH95FKILHZPCUAX91LEUAE","emotion","match","uniform","","","","","","","2415.2000000029802","226704.79999999702","229120","[""stimuli/AF11_FO.jpg"",""stimuli/BM04_SUR.jpg"",""stimuli/WF14_SC.jpg"",""stimuli/BF08_AO.jpg""]","stimuli/AF11_FO.jpg","stimuli/BM04_SUR.jpg","stimuli/WF14_SC.jpg","stimuli/BF08_AO.jpg","pos2","stimuli/BM04_SUR.jpg","SUR","BM04","1","3.5","7","8","stimuli/stars_7.png","157.5","[""FO"",""SUR"",""SC"",""AO""]","[""AF11"",""BM04"",""WF14"",""BF08""]","[5,7,4,1]","[4,8,6,2]","","",""
"show-reward","100","230003","0.0-100.0","p532437","A2T1LNI80EPOQR","3WRBLBQ2GSENM5LEFQY1C5PG0GV0GC","3R3YRB5GRH95FKILHZPCUAX91LEUAE","emotion","match","uniform","","","","","","","","229627.19999999925","231639.8999999985","","","","","","","","","","","","7","","stimuli/stars_7.png","157.5","","","","","stimuli/BM04_SUR.jpg","",""
"explore-choice","101","232538","0.0-101.0","p532437","A2T1LNI80EPOQR","3WRBLBQ2GSENM5LEFQY1C5PG0GV0GC","3R3YRB5GRH95FKILHZPCUAX91LEUAE","emotion","match","uniform","","","","","","","2023.800000000745","231640.59999999776","233664.3999999985","[""stimuli/BM04_SC.jpg"",""stimuli/BF08_AO.jpg"",""stimuli/WF14_SUR.jpg"",""stimuli/AF11_FO.jpg""]","stimuli/BM04_SC.jpg","stimuli/BF08_AO.jpg","stimuli/WF14_SUR.jpg","stimuli/AF11_FO.jpg","pos3","stimuli/WF14_SUR.jpg","SUR","WF14","2","4.5","9","8","stimuli/stars_9.png","162","[""SC"",""AO"",""SUR"",""FO""]","[""BM04"",""BF08"",""WF14"",""AF11""]","[7,0,9,4]","[6,2,8,4]","","",""
"show-reward","102","234549","0.0-102.0","p532437","A2T1LNI80EPOQR","3WRBLBQ2GSENM5LEFQY1C5PG0GV0GC","3R3YRB5GRH95FKILHZPCUAX91LEUAE","emotion","match","uniform","","","","","","","","234174.8999999985","236185.8999999985","","","","","","","","","","","","9","","stimuli/stars_9.png","162","","","","","stimuli/WF14_SUR.jpg","",""
"explore-choice","103","237974","0.0-103.0","p532437","A2T1LNI80EPOQR","3WRBLBQ2GSENM5LEFQY1C5PG0GV0GC","3R3YRB5GRH95FKILHZPCUAX91LEUAE","emotion","match","uniform","","","","","","","2908.599999997765","236186.69999999925","239095.29999999702","[""stimuli/BM03_DO.jpg"",""stimuli/AF02_CC.jpg"",""stimuli/HF10_HO.jpg"",""stimuli/WF04_HE.jpg""]","stimuli/BM03_DO.jpg","stimuli/AF02_CC.jpg","stimuli/HF10_HO.jpg","stimuli/WF04_HE.jpg","pos4","stimuli/WF04_HE.jpg","HE","WF04","3","1","2","2","stimuli/stars_2.png","163","[""DO"",""CC"",""HO"",""HE""]","[""BM03"",""AF02"",""HF10"",""WF04""]","[7,2,10,2]","[6,4,8,2]","","",""
"show-reward","104","239987","0.0-104.0","p532437","A2T1LNI80EPOQR","3WRBLBQ2GSENM5LEFQY1C5PG0GV0GC","3R3YRB5GRH95FKILHZPCUAX91LEUAE","emotion","match","uniform","","","","","","","","239611.09999999776","241624","","","","","","","","","","","","2","","stimuli/stars_2.png","163","","","","","stimuli/WF04_HE.jpg","",""
"explore-choice","105","241739","0.0-105.0","p532437","A2T1LNI80EPOQR","3WRBLBQ2GSENM5LEFQY1C5PG0GV0GC","3R3YRB5GRH95FKILHZPCUAX91LEUAE","emotion","match","uniform","","","","","","","1236.300000000745","241624.79999999702","242861.09999999776","[""stimuli/AF02_DO.jpg"",""stimuli/WF04_HO.jpg"",""stimuli/HF10_HE.jpg"",""stimuli/BM03_CC.jpg""]","stimuli/AF02_DO.jpg","stimuli/WF04_HO.jpg","stimuli/HF10_HE.jpg","stimuli/BM03_CC.jpg","pos1","stimuli/AF02_DO.jpg","DO","AF02","0","3.5","7","6","stimuli/stars_7.png","166.5","[""DO"",""HO"",""HE"",""CC""]","[""AF02"",""WF04"",""HF10"",""BM03""]","[7,9,1,4]","[6,8,2,4]","","",""
"show-reward","106","243752","0.0-106.0","p532437","A2T1LNI80EPOQR","3WRBLBQ2GSENM5LEFQY1C5PG0GV0GC","3R3YRB5GRH95FKILHZPCUAX91LEUAE","emotion","match","uniform","","","","","","","","243376.59999999776","245388.59999999776","","","","","","","","","","","","7","","stimuli/stars_7.png","166.5","","","","","stimuli/AF02_DO.jpg","",""
"explore-choice","107","247137","0.0-107.0","p532437","A2T1LNI80EPOQR","3WRBLBQ2GSENM5LEFQY1C5PG0GV0GC","3R3YRB5GRH95FKILHZPCUAX91LEUAE","emotion","match","uniform","","","","","","","2874.2999999970198","245389.5","248263.79999999702","[""stimuli/WF04_DO.jpg"",""stimuli/BM03_HO.jpg"",""stimuli/AF02_CC.jpg"",""stimuli/HF10_HE.jpg""]","stimuli/WF04_DO.jpg","stimuli/BM03_HO.jpg","stimuli/AF02_CC.jpg","stimuli/HF10_HE.jpg","pos2","stimuli/BM03_HO.jpg","HO","BM03","1","5","10","8","stimuli/stars_10.png","171.5","[""DO"",""HO"",""CC"",""HE""]","[""WF04"",""BM03"",""AF02"",""HF10""]","[5,10,2,0]","[6,8,4,2]","","",""
"show-reward","108","249142","0.0-108.0","p532437","A2T1LNI80EPOQR","3WRBLBQ2GSENM5LEFQY1C5PG0GV0GC","3R3YRB5GRH95FKILHZPCUAX91LEUAE","emotion","match","uniform","","","","","","","","248774.3999999985","250778.29999999702","","","","","","","","","","","","10","","stimuli/stars_10.png","171.5","","","","","stimuli/BM03_HO.jpg","",""
"explore-choice","109","251222","0.0-109.0","p532437","A2T1LNI80EPOQR","3WRBLBQ2GSENM5LEFQY1C5PG0GV0GC","3R3YRB5GRH95FKILHZPCUAX91LEUAE","emotion","match","uniform","","","","","","","1564.4000000022352","250779.09999999776","252343.5","[""stimuli/HF10_CC.jpg"",""stimuli/WF04_DO.jpg"",""stimuli/AF02_HE.jpg"",""stimuli/BM03_HO.jpg""]","stimuli/HF10_CC.jpg","stimuli/WF04_DO.jpg","stimuli/AF02_HE.jpg","stimuli/BM03_HO.jpg","pos4","stimuli/BM03_HO.jpg","HO","BM03","3","3.5","7","8","stimuli/stars_7.png","175","[""CC"",""DO"",""HE"",""HO""]","[""HF10"",""WF04"",""AF02"",""BM03""]","[4,6,4,7]","[4,6,2,8]","","",""
"show-reward","110","253236","0.0-110.0","p532437","A2T1LNI80EPOQR","3WRBLBQ2GSENM5LEFQY1C5PG0GV0GC","3R3YRB5GRH95FKILHZPCUAX91LEUAE","emotion","match","uniform","","","","","","","","252858.8999999985","254872.79999999702","","","","","","","","","","","","7","","stimuli/stars_7.png","175","","","","","stimuli/BM03_HO.jpg","",""
"explore-choice","111","258319","0.0-111.0","p532437","A2T1LNI80EPOQR","3WRBLBQ2GSENM5LEFQY1C5PG0GV0GC","3R3YRB5GRH95FKILHZPCUAX91LEUAE","emotion","match","uniform","","","","","","","4581.699999999255","254873.59999999776","259455.29999999702","[""stimuli/AF02_HO.jpg"",""stimuli/WF04_DO.jpg"",""stimuli/BM03_CC.jpg"",""stimuli/HF10_HE.jpg""]","stimuli/AF02_HO.jpg","stimuli/WF04_DO.jpg","stimuli/BM03_CC.jpg","stimuli/HF10_HE.jpg","pos1","stimuli/AF02_HO.jpg","HO","AF02","0","4","8","8","stimuli/stars_8.png","179","[""HO"",""DO"",""CC"",""HE""]","[""AF02"",""WF04"",""BM03"",""HF10""]","[8,6,3,3]","[8,6,4,2]","","",""
"show-reward","112","260337","0.0-112.0","p532437","A2T1LNI80EPOQR","3WRBLBQ2GSENM5LEFQY1C5PG0GV0GC","3R3YRB5GRH95FKILHZPCUAX91LEUAE","emotion","match","uniform","","","","","","","","259956.59999999776","261973.59999999776","","","","","","","","","","","","8","","stimuli/stars_8.png","179","","","","","stimuli/AF02_HO.jpg","",""
"explore-choice","113","262589","0.0-113.0","p532437","A2T1LNI80EPOQR","3WRBLBQ2GSENM5LEFQY1C5PG0GV0GC","3R3YRB5GRH95FKILHZPCUAX91LEUAE","emotion","match","uniform","","","","","","","1735.9000000022352","261974.29999999702","263710.19999999925","[""stimuli/AF02_DO.jpg"",""stimuli/WF04_CC.jpg"",""stimuli/BM03_HO.jpg"",""stimuli/HF10_HE.jpg""]","stimuli/AF02_DO.jpg","stimuli/WF04_CC.jpg","stimuli/BM03_HO.jpg","stimuli/HF10_HE.jpg","pos3","stimuli/BM03_HO.jpg","HO","BM03","2","3","6","8","stimuli/stars_6.png","182","[""DO"",""CC"",""HO"",""HE""]","[""AF02"",""WF04"",""BM03"",""HF10""]","[5,4,6,3]","[6,4,8,2]","","",""
"show-reward","114","264601","0.0-114.0","p532437","A2T1LNI80EPOQR","3WRBLBQ2GSENM5LEFQY1C5PG0GV0GC","3R3YRB5GRH95FKILHZPCUAX91LEUAE","emotion","match","uniform","","","","","","","","264226.19999999925","266237.799999997","","","","","","","","","","","","6","","stimuli/stars_6.png","182","","","","","stimuli/BM03_HO.jpg","",""
"explore-choice","115","266556","0.0-115.0","p532437","A2T1LNI80EPOQR","3WRBLBQ2GSENM5LEFQY1C5PG0GV0GC","3R3YRB5GRH95FKILHZPCUAX91LEUAE","emotion","match","uniform","","","","","","","1450.699999999255","266238.69999999925","267689.3999999985","[""stimuli/BM03_HE.jpg"",""stimuli/WF04_CC.jpg"",""stimuli/AF02_HO.jpg"",""stimuli/HF10_DO.jpg""]","stimuli/BM03_HE.jpg","stimuli/WF04_CC.jpg","stimuli/AF02_HO.jpg","stimuli/HF10_DO.jpg","pos3","stimuli/AF02_HO.jpg","HO","AF02","2","3","6","8","stimuli/stars_6.png","185","[""HE"",""CC"",""HO"",""DO""]","[""BM03"",""WF04"",""AF02"",""HF10""]","[0,2,6,6]","[2,4,8,6]","","",""
"show-reward","116","268564","0.0-116.0","p532437","A2T1LNI80EPOQR","3WRBLBQ2GSENM5LEFQY1C5PG0GV0GC","3R3YRB5GRH95FKILHZPCUAX91LEUAE","emotion","match","uniform","","","","","","","","268193.3999999985","270200.5","","","","","","","","","","","","6","","stimuli/stars_6.png","185","","","","","stimuli/AF02_HO.jpg","",""
"explore-choice","117","270539","0.0-117.0","p532437","A2T1LNI80EPOQR","3WRBLBQ2GSENM5LEFQY1C5PG0GV0GC","3R3YRB5GRH95FKILHZPCUAX91LEUAE","emotion","match","uniform","","","","","","","1465","270201.299999997","271666.299999997","[""stimuli/WF04_HE.jpg"",""stimuli/AF02_HO.jpg"",""stimuli/BM03_DO.jpg"",""stimuli/HF10_CC.jpg""]","stimuli/WF04_HE.jpg","stimuli/AF02_HO.jpg","stimuli/BM03_DO.jpg","stimuli/HF10_CC.jpg","pos2","stimuli/AF02_HO.jpg","HO","AF02","1","3.5","7","8","stimuli/stars_7.png","188.5","[""HE"",""HO"",""DO"",""CC""]","[""WF04"",""AF02"",""BM03"",""HF10""]","[1,7,5,4]","[2,8,6,4]","","",""
"show-reward","118","272549","0.0-118.0","p532437","A2T1LNI80EPOQR","3WRBLBQ2GSENM5LEFQY1C5PG0GV0GC","3R3YRB5GRH95FKILHZPCUAX91LEUAE","emotion","match","uniform","","","","","","","","272176.59999999776","274185.8999999985","","","","","","","","","","","","7","","stimuli/stars_7.png","188.5","","","","","stimuli/AF02_HO.jpg","",""
"explore-choice","119","275905","0.0-119.0","p532437","A2T1LNI80EPOQR","3WRBLBQ2GSENM5LEFQY1C5PG0GV0GC","3R3YRB5GRH95FKILHZPCUAX91LEUAE","emotion","match","uniform","","","","","","","2844.699999999255","274186.59999999776","277031.299999997","[""stimuli/HF10_CC.jpg"",""stimuli/WF04_HO.jpg"",""stimuli/BM03_HE.jpg"",""stimuli/AF02_DO.jpg""]","stimuli/HF10_CC.jpg","stimuli/WF04_HO.jpg","stimuli/BM03_HE.jpg","stimuli/AF02_DO.jpg","pos3","stimuli/BM03_HE.jpg","HE","BM03","2","1.5","3","2","stimuli/stars_3.png","190","[""CC"",""HO"",""HE"",""DO""]","[""HF10"",""WF04"",""BM03"",""AF02""]","[6,6,3,8]","[4,8,2,6]","","",""
"show-reward","120","277908","0.0-120.0","p532437","A2T1LNI80EPOQR","3WRBLBQ2GSENM5LEFQY1C5PG0GV0GC","3R3YRB5GRH95FKILHZPCUAX91LEUAE","emotion","match","uniform","","","","","","","","277542.299999997","279544","","","","","","","","","","","","3","","stimuli/stars_3.png","190","","","","","stimuli/BM03_HE.jpg","",""
"explore-choice","121","281972","0.0-121.0","p532437","A2T1LNI80EPOQR","3WRBLBQ2GSENM5LEFQY1C5PG0GV0GC","3R3YRB5GRH95FKILHZPCUAX91LEUAE","emotion","match","uniform","","","","","","","3558.60000000149","279544.8999999985","283103.5","[""stimuli/HF10_HO.jpg"",""stimuli/WF04_CC.jpg"",""stimuli/AF02_DO.jpg"",""stimuli/BM03_HE.jpg""]","stimuli/HF10_HO.jpg","stimuli/WF04_CC.jpg","stimuli/AF02_DO.jpg","stimuli/BM03_HE.jpg","pos2","stimuli/WF04_CC.jpg","CC","WF04","1","2.5","5","4","stimuli/stars_5.png","192.5","[""HO"",""CC"",""DO"",""HE""]","[""HF10"",""WF04"",""AF02"",""BM03""]","[10,5,6,1]","[8,4,6,2]","","",""
"show-reward","122","283987","0.0-122.0","p532437","A2T1LNI80EPOQR","3WRBLBQ2GSENM5LEFQY1C5PG0GV0GC","3R3YRB5GRH95FKILHZPCUAX91LEUAE","emotion","match","uniform","","","","","","","","283609.299999997","285623.09999999776","","","","","","","","","","","","5","","stimuli/stars_5.png","192.5","","","","","stimuli/WF04_CC.jpg","",""
"explore-choice","123","285439","0.0-123.0","p532437","A2T1LNI80EPOQR","3WRBLBQ2GSENM5LEFQY1C5PG0GV0GC","3R3YRB5GRH95FKILHZPCUAX91LEUAE","emotion","match","uniform","","","","","","","939","285623.8999999985","286562.8999999985","[""stimuli/WF04_HE.jpg"",""stimuli/BM03_HO.jpg"",""stimuli/HF10_DO.jpg"",""stimuli/AF02_CC.jpg""]","stimuli/WF04_HE.jpg","stimuli/BM03_HO.jpg","stimuli/HF10_DO.jpg","stimuli/AF02_CC.jpg","pos1","stimuli/WF04_HE.jpg","HE","WF04","0","0.5","1","2","stimuli/stars_1.png","193","[""HE"",""HO"",""DO"",""CC""]","[""WF04"",""BM03"",""HF10"",""AF02""]","[1,7,5,5]","[2,8,6,4]","","",""
"show-reward","124","287454","0.0-124.0","p532437","A2T1LNI80EPOQR","3WRBLBQ2GSENM5LEFQY1C5PG0GV0GC","3R3YRB5GRH95FKILHZPCUAX91LEUAE","emotion","match","uniform","","","","","","","","287076.59999999776","289090.8999999985","","","","","","","","","","","","1","","stimuli/stars_1.png","193","","","","","stimuli/WF04_HE.jpg","",""
"explore-choice","125","289871","0.0-125.0","p532437","A2T1LNI80EPOQR","3WRBLBQ2GSENM5LEFQY1C5PG0GV0GC","3R3YRB5GRH95FKILHZPCUAX91LEUAE","emotion","match","uniform","","","","","","","1910.5999999977648","289091.69999999925","291002.299999997","[""stimuli/AF02_CC.jpg"",""stimuli/BM03_HE.jpg"",""stimuli/WF04_DO.jpg"",""stimuli/HF10_HO.jpg""]","stimuli/AF02_CC.jpg","stimuli/BM03_HE.jpg","stimuli/WF04_DO.jpg","stimuli/HF10_HO.jpg","pos4","stimuli/HF10_HO.jpg","HO","HF10","3","4","8","8","stimuli/stars_8.png","197","[""CC"",""HE"",""DO"",""HO""]","[""AF02"",""BM03"",""WF04"",""HF10""]","[5,3,8,8]","[4,2,6,8]","","",""
"show-reward","126","291875","0.0-126.0","p532437","A2T1LNI80EPOQR","3WRBLBQ2GSENM5LEFQY1C5PG0GV0GC","3R3YRB5GRH95FKILHZPCUAX91LEUAE","emotion","match","uniform","","","","","","","","291508.3999999985","293511.19999999925","","","","","","","","","","","","8","","stimuli/stars_8.png","197","","","","","stimuli/HF10_HO.jpg","",""
"explore-choice","127","294205","0.0-127.0","p532437","A2T1LNI80EPOQR","3WRBLBQ2GSENM5LEFQY1C5PG0GV0GC","3R3YRB5GRH95FKILHZPCUAX91LEUAE","emotion","match","uniform","","","","","","","1815.800000000745","293511.8999999985","295327.69999999925","[""stimuli/HF10_HO.jpg"",""stimuli/BM03_DO.jpg"",""stimuli/AF02_HE.jpg"",""stimuli/WF04_CC.jpg""]","stimuli/HF10_HO.jpg","stimuli/BM03_DO.jpg","stimuli/AF02_HE.jpg","stimuli/WF04_CC.jpg","pos3","stimuli/AF02_HE.jpg","HE","AF02","2","0","0","2","stimuli/stars_0.png","197","[""HO"",""DO"",""HE"",""CC""]","[""HF10"",""BM03"",""AF02"",""WF04""]","[6,4,0,4]","[8,6,2,4]","","",""
"show-reward","128","296210","0.0-128.0","p532437","A2T1LNI80EPOQR","3WRBLBQ2GSENM5LEFQY1C5PG0GV0GC","3R3YRB5GRH95FKILHZPCUAX91LEUAE","emotion","match","uniform","","","","","","","","295842.299999997","297846","","","","","","","","","","","","0","","stimuli/stars_0.png","197","","","","","stimuli/AF02_HE.jpg","",""
"explore-choice","129","298588","0.0-129.0","p532437","A2T1LNI80EPOQR","3WRBLBQ2GSENM5LEFQY1C5PG0GV0GC","3R3YRB5GRH95FKILHZPCUAX91LEUAE","emotion","match","uniform","","","","","","","1865.800000000745","297846.8999999985","299712.69999999925","[""stimuli/BM03_HE.jpg"",""stimuli/HF10_DO.jpg"",""stimuli/AF02_CC.jpg"",""stimuli/WF04_HO.jpg""]","stimuli/BM03_HE.jpg","stimuli/HF10_DO.jpg","stimuli/AF02_CC.jpg","stimuli/WF04_HO.jpg","pos4","stimuli/WF04_HO.jpg","HO","WF04","3","4","8","8","stimuli/stars_8.png","201","[""HE"",""DO"",""CC"",""HO""]","[""BM03"",""HF10"",""AF02"",""WF04""]","[0,4,6,8]","[2,6,4,8]","","",""
"show-reward","130","300600","0.0-130.0","p532437","A2T1LNI80EPOQR","3WRBLBQ2GSENM5LEFQY1C5PG0GV0GC","3R3YRB5GRH95FKILHZPCUAX91LEUAE","emotion","match","uniform","","","","","","","","300225.09999999776","302236.299999997","","","","","","","","","","","","8","","stimuli/stars_8.png","201","","","","","stimuli/WF04_HO.jpg","",""
"explore-choice","131","304843","0.0-131.0","p532437","A2T1LNI80EPOQR","3WRBLBQ2GSENM5LEFQY1C5PG0GV0GC","3R3YRB5GRH95FKILHZPCUAX91LEUAE","emotion","match","uniform","","","","","","","3728.699999999255","302237.09999999776","305965.799999997","[""stimuli/HF10_DO.jpg"",""stimuli/AF02_HO.jpg"",""stimuli/WF04_HE.jpg"",""stimuli/BM03_CC.jpg""]","stimuli/HF10_DO.jpg","stimuli/AF02_HO.jpg","stimuli/WF04_HE.jpg","stimuli/BM03_CC.jpg","pos4","stimuli/BM03_CC.jpg","CC","BM03","3","2.5","5","4","stimuli/stars_5.png","203.5","[""DO"",""HO"",""HE"",""CC""]","[""HF10"",""AF02"",""WF04"",""BM03""]","[5,6,4,5]","[6,8,2,4]","","",""
"show-reward","132","306859","0.0-132.0","p532437","A2T1LNI80EPOQR","3WRBLBQ2GSENM5LEFQY1C5PG0GV0GC","3R3YRB5GRH95FKILHZPCUAX91LEUAE","emotion","match","uniform","","","","","","","","306479.8999999985","308494.799999997","","","","","","","","","","","","5","","stimuli/stars_5.png","203.5","","","","","stimuli/BM03_CC.jpg","",""
"explore-choice","133","308556","0.0-133.0","p532437","A2T1LNI80EPOQR","3WRBLBQ2GSENM5LEFQY1C5PG0GV0GC","3R3YRB5GRH95FKILHZPCUAX91LEUAE","emotion","match","uniform","","","","","","","1185","308495.69999999925","309680.69999999925","[""stimuli/HF10_CC.jpg"",""stimuli/BM03_HE.jpg"",""stimuli/AF02_HO.jpg"",""stimuli/WF04_DO.jpg""]","stimuli/HF10_CC.jpg","stimuli/BM03_HE.jpg","stimuli/AF02_HO.jpg","stimuli/WF04_DO.jpg","pos3","stimuli/AF02_HO.jpg","HO","AF02","2","4","8","8","stimuli/stars_8.png","207.5","[""CC"",""HE"",""HO"",""DO""]","[""HF10"",""BM03"",""AF02"",""WF04""]","[2,3,8,7]","[4,2,8,6]","","",""
"show-reward","134","310563","0.0-134.0","p532437","A2T1LNI80EPOQR","3WRBLBQ2GSENM5LEFQY1C5PG0GV0GC","3R3YRB5GRH95FKILHZPCUAX91LEUAE","emotion","match","uniform","","","","","","","","310192.69999999925","312199.19999999925","","","","","","","","","","","","8","","stimuli/stars_8.png","207.5","","","","","stimuli/AF02_HO.jpg","",""
"explore-choice","135","313089","0.0-135.0","p532437","A2T1LNI80EPOQR","3WRBLBQ2GSENM5LEFQY1C5PG0GV0GC","3R3YRB5GRH95FKILHZPCUAX91LEUAE","emotion","match","uniform","","","","","","","2019.300000000745","312200.19999999925","314219.5","[""stimuli/AF02_HE.jpg"",""stimuli/WF04_HO.jpg"",""stimuli/HF10_DO.jpg"",""stimuli/BM03_CC.jpg""]","stimuli/AF02_HE.jpg","stimuli/WF04_HO.jpg","stimuli/HF10_DO.jpg","stimuli/BM03_CC.jpg","pos1","stimuli/AF02_HE.jpg","HE","AF02","0","1","2","2","stimuli/stars_2.png","208.5","[""HE"",""HO"",""DO"",""CC""]","[""AF02"",""WF04"",""HF10"",""BM03""]","[2,8,7,4]","[2,8,6,4]","","",""
"show-reward","136","315094","0.0-136.0","p532437","A2T1LNI80EPOQR","3WRBLBQ2GSENM5LEFQY1C5PG0GV0GC","3R3YRB5GRH95FKILHZPCUAX91LEUAE","emotion","match","uniform","","","","","","","","314726.09999999776","316730.5","","","","","","","","","","","","2","","stimuli/stars_2.png","208.5","","","","","stimuli/AF02_HE.jpg","",""
"explore-choice","137","317887","0.0-137.0","p532437","A2T1LNI80EPOQR","3WRBLBQ2GSENM5LEFQY1C5PG0GV0GC","3R3YRB5GRH95FKILHZPCUAX91LEUAE","emotion","match","uniform","","","","","","","2288.60000000149","316731.3999999985","319020","[""stimuli/BM03_CC.jpg"",""stimuli/AF02_HE.jpg"",""stimuli/HF10_HO.jpg"",""stimuli/WF04_DO.jpg""]","stimuli/BM03_CC.jpg","stimuli/AF02_HE.jpg","stimuli/HF10_HO.jpg","stimuli/WF04_DO.jpg","pos1","stimuli/BM03_CC.jpg","CC","BM03","0","2","4","4","stimuli/stars_4.png","210.5","[""CC"",""HE"",""HO"",""DO""]","[""BM03"",""AF02"",""HF10"",""WF04""]","[4,0,10,7]","[4,2,8,6]","","",""
"show-reward","138","319891","0.0-138.0","p532437","A2T1LNI80EPOQR","3WRBLBQ2GSENM5LEFQY1C5PG0GV0GC","3R3YRB5GRH95FKILHZPCUAX91LEUAE","emotion","match","uniform","","","","","","","","319524.09999999776","321527.5","","","","","","","","","","","","4","","stimuli/stars_4.png","210.5","","","","","stimuli/BM03_CC.jpg","",""
"explore-choice","139","321439","0.0-139.0","p532437","A2T1LNI80EPOQR","3WRBLBQ2GSENM5LEFQY1C5PG0GV0GC","3R3YRB5GRH95FKILHZPCUAX91LEUAE","emotion","match","uniform","","","","","","","1035.8999999985099","321528.3999999985","322564.299999997","[""stimuli/WF04_HE.jpg"",""stimuli/AF02_DO.jpg"",""stimuli/HF10_HO.jpg"",""stimuli/BM03_CC.jpg""]","stimuli/WF04_HE.jpg","stimuli/AF02_DO.jpg","stimuli/HF10_HO.jpg","stimuli/BM03_CC.jpg","pos3","stimuli/HF10_HO.jpg","HO","HF10","2","4.5","9","8","stimuli/stars_9.png","215","[""HE"",""DO"",""HO"",""CC""]","[""WF04"",""AF02"",""HF10"",""BM03""]","[2,5,9,2]","[2,6,8,4]","","",""
"show-reward","140","323455","0.0-140.0","p532437","A2T1LNI80EPOQR","3WRBLBQ2GSENM5LEFQY1C5PG0GV0GC","3R3YRB5GRH95FKILHZPCUAX91LEUAE","emotion","match","uniform","","","","","","","","323076.19999999925","325090.8999999985","","","","","","","","","","","","9","","stimuli/stars_9.png","215","","","","","stimuli/HF10_HO.jpg","",""
"explore-choice","141","325626","0.0-141.0","p532437","A2T1LNI80EPOQR","3WRBLBQ2GSENM5LEFQY1C5PG0GV0GC","3R3YRB5GRH95FKILHZPCUAX91LEUAE","emotion","match","uniform","","","","","","","1658.9000000022352","325091.59999999776","326750.5","[""stimuli/WF04_CC.jpg"",""stimuli/HF10_HE.jpg"",""stimuli/AF02_HO.jpg"",""stimuli/BM03_DO.jpg""]","stimuli/WF04_CC.jpg","stimuli/HF10_HE.jpg","stimuli/AF02_HO.jpg","stimuli/BM03_DO.jpg","pos2","stimuli/HF10_HE.jpg","HE","HF10","1","1","2","2","stimuli/stars_2.png","216","[""CC"",""HE"",""HO"",""DO""]","[""WF04"",""HF10"",""AF02"",""BM03""]","[6,2,10,5]","[4,2,8,6]","","",""
"show-reward","142","327641","0.0-142.0","p532437","A2T1LNI80EPOQR","3WRBLBQ2GSENM5LEFQY1C5PG0GV0GC","3R3YRB5GRH95FKILHZPCUAX91LEUAE","emotion","match","uniform","","","","","","","","327262.799999997","329277.3999999985","","","","","","","","","","","","2","","stimuli/stars_2.png","216","","","","","stimuli/HF10_HE.jpg","",""
"explore-choice","143","330112","0.0-143.0","p532437","A2T1LNI80EPOQR","3WRBLBQ2GSENM5LEFQY1C5PG0GV0GC","3R3YRB5GRH95FKILHZPCUAX91LEUAE","emotion","match","uniform","","","","","","","1966.4000000022352","329278.09999999776","331244.5","[""stimuli/HF10_DO.jpg"",""stimuli/BM03_HO.jpg"",""stimuli/WF04_CC.jpg"",""stimuli/AF02_HE.jpg""]","stimuli/HF10_DO.jpg","stimuli/BM03_HO.jpg","stimuli/WF04_CC.jpg","stimuli/AF02_HE.jpg","pos3","stimuli/WF04_CC.jpg","CC","WF04","2","2.5","5","4","stimuli/stars_5.png","218.5","[""DO"",""HO"",""CC"",""HE""]","[""HF10"",""BM03"",""WF04"",""AF02""]","[4,9,5,3]","[6,8,4,2]","","",""
"show-reward","144","332125","0.0-144.0","p532437","A2T1LNI80EPOQR","3WRBLBQ2GSENM5LEFQY1C5PG0GV0GC","3R3YRB5GRH95FKILHZPCUAX91LEUAE","emotion","match","uniform","","","","","","","","331748.8999999985","333761.5","","","","","","","","","","","","5","","stimuli/stars_5.png","218.5","","","","","stimuli/WF04_CC.jpg","",""
"explore-choice","145","334587","0.0-145.0","p532437","A2T1LNI80EPOQR","3WRBLBQ2GSENM5LEFQY1C5PG0GV0GC","3R3YRB5GRH95FKILHZPCUAX91LEUAE","emotion","match","uniform","","","","","","","1954.3999999985099","333762.3999999985","335716.799999997","[""stimuli/WF04_HO.jpg"",""stimuli/AF02_CC.jpg"",""stimuli/HF10_HE.jpg"",""stimuli/BM03_DO.jpg""]","stimuli/WF04_HO.jpg","stimuli/AF02_CC.jpg","stimuli/HF10_HE.jpg","stimuli/BM03_DO.jpg","pos4","stimuli/BM03_DO.jpg","DO","BM03","3","3.5","7","6","stimuli/stars_7.png","222","[""HO"",""CC"",""HE"",""DO""]","[""WF04"",""AF02"",""HF10"",""BM03""]","[9,2,1,7]","[8,4,2,6]","","",""
"show-reward","146","336593","0.0-146.0","p532437","A2T1LNI80EPOQR","3WRBLBQ2GSENM5LEFQY1C5PG0GV0GC","3R3YRB5GRH95FKILHZPCUAX91LEUAE","emotion","match","uniform","","","","","","","","336223.799999997","338228.8999999985","","","","","","","","","","","","7","","stimuli/stars_7.png","222","","","","","stimuli/BM03_DO.jpg","",""
"explore-choice","147","339970","0.0-147.0","p532437","A2T1LNI80EPOQR","3WRBLBQ2GSENM5LEFQY1C5PG0GV0GC","3R3YRB5GRH95FKILHZPCUAX91LEUAE","emotion","match","uniform","","","","","","","2865.89999999851","338229.5","341095.3999999985","[""stimuli/AF02_DO.jpg"",""stimuli/BM03_HO.jpg"",""stimuli/WF04_HE.jpg"",""stimuli/HF10_CC.jpg""]","stimuli/AF02_DO.jpg","stimuli/BM03_HO.jpg","stimuli/WF04_HE.jpg","stimuli/HF10_CC.jpg","pos3","stimuli/WF04_HE.jpg","HE","WF04","2","1.5","3","2","stimuli/stars_3.png","223.5","[""DO"",""HO"",""HE"",""CC""]","[""AF02"",""BM03"",""WF04"",""HF10""]","[4,8,3,4]","[6,8,2,4]","","",""
"show-reward","148","341984","0.0-148.0","p532437","A2T1LNI80EPOQR","3WRBLBQ2GSENM5LEFQY1C5PG0GV0GC","3R3YRB5GRH95FKILHZPCUAX91LEUAE","emotion","match","uniform","","","","","","","","341607.3999999985","343620.69999999925","","","","","","","","","","","","3","","stimuli/stars_3.png","223.5","","","","","stimuli/WF04_HE.jpg","",""
"explore-choice","149","343705","0.0-149.0","p532437","A2T1LNI80EPOQR","3WRBLBQ2GSENM5LEFQY1C5PG0GV0GC","3R3YRB5GRH95FKILHZPCUAX91LEUAE","emotion","match","uniform","","","","","","","1218.800000000745","343621.3999999985","344840.19999999925","[""stimuli/BM03_DO.jpg"",""stimuli/HF10_CC.jpg"",""stimuli/WF04_HO.jpg"",""stimuli/AF02_HE.jpg""]","stimuli/BM03_DO.jpg","stimuli/HF10_CC.jpg","stimuli/WF04_HO.jpg","stimuli/AF02_HE.jpg","pos1","stimuli/BM03_DO.jpg","DO","BM03","0","4","8","6","stimuli/stars_8.png","227.5","[""DO"",""CC"",""HO"",""HE""]","[""BM03"",""HF10"",""WF04"",""AF02""]","[8,4,10,2]","[6,4,8,2]","","",""
"show-reward","150","345720","0.0-150.0","p532437","A2T1LNI80EPOQR","3WRBLBQ2GSENM5LEFQY1C5PG0GV0GC","3R3YRB5GRH95FKILHZPCUAX91LEUAE","emotion","match","uniform","","","","","","","","345341.8999999985","347356.09999999776","","","","","","","","","","","","8","","stimuli/stars_8.png","227.5","","","","","stimuli/BM03_DO.jpg","",""
"explore-choice","151","348263","0.0-151.0","p532437","A2T1LNI80EPOQR","3WRBLBQ2GSENM5LEFQY1C5PG0GV0GC","3R3YRB5GRH95FKILHZPCUAX91LEUAE","emotion","match","uniform","","","","","","","2028.199999999255","347356.8999999985","349385.09999999776","[""stimuli/BM03_HO.jpg"",""stimuli/HF10_CC.jpg"",""stimuli/AF02_HE.jpg"",""stimuli/WF04_DO.jpg""]","stimuli/BM03_HO.jpg","stimuli/HF10_CC.jpg","stimuli/AF02_HE.jpg","stimuli/WF04_DO.jpg","pos3","stimuli/AF02_HE.jpg","HE","AF02","2","2","4","2","stimuli/stars_4.png","229.5","[""HO"",""CC"",""HE"",""DO""]","[""BM03"",""HF10"",""AF02"",""WF04""]","[7,4,4,6]","[8,4,2,6]","","",""
"show-reward","152","350271","0.0-152.0","p532437","A2T1LNI80EPOQR","3WRBLBQ2GSENM5LEFQY1C5PG0GV0GC","3R3YRB5GRH95FKILHZPCUAX91LEUAE","emotion","match","uniform","","","","","","","","349900.5","351907.5","","","","","","","","","","","","4","","stimuli/stars_4.png","229.5","","","","","stimuli/AF02_HE.jpg","",""
"explore-choice","153","351807","0.0-153.0","p532437","A2T1LNI80EPOQR","3WRBLBQ2GSENM5LEFQY1C5PG0GV0GC","3R3YRB5GRH95FKILHZPCUAX91LEUAE","emotion","match","uniform","","","","","","","1021.8999999985099","351908.19999999925","352930.09999999776","[""stimuli/BM03_DO.jpg"",""stimuli/WF04_HE.jpg"",""stimuli/AF02_HO.jpg"",""stimuli/HF10_CC.jpg""]","stimuli/BM03_DO.jpg","stimuli/WF04_HE.jpg","stimuli/AF02_HO.jpg","stimuli/HF10_CC.jpg","pos1","stimuli/BM03_DO.jpg","DO","BM03","0","2.5","5","6","stimuli/stars_5.png","232","[""DO"",""HE"",""HO"",""CC""]","[""BM03"",""WF04"",""AF02"",""HF10""]","[5,1,7,4]","[6,2,8,4]","","",""
"show-reward","154","353818","0.0-154.0","p532437","A2T1LNI80EPOQR","3WRBLBQ2GSENM5LEFQY1C5PG0GV0GC","3R3YRB5GRH95FKILHZPCUAX91LEUAE","emotion","match","uniform","","","","","","","","353443.799999997","355454.19999999925","","","","","","","","","","","","5","","stimuli/stars_5.png","232","","","","","stimuli/BM03_DO.jpg","",""
"explore-choice","155","357424","0.0-155.0","p532437","A2T1LNI80EPOQR","3WRBLBQ2GSENM5LEFQY1C5PG0GV0GC","3R3YRB5GRH95FKILHZPCUAX91LEUAE","emotion","match","uniform","","","","","","","3090.800000000745","355454.8999999985","358545.69999999925","[""stimuli/BM03_CC.jpg"",""stimuli/HF10_HO.jpg"",""stimuli/WF04_HE.jpg"",""stimuli/AF02_DO.jpg""]","stimuli/BM03_CC.jpg","stimuli/HF10_HO.jpg","stimuli/WF04_HE.jpg","stimuli/AF02_DO.jpg","pos1","stimuli/BM03_CC.jpg","CC","BM03","0","1","2","4","stimuli/stars_2.png","233","[""CC"",""HO"",""HE"",""DO""]","[""BM03"",""HF10"",""WF04"",""AF02""]","[2,9,2,5]","[4,8,2,6]","","",""
"show-reward","156","359438","0.0-156.0","p532437","A2T1LNI80EPOQR","3WRBLBQ2GSENM5LEFQY1C5PG0GV0GC","3R3YRB5GRH95FKILHZPCUAX91LEUAE","emotion","match","uniform","","","","","","","","359060.799999997","361074.59999999776","","","","","","","","","","","","2","","stimuli/stars_2.png","233","","","","","stimuli/BM03_CC.jpg","",""
"explore-choice","157","361423","0.0-157.0","p532437","A2T1LNI80EPOQR","3WRBLBQ2GSENM5LEFQY1C5PG0GV0GC","3R3YRB5GRH95FKILHZPCUAX91LEUAE","emotion","match","uniform","","","","","","","1474","361075.3999999985","362549.3999999985","[""stimuli/AF02_CC.jpg"",""stimuli/BM03_DO.jpg"",""stimuli/HF10_HE.jpg"",""stimuli/WF04_HO.jpg""]","stimuli/AF02_CC.jpg","stimuli/BM03_DO.jpg","stimuli/HF10_HE.jpg","stimuli/WF04_HO.jpg","pos2","stimuli/BM03_DO.jpg","DO","BM03","1","3.5","7","6","stimuli/stars_7.png","236.5","[""CC"",""DO"",""HE"",""HO""]","[""AF02"",""BM03"",""HF10"",""WF04""]","[2,7,1,9]","[4,6,2,8]","","",""
"show-reward","158","363439","0.0-158.0","p532437","A2T1LNI80EPOQR","3WRBLBQ2GSENM5LEFQY1C5PG0GV0GC","3R3YRB5GRH95FKILHZPCUAX91LEUAE","emotion","match","uniform","","","","","","","","363059.8999999985","365075.299999997","","","","","","","","","","","","7","","stimuli/stars_7.png","236.5","","","","","stimuli/BM03_DO.jpg","",""
"explore-choice","159","367313","0.0-159.0","p532437","A2T1LNI80EPOQR","3WRBLBQ2GSENM5LEFQY1C5PG0GV0GC","3R3YRB5GRH95FKILHZPCUAX91LEUAE","emotion","match","uniform","","","","","","","3368.699999999255","365076.09999999776","368444.799999997","[""stimuli/AF02_CC.jpg"",""stimuli/WF04_HO.jpg"",""stimuli/HF10_DO.jpg"",""stimuli/BM03_HE.jpg""]","stimuli/AF02_CC.jpg","stimuli/WF04_HO.jpg","stimuli/HF10_DO.jpg","stimuli/BM03_HE.jpg","pos2","stimuli/WF04_HO.jpg","HO","WF04","1","4","8","8","stimuli/stars_8.png","240.5","[""CC"",""HO"",""DO"",""HE""]","[""AF02"",""WF04"",""HF10"",""BM03""]","[6,8,4,0]","[4,8,6,2]","","",""
"show-reward","160","369328","0.0-160.0","p532437","A2T1LNI80EPOQR","3WRBLBQ2GSENM5LEFQY1C5PG0GV0GC","3R3YRB5GRH95FKILHZPCUAX91LEUAE","emotion","match","uniform","","","","","","","","368950.299999997","370964.8999999985","","","","","","","","","","","","8","","stimuli/stars_8.png","240.5","","","","","stimuli/WF04_HO.jpg","",""
"explore-choice","161","371954","0.0-161.0","p532437","A2T1LNI80EPOQR","3WRBLBQ2GSENM5LEFQY1C5PG0GV0GC","3R3YRB5GRH95FKILHZPCUAX91LEUAE","emotion","match","uniform","","","","","","","2115.10000000149","370965.59999999776","373080.69999999925","[""stimuli/HF10_DO.jpg"",""stimuli/AF02_HO.jpg"",""stimuli/WF04_HE.jpg"",""stimuli/BM03_CC.jpg""]","stimuli/HF10_DO.jpg","stimuli/AF02_HO.jpg","stimuli/WF04_HE.jpg","stimuli/BM03_CC.jpg","pos4","stimuli/BM03_CC.jpg","CC","BM03","3","2.5","5","4","stimuli/stars_5.png","243","[""DO"",""HO"",""HE"",""CC""]","[""HF10"",""AF02"",""WF04"",""BM03""]","[5,6,4,5]","[6,8,2,4]","","",""
"show-reward","162","373959","0.0-162.0","p532437","A2T1LNI80EPOQR","3WRBLBQ2GSENM5LEFQY1C5PG0GV0GC","3R3YRB5GRH95FKILHZPCUAX91LEUAE","emotion","match","uniform","","","","","","","","373590.799999997","375595","","","","","","","","","","","","5","","stimuli/stars_5.png","243","","","","","stimuli/BM03_CC.jpg","",""
"explore-choice","163","375641","0.0-163.0","p532437","A2T1LNI80EPOQR","3WRBLBQ2GSENM5LEFQY1C5PG0GV0GC","3R3YRB5GRH95FKILHZPCUAX91LEUAE","emotion","match","uniform","","","","","","","1170.6000000014901","375595.799999997","376766.3999999985","[""stimuli/WF04_CC.jpg"",""stimuli/AF02_DO.jpg"",""stimuli/HF10_HE.jpg"",""stimuli/BM03_HO.jpg""]","stimuli/WF04_CC.jpg","stimuli/AF02_DO.jpg","stimuli/HF10_HE.jpg","stimuli/BM03_HO.jpg","pos4","stimuli/BM03_HO.jpg","HO","BM03","3","3","6","8","stimuli/stars_6.png","246","[""CC"",""DO"",""HE"",""HO""]","[""WF04"",""AF02"",""HF10"",""BM03""]","[4,5,3,6]","[4,6,2,8]","","",""
"show-reward","164","377656","0.0-164.0","p532437","A2T1LNI80EPOQR","3WRBLBQ2GSENM5LEFQY1C5PG0GV0GC","3R3YRB5GRH95FKILHZPCUAX91LEUAE","emotion","match","uniform","","","","","","","","377278.09999999776","379292.8999999985","","","","","","","","","","","","6","","stimuli/stars_6.png","246","","","","","stimuli/BM03_HO.jpg","",""
"explore-choice","165","379436","0.0-165.0","p532437","A2T1LNI80EPOQR","3WRBLBQ2GSENM5LEFQY1C5PG0GV0GC","3R3YRB5GRH95FKILHZPCUAX91LEUAE","emotion","match","uniform","","","","","","","1278.199999999255","379293.59999999776","380571.799999997","[""stimuli/BM03_DO.jpg"",""stimuli/AF02_HO.jpg"",""stimuli/HF10_HE.jpg"",""stimuli/WF04_CC.jpg""]","stimuli/BM03_DO.jpg","stimuli/AF02_HO.jpg","stimuli/HF10_HE.jpg","stimuli/WF04_CC.jpg","pos1","stimuli/BM03_DO.jpg","DO","BM03","0","2.5","5","6","stimuli/stars_5.png","248.5","[""DO"",""HO"",""HE"",""CC""]","[""BM03"",""AF02"",""HF10"",""WF04""]","[5,10,2,6]","[6,8,2,4]","","",""
"show-reward","166","381439","0.0-166.0","p532437","A2T1LNI80EPOQR","3WRBLBQ2GSENM5LEFQY1C5PG0GV0GC","3R3YRB5GRH95FKILHZPCUAX91LEUAE","emotion","match","uniform","","","","","","","","381072.799999997","383075","","","","","","","","","","","","5","","stimuli/stars_5.png","248.5","","","","","stimuli/BM03_DO.jpg","",""
"explore-choice","167","384359","0.0-167.0","p532437","A2T1LNI80EPOQR","3WRBLBQ2GSENM5LEFQY1C5PG0GV0GC","3R3YRB5GRH95FKILHZPCUAX91LEUAE","emotion","match","uniform","","","","","","","2405.2000000029802","383075.799999997","385481","[""stimuli/WF04_DO.jpg"",""stimuli/BM03_HE.jpg"",""stimuli/AF02_HO.jpg"",""stimuli/HF10_CC.jpg""]","stimuli/WF04_DO.jpg","stimuli/BM03_HE.jpg","stimuli/AF02_HO.jpg","stimuli/HF10_CC.jpg","pos2","stimuli/BM03_HE.jpg","HE","BM03","1","1.5","3","2","stimuli/stars_3.png","250","[""DO"",""HE"",""HO"",""CC""]","[""WF04"",""BM03"",""AF02"",""HF10""]","[7,3,8,2]","[6,2,8,4]","","",""
"show-reward","168","386360","0.0-168.0","p532437","A2T1LNI80EPOQR","3WRBLBQ2GSENM5LEFQY1C5PG0GV0GC","3R3YRB5GRH95FKILHZPCUAX91LEUAE","emotion","match","uniform","","","","","","","","385995.69999999925","387996.799999997","","","","","","","","","","","","3","","stimuli/stars_3.png","250","","","","","stimuli/BM03_HE.jpg","",""
"explore-choice","169","389593","0.0-169.0","p532437","A2T1LNI80EPOQR","3WRBLBQ2GSENM5LEFQY1C5PG0GV0GC","3R3YRB5GRH95FKILHZPCUAX91LEUAE","emotion","match","uniform","","","","","","","2717.599999997765","387997.69999999925","390715.299999997","[""stimuli/AF02_DO.jpg"",""stimuli/HF10_CC.jpg"",""stimuli/BM03_HO.jpg"",""stimuli/WF04_HE.jpg""]","stimuli/AF02_DO.jpg","stimuli/HF10_CC.jpg","stimuli/BM03_HO.jpg","stimuli/WF04_HE.jpg","pos4","stimuli/WF04_HE.jpg","HE","WF04","3","1.5","3","2","stimuli/stars_3.png","251.5","[""DO"",""CC"",""HO"",""HE""]","[""AF02"",""HF10"",""BM03"",""WF04""]","[4,4,8,3]","[6,4,8,2]","","",""
"show-reward","170","391610","0.0-170.0","p532437","A2T1LNI80EPOQR","3WRBLBQ2GSENM5LEFQY1C5PG0GV0GC","3R3YRB5GRH95FKILHZPCUAX91LEUAE","emotion","match","uniform","","","","","","","","391229.8999999985","393246.5","","","","","","","","","","","","3","","stimuli/stars_3.png","251.5","","","","","stimuli/WF04_HE.jpg","",""
"explore-choice","171","394021","0.0-171.0","p532437","A2T1LNI80EPOQR","3WRBLBQ2GSENM5LEFQY1C5PG0GV0GC","3R3YRB5GRH95FKILHZPCUAX91LEUAE","emotion","match","uniform","","","","","","","1908.6000000014901","393247.299999997","395155.8999999985","[""stimuli/BM03_HE.jpg"",""stimuli/WF04_CC.jpg"",""stimuli/AF02_DO.jpg"",""stimuli/HF10_HO.jpg""]","stimuli/BM03_HE.jpg","stimuli/WF04_CC.jpg","stimuli/AF02_DO.jpg","stimuli/HF10_HO.jpg","pos1","stimuli/BM03_HE.jpg","HE","BM03","0","0.5","1","2","stimuli/stars_1.png","252","[""HE"",""CC"",""DO"",""HO""]","[""BM03"",""WF04"",""AF02"",""HF10""]","[1,5,6,10]","[2,4,6,8]","","",""
"show-reward","172","396038","0.0-172.0","p532437","A2T1LNI80EPOQR","3WRBLBQ2GSENM5LEFQY1C5PG0GV0GC","3R3YRB5GRH95FKILHZPCUAX91LEUAE","emotion","match","uniform","","","","","","","","395658.59999999776","397674.69999999925","","","","","","","","","","","","1","","stimuli/stars_1.png","252","","","","","stimuli/BM03_HE.jpg","",""
"explore-choice","173","398374","0.0-173.0","p532437","A2T1LNI80EPOQR","3WRBLBQ2GSENM5LEFQY1C5PG0GV0GC","3R3YRB5GRH95FKILHZPCUAX91LEUAE","emotion","match","uniform","","","","","","","1821.6000000014901","397675.299999997","399496.8999999985","[""stimuli/HF10_DO.jpg"",""stimuli/BM03_HE.jpg"",""stimuli/WF04_CC.jpg"",""stimuli/AF02_HO.jpg""]","stimuli/HF10_DO.jpg","stimuli/BM03_HE.jpg","stimuli/WF04_CC.jpg","stimuli/AF02_HO.jpg","pos1","stimuli/HF10_DO.jpg","DO","HF10","0","3","6","6","stimuli/stars_6.png","255","[""DO"",""HE"",""CC"",""HO""]","[""HF10"",""BM03"",""WF04"",""AF02""]","[6,0,2,6]","[6,2,4,8]","","",""
"show-reward","174","400391","0.0-174.0","p532437","A2T1LNI80EPOQR","3WRBLBQ2GSENM5LEFQY1C5PG0GV0GC","3R3YRB5GRH95FKILHZPCUAX91LEUAE","emotion","match","uniform","","","","","","","","400011","402027.59999999776","","","","","","","","","","","","6","","stimuli/stars_6.png","255","","","","","stimuli/HF10_DO.jpg","",""
"explore-choice","175","402249","0.0-175.0","p532437","A2T1LNI80EPOQR","3WRBLBQ2GSENM5LEFQY1C5PG0GV0GC","3R3YRB5GRH95FKILHZPCUAX91LEUAE","emotion","match","uniform","","","","","","","1351.199999999255","402028.3999999985","403379.59999999776","[""stimuli/AF02_HO.jpg"",""stimuli/WF04_DO.jpg"",""stimuli/BM03_CC.jpg"",""stimuli/HF10_HE.jpg""]","stimuli/AF02_HO.jpg","stimuli/WF04_DO.jpg","stimuli/BM03_CC.jpg","stimuli/HF10_HE.jpg","pos4","stimuli/HF10_HE.jpg","HE","HF10","3","1.5","3","2","stimuli/stars_3.png","256.5","[""HO"",""DO"",""CC"",""HE""]","[""AF02"",""WF04"",""BM03"",""HF10""]","[8,6,3,3]","[8,6,4,2]","","",""
"show-reward","176","404265","0.0-176.0","p532437","A2T1LNI80EPOQR","3WRBLBQ2GSENM5LEFQY1C5PG0GV0GC","3R3YRB5GRH95FKILHZPCUAX91LEUAE","emotion","match","uniform","","","","","","","","403885.8999999985","405901.59999999776","","","","","","","","","","","","3","","stimuli/stars_3.png","256.5","","","","","stimuli/HF10_HE.jpg","",""
"explore-choice","177","405751","0.0-177.0","p532437","A2T1LNI80EPOQR","3WRBLBQ2GSENM5LEFQY1C5PG0GV0GC","3R3YRB5GRH95FKILHZPCUAX91LEUAE","emotion","match","uniform","","","","","","","982.8999999985099","405902.5","406885.3999999985","[""stimuli/AF02_HE.jpg"",""stimuli/BM03_CC.jpg"",""stimuli/HF10_DO.jpg"",""stimuli/WF04_HO.jpg""]","stimuli/AF02_HE.jpg","stimuli/BM03_CC.jpg","stimuli/HF10_DO.jpg","stimuli/WF04_HO.jpg","pos2","stimuli/BM03_CC.jpg","CC","BM03","1","2","4","4","stimuli/stars_4.png","258.5","[""HE"",""CC"",""DO"",""HO""]","[""AF02"",""BM03"",""HF10"",""WF04""]","[2,4,7,8]","[2,4,6,8]","","",""
"show-reward","178","407765","0.0-178.0","p532437","A2T1LNI80EPOQR","3WRBLBQ2GSENM5LEFQY1C5PG0GV0GC","3R3YRB5GRH95FKILHZPCUAX91LEUAE","emotion","match","uniform","","","","","","","","407388.799999997","409401.5","","","","","","","","","","","","4","","stimuli/stars_4.png","258.5","","","","","stimuli/BM03_CC.jpg","",""
"explore-choice","179","409374","0.0-179.0","p532437","A2T1LNI80EPOQR","3WRBLBQ2GSENM5LEFQY1C5PG0GV0GC","3R3YRB5GRH95FKILHZPCUAX91LEUAE","emotion","match","uniform","","","","","","","1096.800000000745","409402.3999999985","410499.19999999925","[""stimuli/BM03_HO.jpg"",""stimuli/WF04_HE.jpg"",""stimuli/AF02_CC.jpg"",""stimuli/HF10_DO.jpg""]","stimuli/BM03_HO.jpg","stimuli/WF04_HE.jpg","stimuli/AF02_CC.jpg","stimuli/HF10_DO.jpg","pos1","stimuli/BM03_HO.jpg","HO","BM03","0","3.5","7","8","stimuli/stars_7.png","262","[""HO"",""HE"",""CC"",""DO""]","[""BM03"",""WF04"",""AF02"",""HF10""]","[7,1,5,5]","[8,2,4,6]","","",""
"show-reward","180","411389","0.0-180.0","p532437","A2T1LNI80EPOQR","3WRBLBQ2GSENM5LEFQY1C5PG0GV0GC","3R3YRB5GRH95FKILHZPCUAX91LEUAE","emotion","match","uniform","","","","","","","","411010.8999999985","413025.3999999985","","","","","","","","","","","","7","","stimuli/stars_7.png","262","","","","","stimuli/BM03_HO.jpg","",""
"explore-choice","181","413358","0.0-181.0","p532437","A2T1LNI80EPOQR","3WRBLBQ2GSENM5LEFQY1C5PG0GV0GC","3R3YRB5GRH95FKILHZPCUAX91LEUAE","emotion","match","uniform","","","","","","","1453.1000000014901","413026.299999997","414479.3999999985","[""stimuli/HF10_HO.jpg"",""stimuli/WF04_CC.jpg"",""stimuli/AF02_HE.jpg"",""stimuli/BM03_DO.jpg""]","stimuli/HF10_HO.jpg","stimuli/WF04_CC.jpg","stimuli/AF02_HE.jpg","stimuli/BM03_DO.jpg","pos4","stimuli/BM03_DO.jpg","DO","BM03","3","2","4","6","stimuli/stars_4.png","264","[""HO"",""CC"",""HE"",""DO""]","[""HF10"",""WF04"",""AF02"",""BM03""]","[6,4,0,4]","[8,4,2,6]","","",""
"show-reward","182","415373","0.0-182.0","p532437","A2T1LNI80EPOQR","3WRBLBQ2GSENM5LEFQY1C5PG0GV0GC","3R3YRB5GRH95FKILHZPCUAX91LEUAE","emotion","match","uniform","","","","","","","","414995","417009.799999997","","","","","","","","","","","","4","","stimuli/stars_4.png","264","","","","","stimuli/BM03_DO.jpg","",""
"explore-choice","183","416952","0.0-183.0","p532437","A2T1LNI80EPOQR","3WRBLBQ2GSENM5LEFQY1C5PG0GV0GC","3R3YRB5GRH95FKILHZPCUAX91LEUAE","emotion","match","uniform","","","","","","","1068.699999999255","417010.59999999776","418079.299999997","[""stimuli/WF04_DO.jpg"",""stimuli/BM03_HE.jpg"",""stimuli/AF02_CC.jpg"",""stimuli/HF10_HO.jpg""]","stimuli/WF04_DO.jpg","stimuli/BM03_HE.jpg","stimuli/AF02_CC.jpg","stimuli/HF10_HO.jpg","pos2","stimuli/BM03_HE.jpg","HE","BM03","1","1.5","3","2","stimuli/stars_3.png","265.5","[""DO"",""HE"",""CC"",""HO""]","[""WF04"",""BM03"",""AF02"",""HF10""]","[8,3,5,8]","[6,2,4,8]","","",""
"show-reward","184","418963","0.0-184.0","p532437","A2T1LNI80EPOQR","3WRBLBQ2GSENM5LEFQY1C5PG0GV0GC","3R3YRB5GRH95FKILHZPCUAX91LEUAE","emotion","match","uniform","","","","","","","","418588.69999999925","420598.8999999985","","","","","","","","","","","","3","","stimuli/stars_3.png","265.5","","","","","stimuli/BM03_HE.jpg","",""
"explore-choice","185","420687","0.0-185.0","p532437","A2T1LNI80EPOQR","3WRBLBQ2GSENM5LEFQY1C5PG0GV0GC","3R3YRB5GRH95FKILHZPCUAX91LEUAE","emotion","match","uniform","","","","","","","1213.5","420599.59999999776","421813.09999999776","[""stimuli/AF02_CC.jpg"",""stimuli/HF10_HO.jpg"",""stimuli/BM03_DO.jpg"",""stimuli/WF04_HE.jpg""]","stimuli/AF02_CC.jpg","stimuli/HF10_HO.jpg","stimuli/BM03_DO.jpg","stimuli/WF04_HE.jpg","pos3","stimuli/BM03_DO.jpg","DO","BM03","2","3.5","7","6","stimuli/stars_7.png","269","[""CC"",""HO"",""DO"",""HE""]","[""AF02"",""HF10"",""BM03"",""WF04""]","[2,10,7,2]","[4,8,6,2]","","",""
"show-reward","186","422704","0.0-186.0","p532437","A2T1LNI80EPOQR","3WRBLBQ2GSENM5LEFQY1C5PG0GV0GC","3R3YRB5GRH95FKILHZPCUAX91LEUAE","emotion","match","uniform","","","","","","","","422324.09999999776","424340","","","","","","","","","","","","7","","stimuli/stars_7.png","269","","","","","stimuli/BM03_DO.jpg","",""
"explore-choice","187","424986","0.0-187.0","p532437","A2T1LNI80EPOQR","3WRBLBQ2GSENM5LEFQY1C5PG0GV0GC","3R3YRB5GRH95FKILHZPCUAX91LEUAE","emotion","match","uniform","","","","","","","1768.699999999255","424340.69999999925","426109.3999999985","[""stimuli/WF04_DO.jpg"",""stimuli/BM03_HO.jpg"",""stimuli/HF10_HE.jpg"",""stimuli/AF02_CC.jpg""]","stimuli/WF04_DO.jpg","stimuli/BM03_HO.jpg","stimuli/HF10_HE.jpg","stimuli/AF02_CC.jpg","pos3","stimuli/HF10_HE.jpg","HE","HF10","2","0","0","2","stimuli/stars_0.png","269","[""DO"",""HO"",""HE"",""CC""]","[""WF04"",""BM03"",""HF10"",""AF02""]","[5,10,0,2]","[6,8,2,4]","","",""
"show-reward","188","426997","0.0-188.0","p532437","A2T1LNI80EPOQR","3WRBLBQ2GSENM5LEFQY1C5PG0GV0GC","3R3YRB5GRH95FKILHZPCUAX91LEUAE","emotion","match","uniform","","","","","","","","426622.5","428633.19999999925","","","","","","","","","","","","0","","stimuli/stars_0.png","269","","","","","stimuli/HF10_HE.jpg","",""
"explore-choice","189","428402","0.0-189.0","p532437","A2T1LNI80EPOQR","3WRBLBQ2GSENM5LEFQY1C5PG0GV0GC","3R3YRB5GRH95FKILHZPCUAX91LEUAE","emotion","match","uniform","","","","","","","895.4000000022352","428633.799999997","429529.19999999925","[""stimuli/HF10_CC.jpg"",""stimuli/WF04_HO.jpg"",""stimuli/BM03_HE.jpg"",""stimuli/AF02_DO.jpg""]","stimuli/HF10_CC.jpg","stimuli/WF04_HO.jpg","stimuli/BM03_HE.jpg","stimuli/AF02_DO.jpg","pos1","stimuli/HF10_CC.jpg","CC","HF10","0","3","6","4","stimuli/stars_6.png","272","[""CC"",""HO"",""HE"",""DO""]","[""HF10"",""WF04"",""BM03"",""AF02""]","[6,6,3,8]","[4,8,2,6]","","",""
"show-reward","190","430418","0.0-190.0","p532437","A2T1LNI80EPOQR","3WRBLBQ2GSENM5LEFQY1C5PG0GV0GC","3R3YRB5GRH95FKILHZPCUAX91LEUAE","emotion","match","uniform","","","","","","","","430038.69999999925","432054.09999999776","","","","","","","","","","","","6","","stimuli/stars_6.png","272","","","","","stimuli/HF10_CC.jpg","",""
"explore-choice","191","432385","0.0-191.0","p532437","A2T1LNI80EPOQR","3WRBLBQ2GSENM5LEFQY1C5PG0GV0GC","3R3YRB5GRH95FKILHZPCUAX91LEUAE","emotion","match","uniform","","","","","","","1452.6000000014901","432054.799999997","433507.3999999985","[""stimuli/HF10_CC.jpg"",""stimuli/AF02_HE.jpg"",""stimuli/BM03_DO.jpg"",""stimuli/WF04_HO.jpg""]","stimuli/HF10_CC.jpg","stimuli/AF02_HE.jpg","stimuli/BM03_DO.jpg","stimuli/WF04_HO.jpg","pos3","stimuli/BM03_DO.jpg","DO","BM03","2","4","8","6","stimuli/stars_8.png","276","[""CC"",""HE"",""DO"",""HO""]","[""HF10"",""AF02"",""BM03"",""WF04""]","[4,2,8,10]","[4,2,6,8]","","",""
"show-reward","192","434389","0.0-192.0","p532437","A2T1LNI80EPOQR","3WRBLBQ2GSENM5LEFQY1C5PG0GV0GC","3R3YRB5GRH95FKILHZPCUAX91LEUAE","emotion","match","uniform","","","","","","","","434021.69999999925","436025.799999997","","","","","","","","","","","","8","","stimuli/stars_8.png","276","","","","","stimuli/BM03_DO.jpg","",""
"explore-choice","193","436668","0.0-193.0","p532437","A2T1LNI80EPOQR","3WRBLBQ2GSENM5LEFQY1C5PG0GV0GC","3R3YRB5GRH95FKILHZPCUAX91LEUAE","emotion","match","uniform","","","","","","","1762.5999999977648","436026.5","437789.09999999776","[""stimuli/AF02_HE.jpg"",""stimuli/BM03_CC.jpg"",""stimuli/HF10_HO.jpg"",""stimuli/WF04_DO.jpg""]","stimuli/AF02_HE.jpg","stimuli/BM03_CC.jpg","stimuli/HF10_HO.jpg","stimuli/WF04_DO.jpg","pos3","stimuli/HF10_HO.jpg","HO","HF10","2","5","10","8","stimuli/stars_10.png","281","[""HE"",""CC"",""HO"",""DO""]","[""AF02"",""BM03"",""HF10"",""WF04""]","[0,4,10,7]","[2,4,8,6]","","",""
"show-reward","194","438672","0.0-194.0","p532437","A2T1LNI80EPOQR","3WRBLBQ2GSENM5LEFQY1C5PG0GV0GC","3R3YRB5GRH95FKILHZPCUAX91LEUAE","emotion","match","uniform","","","","","","","","438305.09999999776","440308.299999997","","","","","","","","","","","","10","","stimuli/stars_10.png","281","","","","","stimuli/HF10_HO.jpg","",""
"explore-choice","195","441080","0.0-195.0","p532437","A2T1LNI80EPOQR","3WRBLBQ2GSENM5LEFQY1C5PG0GV0GC","3R3YRB5GRH95FKILHZPCUAX91LEUAE","emotion","match","uniform","","","","","","","1893.5999999977648","440309","442202.59999999776","[""stimuli/WF04_HO.jpg"",""stimuli/BM03_CC.jpg"",""stimuli/HF10_HE.jpg"",""stimuli/AF02_DO.jpg""]","stimuli/WF04_HO.jpg","stimuli/BM03_CC.jpg","stimuli/HF10_HE.jpg","stimuli/AF02_DO.jpg","pos1","stimuli/WF04_HO.jpg","HO","WF04","0","4.5","9","8","stimuli/stars_9.png","285.5","[""HO"",""CC"",""HE"",""DO""]","[""WF04"",""BM03"",""HF10"",""AF02""]","[9,4,1,7]","[8,4,2,6]","","",""
"show-reward","196","443092","0.0-196.0","p532437","A2T1LNI80EPOQR","3WRBLBQ2GSENM5LEFQY1C5PG0GV0GC","3R3YRB5GRH95FKILHZPCUAX91LEUAE","emotion","match","uniform","","","","","","","","442716.69999999925","444727.799999997","","","","","","","","","","","","9","","stimuli/stars_9.png","285.5","","","","","stimuli/WF04_HO.jpg","",""
"explore-choice","197","445801","0.0-197.0","p532437","A2T1LNI80EPOQR","3WRBLBQ2GSENM5LEFQY1C5PG0GV0GC","3R3YRB5GRH95FKILHZPCUAX91LEUAE","emotion","match","uniform","","","","","","","2195.5","444728.69999999925","446924.19999999925","[""stimuli/BM03_HO.jpg"",""stimuli/AF02_HE.jpg"",""stimuli/WF04_CC.jpg"",""stimuli/HF10_DO.jpg""]","stimuli/BM03_HO.jpg","stimuli/AF02_HE.jpg","stimuli/WF04_CC.jpg","stimuli/HF10_DO.jpg","pos1","stimuli/BM03_HO.jpg","HO","BM03","0","4.5","9","8","stimuli/stars_9.png","290","[""HO"",""HE"",""CC"",""DO""]","[""BM03"",""AF02"",""WF04"",""HF10""]","[9,3,5,4]","[8,2,4,6]","","",""
"show-reward","198","447811","0.0-198.0","p532437","A2T1LNI80EPOQR","3WRBLBQ2GSENM5LEFQY1C5PG0GV0GC","3R3YRB5GRH95FKILHZPCUAX91LEUAE","emotion","match","uniform","","","","","","","","447438","449447.19999999925","","","","","","","","","","","","9","","stimuli/stars_9.png","290","","","","","stimuli/BM03_HO.jpg","",""
"instructions","199","451826","0.0-199.0","p532437","A2T1LNI80EPOQR","3WRBLBQ2GSENM5LEFQY1C5PG0GV0GC","3R3YRB5GRH95FKILHZPCUAX91LEUAE","emotion","match","uniform","","","","","","[{""page_index"":0,""viewing_time"":4014.10000000149}]","4014.300000000745","","","","","","","","","","","","","","","","","","","","","","","",""
"survey-text","200","454497","0.0-200.0-0.0","p532437","A2T1LNI80EPOQR","3WRBLBQ2GSENM5LEFQY1C5PG0GV0GC","3R3YRB5GRH95FKILHZPCUAX91LEUAE","emotion","match","uniform","","","","","","","2667.900000002235","","","","","","","","","","","","","","","","","","","","","","","{""age"":""28""}",""
"survey-text","201","457817","0.0-200.0-1.0","p532437","A2T1LNI80EPOQR","3WRBLBQ2GSENM5LEFQY1C5PG0GV0GC","3R3YRB5GRH95FKILHZPCUAX91LEUAE","emotion","match","uniform","","","","","","","3317.89999999851","","","","","","","","","","","","","","","","","","","","","","","{""gender"":""Male""}",""
"survey-text","202","460969","0.0-200.0-2.0","p532437","A2T1LNI80EPOQR","3WRBLBQ2GSENM5LEFQY1C5PG0GV0GC","3R3YRB5GRH95FKILHZPCUAX91LEUAE","emotion","match","uniform","","","","","","","3150.300000000745","","","","","","","","","","","","","","","","","","","","","","","{""country"":""USA""}",""
"survey-text","203","468085","0.0-200.0-3.0","p532437","A2T1LNI80EPOQR","3WRBLBQ2GSENM5LEFQY1C5PG0GV0GC","3R3YRB5GRH95FKILHZPCUAX91LEUAE","emotion","match","uniform","","","","","","","7113.599999997765","","","","","","","","","","","","","","","","","","","","","","","{""language"":""English"",""other_languages"":""N/A""}",""
"survey-multi-select","204","470338","0.0-201.0","p532437","A2T1LNI80EPOQR","3WRBLBQ2GSENM5LEFQY1C5PG0GV0GC","3R3YRB5GRH95FKILHZPCUAX91LEUAE","emotion","match","uniform","","","","","","","2250.099999997765","","","","","","","","","","","","","","","","","","","","","","","{""race"":[""White""]}","[0]"
"survey-multi-choice","205","474715","0.0-202.0","p532437","A2T1LNI80EPOQR","3WRBLBQ2GSENM5LEFQY1C5PG0GV0GC","3R3YRB5GRH95FKILHZPCUAX91LEUAE","emotion","match","uniform","","","","","","","4374.5","","","","","","","","","","","","","","","","","","","","","","","{""education"":""Bachelor's degree""}","[0]"
"survey-text","206","504668","0.0-203.0","p532437","A2T1LNI80EPOQR","3WRBLBQ2GSENM5LEFQY1C5PG0GV0GC","3R3YRB5GRH95FKILHZPCUAX91LEUAE","emotion","match","uniform","","","","","","","29950.89999999851","","","","","","","","","","","","","","","","","","","","","","","{""patterns"":""Certain facial expressions seemed to give more or less stars sometimes"",""strategy"":""I tried to follow perceived patterns."",""comments"":""""}",""
