"trial_type","trial_index","time_elapsed","internal_node_id","subject","workerId","hitId","assignmentId","structure_condition","match_condition","noise_type","success","timeout","failed_images","failed_audio","failed_video","view_history","rt","start_time","end_time","stimuli","image1","image2","image3","image4","choiceLocation","choiceImage","choiceEmotion","choiceModel","choice_index","reward_score","reward","reward_score_unadjusted","reward_image","score_after_trial","emotions","models","rewards","rewards_unadjusted","stimulus","response","question_order"
"pavlovia","0","9","0.0-0.0","p317284","A2FGKKWP33DFWS","3S1L4CQSFYBD9IN1W8PCJQ1H8N7AFE","3JZQSN0I3SGH6TYY8AMN4W79PTCFGC","emotion","mismatch","uniform","","","","","","","","","","","","","","","","","","","","","","","","","","","","","","",""
"preload","1","4120","0.0-1.0","p317284","A2FGKKWP33DFWS","3S1L4CQSFYBD9IN1W8PCJQ1H8N7AFE","3JZQSN0I3SGH6TYY8AMN4W79PTCFGC","emotion","mismatch","uniform","true","false","[]","[]","[]","","","","","","","","","","","","","","","","","","","","","","","","","",""
"fullscreen","2","7815","0.0-2.0","p317284","A2FGKKWP33DFWS","3S1L4CQSFYBD9IN1W8PCJQ1H8N7AFE","3JZQSN0I3SGH6TYY8AMN4W79PTCFGC","emotion","mismatch","uniform","true","","","","","","","","","","","","","","","","","","","","","","","","","","","","","",""
"instructions","3","11696","0.0-3.0","p317284","A2FGKKWP33DFWS","3S1L4CQSFYBD9IN1W8PCJQ1H8N7AFE","3JZQSN0I3SGH6TYY8AMN4W79PTCFGC","emotion","mismatch","uniform","","","","","","[{""page_index"":0,""viewing_time"":3879}]","3879.599999964237","","","","","","","","","","","","","","","","","","","","","","","",""
"explore-choice","4","14361","0.0-4.0","p317284","A2FGKKWP33DFWS","3S1L4CQSFYBD9IN1W8PCJQ1H8N7AFE","3JZQSN0I3SGH6TYY8AMN4W79PTCFGC","emotion","mismatch","uniform","","","","","","","2163.300000011921","13567","15730.300000011921","[""stimuli/sheep.jpg"",""stimuli/hammer.jpg"",""stimuli/basketball.jpg"",""stimuli/horse.jpg""]","stimuli/sheep.jpg","stimuli/hammer.jpg","stimuli/basketball.jpg","stimuli/horse.jpg","pos4","stimuli/horse.jpg","","","3","64","64","64","stimuli/stars_8.png","65","","","","","","",""
"explore-choice","5","16491","0.0-5.0","p317284","A2FGKKWP33DFWS","3S1L4CQSFYBD9IN1W8PCJQ1H8N7AFE","3JZQSN0I3SGH6TYY8AMN4W79PTCFGC","emotion","mismatch","uniform","","","","","","","1627.7999999523163","16232.600000023842","17860.399999976158","[""stimuli/hammer.jpg"",""stimuli/basketball.jpg"",""stimuli/horse.jpg"",""stimuli/sheep.jpg""]","stimuli/hammer.jpg","stimuli/basketball.jpg","stimuli/horse.jpg","stimuli/sheep.jpg","pos1","stimuli/hammer.jpg","","","0","8","8","8","stimuli/stars_2.png","9","","","","","","",""
"instructions","6","29643","0.0-6.0","p317284","A2FGKKWP33DFWS","3S1L4CQSFYBD9IN1W8PCJQ1H8N7AFE","3JZQSN0I3SGH6TYY8AMN4W79PTCFGC","emotion","mismatch","uniform","","","","","","[{""page_index"":0,""viewing_time"":13151.600000023842}]","13151.900000035763","","","","","","","","","","","","","","","","","","","","","","","",""
"explore-choice","7","35624","0.0-7.0","p317284","A2FGKKWP33DFWS","3S1L4CQSFYBD9IN1W8PCJQ1H8N7AFE","3JZQSN0I3SGH6TYY8AMN4W79PTCFGC","emotion","mismatch","uniform","","","","","","","5479","31514.80000001192","36993.80000001192","[""stimuli/WF11_CC.jpg"",""stimuli/AF11_DO.jpg"",""stimuli/WF14_AO.jpg"",""stimuli/HM02_SUR.jpg""]","stimuli/WF11_CC.jpg","stimuli/AF11_DO.jpg","stimuli/WF14_AO.jpg","stimuli/HM02_SUR.jpg","pos4","stimuli/HM02_SUR.jpg","SUR","HM02","3","1.5","3","2","stimuli/stars_3.png","2.5","[""CC"",""DO"",""AO"",""SUR""]","[""WF11"",""AF11"",""WF14"",""HM02""]","[8,6,6,3]","[8,4,6,2]","","",""
"show-reward","8","37630","0.0-8.0","p317284","A2FGKKWP33DFWS","3S1L4CQSFYBD9IN1W8PCJQ1H8N7AFE","3JZQSN0I3SGH6TYY8AMN4W79PTCFGC","emotion","mismatch","uniform","","","","","","","","37497.19999998808","39500.39999997616","","","","","","","","","","","","3","","stimuli/stars_3.png","2.5","","","","","stimuli/HM02_SUR.jpg","",""
"explore-choice","9","42750","0.0-9.0","p317284","A2FGKKWP33DFWS","3S1L4CQSFYBD9IN1W8PCJQ1H8N7AFE","3JZQSN0I3SGH6TYY8AMN4W79PTCFGC","emotion","mismatch","uniform","","","","","","","4616.199999988079","39501.80000001192","44118","[""stimuli/WF14_AO.jpg"",""stimuli/WF11_SUR.jpg"",""stimuli/HM02_CC.jpg"",""stimuli/AF11_DO.jpg""]","stimuli/WF14_AO.jpg","stimuli/WF11_SUR.jpg","stimuli/HM02_CC.jpg","stimuli/AF11_DO.jpg","pos2","stimuli/WF11_SUR.jpg","SUR","WF11","1","0","0","2","stimuli/stars_0.png","2.5","[""AO"",""SUR"",""CC"",""DO""]","[""WF14"",""WF11"",""HM02"",""AF11""]","[6,0,9,4]","[6,2,8,4]","","",""
"show-reward","10","44760","0.0-10.0","p317284","A2FGKKWP33DFWS","3S1L4CQSFYBD9IN1W8PCJQ1H8N7AFE","3JZQSN0I3SGH6TYY8AMN4W79PTCFGC","emotion","mismatch","uniform","","","","","","","","44621.30000001192","46630","","","","","","","","","","","","0","","stimuli/stars_0.png","2.5","","","","","stimuli/WF11_SUR.jpg","",""
"explore-choice","11","47240","0.0-11.0","p317284","A2FGKKWP33DFWS","3S1L4CQSFYBD9IN1W8PCJQ1H8N7AFE","3JZQSN0I3SGH6TYY8AMN4W79PTCFGC","emotion","mismatch","uniform","","","","","","","1967.199999988079","46631.10000002384","48598.30000001192","[""stimuli/WF14_DO.jpg"",""stimuli/HM02_CC.jpg"",""stimuli/WF11_SUR.jpg"",""stimuli/AF11_AO.jpg""]","stimuli/WF14_DO.jpg","stimuli/HM02_CC.jpg","stimuli/WF11_SUR.jpg","stimuli/AF11_AO.jpg","pos1","stimuli/WF14_DO.jpg","DO","WF14","0","1.5","3","4","stimuli/stars_3.png","4","[""DO"",""CC"",""SUR"",""AO""]","[""WF14"",""HM02"",""WF11"",""AF11""]","[3,6,2,4]","[4,8,2,6]","","",""
"show-reward","12","49245","0.0-12.0","p317284","A2FGKKWP33DFWS","3S1L4CQSFYBD9IN1W8PCJQ1H8N7AFE","3JZQSN0I3SGH6TYY8AMN4W79PTCFGC","emotion","mismatch","uniform","","","","","","","","49111.10000002384","51115","","","","","","","","","","","","3","","stimuli/stars_3.png","4","","","","","stimuli/WF14_DO.jpg","",""
"explore-choice","13","51607","0.0-13.0","p317284","A2FGKKWP33DFWS","3S1L4CQSFYBD9IN1W8PCJQ1H8N7AFE","3JZQSN0I3SGH6TYY8AMN4W79PTCFGC","emotion","mismatch","uniform","","","","","","","1848.5999999642372","51115.60000002384","52964.19999998808","[""stimuli/WF11_AO.jpg"",""stimuli/AF11_DO.jpg"",""stimuli/HM02_SUR.jpg"",""stimuli/WF14_CC.jpg""]","stimuli/WF11_AO.jpg","stimuli/AF11_DO.jpg","stimuli/HM02_SUR.jpg","stimuli/WF14_CC.jpg","pos3","stimuli/HM02_SUR.jpg","SUR","HM02","2","1.5","3","2","stimuli/stars_3.png","5.5","[""AO"",""DO"",""SUR"",""CC""]","[""WF11"",""AF11"",""HM02"",""WF14""]","[4,2,3,6]","[6,4,2,8]","","",""
"show-reward","14","53616","0.0-14.0","p317284","A2FGKKWP33DFWS","3S1L4CQSFYBD9IN1W8PCJQ1H8N7AFE","3JZQSN0I3SGH6TYY8AMN4W79PTCFGC","emotion","mismatch","uniform","","","","","","","","53477.69999998808","55485.80000001192","","","","","","","","","","","","3","","stimuli/stars_3.png","5.5","","","","","stimuli/HM02_SUR.jpg","",""
"explore-choice","15","56282","0.0-15.0","p317284","A2FGKKWP33DFWS","3S1L4CQSFYBD9IN1W8PCJQ1H8N7AFE","3JZQSN0I3SGH6TYY8AMN4W79PTCFGC","emotion","mismatch","uniform","","","","","","","2164.2999999523163","55487.10000002384","57651.39999997616","[""stimuli/AF11_DO.jpg"",""stimuli/WF14_SUR.jpg"",""stimuli/WF11_CC.jpg"",""stimuli/HM02_AO.jpg""]","stimuli/AF11_DO.jpg","stimuli/WF14_SUR.jpg","stimuli/WF11_CC.jpg","stimuli/HM02_AO.jpg","pos4","stimuli/HM02_AO.jpg","AO","HM02","3","4","8","6","stimuli/stars_8.png","9.5","[""DO"",""SUR"",""CC"",""AO""]","[""AF11"",""WF14"",""WF11"",""HM02""]","[6,4,7,8]","[4,2,8,6]","","",""
"show-reward","16","58297","0.0-16.0","p317284","A2FGKKWP33DFWS","3S1L4CQSFYBD9IN1W8PCJQ1H8N7AFE","3JZQSN0I3SGH6TYY8AMN4W79PTCFGC","emotion","mismatch","uniform","","","","","","","","58153.30000001192","60167.10000002384","","","","","","","","","","","","8","","stimuli/stars_8.png","9.5","","","","","stimuli/HM02_AO.jpg","",""
"explore-choice","17","61415","0.0-17.0","p317284","A2FGKKWP33DFWS","3S1L4CQSFYBD9IN1W8PCJQ1H8N7AFE","3JZQSN0I3SGH6TYY8AMN4W79PTCFGC","emotion","mismatch","uniform","","","","","","","2608.199999988079","60167.80000001192","62776","[""stimuli/AF11_AO.jpg"",""stimuli/HM02_SUR.jpg"",""stimuli/WF14_CC.jpg"",""stimuli/WF11_DO.jpg""]","stimuli/AF11_AO.jpg","stimuli/HM02_SUR.jpg","stimuli/WF14_CC.jpg","stimuli/WF11_DO.jpg","pos2","stimuli/HM02_SUR.jpg","SUR","HM02","1","0.5","1","2","stimuli/stars_1.png","10","[""AO"",""SUR"",""CC"",""DO""]","[""AF11"",""HM02"",""WF14"",""WF11""]","[4,1,8,4]","[6,2,8,4]","","",""
"show-reward","18","63419","0.0-18.0","p317284","A2FGKKWP33DFWS","3S1L4CQSFYBD9IN1W8PCJQ1H8N7AFE","3JZQSN0I3SGH6TYY8AMN4W79PTCFGC","emotion","mismatch","uniform","","","","","","","","63286.60000002384","65289.10000002384","","","","","","","","","","","","1","","stimuli/stars_1.png","10","","","","","stimuli/HM02_SUR.jpg","",""
"explore-choice","19","65813","0.0-19.0","p317284","A2FGKKWP33DFWS","3S1L4CQSFYBD9IN1W8PCJQ1H8N7AFE","3JZQSN0I3SGH6TYY8AMN4W79PTCFGC","emotion","mismatch","uniform","","","","","","","1878","65290.19999998808","67168.19999998808","[""stimuli/HM02_SUR.jpg"",""stimuli/AF11_CC.jpg"",""stimuli/WF11_DO.jpg"",""stimuli/WF14_AO.jpg""]","stimuli/HM02_SUR.jpg","stimuli/AF11_CC.jpg","stimuli/WF11_DO.jpg","stimuli/WF14_AO.jpg","pos4","stimuli/WF14_AO.jpg","AO","WF14","3","3.5","7","6","stimuli/stars_7.png","13.5","[""SUR"",""CC"",""DO"",""AO""]","[""HM02"",""AF11"",""WF11"",""WF14""]","[2,6,5,7]","[2,8,4,6]","","",""
"show-reward","20","67830","0.0-20.0","p317284","A2FGKKWP33DFWS","3S1L4CQSFYBD9IN1W8PCJQ1H8N7AFE","3JZQSN0I3SGH6TYY8AMN4W79PTCFGC","emotion","mismatch","uniform","","","","","","","","67684","69700.60000002384","","","","","","","","","","","","7","","stimuli/stars_7.png","13.5","","","","","stimuli/WF14_AO.jpg","",""
"explore-choice","21","71438","0.0-21.0","p317284","A2FGKKWP33DFWS","3S1L4CQSFYBD9IN1W8PCJQ1H8N7AFE","3JZQSN0I3SGH6TYY8AMN4W79PTCFGC","emotion","mismatch","uniform","","","","","","","3096.600000023842","69701.19999998808","72797.80000001192","[""stimuli/WF11_AO.jpg"",""stimuli/AF11_CC.jpg"",""stimuli/WF14_SUR.jpg"",""stimuli/HM02_DO.jpg""]","stimuli/WF11_AO.jpg","stimuli/AF11_CC.jpg","stimuli/WF14_SUR.jpg","stimuli/HM02_DO.jpg","pos1","stimuli/WF11_AO.jpg","AO","WF11","0","4","8","6","stimuli/stars_8.png","17.5","[""AO"",""CC"",""SUR"",""DO""]","[""WF11"",""AF11"",""WF14"",""HM02""]","[8,7,1,3]","[6,8,2,4]","","",""
"show-reward","22","73441","0.0-22.0","p317284","A2FGKKWP33DFWS","3S1L4CQSFYBD9IN1W8PCJQ1H8N7AFE","3JZQSN0I3SGH6TYY8AMN4W79PTCFGC","emotion","mismatch","uniform","","","","","","","","73309.10000002384","75311.30000001192","","","","","","","","","","","","8","","stimuli/stars_8.png","17.5","","","","","stimuli/WF11_AO.jpg","",""
"explore-choice","23","76955","0.0-23.0","p317284","A2FGKKWP33DFWS","3S1L4CQSFYBD9IN1W8PCJQ1H8N7AFE","3JZQSN0I3SGH6TYY8AMN4W79PTCFGC","emotion","mismatch","uniform","","","","","","","3005.599999964237","75312.30000001192","78317.89999997616","[""stimuli/WF14_CC.jpg"",""stimuli/AF11_SUR.jpg"",""stimuli/HM02_AO.jpg"",""stimuli/WF11_DO.jpg""]","stimuli/WF14_CC.jpg","stimuli/AF11_SUR.jpg","stimuli/HM02_AO.jpg","stimuli/WF11_DO.jpg","pos4","stimuli/WF11_DO.jpg","DO","WF11","3","1","2","4","stimuli/stars_2.png","18.5","[""CC"",""SUR"",""AO"",""DO""]","[""WF14"",""AF11"",""HM02"",""WF11""]","[6,0,8,2]","[8,2,6,4]","","",""
"show-reward","24","78964","0.0-24.0","p317284","A2FGKKWP33DFWS","3S1L4CQSFYBD9IN1W8PCJQ1H8N7AFE","3JZQSN0I3SGH6TYY8AMN4W79PTCFGC","emotion","mismatch","uniform","","","","","","","","78826.30000001192","80834.10000002384","","","","","","","","","","","","2","","stimuli/stars_2.png","18.5","","","","","stimuli/WF11_DO.jpg","",""
"explore-choice","25","81835","0.0-25.0","p317284","A2FGKKWP33DFWS","3S1L4CQSFYBD9IN1W8PCJQ1H8N7AFE","3JZQSN0I3SGH6TYY8AMN4W79PTCFGC","emotion","mismatch","uniform","","","","","","","2354.599999964237","80835.30000001192","83189.89999997616","[""stimuli/WF14_CC.jpg"",""stimuli/AF11_DO.jpg"",""stimuli/WF11_SUR.jpg"",""stimuli/HM02_AO.jpg""]","stimuli/WF14_CC.jpg","stimuli/AF11_DO.jpg","stimuli/WF11_SUR.jpg","stimuli/HM02_AO.jpg","pos2","stimuli/AF11_DO.jpg","DO","AF11","1","1","2","4","stimuli/stars_2.png","19.5","[""CC"",""DO"",""SUR"",""AO""]","[""WF14"",""AF11"",""WF11"",""HM02""]","[8,2,1,8]","[8,4,2,6]","","",""
"show-reward","26","83846","0.0-26.0","p317284","A2FGKKWP33DFWS","3S1L4CQSFYBD9IN1W8PCJQ1H8N7AFE","3JZQSN0I3SGH6TYY8AMN4W79PTCFGC","emotion","mismatch","uniform","","","","","","","","83706.39999997616","85716.30000001192","","","","","","","","","","","","2","","stimuli/stars_2.png","19.5","","","","","stimuli/AF11_DO.jpg","",""
"explore-choice","27","86859","0.0-27.0","p317284","A2FGKKWP33DFWS","3S1L4CQSFYBD9IN1W8PCJQ1H8N7AFE","3JZQSN0I3SGH6TYY8AMN4W79PTCFGC","emotion","mismatch","uniform","","","","","","","2508.399999976158","85717.60000002384","88226","[""stimuli/HM02_CC.jpg"",""stimuli/AF11_DO.jpg"",""stimuli/WF14_SUR.jpg"",""stimuli/WF11_AO.jpg""]","stimuli/HM02_CC.jpg","stimuli/AF11_DO.jpg","stimuli/WF14_SUR.jpg","stimuli/WF11_AO.jpg","pos4","stimuli/WF11_AO.jpg","AO","WF11","3","3.5","7","6","stimuli/stars_7.png","23","[""CC"",""DO"",""SUR"",""AO""]","[""HM02"",""AF11"",""WF14"",""WF11""]","[8,3,0,7]","[8,4,2,6]","","",""
"show-reward","28","88867","0.0-28.0","p317284","A2FGKKWP33DFWS","3S1L4CQSFYBD9IN1W8PCJQ1H8N7AFE","3JZQSN0I3SGH6TYY8AMN4W79PTCFGC","emotion","mismatch","uniform","","","","","","","","88730.30000001192","90736.69999998808","","","","","","","","","","","","7","","stimuli/stars_7.png","23","","","","","stimuli/WF11_AO.jpg","",""
"explore-choice","29","91177","0.0-29.0","p317284","A2FGKKWP33DFWS","3S1L4CQSFYBD9IN1W8PCJQ1H8N7AFE","3JZQSN0I3SGH6TYY8AMN4W79PTCFGC","emotion","mismatch","uniform","","","","","","","1795.9000000357628","90737.69999998808","92533.60000002384","[""stimuli/WF11_CC.jpg"",""stimuli/HM02_DO.jpg"",""stimuli/AF11_SUR.jpg"",""stimuli/WF14_AO.jpg""]","stimuli/WF11_CC.jpg","stimuli/HM02_DO.jpg","stimuli/AF11_SUR.jpg","stimuli/WF14_AO.jpg","pos3","stimuli/AF11_SUR.jpg","SUR","AF11","2","2","4","2","stimuli/stars_4.png","25","[""CC"",""DO"",""SUR"",""AO""]","[""WF11"",""HM02"",""AF11"",""WF14""]","[8,2,4,4]","[8,4,2,6]","","",""
"show-reward","30","93180","0.0-30.0","p317284","A2FGKKWP33DFWS","3S1L4CQSFYBD9IN1W8PCJQ1H8N7AFE","3JZQSN0I3SGH6TYY8AMN4W79PTCFGC","emotion","mismatch","uniform","","","","","","","","93048.39999997616","95050.39999997616","","","","","","","","","","","","4","","stimuli/stars_4.png","25","","","","","stimuli/AF11_SUR.jpg","",""
"explore-choice","31","96175","0.0-31.0","p317284","A2FGKKWP33DFWS","3S1L4CQSFYBD9IN1W8PCJQ1H8N7AFE","3JZQSN0I3SGH6TYY8AMN4W79PTCFGC","emotion","mismatch","uniform","","","","","","","2486.800000011921","95051.5","97538.30000001192","[""stimuli/HM02_CC.jpg"",""stimuli/WF14_AO.jpg"",""stimuli/WF11_DO.jpg"",""stimuli/AF11_SUR.jpg""]","stimuli/HM02_CC.jpg","stimuli/WF14_AO.jpg","stimuli/WF11_DO.jpg","stimuli/AF11_SUR.jpg","pos2","stimuli/WF14_AO.jpg","AO","WF14","1","2","4","6","stimuli/stars_4.png","27","[""CC"",""AO"",""DO"",""SUR""]","[""HM02"",""WF14"",""WF11"",""AF11""]","[7,4,6,1]","[8,6,4,2]","","",""
"show-reward","32","98181","0.0-32.0","p317284","A2FGKKWP33DFWS","3S1L4CQSFYBD9IN1W8PCJQ1H8N7AFE","3JZQSN0I3SGH6TYY8AMN4W79PTCFGC","emotion","mismatch","uniform","","","","","","","","98046.10000002384","100051.30000001192","","","","","","","","","","","","4","","stimuli/stars_4.png","27","","","","","stimuli/WF14_AO.jpg","",""
"explore-choice","33","100524","0.0-33.0","p317284","A2FGKKWP33DFWS","3S1L4CQSFYBD9IN1W8PCJQ1H8N7AFE","3JZQSN0I3SGH6TYY8AMN4W79PTCFGC","emotion","mismatch","uniform","","","","","","","1834","100052.19999998808","101886.19999998808","[""stimuli/HM02_CC.jpg"",""stimuli/AF11_SUR.jpg"",""stimuli/WF14_DO.jpg"",""stimuli/WF11_AO.jpg""]","stimuli/HM02_CC.jpg","stimuli/AF11_SUR.jpg","stimuli/WF14_DO.jpg","stimuli/WF11_AO.jpg","pos4","stimuli/WF11_AO.jpg","AO","WF11","3","2.5","5","6","stimuli/stars_5.png","29.5","[""CC"",""SUR"",""DO"",""AO""]","[""HM02"",""AF11"",""WF14"",""WF11""]","[9,2,2,5]","[8,2,4,6]","","",""
"show-reward","34","102533","0.0-34.0","p317284","A2FGKKWP33DFWS","3S1L4CQSFYBD9IN1W8PCJQ1H8N7AFE","3JZQSN0I3SGH6TYY8AMN4W79PTCFGC","emotion","mismatch","uniform","","","","","","","","102395.19999998808","104403.10000002384","","","","","","","","","","","","5","","stimuli/stars_5.png","29.5","","","","","stimuli/WF11_AO.jpg","",""
"explore-choice","35","105507","0.0-35.0","p317284","A2FGKKWP33DFWS","3S1L4CQSFYBD9IN1W8PCJQ1H8N7AFE","3JZQSN0I3SGH6TYY8AMN4W79PTCFGC","emotion","mismatch","uniform","","","","","","","2457.699999988079","104404.19999998808","106861.89999997616","[""stimuli/WF14_CC.jpg"",""stimuli/HM02_DO.jpg"",""stimuli/WF11_SUR.jpg"",""stimuli/AF11_AO.jpg""]","stimuli/WF14_CC.jpg","stimuli/HM02_DO.jpg","stimuli/WF11_SUR.jpg","stimuli/AF11_AO.jpg","pos3","stimuli/WF11_SUR.jpg","SUR","WF11","2","0.5","1","2","stimuli/stars_1.png","30","[""CC"",""DO"",""SUR"",""AO""]","[""WF14"",""HM02"",""WF11"",""AF11""]","[6,2,1,4]","[8,4,2,6]","","",""
"show-reward","36","107514","0.0-36.0","p317284","A2FGKKWP33DFWS","3S1L4CQSFYBD9IN1W8PCJQ1H8N7AFE","3JZQSN0I3SGH6TYY8AMN4W79PTCFGC","emotion","mismatch","uniform","","","","","","","","107378.39999997616","109383.89999997616","","","","","","","","","","","","1","","stimuli/stars_1.png","30","","","","","stimuli/WF11_SUR.jpg","",""
"explore-choice","37","109178","0.0-37.0","p317284","A2FGKKWP33DFWS","3S1L4CQSFYBD9IN1W8PCJQ1H8N7AFE","3JZQSN0I3SGH6TYY8AMN4W79PTCFGC","emotion","mismatch","uniform","","","","","","","1148.5999999642372","109385.30000001192","110533.89999997616","[""stimuli/WF11_SUR.jpg"",""stimuli/WF14_AO.jpg"",""stimuli/AF11_CC.jpg"",""stimuli/HM02_DO.jpg""]","stimuli/WF11_SUR.jpg","stimuli/WF14_AO.jpg","stimuli/AF11_CC.jpg","stimuli/HM02_DO.jpg","pos4","stimuli/HM02_DO.jpg","DO","HM02","3","1.5","3","4","stimuli/stars_3.png","31.5","[""SUR"",""AO"",""CC"",""DO""]","[""WF11"",""WF14"",""AF11"",""HM02""]","[3,4,10,3]","[2,6,8,4]","","",""
"show-reward","38","111181","0.0-38.0","p317284","A2FGKKWP33DFWS","3S1L4CQSFYBD9IN1W8PCJQ1H8N7AFE","3JZQSN0I3SGH6TYY8AMN4W79PTCFGC","emotion","mismatch","uniform","","","","","","","","111049","113050.89999997616","","","","","","","","","","","","3","","stimuli/stars_3.png","31.5","","","","","stimuli/HM02_DO.jpg","",""
"explore-choice","39","112952","0.0-39.0","p317284","A2FGKKWP33DFWS","3S1L4CQSFYBD9IN1W8PCJQ1H8N7AFE","3JZQSN0I3SGH6TYY8AMN4W79PTCFGC","emotion","mismatch","uniform","","","","","","","1270.199999988079","113051.69999998808","114321.89999997616","[""stimuli/AF11_CC.jpg"",""stimuli/WF11_AO.jpg"",""stimuli/HM02_SUR.jpg"",""stimuli/WF14_DO.jpg""]","stimuli/AF11_CC.jpg","stimuli/WF11_AO.jpg","stimuli/HM02_SUR.jpg","stimuli/WF14_DO.jpg","pos2","stimuli/WF11_AO.jpg","AO","WF11","1","2","4","6","stimuli/stars_4.png","33.5","[""CC"",""AO"",""SUR"",""DO""]","[""AF11"",""WF11"",""HM02"",""WF14""]","[6,4,0,5]","[8,6,2,4]","","",""
"show-reward","40","114955","0.0-40.0","p317284","A2FGKKWP33DFWS","3S1L4CQSFYBD9IN1W8PCJQ1H8N7AFE","3JZQSN0I3SGH6TYY8AMN4W79PTCFGC","emotion","mismatch","uniform","","","","","","","","114823","116824.89999997616","","","","","","","","","","","","4","","stimuli/stars_4.png","33.5","","","","","stimuli/WF11_AO.jpg","",""
"explore-choice","41","116394","0.0-41.0","p317284","A2FGKKWP33DFWS","3S1L4CQSFYBD9IN1W8PCJQ1H8N7AFE","3JZQSN0I3SGH6TYY8AMN4W79PTCFGC","emotion","mismatch","uniform","","","","","","","935.9000000357628","116825.89999997616","117761.80000001192","[""stimuli/WF14_DO.jpg"",""stimuli/WF11_CC.jpg"",""stimuli/AF11_SUR.jpg"",""stimuli/HM02_AO.jpg""]","stimuli/WF14_DO.jpg","stimuli/WF11_CC.jpg","stimuli/AF11_SUR.jpg","stimuli/HM02_AO.jpg","pos3","stimuli/AF11_SUR.jpg","SUR","AF11","2","0.5","1","2","stimuli/stars_1.png","34","[""DO"",""CC"",""SUR"",""AO""]","[""WF14"",""WF11"",""AF11"",""HM02""]","[2,8,1,6]","[4,8,2,6]","","",""
"show-reward","42","118397","0.0-42.0","p317284","A2FGKKWP33DFWS","3S1L4CQSFYBD9IN1W8PCJQ1H8N7AFE","3JZQSN0I3SGH6TYY8AMN4W79PTCFGC","emotion","mismatch","uniform","","","","","","","","118265.30000001192","120267.30000001192","","","","","","","","","","","","1","","stimuli/stars_1.png","34","","","","","stimuli/AF11_SUR.jpg","",""
"explore-choice","43","120495","0.0-43.0","p317284","A2FGKKWP33DFWS","3S1L4CQSFYBD9IN1W8PCJQ1H8N7AFE","3JZQSN0I3SGH6TYY8AMN4W79PTCFGC","emotion","mismatch","uniform","","","","","","","1588.4000000357628","120267.89999997616","121856.30000001192","[""stimuli/WF14_SUR.jpg"",""stimuli/WF11_CC.jpg"",""stimuli/AF11_AO.jpg"",""stimuli/HM02_DO.jpg""]","stimuli/WF14_SUR.jpg","stimuli/WF11_CC.jpg","stimuli/AF11_AO.jpg","stimuli/HM02_DO.jpg","pos1","stimuli/WF14_SUR.jpg","SUR","WF14","0","0.5","1","2","stimuli/stars_1.png","34.5","[""SUR"",""CC"",""AO"",""DO""]","[""WF14"",""WF11"",""AF11"",""HM02""]","[1,7,4,6]","[2,8,6,4]","","",""
"show-reward","44","122499","0.0-44.0","p317284","A2FGKKWP33DFWS","3S1L4CQSFYBD9IN1W8PCJQ1H8N7AFE","3JZQSN0I3SGH6TYY8AMN4W79PTCFGC","emotion","mismatch","uniform","","","","","","","","122365.89999997616","124369.5","","","","","","","","","","","","1","","stimuli/stars_1.png","34.5","","","","","stimuli/WF14_SUR.jpg","",""
"explore-choice","45","124863","0.0-45.0","p317284","A2FGKKWP33DFWS","3S1L4CQSFYBD9IN1W8PCJQ1H8N7AFE","3JZQSN0I3SGH6TYY8AMN4W79PTCFGC","emotion","mismatch","uniform","","","","","","","1847.199999988079","124370.5","126217.69999998808","[""stimuli/AF11_AO.jpg"",""stimuli/WF11_CC.jpg"",""stimuli/WF14_DO.jpg"",""stimuli/HM02_SUR.jpg""]","stimuli/AF11_AO.jpg","stimuli/WF11_CC.jpg","stimuli/WF14_DO.jpg","stimuli/HM02_SUR.jpg","pos3","stimuli/WF14_DO.jpg","DO","WF14","2","3","6","4","stimuli/stars_6.png","37.5","[""AO"",""CC"",""DO"",""SUR""]","[""AF11"",""WF11"",""WF14"",""HM02""]","[4,9,6,1]","[6,8,4,2]","","",""
"show-reward","46","126867","0.0-46.0","p317284","A2FGKKWP33DFWS","3S1L4CQSFYBD9IN1W8PCJQ1H8N7AFE","3JZQSN0I3SGH6TYY8AMN4W79PTCFGC","emotion","mismatch","uniform","","","","","","","","126734.60000002384","128736.80000001192","","","","","","","","","","","","6","","stimuli/stars_6.png","37.5","","","","","stimuli/WF14_DO.jpg","",""
"explore-choice","47","129459","0.0-47.0","p317284","A2FGKKWP33DFWS","3S1L4CQSFYBD9IN1W8PCJQ1H8N7AFE","3JZQSN0I3SGH6TYY8AMN4W79PTCFGC","emotion","mismatch","uniform","","","","","","","2088.2999999523163","128737.60000002384","130825.89999997616","[""stimuli/HM02_AO.jpg"",""stimuli/AF11_CC.jpg"",""stimuli/WF11_DO.jpg"",""stimuli/WF14_SUR.jpg""]","stimuli/HM02_AO.jpg","stimuli/AF11_CC.jpg","stimuli/WF11_DO.jpg","stimuli/WF14_SUR.jpg","pos2","stimuli/AF11_CC.jpg","CC","AF11","1","4","8","8","stimuli/stars_8.png","41.5","[""AO"",""CC"",""DO"",""SUR""]","[""HM02"",""AF11"",""WF11"",""WF14""]","[8,8,5,4]","[6,8,4,2]","","",""
"show-reward","48","131463","0.0-48.0","p317284","A2FGKKWP33DFWS","3S1L4CQSFYBD9IN1W8PCJQ1H8N7AFE","3JZQSN0I3SGH6TYY8AMN4W79PTCFGC","emotion","mismatch","uniform","","","","","","","","131330","133332.5","","","","","","","","","","","","8","","stimuli/stars_8.png","41.5","","","","","stimuli/AF11_CC.jpg","",""
"explore-choice","49","135032","0.0-49.0","p317284","A2FGKKWP33DFWS","3S1L4CQSFYBD9IN1W8PCJQ1H8N7AFE","3JZQSN0I3SGH6TYY8AMN4W79PTCFGC","emotion","mismatch","uniform","","","","","","","3054.300000011921","133333.5","136387.80000001192","[""stimuli/HM02_CC.jpg"",""stimuli/WF14_SUR.jpg"",""stimuli/WF11_DO.jpg"",""stimuli/AF11_AO.jpg""]","stimuli/HM02_CC.jpg","stimuli/WF14_SUR.jpg","stimuli/WF11_DO.jpg","stimuli/AF11_AO.jpg","pos2","stimuli/WF14_SUR.jpg","SUR","WF14","1","0.5","1","2","stimuli/stars_1.png","42","[""CC"",""SUR"",""DO"",""AO""]","[""HM02"",""WF14"",""WF11"",""AF11""]","[8,1,2,6]","[8,2,4,6]","","",""
"show-reward","50","137035","0.0-50.0","p317284","A2FGKKWP33DFWS","3S1L4CQSFYBD9IN1W8PCJQ1H8N7AFE","3JZQSN0I3SGH6TYY8AMN4W79PTCFGC","emotion","mismatch","uniform","","","","","","","","136903.19999998808","138905.39999997616","","","","","","","","","","","","1","","stimuli/stars_1.png","42","","","","","stimuli/WF14_SUR.jpg","",""
"explore-choice","51","139046","0.0-51.0","p317284","A2FGKKWP33DFWS","3S1L4CQSFYBD9IN1W8PCJQ1H8N7AFE","3JZQSN0I3SGH6TYY8AMN4W79PTCFGC","emotion","mismatch","uniform","","","","","","","1505.199999988079","138906.5","140411.69999998808","[""stimuli/AF11_SUR.jpg"",""stimuli/WF14_CC.jpg"",""stimuli/HM02_DO.jpg"",""stimuli/WF11_AO.jpg""]","stimuli/AF11_SUR.jpg","stimuli/WF14_CC.jpg","stimuli/HM02_DO.jpg","stimuli/WF11_AO.jpg","pos4","stimuli/WF11_AO.jpg","AO","WF11","3","2","4","6","stimuli/stars_4.png","44","[""SUR"",""CC"",""DO"",""AO""]","[""AF11"",""WF14"",""HM02"",""WF11""]","[0,8,3,4]","[2,8,4,6]","","",""
"show-reward","52","141051","0.0-52.0","p317284","A2FGKKWP33DFWS","3S1L4CQSFYBD9IN1W8PCJQ1H8N7AFE","3JZQSN0I3SGH6TYY8AMN4W79PTCFGC","emotion","mismatch","uniform","","","","","","","","140917.60000002384","142920.60000002384","","","","","","","","","","","","4","","stimuli/stars_4.png","44","","","","","stimuli/WF11_AO.jpg","",""
"explore-choice","53","142997","0.0-53.0","p317284","A2FGKKWP33DFWS","3S1L4CQSFYBD9IN1W8PCJQ1H8N7AFE","3JZQSN0I3SGH6TYY8AMN4W79PTCFGC","emotion","mismatch","uniform","","","","","","","1432.300000011921","142921.89999997616","144354.19999998808","[""stimuli/WF11_SUR.jpg"",""stimuli/AF11_CC.jpg"",""stimuli/WF14_DO.jpg"",""stimuli/HM02_AO.jpg""]","stimuli/WF11_SUR.jpg","stimuli/AF11_CC.jpg","stimuli/WF14_DO.jpg","stimuli/HM02_AO.jpg","pos3","stimuli/WF14_DO.jpg","DO","WF14","2","1","2","4","stimuli/stars_2.png","45","[""SUR"",""CC"",""DO"",""AO""]","[""WF11"",""AF11"",""WF14"",""HM02""]","[0,9,2,8]","[2,8,4,6]","","",""
"show-reward","54","145001","0.0-54.0","p317284","A2FGKKWP33DFWS","3S1L4CQSFYBD9IN1W8PCJQ1H8N7AFE","3JZQSN0I3SGH6TYY8AMN4W79PTCFGC","emotion","mismatch","uniform","","","","","","","","144868","146871.39999997616","","","","","","","","","","","","2","","stimuli/stars_2.png","45","","","","","stimuli/WF14_DO.jpg","",""
"explore-choice","55","146533","0.0-55.0","p317284","A2FGKKWP33DFWS","3S1L4CQSFYBD9IN1W8PCJQ1H8N7AFE","3JZQSN0I3SGH6TYY8AMN4W79PTCFGC","emotion","mismatch","uniform","","","","","","","1029.3999999761581","146872.30000001192","147901.69999998808","[""stimuli/WF11_CC.jpg"",""stimuli/WF14_SUR.jpg"",""stimuli/AF11_DO.jpg"",""stimuli/HM02_AO.jpg""]","stimuli/WF11_CC.jpg","stimuli/WF14_SUR.jpg","stimuli/AF11_DO.jpg","stimuli/HM02_AO.jpg","pos1","stimuli/WF11_CC.jpg","CC","WF11","0","3.5","7","8","stimuli/stars_7.png","48.5","[""CC"",""SUR"",""DO"",""AO""]","[""WF11"",""WF14"",""AF11"",""HM02""]","[7,4,6,8]","[8,2,4,6]","","",""
"show-reward","56","148535","0.0-56.0","p317284","A2FGKKWP33DFWS","3S1L4CQSFYBD9IN1W8PCJQ1H8N7AFE","3JZQSN0I3SGH6TYY8AMN4W79PTCFGC","emotion","mismatch","uniform","","","","","","","","148403.39999997616","150405.10000002384","","","","","","","","","","","","7","","stimuli/stars_7.png","48.5","","","","","stimuli/WF11_CC.jpg","",""
"explore-choice","57","150725","0.0-57.0","p317284","A2FGKKWP33DFWS","3S1L4CQSFYBD9IN1W8PCJQ1H8N7AFE","3JZQSN0I3SGH6TYY8AMN4W79PTCFGC","emotion","mismatch","uniform","","","","","","","1674.2999999523163","150405.60000002384","152079.89999997616","[""stimuli/WF11_CC.jpg"",""stimuli/AF11_AO.jpg"",""stimuli/WF14_SUR.jpg"",""stimuli/HM02_DO.jpg""]","stimuli/WF11_CC.jpg","stimuli/AF11_AO.jpg","stimuli/WF14_SUR.jpg","stimuli/HM02_DO.jpg","pos3","stimuli/WF14_SUR.jpg","SUR","WF14","2","0.5","1","2","stimuli/stars_1.png","49","[""CC"",""AO"",""SUR"",""DO""]","[""WF11"",""AF11"",""WF14"",""HM02""]","[7,4,1,6]","[8,6,2,4]","","",""
"show-reward","58","152730","0.0-58.0","p317284","A2FGKKWP33DFWS","3S1L4CQSFYBD9IN1W8PCJQ1H8N7AFE","3JZQSN0I3SGH6TYY8AMN4W79PTCFGC","emotion","mismatch","uniform","","","","","","","","152596.19999998808","154600.5","","","","","","","","","","","","1","","stimuli/stars_1.png","49","","","","","stimuli/WF14_SUR.jpg","",""
"explore-choice","59","154428","0.0-59.0","p317284","A2FGKKWP33DFWS","3S1L4CQSFYBD9IN1W8PCJQ1H8N7AFE","3JZQSN0I3SGH6TYY8AMN4W79PTCFGC","emotion","mismatch","uniform","","","","","","","1196.199999988079","154601.5","155797.69999998808","[""stimuli/WF11_CC.jpg"",""stimuli/HM02_SUR.jpg"",""stimuli/AF11_DO.jpg"",""stimuli/WF14_AO.jpg""]","stimuli/WF11_CC.jpg","stimuli/HM02_SUR.jpg","stimuli/AF11_DO.jpg","stimuli/WF14_AO.jpg","pos2","stimuli/HM02_SUR.jpg","SUR","HM02","1","1.5","3","2","stimuli/stars_3.png","50.5","[""CC"",""SUR"",""DO"",""AO""]","[""WF11"",""HM02"",""AF11"",""WF14""]","[8,3,6,6]","[8,2,4,6]","","",""
"show-reward","60","156430","0.0-60.0","p317284","A2FGKKWP33DFWS","3S1L4CQSFYBD9IN1W8PCJQ1H8N7AFE","3JZQSN0I3SGH6TYY8AMN4W79PTCFGC","emotion","mismatch","uniform","","","","","","","","156298.5","158300.10000002384","","","","","","","","","","","","3","","stimuli/stars_3.png","50.5","","","","","stimuli/HM02_SUR.jpg","",""
"explore-choice","61","157712","0.0-61.0","p317284","A2FGKKWP33DFWS","3S1L4CQSFYBD9IN1W8PCJQ1H8N7AFE","3JZQSN0I3SGH6TYY8AMN4W79PTCFGC","emotion","mismatch","uniform","","","","","","","780.6999999880791","158301.10000002384","159081.80000001192","[""stimuli/WF14_AO.jpg"",""stimuli/AF11_CC.jpg"",""stimuli/HM02_SUR.jpg"",""stimuli/WF11_DO.jpg""]","stimuli/WF14_AO.jpg","stimuli/AF11_CC.jpg","stimuli/HM02_SUR.jpg","stimuli/WF11_DO.jpg","pos4","stimuli/WF11_DO.jpg","DO","WF11","3","2.5","5","4","stimuli/stars_5.png","53","[""AO"",""CC"",""SUR"",""DO""]","[""WF14"",""AF11"",""HM02"",""WF11""]","[7,6,2,5]","[6,8,2,4]","","",""
"show-reward","62","159715","0.0-62.0","p317284","A2FGKKWP33DFWS","3S1L4CQSFYBD9IN1W8PCJQ1H8N7AFE","3JZQSN0I3SGH6TYY8AMN4W79PTCFGC","emotion","mismatch","uniform","","","","","","","","159583.19999998808","161584.80000001192","","","","","","","","","","","","5","","stimuli/stars_5.png","53","","","","","stimuli/WF11_DO.jpg","",""
"explore-choice","63","161746","0.0-63.0","p317284","A2FGKKWP33DFWS","3S1L4CQSFYBD9IN1W8PCJQ1H8N7AFE","3JZQSN0I3SGH6TYY8AMN4W79PTCFGC","emotion","mismatch","uniform","","","","","","","1525.1000000238419","161585.69999998808","163110.80000001192","[""stimuli/WF14_CC.jpg"",""stimuli/WF11_AO.jpg"",""stimuli/HM02_DO.jpg"",""stimuli/AF11_SUR.jpg""]","stimuli/WF14_CC.jpg","stimuli/WF11_AO.jpg","stimuli/HM02_DO.jpg","stimuli/AF11_SUR.jpg","pos4","stimuli/AF11_SUR.jpg","SUR","AF11","3","0","0","2","stimuli/stars_0.png","53","[""CC"",""AO"",""DO"",""SUR""]","[""WF14"",""WF11"",""HM02"",""AF11""]","[8,4,3,0]","[8,6,4,2]","","",""
"show-reward","64","163748","0.0-64.0","p317284","A2FGKKWP33DFWS","3S1L4CQSFYBD9IN1W8PCJQ1H8N7AFE","3JZQSN0I3SGH6TYY8AMN4W79PTCFGC","emotion","mismatch","uniform","","","","","","","","163616.60000002384","165617.89999997616","","","","","","","","","","","","0","","stimuli/stars_0.png","53","","","","","stimuli/AF11_SUR.jpg","",""
"explore-choice","65","165118","0.0-65.0","p317284","A2FGKKWP33DFWS","3S1L4CQSFYBD9IN1W8PCJQ1H8N7AFE","3JZQSN0I3SGH6TYY8AMN4W79PTCFGC","emotion","mismatch","uniform","","","","","","","868.5","165618.39999997616","166486.89999997616","[""stimuli/WF14_CC.jpg"",""stimuli/HM02_AO.jpg"",""stimuli/AF11_SUR.jpg"",""stimuli/WF11_DO.jpg""]","stimuli/WF14_CC.jpg","stimuli/HM02_AO.jpg","stimuli/AF11_SUR.jpg","stimuli/WF11_DO.jpg","pos1","stimuli/WF14_CC.jpg","CC","WF14","0","3","6","8","stimuli/stars_6.png","56","[""CC"",""AO"",""SUR"",""DO""]","[""WF14"",""HM02"",""AF11"",""WF11""]","[6,8,0,2]","[8,6,2,4]","","",""
"show-reward","66","167122","0.0-66.0","p317284","A2FGKKWP33DFWS","3S1L4CQSFYBD9IN1W8PCJQ1H8N7AFE","3JZQSN0I3SGH6TYY8AMN4W79PTCFGC","emotion","mismatch","uniform","","","","","","","","166988.89999997616","168991.60000002384","","","","","","","","","","","","6","","stimuli/stars_6.png","56","","","","","stimuli/WF14_CC.jpg","",""
"explore-choice","67","169013","0.0-67.0","p317284","A2FGKKWP33DFWS","3S1L4CQSFYBD9IN1W8PCJQ1H8N7AFE","3JZQSN0I3SGH6TYY8AMN4W79PTCFGC","emotion","mismatch","uniform","","","","","","","1380.6000000238419","168992.5","170373.10000002384","[""stimuli/WF14_AO.jpg"",""stimuli/HM02_CC.jpg"",""stimuli/WF11_DO.jpg"",""stimuli/AF11_SUR.jpg""]","stimuli/WF14_AO.jpg","stimuli/HM02_CC.jpg","stimuli/WF11_DO.jpg","stimuli/AF11_SUR.jpg","pos4","stimuli/AF11_SUR.jpg","SUR","AF11","3","0.5","1","2","stimuli/stars_1.png","56.5","[""AO"",""CC"",""DO"",""SUR""]","[""WF14"",""HM02"",""WF11"",""AF11""]","[4,7,6,1]","[6,8,4,2]","","",""
"show-reward","68","171016","0.0-68.0","p317284","A2FGKKWP33DFWS","3S1L4CQSFYBD9IN1W8PCJQ1H8N7AFE","3JZQSN0I3SGH6TYY8AMN4W79PTCFGC","emotion","mismatch","uniform","","","","","","","","170883.5","172885.69999998808","","","","","","","","","","","","1","","stimuli/stars_1.png","56.5","","","","","stimuli/AF11_SUR.jpg","",""
"explore-choice","69","172950","0.0-69.0","p317284","A2FGKKWP33DFWS","3S1L4CQSFYBD9IN1W8PCJQ1H8N7AFE","3JZQSN0I3SGH6TYY8AMN4W79PTCFGC","emotion","mismatch","uniform","","","","","","","1432.7000000476837","172886.89999997616","174319.60000002384","[""stimuli/WF14_AO.jpg"",""stimuli/AF11_DO.jpg"",""stimuli/WF11_SUR.jpg"",""stimuli/HM02_CC.jpg""]","stimuli/WF14_AO.jpg","stimuli/AF11_DO.jpg","stimuli/WF11_SUR.jpg","stimuli/HM02_CC.jpg","pos2","stimuli/AF11_DO.jpg","DO","AF11","1","2","4","4","stimuli/stars_4.png","58.5","[""AO"",""DO"",""SUR"",""CC""]","[""WF14"",""AF11"",""WF11"",""HM02""]","[6,4,0,9]","[6,4,2,8]","","",""
"show-reward","70","174961","0.0-70.0","p317284","A2FGKKWP33DFWS","3S1L4CQSFYBD9IN1W8PCJQ1H8N7AFE","3JZQSN0I3SGH6TYY8AMN4W79PTCFGC","emotion","mismatch","uniform","","","","","","","","174820.89999997616","176830.39999997616","","","","","","","","","","","","4","","stimuli/stars_4.png","58.5","","","","","stimuli/AF11_DO.jpg","",""
"explore-choice","71","176565","0.0-71.0","p317284","A2FGKKWP33DFWS","3S1L4CQSFYBD9IN1W8PCJQ1H8N7AFE","3JZQSN0I3SGH6TYY8AMN4W79PTCFGC","emotion","mismatch","uniform","","","","","","","1100.199999988079","176831.60000002384","177931.80000001192","[""stimuli/HM02_CC.jpg"",""stimuli/WF11_AO.jpg"",""stimuli/AF11_SUR.jpg"",""stimuli/WF14_DO.jpg""]","stimuli/HM02_CC.jpg","stimuli/WF11_AO.jpg","stimuli/AF11_SUR.jpg","stimuli/WF14_DO.jpg","pos3","stimuli/AF11_SUR.jpg","SUR","AF11","2","1","2","2","stimuli/stars_2.png","59.5","[""CC"",""AO"",""SUR"",""DO""]","[""HM02"",""WF11"",""AF11"",""WF14""]","[9,5,2,2]","[8,6,2,4]","","",""
"show-reward","72","178581","0.0-72.0","p317284","A2FGKKWP33DFWS","3S1L4CQSFYBD9IN1W8PCJQ1H8N7AFE","3JZQSN0I3SGH6TYY8AMN4W79PTCFGC","emotion","mismatch","uniform","","","","","","","","178435.89999997616","180451","","","","","","","","","","","","2","","stimuli/stars_2.png","59.5","","","","","stimuli/AF11_SUR.jpg","",""
"explore-choice","73","180016","0.0-73.0","p317284","A2FGKKWP33DFWS","3S1L4CQSFYBD9IN1W8PCJQ1H8N7AFE","3JZQSN0I3SGH6TYY8AMN4W79PTCFGC","emotion","mismatch","uniform","","","","","","","928.8999999761581","180451.60000002384","181380.5","[""stimuli/WF11_SUR.jpg"",""stimuli/WF14_AO.jpg"",""stimuli/AF11_CC.jpg"",""stimuli/HM02_DO.jpg""]","stimuli/WF11_SUR.jpg","stimuli/WF14_AO.jpg","stimuli/AF11_CC.jpg","stimuli/HM02_DO.jpg","pos4","stimuli/HM02_DO.jpg","DO","HM02","3","1.5","3","4","stimuli/stars_3.png","61","[""SUR"",""AO"",""CC"",""DO""]","[""WF11"",""WF14"",""AF11"",""HM02""]","[3,4,10,3]","[2,6,8,4]","","",""
"show-reward","74","182033","0.0-74.0","p317284","A2FGKKWP33DFWS","3S1L4CQSFYBD9IN1W8PCJQ1H8N7AFE","3JZQSN0I3SGH6TYY8AMN4W79PTCFGC","emotion","mismatch","uniform","","","","","","","","181887.19999998808","183902.80000001192","","","","","","","","","","","","3","","stimuli/stars_3.png","61","","","","","stimuli/HM02_DO.jpg","",""
"explore-choice","75","184316","0.0-75.0","p317284","A2FGKKWP33DFWS","3S1L4CQSFYBD9IN1W8PCJQ1H8N7AFE","3JZQSN0I3SGH6TYY8AMN4W79PTCFGC","emotion","mismatch","uniform","","","","","","","1781.7000000476837","183903.89999997616","185685.60000002384","[""stimuli/HM02_AO.jpg"",""stimuli/WF14_SUR.jpg"",""stimuli/AF11_CC.jpg"",""stimuli/WF11_DO.jpg""]","stimuli/HM02_AO.jpg","stimuli/WF14_SUR.jpg","stimuli/AF11_CC.jpg","stimuli/WF11_DO.jpg","pos1","stimuli/HM02_AO.jpg","AO","HM02","0","4","8","6","stimuli/stars_8.png","65","[""AO"",""SUR"",""CC"",""DO""]","[""HM02"",""WF14"",""AF11"",""WF11""]","[8,4,8,5]","[6,2,8,4]","","",""
"show-reward","76","186320","0.0-76.0","p317284","A2FGKKWP33DFWS","3S1L4CQSFYBD9IN1W8PCJQ1H8N7AFE","3JZQSN0I3SGH6TYY8AMN4W79PTCFGC","emotion","mismatch","uniform","","","","","","","","186187.30000001192","188189.89999997616","","","","","","","","","","","","8","","stimuli/stars_8.png","65","","","","","stimuli/HM02_AO.jpg","",""
"explore-choice","77","188627","0.0-77.0","p317284","A2FGKKWP33DFWS","3S1L4CQSFYBD9IN1W8PCJQ1H8N7AFE","3JZQSN0I3SGH6TYY8AMN4W79PTCFGC","emotion","mismatch","uniform","","","","","","","1796.8999999761581","188190.80000001192","189987.69999998808","[""stimuli/WF14_SUR.jpg"",""stimuli/AF11_AO.jpg"",""stimuli/WF11_DO.jpg"",""stimuli/HM02_CC.jpg""]","stimuli/WF14_SUR.jpg","stimuli/AF11_AO.jpg","stimuli/WF11_DO.jpg","stimuli/HM02_CC.jpg","pos3","stimuli/WF11_DO.jpg","DO","WF11","2","1","2","4","stimuli/stars_2.png","66","[""SUR"",""AO"",""DO"",""CC""]","[""WF14"",""AF11"",""WF11"",""HM02""]","[1,6,2,8]","[2,6,4,8]","","",""
"show-reward","78","190632","0.0-78.0","p317284","A2FGKKWP33DFWS","3S1L4CQSFYBD9IN1W8PCJQ1H8N7AFE","3JZQSN0I3SGH6TYY8AMN4W79PTCFGC","emotion","mismatch","uniform","","","","","","","","190497.60000002384","192502.10000002384","","","","","","","","","","","","2","","stimuli/stars_2.png","66","","","","","stimuli/WF11_DO.jpg","",""
"explore-choice","79","193081","0.0-79.0","p317284","A2FGKKWP33DFWS","3S1L4CQSFYBD9IN1W8PCJQ1H8N7AFE","3JZQSN0I3SGH6TYY8AMN4W79PTCFGC","emotion","mismatch","uniform","","","","","","","1942.699999988079","192503.10000002384","194445.80000001192","[""stimuli/HM02_AO.jpg"",""stimuli/WF14_DO.jpg"",""stimuli/AF11_CC.jpg"",""stimuli/WF11_SUR.jpg""]","stimuli/HM02_AO.jpg","stimuli/WF14_DO.jpg","stimuli/AF11_CC.jpg","stimuli/WF11_SUR.jpg","pos1","stimuli/HM02_AO.jpg","AO","HM02","0","4","8","6","stimuli/stars_8.png","70","[""AO"",""DO"",""CC"",""SUR""]","[""HM02"",""WF14"",""AF11"",""WF11""]","[8,2,9,0]","[6,4,8,2]","","",""
"show-reward","80","195100","0.0-80.0","p317284","A2FGKKWP33DFWS","3S1L4CQSFYBD9IN1W8PCJQ1H8N7AFE","3JZQSN0I3SGH6TYY8AMN4W79PTCFGC","emotion","mismatch","uniform","","","","","","","","194952","196969.60000002384","","","","","","","","","","","","8","","stimuli/stars_8.png","70","","","","","stimuli/HM02_AO.jpg","",""
"explore-choice","81","199546","0.0-81.0","p317284","A2FGKKWP33DFWS","3S1L4CQSFYBD9IN1W8PCJQ1H8N7AFE","3JZQSN0I3SGH6TYY8AMN4W79PTCFGC","emotion","mismatch","uniform","","","","","","","3937","196970.80000001192","200907.80000001192","[""stimuli/WF11_AO.jpg"",""stimuli/HM02_DO.jpg"",""stimuli/AF11_CC.jpg"",""stimuli/WF14_SUR.jpg""]","stimuli/WF11_AO.jpg","stimuli/HM02_DO.jpg","stimuli/AF11_CC.jpg","stimuli/WF14_SUR.jpg","pos3","stimuli/AF11_CC.jpg","CC","AF11","2","3.5","7","8","stimuli/stars_7.png","73.5","[""AO"",""DO"",""CC"",""SUR""]","[""WF11"",""HM02"",""AF11"",""WF14""]","[8,3,7,1]","[6,4,8,2]","","",""
"show-reward","82","201553","0.0-82.0","p317284","A2FGKKWP33DFWS","3S1L4CQSFYBD9IN1W8PCJQ1H8N7AFE","3JZQSN0I3SGH6TYY8AMN4W79PTCFGC","emotion","mismatch","uniform","","","","","","","","201416.19999998808","203422.80000001192","","","","","","","","","","","","7","","stimuli/stars_7.png","73.5","","","","","stimuli/AF11_CC.jpg","",""
"explore-choice","83","204299","0.0-83.0","p317284","A2FGKKWP33DFWS","3S1L4CQSFYBD9IN1W8PCJQ1H8N7AFE","3JZQSN0I3SGH6TYY8AMN4W79PTCFGC","emotion","mismatch","uniform","","","","","","","2229.800000011921","203423.80000001192","205653.60000002384","[""stimuli/HM02_SUR.jpg"",""stimuli/WF14_CC.jpg"",""stimuli/AF11_DO.jpg"",""stimuli/WF11_AO.jpg""]","stimuli/HM02_SUR.jpg","stimuli/WF14_CC.jpg","stimuli/AF11_DO.jpg","stimuli/WF11_AO.jpg","pos2","stimuli/WF14_CC.jpg","CC","WF14","1","3","6","8","stimuli/stars_6.png","76.5","[""SUR"",""CC"",""DO"",""AO""]","[""HM02"",""WF14"",""AF11"",""WF11""]","[3,6,2,4]","[2,8,4,6]","","",""
"show-reward","84","206304","0.0-84.0","p317284","A2FGKKWP33DFWS","3S1L4CQSFYBD9IN1W8PCJQ1H8N7AFE","3JZQSN0I3SGH6TYY8AMN4W79PTCFGC","emotion","mismatch","uniform","","","","","","","","206169.80000001192","208173.5","","","","","","","","","","","","6","","stimuli/stars_6.png","76.5","","","","","stimuli/WF14_CC.jpg","",""
"explore-choice","85","208525","0.0-85.0","p317284","A2FGKKWP33DFWS","3S1L4CQSFYBD9IN1W8PCJQ1H8N7AFE","3JZQSN0I3SGH6TYY8AMN4W79PTCFGC","emotion","mismatch","uniform","","","","","","","1711.300000011921","208174.39999997616","209885.69999998808","[""stimuli/AF11_AO.jpg"",""stimuli/HM02_SUR.jpg"",""stimuli/WF11_CC.jpg"",""stimuli/WF14_DO.jpg""]","stimuli/AF11_AO.jpg","stimuli/HM02_SUR.jpg","stimuli/WF11_CC.jpg","stimuli/WF14_DO.jpg","pos3","stimuli/WF11_CC.jpg","CC","WF11","2","4.5","9","8","stimuli/stars_9.png","81","[""AO"",""SUR"",""CC"",""DO""]","[""AF11"",""HM02"",""WF11"",""WF14""]","[4,1,9,6]","[6,2,8,4]","","",""
"show-reward","86","210528","0.0-86.0","p317284","A2FGKKWP33DFWS","3S1L4CQSFYBD9IN1W8PCJQ1H8N7AFE","3JZQSN0I3SGH6TYY8AMN4W79PTCFGC","emotion","mismatch","uniform","","","","","","","","210395.80000001192","212397.60000002384","","","","","","","","","","","","9","","stimuli/stars_9.png","81","","","","","stimuli/WF11_CC.jpg","",""
"explore-choice","87","213508","0.0-87.0","p317284","A2FGKKWP33DFWS","3S1L4CQSFYBD9IN1W8PCJQ1H8N7AFE","3JZQSN0I3SGH6TYY8AMN4W79PTCFGC","emotion","mismatch","uniform","","","","","","","2467.2000000476837","212398.39999997616","214865.60000002384","[""stimuli/WF11_AO.jpg"",""stimuli/AF11_CC.jpg"",""stimuli/WF14_DO.jpg"",""stimuli/HM02_SUR.jpg""]","stimuli/WF11_AO.jpg","stimuli/AF11_CC.jpg","stimuli/WF14_DO.jpg","stimuli/HM02_SUR.jpg","pos2","stimuli/AF11_CC.jpg","CC","AF11","1","3","6","8","stimuli/stars_6.png","84","[""AO"",""CC"",""DO"",""SUR""]","[""WF11"",""AF11"",""WF14"",""HM02""]","[4,6,5,0]","[6,8,4,2]","","",""
"show-reward","88","215511","0.0-88.0","p317284","A2FGKKWP33DFWS","3S1L4CQSFYBD9IN1W8PCJQ1H8N7AFE","3JZQSN0I3SGH6TYY8AMN4W79PTCFGC","emotion","mismatch","uniform","","","","","","","","215378.39999997616","217380.39999997616","","","","","","","","","","","","6","","stimuli/stars_6.png","84","","","","","stimuli/AF11_CC.jpg","",""
"explore-choice","89","217813","0.0-89.0","p317284","A2FGKKWP33DFWS","3S1L4CQSFYBD9IN1W8PCJQ1H8N7AFE","3JZQSN0I3SGH6TYY8AMN4W79PTCFGC","emotion","mismatch","uniform","","","","","","","1785.0999999642372","217382.30000001192","219167.39999997616","[""stimuli/WF14_DO.jpg"",""stimuli/HM02_AO.jpg"",""stimuli/WF11_CC.jpg"",""stimuli/AF11_SUR.jpg""]","stimuli/WF14_DO.jpg","stimuli/HM02_AO.jpg","stimuli/WF11_CC.jpg","stimuli/AF11_SUR.jpg","pos3","stimuli/WF11_CC.jpg","CC","WF11","2","4","8","8","stimuli/stars_8.png","88","[""DO"",""AO"",""CC"",""SUR""]","[""WF14"",""HM02"",""WF11"",""AF11""]","[2,6,8,1]","[4,6,8,2]","","",""
"show-reward","90","219818","0.0-90.0","p317284","A2FGKKWP33DFWS","3S1L4CQSFYBD9IN1W8PCJQ1H8N7AFE","3JZQSN0I3SGH6TYY8AMN4W79PTCFGC","emotion","mismatch","uniform","","","","","","","","219684.30000001192","221687.80000001192","","","","","","","","","","","","8","","stimuli/stars_8.png","88","","","","","stimuli/WF11_CC.jpg","",""
"explore-choice","91","223451","0.0-91.0","p317284","A2FGKKWP33DFWS","3S1L4CQSFYBD9IN1W8PCJQ1H8N7AFE","3JZQSN0I3SGH6TYY8AMN4W79PTCFGC","emotion","mismatch","uniform","","","","","","","3131.800000011921","221688.30000001192","224820.10000002384","[""stimuli/HM02_CC.jpg"",""stimuli/WF11_SUR.jpg"",""stimuli/AF11_AO.jpg"",""stimuli/WF14_DO.jpg""]","stimuli/HM02_CC.jpg","stimuli/WF11_SUR.jpg","stimuli/AF11_AO.jpg","stimuli/WF14_DO.jpg","pos1","stimuli/HM02_CC.jpg","CC","HM02","0","3","6","8","stimuli/stars_6.png","91","[""CC"",""SUR"",""AO"",""DO""]","[""HM02"",""WF11"",""AF11"",""WF14""]","[6,2,4,3]","[8,2,6,4]","","",""
"show-reward","92","225465","0.0-92.0","p317284","A2FGKKWP33DFWS","3S1L4CQSFYBD9IN1W8PCJQ1H8N7AFE","3JZQSN0I3SGH6TYY8AMN4W79PTCFGC","emotion","mismatch","uniform","","","","","","","","225322.10000002384","227334.80000001192","","","","","","","","","","","","6","","stimuli/stars_6.png","91","","","","","stimuli/HM02_CC.jpg","",""
"explore-choice","93","228792","0.0-93.0","p317284","A2FGKKWP33DFWS","3S1L4CQSFYBD9IN1W8PCJQ1H8N7AFE","3JZQSN0I3SGH6TYY8AMN4W79PTCFGC","emotion","mismatch","uniform","","","","","","","2826","227335.89999997616","230161.89999997616","[""stimuli/WF11_DO.jpg"",""stimuli/WF14_CC.jpg"",""stimuli/HM02_SUR.jpg"",""stimuli/AF11_AO.jpg""]","stimuli/WF11_DO.jpg","stimuli/WF14_CC.jpg","stimuli/HM02_SUR.jpg","stimuli/AF11_AO.jpg","pos2","stimuli/WF14_CC.jpg","CC","WF14","1","4","8","8","stimuli/stars_8.png","95","[""DO"",""CC"",""SUR"",""AO""]","[""WF11"",""WF14"",""HM02"",""AF11""]","[4,8,1,4]","[4,8,2,6]","","",""
"show-reward","94","230795","0.0-94.0","p317284","A2FGKKWP33DFWS","3S1L4CQSFYBD9IN1W8PCJQ1H8N7AFE","3JZQSN0I3SGH6TYY8AMN4W79PTCFGC","emotion","mismatch","uniform","","","","","","","","230663.30000001192","232665.19999998808","","","","","","","","","","","","8","","stimuli/stars_8.png","95","","","","","stimuli/WF14_CC.jpg","",""
"explore-choice","95","232937","0.0-95.0","p317284","A2FGKKWP33DFWS","3S1L4CQSFYBD9IN1W8PCJQ1H8N7AFE","3JZQSN0I3SGH6TYY8AMN4W79PTCFGC","emotion","mismatch","uniform","","","","","","","1639.8999999761581","232665.80000001192","234305.69999998808","[""stimuli/WF11_CC.jpg"",""stimuli/WF14_AO.jpg"",""stimuli/HM02_DO.jpg"",""stimuli/AF11_SUR.jpg""]","stimuli/WF11_CC.jpg","stimuli/WF14_AO.jpg","stimuli/HM02_DO.jpg","stimuli/AF11_SUR.jpg","pos1","stimuli/WF11_CC.jpg","CC","WF11","0","4","8","8","stimuli/stars_8.png","99","[""CC"",""AO"",""DO"",""SUR""]","[""WF11"",""WF14"",""HM02"",""AF11""]","[8,4,2,4]","[8,6,4,2]","","",""
"show-reward","96","234954","0.0-96.0","p317284","A2FGKKWP33DFWS","3S1L4CQSFYBD9IN1W8PCJQ1H8N7AFE","3JZQSN0I3SGH6TYY8AMN4W79PTCFGC","emotion","mismatch","uniform","","","","","","","","234807.60000002384","236823.80000001192","","","","","","","","","","","","8","","stimuli/stars_8.png","99","","","","","stimuli/WF11_CC.jpg","",""
"explore-choice","97","237760","0.0-97.0","p317284","A2FGKKWP33DFWS","3S1L4CQSFYBD9IN1W8PCJQ1H8N7AFE","3JZQSN0I3SGH6TYY8AMN4W79PTCFGC","emotion","mismatch","uniform","","","","","","","2305.100000023842","236824.5","239129.60000002384","[""stimuli/HM02_AO.jpg"",""stimuli/AF11_DO.jpg"",""stimuli/WF11_SUR.jpg"",""stimuli/WF14_CC.jpg""]","stimuli/HM02_AO.jpg","stimuli/AF11_DO.jpg","stimuli/WF11_SUR.jpg","stimuli/WF14_CC.jpg","pos4","stimuli/WF14_CC.jpg","CC","WF14","3","4","8","8","stimuli/stars_8.png","103","[""AO"",""DO"",""SUR"",""CC""]","[""HM02"",""AF11"",""WF11"",""WF14""]","[8,2,1,8]","[6,4,2,8]","","",""
"show-reward","98","239763","0.0-98.0","p317284","A2FGKKWP33DFWS","3S1L4CQSFYBD9IN1W8PCJQ1H8N7AFE","3JZQSN0I3SGH6TYY8AMN4W79PTCFGC","emotion","mismatch","uniform","","","","","","","","239631","241633.30000001192","","","","","","","","","","","","8","","stimuli/stars_8.png","103","","","","","stimuli/WF14_CC.jpg","",""
"explore-choice","99","243644","0.0-99.0","p317284","A2FGKKWP33DFWS","3S1L4CQSFYBD9IN1W8PCJQ1H8N7AFE","3JZQSN0I3SGH6TYY8AMN4W79PTCFGC","emotion","mismatch","uniform","","","","","","","3370.400000035763","241635.69999998808","245006.10000002384","[""stimuli/WF14_SUR.jpg"",""stimuli/AF11_DO.jpg"",""stimuli/HM02_CC.jpg"",""stimuli/WF11_AO.jpg""]","stimuli/WF14_SUR.jpg","stimuli/AF11_DO.jpg","stimuli/HM02_CC.jpg","stimuli/WF11_AO.jpg","pos3","stimuli/HM02_CC.jpg","CC","HM02","2","4","8","8","stimuli/stars_8.png","107","[""SUR"",""DO"",""CC"",""AO""]","[""WF14"",""AF11"",""HM02"",""WF11""]","[0,3,8,7]","[2,4,8,6]","","",""
"show-reward","100","245647","0.0-100.0","p317284","A2FGKKWP33DFWS","3S1L4CQSFYBD9IN1W8PCJQ1H8N7AFE","3JZQSN0I3SGH6TYY8AMN4W79PTCFGC","emotion","mismatch","uniform","","","","","","","","245515.39999997616","247517.19999998808","","","","","","","","","","","","8","","stimuli/stars_8.png","107","","","","","stimuli/HM02_CC.jpg","",""
"explore-choice","101","247591","0.0-101.0","p317284","A2FGKKWP33DFWS","3S1L4CQSFYBD9IN1W8PCJQ1H8N7AFE","3JZQSN0I3SGH6TYY8AMN4W79PTCFGC","emotion","mismatch","uniform","","","","","","","1442","247517.69999998808","248959.69999998808","[""stimuli/WF14_CC.jpg"",""stimuli/HM02_DO.jpg"",""stimuli/AF11_AO.jpg"",""stimuli/WF11_SUR.jpg""]","stimuli/WF14_CC.jpg","stimuli/HM02_DO.jpg","stimuli/AF11_AO.jpg","stimuli/WF11_SUR.jpg","pos1","stimuli/WF14_CC.jpg","CC","WF14","0","3","6","8","stimuli/stars_6.png","110","[""CC"",""DO"",""AO"",""SUR""]","[""WF14"",""HM02"",""AF11"",""WF11""]","[6,2,4,1]","[8,4,6,2]","","",""
"show-reward","102","249594","0.0-102.0","p317284","A2FGKKWP33DFWS","3S1L4CQSFYBD9IN1W8PCJQ1H8N7AFE","3JZQSN0I3SGH6TYY8AMN4W79PTCFGC","emotion","mismatch","uniform","","","","","","","","249461.60000002384","251463.80000001192","","","","","","","","","","","","6","","stimuli/stars_6.png","110","","","","","stimuli/WF14_CC.jpg","",""
"explore-choice","103","256431","0.0-103.0","p317284","A2FGKKWP33DFWS","3S1L4CQSFYBD9IN1W8PCJQ1H8N7AFE","3JZQSN0I3SGH6TYY8AMN4W79PTCFGC","emotion","mismatch","uniform","","","","","","","6323.099999964237","251464.80000001192","257787.89999997616","[""stimuli/HM07_SC.jpg"",""stimuli/HF02_HE.jpg"",""stimuli/WF04_FO.jpg"",""stimuli/BF06_HO.jpg""]","stimuli/HM07_SC.jpg","stimuli/HF02_HE.jpg","stimuli/WF04_FO.jpg","stimuli/BF06_HO.jpg","pos4","stimuli/BF06_HO.jpg","HO","BF06","3","3.5","7","6","stimuli/stars_7.png","113.5","[""SC"",""HE"",""FO"",""HO""]","[""HM07"",""HF02"",""WF04"",""BF06""]","[9,4,3,7]","[8,4,2,6]","","",""
"show-reward","104","258450","0.0-104.0","p317284","A2FGKKWP33DFWS","3S1L4CQSFYBD9IN1W8PCJQ1H8N7AFE","3JZQSN0I3SGH6TYY8AMN4W79PTCFGC","emotion","mismatch","uniform","","","","","","","","258302.30000001192","260319.5","","","","","","","","","","","","7","","stimuli/stars_7.png","113.5","","","","","stimuli/BF06_HO.jpg","",""
"explore-choice","105","262416","0.0-105.0","p317284","A2FGKKWP33DFWS","3S1L4CQSFYBD9IN1W8PCJQ1H8N7AFE","3JZQSN0I3SGH6TYY8AMN4W79PTCFGC","emotion","mismatch","uniform","","","","","","","3450.7999999523163","260320.60000002384","263771.39999997616","[""stimuli/WF04_HO.jpg"",""stimuli/BF06_FO.jpg"",""stimuli/HF02_HE.jpg"",""stimuli/HM07_SC.jpg""]","stimuli/WF04_HO.jpg","stimuli/BF06_FO.jpg","stimuli/HF02_HE.jpg","stimuli/HM07_SC.jpg","pos1","stimuli/WF04_HO.jpg","HO","WF04","0","1","2","2","stimuli/stars_2.png","114.5","[""HO"",""FO"",""HE"",""SC""]","[""WF04"",""BF06"",""HF02"",""HM07""]","[2,7,5,6]","[2,6,4,8]","","",""
"show-reward","106","264433","0.0-106.0","p317284","A2FGKKWP33DFWS","3S1L4CQSFYBD9IN1W8PCJQ1H8N7AFE","3JZQSN0I3SGH6TYY8AMN4W79PTCFGC","emotion","mismatch","uniform","","","","","","","","264286.6999999881","266303","","","","","","","","","","","","2","","stimuli/stars_2.png","114.5","","","","","stimuli/WF04_HO.jpg","",""
"explore-choice","107","268561","0.0-107.0","p317284","A2FGKKWP33DFWS","3S1L4CQSFYBD9IN1W8PCJQ1H8N7AFE","3JZQSN0I3SGH6TYY8AMN4W79PTCFGC","emotion","mismatch","uniform","","","","","","","3615.400000035763","266304.1999999881","269919.60000002384","[""stimuli/HF02_FO.jpg"",""stimuli/WF04_HE.jpg"",""stimuli/BF06_HO.jpg"",""stimuli/HM07_SC.jpg""]","stimuli/HF02_FO.jpg","stimuli/WF04_HE.jpg","stimuli/BF06_HO.jpg","stimuli/HM07_SC.jpg","pos3","stimuli/BF06_HO.jpg","HO","BF06","2","2","4","6","stimuli/stars_4.png","116.5","[""FO"",""HE"",""HO"",""SC""]","[""HF02"",""WF04"",""BF06"",""HM07""]","[4,2,4,8]","[4,2,6,8]","","",""
"show-reward","108","270564","0.0-108.0","p317284","A2FGKKWP33DFWS","3S1L4CQSFYBD9IN1W8PCJQ1H8N7AFE","3JZQSN0I3SGH6TYY8AMN4W79PTCFGC","emotion","mismatch","uniform","","","","","","","","270432.3000000119","272433.89999997616","","","","","","","","","","","","4","","stimuli/stars_4.png","116.5","","","","","stimuli/BF06_HO.jpg","",""
"explore-choice","109","274250","0.0-109.0","p317284","A2FGKKWP33DFWS","3S1L4CQSFYBD9IN1W8PCJQ1H8N7AFE","3JZQSN0I3SGH6TYY8AMN4W79PTCFGC","emotion","mismatch","uniform","","","","","","","3172.800000011921","272434.89999997616","275607.6999999881","[""stimuli/BF06_SC.jpg"",""stimuli/HF02_FO.jpg"",""stimuli/WF04_HO.jpg"",""stimuli/HM07_HE.jpg""]","stimuli/BF06_SC.jpg","stimuli/HF02_FO.jpg","stimuli/WF04_HO.jpg","stimuli/HM07_HE.jpg","pos1","stimuli/BF06_SC.jpg","SC","BF06","0","2","4","6","stimuli/stars_4.png","118.5","[""SC"",""FO"",""HO"",""HE""]","[""BF06"",""HF02"",""WF04"",""HM07""]","[4,3,4,8]","[6,4,2,8]","","",""
"show-reward","110","276253","0.0-110.0","p317284","A2FGKKWP33DFWS","3S1L4CQSFYBD9IN1W8PCJQ1H8N7AFE","3JZQSN0I3SGH6TYY8AMN4W79PTCFGC","emotion","mismatch","uniform","","","","","","","","276121.10000002384","278123.10000002384","","","","","","","","","","","","4","","stimuli/stars_4.png","118.5","","","","","stimuli/BF06_SC.jpg","",""
"explore-choice","111","279815","0.0-111.0","p317284","A2FGKKWP33DFWS","3S1L4CQSFYBD9IN1W8PCJQ1H8N7AFE","3JZQSN0I3SGH6TYY8AMN4W79PTCFGC","emotion","mismatch","uniform","","","","","","","3057.5","278124.1999999881","281181.6999999881","[""stimuli/HF02_FO.jpg"",""stimuli/BF06_SC.jpg"",""stimuli/WF04_HE.jpg"",""stimuli/HM07_HO.jpg""]","stimuli/HF02_FO.jpg","stimuli/BF06_SC.jpg","stimuli/WF04_HE.jpg","stimuli/HM07_HO.jpg","pos2","stimuli/BF06_SC.jpg","SC","BF06","1","2","4","6","stimuli/stars_4.png","120.5","[""FO"",""SC"",""HE"",""HO""]","[""HF02"",""BF06"",""WF04"",""HM07""]","[3,4,2,6]","[4,6,2,8]","","",""
"show-reward","112","281817","0.0-112.0","p317284","A2FGKKWP33DFWS","3S1L4CQSFYBD9IN1W8PCJQ1H8N7AFE","3JZQSN0I3SGH6TYY8AMN4W79PTCFGC","emotion","mismatch","uniform","","","","","","","","281686","283687.39999997616","","","","","","","","","","","","4","","stimuli/stars_4.png","120.5","","","","","stimuli/BF06_SC.jpg","",""
"explore-choice","113","284797","0.0-113.0","p317284","A2FGKKWP33DFWS","3S1L4CQSFYBD9IN1W8PCJQ1H8N7AFE","3JZQSN0I3SGH6TYY8AMN4W79PTCFGC","emotion","mismatch","uniform","","","","","","","2467.800000011921","283688","286155.8000000119","[""stimuli/HM07_FO.jpg"",""stimuli/HF02_HE.jpg"",""stimuli/WF04_SC.jpg"",""stimuli/BF06_HO.jpg""]","stimuli/HM07_FO.jpg","stimuli/HF02_HE.jpg","stimuli/WF04_SC.jpg","stimuli/BF06_HO.jpg","pos4","stimuli/BF06_HO.jpg","HO","BF06","3","3.5","7","6","stimuli/stars_7.png","124","[""FO"",""HE"",""SC"",""HO""]","[""HM07"",""HF02"",""WF04"",""BF06""]","[6,6,2,7]","[8,4,2,6]","","",""
"show-reward","114","286801","0.0-114.0","p317284","A2FGKKWP33DFWS","3S1L4CQSFYBD9IN1W8PCJQ1H8N7AFE","3JZQSN0I3SGH6TYY8AMN4W79PTCFGC","emotion","mismatch","uniform","","","","","","","","286668.6999999881","288671.10000002384","","","","","","","","","","","","7","","stimuli/stars_7.png","124","","","","","stimuli/BF06_HO.jpg","",""
"explore-choice","115","289791","0.0-115.0","p317284","A2FGKKWP33DFWS","3S1L4CQSFYBD9IN1W8PCJQ1H8N7AFE","3JZQSN0I3SGH6TYY8AMN4W79PTCFGC","emotion","mismatch","uniform","","","","","","","2475.699999988079","288672.10000002384","291147.8000000119","[""stimuli/WF04_SC.jpg"",""stimuli/BF06_FO.jpg"",""stimuli/HM07_HE.jpg"",""stimuli/HF02_HO.jpg""]","stimuli/WF04_SC.jpg","stimuli/BF06_FO.jpg","stimuli/HM07_HE.jpg","stimuli/HF02_HO.jpg","pos4","stimuli/HF02_HO.jpg","HO","HF02","3","1.5","3","4","stimuli/stars_3.png","125.5","[""SC"",""FO"",""HE"",""HO""]","[""WF04"",""BF06"",""HM07"",""HF02""]","[4,8,10,3]","[2,6,8,4]","","",""
"show-reward","116","291799","0.0-116.0","p317284","A2FGKKWP33DFWS","3S1L4CQSFYBD9IN1W8PCJQ1H8N7AFE","3JZQSN0I3SGH6TYY8AMN4W79PTCFGC","emotion","mismatch","uniform","","","","","","","","291663","293669.5","","","","","","","","","","","","3","","stimuli/stars_3.png","125.5","","","","","stimuli/HF02_HO.jpg","",""
"explore-choice","117","295182","0.0-117.0","p317284","A2FGKKWP33DFWS","3S1L4CQSFYBD9IN1W8PCJQ1H8N7AFE","3JZQSN0I3SGH6TYY8AMN4W79PTCFGC","emotion","mismatch","uniform","","","","","","","2867.100000023842","293670.6999999881","296537.8000000119","[""stimuli/WF04_FO.jpg"",""stimuli/HF02_HO.jpg"",""stimuli/HM07_SC.jpg"",""stimuli/BF06_HE.jpg""]","stimuli/WF04_FO.jpg","stimuli/HF02_HO.jpg","stimuli/HM07_SC.jpg","stimuli/BF06_HE.jpg","pos2","stimuli/HF02_HO.jpg","HO","HF02","1","2.5","5","4","stimuli/stars_5.png","128","[""FO"",""HO"",""SC"",""HE""]","[""WF04"",""HF02"",""HM07"",""BF06""]","[3,5,10,4]","[2,4,8,6]","","",""
"show-reward","118","297199","0.0-118.0","p317284","A2FGKKWP33DFWS","3S1L4CQSFYBD9IN1W8PCJQ1H8N7AFE","3JZQSN0I3SGH6TYY8AMN4W79PTCFGC","emotion","mismatch","uniform","","","","","","","","297053.39999997616","299069.8000000119","","","","","","","","","","","","5","","stimuli/stars_5.png","128","","","","","stimuli/HF02_HO.jpg","",""
"explore-choice","119","300865","0.0-119.0","p317284","A2FGKKWP33DFWS","3S1L4CQSFYBD9IN1W8PCJQ1H8N7AFE","3JZQSN0I3SGH6TYY8AMN4W79PTCFGC","emotion","mismatch","uniform","","","","","","","3160.900000035763","299070.89999997616","302231.8000000119","[""stimuli/BF06_SC.jpg"",""stimuli/HF02_HE.jpg"",""stimuli/HM07_FO.jpg"",""stimuli/WF04_HO.jpg""]","stimuli/BF06_SC.jpg","stimuli/HF02_HE.jpg","stimuli/HM07_FO.jpg","stimuli/WF04_HO.jpg","pos4","stimuli/WF04_HO.jpg","HO","WF04","3","1.5","3","2","stimuli/stars_3.png","129.5","[""SC"",""HE"",""FO"",""HO""]","[""BF06"",""HF02"",""HM07"",""WF04""]","[8,6,10,3]","[6,4,8,2]","","",""
"show-reward","120","302868","0.0-120.0","p317284","A2FGKKWP33DFWS","3S1L4CQSFYBD9IN1W8PCJQ1H8N7AFE","3JZQSN0I3SGH6TYY8AMN4W79PTCFGC","emotion","mismatch","uniform","","","","","","","","302736.60000002384","304738.1999999881","","","","","","","","","","","","3","","stimuli/stars_3.png","129.5","","","","","stimuli/WF04_HO.jpg","",""
"explore-choice","121","305406","0.0-121.0","p317284","A2FGKKWP33DFWS","3S1L4CQSFYBD9IN1W8PCJQ1H8N7AFE","3JZQSN0I3SGH6TYY8AMN4W79PTCFGC","emotion","mismatch","uniform","","","","","","","2035.8999999761581","304739.8000000119","306775.6999999881","[""stimuli/BF06_HO.jpg"",""stimuli/HF02_SC.jpg"",""stimuli/HM07_FO.jpg"",""stimuli/WF04_HE.jpg""]","stimuli/BF06_HO.jpg","stimuli/HF02_SC.jpg","stimuli/HM07_FO.jpg","stimuli/WF04_HE.jpg","pos1","stimuli/BF06_HO.jpg","HO","BF06","0","2.5","5","6","stimuli/stars_5.png","132","[""HO"",""SC"",""FO"",""HE""]","[""BF06"",""HF02"",""HM07"",""WF04""]","[5,2,10,2]","[6,4,8,2]","","",""
"show-reward","122","307408","0.0-122.0","p317284","A2FGKKWP33DFWS","3S1L4CQSFYBD9IN1W8PCJQ1H8N7AFE","3JZQSN0I3SGH6TYY8AMN4W79PTCFGC","emotion","mismatch","uniform","","","","","","","","307276.89999997616","309278.1999999881","","","","","","","","","","","","5","","stimuli/stars_5.png","132","","","","","stimuli/BF06_HO.jpg","",""
"explore-choice","123","309897","0.0-123.0","p317284","A2FGKKWP33DFWS","3S1L4CQSFYBD9IN1W8PCJQ1H8N7AFE","3JZQSN0I3SGH6TYY8AMN4W79PTCFGC","emotion","mismatch","uniform","","","","","","","1980.3999999761581","309279.3000000119","311259.6999999881","[""stimuli/HF02_SC.jpg"",""stimuli/WF04_FO.jpg"",""stimuli/BF06_HO.jpg"",""stimuli/HM07_HE.jpg""]","stimuli/HF02_SC.jpg","stimuli/WF04_FO.jpg","stimuli/BF06_HO.jpg","stimuli/HM07_HE.jpg","pos3","stimuli/BF06_HO.jpg","HO","BF06","2","4","8","6","stimuli/stars_8.png","136","[""SC"",""FO"",""HO"",""HE""]","[""HF02"",""WF04"",""BF06"",""HM07""]","[5,3,8,7]","[4,2,6,8]","","",""
"show-reward","124","311905","0.0-124.0","p317284","A2FGKKWP33DFWS","3S1L4CQSFYBD9IN1W8PCJQ1H8N7AFE","3JZQSN0I3SGH6TYY8AMN4W79PTCFGC","emotion","mismatch","uniform","","","","","","","","311768.8000000119","313775.8000000119","","","","","","","","","","","","8","","stimuli/stars_8.png","136","","","","","stimuli/BF06_HO.jpg","",""
"explore-choice","125","316406","0.0-125.0","p317284","A2FGKKWP33DFWS","3S1L4CQSFYBD9IN1W8PCJQ1H8N7AFE","3JZQSN0I3SGH6TYY8AMN4W79PTCFGC","emotion","mismatch","uniform","","","","","","","3998.900000035763","313776.6999999881","317775.60000002384","[""stimuli/HM07_HO.jpg"",""stimuli/HF02_HE.jpg"",""stimuli/WF04_FO.jpg"",""stimuli/BF06_SC.jpg""]","stimuli/HM07_HO.jpg","stimuli/HF02_HE.jpg","stimuli/WF04_FO.jpg","stimuli/BF06_SC.jpg","pos1","stimuli/HM07_HO.jpg","HO","HM07","0","4.5","9","8","stimuli/stars_9.png","140.5","[""HO"",""HE"",""FO"",""SC""]","[""HM07"",""HF02"",""WF04"",""BF06""]","[9,3,2,6]","[8,4,2,6]","","",""
"show-reward","126","318409","0.0-126.0","p317284","A2FGKKWP33DFWS","3S1L4CQSFYBD9IN1W8PCJQ1H8N7AFE","3JZQSN0I3SGH6TYY8AMN4W79PTCFGC","emotion","mismatch","uniform","","","","","","","","318277.3000000119","320279.8000000119","","","","","","","","","","","","9","","stimuli/stars_9.png","140.5","","","","","stimuli/HM07_HO.jpg","",""
"explore-choice","127","321222","0.0-127.0","p317284","A2FGKKWP33DFWS","3S1L4CQSFYBD9IN1W8PCJQ1H8N7AFE","3JZQSN0I3SGH6TYY8AMN4W79PTCFGC","emotion","mismatch","uniform","","","","","","","2311","320280.8000000119","322591.8000000119","[""stimuli/HM07_SC.jpg"",""stimuli/BF06_HE.jpg"",""stimuli/HF02_FO.jpg"",""stimuli/WF04_HO.jpg""]","stimuli/HM07_SC.jpg","stimuli/BF06_HE.jpg","stimuli/HF02_FO.jpg","stimuli/WF04_HO.jpg","pos2","stimuli/BF06_HE.jpg","HE","BF06","1","2.5","5","6","stimuli/stars_5.png","143","[""SC"",""HE"",""FO"",""HO""]","[""HM07"",""BF06"",""HF02"",""WF04""]","[9,5,4,1]","[8,6,4,2]","","",""
"show-reward","128","323225","0.0-128.0","p317284","A2FGKKWP33DFWS","3S1L4CQSFYBD9IN1W8PCJQ1H8N7AFE","3JZQSN0I3SGH6TYY8AMN4W79PTCFGC","emotion","mismatch","uniform","","","","","","","","323093","325095.8000000119","","","","","","","","","","","","5","","stimuli/stars_5.png","143","","","","","stimuli/BF06_HE.jpg","",""
"explore-choice","129","325768","0.0-129.0","p317284","A2FGKKWP33DFWS","3S1L4CQSFYBD9IN1W8PCJQ1H8N7AFE","3JZQSN0I3SGH6TYY8AMN4W79PTCFGC","emotion","mismatch","uniform","","","","","","","2041.0999999642372","325096.60000002384","327137.6999999881","[""stimuli/BF06_HE.jpg"",""stimuli/HF02_HO.jpg"",""stimuli/HM07_FO.jpg"",""stimuli/WF04_SC.jpg""]","stimuli/BF06_HE.jpg","stimuli/HF02_HO.jpg","stimuli/HM07_FO.jpg","stimuli/WF04_SC.jpg","pos1","stimuli/BF06_HE.jpg","HE","BF06","0","4","8","6","stimuli/stars_8.png","147","[""HE"",""HO"",""FO"",""SC""]","[""BF06"",""HF02"",""HM07"",""WF04""]","[8,6,10,2]","[6,4,8,2]","","",""
"show-reward","130","327772","0.0-130.0","p317284","A2FGKKWP33DFWS","3S1L4CQSFYBD9IN1W8PCJQ1H8N7AFE","3JZQSN0I3SGH6TYY8AMN4W79PTCFGC","emotion","mismatch","uniform","","","","","","","","327640","329642.5","","","","","","","","","","","","8","","stimuli/stars_8.png","147","","","","","stimuli/BF06_HE.jpg","",""
"explore-choice","131","330397","0.0-131.0","p317284","A2FGKKWP33DFWS","3S1L4CQSFYBD9IN1W8PCJQ1H8N7AFE","3JZQSN0I3SGH6TYY8AMN4W79PTCFGC","emotion","mismatch","uniform","","","","","","","2115.399999976158","329643.60000002384","331759","[""stimuli/WF04_HE.jpg"",""stimuli/HF02_SC.jpg"",""stimuli/BF06_FO.jpg"",""stimuli/HM07_HO.jpg""]","stimuli/WF04_HE.jpg","stimuli/HF02_SC.jpg","stimuli/BF06_FO.jpg","stimuli/HM07_HO.jpg","pos1","stimuli/WF04_HE.jpg","HE","WF04","0","0","0","2","stimuli/stars_0.png","147","[""HE"",""SC"",""FO"",""HO""]","[""WF04"",""HF02"",""BF06"",""HM07""]","[0,2,6,10]","[2,4,6,8]","","",""
"show-reward","132","332400","0.0-132.0","p317284","A2FGKKWP33DFWS","3S1L4CQSFYBD9IN1W8PCJQ1H8N7AFE","3JZQSN0I3SGH6TYY8AMN4W79PTCFGC","emotion","mismatch","uniform","","","","","","","","332268.6999999881","334270.8000000119","","","","","","","","","","","","0","","stimuli/stars_0.png","147","","","","","stimuli/WF04_HE.jpg","",""
"explore-choice","133","335198","0.0-133.0","p317284","A2FGKKWP33DFWS","3S1L4CQSFYBD9IN1W8PCJQ1H8N7AFE","3JZQSN0I3SGH6TYY8AMN4W79PTCFGC","emotion","mismatch","uniform","","","","","","","2295.599999964237","334271.8000000119","336567.39999997616","[""stimuli/HF02_FO.jpg"",""stimuli/BF06_HO.jpg"",""stimuli/HM07_HE.jpg"",""stimuli/WF04_SC.jpg""]","stimuli/HF02_FO.jpg","stimuli/BF06_HO.jpg","stimuli/HM07_HE.jpg","stimuli/WF04_SC.jpg","pos2","stimuli/BF06_HO.jpg","HO","BF06","1","2","4","6","stimuli/stars_4.png","149","[""FO"",""HO"",""HE"",""SC""]","[""HF02"",""BF06"",""HM07"",""WF04""]","[6,4,6,0]","[4,6,8,2]","","",""
"show-reward","134","337204","0.0-134.0","p317284","A2FGKKWP33DFWS","3S1L4CQSFYBD9IN1W8PCJQ1H8N7AFE","3JZQSN0I3SGH6TYY8AMN4W79PTCFGC","emotion","mismatch","uniform","","","","","","","","337069.39999997616","339074.6999999881","","","","","","","","","","","","4","","stimuli/stars_4.png","149","","","","","stimuli/BF06_HO.jpg","",""
"explore-choice","135","339432","0.0-135.0","p317284","A2FGKKWP33DFWS","3S1L4CQSFYBD9IN1W8PCJQ1H8N7AFE","3JZQSN0I3SGH6TYY8AMN4W79PTCFGC","emotion","mismatch","uniform","","","","","","","1717.800000011921","339075.8000000119","340793.60000002384","[""stimuli/WF04_HO.jpg"",""stimuli/HF02_SC.jpg"",""stimuli/HM07_HE.jpg"",""stimuli/BF06_FO.jpg""]","stimuli/WF04_HO.jpg","stimuli/HF02_SC.jpg","stimuli/HM07_HE.jpg","stimuli/BF06_FO.jpg","pos1","stimuli/WF04_HO.jpg","HO","WF04","0","0","0","2","stimuli/stars_0.png","149","[""HO"",""SC"",""HE"",""FO""]","[""WF04"",""HF02"",""HM07"",""BF06""]","[0,6,6,5]","[2,4,8,6]","","",""
"show-reward","136","341435","0.0-136.0","p317284","A2FGKKWP33DFWS","3S1L4CQSFYBD9IN1W8PCJQ1H8N7AFE","3JZQSN0I3SGH6TYY8AMN4W79PTCFGC","emotion","mismatch","uniform","","","","","","","","341303.39999997616","343305.3000000119","","","","","","","","","","","","0","","stimuli/stars_0.png","149","","","","","stimuli/WF04_HO.jpg","",""
"explore-choice","137","344025","0.0-137.0","p317284","A2FGKKWP33DFWS","3S1L4CQSFYBD9IN1W8PCJQ1H8N7AFE","3JZQSN0I3SGH6TYY8AMN4W79PTCFGC","emotion","mismatch","uniform","","","","","","","2087.199999988079","343306.1999999881","345393.39999997616","[""stimuli/HF02_SC.jpg"",""stimuli/WF04_FO.jpg"",""stimuli/BF06_HE.jpg"",""stimuli/HM07_HO.jpg""]","stimuli/HF02_SC.jpg","stimuli/WF04_FO.jpg","stimuli/BF06_HE.jpg","stimuli/HM07_HO.jpg","pos3","stimuli/BF06_HE.jpg","HE","BF06","2","3.5","7","6","stimuli/stars_7.png","152.5","[""SC"",""FO"",""HE"",""HO""]","[""HF02"",""WF04"",""BF06"",""HM07""]","[2,4,7,10]","[4,2,6,8]","","",""
"show-reward","138","346029","0.0-138.0","p317284","A2FGKKWP33DFWS","3S1L4CQSFYBD9IN1W8PCJQ1H8N7AFE","3JZQSN0I3SGH6TYY8AMN4W79PTCFGC","emotion","mismatch","uniform","","","","","","","","345895.6999999881","347899.10000002384","","","","","","","","","","","","7","","stimuli/stars_7.png","152.5","","","","","stimuli/BF06_HE.jpg","",""
"explore-choice","139","348098","0.0-139.0","p317284","A2FGKKWP33DFWS","3S1L4CQSFYBD9IN1W8PCJQ1H8N7AFE","3JZQSN0I3SGH6TYY8AMN4W79PTCFGC","emotion","mismatch","uniform","","","","","","","1566.1000000238419","347900.1999999881","349466.3000000119","[""stimuli/HM07_HO.jpg"",""stimuli/HF02_FO.jpg"",""stimuli/WF04_SC.jpg"",""stimuli/BF06_HE.jpg""]","stimuli/HM07_HO.jpg","stimuli/HF02_FO.jpg","stimuli/WF04_SC.jpg","stimuli/BF06_HE.jpg","pos4","stimuli/BF06_HE.jpg","HE","BF06","3","3.5","7","6","stimuli/stars_7.png","156","[""HO"",""FO"",""SC"",""HE""]","[""HM07"",""HF02"",""WF04"",""BF06""]","[8,3,2,7]","[8,4,2,6]","","",""
"show-reward","140","350102","0.0-140.0","p317284","A2FGKKWP33DFWS","3S1L4CQSFYBD9IN1W8PCJQ1H8N7AFE","3JZQSN0I3SGH6TYY8AMN4W79PTCFGC","emotion","mismatch","uniform","","","","","","","","349969.3000000119","351971.6999999881","","","","","","","","","","","","7","","stimuli/stars_7.png","156","","","","","stimuli/BF06_HE.jpg","",""
"explore-choice","141","352333","0.0-141.0","p317284","A2FGKKWP33DFWS","3S1L4CQSFYBD9IN1W8PCJQ1H8N7AFE","3JZQSN0I3SGH6TYY8AMN4W79PTCFGC","emotion","mismatch","uniform","","","","","","","1725.3999999761581","351972.8000000119","353698.1999999881","[""stimuli/HM07_HO.jpg"",""stimuli/BF06_FO.jpg"",""stimuli/HF02_HE.jpg"",""stimuli/WF04_SC.jpg""]","stimuli/HM07_HO.jpg","stimuli/BF06_FO.jpg","stimuli/HF02_HE.jpg","stimuli/WF04_SC.jpg","pos2","stimuli/BF06_FO.jpg","FO","BF06","1","3.5","7","6","stimuli/stars_7.png","159.5","[""HO"",""FO"",""HE"",""SC""]","[""HM07"",""BF06"",""HF02"",""WF04""]","[7,7,2,0]","[8,6,4,2]","","",""
"show-reward","142","354337","0.0-142.0","p317284","A2FGKKWP33DFWS","3S1L4CQSFYBD9IN1W8PCJQ1H8N7AFE","3JZQSN0I3SGH6TYY8AMN4W79PTCFGC","emotion","mismatch","uniform","","","","","","","","354204.3000000119","356207.5","","","","","","","","","","","","7","","stimuli/stars_7.png","159.5","","","","","stimuli/BF06_FO.jpg","",""
"explore-choice","143","356549","0.0-143.0","p317284","A2FGKKWP33DFWS","3S1L4CQSFYBD9IN1W8PCJQ1H8N7AFE","3JZQSN0I3SGH6TYY8AMN4W79PTCFGC","emotion","mismatch","uniform","","","","","","","1708.699999988079","356208.6999999881","357917.39999997616","[""stimuli/HF02_HO.jpg"",""stimuli/BF06_SC.jpg"",""stimuli/WF04_FO.jpg"",""stimuli/HM07_HE.jpg""]","stimuli/HF02_HO.jpg","stimuli/BF06_SC.jpg","stimuli/WF04_FO.jpg","stimuli/HM07_HE.jpg","pos2","stimuli/BF06_SC.jpg","SC","BF06","1","2.5","5","6","stimuli/stars_5.png","162","[""HO"",""SC"",""FO"",""HE""]","[""HF02"",""BF06"",""WF04"",""HM07""]","[4,5,0,10]","[4,6,2,8]","","",""
"show-reward","144","358551","0.0-144.0","p317284","A2FGKKWP33DFWS","3S1L4CQSFYBD9IN1W8PCJQ1H8N7AFE","3JZQSN0I3SGH6TYY8AMN4W79PTCFGC","emotion","mismatch","uniform","","","","","","","","358420","360421.5","","","","","","","","","","","","5","","stimuli/stars_5.png","162","","","","","stimuli/BF06_SC.jpg","",""
"explore-choice","145","360540","0.0-145.0","p317284","A2FGKKWP33DFWS","3S1L4CQSFYBD9IN1W8PCJQ1H8N7AFE","3JZQSN0I3SGH6TYY8AMN4W79PTCFGC","emotion","mismatch","uniform","","","","","","","1487.3999999761581","360422.3000000119","361909.6999999881","[""stimuli/BF06_HE.jpg"",""stimuli/HF02_SC.jpg"",""stimuli/WF04_HO.jpg"",""stimuli/HM07_FO.jpg""]","stimuli/BF06_HE.jpg","stimuli/HF02_SC.jpg","stimuli/WF04_HO.jpg","stimuli/HM07_FO.jpg","pos1","stimuli/BF06_HE.jpg","HE","BF06","0","4","8","6","stimuli/stars_8.png","166","[""HE"",""SC"",""HO"",""FO""]","[""BF06"",""HF02"",""WF04"",""HM07""]","[8,2,3,9]","[6,4,2,8]","","",""
"show-reward","146","362544","0.0-146.0","p317284","A2FGKKWP33DFWS","3S1L4CQSFYBD9IN1W8PCJQ1H8N7AFE","3JZQSN0I3SGH6TYY8AMN4W79PTCFGC","emotion","mismatch","uniform","","","","","","","","362411.6999999881","364413.60000002384","","","","","","","","","","","","8","","stimuli/stars_8.png","166","","","","","stimuli/BF06_HE.jpg","",""
"explore-choice","147","364429","0.0-147.0","p317284","A2FGKKWP33DFWS","3S1L4CQSFYBD9IN1W8PCJQ1H8N7AFE","3JZQSN0I3SGH6TYY8AMN4W79PTCFGC","emotion","mismatch","uniform","","","","","","","1383.9000000357628","364414.6999999881","365798.60000002384","[""stimuli/HF02_HO.jpg"",""stimuli/BF06_SC.jpg"",""stimuli/HM07_FO.jpg"",""stimuli/WF04_HE.jpg""]","stimuli/HF02_HO.jpg","stimuli/BF06_SC.jpg","stimuli/HM07_FO.jpg","stimuli/WF04_HE.jpg","pos2","stimuli/BF06_SC.jpg","SC","BF06","1","2.5","5","6","stimuli/stars_5.png","168.5","[""HO"",""SC"",""FO"",""HE""]","[""HF02"",""BF06"",""HM07"",""WF04""]","[4,5,6,2]","[4,6,8,2]","","",""
"show-reward","148","366439","0.0-148.0","p317284","A2FGKKWP33DFWS","3S1L4CQSFYBD9IN1W8PCJQ1H8N7AFE","3JZQSN0I3SGH6TYY8AMN4W79PTCFGC","emotion","mismatch","uniform","","","","","","","","366300.6999999881","368309.10000002384","","","","","","","","","","","","5","","stimuli/stars_5.png","168.5","","","","","stimuli/BF06_SC.jpg","",""
"explore-choice","149","368383","0.0-149.0","p317284","A2FGKKWP33DFWS","3S1L4CQSFYBD9IN1W8PCJQ1H8N7AFE","3JZQSN0I3SGH6TYY8AMN4W79PTCFGC","emotion","mismatch","uniform","","","","","","","1441.7999999523163","368310.10000002384","369751.89999997616","[""stimuli/WF04_HE.jpg"",""stimuli/HM07_SC.jpg"",""stimuli/BF06_FO.jpg"",""stimuli/HF02_HO.jpg""]","stimuli/WF04_HE.jpg","stimuli/HM07_SC.jpg","stimuli/BF06_FO.jpg","stimuli/HF02_HO.jpg","pos3","stimuli/BF06_FO.jpg","FO","BF06","2","2","4","6","stimuli/stars_4.png","170.5","[""HE"",""SC"",""FO"",""HO""]","[""WF04"",""HM07"",""BF06"",""HF02""]","[0,9,4,2]","[2,8,6,4]","","",""
"show-reward","150","370386","0.0-150.0","p317284","A2FGKKWP33DFWS","3S1L4CQSFYBD9IN1W8PCJQ1H8N7AFE","3JZQSN0I3SGH6TYY8AMN4W79PTCFGC","emotion","mismatch","uniform","","","","","","","","370254","372256.1999999881","","","","","","","","","","","","4","","stimuli/stars_4.png","170.5","","","","","stimuli/BF06_FO.jpg","",""
"explore-choice","151","372428","0.0-151.0","p317284","A2FGKKWP33DFWS","3S1L4CQSFYBD9IN1W8PCJQ1H8N7AFE","3JZQSN0I3SGH6TYY8AMN4W79PTCFGC","emotion","mismatch","uniform","","","","","","","1540.5","372257.3000000119","373797.8000000119","[""stimuli/WF04_FO.jpg"",""stimuli/HF02_HE.jpg"",""stimuli/HM07_SC.jpg"",""stimuli/BF06_HO.jpg""]","stimuli/WF04_FO.jpg","stimuli/HF02_HE.jpg","stimuli/HM07_SC.jpg","stimuli/BF06_HO.jpg","pos4","stimuli/BF06_HO.jpg","HO","BF06","3","3.5","7","6","stimuli/stars_7.png","174","[""FO"",""HE"",""SC"",""HO""]","[""WF04"",""HF02"",""HM07"",""BF06""]","[3,4,9,7]","[2,4,8,6]","","",""
"show-reward","152","374432","0.0-152.0","p317284","A2FGKKWP33DFWS","3S1L4CQSFYBD9IN1W8PCJQ1H8N7AFE","3JZQSN0I3SGH6TYY8AMN4W79PTCFGC","emotion","mismatch","uniform","","","","","","","","374299.10000002384","376302","","","","","","","","","","","","7","","stimuli/stars_7.png","174","","","","","stimuli/BF06_HO.jpg","",""
"explore-choice","153","376346","0.0-153.0","p317284","A2FGKKWP33DFWS","3S1L4CQSFYBD9IN1W8PCJQ1H8N7AFE","3JZQSN0I3SGH6TYY8AMN4W79PTCFGC","emotion","mismatch","uniform","","","","","","","1411.3999999761581","376303.10000002384","377714.5","[""stimuli/HM07_HE.jpg"",""stimuli/HF02_SC.jpg"",""stimuli/WF04_FO.jpg"",""stimuli/BF06_HO.jpg""]","stimuli/HM07_HE.jpg","stimuli/HF02_SC.jpg","stimuli/WF04_FO.jpg","stimuli/BF06_HO.jpg","pos4","stimuli/BF06_HO.jpg","HO","BF06","3","4","8","6","stimuli/stars_8.png","178","[""HE"",""SC"",""FO"",""HO""]","[""HM07"",""HF02"",""WF04"",""BF06""]","[7,5,3,8]","[8,4,2,6]","","",""
"show-reward","154","378366","0.0-154.0","p317284","A2FGKKWP33DFWS","3S1L4CQSFYBD9IN1W8PCJQ1H8N7AFE","3JZQSN0I3SGH6TYY8AMN4W79PTCFGC","emotion","mismatch","uniform","","","","","","","","378216.8000000119","380236.60000002384","","","","","","","","","","","","8","","stimuli/stars_8.png","178","","","","","stimuli/BF06_HO.jpg","",""
"explore-choice","155","380338","0.0-155.0","p317284","A2FGKKWP33DFWS","3S1L4CQSFYBD9IN1W8PCJQ1H8N7AFE","3JZQSN0I3SGH6TYY8AMN4W79PTCFGC","emotion","mismatch","uniform","","","","","","","1469.800000011921","380237.89999997616","381707.6999999881","[""stimuli/BF06_FO.jpg"",""stimuli/HF02_HO.jpg"",""stimuli/WF04_SC.jpg"",""stimuli/HM07_HE.jpg""]","stimuli/BF06_FO.jpg","stimuli/HF02_HO.jpg","stimuli/WF04_SC.jpg","stimuli/HM07_HE.jpg","pos1","stimuli/BF06_FO.jpg","FO","BF06","0","4","8","6","stimuli/stars_8.png","182","[""FO"",""HO"",""SC"",""HE""]","[""BF06"",""HF02"",""WF04"",""HM07""]","[8,3,4,10]","[6,4,2,8]","","",""
"show-reward","156","382349","0.0-156.0","p317284","A2FGKKWP33DFWS","3S1L4CQSFYBD9IN1W8PCJQ1H8N7AFE","3JZQSN0I3SGH6TYY8AMN4W79PTCFGC","emotion","mismatch","uniform","","","","","","","","382208.89999997616","384219.10000002384","","","","","","","","","","","","8","","stimuli/stars_8.png","182","","","","","stimuli/BF06_FO.jpg","",""
"explore-choice","157","384911","0.0-157.0","p317284","A2FGKKWP33DFWS","3S1L4CQSFYBD9IN1W8PCJQ1H8N7AFE","3JZQSN0I3SGH6TYY8AMN4W79PTCFGC","emotion","mismatch","uniform","","","","","","","2060.099999964237","384220.10000002384","386280.1999999881","[""stimuli/HF02_HO.jpg"",""stimuli/HM07_SC.jpg"",""stimuli/BF06_FO.jpg"",""stimuli/WF04_HE.jpg""]","stimuli/HF02_HO.jpg","stimuli/HM07_SC.jpg","stimuli/BF06_FO.jpg","stimuli/WF04_HE.jpg","pos3","stimuli/BF06_FO.jpg","FO","BF06","2","2","4","6","stimuli/stars_4.png","184","[""HO"",""SC"",""FO"",""HE""]","[""HF02"",""HM07"",""BF06"",""WF04""]","[2,9,4,0]","[4,8,6,2]","","",""
"show-reward","158","386916","0.0-158.0","p317284","A2FGKKWP33DFWS","3S1L4CQSFYBD9IN1W8PCJQ1H8N7AFE","3JZQSN0I3SGH6TYY8AMN4W79PTCFGC","emotion","mismatch","uniform","","","","","","","","386781.8000000119","388786","","","","","","","","","","","","4","","stimuli/stars_4.png","184","","","","","stimuli/BF06_FO.jpg","",""
"explore-choice","159","388521","0.0-159.0","p317284","A2FGKKWP33DFWS","3S1L4CQSFYBD9IN1W8PCJQ1H8N7AFE","3JZQSN0I3SGH6TYY8AMN4W79PTCFGC","emotion","mismatch","uniform","","","","","","","1104","388786.60000002384","389890.60000002384","[""stimuli/WF04_FO.jpg"",""stimuli/BF06_HE.jpg"",""stimuli/HF02_HO.jpg"",""stimuli/HM07_SC.jpg""]","stimuli/WF04_FO.jpg","stimuli/BF06_HE.jpg","stimuli/HF02_HO.jpg","stimuli/HM07_SC.jpg","pos2","stimuli/BF06_HE.jpg","HE","BF06","1","2","4","6","stimuli/stars_4.png","186","[""FO"",""HE"",""HO"",""SC""]","[""WF04"",""BF06"",""HF02"",""HM07""]","[3,4,5,10]","[2,6,4,8]","","",""
"show-reward","160","390524","0.0-160.0","p317284","A2FGKKWP33DFWS","3S1L4CQSFYBD9IN1W8PCJQ1H8N7AFE","3JZQSN0I3SGH6TYY8AMN4W79PTCFGC","emotion","mismatch","uniform","","","","","","","","390391.8000000119","392393.8000000119","","","","","","","","","","","","4","","stimuli/stars_4.png","186","","","","","stimuli/BF06_HE.jpg","",""
"explore-choice","161","392697","0.0-161.0","p317284","A2FGKKWP33DFWS","3S1L4CQSFYBD9IN1W8PCJQ1H8N7AFE","3JZQSN0I3SGH6TYY8AMN4W79PTCFGC","emotion","mismatch","uniform","","","","","","","1667.5","392394.6999999881","394062.1999999881","[""stimuli/HF02_SC.jpg"",""stimuli/HM07_FO.jpg"",""stimuli/WF04_HO.jpg"",""stimuli/BF06_HE.jpg""]","stimuli/HF02_SC.jpg","stimuli/HM07_FO.jpg","stimuli/WF04_HO.jpg","stimuli/BF06_HE.jpg","pos4","stimuli/BF06_HE.jpg","HE","BF06","3","4","8","6","stimuli/stars_8.png","190","[""SC"",""FO"",""HO"",""HE""]","[""HF02"",""HM07"",""WF04"",""BF06""]","[2,9,3,8]","[4,8,2,6]","","",""
"show-reward","162","394707","0.0-162.0","p317284","A2FGKKWP33DFWS","3S1L4CQSFYBD9IN1W8PCJQ1H8N7AFE","3JZQSN0I3SGH6TYY8AMN4W79PTCFGC","emotion","mismatch","uniform","","","","","","","","394568.10000002384","396577","","","","","","","","","","","","8","","stimuli/stars_8.png","190","","","","","stimuli/BF06_HE.jpg","",""
"explore-choice","163","396574","0.0-163.0","p317284","A2FGKKWP33DFWS","3S1L4CQSFYBD9IN1W8PCJQ1H8N7AFE","3JZQSN0I3SGH6TYY8AMN4W79PTCFGC","emotion","mismatch","uniform","","","","","","","1365.699999988079","396578.1999999881","397943.89999997616","[""stimuli/HM07_FO.jpg"",""stimuli/WF04_HE.jpg"",""stimuli/BF06_SC.jpg"",""stimuli/HF02_HO.jpg""]","stimuli/HM07_FO.jpg","stimuli/WF04_HE.jpg","stimuli/BF06_SC.jpg","stimuli/HF02_HO.jpg","pos3","stimuli/BF06_SC.jpg","SC","BF06","2","2.5","5","6","stimuli/stars_5.png","192.5","[""FO"",""HE"",""SC"",""HO""]","[""HM07"",""WF04"",""BF06"",""HF02""]","[6,2,5,4]","[8,2,6,4]","","",""
"show-reward","164","398578","0.0-164.0","p317284","A2FGKKWP33DFWS","3S1L4CQSFYBD9IN1W8PCJQ1H8N7AFE","3JZQSN0I3SGH6TYY8AMN4W79PTCFGC","emotion","mismatch","uniform","","","","","","","","398445.60000002384","400448.3000000119","","","","","","","","","","","","5","","stimuli/stars_5.png","192.5","","","","","stimuli/BF06_SC.jpg","",""
"explore-choice","165","400879","0.0-165.0","p317284","A2FGKKWP33DFWS","3S1L4CQSFYBD9IN1W8PCJQ1H8N7AFE","3JZQSN0I3SGH6TYY8AMN4W79PTCFGC","emotion","mismatch","uniform","","","","","","","1792.2000000476837","400449.39999997616","402241.60000002384","[""stimuli/HF02_HE.jpg"",""stimuli/HM07_SC.jpg"",""stimuli/WF04_HO.jpg"",""stimuli/BF06_FO.jpg""]","stimuli/HF02_HE.jpg","stimuli/HM07_SC.jpg","stimuli/WF04_HO.jpg","stimuli/BF06_FO.jpg","pos4","stimuli/BF06_FO.jpg","FO","BF06","3","3.5","7","6","stimuli/stars_7.png","196","[""HE"",""SC"",""HO"",""FO""]","[""HF02"",""HM07"",""WF04"",""BF06""]","[5,6,2,7]","[4,8,2,6]","","",""
"show-reward","166","402881","0.0-166.0","p317284","A2FGKKWP33DFWS","3S1L4CQSFYBD9IN1W8PCJQ1H8N7AFE","3JZQSN0I3SGH6TYY8AMN4W79PTCFGC","emotion","mismatch","uniform","","","","","","","","402749.6999999881","404751.5","","","","","","","","","","","","7","","stimuli/stars_7.png","196","","","","","stimuli/BF06_FO.jpg","",""
"explore-choice","167","405015","0.0-167.0","p317284","A2FGKKWP33DFWS","3S1L4CQSFYBD9IN1W8PCJQ1H8N7AFE","3JZQSN0I3SGH6TYY8AMN4W79PTCFGC","emotion","mismatch","uniform","","","","","","","1628.699999988079","404752.5","406381.1999999881","[""stimuli/HF02_FO.jpg"",""stimuli/BF06_HE.jpg"",""stimuli/WF04_HO.jpg"",""stimuli/HM07_SC.jpg""]","stimuli/HF02_FO.jpg","stimuli/BF06_HE.jpg","stimuli/WF04_HO.jpg","stimuli/HM07_SC.jpg","pos2","stimuli/BF06_HE.jpg","HE","BF06","1","2.5","5","6","stimuli/stars_5.png","198.5","[""FO"",""HE"",""HO"",""SC""]","[""HF02"",""BF06"",""WF04"",""HM07""]","[4,5,1,9]","[4,6,2,8]","","",""
"show-reward","168","407032","0.0-168.0","p317284","A2FGKKWP33DFWS","3S1L4CQSFYBD9IN1W8PCJQ1H8N7AFE","3JZQSN0I3SGH6TYY8AMN4W79PTCFGC","emotion","mismatch","uniform","","","","","","","","406886.3000000119","408901.6999999881","","","","","","","","","","","","5","","stimuli/stars_5.png","198.5","","","","","stimuli/BF06_HE.jpg","",""
"explore-choice","169","408585","0.0-169.0","p317284","A2FGKKWP33DFWS","3S1L4CQSFYBD9IN1W8PCJQ1H8N7AFE","3JZQSN0I3SGH6TYY8AMN4W79PTCFGC","emotion","mismatch","uniform","","","","","","","1051.8999999761581","408902.3000000119","409954.1999999881","[""stimuli/BF06_SC.jpg"",""stimuli/WF04_FO.jpg"",""stimuli/HF02_HE.jpg"",""stimuli/HM07_HO.jpg""]","stimuli/BF06_SC.jpg","stimuli/WF04_FO.jpg","stimuli/HF02_HE.jpg","stimuli/HM07_HO.jpg","pos1","stimuli/BF06_SC.jpg","SC","BF06","0","3","6","6","stimuli/stars_6.png","201.5","[""SC"",""FO"",""HE"",""HO""]","[""BF06"",""WF04"",""HF02"",""HM07""]","[6,2,3,9]","[6,2,4,8]","","",""
"show-reward","170","410588","0.0-170.0","p317284","A2FGKKWP33DFWS","3S1L4CQSFYBD9IN1W8PCJQ1H8N7AFE","3JZQSN0I3SGH6TYY8AMN4W79PTCFGC","emotion","mismatch","uniform","","","","","","","","410455.5","412458.1999999881","","","","","","","","","","","","6","","stimuli/stars_6.png","201.5","","","","","stimuli/BF06_SC.jpg","",""
"explore-choice","171","412438","0.0-171.0","p317284","A2FGKKWP33DFWS","3S1L4CQSFYBD9IN1W8PCJQ1H8N7AFE","3JZQSN0I3SGH6TYY8AMN4W79PTCFGC","emotion","mismatch","uniform","","","","","","","1334.5","412459.1999999881","413793.6999999881","[""stimuli/WF04_HE.jpg"",""stimuli/HF02_SC.jpg"",""stimuli/BF06_FO.jpg"",""stimuli/HM07_HO.jpg""]","stimuli/WF04_HE.jpg","stimuli/HF02_SC.jpg","stimuli/BF06_FO.jpg","stimuli/HM07_HO.jpg","pos3","stimuli/BF06_FO.jpg","FO","BF06","2","3","6","6","stimuli/stars_6.png","204.5","[""HE"",""SC"",""FO"",""HO""]","[""WF04"",""HF02"",""BF06"",""HM07""]","[0,2,6,10]","[2,4,6,8]","","",""
"show-reward","172","414441","0.0-172.0","p317284","A2FGKKWP33DFWS","3S1L4CQSFYBD9IN1W8PCJQ1H8N7AFE","3JZQSN0I3SGH6TYY8AMN4W79PTCFGC","emotion","mismatch","uniform","","","","","","","","414308.89999997616","416310.6999999881","","","","","","","","","","","","6","","stimuli/stars_6.png","204.5","","","","","stimuli/BF06_FO.jpg","",""
"explore-choice","173","417025","0.0-173.0","p317284","A2FGKKWP33DFWS","3S1L4CQSFYBD9IN1W8PCJQ1H8N7AFE","3JZQSN0I3SGH6TYY8AMN4W79PTCFGC","emotion","mismatch","uniform","","","","","","","2082.100000023842","416311.6999999881","418393.8000000119","[""stimuli/HF02_FO.jpg"",""stimuli/BF06_HO.jpg"",""stimuli/WF04_SC.jpg"",""stimuli/HM07_HE.jpg""]","stimuli/HF02_FO.jpg","stimuli/BF06_HO.jpg","stimuli/WF04_SC.jpg","stimuli/HM07_HE.jpg","pos2","stimuli/BF06_HO.jpg","HO","BF06","1","2","4","6","stimuli/stars_4.png","206.5","[""FO"",""HO"",""SC"",""HE""]","[""HF02"",""BF06"",""WF04"",""HM07""]","[6,4,0,6]","[4,6,2,8]","","",""
"show-reward","174","419029","0.0-174.0","p317284","A2FGKKWP33DFWS","3S1L4CQSFYBD9IN1W8PCJQ1H8N7AFE","3JZQSN0I3SGH6TYY8AMN4W79PTCFGC","emotion","mismatch","uniform","","","","","","","","418896.10000002384","420899.39999997616","","","","","","","","","","","","4","","stimuli/stars_4.png","206.5","","","","","stimuli/BF06_HO.jpg","",""
"explore-choice","175","421118","0.0-175.0","p317284","A2FGKKWP33DFWS","3S1L4CQSFYBD9IN1W8PCJQ1H8N7AFE","3JZQSN0I3SGH6TYY8AMN4W79PTCFGC","emotion","mismatch","uniform","","","","","","","1587.300000011921","420900.39999997616","422487.6999999881","[""stimuli/HF02_FO.jpg"",""stimuli/WF04_HE.jpg"",""stimuli/BF06_HO.jpg"",""stimuli/HM07_SC.jpg""]","stimuli/HF02_FO.jpg","stimuli/WF04_HE.jpg","stimuli/BF06_HO.jpg","stimuli/HM07_SC.jpg","pos3","stimuli/BF06_HO.jpg","HO","BF06","2","2","4","6","stimuli/stars_4.png","208.5","[""FO"",""HE"",""HO"",""SC""]","[""HF02"",""WF04"",""BF06"",""HM07""]","[4,2,4,8]","[4,2,6,8]","","",""
"show-reward","176","423121","0.0-176.0","p317284","A2FGKKWP33DFWS","3S1L4CQSFYBD9IN1W8PCJQ1H8N7AFE","3JZQSN0I3SGH6TYY8AMN4W79PTCFGC","emotion","mismatch","uniform","","","","","","","","422988.39999997616","424990.60000002384","","","","","","","","","","","","4","","stimuli/stars_4.png","208.5","","","","","stimuli/BF06_HO.jpg","",""
"explore-choice","177","425145","0.0-177.0","p317284","A2FGKKWP33DFWS","3S1L4CQSFYBD9IN1W8PCJQ1H8N7AFE","3JZQSN0I3SGH6TYY8AMN4W79PTCFGC","emotion","mismatch","uniform","","","","","","","1522.300000011921","424991.5","426513.8000000119","[""stimuli/BF06_SC.jpg"",""stimuli/HM07_HO.jpg"",""stimuli/HF02_FO.jpg"",""stimuli/WF04_HE.jpg""]","stimuli/BF06_SC.jpg","stimuli/HM07_HO.jpg","stimuli/HF02_FO.jpg","stimuli/WF04_HE.jpg","pos1","stimuli/BF06_SC.jpg","SC","BF06","0","2","4","6","stimuli/stars_4.png","210.5","[""SC"",""HO"",""FO"",""HE""]","[""BF06"",""HM07"",""HF02"",""WF04""]","[4,6,3,2]","[6,8,4,2]","","",""
"show-reward","178","427149","0.0-178.0","p317284","A2FGKKWP33DFWS","3S1L4CQSFYBD9IN1W8PCJQ1H8N7AFE","3JZQSN0I3SGH6TYY8AMN4W79PTCFGC","emotion","mismatch","uniform","","","","","","","","427015.89999997616","429018.60000002384","","","","","","","","","","","","4","","stimuli/stars_4.png","210.5","","","","","stimuli/BF06_SC.jpg","",""
"explore-choice","179","428910","0.0-179.0","p317284","A2FGKKWP33DFWS","3S1L4CQSFYBD9IN1W8PCJQ1H8N7AFE","3JZQSN0I3SGH6TYY8AMN4W79PTCFGC","emotion","mismatch","uniform","","","","","","","1252.699999988079","429019.10000002384","430271.8000000119","[""stimuli/HM07_FO.jpg"",""stimuli/WF04_SC.jpg"",""stimuli/BF06_HE.jpg"",""stimuli/HF02_HO.jpg""]","stimuli/HM07_FO.jpg","stimuli/WF04_SC.jpg","stimuli/BF06_HE.jpg","stimuli/HF02_HO.jpg","pos3","stimuli/BF06_HE.jpg","HE","BF06","2","4","8","6","stimuli/stars_8.png","214.5","[""FO"",""SC"",""HE"",""HO""]","[""HM07"",""WF04"",""BF06"",""HF02""]","[10,2,8,6]","[8,2,6,4]","","",""
"show-reward","180","430916","0.0-180.0","p317284","A2FGKKWP33DFWS","3S1L4CQSFYBD9IN1W8PCJQ1H8N7AFE","3JZQSN0I3SGH6TYY8AMN4W79PTCFGC","emotion","mismatch","uniform","","","","","","","","430780.8000000119","432785.6999999881","","","","","","","","","","","","8","","stimuli/stars_8.png","214.5","","","","","stimuli/BF06_HE.jpg","",""
"explore-choice","181","432710","0.0-181.0","p317284","A2FGKKWP33DFWS","3S1L4CQSFYBD9IN1W8PCJQ1H8N7AFE","3JZQSN0I3SGH6TYY8AMN4W79PTCFGC","emotion","mismatch","uniform","","","","","","","1289.6000000238419","432786.6999999881","434076.3000000119","[""stimuli/WF04_HE.jpg"",""stimuli/HF02_SC.jpg"",""stimuli/BF06_HO.jpg"",""stimuli/HM07_FO.jpg""]","stimuli/WF04_HE.jpg","stimuli/HF02_SC.jpg","stimuli/BF06_HO.jpg","stimuli/HM07_FO.jpg","pos3","stimuli/BF06_HO.jpg","HO","BF06","2","2.5","5","6","stimuli/stars_5.png","217","[""HE"",""SC"",""HO"",""FO""]","[""WF04"",""HF02"",""BF06"",""HM07""]","[2,2,5,10]","[2,4,6,8]","","",""
"show-reward","182","434713","0.0-182.0","p317284","A2FGKKWP33DFWS","3S1L4CQSFYBD9IN1W8PCJQ1H8N7AFE","3JZQSN0I3SGH6TYY8AMN4W79PTCFGC","emotion","mismatch","uniform","","","","","","","","434581","436582.8000000119","","","","","","","","","","","","5","","stimuli/stars_5.png","217","","","","","stimuli/BF06_HO.jpg","",""
"explore-choice","183","436692","0.0-183.0","p317284","A2FGKKWP33DFWS","3S1L4CQSFYBD9IN1W8PCJQ1H8N7AFE","3JZQSN0I3SGH6TYY8AMN4W79PTCFGC","emotion","mismatch","uniform","","","","","","","1464","436583.89999997616","438047.89999997616","[""stimuli/BF06_FO.jpg"",""stimuli/WF04_SC.jpg"",""stimuli/HF02_HE.jpg"",""stimuli/HM07_HO.jpg""]","stimuli/BF06_FO.jpg","stimuli/WF04_SC.jpg","stimuli/HF02_HE.jpg","stimuli/HM07_HO.jpg","pos1","stimuli/BF06_FO.jpg","FO","BF06","0","3.5","7","6","stimuli/stars_7.png","220.5","[""FO"",""SC"",""HE"",""HO""]","[""BF06"",""WF04"",""HF02"",""HM07""]","[7,0,2,7]","[6,2,4,8]","","",""
"show-reward","184","438696","0.0-184.0","p317284","A2FGKKWP33DFWS","3S1L4CQSFYBD9IN1W8PCJQ1H8N7AFE","3JZQSN0I3SGH6TYY8AMN4W79PTCFGC","emotion","mismatch","uniform","","","","","","","","438563.39999997616","440565.8000000119","","","","","","","","","","","","7","","stimuli/stars_7.png","220.5","","","","","stimuli/BF06_FO.jpg","",""
"explore-choice","185","440919","0.0-185.0","p317284","A2FGKKWP33DFWS","3S1L4CQSFYBD9IN1W8PCJQ1H8N7AFE","3JZQSN0I3SGH6TYY8AMN4W79PTCFGC","emotion","mismatch","uniform","","","","","","","1721.9000000357628","440566.1999999881","442288.10000002384","[""stimuli/HF02_FO.jpg"",""stimuli/BF06_HE.jpg"",""stimuli/HM07_HO.jpg"",""stimuli/WF04_SC.jpg""]","stimuli/HF02_FO.jpg","stimuli/BF06_HE.jpg","stimuli/HM07_HO.jpg","stimuli/WF04_SC.jpg","pos2","stimuli/BF06_HE.jpg","HE","BF06","1","3.5","7","6","stimuli/stars_7.png","224","[""FO"",""HE"",""HO"",""SC""]","[""HF02"",""BF06"",""HM07"",""WF04""]","[3,7,8,2]","[4,6,8,2]","","",""
"show-reward","186","442933","0.0-186.0","p317284","A2FGKKWP33DFWS","3S1L4CQSFYBD9IN1W8PCJQ1H8N7AFE","3JZQSN0I3SGH6TYY8AMN4W79PTCFGC","emotion","mismatch","uniform","","","","","","","","442790","444803.3000000119","","","","","","","","","","","","7","","stimuli/stars_7.png","224","","","","","stimuli/BF06_HE.jpg","",""
"explore-choice","187","445083","0.0-187.0","p317284","A2FGKKWP33DFWS","3S1L4CQSFYBD9IN1W8PCJQ1H8N7AFE","3JZQSN0I3SGH6TYY8AMN4W79PTCFGC","emotion","mismatch","uniform","","","","","","","1647.3999999761581","444804.3000000119","446451.6999999881","[""stimuli/WF04_HO.jpg"",""stimuli/HF02_SC.jpg"",""stimuli/BF06_FO.jpg"",""stimuli/HM07_HE.jpg""]","stimuli/WF04_HO.jpg","stimuli/HF02_SC.jpg","stimuli/BF06_FO.jpg","stimuli/HM07_HE.jpg","pos3","stimuli/BF06_FO.jpg","FO","BF06","2","2.5","5","6","stimuli/stars_5.png","226.5","[""HO"",""SC"",""FO"",""HE""]","[""WF04"",""HF02"",""BF06"",""HM07""]","[0,6,5,6]","[2,4,6,8]","","",""
"show-reward","188","447095","0.0-188.0","p317284","A2FGKKWP33DFWS","3S1L4CQSFYBD9IN1W8PCJQ1H8N7AFE","3JZQSN0I3SGH6TYY8AMN4W79PTCFGC","emotion","mismatch","uniform","","","","","","","","446953.3000000119","448964.6999999881","","","","","","","","","","","","5","","stimuli/stars_5.png","226.5","","","","","stimuli/BF06_FO.jpg","",""
"explore-choice","189","449050","0.0-189.0","p317284","A2FGKKWP33DFWS","3S1L4CQSFYBD9IN1W8PCJQ1H8N7AFE","3JZQSN0I3SGH6TYY8AMN4W79PTCFGC","emotion","mismatch","uniform","","","","","","","1452.4000000357628","448965.6999999881","450418.10000002384","[""stimuli/BF06_SC.jpg"",""stimuli/WF04_FO.jpg"",""stimuli/HM07_HE.jpg"",""stimuli/HF02_HO.jpg""]","stimuli/BF06_SC.jpg","stimuli/WF04_FO.jpg","stimuli/HM07_HE.jpg","stimuli/HF02_HO.jpg","pos1","stimuli/BF06_SC.jpg","SC","BF06","0","2.5","5","6","stimuli/stars_5.png","229","[""SC"",""FO"",""HE"",""HO""]","[""BF06"",""WF04"",""HM07"",""HF02""]","[5,0,10,4]","[6,2,8,4]","","",""
"show-reward","190","451059","0.0-190.0","p317284","A2FGKKWP33DFWS","3S1L4CQSFYBD9IN1W8PCJQ1H8N7AFE","3JZQSN0I3SGH6TYY8AMN4W79PTCFGC","emotion","mismatch","uniform","","","","","","","","450921.5","452929","","","","","","","","","","","","5","","stimuli/stars_5.png","229","","","","","stimuli/BF06_SC.jpg","",""
"explore-choice","191","452963","0.0-191.0","p317284","A2FGKKWP33DFWS","3S1L4CQSFYBD9IN1W8PCJQ1H8N7AFE","3JZQSN0I3SGH6TYY8AMN4W79PTCFGC","emotion","mismatch","uniform","","","","","","","1394.199999988079","452929.60000002384","454323.8000000119","[""stimuli/WF04_SC.jpg"",""stimuli/HF02_HE.jpg"",""stimuli/BF06_HO.jpg"",""stimuli/HM07_FO.jpg""]","stimuli/WF04_SC.jpg","stimuli/HF02_HE.jpg","stimuli/BF06_HO.jpg","stimuli/HM07_FO.jpg","pos3","stimuli/BF06_HO.jpg","HO","BF06","2","3.5","7","6","stimuli/stars_7.png","232.5","[""SC"",""HE"",""HO"",""FO""]","[""WF04"",""HF02"",""BF06"",""HM07""]","[2,6,7,6]","[2,4,6,8]","","",""
"show-reward","192","454966","0.0-192.0","p317284","A2FGKKWP33DFWS","3S1L4CQSFYBD9IN1W8PCJQ1H8N7AFE","3JZQSN0I3SGH6TYY8AMN4W79PTCFGC","emotion","mismatch","uniform","","","","","","","","454834.10000002384","456836","","","","","","","","","","","","7","","stimuli/stars_7.png","232.5","","","","","stimuli/BF06_HO.jpg","",""
"explore-choice","193","456922","0.0-193.0","p317284","A2FGKKWP33DFWS","3S1L4CQSFYBD9IN1W8PCJQ1H8N7AFE","3JZQSN0I3SGH6TYY8AMN4W79PTCFGC","emotion","mismatch","uniform","","","","","","","1454.5999999642372","456837.10000002384","458291.6999999881","[""stimuli/BF06_SC.jpg"",""stimuli/HF02_FO.jpg"",""stimuli/HM07_HE.jpg"",""stimuli/WF04_HO.jpg""]","stimuli/BF06_SC.jpg","stimuli/HF02_FO.jpg","stimuli/HM07_HE.jpg","stimuli/WF04_HO.jpg","pos1","stimuli/BF06_SC.jpg","SC","BF06","0","2","4","6","stimuli/stars_4.png","234.5","[""SC"",""FO"",""HE"",""HO""]","[""BF06"",""HF02"",""HM07"",""WF04""]","[4,3,8,4]","[6,4,8,2]","","",""
"show-reward","194","458925","0.0-194.0","p317284","A2FGKKWP33DFWS","3S1L4CQSFYBD9IN1W8PCJQ1H8N7AFE","3JZQSN0I3SGH6TYY8AMN4W79PTCFGC","emotion","mismatch","uniform","","","","","","","","458793","460795.39999997616","","","","","","","","","","","","4","","stimuli/stars_4.png","234.5","","","","","stimuli/BF06_SC.jpg","",""
"explore-choice","195","460961","0.0-195.0","p317284","A2FGKKWP33DFWS","3S1L4CQSFYBD9IN1W8PCJQ1H8N7AFE","3JZQSN0I3SGH6TYY8AMN4W79PTCFGC","emotion","mismatch","uniform","","","","","","","1523.7000000476837","460796.39999997616","462320.10000002384","[""stimuli/WF04_FO.jpg"",""stimuli/HM07_HO.jpg"",""stimuli/BF06_HE.jpg"",""stimuli/HF02_SC.jpg""]","stimuli/WF04_FO.jpg","stimuli/HM07_HO.jpg","stimuli/BF06_HE.jpg","stimuli/HF02_SC.jpg","pos3","stimuli/BF06_HE.jpg","HE","BF06","2","3.5","7","6","stimuli/stars_7.png","238","[""FO"",""HO"",""HE"",""SC""]","[""WF04"",""HM07"",""BF06"",""HF02""]","[4,10,7,2]","[2,8,6,4]","","",""
"show-reward","196","462965","0.0-196.0","p317284","A2FGKKWP33DFWS","3S1L4CQSFYBD9IN1W8PCJQ1H8N7AFE","3JZQSN0I3SGH6TYY8AMN4W79PTCFGC","emotion","mismatch","uniform","","","","","","","","462831.8000000119","464834.6999999881","","","","","","","","","","","","7","","stimuli/stars_7.png","238","","","","","stimuli/BF06_HE.jpg","",""
"explore-choice","197","464676","0.0-197.0","p317284","A2FGKKWP33DFWS","3S1L4CQSFYBD9IN1W8PCJQ1H8N7AFE","3JZQSN0I3SGH6TYY8AMN4W79PTCFGC","emotion","mismatch","uniform","","","","","","","1203","464835.3000000119","466038.3000000119","[""stimuli/HF02_HE.jpg"",""stimuli/WF04_HO.jpg"",""stimuli/HM07_FO.jpg"",""stimuli/BF06_SC.jpg""]","stimuli/HF02_HE.jpg","stimuli/WF04_HO.jpg","stimuli/HM07_FO.jpg","stimuli/BF06_SC.jpg","pos4","stimuli/BF06_SC.jpg","SC","BF06","3","4","8","6","stimuli/stars_8.png","242","[""HE"",""HO"",""FO"",""SC""]","[""HF02"",""WF04"",""HM07"",""BF06""]","[6,3,10,8]","[4,2,8,6]","","",""
"show-reward","198","466678","0.0-198.0","p317284","A2FGKKWP33DFWS","3S1L4CQSFYBD9IN1W8PCJQ1H8N7AFE","3JZQSN0I3SGH6TYY8AMN4W79PTCFGC","emotion","mismatch","uniform","","","","","","","","466546.6999999881","468548.39999997616","","","","","","","","","","","","8","","stimuli/stars_8.png","242","","","","","stimuli/BF06_SC.jpg","",""
"instructions","199","472030","0.0-199.0","p317284","A2FGKKWP33DFWS","3S1L4CQSFYBD9IN1W8PCJQ1H8N7AFE","3JZQSN0I3SGH6TYY8AMN4W79PTCFGC","emotion","mismatch","uniform","","","","","","[{""page_index"":0,""viewing_time"":5350.100000023842}]","5350.699999988079","","","","","","","","","","","","","","","","","","","","","","","",""
"survey-text","200","479668","0.0-200.0-0.0","p317284","A2FGKKWP33DFWS","3S1L4CQSFYBD9IN1W8PCJQ1H8N7AFE","3JZQSN0I3SGH6TYY8AMN4W79PTCFGC","emotion","mismatch","uniform","","","","","","","7635","","","","","","","","","","","","","","","","","","","","","","","{""age"":""54""}",""
"survey-text","201","484507","0.0-200.0-1.0","p317284","A2FGKKWP33DFWS","3S1L4CQSFYBD9IN1W8PCJQ1H8N7AFE","3JZQSN0I3SGH6TYY8AMN4W79PTCFGC","emotion","mismatch","uniform","","","","","","","4836.199999988079","","","","","","","","","","","","","","","","","","","","","","","{""gender"":""male""}",""
"survey-text","202","490836","0.0-200.0-2.0","p317284","A2FGKKWP33DFWS","3S1L4CQSFYBD9IN1W8PCJQ1H8N7AFE","3JZQSN0I3SGH6TYY8AMN4W79PTCFGC","emotion","mismatch","uniform","","","","","","","6327.699999988079","","","","","","","","","","","","","","","","","","","","","","","{""country"":""USA""}",""
"survey-text","203","497112","0.0-200.0-3.0","p317284","A2FGKKWP33DFWS","3S1L4CQSFYBD9IN1W8PCJQ1H8N7AFE","3JZQSN0I3SGH6TYY8AMN4W79PTCFGC","emotion","mismatch","uniform","","","","","","","6273.700000047684","","","","","","","","","","","","","","","","","","","","","","","{""language"":""english"",""other_languages"":""""}",""
"survey-multi-select","204","500051","0.0-201.0","p317284","A2FGKKWP33DFWS","3S1L4CQSFYBD9IN1W8PCJQ1H8N7AFE","3JZQSN0I3SGH6TYY8AMN4W79PTCFGC","emotion","mismatch","uniform","","","","","","","2935.199999988079","","","","","","","","","","","","","","","","","","","","","","","{""race"":[""White""]}","[0]"
"survey-multi-choice","205","504060","0.0-202.0","p317284","A2FGKKWP33DFWS","3S1L4CQSFYBD9IN1W8PCJQ1H8N7AFE","3JZQSN0I3SGH6TYY8AMN4W79PTCFGC","emotion","mismatch","uniform","","","","","","","4007.400000035763","","","","","","","","","","","","","","","","","","","","","","","{""education"":""Bachelor's degree""}","[0]"
"survey-text","206","545703","0.0-203.0","p317284","A2FGKKWP33DFWS","3S1L4CQSFYBD9IN1W8PCJQ1H8N7AFE","3JZQSN0I3SGH6TYY8AMN4W79PTCFGC","emotion","mismatch","uniform","","","","","","","41639.19999998808","","","","","","","","","","","","","","","","","","","","","","","{""patterns"":""Certain faces consistently had more stars"",""strategy"":""Rode the hot person"",""comments"":""""}",""
