"trial_type","trial_index","time_elapsed","internal_node_id","subject","workerId","hitId","assignmentId","structure_condition","match_condition","noise_type","success","timeout","failed_images","failed_audio","failed_video","view_history","rt","start_time","end_time","stimuli","image1","image2","image3","image4","choiceLocation","choiceImage","choiceEmotion","choiceModel","choice_index","reward_score","reward","reward_score_unadjusted","reward_image","score_after_trial","emotions","models","rewards","rewards_unadjusted","stimulus","response","question_order"
"pavlovia","0","41","0.0-0.0","p560335","ALJ70B2J04YR7","3087LXLJ6NMH85PJ46SJUKP4Z1V0FD","39L1G8WVWSXPM2S26W0IW0E6KEP31S","emotion","mismatch","uniform","","","","","","","","","","","","","","","","","","","","","","","","","","","","","","",""
"preload","1","5784","0.0-1.0","p560335","ALJ70B2J04YR7","3087LXLJ6NMH85PJ46SJUKP4Z1V0FD","39L1G8WVWSXPM2S26W0IW0E6KEP31S","emotion","mismatch","uniform","true","false","[]","[]","[]","","","","","","","","","","","","","","","","","","","","","","","","","",""
"fullscreen","2","13130","0.0-2.0","p560335","ALJ70B2J04YR7","3087LXLJ6NMH85PJ46SJUKP4Z1V0FD","39L1G8WVWSXPM2S26W0IW0E6KEP31S","emotion","mismatch","uniform","true","","","","","","","","","","","","","","","","","","","","","","","","","","","","","",""
"instructions","3","18588","0.0-3.0","p560335","ALJ70B2J04YR7","3087LXLJ6NMH85PJ46SJUKP4Z1V0FD","39L1G8WVWSXPM2S26W0IW0E6KEP31S","emotion","mismatch","uniform","","","","","","[{""page_index"":0,""viewing_time"":5454.20000000298}]","5455","","","","","","","","","","","","","","","","","","","","","","","",""
"explore-choice","4","21682","0.0-4.0","p560335","ALJ70B2J04YR7","3087LXLJ6NMH85PJ46SJUKP4Z1V0FD","39L1G8WVWSXPM2S26W0IW0E6KEP31S","emotion","mismatch","uniform","","","","","","","2589.5","21662.20000000298","24251.70000000298","[""stimuli/sheep.jpg"",""stimuli/hammer.jpg"",""stimuli/basketball.jpg"",""stimuli/horse.jpg""]","stimuli/sheep.jpg","stimuli/hammer.jpg","stimuli/basketball.jpg","stimuli/horse.jpg","pos4","stimuli/horse.jpg","","","3","64","64","64","stimuli/stars_8.png","65","","","","","","",""
"explore-choice","5","24761","0.0-5.0","p560335","ALJ70B2J04YR7","3087LXLJ6NMH85PJ46SJUKP4Z1V0FD","39L1G8WVWSXPM2S26W0IW0E6KEP31S","emotion","mismatch","uniform","","","","","","","2574.8999999910593","24756.70000000298","27331.59999999404","[""stimuli/hammer.jpg"",""stimuli/basketball.jpg"",""stimuli/horse.jpg"",""stimuli/sheep.jpg""]","stimuli/hammer.jpg","stimuli/basketball.jpg","stimuli/horse.jpg","stimuli/sheep.jpg","pos1","stimuli/hammer.jpg","","","0","8","8","8","stimuli/stars_2.png","9","","","","","","",""
"instructions","6","43235","0.0-6.0","p560335","ALJ70B2J04YR7","3087LXLJ6NMH85PJ46SJUKP4Z1V0FD","39L1G8WVWSXPM2S26W0IW0E6KEP31S","emotion","mismatch","uniform","","","","","","[{""page_index"":0,""viewing_time"":18471.10000000894}]","18471.60000000894","","","","","","","","","","","","","","","","","","","","","","","",""
"explore-choice","7","46347","0.0-7.0","p560335","ALJ70B2J04YR7","3087LXLJ6NMH85PJ46SJUKP4Z1V0FD","39L1G8WVWSXPM2S26W0IW0E6KEP31S","emotion","mismatch","uniform","","","","","","","2608.2999999970198","46309.20000000298","48917.5","[""stimuli/HF04_FO.jpg"",""stimuli/AM06_SC.jpg"",""stimuli/BM04_AO.jpg"",""stimuli/BF05_SUR.jpg""]","stimuli/HF04_FO.jpg","stimuli/AM06_SC.jpg","stimuli/BM04_AO.jpg","stimuli/BF05_SUR.jpg","pos1","stimuli/HF04_FO.jpg","FO","HF04","0","5","10","8","stimuli/stars_10.png","6","[""FO"",""SC"",""AO"",""SUR""]","[""HF04"",""AM06"",""BM04"",""BF05""]","[10,2,2,4]","[8,4,2,6]","","",""
"show-reward","8","48359","0.0-8.0","p560335","ALJ70B2J04YR7","3087LXLJ6NMH85PJ46SJUKP4Z1V0FD","39L1G8WVWSXPM2S26W0IW0E6KEP31S","emotion","mismatch","uniform","","","","","","","","49422.89999999106","51431","","","","","","","","","","","","10","","stimuli/stars_10.png","6","","","","","stimuli/HF04_FO.jpg","",""
"explore-choice","9","51664","0.0-9.0","p560335","ALJ70B2J04YR7","3087LXLJ6NMH85PJ46SJUKP4Z1V0FD","39L1G8WVWSXPM2S26W0IW0E6KEP31S","emotion","mismatch","uniform","","","","","","","2802","51433","54235","[""stimuli/HF04_SC.jpg"",""stimuli/AM06_AO.jpg"",""stimuli/BF05_SUR.jpg"",""stimuli/BM04_FO.jpg""]","stimuli/HF04_SC.jpg","stimuli/AM06_AO.jpg","stimuli/BF05_SUR.jpg","stimuli/BM04_FO.jpg","pos4","stimuli/BM04_FO.jpg","FO","BM04","3","4.5","9","8","stimuli/stars_9.png","10.5","[""SC"",""AO"",""SUR"",""FO""]","[""HF04"",""AM06"",""BF05"",""BM04""]","[3,3,5,9]","[4,2,6,8]","","",""
"show-reward","10","53678","0.0-10.0","p560335","ALJ70B2J04YR7","3087LXLJ6NMH85PJ46SJUKP4Z1V0FD","39L1G8WVWSXPM2S26W0IW0E6KEP31S","emotion","mismatch","uniform","","","","","","","","54739.29999999702","56749","","","","","","","","","","","","9","","stimuli/stars_9.png","10.5","","","","","stimuli/BM04_FO.jpg","",""
"explore-choice","11","57422","0.0-11.0","p560335","ALJ70B2J04YR7","3087LXLJ6NMH85PJ46SJUKP4Z1V0FD","39L1G8WVWSXPM2S26W0IW0E6KEP31S","emotion","mismatch","uniform","","","","","","","3241.4000000059605","56751.79999999702","59993.20000000298","[""stimuli/HF04_SUR.jpg"",""stimuli/BF05_FO.jpg"",""stimuli/BM04_SC.jpg"",""stimuli/AM06_AO.jpg""]","stimuli/HF04_SUR.jpg","stimuli/BF05_FO.jpg","stimuli/BM04_SC.jpg","stimuli/AM06_AO.jpg","pos2","stimuli/BF05_FO.jpg","FO","BF05","1","3.5","7","8","stimuli/stars_7.png","14","[""SUR"",""FO"",""SC"",""AO""]","[""HF04"",""BF05"",""BM04"",""AM06""]","[6,7,2,2]","[6,8,4,2]","","",""
"show-reward","12","59431","0.0-12.0","p560335","ALJ70B2J04YR7","3087LXLJ6NMH85PJ46SJUKP4Z1V0FD","39L1G8WVWSXPM2S26W0IW0E6KEP31S","emotion","mismatch","uniform","","","","","","","","60495.5","62502.39999999106","","","","","","","","","","","","7","","stimuli/stars_7.png","14","","","","","stimuli/BF05_FO.jpg","",""
"explore-choice","13","62106","0.0-13.0","p560335","ALJ70B2J04YR7","3087LXLJ6NMH85PJ46SJUKP4Z1V0FD","39L1G8WVWSXPM2S26W0IW0E6KEP31S","emotion","mismatch","uniform","","","","","","","2173.2000000029802","62504.09999999404","64677.29999999702","[""stimuli/HF04_AO.jpg"",""stimuli/AM06_SUR.jpg"",""stimuli/BF05_SC.jpg"",""stimuli/BM04_FO.jpg""]","stimuli/HF04_AO.jpg","stimuli/AM06_SUR.jpg","stimuli/BF05_SC.jpg","stimuli/BM04_FO.jpg","pos4","stimuli/BM04_FO.jpg","FO","BM04","3","3","6","8","stimuli/stars_6.png","17","[""AO"",""SUR"",""SC"",""FO""]","[""HF04"",""AM06"",""BF05"",""BM04""]","[0,7,6,6]","[2,6,4,8]","","",""
"show-reward","14","64124","0.0-14.0","p560335","ALJ70B2J04YR7","3087LXLJ6NMH85PJ46SJUKP4Z1V0FD","39L1G8WVWSXPM2S26W0IW0E6KEP31S","emotion","mismatch","uniform","","","","","","","","65179.29999999702","67195.20000000298","","","","","","","","","","","","6","","stimuli/stars_6.png","17","","","","","stimuli/BM04_FO.jpg","",""
"explore-choice","15","68561","0.0-15.0","p560335","ALJ70B2J04YR7","3087LXLJ6NMH85PJ46SJUKP4Z1V0FD","39L1G8WVWSXPM2S26W0IW0E6KEP31S","emotion","mismatch","uniform","","","","","","","3933","67198.29999999702","71131.29999999702","[""stimuli/BM04_SUR.jpg"",""stimuli/BF05_SC.jpg"",""stimuli/HF04_AO.jpg"",""stimuli/AM06_FO.jpg""]","stimuli/BM04_SUR.jpg","stimuli/BF05_SC.jpg","stimuli/HF04_AO.jpg","stimuli/AM06_FO.jpg","pos3","stimuli/HF04_AO.jpg","AO","HF04","2","0.5","1","2","stimuli/stars_1.png","17.5","[""SUR"",""SC"",""AO"",""FO""]","[""BM04"",""BF05"",""HF04"",""AM06""]","[5,6,1,8]","[6,4,2,8]","","",""
"show-reward","16","70576","0.0-16.0","p560335","ALJ70B2J04YR7","3087LXLJ6NMH85PJ46SJUKP4Z1V0FD","39L1G8WVWSXPM2S26W0IW0E6KEP31S","emotion","mismatch","uniform","","","","","","","","71635.09999999404","73647.39999999106","","","","","","","","","","","","1","","stimuli/stars_1.png","17.5","","","","","stimuli/HF04_AO.jpg","",""
"explore-choice","17","74170","0.0-17.0","p560335","ALJ70B2J04YR7","3087LXLJ6NMH85PJ46SJUKP4Z1V0FD","39L1G8WVWSXPM2S26W0IW0E6KEP31S","emotion","mismatch","uniform","","","","","","","3090.2999999970198","73650.59999999404","76740.89999999106","[""stimuli/BM04_AO.jpg"",""stimuli/BF05_SC.jpg"",""stimuli/AM06_FO.jpg"",""stimuli/HF04_SUR.jpg""]","stimuli/BM04_AO.jpg","stimuli/BF05_SC.jpg","stimuli/AM06_FO.jpg","stimuli/HF04_SUR.jpg","pos3","stimuli/AM06_FO.jpg","FO","AM06","2","3","6","8","stimuli/stars_6.png","20.5","[""AO"",""SC"",""FO"",""SUR""]","[""BM04"",""BF05"",""AM06"",""HF04""]","[1,6,6,4]","[2,4,8,6]","","",""
"show-reward","18","76180","0.0-18.0","p560335","ALJ70B2J04YR7","3087LXLJ6NMH85PJ46SJUKP4Z1V0FD","39L1G8WVWSXPM2S26W0IW0E6KEP31S","emotion","mismatch","uniform","","","","","","","","77243.39999999106","79251.29999999702","","","","","","","","","","","","6","","stimuli/stars_6.png","20.5","","","","","stimuli/AM06_FO.jpg","",""
"explore-choice","19","80094","0.0-19.0","p560335","ALJ70B2J04YR7","3087LXLJ6NMH85PJ46SJUKP4Z1V0FD","39L1G8WVWSXPM2S26W0IW0E6KEP31S","emotion","mismatch","uniform","","","","","","","3408.9000000059605","79254.09999999404","82663","[""stimuli/AM06_SC.jpg"",""stimuli/HF04_SUR.jpg"",""stimuli/BF05_AO.jpg"",""stimuli/BM04_FO.jpg""]","stimuli/AM06_SC.jpg","stimuli/HF04_SUR.jpg","stimuli/BF05_AO.jpg","stimuli/BM04_FO.jpg","pos4","stimuli/BM04_FO.jpg","FO","BM04","3","3.5","7","8","stimuli/stars_7.png","24","[""SC"",""SUR"",""AO"",""FO""]","[""AM06"",""HF04"",""BF05"",""BM04""]","[2,8,2,7]","[4,6,2,8]","","",""
"show-reward","20","82107","0.0-20.0","p560335","ALJ70B2J04YR7","3087LXLJ6NMH85PJ46SJUKP4Z1V0FD","39L1G8WVWSXPM2S26W0IW0E6KEP31S","emotion","mismatch","uniform","","","","","","","","83168.70000000298","85179","","","","","","","","","","","","7","","stimuli/stars_7.png","24","","","","","stimuli/BM04_FO.jpg","",""
"explore-choice","21","85350","0.0-21.0","p560335","ALJ70B2J04YR7","3087LXLJ6NMH85PJ46SJUKP4Z1V0FD","39L1G8WVWSXPM2S26W0IW0E6KEP31S","emotion","mismatch","uniform","","","","","","","2739.6000000089407","85181.39999999106","87921","[""stimuli/BF05_FO.jpg"",""stimuli/AM06_SUR.jpg"",""stimuli/BM04_SC.jpg"",""stimuli/HF04_AO.jpg""]","stimuli/BF05_FO.jpg","stimuli/AM06_SUR.jpg","stimuli/BM04_SC.jpg","stimuli/HF04_AO.jpg","pos1","stimuli/BF05_FO.jpg","FO","BF05","0","3.5","7","8","stimuli/stars_7.png","27.5","[""FO"",""SUR"",""SC"",""AO""]","[""BF05"",""AM06"",""BM04"",""HF04""]","[7,7,3,4]","[8,6,4,2]","","",""
"show-reward","22","87357","0.0-22.0","p560335","ALJ70B2J04YR7","3087LXLJ6NMH85PJ46SJUKP4Z1V0FD","39L1G8WVWSXPM2S26W0IW0E6KEP31S","emotion","mismatch","uniform","","","","","","","","88422.89999999106","90428.09999999404","","","","","","","","","","","","7","","stimuli/stars_7.png","27.5","","","","","stimuli/BF05_FO.jpg","",""
"explore-choice","23","90287","0.0-23.0","p560335","ALJ70B2J04YR7","3087LXLJ6NMH85PJ46SJUKP4Z1V0FD","39L1G8WVWSXPM2S26W0IW0E6KEP31S","emotion","mismatch","uniform","","","","","","","2426.3999999910593","90430.5","92856.89999999106","[""stimuli/BF05_FO.jpg"",""stimuli/HF04_SUR.jpg"",""stimuli/AM06_SC.jpg"",""stimuli/BM04_AO.jpg""]","stimuli/BF05_FO.jpg","stimuli/HF04_SUR.jpg","stimuli/AM06_SC.jpg","stimuli/BM04_AO.jpg","pos1","stimuli/BF05_FO.jpg","FO","BF05","0","3.5","7","8","stimuli/stars_7.png","31","[""FO"",""SUR"",""SC"",""AO""]","[""BF05"",""HF04"",""AM06"",""BM04""]","[7,8,6,0]","[8,6,4,2]","","",""
"show-reward","24","92300","0.0-24.0","p560335","ALJ70B2J04YR7","3087LXLJ6NMH85PJ46SJUKP4Z1V0FD","39L1G8WVWSXPM2S26W0IW0E6KEP31S","emotion","mismatch","uniform","","","","","","","","93360.89999999106","95371.09999999404","","","","","","","","","","","","7","","stimuli/stars_7.png","31","","","","","stimuli/BF05_FO.jpg","",""
"explore-choice","25","96528","0.0-25.0","p560335","ALJ70B2J04YR7","3087LXLJ6NMH85PJ46SJUKP4Z1V0FD","39L1G8WVWSXPM2S26W0IW0E6KEP31S","emotion","mismatch","uniform","","","","","","","3726.4000000059605","95372.79999999702","99099.20000000298","[""stimuli/BM04_FO.jpg"",""stimuli/BF05_SC.jpg"",""stimuli/AM06_AO.jpg"",""stimuli/HF04_SUR.jpg""]","stimuli/BM04_FO.jpg","stimuli/BF05_SC.jpg","stimuli/AM06_AO.jpg","stimuli/HF04_SUR.jpg","pos1","stimuli/BM04_FO.jpg","FO","BM04","0","3","6","8","stimuli/stars_6.png","34","[""FO"",""SC"",""AO"",""SUR""]","[""BM04"",""BF05"",""AM06"",""HF04""]","[6,3,2,8]","[8,4,2,6]","","",""
"show-reward","26","98536","0.0-26.0","p560335","ALJ70B2J04YR7","3087LXLJ6NMH85PJ46SJUKP4Z1V0FD","39L1G8WVWSXPM2S26W0IW0E6KEP31S","emotion","mismatch","uniform","","","","","","","","99602.89999999106","101607.89999999106","","","","","","","","","","","","6","","stimuli/stars_6.png","34","","","","","stimuli/BM04_FO.jpg","",""
"explore-choice","27","101355","0.0-27.0","p560335","ALJ70B2J04YR7","3087LXLJ6NMH85PJ46SJUKP4Z1V0FD","39L1G8WVWSXPM2S26W0IW0E6KEP31S","emotion","mismatch","uniform","","","","","","","2314.9000000059605","101610.39999999106","103925.29999999702","[""stimuli/BF05_SC.jpg"",""stimuli/AM06_SUR.jpg"",""stimuli/HF04_FO.jpg"",""stimuli/BM04_AO.jpg""]","stimuli/BF05_SC.jpg","stimuli/AM06_SUR.jpg","stimuli/HF04_FO.jpg","stimuli/BM04_AO.jpg","pos3","stimuli/HF04_FO.jpg","FO","HF04","2","4","8","8","stimuli/stars_8.png","38","[""SC"",""SUR"",""FO"",""AO""]","[""BF05"",""AM06"",""HF04"",""BM04""]","[5,4,8,1]","[4,6,8,2]","","",""
"show-reward","28","103369","0.0-28.0","p560335","ALJ70B2J04YR7","3087LXLJ6NMH85PJ46SJUKP4Z1V0FD","39L1G8WVWSXPM2S26W0IW0E6KEP31S","emotion","mismatch","uniform","","","","","","","","104429.59999999404","106440.39999999106","","","","","","","","","","","","8","","stimuli/stars_8.png","38","","","","","stimuli/HF04_FO.jpg","",""
"explore-choice","29","107072","0.0-29.0","p560335","ALJ70B2J04YR7","3087LXLJ6NMH85PJ46SJUKP4Z1V0FD","39L1G8WVWSXPM2S26W0IW0E6KEP31S","emotion","mismatch","uniform","","","","","","","3198.2000000029802","106444.89999999106","109643.09999999404","[""stimuli/HF04_FO.jpg"",""stimuli/BF05_AO.jpg"",""stimuli/BM04_SUR.jpg"",""stimuli/AM06_SC.jpg""]","stimuli/HF04_FO.jpg","stimuli/BF05_AO.jpg","stimuli/BM04_SUR.jpg","stimuli/AM06_SC.jpg","pos1","stimuli/HF04_FO.jpg","FO","HF04","0","4","8","8","stimuli/stars_8.png","42","[""FO"",""AO"",""SUR"",""SC""]","[""HF04"",""BF05"",""BM04"",""AM06""]","[8,1,6,6]","[8,2,6,4]","","",""
"show-reward","30","109079","0.0-30.0","p560335","ALJ70B2J04YR7","3087LXLJ6NMH85PJ46SJUKP4Z1V0FD","39L1G8WVWSXPM2S26W0IW0E6KEP31S","emotion","mismatch","uniform","","","","","","","","110145.39999999106","112150.79999999702","","","","","","","","","","","","8","","stimuli/stars_8.png","42","","","","","stimuli/HF04_FO.jpg","",""
"explore-choice","31","112189","0.0-31.0","p560335","ALJ70B2J04YR7","3087LXLJ6NMH85PJ46SJUKP4Z1V0FD","39L1G8WVWSXPM2S26W0IW0E6KEP31S","emotion","mismatch","uniform","","","","","","","2607","112152","114759","[""stimuli/AM06_SUR.jpg"",""stimuli/HF04_FO.jpg"",""stimuli/BM04_SC.jpg"",""stimuli/BF05_AO.jpg""]","stimuli/AM06_SUR.jpg","stimuli/HF04_FO.jpg","stimuli/BM04_SC.jpg","stimuli/BF05_AO.jpg","pos2","stimuli/HF04_FO.jpg","FO","HF04","1","4.5","9","8","stimuli/stars_9.png","46.5","[""SUR"",""FO"",""SC"",""AO""]","[""AM06"",""HF04"",""BM04"",""BF05""]","[6,9,4,4]","[6,8,4,2]","","",""
"show-reward","32","114202","0.0-32.0","p560335","ALJ70B2J04YR7","3087LXLJ6NMH85PJ46SJUKP4Z1V0FD","39L1G8WVWSXPM2S26W0IW0E6KEP31S","emotion","mismatch","uniform","","","","","","","","115263.20000000298","117273.70000000298","","","","","","","","","","","","9","","stimuli/stars_9.png","46.5","","","","","stimuli/HF04_FO.jpg","",""
"explore-choice","33","119198","0.0-33.0","p560335","ALJ70B2J04YR7","3087LXLJ6NMH85PJ46SJUKP4Z1V0FD","39L1G8WVWSXPM2S26W0IW0E6KEP31S","emotion","mismatch","uniform","","","","","","","4493.9000000059605","117275.29999999702","121769.20000000298","[""stimuli/BM04_FO.jpg"",""stimuli/AM06_SC.jpg"",""stimuli/BF05_SUR.jpg"",""stimuli/HF04_AO.jpg""]","stimuli/BM04_FO.jpg","stimuli/AM06_SC.jpg","stimuli/BF05_SUR.jpg","stimuli/HF04_AO.jpg","pos1","stimuli/BM04_FO.jpg","FO","BM04","0","4.5","9","8","stimuli/stars_9.png","51","[""FO"",""SC"",""SUR"",""AO""]","[""BM04"",""AM06"",""BF05"",""HF04""]","[9,3,6,4]","[8,4,6,2]","","",""
"show-reward","34","121210","0.0-34.0","p560335","ALJ70B2J04YR7","3087LXLJ6NMH85PJ46SJUKP4Z1V0FD","39L1G8WVWSXPM2S26W0IW0E6KEP31S","emotion","mismatch","uniform","","","","","","","","122272.70000000298","124282","","","","","","","","","","","","9","","stimuli/stars_9.png","51","","","","","stimuli/BM04_FO.jpg","",""
"explore-choice","35","124738","0.0-35.0","p560335","ALJ70B2J04YR7","3087LXLJ6NMH85PJ46SJUKP4Z1V0FD","39L1G8WVWSXPM2S26W0IW0E6KEP31S","emotion","mismatch","uniform","","","","","","","3024.3999999910593","124284.5","127308.89999999106","[""stimuli/BM04_SUR.jpg"",""stimuli/AM06_AO.jpg"",""stimuli/HF04_SC.jpg"",""stimuli/BF05_FO.jpg""]","stimuli/BM04_SUR.jpg","stimuli/AM06_AO.jpg","stimuli/HF04_SC.jpg","stimuli/BF05_FO.jpg","pos4","stimuli/BF05_FO.jpg","FO","BF05","3","4","8","8","stimuli/stars_8.png","55","[""SUR"",""AO"",""SC"",""FO""]","[""BM04"",""AM06"",""HF04"",""BF05""]","[6,0,6,8]","[6,2,4,8]","","",""
"show-reward","36","126753","0.0-36.0","p560335","ALJ70B2J04YR7","3087LXLJ6NMH85PJ46SJUKP4Z1V0FD","39L1G8WVWSXPM2S26W0IW0E6KEP31S","emotion","mismatch","uniform","","","","","","","","127812.89999999106","129825.29999999702","","","","","","","","","","","","8","","stimuli/stars_8.png","55","","","","","stimuli/BF05_FO.jpg","",""
"explore-choice","37","130252","0.0-37.0","p560335","ALJ70B2J04YR7","3087LXLJ6NMH85PJ46SJUKP4Z1V0FD","39L1G8WVWSXPM2S26W0IW0E6KEP31S","emotion","mismatch","uniform","","","","","","","2996.5","129826.5","132823","[""stimuli/HF04_SC.jpg"",""stimuli/AM06_FO.jpg"",""stimuli/BM04_AO.jpg"",""stimuli/BF05_SUR.jpg""]","stimuli/HF04_SC.jpg","stimuli/AM06_FO.jpg","stimuli/BM04_AO.jpg","stimuli/BF05_SUR.jpg","pos4","stimuli/BF05_SUR.jpg","SUR","BF05","3","2.5","5","6","stimuli/stars_5.png","57.5","[""SC"",""FO"",""AO"",""SUR""]","[""HF04"",""AM06"",""BM04"",""BF05""]","[6,7,3,5]","[4,8,2,6]","","",""
"show-reward","38","132292","0.0-38.0","p560335","ALJ70B2J04YR7","3087LXLJ6NMH85PJ46SJUKP4Z1V0FD","39L1G8WVWSXPM2S26W0IW0E6KEP31S","emotion","mismatch","uniform","","","","","","","","133353.59999999404","135363.5","","","","","","","","","","","","5","","stimuli/stars_5.png","57.5","","","","","stimuli/BF05_SUR.jpg","",""
"explore-choice","39","135406","0.0-39.0","p560335","ALJ70B2J04YR7","3087LXLJ6NMH85PJ46SJUKP4Z1V0FD","39L1G8WVWSXPM2S26W0IW0E6KEP31S","emotion","mismatch","uniform","","","","","","","2611.5","135365.70000000298","137977.20000000298","[""stimuli/BF05_SUR.jpg"",""stimuli/BM04_SC.jpg"",""stimuli/AM06_AO.jpg"",""stimuli/HF04_FO.jpg""]","stimuli/BF05_SUR.jpg","stimuli/BM04_SC.jpg","stimuli/AM06_AO.jpg","stimuli/HF04_FO.jpg","pos4","stimuli/HF04_FO.jpg","FO","HF04","3","4.5","9","8","stimuli/stars_9.png","62","[""SUR"",""SC"",""AO"",""FO""]","[""BF05"",""BM04"",""AM06"",""HF04""]","[6,5,1,9]","[6,4,2,8]","","",""
"show-reward","40","137419","0.0-40.0","p560335","ALJ70B2J04YR7","3087LXLJ6NMH85PJ46SJUKP4Z1V0FD","39L1G8WVWSXPM2S26W0IW0E6KEP31S","emotion","mismatch","uniform","","","","","","","","138480.70000000298","140490.70000000298","","","","","","","","","","","","9","","stimuli/stars_9.png","62","","","","","stimuli/HF04_FO.jpg","",""
"explore-choice","41","140036","0.0-41.0","p560335","ALJ70B2J04YR7","3087LXLJ6NMH85PJ46SJUKP4Z1V0FD","39L1G8WVWSXPM2S26W0IW0E6KEP31S","emotion","mismatch","uniform","","","","","","","2114.2999999970198","140493","142607.29999999702","[""stimuli/AM06_AO.jpg"",""stimuli/HF04_FO.jpg"",""stimuli/BF05_SC.jpg"",""stimuli/BM04_SUR.jpg""]","stimuli/AM06_AO.jpg","stimuli/HF04_FO.jpg","stimuli/BF05_SC.jpg","stimuli/BM04_SUR.jpg","pos2","stimuli/HF04_FO.jpg","FO","HF04","1","5","10","8","stimuli/stars_10.png","67","[""AO"",""FO"",""SC"",""SUR""]","[""AM06"",""HF04"",""BF05"",""BM04""]","[3,10,6,7]","[2,8,4,6]","","",""
"show-reward","42","142046","0.0-42.0","p560335","ALJ70B2J04YR7","3087LXLJ6NMH85PJ46SJUKP4Z1V0FD","39L1G8WVWSXPM2S26W0IW0E6KEP31S","emotion","mismatch","uniform","","","","","","","","143111.09999999404","145118.20000000298","","","","","","","","","","","","10","","stimuli/stars_10.png","67","","","","","stimuli/HF04_FO.jpg","",""
"explore-choice","43","146999","0.0-43.0","p560335","ALJ70B2J04YR7","3087LXLJ6NMH85PJ46SJUKP4Z1V0FD","39L1G8WVWSXPM2S26W0IW0E6KEP31S","emotion","mismatch","uniform","","","","","","","4448.79999999702","145120.70000000298","149569.5","[""stimuli/BF05_AO.jpg"",""stimuli/BM04_SC.jpg"",""stimuli/HF04_SUR.jpg"",""stimuli/AM06_FO.jpg""]","stimuli/BF05_AO.jpg","stimuli/BM04_SC.jpg","stimuli/HF04_SUR.jpg","stimuli/AM06_FO.jpg","pos4","stimuli/AM06_FO.jpg","FO","AM06","3","4","8","8","stimuli/stars_8.png","71","[""AO"",""SC"",""SUR"",""FO""]","[""BF05"",""BM04"",""HF04"",""AM06""]","[1,3,8,8]","[2,4,6,8]","","",""
"show-reward","44","149011","0.0-44.0","p560335","ALJ70B2J04YR7","3087LXLJ6NMH85PJ46SJUKP4Z1V0FD","39L1G8WVWSXPM2S26W0IW0E6KEP31S","emotion","mismatch","uniform","","","","","","","","150073.70000000298","152082.89999999106","","","","","","","","","","","","8","","stimuli/stars_8.png","71","","","","","stimuli/AM06_FO.jpg","",""
"explore-choice","45","153087","0.0-45.0","p560335","ALJ70B2J04YR7","3087LXLJ6NMH85PJ46SJUKP4Z1V0FD","39L1G8WVWSXPM2S26W0IW0E6KEP31S","emotion","mismatch","uniform","","","","","","","3572.5","152085","155657.5","[""stimuli/HF04_SC.jpg"",""stimuli/BM04_FO.jpg"",""stimuli/AM06_SUR.jpg"",""stimuli/BF05_AO.jpg""]","stimuli/HF04_SC.jpg","stimuli/BM04_FO.jpg","stimuli/AM06_SUR.jpg","stimuli/BF05_AO.jpg","pos2","stimuli/BM04_FO.jpg","FO","BM04","1","3.5","7","8","stimuli/stars_7.png","74.5","[""SC"",""FO"",""SUR"",""AO""]","[""HF04"",""BM04"",""AM06"",""BF05""]","[4,7,5,4]","[4,8,6,2]","","",""
"show-reward","46","155101","0.0-46.0","p560335","ALJ70B2J04YR7","3087LXLJ6NMH85PJ46SJUKP4Z1V0FD","39L1G8WVWSXPM2S26W0IW0E6KEP31S","emotion","mismatch","uniform","","","","","","","","156161.39999999106","158173.09999999404","","","","","","","","","","","","7","","stimuli/stars_7.png","74.5","","","","","stimuli/BM04_FO.jpg","",""
"explore-choice","47","160878","0.0-47.0","p560335","ALJ70B2J04YR7","3087LXLJ6NMH85PJ46SJUKP4Z1V0FD","39L1G8WVWSXPM2S26W0IW0E6KEP31S","emotion","mismatch","uniform","","","","","","","5273.600000008941","158175.59999999404","163449.20000000298","[""stimuli/BF05_FO.jpg"",""stimuli/BM04_AO.jpg"",""stimuli/AM06_SUR.jpg"",""stimuli/HF04_SC.jpg""]","stimuli/BF05_FO.jpg","stimuli/BM04_AO.jpg","stimuli/AM06_SUR.jpg","stimuli/HF04_SC.jpg","pos1","stimuli/BF05_FO.jpg","FO","BF05","0","5","10","8","stimuli/stars_10.png","79.5","[""FO"",""AO"",""SUR"",""SC""]","[""BF05"",""BM04"",""AM06"",""HF04""]","[10,2,4,2]","[8,2,6,4]","","",""
"show-reward","48","162895","0.0-48.0","p560335","ALJ70B2J04YR7","3087LXLJ6NMH85PJ46SJUKP4Z1V0FD","39L1G8WVWSXPM2S26W0IW0E6KEP31S","emotion","mismatch","uniform","","","","","","","","163952.5","165966.5","","","","","","","","","","","","10","","stimuli/stars_10.png","79.5","","","","","stimuli/BF05_FO.jpg","",""
"explore-choice","49","165368","0.0-49.0","p560335","ALJ70B2J04YR7","3087LXLJ6NMH85PJ46SJUKP4Z1V0FD","39L1G8WVWSXPM2S26W0IW0E6KEP31S","emotion","mismatch","uniform","","","","","","","1963.5","165968.59999999404","167932.09999999404","[""stimuli/HF04_AO.jpg"",""stimuli/BF05_SUR.jpg"",""stimuli/BM04_SC.jpg"",""stimuli/AM06_FO.jpg""]","stimuli/HF04_AO.jpg","stimuli/BF05_SUR.jpg","stimuli/BM04_SC.jpg","stimuli/AM06_FO.jpg","pos2","stimuli/BF05_SUR.jpg","SUR","BF05","1","2.5","5","6","stimuli/stars_5.png","82","[""AO"",""SUR"",""SC"",""FO""]","[""HF04"",""BF05"",""BM04"",""AM06""]","[0,5,5,6]","[2,6,4,8]","","",""
"show-reward","50","167378","0.0-50.0","p560335","ALJ70B2J04YR7","3087LXLJ6NMH85PJ46SJUKP4Z1V0FD","39L1G8WVWSXPM2S26W0IW0E6KEP31S","emotion","mismatch","uniform","","","","","","","","168441.39999999106","170450.29999999702","","","","","","","","","","","","5","","stimuli/stars_5.png","82","","","","","stimuli/BF05_SUR.jpg","",""
"explore-choice","51","170732","0.0-51.0","p560335","ALJ70B2J04YR7","3087LXLJ6NMH85PJ46SJUKP4Z1V0FD","39L1G8WVWSXPM2S26W0IW0E6KEP31S","emotion","mismatch","uniform","","","","","","","2851.5","170451.70000000298","173303.20000000298","[""stimuli/HF04_SC.jpg"",""stimuli/BF05_AO.jpg"",""stimuli/BM04_SUR.jpg"",""stimuli/AM06_FO.jpg""]","stimuli/HF04_SC.jpg","stimuli/BF05_AO.jpg","stimuli/BM04_SUR.jpg","stimuli/AM06_FO.jpg","pos4","stimuli/AM06_FO.jpg","FO","AM06","3","4.5","9","8","stimuli/stars_9.png","86.5","[""SC"",""AO"",""SUR"",""FO""]","[""HF04"",""BF05"",""BM04"",""AM06""]","[4,0,7,9]","[4,2,6,8]","","",""
"show-reward","52","172747","0.0-52.0","p560335","ALJ70B2J04YR7","3087LXLJ6NMH85PJ46SJUKP4Z1V0FD","39L1G8WVWSXPM2S26W0IW0E6KEP31S","emotion","mismatch","uniform","","","","","","","","173806.89999999106","175818.70000000298","","","","","","","","","","","","9","","stimuli/stars_9.png","86.5","","","","","stimuli/AM06_FO.jpg","",""
"explore-choice","53","175301","0.0-53.0","p560335","ALJ70B2J04YR7","3087LXLJ6NMH85PJ46SJUKP4Z1V0FD","39L1G8WVWSXPM2S26W0IW0E6KEP31S","emotion","mismatch","uniform","","","","","","","2050.2000000029802","175821.29999999702","177871.5","[""stimuli/BM04_SUR.jpg"",""stimuli/AM06_SC.jpg"",""stimuli/HF04_AO.jpg"",""stimuli/BF05_FO.jpg""]","stimuli/BM04_SUR.jpg","stimuli/AM06_SC.jpg","stimuli/HF04_AO.jpg","stimuli/BF05_FO.jpg","pos4","stimuli/BF05_FO.jpg","FO","BF05","3","5","10","8","stimuli/stars_10.png","91.5","[""SUR"",""SC"",""AO"",""FO""]","[""BM04"",""AM06"",""HF04"",""BF05""]","[6,5,0,10]","[6,4,2,8]","","",""
"show-reward","54","177321","0.0-54.0","p560335","ALJ70B2J04YR7","3087LXLJ6NMH85PJ46SJUKP4Z1V0FD","39L1G8WVWSXPM2S26W0IW0E6KEP31S","emotion","mismatch","uniform","","","","","","","","178377.59999999404","180392.29999999702","","","","","","","","","","","","10","","stimuli/stars_10.png","91.5","","","","","stimuli/BF05_FO.jpg","",""
"explore-choice","55","180386","0.0-55.0","p560335","ALJ70B2J04YR7","3087LXLJ6NMH85PJ46SJUKP4Z1V0FD","39L1G8WVWSXPM2S26W0IW0E6KEP31S","emotion","mismatch","uniform","","","","","","","2560.3999999910593","180394.70000000298","182955.09999999404","[""stimuli/HF04_AO.jpg"",""stimuli/BF05_SUR.jpg"",""stimuli/BM04_SC.jpg"",""stimuli/AM06_FO.jpg""]","stimuli/HF04_AO.jpg","stimuli/BF05_SUR.jpg","stimuli/BM04_SC.jpg","stimuli/AM06_FO.jpg","pos4","stimuli/AM06_FO.jpg","FO","AM06","3","3","6","8","stimuli/stars_6.png","94.5","[""AO"",""SUR"",""SC"",""FO""]","[""HF04"",""BF05"",""BM04"",""AM06""]","[0,5,5,6]","[2,6,4,8]","","",""
"show-reward","56","182400","0.0-56.0","p560335","ALJ70B2J04YR7","3087LXLJ6NMH85PJ46SJUKP4Z1V0FD","39L1G8WVWSXPM2S26W0IW0E6KEP31S","emotion","mismatch","uniform","","","","","","","","183460.39999999106","185471.20000000298","","","","","","","","","","","","6","","stimuli/stars_6.png","94.5","","","","","stimuli/AM06_FO.jpg","",""
"explore-choice","57","185805","0.0-57.0","p560335","ALJ70B2J04YR7","3087LXLJ6NMH85PJ46SJUKP4Z1V0FD","39L1G8WVWSXPM2S26W0IW0E6KEP31S","emotion","mismatch","uniform","","","","","","","2901.3999999910593","185473.70000000298","188375.09999999404","[""stimuli/HF04_SUR.jpg"",""stimuli/BM04_SC.jpg"",""stimuli/BF05_FO.jpg"",""stimuli/AM06_AO.jpg""]","stimuli/HF04_SUR.jpg","stimuli/BM04_SC.jpg","stimuli/BF05_FO.jpg","stimuli/AM06_AO.jpg","pos3","stimuli/BF05_FO.jpg","FO","BF05","2","3.5","7","8","stimuli/stars_7.png","98","[""SUR"",""SC"",""FO"",""AO""]","[""HF04"",""BM04"",""BF05"",""AM06""]","[6,2,7,2]","[6,4,8,2]","","",""
"show-reward","58","187817","0.0-58.0","p560335","ALJ70B2J04YR7","3087LXLJ6NMH85PJ46SJUKP4Z1V0FD","39L1G8WVWSXPM2S26W0IW0E6KEP31S","emotion","mismatch","uniform","","","","","","","","188878.79999999702","190888.20000000298","","","","","","","","","","","","7","","stimuli/stars_7.png","98","","","","","stimuli/BF05_FO.jpg","",""
"explore-choice","59","190450","0.0-59.0","p560335","ALJ70B2J04YR7","3087LXLJ6NMH85PJ46SJUKP4Z1V0FD","39L1G8WVWSXPM2S26W0IW0E6KEP31S","emotion","mismatch","uniform","","","","","","","2130.2999999970198","190890.59999999404","193020.89999999106","[""stimuli/BM04_SC.jpg"",""stimuli/HF04_FO.jpg"",""stimuli/AM06_AO.jpg"",""stimuli/BF05_SUR.jpg""]","stimuli/BM04_SC.jpg","stimuli/HF04_FO.jpg","stimuli/AM06_AO.jpg","stimuli/BF05_SUR.jpg","pos2","stimuli/HF04_FO.jpg","FO","HF04","1","4.5","9","8","stimuli/stars_9.png","102.5","[""SC"",""FO"",""AO"",""SUR""]","[""BM04"",""HF04"",""AM06"",""BF05""]","[5,9,1,6]","[4,8,2,6]","","",""
"show-reward","60","192463","0.0-60.0","p560335","ALJ70B2J04YR7","3087LXLJ6NMH85PJ46SJUKP4Z1V0FD","39L1G8WVWSXPM2S26W0IW0E6KEP31S","emotion","mismatch","uniform","","","","","","","","193524.39999999106","195534.20000000298","","","","","","","","","","","","9","","stimuli/stars_9.png","102.5","","","","","stimuli/HF04_FO.jpg","",""
"explore-choice","61","196622","0.0-61.0","p560335","ALJ70B2J04YR7","3087LXLJ6NMH85PJ46SJUKP4Z1V0FD","39L1G8WVWSXPM2S26W0IW0E6KEP31S","emotion","mismatch","uniform","","","","","","","3656.800000011921","195536.39999999106","199193.20000000298","[""stimuli/BF05_AO.jpg"",""stimuli/HF04_SUR.jpg"",""stimuli/BM04_FO.jpg"",""stimuli/AM06_SC.jpg""]","stimuli/BF05_AO.jpg","stimuli/HF04_SUR.jpg","stimuli/BM04_FO.jpg","stimuli/AM06_SC.jpg","pos3","stimuli/BM04_FO.jpg","FO","BM04","2","3.5","7","8","stimuli/stars_7.png","106","[""AO"",""SUR"",""FO"",""SC""]","[""BF05"",""HF04"",""BM04"",""AM06""]","[2,8,7,2]","[2,6,8,4]","","",""
"show-reward","62","198631","0.0-62.0","p560335","ALJ70B2J04YR7","3087LXLJ6NMH85PJ46SJUKP4Z1V0FD","39L1G8WVWSXPM2S26W0IW0E6KEP31S","emotion","mismatch","uniform","","","","","","","","199696","201703.29999999702","","","","","","","","","","","","7","","stimuli/stars_7.png","106","","","","","stimuli/BM04_FO.jpg","",""
"explore-choice","63","201754","0.0-63.0","p560335","ALJ70B2J04YR7","3087LXLJ6NMH85PJ46SJUKP4Z1V0FD","39L1G8WVWSXPM2S26W0IW0E6KEP31S","emotion","mismatch","uniform","","","","","","","2620.0999999940395","201705.20000000298","204325.29999999702","[""stimuli/BF05_SC.jpg"",""stimuli/BM04_SUR.jpg"",""stimuli/HF04_FO.jpg"",""stimuli/AM06_AO.jpg""]","stimuli/BF05_SC.jpg","stimuli/BM04_SUR.jpg","stimuli/HF04_FO.jpg","stimuli/AM06_AO.jpg","pos3","stimuli/HF04_FO.jpg","FO","HF04","2","5","10","8","stimuli/stars_10.png","111","[""SC"",""SUR"",""FO"",""AO""]","[""BF05"",""BM04"",""HF04"",""AM06""]","[6,7,10,3]","[4,6,8,2]","","",""
"show-reward","64","203766","0.0-64.0","p560335","ALJ70B2J04YR7","3087LXLJ6NMH85PJ46SJUKP4Z1V0FD","39L1G8WVWSXPM2S26W0IW0E6KEP31S","emotion","mismatch","uniform","","","","","","","","204828.59999999404","206837.89999999106","","","","","","","","","","","","10","","stimuli/stars_10.png","111","","","","","stimuli/HF04_FO.jpg","",""
"explore-choice","65","206777","0.0-65.0","p560335","ALJ70B2J04YR7","3087LXLJ6NMH85PJ46SJUKP4Z1V0FD","39L1G8WVWSXPM2S26W0IW0E6KEP31S","emotion","mismatch","uniform","","","","","","","2506.8999999910593","206840.20000000298","209347.09999999404","[""stimuli/HF04_AO.jpg"",""stimuli/BF05_FO.jpg"",""stimuli/BM04_SC.jpg"",""stimuli/AM06_SUR.jpg""]","stimuli/HF04_AO.jpg","stimuli/BF05_FO.jpg","stimuli/BM04_SC.jpg","stimuli/AM06_SUR.jpg","pos2","stimuli/BF05_FO.jpg","FO","BF05","1","3.5","7","8","stimuli/stars_7.png","114.5","[""AO"",""FO"",""SC"",""SUR""]","[""HF04"",""BF05"",""BM04"",""AM06""]","[4,7,3,7]","[2,8,4,6]","","",""
"show-reward","66","208796","0.0-66.0","p560335","ALJ70B2J04YR7","3087LXLJ6NMH85PJ46SJUKP4Z1V0FD","39L1G8WVWSXPM2S26W0IW0E6KEP31S","emotion","mismatch","uniform","","","","","","","","209850.79999999702","211867.70000000298","","","","","","","","","","","","7","","stimuli/stars_7.png","114.5","","","","","stimuli/BF05_FO.jpg","",""
"explore-choice","67","212746","0.0-67.0","p560335","ALJ70B2J04YR7","3087LXLJ6NMH85PJ46SJUKP4Z1V0FD","39L1G8WVWSXPM2S26W0IW0E6KEP31S","emotion","mismatch","uniform","","","","","","","3447.5","211869.70000000298","215317.20000000298","[""stimuli/AM06_FO.jpg"",""stimuli/HF04_SC.jpg"",""stimuli/BM04_SUR.jpg"",""stimuli/BF05_AO.jpg""]","stimuli/AM06_FO.jpg","stimuli/HF04_SC.jpg","stimuli/BM04_SUR.jpg","stimuli/BF05_AO.jpg","pos1","stimuli/AM06_FO.jpg","FO","AM06","0","4.5","9","8","stimuli/stars_9.png","119","[""FO"",""SC"",""SUR"",""AO""]","[""AM06"",""HF04"",""BM04"",""BF05""]","[9,4,7,0]","[8,4,6,2]","","",""
"show-reward","68","214757","0.0-68.0","p560335","ALJ70B2J04YR7","3087LXLJ6NMH85PJ46SJUKP4Z1V0FD","39L1G8WVWSXPM2S26W0IW0E6KEP31S","emotion","mismatch","uniform","","","","","","","","215820.5","217828.89999999106","","","","","","","","","","","","9","","stimuli/stars_9.png","119","","","","","stimuli/AM06_FO.jpg","",""
"explore-choice","69","218190","0.0-69.0","p560335","ALJ70B2J04YR7","3087LXLJ6NMH85PJ46SJUKP4Z1V0FD","39L1G8WVWSXPM2S26W0IW0E6KEP31S","emotion","mismatch","uniform","","","","","","","2930.2000000029802","217831","220761.20000000298","[""stimuli/AM06_SC.jpg"",""stimuli/BM04_SUR.jpg"",""stimuli/BF05_FO.jpg"",""stimuli/HF04_AO.jpg""]","stimuli/AM06_SC.jpg","stimuli/BM04_SUR.jpg","stimuli/BF05_FO.jpg","stimuli/HF04_AO.jpg","pos3","stimuli/BF05_FO.jpg","FO","BF05","2","5","10","8","stimuli/stars_10.png","124","[""SC"",""SUR"",""FO"",""AO""]","[""AM06"",""BM04"",""BF05"",""HF04""]","[5,6,10,0]","[4,6,8,2]","","",""
"show-reward","70","220202","0.0-70.0","p560335","ALJ70B2J04YR7","3087LXLJ6NMH85PJ46SJUKP4Z1V0FD","39L1G8WVWSXPM2S26W0IW0E6KEP31S","emotion","mismatch","uniform","","","","","","","","221264.09999999404","223273.79999999702","","","","","","","","","","","","10","","stimuli/stars_10.png","124","","","","","stimuli/BF05_FO.jpg","",""
"explore-choice","71","222397","0.0-71.0","p560335","ALJ70B2J04YR7","3087LXLJ6NMH85PJ46SJUKP4Z1V0FD","39L1G8WVWSXPM2S26W0IW0E6KEP31S","emotion","mismatch","uniform","","","","","","","1691.2999999970198","223276.09999999404","224967.39999999106","[""stimuli/BM04_FO.jpg"",""stimuli/AM06_AO.jpg"",""stimuli/HF04_SUR.jpg"",""stimuli/BF05_SC.jpg""]","stimuli/BM04_FO.jpg","stimuli/AM06_AO.jpg","stimuli/HF04_SUR.jpg","stimuli/BF05_SC.jpg","pos1","stimuli/BM04_FO.jpg","FO","BM04","0","3","6","8","stimuli/stars_6.png","127","[""FO"",""AO"",""SUR"",""SC""]","[""BM04"",""AM06"",""HF04"",""BF05""]","[6,2,8,3]","[8,2,6,4]","","",""
"show-reward","72","224409","0.0-72.0","p560335","ALJ70B2J04YR7","3087LXLJ6NMH85PJ46SJUKP4Z1V0FD","39L1G8WVWSXPM2S26W0IW0E6KEP31S","emotion","mismatch","uniform","","","","","","","","225470.79999999702","227480.59999999404","","","","","","","","","","","","6","","stimuli/stars_6.png","127","","","","","stimuli/BM04_FO.jpg","",""
"explore-choice","73","227349","0.0-73.0","p560335","ALJ70B2J04YR7","3087LXLJ6NMH85PJ46SJUKP4Z1V0FD","39L1G8WVWSXPM2S26W0IW0E6KEP31S","emotion","mismatch","uniform","","","","","","","2436.3999999910593","227482.70000000298","229919.09999999404","[""stimuli/BM04_AO.jpg"",""stimuli/BF05_FO.jpg"",""stimuli/HF04_SC.jpg"",""stimuli/AM06_SUR.jpg""]","stimuli/BM04_AO.jpg","stimuli/BF05_FO.jpg","stimuli/HF04_SC.jpg","stimuli/AM06_SUR.jpg","pos2","stimuli/BF05_FO.jpg","FO","BF05","1","5","10","8","stimuli/stars_10.png","132","[""AO"",""FO"",""SC"",""SUR""]","[""BM04"",""BF05"",""HF04"",""AM06""]","[2,10,2,4]","[2,8,4,6]","","",""
"show-reward","74","229356","0.0-74.0","p560335","ALJ70B2J04YR7","3087LXLJ6NMH85PJ46SJUKP4Z1V0FD","39L1G8WVWSXPM2S26W0IW0E6KEP31S","emotion","mismatch","uniform","","","","","","","","230421.70000000298","232427.59999999404","","","","","","","","","","","","10","","stimuli/stars_10.png","132","","","","","stimuli/BF05_FO.jpg","",""
"explore-choice","75","232779","0.0-75.0","p560335","ALJ70B2J04YR7","3087LXLJ6NMH85PJ46SJUKP4Z1V0FD","39L1G8WVWSXPM2S26W0IW0E6KEP31S","emotion","mismatch","uniform","","","","","","","2919.4000000059605","232429.89999999106","235349.29999999702","[""stimuli/BM04_AO.jpg"",""stimuli/BF05_SUR.jpg"",""stimuli/AM06_SC.jpg"",""stimuli/HF04_FO.jpg""]","stimuli/BM04_AO.jpg","stimuli/BF05_SUR.jpg","stimuli/AM06_SC.jpg","stimuli/HF04_FO.jpg","pos4","stimuli/HF04_FO.jpg","FO","HF04","3","5","10","8","stimuli/stars_10.png","137","[""AO"",""SUR"",""SC"",""FO""]","[""BM04"",""BF05"",""AM06"",""HF04""]","[2,4,2,10]","[2,6,4,8]","","",""
"show-reward","76","234791","0.0-76.0","p560335","ALJ70B2J04YR7","3087LXLJ6NMH85PJ46SJUKP4Z1V0FD","39L1G8WVWSXPM2S26W0IW0E6KEP31S","emotion","mismatch","uniform","","","","","","","","235853.79999999702","237863.29999999702","","","","","","","","","","","","10","","stimuli/stars_10.png","137","","","","","stimuli/HF04_FO.jpg","",""
"explore-choice","77","238606","0.0-77.0","p560335","ALJ70B2J04YR7","3087LXLJ6NMH85PJ46SJUKP4Z1V0FD","39L1G8WVWSXPM2S26W0IW0E6KEP31S","emotion","mismatch","uniform","","","","","","","3312.4000000059605","237864.89999999106","241177.29999999702","[""stimuli/AM06_FO.jpg"",""stimuli/BF05_SC.jpg"",""stimuli/HF04_SUR.jpg"",""stimuli/BM04_AO.jpg""]","stimuli/AM06_FO.jpg","stimuli/BF05_SC.jpg","stimuli/HF04_SUR.jpg","stimuli/BM04_AO.jpg","pos1","stimuli/AM06_FO.jpg","FO","AM06","0","3","6","8","stimuli/stars_6.png","140","[""FO"",""SC"",""SUR"",""AO""]","[""AM06"",""BF05"",""HF04"",""BM04""]","[6,6,4,1]","[8,4,6,2]","","",""
"show-reward","78","240619","0.0-78.0","p560335","ALJ70B2J04YR7","3087LXLJ6NMH85PJ46SJUKP4Z1V0FD","39L1G8WVWSXPM2S26W0IW0E6KEP31S","emotion","mismatch","uniform","","","","","","","","241681","243690.20000000298","","","","","","","","","","","","6","","stimuli/stars_6.png","140","","","","","stimuli/AM06_FO.jpg","",""
"explore-choice","79","244090","0.0-79.0","p560335","ALJ70B2J04YR7","3087LXLJ6NMH85PJ46SJUKP4Z1V0FD","39L1G8WVWSXPM2S26W0IW0E6KEP31S","emotion","mismatch","uniform","","","","","","","2966.8999999910593","243692.5","246659.39999999106","[""stimuli/HF04_SC.jpg"",""stimuli/BF05_SUR.jpg"",""stimuli/AM06_FO.jpg"",""stimuli/BM04_AO.jpg""]","stimuli/HF04_SC.jpg","stimuli/BF05_SUR.jpg","stimuli/AM06_FO.jpg","stimuli/BM04_AO.jpg","pos3","stimuli/AM06_FO.jpg","FO","AM06","2","3.5","7","8","stimuli/stars_7.png","143.5","[""SC"",""SUR"",""FO"",""AO""]","[""HF04"",""BF05"",""AM06"",""BM04""]","[6,5,7,3]","[4,6,8,2]","","",""
"show-reward","80","246107","0.0-80.0","p560335","ALJ70B2J04YR7","3087LXLJ6NMH85PJ46SJUKP4Z1V0FD","39L1G8WVWSXPM2S26W0IW0E6KEP31S","emotion","mismatch","uniform","","","","","","","","247164","249178","","","","","","","","","","","","7","","stimuli/stars_7.png","143.5","","","","","stimuli/AM06_FO.jpg","",""
"explore-choice","81","248837","0.0-81.0","p560335","ALJ70B2J04YR7","3087LXLJ6NMH85PJ46SJUKP4Z1V0FD","39L1G8WVWSXPM2S26W0IW0E6KEP31S","emotion","mismatch","uniform","","","","","","","2226","249181.39999999106","251407.39999999106","[""stimuli/BM04_SUR.jpg"",""stimuli/BF05_FO.jpg"",""stimuli/AM06_AO.jpg"",""stimuli/HF04_SC.jpg""]","stimuli/BM04_SUR.jpg","stimuli/BF05_FO.jpg","stimuli/AM06_AO.jpg","stimuli/HF04_SC.jpg","pos2","stimuli/BF05_FO.jpg","FO","BF05","1","4","8","8","stimuli/stars_8.png","147.5","[""SUR"",""FO"",""AO"",""SC""]","[""BM04"",""BF05"",""AM06"",""HF04""]","[6,8,0,6]","[6,8,2,4]","","",""
"show-reward","82","250843","0.0-82.0","p560335","ALJ70B2J04YR7","3087LXLJ6NMH85PJ46SJUKP4Z1V0FD","39L1G8WVWSXPM2S26W0IW0E6KEP31S","emotion","mismatch","uniform","","","","","","","","251910.09999999404","253914.70000000298","","","","","","","","","","","","8","","stimuli/stars_8.png","147.5","","","","","stimuli/BF05_FO.jpg","",""
"explore-choice","83","255964","0.0-83.0","p560335","ALJ70B2J04YR7","3087LXLJ6NMH85PJ46SJUKP4Z1V0FD","39L1G8WVWSXPM2S26W0IW0E6KEP31S","emotion","mismatch","uniform","","","","","","","4619.300000011921","253915.89999999106","258535.20000000298","[""stimuli/HF04_AO.jpg"",""stimuli/BF05_SUR.jpg"",""stimuli/AM06_SC.jpg"",""stimuli/BM04_FO.jpg""]","stimuli/HF04_AO.jpg","stimuli/BF05_SUR.jpg","stimuli/AM06_SC.jpg","stimuli/BM04_FO.jpg","pos4","stimuli/BM04_FO.jpg","FO","BM04","3","4.5","9","8","stimuli/stars_9.png","152","[""AO"",""SUR"",""SC"",""FO""]","[""HF04"",""BF05"",""AM06"",""BM04""]","[4,6,3,9]","[2,6,4,8]","","",""
"show-reward","84","257975","0.0-84.0","p560335","ALJ70B2J04YR7","3087LXLJ6NMH85PJ46SJUKP4Z1V0FD","39L1G8WVWSXPM2S26W0IW0E6KEP31S","emotion","mismatch","uniform","","","","","","","","259038.59999999404","261046.5","","","","","","","","","","","","9","","stimuli/stars_9.png","152","","","","","stimuli/BM04_FO.jpg","",""
"explore-choice","85","261333","0.0-85.0","p560335","ALJ70B2J04YR7","3087LXLJ6NMH85PJ46SJUKP4Z1V0FD","39L1G8WVWSXPM2S26W0IW0E6KEP31S","emotion","mismatch","uniform","","","","","","","2854.7999999970198","261048.5","263903.299999997","[""stimuli/AM06_SC.jpg"",""stimuli/HF04_SUR.jpg"",""stimuli/BM04_AO.jpg"",""stimuli/BF05_FO.jpg""]","stimuli/AM06_SC.jpg","stimuli/HF04_SUR.jpg","stimuli/BM04_AO.jpg","stimuli/BF05_FO.jpg","pos4","stimuli/BF05_FO.jpg","FO","BF05","3","3.5","7","8","stimuli/stars_7.png","155.5","[""SC"",""SUR"",""AO"",""FO""]","[""AM06"",""HF04"",""BM04"",""BF05""]","[6,8,0,7]","[4,6,2,8]","","",""
"show-reward","86","263348","0.0-86.0","p560335","ALJ70B2J04YR7","3087LXLJ6NMH85PJ46SJUKP4Z1V0FD","39L1G8WVWSXPM2S26W0IW0E6KEP31S","emotion","mismatch","uniform","","","","","","","","264407.200000003","266419.299999997","","","","","","","","","","","","7","","stimuli/stars_7.png","155.5","","","","","stimuli/BF05_FO.jpg","",""
"explore-choice","87","266079","0.0-87.0","p560335","ALJ70B2J04YR7","3087LXLJ6NMH85PJ46SJUKP4Z1V0FD","39L1G8WVWSXPM2S26W0IW0E6KEP31S","emotion","mismatch","uniform","","","","","","","2228.5","266420.89999999106","268649.39999999106","[""stimuli/AM06_AO.jpg"",""stimuli/HF04_SC.jpg"",""stimuli/BM04_FO.jpg"",""stimuli/BF05_SUR.jpg""]","stimuli/AM06_AO.jpg","stimuli/HF04_SC.jpg","stimuli/BM04_FO.jpg","stimuli/BF05_SUR.jpg","pos3","stimuli/BM04_FO.jpg","FO","BM04","2","4.5","9","8","stimuli/stars_9.png","160","[""AO"",""SC"",""FO"",""SUR""]","[""AM06"",""HF04"",""BM04"",""BF05""]","[3,3,9,5]","[2,4,8,6]","","",""
"show-reward","88","268091","0.0-88.0","p560335","ALJ70B2J04YR7","3087LXLJ6NMH85PJ46SJUKP4Z1V0FD","39L1G8WVWSXPM2S26W0IW0E6KEP31S","emotion","mismatch","uniform","","","","","","","","269152.89999999106","271162","","","","","","","","","","","","9","","stimuli/stars_9.png","160","","","","","stimuli/BM04_FO.jpg","",""
"explore-choice","89","270905","0.0-89.0","p560335","ALJ70B2J04YR7","3087LXLJ6NMH85PJ46SJUKP4Z1V0FD","39L1G8WVWSXPM2S26W0IW0E6KEP31S","emotion","mismatch","uniform","","","","","","","2311","271164.299999997","273475.299999997","[""stimuli/AM06_SUR.jpg"",""stimuli/BF05_AO.jpg"",""stimuli/HF04_FO.jpg"",""stimuli/BM04_SC.jpg""]","stimuli/AM06_SUR.jpg","stimuli/BF05_AO.jpg","stimuli/HF04_FO.jpg","stimuli/BM04_SC.jpg","pos3","stimuli/HF04_FO.jpg","FO","HF04","2","4.5","9","8","stimuli/stars_9.png","164.5","[""SUR"",""AO"",""FO"",""SC""]","[""AM06"",""BF05"",""HF04"",""BM04""]","[6,4,9,4]","[6,2,8,4]","","",""
"show-reward","90","272921","0.0-90.0","p560335","ALJ70B2J04YR7","3087LXLJ6NMH85PJ46SJUKP4Z1V0FD","39L1G8WVWSXPM2S26W0IW0E6KEP31S","emotion","mismatch","uniform","","","","","","","","273982.799999997","275992.59999999404","","","","","","","","","","","","9","","stimuli/stars_9.png","164.5","","","","","stimuli/HF04_FO.jpg","",""
"explore-choice","91","275534","0.0-91.0","p560335","ALJ70B2J04YR7","3087LXLJ6NMH85PJ46SJUKP4Z1V0FD","39L1G8WVWSXPM2S26W0IW0E6KEP31S","emotion","mismatch","uniform","","","","","","","2108.5","275994.799999997","278103.299999997","[""stimuli/HF04_FO.jpg"",""stimuli/BF05_AO.jpg"",""stimuli/AM06_SC.jpg"",""stimuli/BM04_SUR.jpg""]","stimuli/HF04_FO.jpg","stimuli/BF05_AO.jpg","stimuli/AM06_SC.jpg","stimuli/BM04_SUR.jpg","pos1","stimuli/HF04_FO.jpg","FO","HF04","0","4","8","8","stimuli/stars_8.png","168.5","[""FO"",""AO"",""SC"",""SUR""]","[""HF04"",""BF05"",""AM06"",""BM04""]","[8,1,6,6]","[8,2,4,6]","","",""
"show-reward","92","277540","0.0-92.0","p560335","ALJ70B2J04YR7","3087LXLJ6NMH85PJ46SJUKP4Z1V0FD","39L1G8WVWSXPM2S26W0IW0E6KEP31S","emotion","mismatch","uniform","","","","","","","","278606.700000003","280611.39999999106","","","","","","","","","","","","8","","stimuli/stars_8.png","168.5","","","","","stimuli/HF04_FO.jpg","",""
"explore-choice","93","279795","0.0-93.0","p560335","ALJ70B2J04YR7","3087LXLJ6NMH85PJ46SJUKP4Z1V0FD","39L1G8WVWSXPM2S26W0IW0E6KEP31S","emotion","mismatch","uniform","","","","","","","1751.5999999940395","280613.5","282365.09999999404","[""stimuli/BM04_AO.jpg"",""stimuli/BF05_SC.jpg"",""stimuli/AM06_SUR.jpg"",""stimuli/HF04_FO.jpg""]","stimuli/BM04_AO.jpg","stimuli/BF05_SC.jpg","stimuli/AM06_SUR.jpg","stimuli/HF04_FO.jpg","pos4","stimuli/HF04_FO.jpg","FO","HF04","3","4","8","8","stimuli/stars_8.png","172.5","[""AO"",""SC"",""SUR"",""FO""]","[""BM04"",""BF05"",""AM06"",""HF04""]","[1,5,4,8]","[2,4,6,8]","","",""
"show-reward","94","281806","0.0-94.0","p560335","ALJ70B2J04YR7","3087LXLJ6NMH85PJ46SJUKP4Z1V0FD","39L1G8WVWSXPM2S26W0IW0E6KEP31S","emotion","mismatch","uniform","","","","","","","","282868.5","284877.700000003","","","","","","","","","","","","8","","stimuli/stars_8.png","172.5","","","","","stimuli/HF04_FO.jpg","",""
"explore-choice","95","284525","0.0-95.0","p560335","ALJ70B2J04YR7","3087LXLJ6NMH85PJ46SJUKP4Z1V0FD","39L1G8WVWSXPM2S26W0IW0E6KEP31S","emotion","mismatch","uniform","","","","","","","2215","284880.5","287095.5","[""stimuli/AM06_SUR.jpg"",""stimuli/BF05_SC.jpg"",""stimuli/BM04_FO.jpg"",""stimuli/HF04_AO.jpg""]","stimuli/AM06_SUR.jpg","stimuli/BF05_SC.jpg","stimuli/BM04_FO.jpg","stimuli/HF04_AO.jpg","pos3","stimuli/BM04_FO.jpg","FO","BM04","2","3","6","8","stimuli/stars_6.png","175.5","[""SUR"",""SC"",""FO"",""AO""]","[""AM06"",""BF05"",""BM04"",""HF04""]","[7,6,6,0]","[6,4,8,2]","","",""
"show-reward","96","286536","0.0-96.0","p560335","ALJ70B2J04YR7","3087LXLJ6NMH85PJ46SJUKP4Z1V0FD","39L1G8WVWSXPM2S26W0IW0E6KEP31S","emotion","mismatch","uniform","","","","","","","","287598.299999997","289607.89999999106","","","","","","","","","","","","6","","stimuli/stars_6.png","175.5","","","","","stimuli/BM04_FO.jpg","",""
"explore-choice","97","290134","0.0-97.0","p560335","ALJ70B2J04YR7","3087LXLJ6NMH85PJ46SJUKP4Z1V0FD","39L1G8WVWSXPM2S26W0IW0E6KEP31S","emotion","mismatch","uniform","","","","","","","3094.9000000059605","289610.299999997","292705.200000003","[""stimuli/BF05_SC.jpg"",""stimuli/BM04_SUR.jpg"",""stimuli/AM06_FO.jpg"",""stimuli/HF04_AO.jpg""]","stimuli/BF05_SC.jpg","stimuli/BM04_SUR.jpg","stimuli/AM06_FO.jpg","stimuli/HF04_AO.jpg","pos3","stimuli/AM06_FO.jpg","FO","AM06","2","4","8","8","stimuli/stars_8.png","179.5","[""SC"",""SUR"",""FO"",""AO""]","[""BF05"",""BM04"",""AM06"",""HF04""]","[6,5,8,1]","[4,6,8,2]","","",""
"show-reward","98","292142","0.0-98.0","p560335","ALJ70B2J04YR7","3087LXLJ6NMH85PJ46SJUKP4Z1V0FD","39L1G8WVWSXPM2S26W0IW0E6KEP31S","emotion","mismatch","uniform","","","","","","","","293207.5","295213","","","","","","","","","","","","8","","stimuli/stars_8.png","179.5","","","","","stimuli/AM06_FO.jpg","",""
"explore-choice","99","297240","0.0-99.0","p560335","ALJ70B2J04YR7","3087LXLJ6NMH85PJ46SJUKP4Z1V0FD","39L1G8WVWSXPM2S26W0IW0E6KEP31S","emotion","mismatch","uniform","","","","","","","4594.9000000059605","295214.59999999404","299809.5","[""stimuli/BM04_SC.jpg"",""stimuli/AM06_FO.jpg"",""stimuli/HF04_SUR.jpg"",""stimuli/BF05_AO.jpg""]","stimuli/BM04_SC.jpg","stimuli/AM06_FO.jpg","stimuli/HF04_SUR.jpg","stimuli/BF05_AO.jpg","pos2","stimuli/AM06_FO.jpg","FO","AM06","1","4","8","8","stimuli/stars_8.png","183.5","[""SC"",""FO"",""SUR"",""AO""]","[""BM04"",""AM06"",""HF04"",""BF05""]","[3,8,8,1]","[4,8,6,2]","","",""
"show-reward","100","299252","0.0-100.0","p560335","ALJ70B2J04YR7","3087LXLJ6NMH85PJ46SJUKP4Z1V0FD","39L1G8WVWSXPM2S26W0IW0E6KEP31S","emotion","mismatch","uniform","","","","","","","","300314","302323.200000003","","","","","","","","","","","","8","","stimuli/stars_8.png","183.5","","","","","stimuli/AM06_FO.jpg","",""
"explore-choice","101","301719","0.0-101.0","p560335","ALJ70B2J04YR7","3087LXLJ6NMH85PJ46SJUKP4Z1V0FD","39L1G8WVWSXPM2S26W0IW0E6KEP31S","emotion","mismatch","uniform","","","","","","","1963.3999999910593","302325.700000003","304289.09999999404","[""stimuli/AM06_SUR.jpg"",""stimuli/BF05_AO.jpg"",""stimuli/BM04_FO.jpg"",""stimuli/HF04_SC.jpg""]","stimuli/AM06_SUR.jpg","stimuli/BF05_AO.jpg","stimuli/BM04_FO.jpg","stimuli/HF04_SC.jpg","pos3","stimuli/BM04_FO.jpg","FO","BM04","2","3.5","7","8","stimuli/stars_7.png","187","[""SUR"",""AO"",""FO"",""SC""]","[""AM06"",""BF05"",""BM04"",""HF04""]","[5,4,7,4]","[6,2,8,4]","","",""
"show-reward","102","303729","0.0-102.0","p560335","ALJ70B2J04YR7","3087LXLJ6NMH85PJ46SJUKP4Z1V0FD","39L1G8WVWSXPM2S26W0IW0E6KEP31S","emotion","mismatch","uniform","","","","","","","","304791.59999999404","306800.09999999404","","","","","","","","","","","","7","","stimuli/stars_7.png","187","","","","","stimuli/BM04_FO.jpg","",""
"explore-choice","103","318207","0.0-103.0","p560335","ALJ70B2J04YR7","3087LXLJ6NMH85PJ46SJUKP4Z1V0FD","39L1G8WVWSXPM2S26W0IW0E6KEP31S","emotion","mismatch","uniform","","","","","","","13975.5","306802","320777.5","[""stimuli/HF10_HO.jpg"",""stimuli/BM16_CC.jpg"",""stimuli/BF08_HE.jpg"",""stimuli/WF04_DO.jpg""]","stimuli/HF10_HO.jpg","stimuli/BM16_CC.jpg","stimuli/BF08_HE.jpg","stimuli/WF04_DO.jpg","pos4","stimuli/WF04_DO.jpg","DO","WF04","3","3","6","6","stimuli/stars_6.png","190","[""HO"",""CC"",""HE"",""DO""]","[""HF10"",""BM16"",""BF08"",""WF04""]","[7,1,3,6]","[8,2,4,6]","","",""
"show-reward","104","320226","0.0-104.0","p560335","ALJ70B2J04YR7","3087LXLJ6NMH85PJ46SJUKP4Z1V0FD","39L1G8WVWSXPM2S26W0IW0E6KEP31S","emotion","mismatch","uniform","","","","","","","","321281.39999999106","323297.799999997","","","","","","","","","","","","6","","stimuli/stars_6.png","190","","","","","stimuli/WF04_DO.jpg","",""
"explore-choice","105","322689","0.0-105.0","p560335","ALJ70B2J04YR7","3087LXLJ6NMH85PJ46SJUKP4Z1V0FD","39L1G8WVWSXPM2S26W0IW0E6KEP31S","emotion","mismatch","uniform","","","","","","","1960","323299.5","325259.5","[""stimuli/WF04_HE.jpg"",""stimuli/BM16_CC.jpg"",""stimuli/HF10_DO.jpg"",""stimuli/BF08_HO.jpg""]","stimuli/WF04_HE.jpg","stimuli/BM16_CC.jpg","stimuli/HF10_DO.jpg","stimuli/BF08_HO.jpg","pos3","stimuli/HF10_DO.jpg","DO","HF10","2","4","8","8","stimuli/stars_8.png","194","[""HE"",""CC"",""DO"",""HO""]","[""WF04"",""BM16"",""HF10"",""BF08""]","[7,4,8,6]","[6,2,8,4]","","",""
"show-reward","106","324702","0.0-106.0","p560335","ALJ70B2J04YR7","3087LXLJ6NMH85PJ46SJUKP4Z1V0FD","39L1G8WVWSXPM2S26W0IW0E6KEP31S","emotion","mismatch","uniform","","","","","","","","325763.200000003","327773","","","","","","","","","","","","8","","stimuli/stars_8.png","194","","","","","stimuli/HF10_DO.jpg","",""
"explore-choice","107","327459","0.0-107.0","p560335","ALJ70B2J04YR7","3087LXLJ6NMH85PJ46SJUKP4Z1V0FD","39L1G8WVWSXPM2S26W0IW0E6KEP31S","emotion","mismatch","uniform","","","","","","","2254.2000000029802","327775.299999997","330029.5","[""stimuli/BF08_DO.jpg"",""stimuli/HF10_HE.jpg"",""stimuli/WF04_CC.jpg"",""stimuli/BM16_HO.jpg""]","stimuli/BF08_DO.jpg","stimuli/HF10_HE.jpg","stimuli/WF04_CC.jpg","stimuli/BM16_HO.jpg","pos1","stimuli/BF08_DO.jpg","DO","BF08","0","2","4","4","stimuli/stars_4.png","196","[""DO"",""HE"",""CC"",""HO""]","[""BF08"",""HF10"",""WF04"",""BM16""]","[4,6,5,0]","[4,8,6,2]","","",""
"show-reward","108","329472","0.0-108.0","p560335","ALJ70B2J04YR7","3087LXLJ6NMH85PJ46SJUKP4Z1V0FD","39L1G8WVWSXPM2S26W0IW0E6KEP31S","emotion","mismatch","uniform","","","","","","","","330532.799999997","332543.5","","","","","","","","","","","","4","","stimuli/stars_4.png","196","","","","","stimuli/BF08_DO.jpg","",""
"explore-choice","109","334297","0.0-109.0","p560335","ALJ70B2J04YR7","3087LXLJ6NMH85PJ46SJUKP4Z1V0FD","39L1G8WVWSXPM2S26W0IW0E6KEP31S","emotion","mismatch","uniform","","","","","","","4321.70000000298","332545.799999997","336867.5","[""stimuli/BF08_HO.jpg"",""stimuli/HF10_CC.jpg"",""stimuli/BM16_HE.jpg"",""stimuli/WF04_DO.jpg""]","stimuli/BF08_HO.jpg","stimuli/HF10_CC.jpg","stimuli/BM16_HE.jpg","stimuli/WF04_DO.jpg","pos4","stimuli/WF04_DO.jpg","DO","WF04","3","2","4","6","stimuli/stars_4.png","198","[""HO"",""CC"",""HE"",""DO""]","[""BF08"",""HF10"",""BM16"",""WF04""]","[4,9,1,4]","[4,8,2,6]","","",""
"show-reward","110","336311","0.0-110.0","p560335","ALJ70B2J04YR7","3087LXLJ6NMH85PJ46SJUKP4Z1V0FD","39L1G8WVWSXPM2S26W0IW0E6KEP31S","emotion","mismatch","uniform","","","","","","","","337371","339381.799999997","","","","","","","","","","","","4","","stimuli/stars_4.png","198","","","","","stimuli/WF04_DO.jpg","",""
"explore-choice","111","339155","0.0-111.0","p560335","ALJ70B2J04YR7","3087LXLJ6NMH85PJ46SJUKP4Z1V0FD","39L1G8WVWSXPM2S26W0IW0E6KEP31S","emotion","mismatch","uniform","","","","","","","2340.2999999970198","339385.09999999404","341725.39999999106","[""stimuli/BM16_HO.jpg"",""stimuli/HF10_CC.jpg"",""stimuli/BF08_HE.jpg"",""stimuli/WF04_DO.jpg""]","stimuli/BM16_HO.jpg","stimuli/HF10_CC.jpg","stimuli/BF08_HE.jpg","stimuli/WF04_DO.jpg","pos3","stimuli/BF08_HE.jpg","HE","BF08","2","2","4","4","stimuli/stars_4.png","200","[""HO"",""CC"",""HE"",""DO""]","[""BM16"",""HF10"",""BF08"",""WF04""]","[3,9,4,6]","[2,8,4,6]","","",""
"show-reward","112","341167","0.0-112.0","p560335","ALJ70B2J04YR7","3087LXLJ6NMH85PJ46SJUKP4Z1V0FD","39L1G8WVWSXPM2S26W0IW0E6KEP31S","emotion","mismatch","uniform","","","","","","","","342229.09999999404","344238.09999999404","","","","","","","","","","","","4","","stimuli/stars_4.png","200","","","","","stimuli/BF08_HE.jpg","",""
"explore-choice","113","346213","0.0-113.0","p560335","ALJ70B2J04YR7","3087LXLJ6NMH85PJ46SJUKP4Z1V0FD","39L1G8WVWSXPM2S26W0IW0E6KEP31S","emotion","mismatch","uniform","","","","","","","4543","344240.299999997","348783.299999997","[""stimuli/BF08_HO.jpg"",""stimuli/BM16_DO.jpg"",""stimuli/WF04_HE.jpg"",""stimuli/HF10_CC.jpg""]","stimuli/BF08_HO.jpg","stimuli/BM16_DO.jpg","stimuli/WF04_HE.jpg","stimuli/HF10_CC.jpg","pos2","stimuli/BM16_DO.jpg","DO","BM16","1","1","2","2","stimuli/stars_2.png","201","[""HO"",""DO"",""HE"",""CC""]","[""BF08"",""BM16"",""WF04"",""HF10""]","[2,2,5,10]","[4,2,6,8]","","",""
"show-reward","114","348224","0.0-114.0","p560335","ALJ70B2J04YR7","3087LXLJ6NMH85PJ46SJUKP4Z1V0FD","39L1G8WVWSXPM2S26W0IW0E6KEP31S","emotion","mismatch","uniform","","","","","","","","349286.5","351295.700000003","","","","","","","","","","","","2","","stimuli/stars_2.png","201","","","","","stimuli/BM16_DO.jpg","",""
"explore-choice","115","353419","0.0-115.0","p560335","ALJ70B2J04YR7","3087LXLJ6NMH85PJ46SJUKP4Z1V0FD","39L1G8WVWSXPM2S26W0IW0E6KEP31S","emotion","mismatch","uniform","","","","","","","4691.29999999702","351298.200000003","355989.5","[""stimuli/WF04_CC.jpg"",""stimuli/BF08_HO.jpg"",""stimuli/BM16_HE.jpg"",""stimuli/HF10_DO.jpg""]","stimuli/WF04_CC.jpg","stimuli/BF08_HO.jpg","stimuli/BM16_HE.jpg","stimuli/HF10_DO.jpg","pos3","stimuli/BM16_HE.jpg","HE","BM16","2","1","2","2","stimuli/stars_2.png","202","[""CC"",""HO"",""HE"",""DO""]","[""WF04"",""BF08"",""BM16"",""HF10""]","[8,5,2,7]","[6,4,2,8]","","",""
"show-reward","116","355426","0.0-116.0","p560335","ALJ70B2J04YR7","3087LXLJ6NMH85PJ46SJUKP4Z1V0FD","39L1G8WVWSXPM2S26W0IW0E6KEP31S","emotion","mismatch","uniform","","","","","","","","356491.700000003","358497.59999999404","","","","","","","","","","","","2","","stimuli/stars_2.png","202","","","","","stimuli/BM16_HE.jpg","",""
"explore-choice","117","357673","0.0-117.0","p560335","ALJ70B2J04YR7","3087LXLJ6NMH85PJ46SJUKP4Z1V0FD","39L1G8WVWSXPM2S26W0IW0E6KEP31S","emotion","mismatch","uniform","","","","","","","1744.199999988079","358499.200000003","360243.39999999106","[""stimuli/BF08_DO.jpg"",""stimuli/HF10_CC.jpg"",""stimuli/BM16_HE.jpg"",""stimuli/WF04_HO.jpg""]","stimuli/BF08_DO.jpg","stimuli/HF10_CC.jpg","stimuli/BM16_HE.jpg","stimuli/WF04_HO.jpg","pos2","stimuli/HF10_CC.jpg","CC","HF10","1","5","10","8","stimuli/stars_10.png","207","[""DO"",""CC"",""HE"",""HO""]","[""BF08"",""HF10"",""BM16"",""WF04""]","[3,10,2,5]","[4,8,2,6]","","",""
"show-reward","118","359685","0.0-118.0","p560335","ALJ70B2J04YR7","3087LXLJ6NMH85PJ46SJUKP4Z1V0FD","39L1G8WVWSXPM2S26W0IW0E6KEP31S","emotion","mismatch","uniform","","","","","","","","360746.700000003","362756.799999997","","","","","","","","","","","","10","","stimuli/stars_10.png","207","","","","","stimuli/HF10_CC.jpg","",""
"explore-choice","119","361926","0.0-119.0","p560335","ALJ70B2J04YR7","3087LXLJ6NMH85PJ46SJUKP4Z1V0FD","39L1G8WVWSXPM2S26W0IW0E6KEP31S","emotion","mismatch","uniform","","","","","","","1738.2999999970198","362759.09999999404","364497.39999999106","[""stimuli/HF10_HE.jpg"",""stimuli/WF04_DO.jpg"",""stimuli/BM16_CC.jpg"",""stimuli/BF08_HO.jpg""]","stimuli/HF10_HE.jpg","stimuli/WF04_DO.jpg","stimuli/BM16_CC.jpg","stimuli/BF08_HO.jpg","pos3","stimuli/BM16_CC.jpg","CC","BM16","2","1","2","2","stimuli/stars_2.png","208","[""HE"",""DO"",""CC"",""HO""]","[""HF10"",""WF04"",""BM16"",""BF08""]","[9,4,2,3]","[8,6,2,4]","","",""
"show-reward","120","363939","0.0-120.0","p560335","ALJ70B2J04YR7","3087LXLJ6NMH85PJ46SJUKP4Z1V0FD","39L1G8WVWSXPM2S26W0IW0E6KEP31S","emotion","mismatch","uniform","","","","","","","","365000.200000003","367011","","","","","","","","","","","","2","","stimuli/stars_2.png","208","","","","","stimuli/BM16_CC.jpg","",""
"explore-choice","121","367669","0.0-121.0","p560335","ALJ70B2J04YR7","3087LXLJ6NMH85PJ46SJUKP4Z1V0FD","39L1G8WVWSXPM2S26W0IW0E6KEP31S","emotion","mismatch","uniform","","","","","","","3225.7999999970198","367013.5","370239.299999997","[""stimuli/BF08_CC.jpg"",""stimuli/BM16_HO.jpg"",""stimuli/WF04_DO.jpg"",""stimuli/HF10_HE.jpg""]","stimuli/BF08_CC.jpg","stimuli/BM16_HO.jpg","stimuli/WF04_DO.jpg","stimuli/HF10_HE.jpg","pos1","stimuli/BF08_CC.jpg","CC","BF08","0","2","4","4","stimuli/stars_4.png","210","[""CC"",""HO"",""DO"",""HE""]","[""BF08"",""BM16"",""WF04"",""HF10""]","[4,1,7,9]","[4,2,6,8]","","",""
"show-reward","122","369681","0.0-122.0","p560335","ALJ70B2J04YR7","3087LXLJ6NMH85PJ46SJUKP4Z1V0FD","39L1G8WVWSXPM2S26W0IW0E6KEP31S","emotion","mismatch","uniform","","","","","","","","370743.5","372752.5","","","","","","","","","","","","4","","stimuli/stars_4.png","210","","","","","stimuli/BF08_CC.jpg","",""
"explore-choice","123","373002","0.0-123.0","p560335","ALJ70B2J04YR7","3087LXLJ6NMH85PJ46SJUKP4Z1V0FD","39L1G8WVWSXPM2S26W0IW0E6KEP31S","emotion","mismatch","uniform","","","","","","","2818.699999988079","372754.700000003","375573.39999999106","[""stimuli/WF04_HE.jpg"",""stimuli/HF10_HO.jpg"",""stimuli/BF08_CC.jpg"",""stimuli/BM16_DO.jpg""]","stimuli/WF04_HE.jpg","stimuli/HF10_HO.jpg","stimuli/BF08_CC.jpg","stimuli/BM16_DO.jpg","pos3","stimuli/BF08_CC.jpg","CC","BF08","2","1","2","4","stimuli/stars_2.png","211","[""HE"",""HO"",""CC"",""DO""]","[""WF04"",""HF10"",""BF08"",""BM16""]","[5,10,2,2]","[6,8,4,2]","","",""
"show-reward","124","375015","0.0-124.0","p560335","ALJ70B2J04YR7","3087LXLJ6NMH85PJ46SJUKP4Z1V0FD","39L1G8WVWSXPM2S26W0IW0E6KEP31S","emotion","mismatch","uniform","","","","","","","","376076.59999999404","378086.799999997","","","","","","","","","","","","2","","stimuli/stars_2.png","211","","","","","stimuli/BF08_CC.jpg","",""
"explore-choice","125","377641","0.0-125.0","p560335","ALJ70B2J04YR7","3087LXLJ6NMH85PJ46SJUKP4Z1V0FD","39L1G8WVWSXPM2S26W0IW0E6KEP31S","emotion","mismatch","uniform","","","","","","","2121.6000000089407","378089.59999999404","380211.200000003","[""stimuli/WF04_HO.jpg"",""stimuli/HF10_DO.jpg"",""stimuli/BF08_HE.jpg"",""stimuli/BM16_CC.jpg""]","stimuli/WF04_HO.jpg","stimuli/HF10_DO.jpg","stimuli/BF08_HE.jpg","stimuli/BM16_CC.jpg","pos4","stimuli/BM16_CC.jpg","CC","BM16","3","1.5","3","2","stimuli/stars_3.png","212.5","[""HO"",""DO"",""HE"",""CC""]","[""WF04"",""HF10"",""BF08"",""BM16""]","[7,8,5,3]","[6,8,4,2]","","",""
"show-reward","126","379648","0.0-126.0","p560335","ALJ70B2J04YR7","3087LXLJ6NMH85PJ46SJUKP4Z1V0FD","39L1G8WVWSXPM2S26W0IW0E6KEP31S","emotion","mismatch","uniform","","","","","","","","380714.200000003","382720.299999997","","","","","","","","","","","","3","","stimuli/stars_3.png","212.5","","","","","stimuli/BM16_CC.jpg","",""
"explore-choice","127","382601","0.0-127.0","p560335","ALJ70B2J04YR7","3087LXLJ6NMH85PJ46SJUKP4Z1V0FD","39L1G8WVWSXPM2S26W0IW0E6KEP31S","emotion","mismatch","uniform","","","","","","","2449","382721.59999999404","385170.59999999404","[""stimuli/WF04_CC.jpg"",""stimuli/HF10_HO.jpg"",""stimuli/BM16_DO.jpg"",""stimuli/BF08_HE.jpg""]","stimuli/WF04_CC.jpg","stimuli/HF10_HO.jpg","stimuli/BM16_DO.jpg","stimuli/BF08_HE.jpg","pos2","stimuli/HF10_HO.jpg","HO","HF10","1","5","10","8","stimuli/stars_10.png","217.5","[""CC"",""HO"",""DO"",""HE""]","[""WF04"",""HF10"",""BM16"",""BF08""]","[6,10,1,3]","[6,8,2,4]","","",""
"show-reward","128","384616","0.0-128.0","p560335","ALJ70B2J04YR7","3087LXLJ6NMH85PJ46SJUKP4Z1V0FD","39L1G8WVWSXPM2S26W0IW0E6KEP31S","emotion","mismatch","uniform","","","","","","","","385676","387687.700000003","","","","","","","","","","","","10","","stimuli/stars_10.png","217.5","","","","","stimuli/HF10_HO.jpg","",""
"explore-choice","129","387415","0.0-129.0","p560335","ALJ70B2J04YR7","3087LXLJ6NMH85PJ46SJUKP4Z1V0FD","39L1G8WVWSXPM2S26W0IW0E6KEP31S","emotion","mismatch","uniform","","","","","","","2289.5","387690.09999999404","389979.59999999404","[""stimuli/BM16_CC.jpg"",""stimuli/WF04_HE.jpg"",""stimuli/BF08_DO.jpg"",""stimuli/HF10_HO.jpg""]","stimuli/BM16_CC.jpg","stimuli/WF04_HE.jpg","stimuli/BF08_DO.jpg","stimuli/HF10_HO.jpg","pos4","stimuli/HF10_HO.jpg","HO","HF10","3","3.5","7","8","stimuli/stars_7.png","221","[""CC"",""HE"",""DO"",""HO""]","[""BM16"",""WF04"",""BF08"",""HF10""]","[2,5,4,7]","[2,6,4,8]","","",""
"show-reward","130","389427","0.0-130.0","p560335","ALJ70B2J04YR7","3087LXLJ6NMH85PJ46SJUKP4Z1V0FD","39L1G8WVWSXPM2S26W0IW0E6KEP31S","emotion","mismatch","uniform","","","","","","","","390489.09999999404","392499.299999997","","","","","","","","","","","","7","","stimuli/stars_7.png","221","","","","","stimuli/HF10_HO.jpg","",""
"explore-choice","131","392540","0.0-131.0","p560335","ALJ70B2J04YR7","3087LXLJ6NMH85PJ46SJUKP4Z1V0FD","39L1G8WVWSXPM2S26W0IW0E6KEP31S","emotion","mismatch","uniform","","","","","","","2610.7000000029802","392500.59999999404","395111.299999997","[""stimuli/BM16_HO.jpg"",""stimuli/BF08_HE.jpg"",""stimuli/HF10_DO.jpg"",""stimuli/WF04_CC.jpg""]","stimuli/BM16_HO.jpg","stimuli/BF08_HE.jpg","stimuli/HF10_DO.jpg","stimuli/WF04_CC.jpg","pos1","stimuli/BM16_HO.jpg","HO","BM16","0","1.5","3","2","stimuli/stars_3.png","222.5","[""HO"",""HE"",""DO"",""CC""]","[""BM16"",""BF08"",""HF10"",""WF04""]","[3,3,7,4]","[2,4,8,6]","","",""
"show-reward","132","394551","0.0-132.0","p560335","ALJ70B2J04YR7","3087LXLJ6NMH85PJ46SJUKP4Z1V0FD","39L1G8WVWSXPM2S26W0IW0E6KEP31S","emotion","mismatch","uniform","","","","","","","","395614.799999997","397622.299999997","","","","","","","","","","","","3","","stimuli/stars_3.png","222.5","","","","","stimuli/BM16_HO.jpg","",""
"explore-choice","133","397224","0.0-133.0","p560335","ALJ70B2J04YR7","3087LXLJ6NMH85PJ46SJUKP4Z1V0FD","39L1G8WVWSXPM2S26W0IW0E6KEP31S","emotion","mismatch","uniform","","","","","","","2169.5999999940395","397625.799999997","399795.39999999106","[""stimuli/BF08_CC.jpg"",""stimuli/BM16_HE.jpg"",""stimuli/WF04_HO.jpg"",""stimuli/HF10_DO.jpg""]","stimuli/BF08_CC.jpg","stimuli/BM16_HE.jpg","stimuli/WF04_HO.jpg","stimuli/HF10_DO.jpg","pos3","stimuli/WF04_HO.jpg","HO","WF04","2","2.5","5","6","stimuli/stars_5.png","225","[""CC"",""HE"",""HO"",""DO""]","[""BF08"",""BM16"",""WF04"",""HF10""]","[6,3,5,10]","[4,2,6,8]","","",""
"show-reward","134","399237","0.0-134.0","p560335","ALJ70B2J04YR7","3087LXLJ6NMH85PJ46SJUKP4Z1V0FD","39L1G8WVWSXPM2S26W0IW0E6KEP31S","emotion","mismatch","uniform","","","","","","","","400299.39999999106","402309.09999999404","","","","","","","","","","","","5","","stimuli/stars_5.png","225","","","","","stimuli/WF04_HO.jpg","",""
"explore-choice","135","401986","0.0-135.0","p560335","ALJ70B2J04YR7","3087LXLJ6NMH85PJ46SJUKP4Z1V0FD","39L1G8WVWSXPM2S26W0IW0E6KEP31S","emotion","mismatch","uniform","","","","","","","2245.7999999970198","402311.700000003","404557.5","[""stimuli/BF08_DO.jpg"",""stimuli/HF10_CC.jpg"",""stimuli/WF04_HE.jpg"",""stimuli/BM16_HO.jpg""]","stimuli/BF08_DO.jpg","stimuli/HF10_CC.jpg","stimuli/WF04_HE.jpg","stimuli/BM16_HO.jpg","pos4","stimuli/BM16_HO.jpg","HO","BM16","3","1","2","2","stimuli/stars_2.png","226","[""DO"",""CC"",""HE"",""HO""]","[""BF08"",""HF10"",""WF04"",""BM16""]","[4,8,6,2]","[4,8,6,2]","","",""
"show-reward","136","403999","0.0-136.0","p560335","ALJ70B2J04YR7","3087LXLJ6NMH85PJ46SJUKP4Z1V0FD","39L1G8WVWSXPM2S26W0IW0E6KEP31S","emotion","mismatch","uniform","","","","","","","","405060.89999999106","407070.700000003","","","","","","","","","","","","2","","stimuli/stars_2.png","226","","","","","stimuli/BM16_HO.jpg","",""
"explore-choice","137","407344","0.0-137.0","p560335","ALJ70B2J04YR7","3087LXLJ6NMH85PJ46SJUKP4Z1V0FD","39L1G8WVWSXPM2S26W0IW0E6KEP31S","emotion","mismatch","uniform","","","","","","","2842.5999999940395","407072.799999997","409915.39999999106","[""stimuli/BM16_DO.jpg"",""stimuli/WF04_HO.jpg"",""stimuli/HF10_CC.jpg"",""stimuli/BF08_HE.jpg""]","stimuli/BM16_DO.jpg","stimuli/WF04_HO.jpg","stimuli/HF10_CC.jpg","stimuli/BF08_HE.jpg","pos3","stimuli/HF10_CC.jpg","CC","HF10","2","3.5","7","8","stimuli/stars_7.png","229.5","[""DO"",""HO"",""CC"",""HE""]","[""BM16"",""WF04"",""HF10"",""BF08""]","[1,6,7,4]","[2,6,8,4]","","",""
"show-reward","138","409355","0.0-138.0","p560335","ALJ70B2J04YR7","3087LXLJ6NMH85PJ46SJUKP4Z1V0FD","39L1G8WVWSXPM2S26W0IW0E6KEP31S","emotion","mismatch","uniform","","","","","","","","410418.59999999404","412427.39999999106","","","","","","","","","","","","7","","stimuli/stars_7.png","229.5","","","","","stimuli/HF10_CC.jpg","",""
"explore-choice","139","411465","0.0-139.0","p560335","ALJ70B2J04YR7","3087LXLJ6NMH85PJ46SJUKP4Z1V0FD","39L1G8WVWSXPM2S26W0IW0E6KEP31S","emotion","mismatch","uniform","","","","","","","1605.9000000059605","412429.799999997","414035.700000003","[""stimuli/BF08_HO.jpg"",""stimuli/WF04_CC.jpg"",""stimuli/BM16_DO.jpg"",""stimuli/HF10_HE.jpg""]","stimuli/BF08_HO.jpg","stimuli/WF04_CC.jpg","stimuli/BM16_DO.jpg","stimuli/HF10_HE.jpg","pos2","stimuli/WF04_CC.jpg","CC","WF04","1","2","4","6","stimuli/stars_4.png","231.5","[""HO"",""CC"",""DO"",""HE""]","[""BF08"",""WF04"",""BM16"",""HF10""]","[4,4,3,10]","[4,6,2,8]","","",""
"show-reward","140","413470","0.0-140.0","p560335","ALJ70B2J04YR7","3087LXLJ6NMH85PJ46SJUKP4Z1V0FD","39L1G8WVWSXPM2S26W0IW0E6KEP31S","emotion","mismatch","uniform","","","","","","","","414538.200000003","416542.59999999404","","","","","","","","","","","","4","","stimuli/stars_4.png","231.5","","","","","stimuli/WF04_CC.jpg","",""
"explore-choice","141","418350","0.0-141.0","p560335","ALJ70B2J04YR7","3087LXLJ6NMH85PJ46SJUKP4Z1V0FD","39L1G8WVWSXPM2S26W0IW0E6KEP31S","emotion","mismatch","uniform","","","","","","","4377.5","416543.799999997","420921.299999997","[""stimuli/WF04_CC.jpg"",""stimuli/BM16_HE.jpg"",""stimuli/HF10_HO.jpg"",""stimuli/BF08_DO.jpg""]","stimuli/WF04_CC.jpg","stimuli/BM16_HE.jpg","stimuli/HF10_HO.jpg","stimuli/BF08_DO.jpg","pos3","stimuli/HF10_HO.jpg","HO","HF10","2","3.5","7","8","stimuli/stars_7.png","235","[""CC"",""HE"",""HO"",""DO""]","[""WF04"",""BM16"",""HF10"",""BF08""]","[4,1,7,6]","[6,2,8,4]","","",""
"show-reward","142","420363","0.0-142.0","p560335","ALJ70B2J04YR7","3087LXLJ6NMH85PJ46SJUKP4Z1V0FD","39L1G8WVWSXPM2S26W0IW0E6KEP31S","emotion","mismatch","uniform","","","","","","","","421424.700000003","423435.09999999404","","","","","","","","","","","","7","","stimuli/stars_7.png","235","","","","","stimuli/HF10_HO.jpg","",""
"explore-choice","143","423381","0.0-143.0","p560335","ALJ70B2J04YR7","3087LXLJ6NMH85PJ46SJUKP4Z1V0FD","39L1G8WVWSXPM2S26W0IW0E6KEP31S","emotion","mismatch","uniform","","","","","","","2513","423438.39999999106","425951.39999999106","[""stimuli/HF10_HO.jpg"",""stimuli/BM16_HE.jpg"",""stimuli/WF04_DO.jpg"",""stimuli/BF08_CC.jpg""]","stimuli/HF10_HO.jpg","stimuli/BM16_HE.jpg","stimuli/WF04_DO.jpg","stimuli/BF08_CC.jpg","pos1","stimuli/HF10_HO.jpg","HO","HF10","0","3.5","7","8","stimuli/stars_7.png","238.5","[""HO"",""HE"",""DO"",""CC""]","[""HF10"",""BM16"",""WF04"",""BF08""]","[7,3,7,4]","[8,2,6,4]","","",""
"show-reward","144","425391","0.0-144.0","p560335","ALJ70B2J04YR7","3087LXLJ6NMH85PJ46SJUKP4Z1V0FD","39L1G8WVWSXPM2S26W0IW0E6KEP31S","emotion","mismatch","uniform","","","","","","","","426454.700000003","428463.09999999404","","","","","","","","","","","","7","","stimuli/stars_7.png","238.5","","","","","stimuli/HF10_HO.jpg","",""
"explore-choice","145","430438","0.0-145.0","p560335","ALJ70B2J04YR7","3087LXLJ6NMH85PJ46SJUKP4Z1V0FD","39L1G8WVWSXPM2S26W0IW0E6KEP31S","emotion","mismatch","uniform","","","","","","","4544","428465.200000003","433009.200000003","[""stimuli/BF08_DO.jpg"",""stimuli/WF04_HO.jpg"",""stimuli/BM16_CC.jpg"",""stimuli/HF10_HE.jpg""]","stimuli/BF08_DO.jpg","stimuli/WF04_HO.jpg","stimuli/BM16_CC.jpg","stimuli/HF10_HE.jpg","pos3","stimuli/BM16_CC.jpg","CC","BM16","2","2","4","2","stimuli/stars_4.png","240.5","[""DO"",""HO"",""CC"",""HE""]","[""BF08"",""WF04"",""BM16"",""HF10""]","[2,5,4,6]","[4,6,2,8]","","",""
"show-reward","146","432465","0.0-146.0","p560335","ALJ70B2J04YR7","3087LXLJ6NMH85PJ46SJUKP4Z1V0FD","39L1G8WVWSXPM2S26W0IW0E6KEP31S","emotion","mismatch","uniform","","","","","","","","433513.700000003","435536.5","","","","","","","","","","","","4","","stimuli/stars_4.png","240.5","","","","","stimuli/BM16_CC.jpg","",""
"explore-choice","147","442785","0.0-147.0","p560335","ALJ70B2J04YR7","3087LXLJ6NMH85PJ46SJUKP4Z1V0FD","39L1G8WVWSXPM2S26W0IW0E6KEP31S","emotion","mismatch","uniform","","","","","","","9817.40000000596","435537.799999997","445355.200000003","[""stimuli/BM16_DO.jpg"",""stimuli/HF10_HE.jpg"",""stimuli/BF08_CC.jpg"",""stimuli/WF04_HO.jpg""]","stimuli/BM16_DO.jpg","stimuli/HF10_HE.jpg","stimuli/BF08_CC.jpg","stimuli/WF04_HO.jpg","pos4","stimuli/WF04_HO.jpg","HO","WF04","3","3","6","6","stimuli/stars_6.png","243.5","[""DO"",""HE"",""CC"",""HO""]","[""BM16"",""HF10"",""BF08"",""WF04""]","[2,7,6,6]","[2,8,4,6]","","",""
"show-reward","148","444796","0.0-148.0","p560335","ALJ70B2J04YR7","3087LXLJ6NMH85PJ46SJUKP4Z1V0FD","39L1G8WVWSXPM2S26W0IW0E6KEP31S","emotion","mismatch","uniform","","","","","","","","445859.09999999404","447868.200000003","","","","","","","","","","","","6","","stimuli/stars_6.png","243.5","","","","","stimuli/WF04_HO.jpg","",""
"explore-choice","149","463011","0.0-149.0","p560335","ALJ70B2J04YR7","3087LXLJ6NMH85PJ46SJUKP4Z1V0FD","39L1G8WVWSXPM2S26W0IW0E6KEP31S","emotion","mismatch","uniform","","","","","","","17710.70000000298","447870.59999999404","465581.299999997","[""stimuli/HF10_DO.jpg"",""stimuli/WF04_HE.jpg"",""stimuli/BM16_HO.jpg"",""stimuli/BF08_CC.jpg""]","stimuli/HF10_DO.jpg","stimuli/WF04_HE.jpg","stimuli/BM16_HO.jpg","stimuli/BF08_CC.jpg","pos4","stimuli/BF08_CC.jpg","CC","BF08","3","2","4","4","stimuli/stars_4.png","245.5","[""DO"",""HE"",""HO"",""CC""]","[""HF10"",""WF04"",""BM16"",""BF08""]","[7,7,0,4]","[8,6,2,4]","","",""
"show-reward","150","465019","0.0-150.0","p560335","ALJ70B2J04YR7","3087LXLJ6NMH85PJ46SJUKP4Z1V0FD","39L1G8WVWSXPM2S26W0IW0E6KEP31S","emotion","mismatch","uniform","","","","","","","","466084.700000003","468091.299999997","","","","","","","","","","","","4","","stimuli/stars_4.png","245.5","","","","","stimuli/BF08_CC.jpg","",""
"explore-choice","151","469593","0.0-151.0","p560335","ALJ70B2J04YR7","3087LXLJ6NMH85PJ46SJUKP4Z1V0FD","39L1G8WVWSXPM2S26W0IW0E6KEP31S","emotion","mismatch","uniform","","","","","","","4071","468092.5","472163.5","[""stimuli/HF10_HO.jpg"",""stimuli/BM16_DO.jpg"",""stimuli/WF04_HE.jpg"",""stimuli/BF08_CC.jpg""]","stimuli/HF10_HO.jpg","stimuli/BM16_DO.jpg","stimuli/WF04_HE.jpg","stimuli/BF08_CC.jpg","pos4","stimuli/BF08_CC.jpg","CC","BF08","3","1","2","4","stimuli/stars_2.png","246.5","[""HO"",""DO"",""HE"",""CC""]","[""HF10"",""BM16"",""WF04"",""BF08""]","[10,2,5,2]","[8,2,6,4]","","",""
"show-reward","152","471600","0.0-152.0","p560335","ALJ70B2J04YR7","3087LXLJ6NMH85PJ46SJUKP4Z1V0FD","39L1G8WVWSXPM2S26W0IW0E6KEP31S","emotion","mismatch","uniform","","","","","","","","472666.200000003","474671.39999999106","","","","","","","","","","","","2","","stimuli/stars_2.png","246.5","","","","","stimuli/BF08_CC.jpg","",""
"explore-choice","153","474496","0.0-153.0","p560335","ALJ70B2J04YR7","3087LXLJ6NMH85PJ46SJUKP4Z1V0FD","39L1G8WVWSXPM2S26W0IW0E6KEP31S","emotion","mismatch","uniform","","","","","","","2394.7999999970198","474672.59999999404","477067.39999999106","[""stimuli/BF08_DO.jpg"",""stimuli/BM16_HO.jpg"",""stimuli/HF10_CC.jpg"",""stimuli/WF04_HE.jpg""]","stimuli/BF08_DO.jpg","stimuli/BM16_HO.jpg","stimuli/HF10_CC.jpg","stimuli/WF04_HE.jpg","pos3","stimuli/HF10_CC.jpg","CC","HF10","2","4","8","8","stimuli/stars_8.png","250.5","[""DO"",""HO"",""CC"",""HE""]","[""BF08"",""BM16"",""HF10"",""WF04""]","[4,2,8,6]","[4,2,8,6]","","",""
"show-reward","154","476504","0.0-154.0","p560335","ALJ70B2J04YR7","3087LXLJ6NMH85PJ46SJUKP4Z1V0FD","39L1G8WVWSXPM2S26W0IW0E6KEP31S","emotion","mismatch","uniform","","","","","","","","477569.09999999404","479574.799999997","","","","","","","","","","","","8","","stimuli/stars_8.png","250.5","","","","","stimuli/HF10_CC.jpg","",""
"explore-choice","155","493103","0.0-155.0","p560335","ALJ70B2J04YR7","3087LXLJ6NMH85PJ46SJUKP4Z1V0FD","39L1G8WVWSXPM2S26W0IW0E6KEP31S","emotion","mismatch","uniform","","","","","","","16095.70000000298","479577.89999999106","495673.59999999404","[""stimuli/WF04_DO.jpg"",""stimuli/BM16_HE.jpg"",""stimuli/HF10_CC.jpg"",""stimuli/BF08_HO.jpg""]","stimuli/WF04_DO.jpg","stimuli/BM16_HE.jpg","stimuli/HF10_CC.jpg","stimuli/BF08_HO.jpg","pos3","stimuli/HF10_CC.jpg","CC","HF10","2","4.5","9","8","stimuli/stars_9.png","255","[""DO"",""HE"",""CC"",""HO""]","[""WF04"",""BM16"",""HF10"",""BF08""]","[4,1,9,4]","[6,2,8,4]","","",""
"show-reward","156","495115","0.0-156.0","p560335","ALJ70B2J04YR7","3087LXLJ6NMH85PJ46SJUKP4Z1V0FD","39L1G8WVWSXPM2S26W0IW0E6KEP31S","emotion","mismatch","uniform","","","","","","","","496177.89999999106","498186.799999997","","","","","","","","","","","","9","","stimuli/stars_9.png","255","","","","","stimuli/HF10_CC.jpg","",""
"explore-choice","157","498953","0.0-157.0","p560335","ALJ70B2J04YR7","3087LXLJ6NMH85PJ46SJUKP4Z1V0FD","39L1G8WVWSXPM2S26W0IW0E6KEP31S","emotion","mismatch","uniform","","","","","","","3335.2000000029802","498188.39999999106","501523.59999999404","[""stimuli/WF04_HO.jpg"",""stimuli/BF08_DO.jpg"",""stimuli/BM16_CC.jpg"",""stimuli/HF10_HE.jpg""]","stimuli/WF04_HO.jpg","stimuli/BF08_DO.jpg","stimuli/BM16_CC.jpg","stimuli/HF10_HE.jpg","pos3","stimuli/BM16_CC.jpg","CC","BM16","2","2","4","2","stimuli/stars_4.png","257","[""HO"",""DO"",""CC"",""HE""]","[""WF04"",""BF08"",""BM16"",""HF10""]","[5,2,4,6]","[6,4,2,8]","","",""
"show-reward","158","500966","0.0-158.0","p560335","ALJ70B2J04YR7","3087LXLJ6NMH85PJ46SJUKP4Z1V0FD","39L1G8WVWSXPM2S26W0IW0E6KEP31S","emotion","mismatch","uniform","","","","","","","","502027","504037.5","","","","","","","","","","","","4","","stimuli/stars_4.png","257","","","","","stimuli/BM16_CC.jpg","",""
"explore-choice","159","503481","0.0-159.0","p560335","ALJ70B2J04YR7","3087LXLJ6NMH85PJ46SJUKP4Z1V0FD","39L1G8WVWSXPM2S26W0IW0E6KEP31S","emotion","mismatch","uniform","","","","","","","2011.2999999970198","504040.200000003","506051.5","[""stimuli/BM16_HO.jpg"",""stimuli/BF08_HE.jpg"",""stimuli/HF10_DO.jpg"",""stimuli/WF04_CC.jpg""]","stimuli/BM16_HO.jpg","stimuli/BF08_HE.jpg","stimuli/HF10_DO.jpg","stimuli/WF04_CC.jpg","pos4","stimuli/WF04_CC.jpg","CC","WF04","3","2","4","6","stimuli/stars_4.png","259","[""HO"",""HE"",""DO"",""CC""]","[""BM16"",""BF08"",""HF10"",""WF04""]","[3,3,7,4]","[2,4,8,6]","","",""
"show-reward","160","505496","0.0-160.0","p560335","ALJ70B2J04YR7","3087LXLJ6NMH85PJ46SJUKP4Z1V0FD","39L1G8WVWSXPM2S26W0IW0E6KEP31S","emotion","mismatch","uniform","","","","","","","","506555","508567.799999997","","","","","","","","","","","","4","","stimuli/stars_4.png","259","","","","","stimuli/WF04_CC.jpg","",""
"explore-choice","161","509575","0.0-161.0","p560335","ALJ70B2J04YR7","3087LXLJ6NMH85PJ46SJUKP4Z1V0FD","39L1G8WVWSXPM2S26W0IW0E6KEP31S","emotion","mismatch","uniform","","","","","","","3575.5999999940395","508570","512145.59999999404","[""stimuli/WF04_HO.jpg"",""stimuli/BF08_HE.jpg"",""stimuli/BM16_CC.jpg"",""stimuli/HF10_DO.jpg""]","stimuli/WF04_HO.jpg","stimuli/BF08_HE.jpg","stimuli/BM16_CC.jpg","stimuli/HF10_DO.jpg","pos2","stimuli/BF08_HE.jpg","HE","BF08","1","2.5","5","4","stimuli/stars_5.png","261.5","[""HO"",""HE"",""CC"",""DO""]","[""WF04"",""BF08"",""BM16"",""HF10""]","[7,5,3,8]","[6,4,2,8]","","",""
"show-reward","162","511586","0.0-162.0","p560335","ALJ70B2J04YR7","3087LXLJ6NMH85PJ46SJUKP4Z1V0FD","39L1G8WVWSXPM2S26W0IW0E6KEP31S","emotion","mismatch","uniform","","","","","","","","512648.89999999106","514657.5","","","","","","","","","","","","5","","stimuli/stars_5.png","261.5","","","","","stimuli/BF08_HE.jpg","",""
"explore-choice","163","515921","0.0-163.0","p560335","ALJ70B2J04YR7","3087LXLJ6NMH85PJ46SJUKP4Z1V0FD","39L1G8WVWSXPM2S26W0IW0E6KEP31S","emotion","mismatch","uniform","","","","","","","3831.5","514659.799999997","518491.299999997","[""stimuli/BM16_HO.jpg"",""stimuli/BF08_CC.jpg"",""stimuli/WF04_HE.jpg"",""stimuli/HF10_DO.jpg""]","stimuli/BM16_HO.jpg","stimuli/BF08_CC.jpg","stimuli/WF04_HE.jpg","stimuli/HF10_DO.jpg","pos3","stimuli/WF04_HE.jpg","HE","WF04","2","3.5","7","6","stimuli/stars_7.png","265","[""HO"",""CC"",""HE"",""DO""]","[""BM16"",""BF08"",""WF04"",""HF10""]","[0,4,7,7]","[2,4,6,8]","","",""
"show-reward","164","517932","0.0-164.0","p560335","ALJ70B2J04YR7","3087LXLJ6NMH85PJ46SJUKP4Z1V0FD","39L1G8WVWSXPM2S26W0IW0E6KEP31S","emotion","mismatch","uniform","","","","","","","","518995.700000003","521004","","","","","","","","","","","","7","","stimuli/stars_7.png","265","","","","","stimuli/WF04_HE.jpg","",""
"explore-choice","165","521466","0.0-165.0","p560335","ALJ70B2J04YR7","3087LXLJ6NMH85PJ46SJUKP4Z1V0FD","39L1G8WVWSXPM2S26W0IW0E6KEP31S","emotion","mismatch","uniform","","","","","","","3031","521006.59999999404","524037.59999999404","[""stimuli/WF04_DO.jpg"",""stimuli/HF10_CC.jpg"",""stimuli/BM16_HO.jpg"",""stimuli/BF08_HE.jpg""]","stimuli/WF04_DO.jpg","stimuli/HF10_CC.jpg","stimuli/BM16_HO.jpg","stimuli/BF08_HE.jpg","pos2","stimuli/HF10_CC.jpg","CC","HF10","1","4.5","9","8","stimuli/stars_9.png","269.5","[""DO"",""CC"",""HO"",""HE""]","[""WF04"",""HF10"",""BM16"",""BF08""]","[6,9,3,4]","[6,8,2,4]","","",""
"show-reward","166","523473","0.0-166.0","p560335","ALJ70B2J04YR7","3087LXLJ6NMH85PJ46SJUKP4Z1V0FD","39L1G8WVWSXPM2S26W0IW0E6KEP31S","emotion","mismatch","uniform","","","","","","","","524539.799999997","526545","","","","","","","","","","","","9","","stimuli/stars_9.png","269.5","","","","","stimuli/HF10_CC.jpg","",""
"explore-choice","167","528564","0.0-167.0","p560335","ALJ70B2J04YR7","3087LXLJ6NMH85PJ46SJUKP4Z1V0FD","39L1G8WVWSXPM2S26W0IW0E6KEP31S","emotion","mismatch","uniform","","","","","","","4589.29999999702","526546.200000003","531135.5","[""stimuli/BF08_DO.jpg"",""stimuli/BM16_HE.jpg"",""stimuli/HF10_HO.jpg"",""stimuli/WF04_CC.jpg""]","stimuli/BF08_DO.jpg","stimuli/BM16_HE.jpg","stimuli/HF10_HO.jpg","stimuli/WF04_CC.jpg","pos1","stimuli/BF08_DO.jpg","DO","BF08","0","3","6","4","stimuli/stars_6.png","272.5","[""DO"",""HE"",""HO"",""CC""]","[""BF08"",""BM16"",""HF10"",""WF04""]","[6,1,7,4]","[4,2,8,6]","","",""
"show-reward","168","530572","0.0-168.0","p560335","ALJ70B2J04YR7","3087LXLJ6NMH85PJ46SJUKP4Z1V0FD","39L1G8WVWSXPM2S26W0IW0E6KEP31S","emotion","mismatch","uniform","","","","","","","","531637.799999997","533644","","","","","","","","","","","","6","","stimuli/stars_6.png","272.5","","","","","stimuli/BF08_DO.jpg","",""
"explore-choice","169","534041","0.0-169.0","p560335","ALJ70B2J04YR7","3087LXLJ6NMH85PJ46SJUKP4Z1V0FD","39L1G8WVWSXPM2S26W0IW0E6KEP31S","emotion","mismatch","uniform","","","","","","","2964.8999999910593","533646.5","536611.3999999911","[""stimuli/BM16_HE.jpg"",""stimuli/HF10_HO.jpg"",""stimuli/WF04_DO.jpg"",""stimuli/BF08_CC.jpg""]","stimuli/BM16_HE.jpg","stimuli/HF10_HO.jpg","stimuli/WF04_DO.jpg","stimuli/BF08_CC.jpg","pos4","stimuli/BF08_CC.jpg","CC","BF08","3","2","4","4","stimuli/stars_4.png","274.5","[""HE"",""HO"",""DO"",""CC""]","[""BM16"",""HF10"",""WF04"",""BF08""]","[3,7,7,4]","[2,8,6,4]","","",""
"show-reward","170","536053","0.0-170.0","p560335","ALJ70B2J04YR7","3087LXLJ6NMH85PJ46SJUKP4Z1V0FD","39L1G8WVWSXPM2S26W0IW0E6KEP31S","emotion","mismatch","uniform","","","","","","","","537114.8999999911","539124.599999994","","","","","","","","","","","","4","","stimuli/stars_4.png","274.5","","","","","stimuli/BF08_CC.jpg","",""
"explore-choice","171","540738","0.0-171.0","p560335","ALJ70B2J04YR7","3087LXLJ6NMH85PJ46SJUKP4Z1V0FD","39L1G8WVWSXPM2S26W0IW0E6KEP31S","emotion","mismatch","uniform","","","","","","","4182.600000008941","539126.8999999911","543309.5","[""stimuli/BM16_HE.jpg"",""stimuli/WF04_CC.jpg"",""stimuli/BF08_HO.jpg"",""stimuli/HF10_DO.jpg""]","stimuli/BM16_HE.jpg","stimuli/WF04_CC.jpg","stimuli/BF08_HO.jpg","stimuli/HF10_DO.jpg","pos2","stimuli/WF04_CC.jpg","CC","WF04","1","4","8","6","stimuli/stars_8.png","278.5","[""HE"",""CC"",""HO"",""DO""]","[""BM16"",""WF04"",""BF08"",""HF10""]","[2,8,5,7]","[2,6,4,8]","","",""
"show-reward","172","542746","0.0-172.0","p560335","ALJ70B2J04YR7","3087LXLJ6NMH85PJ46SJUKP4Z1V0FD","39L1G8WVWSXPM2S26W0IW0E6KEP31S","emotion","mismatch","uniform","","","","","","","","543812","545817.700000003","","","","","","","","","","","","8","","stimuli/stars_8.png","278.5","","","","","stimuli/WF04_CC.jpg","",""
"explore-choice","173","546952","0.0-173.0","p560335","ALJ70B2J04YR7","3087LXLJ6NMH85PJ46SJUKP4Z1V0FD","39L1G8WVWSXPM2S26W0IW0E6KEP31S","emotion","mismatch","uniform","","","","","","","3701","545820.5","549521.5","[""stimuli/HF10_CC.jpg"",""stimuli/BM16_HE.jpg"",""stimuli/BF08_DO.jpg"",""stimuli/WF04_HO.jpg""]","stimuli/HF10_CC.jpg","stimuli/BM16_HE.jpg","stimuli/BF08_DO.jpg","stimuli/WF04_HO.jpg","pos3","stimuli/BF08_DO.jpg","DO","BF08","2","1.5","3","4","stimuli/stars_3.png","280","[""CC"",""HE"",""DO"",""HO""]","[""HF10"",""BM16"",""BF08"",""WF04""]","[10,2,3,5]","[8,2,4,6]","","",""
"show-reward","174","548964","0.0-174.0","p560335","ALJ70B2J04YR7","3087LXLJ6NMH85PJ46SJUKP4Z1V0FD","39L1G8WVWSXPM2S26W0IW0E6KEP31S","emotion","mismatch","uniform","","","","","","","","550026.700000003","552035.799999997","","","","","","","","","","","","3","","stimuli/stars_3.png","280","","","","","stimuli/BF08_DO.jpg","",""
"explore-choice","175","809523","0.0-175.0","p560335","ALJ70B2J04YR7","3087LXLJ6NMH85PJ46SJUKP4Z1V0FD","39L1G8WVWSXPM2S26W0IW0E6KEP31S","emotion","mismatch","uniform","","","","","","","260056.90000000596","552037.099999994","812094","[""stimuli/BM16_CC.jpg"",""stimuli/HF10_HE.jpg"",""stimuli/WF04_DO.jpg"",""stimuli/BF08_HO.jpg""]","stimuli/BM16_CC.jpg","stimuli/HF10_HE.jpg","stimuli/WF04_DO.jpg","stimuli/BF08_HO.jpg","pos1","stimuli/BM16_CC.jpg","CC","BM16","0","1","2","2","stimuli/stars_2.png","281","[""CC"",""HE"",""DO"",""HO""]","[""BM16"",""HF10"",""WF04"",""BF08""]","[2,9,4,3]","[2,8,6,4]","","",""
"show-reward","176","811537","0.0-176.0","p560335","ALJ70B2J04YR7","3087LXLJ6NMH85PJ46SJUKP4Z1V0FD","39L1G8WVWSXPM2S26W0IW0E6KEP31S","emotion","mismatch","uniform","","","","","","","","812597.599999994","814608.700000003","","","","","","","","","","","","2","","stimuli/stars_2.png","281","","","","","stimuli/BM16_CC.jpg","",""
"explore-choice","177","823317","0.0-177.0","p560335","ALJ70B2J04YR7","3087LXLJ6NMH85PJ46SJUKP4Z1V0FD","39L1G8WVWSXPM2S26W0IW0E6KEP31S","emotion","mismatch","uniform","","","","","","","11276.40000000596","814611.599999994","825888","[""stimuli/BM16_HO.jpg"",""stimuli/WF04_DO.jpg"",""stimuli/BF08_CC.jpg"",""stimuli/HF10_HE.jpg""]","stimuli/BM16_HO.jpg","stimuli/WF04_DO.jpg","stimuli/BF08_CC.jpg","stimuli/HF10_HE.jpg","pos4","stimuli/HF10_HE.jpg","HE","HF10","3","4.5","9","8","stimuli/stars_9.png","285.5","[""HO"",""DO"",""CC"",""HE""]","[""BM16"",""WF04"",""BF08"",""HF10""]","[1,7,4,9]","[2,6,4,8]","","",""
"show-reward","178","825332","0.0-178.0","p560335","ALJ70B2J04YR7","3087LXLJ6NMH85PJ46SJUKP4Z1V0FD","39L1G8WVWSXPM2S26W0IW0E6KEP31S","emotion","mismatch","uniform","","","","","","","","826392","828403.3999999911","","","","","","","","","","","","9","","stimuli/stars_9.png","285.5","","","","","stimuli/HF10_HE.jpg","",""
"explore-choice","179","828059","0.0-179.0","p560335","ALJ70B2J04YR7","3087LXLJ6NMH85PJ46SJUKP4Z1V0FD","39L1G8WVWSXPM2S26W0IW0E6KEP31S","emotion","mismatch","uniform","","","","","","","2221.3999999910593","828406.5","830627.8999999911","[""stimuli/WF04_HE.jpg"",""stimuli/BF08_HO.jpg"",""stimuli/HF10_DO.jpg"",""stimuli/BM16_CC.jpg""]","stimuli/WF04_HE.jpg","stimuli/BF08_HO.jpg","stimuli/HF10_DO.jpg","stimuli/BM16_CC.jpg","pos3","stimuli/HF10_DO.jpg","DO","HF10","2","4","8","8","stimuli/stars_8.png","289.5","[""HE"",""HO"",""DO"",""CC""]","[""WF04"",""BF08"",""HF10"",""BM16""]","[7,6,8,4]","[6,4,8,2]","","",""
"show-reward","180","830071","0.0-180.0","p560335","ALJ70B2J04YR7","3087LXLJ6NMH85PJ46SJUKP4Z1V0FD","39L1G8WVWSXPM2S26W0IW0E6KEP31S","emotion","mismatch","uniform","","","","","","","","831133.200000003","833143.200000003","","","","","","","","","","","","8","","stimuli/stars_8.png","289.5","","","","","stimuli/HF10_DO.jpg","",""
"explore-choice","181","833509","0.0-181.0","p560335","ALJ70B2J04YR7","3087LXLJ6NMH85PJ46SJUKP4Z1V0FD","39L1G8WVWSXPM2S26W0IW0E6KEP31S","emotion","mismatch","uniform","","","","","","","2934.5999999940395","833145.700000003","836080.299999997","[""stimuli/BF08_HO.jpg"",""stimuli/BM16_DO.jpg"",""stimuli/WF04_CC.jpg"",""stimuli/HF10_HE.jpg""]","stimuli/BF08_HO.jpg","stimuli/BM16_DO.jpg","stimuli/WF04_CC.jpg","stimuli/HF10_HE.jpg","pos4","stimuli/HF10_HE.jpg","HE","HF10","3","5","10","8","stimuli/stars_10.png","294.5","[""HO"",""DO"",""CC"",""HE""]","[""BF08"",""BM16"",""WF04"",""HF10""]","[4,3,4,10]","[4,2,6,8]","","",""
"show-reward","182","835518","0.0-182.0","p560335","ALJ70B2J04YR7","3087LXLJ6NMH85PJ46SJUKP4Z1V0FD","39L1G8WVWSXPM2S26W0IW0E6KEP31S","emotion","mismatch","uniform","","","","","","","","836582.700000003","838589.599999994","","","","","","","","","","","","10","","stimuli/stars_10.png","294.5","","","","","stimuli/HF10_HE.jpg","",""
"explore-choice","183","837355","0.0-183.0","p560335","ALJ70B2J04YR7","3087LXLJ6NMH85PJ46SJUKP4Z1V0FD","39L1G8WVWSXPM2S26W0IW0E6KEP31S","emotion","mismatch","uniform","","","","","","","1333","838592.8999999911","839925.8999999911","[""stimuli/WF04_HO.jpg"",""stimuli/HF10_CC.jpg"",""stimuli/BM16_DO.jpg"",""stimuli/BF08_HE.jpg""]","stimuli/WF04_HO.jpg","stimuli/HF10_CC.jpg","stimuli/BM16_DO.jpg","stimuli/BF08_HE.jpg","pos2","stimuli/HF10_CC.jpg","CC","HF10","1","3.5","7","8","stimuli/stars_7.png","298","[""HO"",""CC"",""DO"",""HE""]","[""WF04"",""HF10"",""BM16"",""BF08""]","[6,7,1,4]","[6,8,2,4]","","",""
"show-reward","184","839366","0.0-184.0","p560335","ALJ70B2J04YR7","3087LXLJ6NMH85PJ46SJUKP4Z1V0FD","39L1G8WVWSXPM2S26W0IW0E6KEP31S","emotion","mismatch","uniform","","","","","","","","840428.700000003","842438.5","","","","","","","","","","","","7","","stimuli/stars_7.png","298","","","","","stimuli/HF10_CC.jpg","",""
"explore-choice","185","840882","0.0-185.0","p560335","ALJ70B2J04YR7","3087LXLJ6NMH85PJ46SJUKP4Z1V0FD","39L1G8WVWSXPM2S26W0IW0E6KEP31S","emotion","mismatch","uniform","","","","","","","1012.1000000089407","842439.599999994","843451.700000003","[""stimuli/HF10_HO.jpg"",""stimuli/BM16_CC.jpg"",""stimuli/BF08_DO.jpg"",""stimuli/WF04_HE.jpg""]","stimuli/HF10_HO.jpg","stimuli/BM16_CC.jpg","stimuli/BF08_DO.jpg","stimuli/WF04_HE.jpg","pos1","stimuli/HF10_HO.jpg","HO","HF10","0","3.5","7","8","stimuli/stars_7.png","301.5","[""HO"",""CC"",""DO"",""HE""]","[""HF10"",""BM16"",""BF08"",""WF04""]","[7,2,4,5]","[8,2,4,6]","","",""
"show-reward","186","842895","0.0-186.0","p560335","ALJ70B2J04YR7","3087LXLJ6NMH85PJ46SJUKP4Z1V0FD","39L1G8WVWSXPM2S26W0IW0E6KEP31S","emotion","mismatch","uniform","","","","","","","","843956.599999994","845967.299999997","","","","","","","","","","","","7","","stimuli/stars_7.png","301.5","","","","","stimuli/HF10_HO.jpg","",""
"explore-choice","187","844439","0.0-187.0","p560335","ALJ70B2J04YR7","3087LXLJ6NMH85PJ46SJUKP4Z1V0FD","39L1G8WVWSXPM2S26W0IW0E6KEP31S","emotion","mismatch","uniform","","","","","","","1039.2999999970198","845968.599999994","847007.8999999911","[""stimuli/WF04_CC.jpg"",""stimuli/HF10_HE.jpg"",""stimuli/BM16_HO.jpg"",""stimuli/BF08_DO.jpg""]","stimuli/WF04_CC.jpg","stimuli/HF10_HE.jpg","stimuli/BM16_HO.jpg","stimuli/BF08_DO.jpg","pos2","stimuli/HF10_HE.jpg","HE","HF10","1","3","6","8","stimuli/stars_6.png","304.5","[""CC"",""HE"",""HO"",""DO""]","[""WF04"",""HF10"",""BM16"",""BF08""]","[5,6,0,4]","[6,8,2,4]","","",""
"show-reward","188","846456","0.0-188.0","p560335","ALJ70B2J04YR7","3087LXLJ6NMH85PJ46SJUKP4Z1V0FD","39L1G8WVWSXPM2S26W0IW0E6KEP31S","emotion","mismatch","uniform","","","","","","","","847515.8999999911","849527.799999997","","","","","","","","","","","","6","","stimuli/stars_6.png","304.5","","","","","stimuli/HF10_HE.jpg","",""
"explore-choice","189","847971","0.0-189.0","p560335","ALJ70B2J04YR7","3087LXLJ6NMH85PJ46SJUKP4Z1V0FD","39L1G8WVWSXPM2S26W0IW0E6KEP31S","emotion","mismatch","uniform","","","","","","","1010.5999999940395","849531.299999997","850541.8999999911","[""stimuli/BF08_HE.jpg"",""stimuli/HF10_HO.jpg"",""stimuli/BM16_CC.jpg"",""stimuli/WF04_DO.jpg""]","stimuli/BF08_HE.jpg","stimuli/HF10_HO.jpg","stimuli/BM16_CC.jpg","stimuli/WF04_DO.jpg","pos2","stimuli/HF10_HO.jpg","HO","HF10","1","3.5","7","8","stimuli/stars_7.png","308","[""HE"",""HO"",""CC"",""DO""]","[""BF08"",""HF10"",""BM16"",""WF04""]","[3,7,1,6]","[4,8,2,6]","","",""
"show-reward","190","849982","0.0-190.0","p560335","ALJ70B2J04YR7","3087LXLJ6NMH85PJ46SJUKP4Z1V0FD","39L1G8WVWSXPM2S26W0IW0E6KEP31S","emotion","mismatch","uniform","","","","","","","","851045.099999994","853054.200000003","","","","","","","","","","","","7","","stimuli/stars_7.png","308","","","","","stimuli/HF10_HO.jpg","",""
"explore-choice","191","851473","0.0-191.0","p560335","ALJ70B2J04YR7","3087LXLJ6NMH85PJ46SJUKP4Z1V0FD","39L1G8WVWSXPM2S26W0IW0E6KEP31S","emotion","mismatch","uniform","","","","","","","987.0999999940395","853056.799999997","854043.8999999911","[""stimuli/WF04_HO.jpg"",""stimuli/HF10_HE.jpg"",""stimuli/BF08_CC.jpg"",""stimuli/BM16_DO.jpg""]","stimuli/WF04_HO.jpg","stimuli/HF10_HE.jpg","stimuli/BF08_CC.jpg","stimuli/BM16_DO.jpg","pos2","stimuli/HF10_HE.jpg","HE","HF10","1","3.5","7","8","stimuli/stars_7.png","311.5","[""HO"",""HE"",""CC"",""DO""]","[""WF04"",""HF10"",""BF08"",""BM16""]","[6,7,6,2]","[6,8,4,2]","","",""
"show-reward","192","853486","0.0-192.0","p560335","ALJ70B2J04YR7","3087LXLJ6NMH85PJ46SJUKP4Z1V0FD","39L1G8WVWSXPM2S26W0IW0E6KEP31S","emotion","mismatch","uniform","","","","","","","","854547.8999999911","856558","","","","","","","","","","","","7","","stimuli/stars_7.png","311.5","","","","","stimuli/HF10_HE.jpg","",""
"explore-choice","193","855968","0.0-193.0","p560335","ALJ70B2J04YR7","3087LXLJ6NMH85PJ46SJUKP4Z1V0FD","39L1G8WVWSXPM2S26W0IW0E6KEP31S","emotion","mismatch","uniform","","","","","","","1979.7999999970198","856560.299999997","858540.099999994","[""stimuli/BM16_HE.jpg"",""stimuli/WF04_HO.jpg"",""stimuli/HF10_DO.jpg"",""stimuli/BF08_CC.jpg""]","stimuli/BM16_HE.jpg","stimuli/WF04_HO.jpg","stimuli/HF10_DO.jpg","stimuli/BF08_CC.jpg","pos3","stimuli/HF10_DO.jpg","DO","HF10","2","5","10","8","stimuli/stars_10.png","316.5","[""HE"",""HO"",""DO"",""CC""]","[""BM16"",""WF04"",""HF10"",""BF08""]","[3,5,10,6]","[2,6,8,4]","","",""
"show-reward","194","857977","0.0-194.0","p560335","ALJ70B2J04YR7","3087LXLJ6NMH85PJ46SJUKP4Z1V0FD","39L1G8WVWSXPM2S26W0IW0E6KEP31S","emotion","mismatch","uniform","","","","","","","","859041.8999999911","861048.799999997","","","","","","","","","","","","10","","stimuli/stars_10.png","316.5","","","","","stimuli/HF10_DO.jpg","",""
"explore-choice","195","859930","0.0-195.0","p560335","ALJ70B2J04YR7","3087LXLJ6NMH85PJ46SJUKP4Z1V0FD","39L1G8WVWSXPM2S26W0IW0E6KEP31S","emotion","mismatch","uniform","","","","","","","1450.800000011921","861050.8999999911","862501.700000003","[""stimuli/HF10_CC.jpg"",""stimuli/WF04_HE.jpg"",""stimuli/BF08_HO.jpg"",""stimuli/BM16_DO.jpg""]","stimuli/HF10_CC.jpg","stimuli/WF04_HE.jpg","stimuli/BF08_HO.jpg","stimuli/BM16_DO.jpg","pos1","stimuli/HF10_CC.jpg","CC","HF10","0","5","10","8","stimuli/stars_10.png","321.5","[""CC"",""HE"",""HO"",""DO""]","[""HF10"",""WF04"",""BF08"",""BM16""]","[10,5,2,2]","[8,6,4,2]","","",""
"show-reward","196","861939","0.0-196.0","p560335","ALJ70B2J04YR7","3087LXLJ6NMH85PJ46SJUKP4Z1V0FD","39L1G8WVWSXPM2S26W0IW0E6KEP31S","emotion","mismatch","uniform","","","","","","","","863003.5","865011.5","","","","","","","","","","","","10","","stimuli/stars_10.png","321.5","","","","","stimuli/HF10_CC.jpg","",""
"explore-choice","197","863816","0.0-197.0","p560335","ALJ70B2J04YR7","3087LXLJ6NMH85PJ46SJUKP4Z1V0FD","39L1G8WVWSXPM2S26W0IW0E6KEP31S","emotion","mismatch","uniform","","","","","","","1374.7999999970198","865013","866387.799999997","[""stimuli/BF08_HE.jpg"",""stimuli/BM16_DO.jpg"",""stimuli/WF04_CC.jpg"",""stimuli/HF10_HO.jpg""]","stimuli/BF08_HE.jpg","stimuli/BM16_DO.jpg","stimuli/WF04_CC.jpg","stimuli/HF10_HO.jpg","pos4","stimuli/HF10_HO.jpg","HO","HF10","3","5","10","8","stimuli/stars_10.png","326.5","[""HE"",""DO"",""CC"",""HO""]","[""BF08"",""BM16"",""WF04"",""HF10""]","[3,1,6,10]","[4,2,6,8]","","",""
"show-reward","198","865829","0.0-198.0","p560335","ALJ70B2J04YR7","3087LXLJ6NMH85PJ46SJUKP4Z1V0FD","39L1G8WVWSXPM2S26W0IW0E6KEP31S","emotion","mismatch","uniform","","","","","","","","866890.8999999911","868901.099999994","","","","","","","","","","","","10","","stimuli/stars_10.png","326.5","","","","","stimuli/HF10_HO.jpg","",""
"instructions","199","870726","0.0-199.0","p560335","ALJ70B2J04YR7","3087LXLJ6NMH85PJ46SJUKP4Z1V0FD","39L1G8WVWSXPM2S26W0IW0E6KEP31S","emotion","mismatch","uniform","","","","","","[{""page_index"":0,""viewing_time"":4893.70000000298}]","4894.5","","","","","","","","","","","","","","","","","","","","","","","",""
"survey-text","200","873758","0.0-200.0-0.0","p560335","ALJ70B2J04YR7","3087LXLJ6NMH85PJ46SJUKP4Z1V0FD","39L1G8WVWSXPM2S26W0IW0E6KEP31S","emotion","mismatch","uniform","","","","","","","3026.699999988079","","","","","","","","","","","","","","","","","","","","","","","{""age"":""54""}",""
"survey-text","201","879827","0.0-200.0-1.0","p560335","ALJ70B2J04YR7","3087LXLJ6NMH85PJ46SJUKP4Z1V0FD","39L1G8WVWSXPM2S26W0IW0E6KEP31S","emotion","mismatch","uniform","","","","","","","6066.100000008941","","","","","","","","","","","","","","","","","","","","","","","{""gender"":""female""}",""
"survey-text","202","885720","0.0-200.0-2.0","p560335","ALJ70B2J04YR7","3087LXLJ6NMH85PJ46SJUKP4Z1V0FD","39L1G8WVWSXPM2S26W0IW0E6KEP31S","emotion","mismatch","uniform","","","","","","","5885.70000000298","","","","","","","","","","","","","","","","","","","","","","","{""country"":""United States""}",""
"survey-text","203","890184","0.0-200.0-3.0","p560335","ALJ70B2J04YR7","3087LXLJ6NMH85PJ46SJUKP4Z1V0FD","39L1G8WVWSXPM2S26W0IW0E6KEP31S","emotion","mismatch","uniform","","","","","","","4460.20000000298","","","","","","","","","","","","","","","","","","","","","","","{""language"":""English"",""other_languages"":""""}",""
"survey-multi-select","204","892698","0.0-201.0","p560335","ALJ70B2J04YR7","3087LXLJ6NMH85PJ46SJUKP4Z1V0FD","39L1G8WVWSXPM2S26W0IW0E6KEP31S","emotion","mismatch","uniform","","","","","","","2499.7999999970198","","","","","","","","","","","","","","","","","","","","","","","{""race"":[""White""]}","[0]"
"survey-multi-choice","205","895580","0.0-202.0","p560335","ALJ70B2J04YR7","3087LXLJ6NMH85PJ46SJUKP4Z1V0FD","39L1G8WVWSXPM2S26W0IW0E6KEP31S","emotion","mismatch","uniform","","","","","","","2877.300000011921","","","","","","","","","","","","","","","","","","","","","","","{""education"":""Master's degree""}","[0]"
"survey-text","206","943190","0.0-203.0","p560335","ALJ70B2J04YR7","3087LXLJ6NMH85PJ46SJUKP4Z1V0FD","39L1G8WVWSXPM2S26W0IW0E6KEP31S","emotion","mismatch","uniform","","","","","","","47485.5","","","","","","","","","","","","","","","","","","","","","","","{""patterns"":""First was the frightened people.  Second was the same girl."",""strategy"":""Stumbled upon best early in first game so stuck with it.  Took me forever in second game to realize always same girl"",""comments"":""""}",""
