"trial_type","trial_index","time_elapsed","internal_node_id","subject","workerId","hitId","assignmentId","structure_condition","match_condition","noise_type","success","timeout","failed_images","failed_audio","failed_video","view_history","rt","start_time","end_time","stimuli","image1","image2","image3","image4","choiceLocation","choiceImage","choiceEmotion","choiceModel","choice_index","reward_score","reward","reward_score_unadjusted","reward_image","score_after_trial","emotions","models","rewards","rewards_unadjusted","stimulus","response","question_order"
"pavlovia","0","4","0.0-0.0","p976730","A3CGQOJC28OVGN","3FVBZG9CLKK1M1GPZWGJX51HFG80HB","3LEP4MGT3I6OHSCR1IZJFLDRX35BDH","model","mismatch","uniform","","","","","","","","","","","","","","","","","","","","","","","","","","","","","","",""
"preload","1","60739","0.0-1.0","p976730","A3CGQOJC28OVGN","3FVBZG9CLKK1M1GPZWGJX51HFG80HB","3LEP4MGT3I6OHSCR1IZJFLDRX35BDH","model","mismatch","uniform","true","false","[]","[]","[]","","","","","","","","","","","","","","","","","","","","","","","","","",""
"fullscreen","2","66314","0.0-2.0","p976730","A3CGQOJC28OVGN","3FVBZG9CLKK1M1GPZWGJX51HFG80HB","3LEP4MGT3I6OHSCR1IZJFLDRX35BDH","model","mismatch","uniform","true","","","","","","","","","","","","","","","","","","","","","","","","","","","","","",""
"instructions","3","70996","0.0-3.0","p976730","A3CGQOJC28OVGN","3FVBZG9CLKK1M1GPZWGJX51HFG80HB","3LEP4MGT3I6OHSCR1IZJFLDRX35BDH","model","mismatch","uniform","","","","","","[{""page_index"":0,""viewing_time"":4680.900000095367}]","4681.400000095367","","","","","","","","","","","","","","","","","","","","","","","",""
"explore-choice","4","73658","0.0-4.0","p976730","A3CGQOJC28OVGN","3FVBZG9CLKK1M1GPZWGJX51HFG80HB","3LEP4MGT3I6OHSCR1IZJFLDRX35BDH","model","mismatch","uniform","","","","","","","2159.5999999046326","71258.20000004768","73417.79999995232","[""stimuli/sheep.jpg"",""stimuli/hammer.jpg"",""stimuli/basketball.jpg"",""stimuli/horse.jpg""]","stimuli/sheep.jpg","stimuli/hammer.jpg","stimuli/basketball.jpg","stimuli/horse.jpg","pos4","stimuli/horse.jpg","","","3","64","64","64","stimuli/stars_8.png","65","","","","","","",""
"explore-choice","5","76065","0.0-5.0","p976730","A3CGQOJC28OVGN","3FVBZG9CLKK1M1GPZWGJX51HFG80HB","3LEP4MGT3I6OHSCR1IZJFLDRX35BDH","model","mismatch","uniform","","","","","","","1903.4000000953674","73919.70000004768","75823.10000014305","[""stimuli/hammer.jpg"",""stimuli/basketball.jpg"",""stimuli/horse.jpg"",""stimuli/sheep.jpg""]","stimuli/hammer.jpg","stimuli/basketball.jpg","stimuli/horse.jpg","stimuli/sheep.jpg","pos1","stimuli/hammer.jpg","","","0","8","8","8","stimuli/stars_2.png","9","","","","","","",""
"instructions","6","96969","0.0-6.0","p976730","A3CGQOJC28OVGN","3FVBZG9CLKK1M1GPZWGJX51HFG80HB","3LEP4MGT3I6OHSCR1IZJFLDRX35BDH","model","mismatch","uniform","","","","","","[{""page_index"":0,""viewing_time"":20902}]","20902.299999952316","","","","","","","","","","","","","","","","","","","","","","","",""
"explore-choice","7","100286","0.0-7.0","p976730","A3CGQOJC28OVGN","3FVBZG9CLKK1M1GPZWGJX51HFG80HB","3LEP4MGT3I6OHSCR1IZJFLDRX35BDH","model","mismatch","uniform","","","","","","","2813.9000000953674","97231.5","100045.40000009537","[""stimuli/WM09_DO.jpg"",""stimuli/HF09_HE.jpg"",""stimuli/AF09_SUR.jpg"",""stimuli/WF06_HO.jpg""]","stimuli/WM09_DO.jpg","stimuli/HF09_HE.jpg","stimuli/AF09_SUR.jpg","stimuli/WF06_HO.jpg","pos4","stimuli/WF06_HO.jpg","HO","WF06","3","3","6","4","stimuli/stars_6.png","4","[""DO"",""HE"",""SUR"",""HO""]","[""WM09"",""HF09"",""AF09"",""WF06""]","[8,8,0,6]","[6,8,2,4]","","",""
"show-reward","8","102297","0.0-8.0","p976730","A3CGQOJC28OVGN","3FVBZG9CLKK1M1GPZWGJX51HFG80HB","3LEP4MGT3I6OHSCR1IZJFLDRX35BDH","model","mismatch","uniform","","","","","","","","100551.29999995232","102557.5","","","","","","","","","","","","6","","stimuli/stars_6.png","4","","","","","stimuli/WF06_HO.jpg","",""
"explore-choice","9","104706","0.0-9.0","p976730","A3CGQOJC28OVGN","3FVBZG9CLKK1M1GPZWGJX51HFG80HB","3LEP4MGT3I6OHSCR1IZJFLDRX35BDH","model","mismatch","uniform","","","","","","","1893.2999999523163","102559.60000014305","104452.90000009537","[""stimuli/WM09_DO.jpg"",""stimuli/AF09_HE.jpg"",""stimuli/WF06_HO.jpg"",""stimuli/HF09_SUR.jpg""]","stimuli/WM09_DO.jpg","stimuli/AF09_HE.jpg","stimuli/WF06_HO.jpg","stimuli/HF09_SUR.jpg","pos2","stimuli/AF09_HE.jpg","HE","AF09","1","1.5","3","2","stimuli/stars_3.png","5.5","[""DO"",""HE"",""HO"",""SUR""]","[""WM09"",""AF09"",""WF06"",""HF09""]","[7,3,2,9]","[6,2,4,8]","","",""
"show-reward","10","106709","0.0-10.0","p976730","A3CGQOJC28OVGN","3FVBZG9CLKK1M1GPZWGJX51HFG80HB","3LEP4MGT3I6OHSCR1IZJFLDRX35BDH","model","mismatch","uniform","","","","","","","","104968.40000009537","106970.40000009537","","","","","","","","","","","","3","","stimuli/stars_3.png","5.5","","","","","stimuli/AF09_HE.jpg","",""
"explore-choice","11","108244","0.0-11.0","p976730","A3CGQOJC28OVGN","3FVBZG9CLKK1M1GPZWGJX51HFG80HB","3LEP4MGT3I6OHSCR1IZJFLDRX35BDH","model","mismatch","uniform","","","","","","","1026.4000000953674","106971","107997.40000009537","[""stimuli/WF06_DO.jpg"",""stimuli/AF09_HO.jpg"",""stimuli/HF09_HE.jpg"",""stimuli/WM09_SUR.jpg""]","stimuli/WF06_DO.jpg","stimuli/AF09_HO.jpg","stimuli/HF09_HE.jpg","stimuli/WM09_SUR.jpg","pos4","stimuli/WM09_SUR.jpg","SUR","WM09","3","4","8","6","stimuli/stars_8.png","9.5","[""DO"",""HO"",""HE"",""SUR""]","[""WF06"",""AF09"",""HF09"",""WM09""]","[4,0,8,8]","[4,2,8,6]","","",""
"show-reward","12","110248","0.0-12.0","p976730","A3CGQOJC28OVGN","3FVBZG9CLKK1M1GPZWGJX51HFG80HB","3LEP4MGT3I6OHSCR1IZJFLDRX35BDH","model","mismatch","uniform","","","","","","","","108505.60000014305","110509","","","","","","","","","","","","8","","stimuli/stars_8.png","9.5","","","","","stimuli/WM09_SUR.jpg","",""
"explore-choice","13","111654","0.0-13.0","p976730","A3CGQOJC28OVGN","3FVBZG9CLKK1M1GPZWGJX51HFG80HB","3LEP4MGT3I6OHSCR1IZJFLDRX35BDH","model","mismatch","uniform","","","","","","","897.6000001430511","110510","111407.60000014305","[""stimuli/AF09_SUR.jpg"",""stimuli/WF06_DO.jpg"",""stimuli/HF09_HO.jpg"",""stimuli/WM09_HE.jpg""]","stimuli/AF09_SUR.jpg","stimuli/WF06_DO.jpg","stimuli/HF09_HO.jpg","stimuli/WM09_HE.jpg","pos1","stimuli/AF09_SUR.jpg","SUR","AF09","0","0","0","2","stimuli/stars_0.png","9.5","[""SUR"",""DO"",""HO"",""HE""]","[""AF09"",""WF06"",""HF09"",""WM09""]","[0,5,7,7]","[2,4,8,6]","","",""
"show-reward","14","113663","0.0-14.0","p976730","A3CGQOJC28OVGN","3FVBZG9CLKK1M1GPZWGJX51HFG80HB","3LEP4MGT3I6OHSCR1IZJFLDRX35BDH","model","mismatch","uniform","","","","","","","","111915.29999995232","113924.20000004768","","","","","","","","","","","","0","","stimuli/stars_0.png","9.5","","","","","stimuli/AF09_SUR.jpg","",""
"explore-choice","15","115825","0.0-15.0","p976730","A3CGQOJC28OVGN","3FVBZG9CLKK1M1GPZWGJX51HFG80HB","3LEP4MGT3I6OHSCR1IZJFLDRX35BDH","model","mismatch","uniform","","","","","","","1651.5999999046326","113925.10000014305","115576.70000004768","[""stimuli/WM09_SUR.jpg"",""stimuli/AF09_DO.jpg"",""stimuli/HF09_HE.jpg"",""stimuli/WF06_HO.jpg""]","stimuli/WM09_SUR.jpg","stimuli/AF09_DO.jpg","stimuli/HF09_HE.jpg","stimuli/WF06_HO.jpg","pos1","stimuli/WM09_SUR.jpg","SUR","WM09","0","3","6","6","stimuli/stars_6.png","12.5","[""SUR"",""DO"",""HE"",""HO""]","[""WM09"",""AF09"",""HF09"",""WF06""]","[6,4,6,5]","[6,2,8,4]","","",""
"show-reward","16","117844","0.0-16.0","p976730","A3CGQOJC28OVGN","3FVBZG9CLKK1M1GPZWGJX51HFG80HB","3LEP4MGT3I6OHSCR1IZJFLDRX35BDH","model","mismatch","uniform","","","","","","","","116087.60000014305","118104.79999995232","","","","","","","","","","","","6","","stimuli/stars_6.png","12.5","","","","","stimuli/WM09_SUR.jpg","",""
"explore-choice","17","119872","0.0-17.0","p976730","A3CGQOJC28OVGN","3FVBZG9CLKK1M1GPZWGJX51HFG80HB","3LEP4MGT3I6OHSCR1IZJFLDRX35BDH","model","mismatch","uniform","","","","","","","1515.5999999046326","118106.40000009537","119622","[""stimuli/WM09_HE.jpg"",""stimuli/AF09_DO.jpg"",""stimuli/HF09_HO.jpg"",""stimuli/WF06_SUR.jpg""]","stimuli/WM09_HE.jpg","stimuli/AF09_DO.jpg","stimuli/HF09_HO.jpg","stimuli/WF06_SUR.jpg","pos1","stimuli/WM09_HE.jpg","HE","WM09","0","4","8","6","stimuli/stars_8.png","16.5","[""HE"",""DO"",""HO"",""SUR""]","[""WM09"",""AF09"",""HF09"",""WF06""]","[8,3,10,6]","[6,2,8,4]","","",""
"show-reward","18","121882","0.0-18.0","p976730","A3CGQOJC28OVGN","3FVBZG9CLKK1M1GPZWGJX51HFG80HB","3LEP4MGT3I6OHSCR1IZJFLDRX35BDH","model","mismatch","uniform","","","","","","","","120134.20000004768","122143.29999995232","","","","","","","","","","","","8","","stimuli/stars_8.png","16.5","","","","","stimuli/WM09_HE.jpg","",""
"explore-choice","19","125314","0.0-19.0","p976730","A3CGQOJC28OVGN","3FVBZG9CLKK1M1GPZWGJX51HFG80HB","3LEP4MGT3I6OHSCR1IZJFLDRX35BDH","model","mismatch","uniform","","","","","","","2924.9000000953674","122144","125068.90000009537","[""stimuli/AF09_HE.jpg"",""stimuli/WF06_SUR.jpg"",""stimuli/WM09_DO.jpg"",""stimuli/HF09_HO.jpg""]","stimuli/AF09_HE.jpg","stimuli/WF06_SUR.jpg","stimuli/WM09_DO.jpg","stimuli/HF09_HO.jpg","pos2","stimuli/WF06_SUR.jpg","SUR","WF06","1","2","4","4","stimuli/stars_4.png","18.5","[""HE"",""SUR"",""DO"",""HO""]","[""AF09"",""WF06"",""WM09"",""HF09""]","[1,4,5,10]","[2,4,6,8]","","",""
"show-reward","20","127328","0.0-20.0","p976730","A3CGQOJC28OVGN","3FVBZG9CLKK1M1GPZWGJX51HFG80HB","3LEP4MGT3I6OHSCR1IZJFLDRX35BDH","model","mismatch","uniform","","","","","","","","125576","127589","","","","","","","","","","","","4","","stimuli/stars_4.png","18.5","","","","","stimuli/WF06_SUR.jpg","",""
"explore-choice","21","130465","0.0-21.0","p976730","A3CGQOJC28OVGN","3FVBZG9CLKK1M1GPZWGJX51HFG80HB","3LEP4MGT3I6OHSCR1IZJFLDRX35BDH","model","mismatch","uniform","","","","","","","2632.5","127589.70000004768","130222.20000004768","[""stimuli/HF09_DO.jpg"",""stimuli/WF06_SUR.jpg"",""stimuli/AF09_HE.jpg"",""stimuli/WM09_HO.jpg""]","stimuli/HF09_DO.jpg","stimuli/WF06_SUR.jpg","stimuli/AF09_HE.jpg","stimuli/WM09_HO.jpg","pos4","stimuli/WM09_HO.jpg","HO","WM09","3","2.5","5","6","stimuli/stars_5.png","21","[""DO"",""SUR"",""HE"",""HO""]","[""HF09"",""WF06"",""AF09"",""WM09""]","[10,2,3,5]","[8,4,2,6]","","",""
"show-reward","22","132473","0.0-22.0","p976730","A3CGQOJC28OVGN","3FVBZG9CLKK1M1GPZWGJX51HFG80HB","3LEP4MGT3I6OHSCR1IZJFLDRX35BDH","model","mismatch","uniform","","","","","","","","130726.79999995232","132733.40000009537","","","","","","","","","","","","5","","stimuli/stars_5.png","21","","","","","stimuli/WM09_HO.jpg","",""
"explore-choice","23","136885","0.0-23.0","p976730","A3CGQOJC28OVGN","3FVBZG9CLKK1M1GPZWGJX51HFG80HB","3LEP4MGT3I6OHSCR1IZJFLDRX35BDH","model","mismatch","uniform","","","","","","","3894.600000143051","132734.79999995232","136629.40000009537","[""stimuli/WF06_SUR.jpg"",""stimuli/AF09_HO.jpg"",""stimuli/HF09_DO.jpg"",""stimuli/WM09_HE.jpg""]","stimuli/WF06_SUR.jpg","stimuli/AF09_HO.jpg","stimuli/HF09_DO.jpg","stimuli/WM09_HE.jpg","pos4","stimuli/WM09_HE.jpg","HE","WM09","3","4","8","6","stimuli/stars_8.png","25","[""SUR"",""HO"",""DO"",""HE""]","[""WF06"",""AF09"",""HF09"",""WM09""]","[6,4,10,8]","[4,2,8,6]","","",""
"show-reward","24","138890","0.0-24.0","p976730","A3CGQOJC28OVGN","3FVBZG9CLKK1M1GPZWGJX51HFG80HB","3LEP4MGT3I6OHSCR1IZJFLDRX35BDH","model","mismatch","uniform","","","","","","","","137146.60000014305","139150.40000009537","","","","","","","","","","","","8","","stimuli/stars_8.png","25","","","","","stimuli/WM09_HE.jpg","",""
"explore-choice","25","140834","0.0-25.0","p976730","A3CGQOJC28OVGN","3FVBZG9CLKK1M1GPZWGJX51HFG80HB","3LEP4MGT3I6OHSCR1IZJFLDRX35BDH","model","mismatch","uniform","","","","","","","1440.2999999523163","139151.90000009537","140592.20000004768","[""stimuli/HF09_SUR.jpg"",""stimuli/WF06_HO.jpg"",""stimuli/WM09_HE.jpg"",""stimuli/AF09_DO.jpg""]","stimuli/HF09_SUR.jpg","stimuli/WF06_HO.jpg","stimuli/WM09_HE.jpg","stimuli/AF09_DO.jpg","pos3","stimuli/WM09_HE.jpg","HE","WM09","2","2","4","6","stimuli/stars_4.png","27","[""SUR"",""HO"",""HE"",""DO""]","[""HF09"",""WF06"",""WM09"",""AF09""]","[6,4,4,3]","[8,4,6,2]","","",""
"show-reward","26","142843","0.0-26.0","p976730","A3CGQOJC28OVGN","3FVBZG9CLKK1M1GPZWGJX51HFG80HB","3LEP4MGT3I6OHSCR1IZJFLDRX35BDH","model","mismatch","uniform","","","","","","","","141095.70000004768","143103.79999995232","","","","","","","","","","","","4","","stimuli/stars_4.png","27","","","","","stimuli/WM09_HE.jpg","",""
"explore-choice","27","146244","0.0-27.0","p976730","A3CGQOJC28OVGN","3FVBZG9CLKK1M1GPZWGJX51HFG80HB","3LEP4MGT3I6OHSCR1IZJFLDRX35BDH","model","mismatch","uniform","","","","","","","2884.5999999046326","143105.90000009537","145990.5","[""stimuli/HF09_SUR.jpg"",""stimuli/WM09_HO.jpg"",""stimuli/AF09_HE.jpg"",""stimuli/WF06_DO.jpg""]","stimuli/HF09_SUR.jpg","stimuli/WM09_HO.jpg","stimuli/AF09_HE.jpg","stimuli/WF06_DO.jpg","pos1","stimuli/HF09_SUR.jpg","SUR","HF09","0","3","6","8","stimuli/stars_6.png","30","[""SUR"",""HO"",""HE"",""DO""]","[""HF09"",""WM09"",""AF09"",""WF06""]","[6,8,3,6]","[8,6,2,4]","","",""
"show-reward","28","148251","0.0-28.0","p976730","A3CGQOJC28OVGN","3FVBZG9CLKK1M1GPZWGJX51HFG80HB","3LEP4MGT3I6OHSCR1IZJFLDRX35BDH","model","mismatch","uniform","","","","","","","","146505.40000009537","148511.70000004768","","","","","","","","","","","","6","","stimuli/stars_6.png","30","","","","","stimuli/HF09_SUR.jpg","",""
"explore-choice","29","151482","0.0-29.0","p976730","A3CGQOJC28OVGN","3FVBZG9CLKK1M1GPZWGJX51HFG80HB","3LEP4MGT3I6OHSCR1IZJFLDRX35BDH","model","mismatch","uniform","","","","","","","2718.2999999523163","148512.60000014305","151230.90000009537","[""stimuli/WF06_HE.jpg"",""stimuli/WM09_HO.jpg"",""stimuli/HF09_SUR.jpg"",""stimuli/AF09_DO.jpg""]","stimuli/WF06_HE.jpg","stimuli/WM09_HO.jpg","stimuli/HF09_SUR.jpg","stimuli/AF09_DO.jpg","pos1","stimuli/WF06_HE.jpg","HE","WF06","0","3","6","4","stimuli/stars_6.png","33","[""HE"",""HO"",""SUR"",""DO""]","[""WF06"",""WM09"",""HF09"",""AF09""]","[6,7,9,2]","[4,6,8,2]","","",""
"show-reward","30","153499","0.0-30.0","p976730","A3CGQOJC28OVGN","3FVBZG9CLKK1M1GPZWGJX51HFG80HB","3LEP4MGT3I6OHSCR1IZJFLDRX35BDH","model","mismatch","uniform","","","","","","","","151743.90000009537","153759.70000004768","","","","","","","","","","","","6","","stimuli/stars_6.png","33","","","","","stimuli/WF06_HE.jpg","",""
"explore-choice","31","157084","0.0-31.0","p976730","A3CGQOJC28OVGN","3FVBZG9CLKK1M1GPZWGJX51HFG80HB","3LEP4MGT3I6OHSCR1IZJFLDRX35BDH","model","mismatch","uniform","","","","","","","3083.600000143051","153761","156844.60000014305","[""stimuli/WF06_HE.jpg"",""stimuli/AF09_HO.jpg"",""stimuli/HF09_SUR.jpg"",""stimuli/WM09_DO.jpg""]","stimuli/WF06_HE.jpg","stimuli/AF09_HO.jpg","stimuli/HF09_SUR.jpg","stimuli/WM09_DO.jpg","pos1","stimuli/WF06_HE.jpg","HE","WF06","0","2","4","4","stimuli/stars_4.png","35","[""HE"",""HO"",""SUR"",""DO""]","[""WF06"",""AF09"",""HF09"",""WM09""]","[4,1,10,5]","[4,2,8,6]","","",""
"show-reward","32","159096","0.0-32.0","p976730","A3CGQOJC28OVGN","3FVBZG9CLKK1M1GPZWGJX51HFG80HB","3LEP4MGT3I6OHSCR1IZJFLDRX35BDH","model","mismatch","uniform","","","","","","","","157346","159357.20000004768","","","","","","","","","","","","4","","stimuli/stars_4.png","35","","","","","stimuli/WF06_HE.jpg","",""
"explore-choice","33","161213","0.0-33.0","p976730","A3CGQOJC28OVGN","3FVBZG9CLKK1M1GPZWGJX51HFG80HB","3LEP4MGT3I6OHSCR1IZJFLDRX35BDH","model","mismatch","uniform","","","","","","","1609.0999999046326","159358.70000004768","160967.79999995232","[""stimuli/WF06_HE.jpg"",""stimuli/WM09_SUR.jpg"",""stimuli/HF09_DO.jpg"",""stimuli/AF09_HO.jpg""]","stimuli/WF06_HE.jpg","stimuli/WM09_SUR.jpg","stimuli/HF09_DO.jpg","stimuli/AF09_HO.jpg","pos2","stimuli/WM09_SUR.jpg","SUR","WM09","1","2.5","5","6","stimuli/stars_5.png","37.5","[""HE"",""SUR"",""DO"",""HO""]","[""WF06"",""WM09"",""HF09"",""AF09""]","[3,5,6,3]","[4,6,8,2]","","",""
"show-reward","34","163222","0.0-34.0","p976730","A3CGQOJC28OVGN","3FVBZG9CLKK1M1GPZWGJX51HFG80HB","3LEP4MGT3I6OHSCR1IZJFLDRX35BDH","model","mismatch","uniform","","","","","","","","161474.5","163482.70000004768","","","","","","","","","","","","5","","stimuli/stars_5.png","37.5","","","","","stimuli/WM09_SUR.jpg","",""
"explore-choice","35","164948","0.0-35.0","p976730","A3CGQOJC28OVGN","3FVBZG9CLKK1M1GPZWGJX51HFG80HB","3LEP4MGT3I6OHSCR1IZJFLDRX35BDH","model","mismatch","uniform","","","","","","","1214","163484","164698","[""stimuli/WM09_HE.jpg"",""stimuli/HF09_DO.jpg"",""stimuli/WF06_HO.jpg"",""stimuli/AF09_SUR.jpg""]","stimuli/WM09_HE.jpg","stimuli/HF09_DO.jpg","stimuli/WF06_HO.jpg","stimuli/AF09_SUR.jpg","pos1","stimuli/WM09_HE.jpg","HE","WM09","0","3","6","6","stimuli/stars_6.png","40.5","[""HE"",""DO"",""HO"",""SUR""]","[""WM09"",""HF09"",""WF06"",""AF09""]","[6,9,4,0]","[6,8,4,2]","","",""
"show-reward","36","166952","0.0-36.0","p976730","A3CGQOJC28OVGN","3FVBZG9CLKK1M1GPZWGJX51HFG80HB","3LEP4MGT3I6OHSCR1IZJFLDRX35BDH","model","mismatch","uniform","","","","","","","","165210.5","167213.40000009537","","","","","","","","","","","","6","","stimuli/stars_6.png","40.5","","","","","stimuli/WM09_HE.jpg","",""
"explore-choice","37","172878","0.0-37.0","p976730","A3CGQOJC28OVGN","3FVBZG9CLKK1M1GPZWGJX51HFG80HB","3LEP4MGT3I6OHSCR1IZJFLDRX35BDH","model","mismatch","uniform","","","","","","","5413.700000047684","167214.70000004768","172628.40000009537","[""stimuli/WF06_HE.jpg"",""stimuli/HF09_DO.jpg"",""stimuli/AF09_SUR.jpg"",""stimuli/WM09_HO.jpg""]","stimuli/WF06_HE.jpg","stimuli/HF09_DO.jpg","stimuli/AF09_SUR.jpg","stimuli/WM09_HO.jpg","pos2","stimuli/HF09_DO.jpg","DO","HF09","1","3.5","7","8","stimuli/stars_7.png","44","[""HE"",""DO"",""SUR"",""HO""]","[""WF06"",""HF09"",""AF09"",""WM09""]","[4,7,4,6]","[4,8,2,6]","","",""
"show-reward","38","174892","0.0-38.0","p976730","A3CGQOJC28OVGN","3FVBZG9CLKK1M1GPZWGJX51HFG80HB","3LEP4MGT3I6OHSCR1IZJFLDRX35BDH","model","mismatch","uniform","","","","","","","","173139.90000009537","175153","","","","","","","","","","","","7","","stimuli/stars_7.png","44","","","","","stimuli/HF09_DO.jpg","",""
"explore-choice","39","177405","0.0-39.0","p976730","A3CGQOJC28OVGN","3FVBZG9CLKK1M1GPZWGJX51HFG80HB","3LEP4MGT3I6OHSCR1IZJFLDRX35BDH","model","mismatch","uniform","","","","","","","2005.0999999046326","175154.40000009537","177159.5","[""stimuli/WF06_DO.jpg"",""stimuli/HF09_HO.jpg"",""stimuli/AF09_HE.jpg"",""stimuli/WM09_SUR.jpg""]","stimuli/WF06_DO.jpg","stimuli/HF09_HO.jpg","stimuli/AF09_HE.jpg","stimuli/WM09_SUR.jpg","pos1","stimuli/WF06_DO.jpg","DO","WF06","0","3","6","4","stimuli/stars_6.png","47","[""DO"",""HO"",""HE"",""SUR""]","[""WF06"",""HF09"",""AF09"",""WM09""]","[6,6,3,7]","[4,8,2,6]","","",""
"show-reward","40","179421","0.0-40.0","p976730","A3CGQOJC28OVGN","3FVBZG9CLKK1M1GPZWGJX51HFG80HB","3LEP4MGT3I6OHSCR1IZJFLDRX35BDH","model","mismatch","uniform","","","","","","","","177666.70000004768","179682.29999995232","","","","","","","","","","","","6","","stimuli/stars_6.png","47","","","","","stimuli/WF06_DO.jpg","",""
"explore-choice","41","182084","0.0-41.0","p976730","A3CGQOJC28OVGN","3FVBZG9CLKK1M1GPZWGJX51HFG80HB","3LEP4MGT3I6OHSCR1IZJFLDRX35BDH","model","mismatch","uniform","","","","","","","2158.600000143051","179683.29999995232","181841.90000009537","[""stimuli/AF09_SUR.jpg"",""stimuli/HF09_HE.jpg"",""stimuli/WM09_HO.jpg"",""stimuli/WF06_DO.jpg""]","stimuli/AF09_SUR.jpg","stimuli/HF09_HE.jpg","stimuli/WM09_HO.jpg","stimuli/WF06_DO.jpg","pos4","stimuli/WF06_DO.jpg","DO","WF06","3","1.5","3","4","stimuli/stars_3.png","48.5","[""SUR"",""HE"",""HO"",""DO""]","[""AF09"",""HF09"",""WM09"",""WF06""]","[4,9,8,3]","[2,8,6,4]","","",""
"show-reward","42","184087","0.0-42.0","p976730","A3CGQOJC28OVGN","3FVBZG9CLKK1M1GPZWGJX51HFG80HB","3LEP4MGT3I6OHSCR1IZJFLDRX35BDH","model","mismatch","uniform","","","","","","","","182346.29999995232","184348.40000009537","","","","","","","","","","","","3","","stimuli/stars_3.png","48.5","","","","","stimuli/WF06_DO.jpg","",""
"explore-choice","43","187900","0.0-43.0","p976730","A3CGQOJC28OVGN","3FVBZG9CLKK1M1GPZWGJX51HFG80HB","3LEP4MGT3I6OHSCR1IZJFLDRX35BDH","model","mismatch","uniform","","","","","","","3306.4000000953674","184349.70000004768","187656.10000014305","[""stimuli/WF06_SUR.jpg"",""stimuli/AF09_DO.jpg"",""stimuli/HF09_HE.jpg"",""stimuli/WM09_HO.jpg""]","stimuli/WF06_SUR.jpg","stimuli/AF09_DO.jpg","stimuli/HF09_HE.jpg","stimuli/WM09_HO.jpg","pos1","stimuli/WF06_SUR.jpg","SUR","WF06","0","3","6","4","stimuli/stars_6.png","51.5","[""SUR"",""DO"",""HE"",""HO""]","[""WF06"",""AF09"",""HF09"",""WM09""]","[6,2,7,6]","[4,2,8,6]","","",""
"show-reward","44","189918","0.0-44.0","p976730","A3CGQOJC28OVGN","3FVBZG9CLKK1M1GPZWGJX51HFG80HB","3LEP4MGT3I6OHSCR1IZJFLDRX35BDH","model","mismatch","uniform","","","","","","","","188162.40000009537","190179","","","","","","","","","","","","6","","stimuli/stars_6.png","51.5","","","","","stimuli/WF06_SUR.jpg","",""
"explore-choice","45","192354","0.0-45.0","p976730","A3CGQOJC28OVGN","3FVBZG9CLKK1M1GPZWGJX51HFG80HB","3LEP4MGT3I6OHSCR1IZJFLDRX35BDH","model","mismatch","uniform","","","","","","","1920.0999999046326","190180.40000009537","192100.5","[""stimuli/WM09_DO.jpg"",""stimuli/AF09_HO.jpg"",""stimuli/WF06_SUR.jpg"",""stimuli/HF09_HE.jpg""]","stimuli/WM09_DO.jpg","stimuli/AF09_HO.jpg","stimuli/WF06_SUR.jpg","stimuli/HF09_HE.jpg","pos1","stimuli/WM09_DO.jpg","DO","WM09","0","3","6","6","stimuli/stars_6.png","54.5","[""DO"",""HO"",""SUR"",""HE""]","[""WM09"",""AF09"",""WF06"",""HF09""]","[6,0,2,6]","[6,2,4,8]","","",""
"show-reward","46","194371","0.0-46.0","p976730","A3CGQOJC28OVGN","3FVBZG9CLKK1M1GPZWGJX51HFG80HB","3LEP4MGT3I6OHSCR1IZJFLDRX35BDH","model","mismatch","uniform","","","","","","","","192616.40000009537","194632.60000014305","","","","","","","","","","","","6","","stimuli/stars_6.png","54.5","","","","","stimuli/WM09_DO.jpg","",""
"explore-choice","47","195954","0.0-47.0","p976730","A3CGQOJC28OVGN","3FVBZG9CLKK1M1GPZWGJX51HFG80HB","3LEP4MGT3I6OHSCR1IZJFLDRX35BDH","model","mismatch","uniform","","","","","","","1069.1000001430511","194633.5","195702.60000014305","[""stimuli/HF09_SUR.jpg"",""stimuli/WM09_HE.jpg"",""stimuli/AF09_HO.jpg"",""stimuli/WF06_DO.jpg""]","stimuli/HF09_SUR.jpg","stimuli/WM09_HE.jpg","stimuli/AF09_HO.jpg","stimuli/WF06_DO.jpg","pos2","stimuli/WM09_HE.jpg","HE","WM09","1","4","8","6","stimuli/stars_8.png","58.5","[""SUR"",""HE"",""HO"",""DO""]","[""HF09"",""WM09"",""AF09"",""WF06""]","[8,8,0,2]","[8,6,2,4]","","",""
"show-reward","48","197963","0.0-48.0","p976730","A3CGQOJC28OVGN","3FVBZG9CLKK1M1GPZWGJX51HFG80HB","3LEP4MGT3I6OHSCR1IZJFLDRX35BDH","model","mismatch","uniform","","","","","","","","196216.60000014305","198224.10000014305","","","","","","","","","","","","8","","stimuli/stars_8.png","58.5","","","","","stimuli/WM09_HE.jpg","",""
"explore-choice","49","199624","0.0-49.0","p976730","A3CGQOJC28OVGN","3FVBZG9CLKK1M1GPZWGJX51HFG80HB","3LEP4MGT3I6OHSCR1IZJFLDRX35BDH","model","mismatch","uniform","","","","","","","1152.2000000476837","198225.5","199377.70000004768","[""stimuli/HF09_DO.jpg"",""stimuli/WF06_HO.jpg"",""stimuli/AF09_HE.jpg"",""stimuli/WM09_SUR.jpg""]","stimuli/HF09_DO.jpg","stimuli/WF06_HO.jpg","stimuli/AF09_HE.jpg","stimuli/WM09_SUR.jpg","pos2","stimuli/WF06_HO.jpg","HO","WF06","1","1.5","3","4","stimuli/stars_3.png","60","[""DO"",""HO"",""HE"",""SUR""]","[""HF09"",""WF06"",""AF09"",""WM09""]","[10,3,3,6]","[8,4,2,6]","","",""
"show-reward","50","201636","0.0-50.0","p976730","A3CGQOJC28OVGN","3FVBZG9CLKK1M1GPZWGJX51HFG80HB","3LEP4MGT3I6OHSCR1IZJFLDRX35BDH","model","mismatch","uniform","","","","","","","","199887.20000004768","201896.70000004768","","","","","","","","","","","","3","","stimuli/stars_3.png","60","","","","","stimuli/WF06_HO.jpg","",""
"explore-choice","51","203548","0.0-51.0","p976730","A3CGQOJC28OVGN","3FVBZG9CLKK1M1GPZWGJX51HFG80HB","3LEP4MGT3I6OHSCR1IZJFLDRX35BDH","model","mismatch","uniform","","","","","","","1398.1000001430511","201897.5","203295.60000014305","[""stimuli/AF09_DO.jpg"",""stimuli/WF06_HE.jpg"",""stimuli/HF09_HO.jpg"",""stimuli/WM09_SUR.jpg""]","stimuli/AF09_DO.jpg","stimuli/WF06_HE.jpg","stimuli/HF09_HO.jpg","stimuli/WM09_SUR.jpg","pos4","stimuli/WM09_SUR.jpg","SUR","WM09","3","3","6","6","stimuli/stars_6.png","63","[""DO"",""HE"",""HO"",""SUR""]","[""AF09"",""WF06"",""HF09"",""WM09""]","[2,3,8,6]","[2,4,8,6]","","",""
"show-reward","52","205564","0.0-52.0","p976730","A3CGQOJC28OVGN","3FVBZG9CLKK1M1GPZWGJX51HFG80HB","3LEP4MGT3I6OHSCR1IZJFLDRX35BDH","model","mismatch","uniform","","","","","","","","203810.10000014305","205825.20000004768","","","","","","","","","","","","6","","stimuli/stars_6.png","63","","","","","stimuli/WM09_SUR.jpg","",""
"explore-choice","53","210121","0.0-53.0","p976730","A3CGQOJC28OVGN","3FVBZG9CLKK1M1GPZWGJX51HFG80HB","3LEP4MGT3I6OHSCR1IZJFLDRX35BDH","model","mismatch","uniform","","","","","","","4049.7999999523163","205826.5","209876.29999995232","[""stimuli/HF09_HO.jpg"",""stimuli/WF06_HE.jpg"",""stimuli/AF09_SUR.jpg"",""stimuli/WM09_DO.jpg""]","stimuli/HF09_HO.jpg","stimuli/WF06_HE.jpg","stimuli/AF09_SUR.jpg","stimuli/WM09_DO.jpg","pos4","stimuli/WM09_DO.jpg","DO","WM09","3","3","6","6","stimuli/stars_6.png","66","[""HO"",""HE"",""SUR"",""DO""]","[""HF09"",""WF06"",""AF09"",""WM09""]","[7,3,4,6]","[8,4,2,6]","","",""
"show-reward","54","212139","0.0-54.0","p976730","A3CGQOJC28OVGN","3FVBZG9CLKK1M1GPZWGJX51HFG80HB","3LEP4MGT3I6OHSCR1IZJFLDRX35BDH","model","mismatch","uniform","","","","","","","","210383","212399.79999995232","","","","","","","","","","","","6","","stimuli/stars_6.png","66","","","","","stimuli/WM09_DO.jpg","",""
"explore-choice","55","214402","0.0-55.0","p976730","A3CGQOJC28OVGN","3FVBZG9CLKK1M1GPZWGJX51HFG80HB","3LEP4MGT3I6OHSCR1IZJFLDRX35BDH","model","mismatch","uniform","","","","","","","1748.2999999523163","212401.10000014305","214149.40000009537","[""stimuli/WF06_HE.jpg"",""stimuli/HF09_HO.jpg"",""stimuli/WM09_SUR.jpg"",""stimuli/AF09_DO.jpg""]","stimuli/WF06_HE.jpg","stimuli/HF09_HO.jpg","stimuli/WM09_SUR.jpg","stimuli/AF09_DO.jpg","pos3","stimuli/WM09_SUR.jpg","SUR","WM09","2","3","6","6","stimuli/stars_6.png","69","[""HE"",""HO"",""SUR"",""DO""]","[""WF06"",""HF09"",""WM09"",""AF09""]","[3,8,6,2]","[4,8,6,2]","","",""
"show-reward","56","216407","0.0-56.0","p976730","A3CGQOJC28OVGN","3FVBZG9CLKK1M1GPZWGJX51HFG80HB","3LEP4MGT3I6OHSCR1IZJFLDRX35BDH","model","mismatch","uniform","","","","","","","","214664","216668.40000009537","","","","","","","","","","","","6","","stimuli/stars_6.png","69","","","","","stimuli/WM09_SUR.jpg","",""
"explore-choice","57","219497","0.0-57.0","p976730","A3CGQOJC28OVGN","3FVBZG9CLKK1M1GPZWGJX51HFG80HB","3LEP4MGT3I6OHSCR1IZJFLDRX35BDH","model","mismatch","uniform","","","","","","","2585.5","216669.79999995232","219255.29999995232","[""stimuli/WF06_HE.jpg"",""stimuli/HF09_SUR.jpg"",""stimuli/WM09_HO.jpg"",""stimuli/AF09_DO.jpg""]","stimuli/WF06_HE.jpg","stimuli/HF09_SUR.jpg","stimuli/WM09_HO.jpg","stimuli/AF09_DO.jpg","pos2","stimuli/HF09_SUR.jpg","SUR","HF09","1","4.5","9","8","stimuli/stars_9.png","73.5","[""HE"",""SUR"",""HO"",""DO""]","[""WF06"",""HF09"",""WM09"",""AF09""]","[6,9,7,2]","[4,8,6,2]","","",""
"show-reward","58","221502","0.0-58.0","p976730","A3CGQOJC28OVGN","3FVBZG9CLKK1M1GPZWGJX51HFG80HB","3LEP4MGT3I6OHSCR1IZJFLDRX35BDH","model","mismatch","uniform","","","","","","","","219758.70000004768","221763.10000014305","","","","","","","","","","","","9","","stimuli/stars_9.png","73.5","","","","","stimuli/HF09_SUR.jpg","",""
"explore-choice","59","225692","0.0-59.0","p976730","A3CGQOJC28OVGN","3FVBZG9CLKK1M1GPZWGJX51HFG80HB","3LEP4MGT3I6OHSCR1IZJFLDRX35BDH","model","mismatch","uniform","","","","","","","3675.7000000476837","221764.5","225440.20000004768","[""stimuli/WF06_HE.jpg"",""stimuli/AF09_SUR.jpg"",""stimuli/WM09_DO.jpg"",""stimuli/HF09_HO.jpg""]","stimuli/WF06_HE.jpg","stimuli/AF09_SUR.jpg","stimuli/WM09_DO.jpg","stimuli/HF09_HO.jpg","pos1","stimuli/WF06_HE.jpg","HE","WF06","0","1.5","3","4","stimuli/stars_3.png","75","[""HE"",""SUR"",""DO"",""HO""]","[""WF06"",""AF09"",""WM09"",""HF09""]","[3,4,6,7]","[4,2,6,8]","","",""
"show-reward","60","227695","0.0-60.0","p976730","A3CGQOJC28OVGN","3FVBZG9CLKK1M1GPZWGJX51HFG80HB","3LEP4MGT3I6OHSCR1IZJFLDRX35BDH","model","mismatch","uniform","","","","","","","","225954.5","227956.60000014305","","","","","","","","","","","","3","","stimuli/stars_3.png","75","","","","","stimuli/WF06_HE.jpg","",""
"explore-choice","61","231406","0.0-61.0","p976730","A3CGQOJC28OVGN","3FVBZG9CLKK1M1GPZWGJX51HFG80HB","3LEP4MGT3I6OHSCR1IZJFLDRX35BDH","model","mismatch","uniform","","","","","","","3199.100000143051","227957.79999995232","231156.90000009537","[""stimuli/WF06_HE.jpg"",""stimuli/WM09_HO.jpg"",""stimuli/HF09_DO.jpg"",""stimuli/AF09_SUR.jpg""]","stimuli/WF06_HE.jpg","stimuli/WM09_HO.jpg","stimuli/HF09_DO.jpg","stimuli/AF09_SUR.jpg","pos4","stimuli/AF09_SUR.jpg","SUR","AF09","3","2","4","2","stimuli/stars_4.png","77","[""HE"",""HO"",""DO"",""SUR""]","[""WF06"",""WM09"",""HF09"",""AF09""]","[4,6,7,4]","[4,6,8,2]","","",""
"show-reward","62","233422","0.0-62.0","p976730","A3CGQOJC28OVGN","3FVBZG9CLKK1M1GPZWGJX51HFG80HB","3LEP4MGT3I6OHSCR1IZJFLDRX35BDH","model","mismatch","uniform","","","","","","","","231668.70000004768","233684","","","","","","","","","","","","4","","stimuli/stars_4.png","77","","","","","stimuli/AF09_SUR.jpg","",""
"explore-choice","63","235906","0.0-63.0","p976730","A3CGQOJC28OVGN","3FVBZG9CLKK1M1GPZWGJX51HFG80HB","3LEP4MGT3I6OHSCR1IZJFLDRX35BDH","model","mismatch","uniform","","","","","","","1967.7000000476837","233685.40000009537","235653.10000014305","[""stimuli/WF06_HO.jpg"",""stimuli/WM09_HE.jpg"",""stimuli/AF09_DO.jpg"",""stimuli/HF09_SUR.jpg""]","stimuli/WF06_HO.jpg","stimuli/WM09_HE.jpg","stimuli/AF09_DO.jpg","stimuli/HF09_SUR.jpg","pos4","stimuli/HF09_SUR.jpg","SUR","HF09","3","3","6","8","stimuli/stars_6.png","80","[""HO"",""HE"",""DO"",""SUR""]","[""WF06"",""WM09"",""AF09"",""HF09""]","[4,4,3,6]","[4,6,2,8]","","",""
"show-reward","64","237918","0.0-64.0","p976730","A3CGQOJC28OVGN","3FVBZG9CLKK1M1GPZWGJX51HFG80HB","3LEP4MGT3I6OHSCR1IZJFLDRX35BDH","model","mismatch","uniform","","","","","","","","236169","238179.79999995232","","","","","","","","","","","","6","","stimuli/stars_6.png","80","","","","","stimuli/HF09_SUR.jpg","",""
"explore-choice","65","241308","0.0-65.0","p976730","A3CGQOJC28OVGN","3FVBZG9CLKK1M1GPZWGJX51HFG80HB","3LEP4MGT3I6OHSCR1IZJFLDRX35BDH","model","mismatch","uniform","","","","","","","2883.100000143051","238181.5","241064.60000014305","[""stimuli/WF06_SUR.jpg"",""stimuli/AF09_HE.jpg"",""stimuli/WM09_HO.jpg"",""stimuli/HF09_DO.jpg""]","stimuli/WF06_SUR.jpg","stimuli/AF09_HE.jpg","stimuli/WM09_HO.jpg","stimuli/HF09_DO.jpg","pos2","stimuli/AF09_HE.jpg","HE","AF09","1","1.5","3","2","stimuli/stars_3.png","81.5","[""SUR"",""HE"",""HO"",""DO""]","[""WF06"",""AF09"",""WM09"",""HF09""]","[2,3,5,10]","[4,2,6,8]","","",""
"show-reward","66","243312","0.0-66.0","p976730","A3CGQOJC28OVGN","3FVBZG9CLKK1M1GPZWGJX51HFG80HB","3LEP4MGT3I6OHSCR1IZJFLDRX35BDH","model","mismatch","uniform","","","","","","","","241570.90000009537","243573.90000009537","","","","","","","","","","","","3","","stimuli/stars_3.png","81.5","","","","","stimuli/AF09_HE.jpg","",""
"explore-choice","67","245317","0.0-67.0","p976730","A3CGQOJC28OVGN","3FVBZG9CLKK1M1GPZWGJX51HFG80HB","3LEP4MGT3I6OHSCR1IZJFLDRX35BDH","model","mismatch","uniform","","","","","","","1501.6000001430511","243574.79999995232","245076.40000009537","[""stimuli/HF09_DO.jpg"",""stimuli/AF09_HO.jpg"",""stimuli/WM09_HE.jpg"",""stimuli/WF06_SUR.jpg""]","stimuli/HF09_DO.jpg","stimuli/AF09_HO.jpg","stimuli/WM09_HE.jpg","stimuli/WF06_SUR.jpg","pos3","stimuli/WM09_HE.jpg","HE","WM09","2","4","8","6","stimuli/stars_8.png","85.5","[""DO"",""HO"",""HE"",""SUR""]","[""HF09"",""AF09"",""WM09"",""WF06""]","[10,4,8,6]","[8,2,6,4]","","",""
"show-reward","68","247329","0.0-68.0","p976730","A3CGQOJC28OVGN","3FVBZG9CLKK1M1GPZWGJX51HFG80HB","3LEP4MGT3I6OHSCR1IZJFLDRX35BDH","model","mismatch","uniform","","","","","","","","245580.5","247590.40000009537","","","","","","","","","","","","8","","stimuli/stars_8.png","85.5","","","","","stimuli/WM09_HE.jpg","",""
"explore-choice","69","249514","0.0-69.0","p976730","A3CGQOJC28OVGN","3FVBZG9CLKK1M1GPZWGJX51HFG80HB","3LEP4MGT3I6OHSCR1IZJFLDRX35BDH","model","mismatch","uniform","","","","","","","1682.5","247592","249274.5","[""stimuli/HF09_HO.jpg"",""stimuli/WF06_SUR.jpg"",""stimuli/AF09_DO.jpg"",""stimuli/WM09_HE.jpg""]","stimuli/HF09_HO.jpg","stimuli/WF06_SUR.jpg","stimuli/AF09_DO.jpg","stimuli/WM09_HE.jpg","pos4","stimuli/WM09_HE.jpg","HE","WM09","3","4","8","6","stimuli/stars_8.png","89.5","[""HO"",""SUR"",""DO"",""HE""]","[""HF09"",""WF06"",""AF09"",""WM09""]","[10,6,3,8]","[8,4,2,6]","","",""
"show-reward","70","251531","0.0-70.0","p976730","A3CGQOJC28OVGN","3FVBZG9CLKK1M1GPZWGJX51HFG80HB","3LEP4MGT3I6OHSCR1IZJFLDRX35BDH","model","mismatch","uniform","","","","","","","","249777.40000009537","251792.79999995232","","","","","","","","","","","","8","","stimuli/stars_8.png","89.5","","","","","stimuli/WM09_HE.jpg","",""
"explore-choice","71","254361","0.0-71.0","p976730","A3CGQOJC28OVGN","3FVBZG9CLKK1M1GPZWGJX51HFG80HB","3LEP4MGT3I6OHSCR1IZJFLDRX35BDH","model","mismatch","uniform","","","","","","","2328","251794.10000014305","254122.10000014305","[""stimuli/WM09_DO.jpg"",""stimuli/AF09_SUR.jpg"",""stimuli/WF06_HO.jpg"",""stimuli/HF09_HE.jpg""]","stimuli/WM09_DO.jpg","stimuli/AF09_SUR.jpg","stimuli/WF06_HO.jpg","stimuli/HF09_HE.jpg","pos4","stimuli/HF09_HE.jpg","HE","HF09","3","4","8","8","stimuli/stars_8.png","93.5","[""DO"",""SUR"",""HO"",""HE""]","[""WM09"",""AF09"",""WF06"",""HF09""]","[8,0,6,8]","[6,2,4,8]","","",""
"show-reward","72","256368","0.0-72.0","p976730","A3CGQOJC28OVGN","3FVBZG9CLKK1M1GPZWGJX51HFG80HB","3LEP4MGT3I6OHSCR1IZJFLDRX35BDH","model","mismatch","uniform","","","","","","","","254624.70000004768","256629.60000014305","","","","","","","","","","","","8","","stimuli/stars_8.png","93.5","","","","","stimuli/HF09_HE.jpg","",""
"explore-choice","73","258958","0.0-73.0","p976730","A3CGQOJC28OVGN","3FVBZG9CLKK1M1GPZWGJX51HFG80HB","3LEP4MGT3I6OHSCR1IZJFLDRX35BDH","model","mismatch","uniform","","","","","","","2074.7999999523163","256630.90000009537","258705.70000004768","[""stimuli/WF06_SUR.jpg"",""stimuli/HF09_HO.jpg"",""stimuli/WM09_DO.jpg"",""stimuli/AF09_HE.jpg""]","stimuli/WF06_SUR.jpg","stimuli/HF09_HO.jpg","stimuli/WM09_DO.jpg","stimuli/AF09_HE.jpg","pos2","stimuli/HF09_HO.jpg","HO","HF09","1","5","10","8","stimuli/stars_10.png","98.5","[""SUR"",""HO"",""DO"",""HE""]","[""WF06"",""HF09"",""WM09"",""AF09""]","[4,10,5,1]","[4,8,6,2]","","",""
"show-reward","74","260967","0.0-74.0","p976730","A3CGQOJC28OVGN","3FVBZG9CLKK1M1GPZWGJX51HFG80HB","3LEP4MGT3I6OHSCR1IZJFLDRX35BDH","model","mismatch","uniform","","","","","","","","259221.5","261229.10000014305","","","","","","","","","","","","10","","stimuli/stars_10.png","98.5","","","","","stimuli/HF09_HO.jpg","",""
"explore-choice","75","263605","0.0-75.0","p976730","A3CGQOJC28OVGN","3FVBZG9CLKK1M1GPZWGJX51HFG80HB","3LEP4MGT3I6OHSCR1IZJFLDRX35BDH","model","mismatch","uniform","","","","","","","2135","261229.90000009537","263364.90000009537","[""stimuli/AF09_HE.jpg"",""stimuli/WF06_HO.jpg"",""stimuli/WM09_SUR.jpg"",""stimuli/HF09_DO.jpg""]","stimuli/AF09_HE.jpg","stimuli/WF06_HO.jpg","stimuli/WM09_SUR.jpg","stimuli/HF09_DO.jpg","pos3","stimuli/WM09_SUR.jpg","SUR","WM09","2","3","6","6","stimuli/stars_6.png","101.5","[""HE"",""HO"",""SUR"",""DO""]","[""AF09"",""WF06"",""WM09"",""HF09""]","[3,3,6,10]","[2,4,6,8]","","",""
"show-reward","76","265620","0.0-76.0","p976730","A3CGQOJC28OVGN","3FVBZG9CLKK1M1GPZWGJX51HFG80HB","3LEP4MGT3I6OHSCR1IZJFLDRX35BDH","model","mismatch","uniform","","","","","","","","263867.60000014305","265881.7999999523","","","","","","","","","","","","6","","stimuli/stars_6.png","101.5","","","","","stimuli/WM09_SUR.jpg","",""
"explore-choice","77","267782","0.0-77.0","p976730","A3CGQOJC28OVGN","3FVBZG9CLKK1M1GPZWGJX51HFG80HB","3LEP4MGT3I6OHSCR1IZJFLDRX35BDH","model","mismatch","uniform","","","","","","","1650.7999999523163","265882.40000009537","267533.2000000477","[""stimuli/AF09_DO.jpg"",""stimuli/WM09_SUR.jpg"",""stimuli/WF06_HO.jpg"",""stimuli/HF09_HE.jpg""]","stimuli/AF09_DO.jpg","stimuli/WM09_SUR.jpg","stimuli/WF06_HO.jpg","stimuli/HF09_HE.jpg","pos4","stimuli/HF09_HE.jpg","HE","HF09","3","3","6","8","stimuli/stars_6.png","104.5","[""DO"",""SUR"",""HO"",""HE""]","[""AF09"",""WM09"",""WF06"",""HF09""]","[4,6,5,6]","[2,6,4,8]","","",""
"show-reward","78","269792","0.0-78.0","p976730","A3CGQOJC28OVGN","3FVBZG9CLKK1M1GPZWGJX51HFG80HB","3LEP4MGT3I6OHSCR1IZJFLDRX35BDH","model","mismatch","uniform","","","","","","","","268045.10000014305","270053.7999999523","","","","","","","","","","","","6","","stimuli/stars_6.png","104.5","","","","","stimuli/HF09_HE.jpg","",""
"explore-choice","79","271955","0.0-79.0","p976730","A3CGQOJC28OVGN","3FVBZG9CLKK1M1GPZWGJX51HFG80HB","3LEP4MGT3I6OHSCR1IZJFLDRX35BDH","model","mismatch","uniform","","","","","","","1651.3999998569489","270054.60000014305","271706","[""stimuli/WM09_HO.jpg"",""stimuli/AF09_HE.jpg"",""stimuli/WF06_DO.jpg"",""stimuli/HF09_SUR.jpg""]","stimuli/WM09_HO.jpg","stimuli/AF09_HE.jpg","stimuli/WF06_DO.jpg","stimuli/HF09_SUR.jpg","pos4","stimuli/HF09_SUR.jpg","SUR","HF09","3","3","6","8","stimuli/stars_6.png","107.5","[""HO"",""HE"",""DO"",""SUR""]","[""WM09"",""AF09"",""WF06"",""HF09""]","[8,3,6,6]","[6,2,4,8]","","",""
"show-reward","80","273970","0.0-80.0","p976730","A3CGQOJC28OVGN","3FVBZG9CLKK1M1GPZWGJX51HFG80HB","3LEP4MGT3I6OHSCR1IZJFLDRX35BDH","model","mismatch","uniform","","","","","","","","272217.7000000477","274231.7999999523","","","","","","","","","","","","6","","stimuli/stars_6.png","107.5","","","","","stimuli/HF09_SUR.jpg","",""
"explore-choice","81","276342","0.0-81.0","p976730","A3CGQOJC28OVGN","3FVBZG9CLKK1M1GPZWGJX51HFG80HB","3LEP4MGT3I6OHSCR1IZJFLDRX35BDH","model","mismatch","uniform","","","","","","","1858.8000001907349","274232.7999999523","276091.60000014305","[""stimuli/AF09_HE.jpg"",""stimuli/HF09_HO.jpg"",""stimuli/WF06_DO.jpg"",""stimuli/WM09_SUR.jpg""]","stimuli/AF09_HE.jpg","stimuli/HF09_HO.jpg","stimuli/WF06_DO.jpg","stimuli/WM09_SUR.jpg","pos4","stimuli/WM09_SUR.jpg","SUR","WM09","3","3.5","7","6","stimuli/stars_7.png","111","[""HE"",""HO"",""DO"",""SUR""]","[""AF09"",""HF09"",""WF06"",""WM09""]","[3,6,6,7]","[2,8,4,6]","","",""
"show-reward","82","278357","0.0-82.0","p976730","A3CGQOJC28OVGN","3FVBZG9CLKK1M1GPZWGJX51HFG80HB","3LEP4MGT3I6OHSCR1IZJFLDRX35BDH","model","mismatch","uniform","","","","","","","","276605.10000014305","278618.90000009537","","","","","","","","","","","","7","","stimuli/stars_7.png","111","","","","","stimuli/WM09_SUR.jpg","",""
"explore-choice","83","280720","0.0-83.0","p976730","A3CGQOJC28OVGN","3FVBZG9CLKK1M1GPZWGJX51HFG80HB","3LEP4MGT3I6OHSCR1IZJFLDRX35BDH","model","mismatch","uniform","","","","","","","1847.7999999523163","278620.10000014305","280467.90000009537","[""stimuli/WF06_HE.jpg"",""stimuli/WM09_DO.jpg"",""stimuli/AF09_HO.jpg"",""stimuli/HF09_SUR.jpg""]","stimuli/WF06_HE.jpg","stimuli/WM09_DO.jpg","stimuli/AF09_HO.jpg","stimuli/HF09_SUR.jpg","pos4","stimuli/HF09_SUR.jpg","SUR","HF09","3","5","10","8","stimuli/stars_10.png","116","[""HE"",""DO"",""HO"",""SUR""]","[""WF06"",""WM09"",""AF09"",""HF09""]","[4,5,1,10]","[4,6,2,8]","","",""
"show-reward","84","282730","0.0-84.0","p976730","A3CGQOJC28OVGN","3FVBZG9CLKK1M1GPZWGJX51HFG80HB","3LEP4MGT3I6OHSCR1IZJFLDRX35BDH","model","mismatch","uniform","","","","","","","","280982.60000014305","282992.2000000477","","","","","","","","","","","","10","","stimuli/stars_10.png","116","","","","","stimuli/HF09_SUR.jpg","",""
"explore-choice","85","284328","0.0-85.0","p976730","A3CGQOJC28OVGN","3FVBZG9CLKK1M1GPZWGJX51HFG80HB","3LEP4MGT3I6OHSCR1IZJFLDRX35BDH","model","mismatch","uniform","","","","","","","1094.5999999046326","282993.2000000477","284087.7999999523","[""stimuli/HF09_SUR.jpg"",""stimuli/WF06_DO.jpg"",""stimuli/AF09_HO.jpg"",""stimuli/WM09_HE.jpg""]","stimuli/HF09_SUR.jpg","stimuli/WF06_DO.jpg","stimuli/AF09_HO.jpg","stimuli/WM09_HE.jpg","pos4","stimuli/WM09_HE.jpg","HE","WM09","3","4","8","6","stimuli/stars_8.png","120","[""SUR"",""DO"",""HO"",""HE""]","[""HF09"",""WF06"",""AF09"",""WM09""]","[8,2,0,8]","[8,4,2,6]","","",""
"show-reward","86","286334","0.0-86.0","p976730","A3CGQOJC28OVGN","3FVBZG9CLKK1M1GPZWGJX51HFG80HB","3LEP4MGT3I6OHSCR1IZJFLDRX35BDH","model","mismatch","uniform","","","","","","","","284591.10000014305","286595.7000000477","","","","","","","","","","","","8","","stimuli/stars_8.png","120","","","","","stimuli/WM09_HE.jpg","",""
"explore-choice","87","290055","0.0-87.0","p976730","A3CGQOJC28OVGN","3FVBZG9CLKK1M1GPZWGJX51HFG80HB","3LEP4MGT3I6OHSCR1IZJFLDRX35BDH","model","mismatch","uniform","","","","","","","3207.100000143051","286596.5","289803.60000014305","[""stimuli/HF09_DO.jpg"",""stimuli/WM09_HE.jpg"",""stimuli/AF09_SUR.jpg"",""stimuli/WF06_HO.jpg""]","stimuli/HF09_DO.jpg","stimuli/WM09_HE.jpg","stimuli/AF09_SUR.jpg","stimuli/WF06_HO.jpg","pos2","stimuli/WM09_HE.jpg","HE","WM09","1","3","6","6","stimuli/stars_6.png","123","[""DO"",""HE"",""SUR"",""HO""]","[""HF09"",""WM09"",""AF09"",""WF06""]","[9,6,0,4]","[8,6,2,4]","","",""
"show-reward","88","292072","0.0-88.0","p976730","A3CGQOJC28OVGN","3FVBZG9CLKK1M1GPZWGJX51HFG80HB","3LEP4MGT3I6OHSCR1IZJFLDRX35BDH","model","mismatch","uniform","","","","","","","","290318.60000014305","292334.40000009537","","","","","","","","","","","","6","","stimuli/stars_6.png","123","","","","","stimuli/WM09_HE.jpg","",""
"explore-choice","89","293724","0.0-89.0","p976730","A3CGQOJC28OVGN","3FVBZG9CLKK1M1GPZWGJX51HFG80HB","3LEP4MGT3I6OHSCR1IZJFLDRX35BDH","model","mismatch","uniform","","","","","","","1138.7000000476837","292335","293473.7000000477","[""stimuli/WM09_SUR.jpg"",""stimuli/HF09_DO.jpg"",""stimuli/WF06_HE.jpg"",""stimuli/AF09_HO.jpg""]","stimuli/WM09_SUR.jpg","stimuli/HF09_DO.jpg","stimuli/WF06_HE.jpg","stimuli/AF09_HO.jpg","pos2","stimuli/HF09_DO.jpg","DO","HF09","1","3","6","8","stimuli/stars_6.png","126","[""SUR"",""DO"",""HE"",""HO""]","[""WM09"",""HF09"",""WF06"",""AF09""]","[5,6,3,3]","[6,8,4,2]","","",""
"show-reward","90","295727","0.0-90.0","p976730","A3CGQOJC28OVGN","3FVBZG9CLKK1M1GPZWGJX51HFG80HB","3LEP4MGT3I6OHSCR1IZJFLDRX35BDH","model","mismatch","uniform","","","","","","","","293986.7000000477","295989.60000014305","","","","","","","","","","","","6","","stimuli/stars_6.png","126","","","","","stimuli/HF09_DO.jpg","",""
"explore-choice","91","298312","0.0-91.0","p976730","A3CGQOJC28OVGN","3FVBZG9CLKK1M1GPZWGJX51HFG80HB","3LEP4MGT3I6OHSCR1IZJFLDRX35BDH","model","mismatch","uniform","","","","","","","2068.7999999523163","295990.60000014305","298059.40000009537","[""stimuli/WM09_SUR.jpg"",""stimuli/HF09_HE.jpg"",""stimuli/AF09_HO.jpg"",""stimuli/WF06_DO.jpg""]","stimuli/WM09_SUR.jpg","stimuli/HF09_HE.jpg","stimuli/AF09_HO.jpg","stimuli/WF06_DO.jpg","pos1","stimuli/WM09_SUR.jpg","SUR","WM09","0","4","8","6","stimuli/stars_8.png","130","[""SUR"",""HE"",""HO"",""DO""]","[""WM09"",""HF09"",""AF09"",""WF06""]","[8,8,0,4]","[6,8,2,4]","","",""
"show-reward","92","300326","0.0-92.0","p976730","A3CGQOJC28OVGN","3FVBZG9CLKK1M1GPZWGJX51HFG80HB","3LEP4MGT3I6OHSCR1IZJFLDRX35BDH","model","mismatch","uniform","","","","","","","","298575","300588.5","","","","","","","","","","","","8","","stimuli/stars_8.png","130","","","","","stimuli/WM09_SUR.jpg","",""
"explore-choice","93","307765","0.0-93.0","p976730","A3CGQOJC28OVGN","3FVBZG9CLKK1M1GPZWGJX51HFG80HB","3LEP4MGT3I6OHSCR1IZJFLDRX35BDH","model","mismatch","uniform","","","","","","","6924.299999952316","300590","307514.2999999523","[""stimuli/HF09_SUR.jpg"",""stimuli/WF06_HO.jpg"",""stimuli/WM09_DO.jpg"",""stimuli/AF09_HE.jpg""]","stimuli/HF09_SUR.jpg","stimuli/WF06_HO.jpg","stimuli/WM09_DO.jpg","stimuli/AF09_HE.jpg","pos1","stimuli/HF09_SUR.jpg","SUR","HF09","0","4.5","9","8","stimuli/stars_9.png","134.5","[""SUR"",""HO"",""DO"",""HE""]","[""HF09"",""WF06"",""WM09"",""AF09""]","[9,2,7,3]","[8,4,6,2]","","",""
"show-reward","94","309781","0.0-94.0","p976730","A3CGQOJC28OVGN","3FVBZG9CLKK1M1GPZWGJX51HFG80HB","3LEP4MGT3I6OHSCR1IZJFLDRX35BDH","model","mismatch","uniform","","","","","","","","308027.90000009537","310042.5","","","","","","","","","","","","9","","stimuli/stars_9.png","134.5","","","","","stimuli/HF09_SUR.jpg","",""
"explore-choice","95","314552","0.0-95.0","p976730","A3CGQOJC28OVGN","3FVBZG9CLKK1M1GPZWGJX51HFG80HB","3LEP4MGT3I6OHSCR1IZJFLDRX35BDH","model","mismatch","uniform","","","","","","","4259.300000190735","310043.7999999523","314303.10000014305","[""stimuli/WF06_DO.jpg"",""stimuli/HF09_HE.jpg"",""stimuli/AF09_SUR.jpg"",""stimuli/WM09_HO.jpg""]","stimuli/WF06_DO.jpg","stimuli/HF09_HE.jpg","stimuli/AF09_SUR.jpg","stimuli/WM09_HO.jpg","pos2","stimuli/HF09_HE.jpg","HE","HF09","1","4.5","9","8","stimuli/stars_9.png","139","[""DO"",""HE"",""SUR"",""HO""]","[""WF06"",""HF09"",""AF09"",""WM09""]","[3,9,4,8]","[4,8,2,6]","","",""
"show-reward","96","316563","0.0-96.0","p976730","A3CGQOJC28OVGN","3FVBZG9CLKK1M1GPZWGJX51HFG80HB","3LEP4MGT3I6OHSCR1IZJFLDRX35BDH","model","mismatch","uniform","","","","","","","","314814.7000000477","316825.40000009537","","","","","","","","","","","","9","","stimuli/stars_9.png","139","","","","","stimuli/HF09_HE.jpg","",""
"explore-choice","97","320783","0.0-97.0","p976730","A3CGQOJC28OVGN","3FVBZG9CLKK1M1GPZWGJX51HFG80HB","3LEP4MGT3I6OHSCR1IZJFLDRX35BDH","model","mismatch","uniform","","","","","","","3707.2000000476837","316826","320533.2000000477","[""stimuli/WM09_HE.jpg"",""stimuli/AF09_SUR.jpg"",""stimuli/HF09_HO.jpg"",""stimuli/WF06_DO.jpg""]","stimuli/WM09_HE.jpg","stimuli/AF09_SUR.jpg","stimuli/HF09_HO.jpg","stimuli/WF06_DO.jpg","pos3","stimuli/HF09_HO.jpg","HO","HF09","2","3.5","7","8","stimuli/stars_7.png","142.5","[""HE"",""SUR"",""HO"",""DO""]","[""WM09"",""AF09"",""HF09"",""WF06""]","[7,0,7,5]","[6,2,8,4]","","",""
"show-reward","98","322793","0.0-98.0","p976730","A3CGQOJC28OVGN","3FVBZG9CLKK1M1GPZWGJX51HFG80HB","3LEP4MGT3I6OHSCR1IZJFLDRX35BDH","model","mismatch","uniform","","","","","","","","321046.10000014305","323054.90000009537","","","","","","","","","","","","7","","stimuli/stars_7.png","142.5","","","","","stimuli/HF09_HO.jpg","",""
"explore-choice","99","324998","0.0-99.0","p976730","A3CGQOJC28OVGN","3FVBZG9CLKK1M1GPZWGJX51HFG80HB","3LEP4MGT3I6OHSCR1IZJFLDRX35BDH","model","mismatch","uniform","","","","","","","1696.4000000953674","323056.2999999523","324752.7000000477","[""stimuli/AF09_HO.jpg"",""stimuli/WF06_SUR.jpg"",""stimuli/HF09_HE.jpg"",""stimuli/WM09_DO.jpg""]","stimuli/AF09_HO.jpg","stimuli/WF06_SUR.jpg","stimuli/HF09_HE.jpg","stimuli/WM09_DO.jpg","pos3","stimuli/HF09_HE.jpg","HE","HF09","2","3","6","8","stimuli/stars_6.png","145.5","[""HO"",""SUR"",""HE"",""DO""]","[""AF09"",""WF06"",""HF09"",""WM09""]","[0,2,6,6]","[2,4,8,6]","","",""
"show-reward","100","327015","0.0-100.0","p976730","A3CGQOJC28OVGN","3FVBZG9CLKK1M1GPZWGJX51HFG80HB","3LEP4MGT3I6OHSCR1IZJFLDRX35BDH","model","mismatch","uniform","","","","","","","","325260.7999999523","327277.2000000477","","","","","","","","","","","","6","","stimuli/stars_6.png","145.5","","","","","stimuli/HF09_HE.jpg","",""
"explore-choice","101","329083","0.0-101.0","p976730","A3CGQOJC28OVGN","3FVBZG9CLKK1M1GPZWGJX51HFG80HB","3LEP4MGT3I6OHSCR1IZJFLDRX35BDH","model","mismatch","uniform","","","","","","","1561.7999999523163","327278.10000014305","328839.90000009537","[""stimuli/AF09_DO.jpg"",""stimuli/HF09_HE.jpg"",""stimuli/WM09_HO.jpg"",""stimuli/WF06_SUR.jpg""]","stimuli/AF09_DO.jpg","stimuli/HF09_HE.jpg","stimuli/WM09_HO.jpg","stimuli/WF06_SUR.jpg","pos2","stimuli/HF09_HE.jpg","HE","HF09","1","3.5","7","8","stimuli/stars_7.png","149","[""DO"",""HE"",""HO"",""SUR""]","[""AF09"",""HF09"",""WM09"",""WF06""]","[2,7,6,6]","[2,8,6,4]","","",""
"show-reward","102","331096","0.0-102.0","p976730","A3CGQOJC28OVGN","3FVBZG9CLKK1M1GPZWGJX51HFG80HB","3LEP4MGT3I6OHSCR1IZJFLDRX35BDH","model","mismatch","uniform","","","","","","","","329346.2999999523","331357.7000000477","","","","","","","","","","","","7","","stimuli/stars_7.png","149","","","","","stimuli/HF09_HE.jpg","",""
"explore-choice","103","337885","0.0-103.0","p976730","A3CGQOJC28OVGN","3FVBZG9CLKK1M1GPZWGJX51HFG80HB","3LEP4MGT3I6OHSCR1IZJFLDRX35BDH","model","mismatch","uniform","","","","","","","6279","331358.60000014305","337637.60000014305","[""stimuli/AM05_AO.jpg"",""stimuli/WF14_SC.jpg"",""stimuli/HM02_FO.jpg"",""stimuli/HF04_CC.jpg""]","stimuli/AM05_AO.jpg","stimuli/WF14_SC.jpg","stimuli/HM02_FO.jpg","stimuli/HF04_CC.jpg","pos1","stimuli/AM05_AO.jpg","AO","AM05","0","2","4","4","stimuli/stars_4.png","151","[""AO"",""SC"",""FO"",""CC""]","[""AM05"",""WF14"",""HM02"",""HF04""]","[4,4,2,8]","[4,6,2,8]","","",""
"show-reward","104","339892","0.0-104.0","p976730","A3CGQOJC28OVGN","3FVBZG9CLKK1M1GPZWGJX51HFG80HB","3LEP4MGT3I6OHSCR1IZJFLDRX35BDH","model","mismatch","uniform","","","","","","","","338148.2999999523","340153.7000000477","","","","","","","","","","","","4","","stimuli/stars_4.png","151","","","","","stimuli/AM05_AO.jpg","",""
"explore-choice","105","343280","0.0-105.0","p976730","A3CGQOJC28OVGN","3FVBZG9CLKK1M1GPZWGJX51HFG80HB","3LEP4MGT3I6OHSCR1IZJFLDRX35BDH","model","mismatch","uniform","","","","","","","2871.800000190735","340154.7999999523","343026.60000014305","[""stimuli/HM02_CC.jpg"",""stimuli/HF04_FO.jpg"",""stimuli/AM05_SC.jpg"",""stimuli/WF14_AO.jpg""]","stimuli/HM02_CC.jpg","stimuli/HF04_FO.jpg","stimuli/AM05_SC.jpg","stimuli/WF14_AO.jpg","pos2","stimuli/HF04_FO.jpg","FO","HF04","1","0","0","2","stimuli/stars_0.png","151","[""CC"",""FO"",""SC"",""AO""]","[""HM02"",""HF04"",""AM05"",""WF14""]","[9,0,4,3]","[8,2,6,4]","","",""
"show-reward","106","345287","0.0-106.0","p976730","A3CGQOJC28OVGN","3FVBZG9CLKK1M1GPZWGJX51HFG80HB","3LEP4MGT3I6OHSCR1IZJFLDRX35BDH","model","mismatch","uniform","","","","","","","","343542.7999999523","345549","","","","","","","","","","","","0","","stimuli/stars_0.png","151","","","","","stimuli/HF04_FO.jpg","",""
"explore-choice","107","347624","0.0-107.0","p976730","A3CGQOJC28OVGN","3FVBZG9CLKK1M1GPZWGJX51HFG80HB","3LEP4MGT3I6OHSCR1IZJFLDRX35BDH","model","mismatch","uniform","","","","","","","1822.8999998569489","345550.10000014305","347373","[""stimuli/AM05_SC.jpg"",""stimuli/HF04_AO.jpg"",""stimuli/HM02_FO.jpg"",""stimuli/WF14_CC.jpg""]","stimuli/AM05_SC.jpg","stimuli/HF04_AO.jpg","stimuli/HM02_FO.jpg","stimuli/WF14_CC.jpg","pos3","stimuli/HM02_FO.jpg","FO","HM02","2","0","0","2","stimuli/stars_0.png","151","[""SC"",""AO"",""FO"",""CC""]","[""AM05"",""HF04"",""HM02"",""WF14""]","[4,4,0,10]","[6,4,2,8]","","",""
"show-reward","108","349627","0.0-108.0","p976730","A3CGQOJC28OVGN","3FVBZG9CLKK1M1GPZWGJX51HFG80HB","3LEP4MGT3I6OHSCR1IZJFLDRX35BDH","model","mismatch","uniform","","","","","","","","347886.7000000477","349889","","","","","","","","","","","","0","","stimuli/stars_0.png","151","","","","","stimuli/HM02_FO.jpg","",""
"explore-choice","109","353160","0.0-109.0","p976730","A3CGQOJC28OVGN","3FVBZG9CLKK1M1GPZWGJX51HFG80HB","3LEP4MGT3I6OHSCR1IZJFLDRX35BDH","model","mismatch","uniform","","","","","","","3028","349889.60000014305","352917.60000014305","[""stimuli/WF14_FO.jpg"",""stimuli/HF04_SC.jpg"",""stimuli/AM05_AO.jpg"",""stimuli/HM02_CC.jpg""]","stimuli/WF14_FO.jpg","stimuli/HF04_SC.jpg","stimuli/AM05_AO.jpg","stimuli/HM02_CC.jpg","pos1","stimuli/WF14_FO.jpg","FO","WF14","0","0","0","2","stimuli/stars_0.png","151","[""FO"",""SC"",""AO"",""CC""]","[""WF14"",""HF04"",""AM05"",""HM02""]","[0,6,5,8]","[2,6,4,8]","","",""
"show-reward","110","355173","0.0-110.0","p976730","A3CGQOJC28OVGN","3FVBZG9CLKK1M1GPZWGJX51HFG80HB","3LEP4MGT3I6OHSCR1IZJFLDRX35BDH","model","mismatch","uniform","","","","","","","","353422.5","355435.10000014305","","","","","","","","","","","","0","","stimuli/stars_0.png","151","","","","","stimuli/WF14_FO.jpg","",""
"explore-choice","111","357816","0.0-111.0","p976730","A3CGQOJC28OVGN","3FVBZG9CLKK1M1GPZWGJX51HFG80HB","3LEP4MGT3I6OHSCR1IZJFLDRX35BDH","model","mismatch","uniform","","","","","","","2135.2999999523163","355436.5","357571.7999999523","[""stimuli/HM02_AO.jpg"",""stimuli/WF14_FO.jpg"",""stimuli/HF04_CC.jpg"",""stimuli/AM05_SC.jpg""]","stimuli/HM02_AO.jpg","stimuli/WF14_FO.jpg","stimuli/HF04_CC.jpg","stimuli/AM05_SC.jpg","pos4","stimuli/AM05_SC.jpg","SC","AM05","3","2","4","6","stimuli/stars_4.png","153","[""AO"",""FO"",""CC"",""SC""]","[""HM02"",""WF14"",""HF04"",""AM05""]","[3,3,6,4]","[4,2,8,6]","","",""
"show-reward","112","359827","0.0-112.0","p976730","A3CGQOJC28OVGN","3FVBZG9CLKK1M1GPZWGJX51HFG80HB","3LEP4MGT3I6OHSCR1IZJFLDRX35BDH","model","mismatch","uniform","","","","","","","","358078.7999999523","360088.40000009537","","","","","","","","","","","","4","","stimuli/stars_4.png","153","","","","","stimuli/AM05_SC.jpg","",""
"explore-choice","113","361588","0.0-113.0","p976730","A3CGQOJC28OVGN","3FVBZG9CLKK1M1GPZWGJX51HFG80HB","3LEP4MGT3I6OHSCR1IZJFLDRX35BDH","model","mismatch","uniform","","","","","","","1245.7999999523163","360089.7000000477","361335.5","[""stimuli/HM02_SC.jpg"",""stimuli/AM05_FO.jpg"",""stimuli/HF04_CC.jpg"",""stimuli/WF14_AO.jpg""]","stimuli/HM02_SC.jpg","stimuli/AM05_FO.jpg","stimuli/HF04_CC.jpg","stimuli/WF14_AO.jpg","pos2","stimuli/AM05_FO.jpg","FO","AM05","1","0.5","1","2","stimuli/stars_1.png","153.5","[""SC"",""FO"",""CC"",""AO""]","[""HM02"",""AM05"",""HF04"",""WF14""]","[6,1,6,4]","[6,2,8,4]","","",""
"show-reward","114","363595","0.0-114.0","p976730","A3CGQOJC28OVGN","3FVBZG9CLKK1M1GPZWGJX51HFG80HB","3LEP4MGT3I6OHSCR1IZJFLDRX35BDH","model","mismatch","uniform","","","","","","","","361850.90000009537","363857.2999999523","","","","","","","","","","","","1","","stimuli/stars_1.png","153.5","","","","","stimuli/AM05_FO.jpg","",""
"explore-choice","115","365519","0.0-115.0","p976730","A3CGQOJC28OVGN","3FVBZG9CLKK1M1GPZWGJX51HFG80HB","3LEP4MGT3I6OHSCR1IZJFLDRX35BDH","model","mismatch","uniform","","","","","","","1407.4000000953674","363858","365265.40000009537","[""stimuli/AM05_CC.jpg"",""stimuli/HM02_SC.jpg"",""stimuli/HF04_FO.jpg"",""stimuli/WF14_AO.jpg""]","stimuli/AM05_CC.jpg","stimuli/HM02_SC.jpg","stimuli/HF04_FO.jpg","stimuli/WF14_AO.jpg","pos1","stimuli/AM05_CC.jpg","CC","AM05","0","3.5","7","8","stimuli/stars_7.png","157","[""CC"",""SC"",""FO"",""AO""]","[""AM05"",""HM02"",""HF04"",""WF14""]","[7,6,3,2]","[8,6,2,4]","","",""
"show-reward","116","367534","0.0-116.0","p976730","A3CGQOJC28OVGN","3FVBZG9CLKK1M1GPZWGJX51HFG80HB","3LEP4MGT3I6OHSCR1IZJFLDRX35BDH","model","mismatch","uniform","","","","","","","","365781.40000009537","367795.5","","","","","","","","","","","","7","","stimuli/stars_7.png","157","","","","","stimuli/AM05_CC.jpg","",""
"explore-choice","117","368951","0.0-117.0","p976730","A3CGQOJC28OVGN","3FVBZG9CLKK1M1GPZWGJX51HFG80HB","3LEP4MGT3I6OHSCR1IZJFLDRX35BDH","model","mismatch","uniform","","","","","","","906.6000001430511","367796.7999999523","368703.40000009537","[""stimuli/AM05_CC.jpg"",""stimuli/WF14_SC.jpg"",""stimuli/HF04_AO.jpg"",""stimuli/HM02_FO.jpg""]","stimuli/AM05_CC.jpg","stimuli/WF14_SC.jpg","stimuli/HF04_AO.jpg","stimuli/HM02_FO.jpg","pos1","stimuli/AM05_CC.jpg","CC","AM05","0","3.5","7","8","stimuli/stars_7.png","160.5","[""CC"",""SC"",""AO"",""FO""]","[""AM05"",""WF14"",""HF04"",""HM02""]","[7,7,3,1]","[8,6,4,2]","","",""
"show-reward","118","370971","0.0-118.0","p976730","A3CGQOJC28OVGN","3FVBZG9CLKK1M1GPZWGJX51HFG80HB","3LEP4MGT3I6OHSCR1IZJFLDRX35BDH","model","mismatch","uniform","","","","","","","","369214.2000000477","371232.90000009537","","","","","","","","","","","","7","","stimuli/stars_7.png","160.5","","","","","stimuli/AM05_CC.jpg","",""
"explore-choice","119","372342","0.0-119.0","p976730","A3CGQOJC28OVGN","3FVBZG9CLKK1M1GPZWGJX51HFG80HB","3LEP4MGT3I6OHSCR1IZJFLDRX35BDH","model","mismatch","uniform","","","","","","","857.0999999046326","371234.2000000477","372091.2999999523","[""stimuli/AM05_CC.jpg"",""stimuli/HF04_SC.jpg"",""stimuli/WF14_AO.jpg"",""stimuli/HM02_FO.jpg""]","stimuli/AM05_CC.jpg","stimuli/HF04_SC.jpg","stimuli/WF14_AO.jpg","stimuli/HM02_FO.jpg","pos1","stimuli/AM05_CC.jpg","CC","AM05","0","4.5","9","8","stimuli/stars_9.png","165","[""CC"",""SC"",""AO"",""FO""]","[""AM05"",""HF04"",""WF14"",""HM02""]","[9,7,6,1]","[8,6,4,2]","","",""
"show-reward","120","374358","0.0-120.0","p976730","A3CGQOJC28OVGN","3FVBZG9CLKK1M1GPZWGJX51HFG80HB","3LEP4MGT3I6OHSCR1IZJFLDRX35BDH","model","mismatch","uniform","","","","","","","","372604.90000009537","374620.10000014305","","","","","","","","","","","","9","","stimuli/stars_9.png","165","","","","","stimuli/AM05_CC.jpg","",""
"explore-choice","121","376979","0.0-121.0","p976730","A3CGQOJC28OVGN","3FVBZG9CLKK1M1GPZWGJX51HFG80HB","3LEP4MGT3I6OHSCR1IZJFLDRX35BDH","model","mismatch","uniform","","","","","","","2111.399999856949","374620.90000009537","376732.2999999523","[""stimuli/WF14_CC.jpg"",""stimuli/HF04_SC.jpg"",""stimuli/AM05_AO.jpg"",""stimuli/HM02_FO.jpg""]","stimuli/WF14_CC.jpg","stimuli/HF04_SC.jpg","stimuli/AM05_AO.jpg","stimuli/HM02_FO.jpg","pos3","stimuli/AM05_AO.jpg","AO","AM05","2","2.5","5","4","stimuli/stars_5.png","167.5","[""CC"",""SC"",""AO"",""FO""]","[""WF14"",""HF04"",""AM05"",""HM02""]","[6,7,5,3]","[8,6,4,2]","","",""
"show-reward","122","378985","0.0-122.0","p976730","A3CGQOJC28OVGN","3FVBZG9CLKK1M1GPZWGJX51HFG80HB","3LEP4MGT3I6OHSCR1IZJFLDRX35BDH","model","mismatch","uniform","","","","","","","","377241.10000014305","379246.40000009537","","","","","","","","","","","","5","","stimuli/stars_5.png","167.5","","","","","stimuli/AM05_AO.jpg","",""
"explore-choice","123","380507","0.0-123.0","p976730","A3CGQOJC28OVGN","3FVBZG9CLKK1M1GPZWGJX51HFG80HB","3LEP4MGT3I6OHSCR1IZJFLDRX35BDH","model","mismatch","uniform","","","","","","","1010.5999999046326","379247.90000009537","380258.5","[""stimuli/HF04_AO.jpg"",""stimuli/WF14_CC.jpg"",""stimuli/AM05_FO.jpg"",""stimuli/HM02_SC.jpg""]","stimuli/HF04_AO.jpg","stimuli/WF14_CC.jpg","stimuli/AM05_FO.jpg","stimuli/HM02_SC.jpg","pos3","stimuli/AM05_FO.jpg","FO","AM05","2","1.5","3","2","stimuli/stars_3.png","169","[""AO"",""CC"",""FO"",""SC""]","[""HF04"",""WF14"",""AM05"",""HM02""]","[3,7,3,5]","[4,8,2,6]","","",""
"show-reward","124","382516","0.0-124.0","p976730","A3CGQOJC28OVGN","3FVBZG9CLKK1M1GPZWGJX51HFG80HB","3LEP4MGT3I6OHSCR1IZJFLDRX35BDH","model","mismatch","uniform","","","","","","","","380770.40000009537","382777.2999999523","","","","","","","","","","","","3","","stimuli/stars_3.png","169","","","","","stimuli/AM05_FO.jpg","",""
"explore-choice","125","384321","0.0-125.0","p976730","A3CGQOJC28OVGN","3FVBZG9CLKK1M1GPZWGJX51HFG80HB","3LEP4MGT3I6OHSCR1IZJFLDRX35BDH","model","mismatch","uniform","","","","","","","1301.7000000476837","382778.2000000477","384079.90000009537","[""stimuli/WF14_SC.jpg"",""stimuli/AM05_FO.jpg"",""stimuli/HF04_CC.jpg"",""stimuli/HM02_AO.jpg""]","stimuli/WF14_SC.jpg","stimuli/AM05_FO.jpg","stimuli/HF04_CC.jpg","stimuli/HM02_AO.jpg","pos2","stimuli/AM05_FO.jpg","FO","AM05","1","2","4","2","stimuli/stars_4.png","171","[""SC"",""FO"",""CC"",""AO""]","[""WF14"",""AM05"",""HF04"",""HM02""]","[4,4,7,6]","[6,2,8,4]","","",""
"show-reward","126","386340","0.0-126.0","p976730","A3CGQOJC28OVGN","3FVBZG9CLKK1M1GPZWGJX51HFG80HB","3LEP4MGT3I6OHSCR1IZJFLDRX35BDH","model","mismatch","uniform","","","","","","","","384584.2999999523","386601.2000000477","","","","","","","","","","","","4","","stimuli/stars_4.png","171","","","","","stimuli/AM05_FO.jpg","",""
"explore-choice","127","388042","0.0-127.0","p976730","A3CGQOJC28OVGN","3FVBZG9CLKK1M1GPZWGJX51HFG80HB","3LEP4MGT3I6OHSCR1IZJFLDRX35BDH","model","mismatch","uniform","","","","","","","1197.2999999523163","386602.5","387799.7999999523","[""stimuli/WF14_FO.jpg"",""stimuli/AM05_CC.jpg"",""stimuli/HM02_SC.jpg"",""stimuli/HF04_AO.jpg""]","stimuli/WF14_FO.jpg","stimuli/AM05_CC.jpg","stimuli/HM02_SC.jpg","stimuli/HF04_AO.jpg","pos2","stimuli/AM05_CC.jpg","CC","AM05","1","3.5","7","8","stimuli/stars_7.png","174.5","[""FO"",""CC"",""SC"",""AO""]","[""WF14"",""AM05"",""HM02"",""HF04""]","[1,7,6,6]","[2,8,6,4]","","",""
"show-reward","128","390059","0.0-128.0","p976730","A3CGQOJC28OVGN","3FVBZG9CLKK1M1GPZWGJX51HFG80HB","3LEP4MGT3I6OHSCR1IZJFLDRX35BDH","model","mismatch","uniform","","","","","","","","388304.90000009537","390320.7000000477","","","","","","","","","","","","7","","stimuli/stars_7.png","174.5","","","","","stimuli/AM05_CC.jpg","",""
"explore-choice","129","391680","0.0-129.0","p976730","A3CGQOJC28OVGN","3FVBZG9CLKK1M1GPZWGJX51HFG80HB","3LEP4MGT3I6OHSCR1IZJFLDRX35BDH","model","mismatch","uniform","","","","","","","1119.7999999523163","390321.5","391441.2999999523","[""stimuli/AM05_FO.jpg"",""stimuli/WF14_CC.jpg"",""stimuli/HF04_SC.jpg"",""stimuli/HM02_AO.jpg""]","stimuli/AM05_FO.jpg","stimuli/WF14_CC.jpg","stimuli/HF04_SC.jpg","stimuli/HM02_AO.jpg","pos1","stimuli/AM05_FO.jpg","FO","AM05","0","1","2","2","stimuli/stars_2.png","175.5","[""FO"",""CC"",""SC"",""AO""]","[""AM05"",""WF14"",""HF04"",""HM02""]","[2,6,6,3]","[2,8,6,4]","","",""
"show-reward","130","393690","0.0-130.0","p976730","A3CGQOJC28OVGN","3FVBZG9CLKK1M1GPZWGJX51HFG80HB","3LEP4MGT3I6OHSCR1IZJFLDRX35BDH","model","mismatch","uniform","","","","","","","","391942.7000000477","393951.2999999523","","","","","","","","","","","","2","","stimuli/stars_2.png","175.5","","","","","stimuli/AM05_FO.jpg","",""
"explore-choice","131","395386","0.0-131.0","p976730","A3CGQOJC28OVGN","3FVBZG9CLKK1M1GPZWGJX51HFG80HB","3LEP4MGT3I6OHSCR1IZJFLDRX35BDH","model","mismatch","uniform","","","","","","","1187.7999999523163","393952.40000009537","395140.2000000477","[""stimuli/HM02_SC.jpg"",""stimuli/WF14_CC.jpg"",""stimuli/AM05_AO.jpg"",""stimuli/HF04_FO.jpg""]","stimuli/HM02_SC.jpg","stimuli/WF14_CC.jpg","stimuli/AM05_AO.jpg","stimuli/HF04_FO.jpg","pos3","stimuli/AM05_AO.jpg","AO","AM05","2","3","6","4","stimuli/stars_6.png","178.5","[""SC"",""CC"",""AO"",""FO""]","[""HM02"",""WF14"",""AM05"",""HF04""]","[8,8,6,4]","[6,8,4,2]","","",""
"show-reward","132","397404","0.0-132.0","p976730","A3CGQOJC28OVGN","3FVBZG9CLKK1M1GPZWGJX51HFG80HB","3LEP4MGT3I6OHSCR1IZJFLDRX35BDH","model","mismatch","uniform","","","","","","","","395649.10000014305","397665.7000000477","","","","","","","","","","","","6","","stimuli/stars_6.png","178.5","","","","","stimuli/AM05_AO.jpg","",""
"explore-choice","133","400555","0.0-133.0","p976730","A3CGQOJC28OVGN","3FVBZG9CLKK1M1GPZWGJX51HFG80HB","3LEP4MGT3I6OHSCR1IZJFLDRX35BDH","model","mismatch","uniform","","","","","","","2645.7000000476837","397667.2000000477","400312.90000009537","[""stimuli/WF14_SC.jpg"",""stimuli/AM05_FO.jpg"",""stimuli/HF04_AO.jpg"",""stimuli/HM02_CC.jpg""]","stimuli/WF14_SC.jpg","stimuli/AM05_FO.jpg","stimuli/HF04_AO.jpg","stimuli/HM02_CC.jpg","pos4","stimuli/HM02_CC.jpg","CC","HM02","3","3.5","7","8","stimuli/stars_7.png","182","[""SC"",""FO"",""AO"",""CC""]","[""WF14"",""AM05"",""HF04"",""HM02""]","[4,2,4,7]","[6,2,4,8]","","",""
"show-reward","134","402562","0.0-134.0","p976730","A3CGQOJC28OVGN","3FVBZG9CLKK1M1GPZWGJX51HFG80HB","3LEP4MGT3I6OHSCR1IZJFLDRX35BDH","model","mismatch","uniform","","","","","","","","400817.40000009537","402823.7000000477","","","","","","","","","","","","7","","stimuli/stars_7.png","182","","","","","stimuli/HM02_CC.jpg","",""
"explore-choice","135","404704","0.0-135.0","p976730","A3CGQOJC28OVGN","3FVBZG9CLKK1M1GPZWGJX51HFG80HB","3LEP4MGT3I6OHSCR1IZJFLDRX35BDH","model","mismatch","uniform","","","","","","","1628","402825.2000000477","404453.2000000477","[""stimuli/AM05_AO.jpg"",""stimuli/HF04_FO.jpg"",""stimuli/WF14_SC.jpg"",""stimuli/HM02_CC.jpg""]","stimuli/AM05_AO.jpg","stimuli/HF04_FO.jpg","stimuli/WF14_SC.jpg","stimuli/HM02_CC.jpg","pos4","stimuli/HM02_CC.jpg","CC","HM02","3","3","6","8","stimuli/stars_6.png","185","[""AO"",""FO"",""SC"",""CC""]","[""AM05"",""HF04"",""WF14"",""HM02""]","[5,1,6,6]","[4,2,6,8]","","",""
"show-reward","136","406715","0.0-136.0","p976730","A3CGQOJC28OVGN","3FVBZG9CLKK1M1GPZWGJX51HFG80HB","3LEP4MGT3I6OHSCR1IZJFLDRX35BDH","model","mismatch","uniform","","","","","","","","404966.7000000477","406977.2000000477","","","","","","","","","","","","6","","stimuli/stars_6.png","185","","","","","stimuli/HM02_CC.jpg","",""
"explore-choice","137","409727","0.0-137.0","p976730","A3CGQOJC28OVGN","3FVBZG9CLKK1M1GPZWGJX51HFG80HB","3LEP4MGT3I6OHSCR1IZJFLDRX35BDH","model","mismatch","uniform","","","","","","","2496.4000000953674","406977.7999999523","409474.2000000477","[""stimuli/HF04_AO.jpg"",""stimuli/HM02_CC.jpg"",""stimuli/AM05_SC.jpg"",""stimuli/WF14_FO.jpg""]","stimuli/HF04_AO.jpg","stimuli/HM02_CC.jpg","stimuli/AM05_SC.jpg","stimuli/WF14_FO.jpg","pos3","stimuli/AM05_SC.jpg","SC","AM05","2","3","6","6","stimuli/stars_6.png","188","[""AO"",""CC"",""SC"",""FO""]","[""HF04"",""HM02"",""AM05"",""WF14""]","[4,7,6,4]","[4,8,6,2]","","",""
"show-reward","138","411730","0.0-138.0","p976730","A3CGQOJC28OVGN","3FVBZG9CLKK1M1GPZWGJX51HFG80HB","3LEP4MGT3I6OHSCR1IZJFLDRX35BDH","model","mismatch","uniform","","","","","","","","409989.7999999523","411991.40000009537","","","","","","","","","","","","6","","stimuli/stars_6.png","188","","","","","stimuli/AM05_SC.jpg","",""
"explore-choice","139","415359","0.0-139.0","p976730","A3CGQOJC28OVGN","3FVBZG9CLKK1M1GPZWGJX51HFG80HB","3LEP4MGT3I6OHSCR1IZJFLDRX35BDH","model","mismatch","uniform","","","","","","","3113.399999856949","411992.40000009537","415105.7999999523","[""stimuli/AM05_CC.jpg"",""stimuli/WF14_SC.jpg"",""stimuli/HF04_FO.jpg"",""stimuli/HM02_AO.jpg""]","stimuli/AM05_CC.jpg","stimuli/WF14_SC.jpg","stimuli/HF04_FO.jpg","stimuli/HM02_AO.jpg","pos1","stimuli/AM05_CC.jpg","CC","AM05","0","4","8","8","stimuli/stars_8.png","192","[""CC"",""SC"",""FO"",""AO""]","[""AM05"",""WF14"",""HF04"",""HM02""]","[8,8,2,6]","[8,6,2,4]","","",""
"show-reward","140","417371","0.0-140.0","p976730","A3CGQOJC28OVGN","3FVBZG9CLKK1M1GPZWGJX51HFG80HB","3LEP4MGT3I6OHSCR1IZJFLDRX35BDH","model","mismatch","uniform","","","","","","","","415621.40000009537","417632.7999999523","","","","","","","","","","","","8","","stimuli/stars_8.png","192","","","","","stimuli/AM05_CC.jpg","",""
"explore-choice","141","418888","0.0-141.0","p976730","A3CGQOJC28OVGN","3FVBZG9CLKK1M1GPZWGJX51HFG80HB","3LEP4MGT3I6OHSCR1IZJFLDRX35BDH","model","mismatch","uniform","","","","","","","1000.8000001907349","417633.7999999523","418634.60000014305","[""stimuli/AM05_CC.jpg"",""stimuli/WF14_FO.jpg"",""stimuli/HM02_AO.jpg"",""stimuli/HF04_SC.jpg""]","stimuli/AM05_CC.jpg","stimuli/WF14_FO.jpg","stimuli/HM02_AO.jpg","stimuli/HF04_SC.jpg","pos1","stimuli/AM05_CC.jpg","CC","AM05","0","4.5","9","8","stimuli/stars_9.png","196.5","[""CC"",""FO"",""AO"",""SC""]","[""AM05"",""WF14"",""HM02"",""HF04""]","[9,4,5,8]","[8,2,4,6]","","",""
"show-reward","142","420892","0.0-142.0","p976730","A3CGQOJC28OVGN","3FVBZG9CLKK1M1GPZWGJX51HFG80HB","3LEP4MGT3I6OHSCR1IZJFLDRX35BDH","model","mismatch","uniform","","","","","","","","419150.5","421153.7000000477","","","","","","","","","","","","9","","stimuli/stars_9.png","196.5","","","","","stimuli/AM05_CC.jpg","",""
"explore-choice","143","422596","0.0-143.0","p976730","A3CGQOJC28OVGN","3FVBZG9CLKK1M1GPZWGJX51HFG80HB","3LEP4MGT3I6OHSCR1IZJFLDRX35BDH","model","mismatch","uniform","","","","","","","1202.7999999523163","421154.5","422357.2999999523","[""stimuli/HM02_FO.jpg"",""stimuli/HF04_CC.jpg"",""stimuli/AM05_SC.jpg"",""stimuli/WF14_AO.jpg""]","stimuli/HM02_FO.jpg","stimuli/HF04_CC.jpg","stimuli/AM05_SC.jpg","stimuli/WF14_AO.jpg","pos3","stimuli/AM05_SC.jpg","SC","AM05","2","4","8","6","stimuli/stars_8.png","200.5","[""FO"",""CC"",""SC"",""AO""]","[""HM02"",""HF04"",""AM05"",""WF14""]","[0,6,8,2]","[2,8,6,4]","","",""
"show-reward","144","424610","0.0-144.0","p976730","A3CGQOJC28OVGN","3FVBZG9CLKK1M1GPZWGJX51HFG80HB","3LEP4MGT3I6OHSCR1IZJFLDRX35BDH","model","mismatch","uniform","","","","","","","","422858.60000014305","424872.10000014305","","","","","","","","","","","","8","","stimuli/stars_8.png","200.5","","","","","stimuli/AM05_SC.jpg","",""
"explore-choice","145","430975","0.0-145.0","p976730","A3CGQOJC28OVGN","3FVBZG9CLKK1M1GPZWGJX51HFG80HB","3LEP4MGT3I6OHSCR1IZJFLDRX35BDH","model","mismatch","uniform","","","","","","","5849.800000190735","424872.7999999523","430722.60000014305","[""stimuli/AM05_AO.jpg"",""stimuli/HM02_SC.jpg"",""stimuli/HF04_CC.jpg"",""stimuli/WF14_FO.jpg""]","stimuli/AM05_AO.jpg","stimuli/HM02_SC.jpg","stimuli/HF04_CC.jpg","stimuli/WF14_FO.jpg","pos2","stimuli/HM02_SC.jpg","SC","HM02","1","2.5","5","6","stimuli/stars_5.png","203","[""AO"",""SC"",""CC"",""FO""]","[""AM05"",""HM02"",""HF04"",""WF14""]","[6,5,9,1]","[4,6,8,2]","","",""
"show-reward","146","432984","0.0-146.0","p976730","A3CGQOJC28OVGN","3FVBZG9CLKK1M1GPZWGJX51HFG80HB","3LEP4MGT3I6OHSCR1IZJFLDRX35BDH","model","mismatch","uniform","","","","","","","","431238.2000000477","433245.7999999523","","","","","","","","","","","","5","","stimuli/stars_5.png","203","","","","","stimuli/HM02_SC.jpg","",""
"explore-choice","147","434812","0.0-147.0","p976730","A3CGQOJC28OVGN","3FVBZG9CLKK1M1GPZWGJX51HFG80HB","3LEP4MGT3I6OHSCR1IZJFLDRX35BDH","model","mismatch","uniform","","","","","","","1317","433246.5","434563.5","[""stimuli/HF04_SC.jpg"",""stimuli/AM05_FO.jpg"",""stimuli/HM02_CC.jpg"",""stimuli/WF14_AO.jpg""]","stimuli/HF04_SC.jpg","stimuli/AM05_FO.jpg","stimuli/HM02_CC.jpg","stimuli/WF14_AO.jpg","pos2","stimuli/AM05_FO.jpg","FO","AM05","1","0.5","1","2","stimuli/stars_1.png","203.5","[""SC"",""FO"",""CC"",""AO""]","[""HF04"",""AM05"",""HM02"",""WF14""]","[6,1,7,4]","[6,2,8,4]","","",""
"show-reward","148","436823","0.0-148.0","p976730","A3CGQOJC28OVGN","3FVBZG9CLKK1M1GPZWGJX51HFG80HB","3LEP4MGT3I6OHSCR1IZJFLDRX35BDH","model","mismatch","uniform","","","","","","","","435074.2999999523","437085.10000014305","","","","","","","","","","","","1","","stimuli/stars_1.png","203.5","","","","","stimuli/AM05_FO.jpg","",""
"explore-choice","149","440059","0.0-149.0","p976730","A3CGQOJC28OVGN","3FVBZG9CLKK1M1GPZWGJX51HFG80HB","3LEP4MGT3I6OHSCR1IZJFLDRX35BDH","model","mismatch","uniform","","","","","","","2723.7999999523163","437085.7000000477","439809.5","[""stimuli/HM02_AO.jpg"",""stimuli/HF04_FO.jpg"",""stimuli/WF14_CC.jpg"",""stimuli/AM05_SC.jpg""]","stimuli/HM02_AO.jpg","stimuli/HF04_FO.jpg","stimuli/WF14_CC.jpg","stimuli/AM05_SC.jpg","pos4","stimuli/AM05_SC.jpg","SC","AM05","3","2.5","5","6","stimuli/stars_5.png","206","[""AO"",""FO"",""CC"",""SC""]","[""HM02"",""HF04"",""WF14"",""AM05""]","[4,3,9,5]","[4,2,8,6]","","",""
"show-reward","150","442065","0.0-150.0","p976730","A3CGQOJC28OVGN","3FVBZG9CLKK1M1GPZWGJX51HFG80HB","3LEP4MGT3I6OHSCR1IZJFLDRX35BDH","model","mismatch","uniform","","","","","","","","440321.5","442326.60000014305","","","","","","","","","","","","5","","stimuli/stars_5.png","206","","","","","stimuli/AM05_SC.jpg","",""
"explore-choice","151","445849","0.0-151.0","p976730","A3CGQOJC28OVGN","3FVBZG9CLKK1M1GPZWGJX51HFG80HB","3LEP4MGT3I6OHSCR1IZJFLDRX35BDH","model","mismatch","uniform","","","","","","","3272.4000000953674","442327.2000000477","445599.60000014305","[""stimuli/WF14_SC.jpg"",""stimuli/HM02_AO.jpg"",""stimuli/HF04_CC.jpg"",""stimuli/AM05_FO.jpg""]","stimuli/WF14_SC.jpg","stimuli/HM02_AO.jpg","stimuli/HF04_CC.jpg","stimuli/AM05_FO.jpg","pos3","stimuli/HF04_CC.jpg","CC","HF04","2","3.5","7","8","stimuli/stars_7.png","209.5","[""SC"",""AO"",""CC"",""FO""]","[""WF14"",""HM02"",""HF04"",""AM05""]","[4,6,7,4]","[6,4,8,2]","","",""
"show-reward","152","447858","0.0-152.0","p976730","A3CGQOJC28OVGN","3FVBZG9CLKK1M1GPZWGJX51HFG80HB","3LEP4MGT3I6OHSCR1IZJFLDRX35BDH","model","mismatch","uniform","","","","","","","","446111.2000000477","448119.10000014305","","","","","","","","","","","","7","","stimuli/stars_7.png","209.5","","","","","stimuli/HF04_CC.jpg","",""
"explore-choice","153","453207","0.0-153.0","p976730","A3CGQOJC28OVGN","3FVBZG9CLKK1M1GPZWGJX51HFG80HB","3LEP4MGT3I6OHSCR1IZJFLDRX35BDH","model","mismatch","uniform","","","","","","","4846.899999856949","448120.60000014305","452967.5","[""stimuli/AM05_SC.jpg"",""stimuli/HF04_CC.jpg"",""stimuli/HM02_FO.jpg"",""stimuli/WF14_AO.jpg""]","stimuli/AM05_SC.jpg","stimuli/HF04_CC.jpg","stimuli/HM02_FO.jpg","stimuli/WF14_AO.jpg","pos1","stimuli/AM05_SC.jpg","SC","AM05","0","4","8","6","stimuli/stars_8.png","213.5","[""SC"",""CC"",""FO"",""AO""]","[""AM05"",""HF04"",""HM02"",""WF14""]","[8,6,0,2]","[6,8,2,4]","","",""
"show-reward","154","455211","0.0-154.0","p976730","A3CGQOJC28OVGN","3FVBZG9CLKK1M1GPZWGJX51HFG80HB","3LEP4MGT3I6OHSCR1IZJFLDRX35BDH","model","mismatch","uniform","","","","","","","","453469.90000009537","455473.10000014305","","","","","","","","","","","","8","","stimuli/stars_8.png","213.5","","","","","stimuli/AM05_SC.jpg","",""
"explore-choice","155","472817","0.0-155.0","p976730","A3CGQOJC28OVGN","3FVBZG9CLKK1M1GPZWGJX51HFG80HB","3LEP4MGT3I6OHSCR1IZJFLDRX35BDH","model","mismatch","uniform","","","","","","","17101.099999904633","455474.40000009537","472575.5","[""stimuli/WF14_AO.jpg"",""stimuli/AM05_FO.jpg"",""stimuli/HM02_CC.jpg"",""stimuli/HF04_SC.jpg""]","stimuli/WF14_AO.jpg","stimuli/AM05_FO.jpg","stimuli/HM02_CC.jpg","stimuli/HF04_SC.jpg","pos3","stimuli/HM02_CC.jpg","CC","HM02","2","3.5","7","8","stimuli/stars_7.png","217","[""AO"",""FO"",""CC"",""SC""]","[""WF14"",""AM05"",""HM02"",""HF04""]","[4,1,7,6]","[4,2,8,6]","","",""
"show-reward","156","474820","0.0-156.0","p976730","A3CGQOJC28OVGN","3FVBZG9CLKK1M1GPZWGJX51HFG80HB","3LEP4MGT3I6OHSCR1IZJFLDRX35BDH","model","mismatch","uniform","","","","","","","","473079.7999999523","475082.40000009537","","","","","","","","","","","","7","","stimuli/stars_7.png","217","","","","","stimuli/HM02_CC.jpg","",""
"explore-choice","157","477549","0.0-157.0","p976730","A3CGQOJC28OVGN","3FVBZG9CLKK1M1GPZWGJX51HFG80HB","3LEP4MGT3I6OHSCR1IZJFLDRX35BDH","model","mismatch","uniform","","","","","","","2225.4000000953674","475083.7000000477","477309.10000014305","[""stimuli/HF04_FO.jpg"",""stimuli/AM05_AO.jpg"",""stimuli/WF14_SC.jpg"",""stimuli/HM02_CC.jpg""]","stimuli/HF04_FO.jpg","stimuli/AM05_AO.jpg","stimuli/WF14_SC.jpg","stimuli/HM02_CC.jpg","pos4","stimuli/HM02_CC.jpg","CC","HM02","3","3","6","8","stimuli/stars_6.png","220","[""FO"",""AO"",""SC"",""CC""]","[""HF04"",""AM05"",""WF14"",""HM02""]","[1,5,6,6]","[2,4,6,8]","","",""
"show-reward","158","479562","0.0-158.0","p976730","A3CGQOJC28OVGN","3FVBZG9CLKK1M1GPZWGJX51HFG80HB","3LEP4MGT3I6OHSCR1IZJFLDRX35BDH","model","mismatch","uniform","","","","","","","","477811.5","479823.7000000477","","","","","","","","","","","","6","","stimuli/stars_6.png","220","","","","","stimuli/HM02_CC.jpg","",""
"explore-choice","159","481863","0.0-159.0","p976730","A3CGQOJC28OVGN","3FVBZG9CLKK1M1GPZWGJX51HFG80HB","3LEP4MGT3I6OHSCR1IZJFLDRX35BDH","model","mismatch","uniform","","","","","","","1791.7000000476837","479825.2000000477","481616.90000009537","[""stimuli/HM02_CC.jpg"",""stimuli/HF04_FO.jpg"",""stimuli/AM05_SC.jpg"",""stimuli/WF14_AO.jpg""]","stimuli/HM02_CC.jpg","stimuli/HF04_FO.jpg","stimuli/AM05_SC.jpg","stimuli/WF14_AO.jpg","pos1","stimuli/HM02_CC.jpg","CC","HM02","0","4.5","9","8","stimuli/stars_9.png","224.5","[""CC"",""FO"",""SC"",""AO""]","[""HM02"",""HF04"",""AM05"",""WF14""]","[9,0,4,3]","[8,2,6,4]","","",""
"show-reward","160","483873","0.0-160.0","p976730","A3CGQOJC28OVGN","3FVBZG9CLKK1M1GPZWGJX51HFG80HB","3LEP4MGT3I6OHSCR1IZJFLDRX35BDH","model","mismatch","uniform","","","","","","","","482126.2000000477","484134.90000009537","","","","","","","","","","","","9","","stimuli/stars_9.png","224.5","","","","","stimuli/HM02_CC.jpg","",""
"explore-choice","161","486023","0.0-161.0","p976730","A3CGQOJC28OVGN","3FVBZG9CLKK1M1GPZWGJX51HFG80HB","3LEP4MGT3I6OHSCR1IZJFLDRX35BDH","model","mismatch","uniform","","","","","","","1635.7999999523163","484136.2000000477","485772","[""stimuli/WF14_AO.jpg"",""stimuli/HM02_FO.jpg"",""stimuli/HF04_SC.jpg"",""stimuli/AM05_CC.jpg""]","stimuli/WF14_AO.jpg","stimuli/HM02_FO.jpg","stimuli/HF04_SC.jpg","stimuli/AM05_CC.jpg","pos4","stimuli/AM05_CC.jpg","CC","AM05","3","4.5","9","8","stimuli/stars_9.png","229","[""AO"",""FO"",""SC"",""CC""]","[""WF14"",""HM02"",""HF04"",""AM05""]","[6,1,7,9]","[4,2,6,8]","","",""
"show-reward","162","488032","0.0-162.0","p976730","A3CGQOJC28OVGN","3FVBZG9CLKK1M1GPZWGJX51HFG80HB","3LEP4MGT3I6OHSCR1IZJFLDRX35BDH","model","mismatch","uniform","","","","","","","","486286.60000014305","488294.7000000477","","","","","","","","","","","","9","","stimuli/stars_9.png","229","","","","","stimuli/AM05_CC.jpg","",""
"explore-choice","163","490089","0.0-163.0","p976730","A3CGQOJC28OVGN","3FVBZG9CLKK1M1GPZWGJX51HFG80HB","3LEP4MGT3I6OHSCR1IZJFLDRX35BDH","model","mismatch","uniform","","","","","","","1545.7999999523163","488296","489841.7999999523","[""stimuli/HF04_CC.jpg"",""stimuli/HM02_AO.jpg"",""stimuli/WF14_FO.jpg"",""stimuli/AM05_SC.jpg""]","stimuli/HF04_CC.jpg","stimuli/HM02_AO.jpg","stimuli/WF14_FO.jpg","stimuli/AM05_SC.jpg","pos4","stimuli/AM05_SC.jpg","SC","AM05","3","2","4","6","stimuli/stars_4.png","231","[""CC"",""AO"",""FO"",""SC""]","[""HF04"",""HM02"",""WF14"",""AM05""]","[6,3,3,4]","[8,4,2,6]","","",""
"show-reward","164","492091","0.0-164.0","p976730","A3CGQOJC28OVGN","3FVBZG9CLKK1M1GPZWGJX51HFG80HB","3LEP4MGT3I6OHSCR1IZJFLDRX35BDH","model","mismatch","uniform","","","","","","","","490351.7000000477","492353.40000009537","","","","","","","","","","","","4","","stimuli/stars_4.png","231","","","","","stimuli/AM05_SC.jpg","",""
"explore-choice","165","494269","0.0-165.0","p976730","A3CGQOJC28OVGN","3FVBZG9CLKK1M1GPZWGJX51HFG80HB","3LEP4MGT3I6OHSCR1IZJFLDRX35BDH","model","mismatch","uniform","","","","","","","1670.2000000476837","492354.7999999523","494025","[""stimuli/HF04_AO.jpg"",""stimuli/AM05_CC.jpg"",""stimuli/WF14_SC.jpg"",""stimuli/HM02_FO.jpg""]","stimuli/HF04_AO.jpg","stimuli/AM05_CC.jpg","stimuli/WF14_SC.jpg","stimuli/HM02_FO.jpg","pos2","stimuli/AM05_CC.jpg","CC","AM05","1","3.5","7","8","stimuli/stars_7.png","234.5","[""AO"",""CC"",""SC"",""FO""]","[""HF04"",""AM05"",""WF14"",""HM02""]","[3,7,7,1]","[4,8,6,2]","","",""
"show-reward","166","496281","0.0-166.0","p976730","A3CGQOJC28OVGN","3FVBZG9CLKK1M1GPZWGJX51HFG80HB","3LEP4MGT3I6OHSCR1IZJFLDRX35BDH","model","mismatch","uniform","","","","","","","","494532.5","496543.5","","","","","","","","","","","","7","","stimuli/stars_7.png","234.5","","","","","stimuli/AM05_CC.jpg","",""
"explore-choice","167","499198","0.0-167.0","p976730","A3CGQOJC28OVGN","3FVBZG9CLKK1M1GPZWGJX51HFG80HB","3LEP4MGT3I6OHSCR1IZJFLDRX35BDH","model","mismatch","uniform","","","","","","","2414.4000000953674","496544.7000000477","498959.10000014305","[""stimuli/WF14_SC.jpg"",""stimuli/HM02_FO.jpg"",""stimuli/HF04_CC.jpg"",""stimuli/AM05_AO.jpg""]","stimuli/WF14_SC.jpg","stimuli/HM02_FO.jpg","stimuli/HF04_CC.jpg","stimuli/AM05_AO.jpg","pos3","stimuli/HF04_CC.jpg","CC","HF04","2","4","8","8","stimuli/stars_8.png","238.5","[""SC"",""FO"",""CC"",""AO""]","[""WF14"",""HM02"",""HF04"",""AM05""]","[4,2,8,4]","[6,2,8,4]","","",""
"show-reward","168","501205","0.0-168.0","p976730","A3CGQOJC28OVGN","3FVBZG9CLKK1M1GPZWGJX51HFG80HB","3LEP4MGT3I6OHSCR1IZJFLDRX35BDH","model","mismatch","uniform","","","","","","","","499461.90000009537","501467.2000000477","","","","","","","","","","","","8","","stimuli/stars_8.png","238.5","","","","","stimuli/HF04_CC.jpg","",""
"explore-choice","169","504265","0.0-169.0","p976730","A3CGQOJC28OVGN","3FVBZG9CLKK1M1GPZWGJX51HFG80HB","3LEP4MGT3I6OHSCR1IZJFLDRX35BDH","model","mismatch","uniform","","","","","","","2558.600000143051","501468.5","504027.10000014305","[""stimuli/HM02_SC.jpg"",""stimuli/WF14_AO.jpg"",""stimuli/HF04_FO.jpg"",""stimuli/AM05_CC.jpg""]","stimuli/HM02_SC.jpg","stimuli/WF14_AO.jpg","stimuli/HF04_FO.jpg","stimuli/AM05_CC.jpg","pos4","stimuli/AM05_CC.jpg","CC","AM05","3","3.5","7","8","stimuli/stars_7.png","242","[""SC"",""AO"",""FO"",""CC""]","[""HM02"",""WF14"",""HF04"",""AM05""]","[6,2,3,7]","[6,4,2,8]","","",""
"show-reward","170","506275","0.0-170.0","p976730","A3CGQOJC28OVGN","3FVBZG9CLKK1M1GPZWGJX51HFG80HB","3LEP4MGT3I6OHSCR1IZJFLDRX35BDH","model","mismatch","uniform","","","","","","","","504528.10000014305","506537.2000000477","","","","","","","","","","","","7","","stimuli/stars_7.png","242","","","","","stimuli/AM05_CC.jpg","",""
"explore-choice","171","508076","0.0-171.0","p976730","A3CGQOJC28OVGN","3FVBZG9CLKK1M1GPZWGJX51HFG80HB","3LEP4MGT3I6OHSCR1IZJFLDRX35BDH","model","mismatch","uniform","","","","","","","1283.7999999523163","506538.5","507822.2999999523","[""stimuli/HM02_AO.jpg"",""stimuli/HF04_FO.jpg"",""stimuli/WF14_SC.jpg"",""stimuli/AM05_CC.jpg""]","stimuli/HM02_AO.jpg","stimuli/HF04_FO.jpg","stimuli/WF14_SC.jpg","stimuli/AM05_CC.jpg","pos4","stimuli/AM05_CC.jpg","CC","AM05","3","4","8","8","stimuli/stars_8.png","246","[""AO"",""FO"",""SC"",""CC""]","[""HM02"",""HF04"",""WF14"",""AM05""]","[6,2,8,8]","[4,2,6,8]","","",""
"show-reward","172","510093","0.0-172.0","p976730","A3CGQOJC28OVGN","3FVBZG9CLKK1M1GPZWGJX51HFG80HB","3LEP4MGT3I6OHSCR1IZJFLDRX35BDH","model","mismatch","uniform","","","","","","","","508339.40000009537","510354.7999999523","","","","","","","","","","","","8","","stimuli/stars_8.png","246","","","","","stimuli/AM05_CC.jpg","",""
"explore-choice","173","512876","0.0-173.0","p976730","A3CGQOJC28OVGN","3FVBZG9CLKK1M1GPZWGJX51HFG80HB","3LEP4MGT3I6OHSCR1IZJFLDRX35BDH","model","mismatch","uniform","","","","","","","2275.0999999046326","510355.60000014305","512630.7000000477","[""stimuli/AM05_FO.jpg"",""stimuli/HM02_AO.jpg"",""stimuli/WF14_CC.jpg"",""stimuli/HF04_SC.jpg""]","stimuli/AM05_FO.jpg","stimuli/HM02_AO.jpg","stimuli/WF14_CC.jpg","stimuli/HF04_SC.jpg","pos3","stimuli/WF14_CC.jpg","CC","WF14","2","3","6","8","stimuli/stars_6.png","249","[""FO"",""AO"",""CC"",""SC""]","[""AM05"",""HM02"",""WF14"",""HF04""]","[2,3,6,6]","[2,4,8,6]","","",""
"show-reward","174","514890","0.0-174.0","p976730","A3CGQOJC28OVGN","3FVBZG9CLKK1M1GPZWGJX51HFG80HB","3LEP4MGT3I6OHSCR1IZJFLDRX35BDH","model","mismatch","uniform","","","","","","","","513139.60000014305","515151.7000000477","","","","","","","","","","","","6","","stimuli/stars_6.png","249","","","","","stimuli/WF14_CC.jpg","",""
"explore-choice","175","517519","0.0-175.0","p976730","A3CGQOJC28OVGN","3FVBZG9CLKK1M1GPZWGJX51HFG80HB","3LEP4MGT3I6OHSCR1IZJFLDRX35BDH","model","mismatch","uniform","","","","","","","2121.7999999523163","515153.10000014305","517274.90000009537","[""stimuli/HM02_SC.jpg"",""stimuli/WF14_FO.jpg"",""stimuli/HF04_CC.jpg"",""stimuli/AM05_AO.jpg""]","stimuli/HM02_SC.jpg","stimuli/WF14_FO.jpg","stimuli/HF04_CC.jpg","stimuli/AM05_AO.jpg","pos3","stimuli/HF04_CC.jpg","CC","HF04","2","4.5","9","8","stimuli/stars_9.png","253.5","[""SC"",""FO"",""CC"",""AO""]","[""HM02"",""WF14"",""HF04"",""AM05""]","[5,1,9,6]","[6,2,8,4]","","",""
"show-reward","176","519531","0.0-176.0","p976730","A3CGQOJC28OVGN","3FVBZG9CLKK1M1GPZWGJX51HFG80HB","3LEP4MGT3I6OHSCR1IZJFLDRX35BDH","model","mismatch","uniform","","","","","","","","517782.7999999523","519792.90000009537","","","","","","","","","","","","9","","stimuli/stars_9.png","253.5","","","","","stimuli/HF04_CC.jpg","",""
"explore-choice","177","522158","0.0-177.0","p976730","A3CGQOJC28OVGN","3FVBZG9CLKK1M1GPZWGJX51HFG80HB","3LEP4MGT3I6OHSCR1IZJFLDRX35BDH","model","mismatch","uniform","","","","","","","2123.5","519794.2999999523","521917.7999999523","[""stimuli/AM05_FO.jpg"",""stimuli/WF14_SC.jpg"",""stimuli/HF04_AO.jpg"",""stimuli/HM02_CC.jpg""]","stimuli/AM05_FO.jpg","stimuli/WF14_SC.jpg","stimuli/HF04_AO.jpg","stimuli/HM02_CC.jpg","pos4","stimuli/HM02_CC.jpg","CC","HM02","3","3.5","7","8","stimuli/stars_7.png","257","[""FO"",""SC"",""AO"",""CC""]","[""AM05"",""WF14"",""HF04"",""HM02""]","[2,4,4,7]","[2,6,4,8]","","",""
"show-reward","178","524177","0.0-178.0","p976730","A3CGQOJC28OVGN","3FVBZG9CLKK1M1GPZWGJX51HFG80HB","3LEP4MGT3I6OHSCR1IZJFLDRX35BDH","model","mismatch","uniform","","","","","","","","522421.10000014305","524439.100000143","","","","","","","","","","","","7","","stimuli/stars_7.png","257","","","","","stimuli/HM02_CC.jpg","",""
"explore-choice","179","527521","0.0-179.0","p976730","A3CGQOJC28OVGN","3FVBZG9CLKK1M1GPZWGJX51HFG80HB","3LEP4MGT3I6OHSCR1IZJFLDRX35BDH","model","mismatch","uniform","","","","","","","2830.0999999046326","524439.9000000954","527270","[""stimuli/HF04_SC.jpg"",""stimuli/AM05_AO.jpg"",""stimuli/WF14_CC.jpg"",""stimuli/HM02_FO.jpg""]","stimuli/HF04_SC.jpg","stimuli/AM05_AO.jpg","stimuli/WF14_CC.jpg","stimuli/HM02_FO.jpg","pos3","stimuli/WF14_CC.jpg","CC","WF14","2","3","6","8","stimuli/stars_6.png","260","[""SC"",""AO"",""CC"",""FO""]","[""HF04"",""AM05"",""WF14"",""HM02""]","[7,5,6,3]","[6,4,8,2]","","",""
"show-reward","180","529525","0.0-180.0","p976730","A3CGQOJC28OVGN","3FVBZG9CLKK1M1GPZWGJX51HFG80HB","3LEP4MGT3I6OHSCR1IZJFLDRX35BDH","model","mismatch","uniform","","","","","","","","527784.5","529787.5","","","","","","","","","","","","6","","stimuli/stars_6.png","260","","","","","stimuli/WF14_CC.jpg","",""
"explore-choice","181","532902","0.0-181.0","p976730","A3CGQOJC28OVGN","3FVBZG9CLKK1M1GPZWGJX51HFG80HB","3LEP4MGT3I6OHSCR1IZJFLDRX35BDH","model","mismatch","uniform","","","","","","","2865.5","529788","532653.5","[""stimuli/AM05_SC.jpg"",""stimuli/HM02_CC.jpg"",""stimuli/HF04_AO.jpg"",""stimuli/WF14_FO.jpg""]","stimuli/AM05_SC.jpg","stimuli/HM02_CC.jpg","stimuli/HF04_AO.jpg","stimuli/WF14_FO.jpg","pos2","stimuli/HM02_CC.jpg","CC","HM02","1","3.5","7","8","stimuli/stars_7.png","263.5","[""SC"",""CC"",""AO"",""FO""]","[""AM05"",""HM02"",""HF04"",""WF14""]","[6,7,4,4]","[6,8,4,2]","","",""
"show-reward","182","534918","0.0-182.0","p976730","A3CGQOJC28OVGN","3FVBZG9CLKK1M1GPZWGJX51HFG80HB","3LEP4MGT3I6OHSCR1IZJFLDRX35BDH","model","mismatch","uniform","","","","","","","","533164.9000000954","535180.600000143","","","","","","","","","","","","7","","stimuli/stars_7.png","263.5","","","","","stimuli/HM02_CC.jpg","",""
"explore-choice","183","537433","0.0-183.0","p976730","A3CGQOJC28OVGN","3FVBZG9CLKK1M1GPZWGJX51HFG80HB","3LEP4MGT3I6OHSCR1IZJFLDRX35BDH","model","mismatch","uniform","","","","","","","2008.8000001907349","535181.2999999523","537190.100000143","[""stimuli/AM05_AO.jpg"",""stimuli/HF04_SC.jpg"",""stimuli/HM02_CC.jpg"",""stimuli/WF14_FO.jpg""]","stimuli/AM05_AO.jpg","stimuli/HF04_SC.jpg","stimuli/HM02_CC.jpg","stimuli/WF14_FO.jpg","pos3","stimuli/HM02_CC.jpg","CC","HM02","2","4","8","8","stimuli/stars_8.png","267.5","[""AO"",""SC"",""CC"",""FO""]","[""AM05"",""HF04"",""HM02"",""WF14""]","[5,6,8,0]","[4,6,8,2]","","",""
"show-reward","184","539438","0.0-184.0","p976730","A3CGQOJC28OVGN","3FVBZG9CLKK1M1GPZWGJX51HFG80HB","3LEP4MGT3I6OHSCR1IZJFLDRX35BDH","model","mismatch","uniform","","","","","","","","537697.100000143","539700.4000000954","","","","","","","","","","","","8","","stimuli/stars_8.png","267.5","","","","","stimuli/HM02_CC.jpg","",""
"explore-choice","185","542565","0.0-185.0","p976730","A3CGQOJC28OVGN","3FVBZG9CLKK1M1GPZWGJX51HFG80HB","3LEP4MGT3I6OHSCR1IZJFLDRX35BDH","model","mismatch","uniform","","","","","","","2623.5","539701.2999999523","542324.7999999523","[""stimuli/WF14_FO.jpg"",""stimuli/HF04_SC.jpg"",""stimuli/HM02_AO.jpg"",""stimuli/AM05_CC.jpg""]","stimuli/WF14_FO.jpg","stimuli/HF04_SC.jpg","stimuli/HM02_AO.jpg","stimuli/AM05_CC.jpg","pos4","stimuli/AM05_CC.jpg","CC","AM05","3","4.5","9","8","stimuli/stars_9.png","272","[""FO"",""SC"",""AO"",""CC""]","[""WF14"",""HF04"",""HM02"",""AM05""]","[4,8,5,9]","[2,6,4,8]","","",""
"show-reward","186","544570","0.0-186.0","p976730","A3CGQOJC28OVGN","3FVBZG9CLKK1M1GPZWGJX51HFG80HB","3LEP4MGT3I6OHSCR1IZJFLDRX35BDH","model","mismatch","uniform","","","","","","","","542828.9000000954","544832.600000143","","","","","","","","","","","","9","","stimuli/stars_9.png","272","","","","","stimuli/AM05_CC.jpg","",""
"explore-choice","187","547971","0.0-187.0","p976730","A3CGQOJC28OVGN","3FVBZG9CLKK1M1GPZWGJX51HFG80HB","3LEP4MGT3I6OHSCR1IZJFLDRX35BDH","model","mismatch","uniform","","","","","","","2898.7999999523163","544833.4000000954","547732.2000000477","[""stimuli/HF04_AO.jpg"",""stimuli/WF14_CC.jpg"",""stimuli/HM02_SC.jpg"",""stimuli/AM05_FO.jpg""]","stimuli/HF04_AO.jpg","stimuli/WF14_CC.jpg","stimuli/HM02_SC.jpg","stimuli/AM05_FO.jpg","pos2","stimuli/WF14_CC.jpg","CC","WF14","1","3.5","7","8","stimuli/stars_7.png","275.5","[""AO"",""CC"",""SC"",""FO""]","[""HF04"",""WF14"",""HM02"",""AM05""]","[3,7,5,3]","[4,8,6,2]","","",""
"show-reward","188","549985","0.0-188.0","p976730","A3CGQOJC28OVGN","3FVBZG9CLKK1M1GPZWGJX51HFG80HB","3LEP4MGT3I6OHSCR1IZJFLDRX35BDH","model","mismatch","uniform","","","","","","","","548234","550247.100000143","","","","","","","","","","","","7","","stimuli/stars_7.png","275.5","","","","","stimuli/WF14_CC.jpg","",""
"explore-choice","189","553226","0.0-189.0","p976730","A3CGQOJC28OVGN","3FVBZG9CLKK1M1GPZWGJX51HFG80HB","3LEP4MGT3I6OHSCR1IZJFLDRX35BDH","model","mismatch","uniform","","","","","","","2733.100000143051","550248.5","552981.600000143","[""stimuli/HM02_FO.jpg"",""stimuli/HF04_AO.jpg"",""stimuli/WF14_CC.jpg"",""stimuli/AM05_SC.jpg""]","stimuli/HM02_FO.jpg","stimuli/HF04_AO.jpg","stimuli/WF14_CC.jpg","stimuli/AM05_SC.jpg","pos3","stimuli/WF14_CC.jpg","CC","WF14","2","5","10","8","stimuli/stars_10.png","280.5","[""FO"",""AO"",""CC"",""SC""]","[""HM02"",""HF04"",""WF14"",""AM05""]","[0,4,10,4]","[2,4,8,6]","","",""
"show-reward","190","555237","0.0-190.0","p976730","A3CGQOJC28OVGN","3FVBZG9CLKK1M1GPZWGJX51HFG80HB","3LEP4MGT3I6OHSCR1IZJFLDRX35BDH","model","mismatch","uniform","","","","","","","","553490","555499.4000000954","","","","","","","","","","","","10","","stimuli/stars_10.png","280.5","","","","","stimuli/WF14_CC.jpg","",""
"explore-choice","191","557614","0.0-191.0","p976730","A3CGQOJC28OVGN","3FVBZG9CLKK1M1GPZWGJX51HFG80HB","3LEP4MGT3I6OHSCR1IZJFLDRX35BDH","model","mismatch","uniform","","","","","","","1871.0999999046326","555500.7000000477","557371.7999999523","[""stimuli/HF04_CC.jpg"",""stimuli/AM05_FO.jpg"",""stimuli/WF14_AO.jpg"",""stimuli/HM02_SC.jpg""]","stimuli/HF04_CC.jpg","stimuli/AM05_FO.jpg","stimuli/WF14_AO.jpg","stimuli/HM02_SC.jpg","pos4","stimuli/HM02_SC.jpg","SC","HM02","3","3","6","6","stimuli/stars_6.png","283.5","[""CC"",""FO"",""AO"",""SC""]","[""HF04"",""AM05"",""WF14"",""HM02""]","[6,1,4,6]","[8,2,4,6]","","",""
"show-reward","192","559630","0.0-192.0","p976730","A3CGQOJC28OVGN","3FVBZG9CLKK1M1GPZWGJX51HFG80HB","3LEP4MGT3I6OHSCR1IZJFLDRX35BDH","model","mismatch","uniform","","","","","","","","557877.4000000954","559892.7000000477","","","","","","","","","","","","6","","stimuli/stars_6.png","283.5","","","","","stimuli/HM02_SC.jpg","",""
"explore-choice","193","562157","0.0-193.0","p976730","A3CGQOJC28OVGN","3FVBZG9CLKK1M1GPZWGJX51HFG80HB","3LEP4MGT3I6OHSCR1IZJFLDRX35BDH","model","mismatch","uniform","","","","","","","2010.1000001430511","559894","561904.100000143","[""stimuli/HM02_SC.jpg"",""stimuli/AM05_CC.jpg"",""stimuli/HF04_AO.jpg"",""stimuli/WF14_FO.jpg""]","stimuli/HM02_SC.jpg","stimuli/AM05_CC.jpg","stimuli/HF04_AO.jpg","stimuli/WF14_FO.jpg","pos1","stimuli/HM02_SC.jpg","SC","HM02","0","3","6","6","stimuli/stars_6.png","286.5","[""SC"",""CC"",""AO"",""FO""]","[""HM02"",""AM05"",""HF04"",""WF14""]","[6,7,6,1]","[6,8,4,2]","","",""
"show-reward","194","564165","0.0-194.0","p976730","A3CGQOJC28OVGN","3FVBZG9CLKK1M1GPZWGJX51HFG80HB","3LEP4MGT3I6OHSCR1IZJFLDRX35BDH","model","mismatch","uniform","","","","","","","","562420.2000000477","564427.5","","","","","","","","","","","","6","","stimuli/stars_6.png","286.5","","","","","stimuli/HM02_SC.jpg","",""
"explore-choice","195","567299","0.0-195.0","p976730","A3CGQOJC28OVGN","3FVBZG9CLKK1M1GPZWGJX51HFG80HB","3LEP4MGT3I6OHSCR1IZJFLDRX35BDH","model","mismatch","uniform","","","","","","","2632.399999856949","564428.100000143","567060.5","[""stimuli/HF04_FO.jpg"",""stimuli/AM05_SC.jpg"",""stimuli/HM02_AO.jpg"",""stimuli/WF14_CC.jpg""]","stimuli/HF04_FO.jpg","stimuli/AM05_SC.jpg","stimuli/HM02_AO.jpg","stimuli/WF14_CC.jpg","pos4","stimuli/WF14_CC.jpg","CC","WF14","3","4.5","9","8","stimuli/stars_9.png","291","[""FO"",""SC"",""AO"",""CC""]","[""HF04"",""AM05"",""HM02"",""WF14""]","[3,5,4,9]","[2,6,4,8]","","",""
"show-reward","196","569310","0.0-196.0","p976730","A3CGQOJC28OVGN","3FVBZG9CLKK1M1GPZWGJX51HFG80HB","3LEP4MGT3I6OHSCR1IZJFLDRX35BDH","model","mismatch","uniform","","","","","","","","567562.4000000954","569572.4000000954","","","","","","","","","","","","9","","stimuli/stars_9.png","291","","","","","stimuli/WF14_CC.jpg","",""
"explore-choice","197","572814","0.0-197.0","p976730","A3CGQOJC28OVGN","3FVBZG9CLKK1M1GPZWGJX51HFG80HB","3LEP4MGT3I6OHSCR1IZJFLDRX35BDH","model","mismatch","uniform","","","","","","","2993.5","569573.7999999523","572567.2999999523","[""stimuli/HM02_SC.jpg"",""stimuli/WF14_CC.jpg"",""stimuli/AM05_AO.jpg"",""stimuli/HF04_FO.jpg""]","stimuli/HM02_SC.jpg","stimuli/WF14_CC.jpg","stimuli/AM05_AO.jpg","stimuli/HF04_FO.jpg","pos2","stimuli/WF14_CC.jpg","CC","WF14","1","4","8","8","stimuli/stars_8.png","295","[""SC"",""CC"",""AO"",""FO""]","[""HM02"",""WF14"",""AM05"",""HF04""]","[8,8,6,4]","[6,8,4,2]","","",""
"show-reward","198","574827","0.0-198.0","p976730","A3CGQOJC28OVGN","3FVBZG9CLKK1M1GPZWGJX51HFG80HB","3LEP4MGT3I6OHSCR1IZJFLDRX35BDH","model","mismatch","uniform","","","","","","","","573077.2999999523","575089","","","","","","","","","","","","8","","stimuli/stars_8.png","295","","","","","stimuli/WF14_CC.jpg","",""
"instructions","199","578466","0.0-199.0","p976730","A3CGQOJC28OVGN","3FVBZG9CLKK1M1GPZWGJX51HFG80HB","3LEP4MGT3I6OHSCR1IZJFLDRX35BDH","model","mismatch","uniform","","","","","","[{""page_index"":0,""viewing_time"":3638}]","3638.2999999523163","","","","","","","","","","","","","","","","","","","","","","","",""
"survey-text","200","582209","0.0-200.0-0.0","p976730","A3CGQOJC28OVGN","3FVBZG9CLKK1M1GPZWGJX51HFG80HB","3LEP4MGT3I6OHSCR1IZJFLDRX35BDH","model","mismatch","uniform","","","","","","","3740","","","","","","","","","","","","","","","","","","","","","","","{""age"":""31""}",""
"survey-text","201","593407","0.0-200.0-1.0","p976730","A3CGQOJC28OVGN","3FVBZG9CLKK1M1GPZWGJX51HFG80HB","3LEP4MGT3I6OHSCR1IZJFLDRX35BDH","model","mismatch","uniform","","","","","","","11196.5","","","","","","","","","","","","","","","","","","","","","","","{""gender"":""female""}",""
"survey-text","202","609822","0.0-200.0-2.0","p976730","A3CGQOJC28OVGN","3FVBZG9CLKK1M1GPZWGJX51HFG80HB","3LEP4MGT3I6OHSCR1IZJFLDRX35BDH","model","mismatch","uniform","","","","","","","16412.89999985695","","","","","","","","","","","","","","","","","","","","","","","{""country"":""United States""}",""
"survey-text","203","616548","0.0-200.0-3.0","p976730","A3CGQOJC28OVGN","3FVBZG9CLKK1M1GPZWGJX51HFG80HB","3LEP4MGT3I6OHSCR1IZJFLDRX35BDH","model","mismatch","uniform","","","","","","","6723.5","","","","","","","","","","","","","","","","","","","","","","","{""language"":""English"",""other_languages"":""""}",""
"survey-multi-select","204","622792","0.0-201.0","p976730","A3CGQOJC28OVGN","3FVBZG9CLKK1M1GPZWGJX51HFG80HB","3LEP4MGT3I6OHSCR1IZJFLDRX35BDH","model","mismatch","uniform","","","","","","","6238.5","","","","","","","","","","","","","","","","","","","","","","","{""race"":[""White""]}","[0]"
"survey-multi-choice","205","626274","0.0-202.0","p976730","A3CGQOJC28OVGN","3FVBZG9CLKK1M1GPZWGJX51HFG80HB","3LEP4MGT3I6OHSCR1IZJFLDRX35BDH","model","mismatch","uniform","","","","","","","3480.199999809265","","","","","","","","","","","","","","","","","","","","","","","{""education"":""Bachelor's degree""}","[0]"
"survey-text","206","794308","0.0-203.0","p976730","A3CGQOJC28OVGN","3FVBZG9CLKK1M1GPZWGJX51HFG80HB","3LEP4MGT3I6OHSCR1IZJFLDRX35BDH","model","mismatch","uniform","","","","","","","168031.30000019073","","","","","","","","","","","","","","","","","","","","","","","{""patterns"":""The first batch, the rule seemed to be - the picture with the most emotion was the highest star, the second batch, the opposite was true. I didnt figure this out till the second batch though"",""strategy"":""The first batch, the rule seemed to be - the picture with the most emotion was the highest star, the second batch, the opposite was true. I didnt figure this out till the second batch though"",""comments"":""""}",""
