"trial_type","trial_index","time_elapsed","internal_node_id","subject","workerId","hitId","assignmentId","structure_condition","match_condition","noise_type","success","timeout","failed_images","failed_audio","failed_video","view_history","rt","start_time","end_time","stimuli","image1","image2","image3","image4","choiceLocation","choiceImage","choiceEmotion","choiceModel","choice_index","reward_score","reward","reward_score_unadjusted","reward_image","score_after_trial","emotions","models","rewards","rewards_unadjusted","stimulus","response","question_order"
"pavlovia","0","6","0.0-0.0","p395476","A2PPTQXFVA9H38","3OWZNK3RYMVDNXPNEIRWZ8JM6MU2UY","3BC8WZX3V525Y9CLFGGTKPZZUQYRRF","model","match","uniform","","","","","","","","","","","","","","","","","","","","","","","","","","","","","","",""
"preload","1","8088","0.0-1.0","p395476","A2PPTQXFVA9H38","3OWZNK3RYMVDNXPNEIRWZ8JM6MU2UY","3BC8WZX3V525Y9CLFGGTKPZZUQYRRF","model","match","uniform","true","false","[]","[]","[]","","","","","","","","","","","","","","","","","","","","","","","","","",""
"fullscreen","2","13025","0.0-2.0","p395476","A2PPTQXFVA9H38","3OWZNK3RYMVDNXPNEIRWZ8JM6MU2UY","3BC8WZX3V525Y9CLFGGTKPZZUQYRRF","model","match","uniform","true","","","","","","","","","","","","","","","","","","","","","","","","","","","","","",""
"instructions","3","13971","0.0-3.0","p395476","A2PPTQXFVA9H38","3OWZNK3RYMVDNXPNEIRWZ8JM6MU2UY","3BC8WZX3V525Y9CLFGGTKPZZUQYRRF","model","match","uniform","","","","","","[{""page_index"":0,""viewing_time"":944.5}]","944.6999999284744","","","","","","","","","","","","","","","","","","","","","","","",""
"explore-choice","4","16198","0.0-4.0","p395476","A2PPTQXFVA9H38","3OWZNK3RYMVDNXPNEIRWZ8JM6MU2UY","3BC8WZX3V525Y9CLFGGTKPZZUQYRRF","model","match","uniform","","","","","","","1714.6999999284744","15402.700000047684","17117.399999976158","[""stimuli/sheep.jpg"",""stimuli/hammer.jpg"",""stimuli/basketball.jpg"",""stimuli/horse.jpg""]","stimuli/sheep.jpg","stimuli/hammer.jpg","stimuli/basketball.jpg","stimuli/horse.jpg","pos4","stimuli/horse.jpg","","","3","64","64","64","stimuli/stars_8.png","65","","","","","","",""
"explore-choice","5","17523","0.0-5.0","p395476","A2PPTQXFVA9H38","3OWZNK3RYMVDNXPNEIRWZ8JM6MU2UY","3BC8WZX3V525Y9CLFGGTKPZZUQYRRF","model","match","uniform","","","","","","","824.1000000238419","17629.899999976158","18454","[""stimuli/hammer.jpg"",""stimuli/basketball.jpg"",""stimuli/horse.jpg"",""stimuli/sheep.jpg""]","stimuli/hammer.jpg","stimuli/basketball.jpg","stimuli/horse.jpg","stimuli/sheep.jpg","pos1","stimuli/hammer.jpg","","","0","8","8","8","stimuli/stars_2.png","9","","","","","","",""
"instructions","6","25935","0.0-6.0","p395476","A2PPTQXFVA9H38","3OWZNK3RYMVDNXPNEIRWZ8JM6MU2UY","3BC8WZX3V525Y9CLFGGTKPZZUQYRRF","model","match","uniform","","","","","","[{""page_index"":0,""viewing_time"":8410.799999952316}]","8411","","","","","","","","","","","","","","","","","","","","","","","",""
"explore-choice","7","29565","0.0-7.0","p395476","A2PPTQXFVA9H38","3OWZNK3RYMVDNXPNEIRWZ8JM6MU2UY","3BC8WZX3V525Y9CLFGGTKPZZUQYRRF","model","match","uniform","","","","","","","3117","27367.200000047684","30484.200000047684","[""stimuli/HM10_SUR.jpg"",""stimuli/BF05_AO.jpg"",""stimuli/AM09_DO.jpg"",""stimuli/AM05_CC.jpg""]","stimuli/HM10_SUR.jpg","stimuli/BF05_AO.jpg","stimuli/AM09_DO.jpg","stimuli/AM05_CC.jpg","pos3","stimuli/AM09_DO.jpg","DO","AM09","2","2.5","5","6","stimuli/stars_5.png","3.5","[""SUR"",""AO"",""DO"",""CC""]","[""HM10"",""BF05"",""AM09"",""AM05""]","[3,10,5,4]","[4,8,6,2]","","",""
"show-reward","8","31580","0.0-8.0","p395476","A2PPTQXFVA9H38","3OWZNK3RYMVDNXPNEIRWZ8JM6MU2UY","3BC8WZX3V525Y9CLFGGTKPZZUQYRRF","model","match","uniform","","","","","","","","30996.899999976158","33010.60000002384","","","","","","","","","","","","5","","stimuli/stars_5.png","3.5","","","","","stimuli/AM09_DO.jpg","",""
"explore-choice","9","33733","0.0-9.0","p395476","A2PPTQXFVA9H38","3OWZNK3RYMVDNXPNEIRWZ8JM6MU2UY","3BC8WZX3V525Y9CLFGGTKPZZUQYRRF","model","match","uniform","","","","","","","1641.3999999761581","33011.60000002384","34653","[""stimuli/HM10_SUR.jpg"",""stimuli/BF05_CC.jpg"",""stimuli/AM05_AO.jpg"",""stimuli/AM09_DO.jpg""]","stimuli/HM10_SUR.jpg","stimuli/BF05_CC.jpg","stimuli/AM05_AO.jpg","stimuli/AM09_DO.jpg","pos4","stimuli/AM09_DO.jpg","DO","AM09","3","4","8","6","stimuli/stars_8.png","7.5","[""SUR"",""CC"",""AO"",""DO""]","[""HM10"",""BF05"",""AM05"",""AM09""]","[2,7,2,8]","[4,8,2,6]","","",""
"show-reward","10","35750","0.0-10.0","p395476","A2PPTQXFVA9H38","3OWZNK3RYMVDNXPNEIRWZ8JM6MU2UY","3BC8WZX3V525Y9CLFGGTKPZZUQYRRF","model","match","uniform","","","","","","","","35164.700000047684","37181.5","","","","","","","","","","","","8","","stimuli/stars_8.png","7.5","","","","","stimuli/AM09_DO.jpg","",""
"explore-choice","11","37331","0.0-11.0","p395476","A2PPTQXFVA9H38","3OWZNK3RYMVDNXPNEIRWZ8JM6MU2UY","3BC8WZX3V525Y9CLFGGTKPZZUQYRRF","model","match","uniform","","","","","","","1066.6999999284744","37182.200000047684","38248.89999997616","[""stimuli/HM10_CC.jpg"",""stimuli/BF05_DO.jpg"",""stimuli/AM09_SUR.jpg"",""stimuli/AM05_AO.jpg""]","stimuli/HM10_CC.jpg","stimuli/BF05_DO.jpg","stimuli/AM09_SUR.jpg","stimuli/AM05_AO.jpg","pos3","stimuli/AM09_SUR.jpg","SUR","AM09","2","2.5","5","6","stimuli/stars_5.png","10","[""CC"",""DO"",""SUR"",""AO""]","[""HM10"",""BF05"",""AM09"",""AM05""]","[3,6,5,0]","[4,8,6,2]","","",""
"show-reward","12","39333","0.0-12.0","p395476","A2PPTQXFVA9H38","3OWZNK3RYMVDNXPNEIRWZ8JM6MU2UY","3BC8WZX3V525Y9CLFGGTKPZZUQYRRF","model","match","uniform","","","","","","","","38762.299999952316","40764.5","","","","","","","","","","","","5","","stimuli/stars_5.png","10","","","","","stimuli/AM09_SUR.jpg","",""
"explore-choice","13","40757","0.0-13.0","p395476","A2PPTQXFVA9H38","3OWZNK3RYMVDNXPNEIRWZ8JM6MU2UY","3BC8WZX3V525Y9CLFGGTKPZZUQYRRF","model","match","uniform","","","","","","","922.6000000238419","40765.10000002384","41687.700000047684","[""stimuli/BF05_AO.jpg"",""stimuli/AM09_CC.jpg"",""stimuli/HM10_SUR.jpg"",""stimuli/AM05_DO.jpg""]","stimuli/BF05_AO.jpg","stimuli/AM09_CC.jpg","stimuli/HM10_SUR.jpg","stimuli/AM05_DO.jpg","pos1","stimuli/BF05_AO.jpg","AO","BF05","0","3.5","7","8","stimuli/stars_7.png","13.5","[""AO"",""CC"",""SUR"",""DO""]","[""BF05"",""AM09"",""HM10"",""AM05""]","[7,6,6,4]","[8,6,4,2]","","",""
"show-reward","14","42768","0.0-14.0","p395476","A2PPTQXFVA9H38","3OWZNK3RYMVDNXPNEIRWZ8JM6MU2UY","3BC8WZX3V525Y9CLFGGTKPZZUQYRRF","model","match","uniform","","","","","","","","42188.799999952316","44198.700000047684","","","","","","","","","","","","7","","stimuli/stars_7.png","13.5","","","","","stimuli/BF05_AO.jpg","",""
"explore-choice","15","44451","0.0-15.0","p395476","A2PPTQXFVA9H38","3OWZNK3RYMVDNXPNEIRWZ8JM6MU2UY","3BC8WZX3V525Y9CLFGGTKPZZUQYRRF","model","match","uniform","","","","","","","1177.1999999284744","44199.60000002384","45376.799999952316","[""stimuli/HM10_DO.jpg"",""stimuli/AM05_SUR.jpg"",""stimuli/AM09_AO.jpg"",""stimuli/BF05_CC.jpg""]","stimuli/HM10_DO.jpg","stimuli/AM05_SUR.jpg","stimuli/AM09_AO.jpg","stimuli/BF05_CC.jpg","pos1","stimuli/HM10_DO.jpg","DO","HM10","0","2","4","4","stimuli/stars_4.png","15.5","[""DO"",""SUR"",""AO"",""CC""]","[""HM10"",""AM05"",""AM09"",""BF05""]","[4,0,5,7]","[4,2,6,8]","","",""
"show-reward","16","46467","0.0-16.0","p395476","A2PPTQXFVA9H38","3OWZNK3RYMVDNXPNEIRWZ8JM6MU2UY","3BC8WZX3V525Y9CLFGGTKPZZUQYRRF","model","match","uniform","","","","","","","","45883.10000002384","47898.10000002384","","","","","","","","","","","","4","","stimuli/stars_4.png","15.5","","","","","stimuli/HM10_DO.jpg","",""
"explore-choice","17","48898","0.0-17.0","p395476","A2PPTQXFVA9H38","3OWZNK3RYMVDNXPNEIRWZ8JM6MU2UY","3BC8WZX3V525Y9CLFGGTKPZZUQYRRF","model","match","uniform","","","","","","","1929.9000000953674","47898.799999952316","49828.700000047684","[""stimuli/AM05_CC.jpg"",""stimuli/HM10_AO.jpg"",""stimuli/AM09_DO.jpg"",""stimuli/BF05_SUR.jpg""]","stimuli/AM05_CC.jpg","stimuli/HM10_AO.jpg","stimuli/AM09_DO.jpg","stimuli/BF05_SUR.jpg","pos4","stimuli/BF05_SUR.jpg","SUR","BF05","3","4","8","8","stimuli/stars_8.png","19.5","[""CC"",""AO"",""DO"",""SUR""]","[""AM05"",""HM10"",""AM09"",""BF05""]","[0,4,5,8]","[2,4,6,8]","","",""
"show-reward","18","50906","0.0-18.0","p395476","A2PPTQXFVA9H38","3OWZNK3RYMVDNXPNEIRWZ8JM6MU2UY","3BC8WZX3V525Y9CLFGGTKPZZUQYRRF","model","match","uniform","","","","","","","","50329.5","52336.5","","","","","","","","","","","","8","","stimuli/stars_8.png","19.5","","","","","stimuli/BF05_SUR.jpg","",""
"explore-choice","19","54514","0.0-19.0","p395476","A2PPTQXFVA9H38","3OWZNK3RYMVDNXPNEIRWZ8JM6MU2UY","3BC8WZX3V525Y9CLFGGTKPZZUQYRRF","model","match","uniform","","","","","","","3107.5","52337.39999997616","55444.89999997616","[""stimuli/HM10_DO.jpg"",""stimuli/AM05_SUR.jpg"",""stimuli/AM09_CC.jpg"",""stimuli/BF05_AO.jpg""]","stimuli/HM10_DO.jpg","stimuli/AM05_SUR.jpg","stimuli/AM09_CC.jpg","stimuli/BF05_AO.jpg","pos2","stimuli/AM05_SUR.jpg","SUR","AM05","1","1.5","3","2","stimuli/stars_3.png","21","[""DO"",""SUR"",""CC"",""AO""]","[""HM10"",""AM05"",""AM09"",""BF05""]","[4,3,5,7]","[4,2,6,8]","","",""
"show-reward","20","56519","0.0-20.0","p395476","A2PPTQXFVA9H38","3OWZNK3RYMVDNXPNEIRWZ8JM6MU2UY","3BC8WZX3V525Y9CLFGGTKPZZUQYRRF","model","match","uniform","","","","","","","","55945.60000002384","57949.299999952316","","","","","","","","","","","","3","","stimuli/stars_3.png","21","","","","","stimuli/AM05_SUR.jpg","",""
"explore-choice","21","57847","0.0-21.0","p395476","A2PPTQXFVA9H38","3OWZNK3RYMVDNXPNEIRWZ8JM6MU2UY","3BC8WZX3V525Y9CLFGGTKPZZUQYRRF","model","match","uniform","","","","","","","826.8999999761581","57950.700000047684","58777.60000002384","[""stimuli/HM10_DO.jpg"",""stimuli/AM09_SUR.jpg"",""stimuli/AM05_AO.jpg"",""stimuli/BF05_CC.jpg""]","stimuli/HM10_DO.jpg","stimuli/AM09_SUR.jpg","stimuli/AM05_AO.jpg","stimuli/BF05_CC.jpg","pos4","stimuli/BF05_CC.jpg","CC","BF05","3","4.5","9","8","stimuli/stars_9.png","25.5","[""DO"",""SUR"",""AO"",""CC""]","[""HM10"",""AM09"",""AM05"",""BF05""]","[4,4,3,9]","[4,6,2,8]","","",""
"show-reward","22","59860","0.0-22.0","p395476","A2PPTQXFVA9H38","3OWZNK3RYMVDNXPNEIRWZ8JM6MU2UY","3BC8WZX3V525Y9CLFGGTKPZZUQYRRF","model","match","uniform","","","","","","","","59278.299999952316","61291.5","","","","","","","","","","","","9","","stimuli/stars_9.png","25.5","","","","","stimuli/BF05_CC.jpg","",""
"explore-choice","23","61879","0.0-23.0","p395476","A2PPTQXFVA9H38","3OWZNK3RYMVDNXPNEIRWZ8JM6MU2UY","3BC8WZX3V525Y9CLFGGTKPZZUQYRRF","model","match","uniform","","","","","","","1511.4000000953674","61292.299999952316","62803.700000047684","[""stimuli/AM05_SUR.jpg"",""stimuli/AM09_AO.jpg"",""stimuli/HM10_CC.jpg"",""stimuli/BF05_DO.jpg""]","stimuli/AM05_SUR.jpg","stimuli/AM09_AO.jpg","stimuli/HM10_CC.jpg","stimuli/BF05_DO.jpg","pos1","stimuli/AM05_SUR.jpg","SUR","AM05","0","2","4","2","stimuli/stars_4.png","27.5","[""SUR"",""AO"",""CC"",""DO""]","[""AM05"",""AM09"",""HM10"",""BF05""]","[4,4,6,7]","[2,6,4,8]","","",""
"show-reward","24","63884","0.0-24.0","p395476","A2PPTQXFVA9H38","3OWZNK3RYMVDNXPNEIRWZ8JM6MU2UY","3BC8WZX3V525Y9CLFGGTKPZZUQYRRF","model","match","uniform","","","","","","","","63310.89999997616","65314.700000047684","","","","","","","","","","","","4","","stimuli/stars_4.png","27.5","","","","","stimuli/AM05_SUR.jpg","",""
"explore-choice","25","64785","0.0-25.0","p395476","A2PPTQXFVA9H38","3OWZNK3RYMVDNXPNEIRWZ8JM6MU2UY","3BC8WZX3V525Y9CLFGGTKPZZUQYRRF","model","match","uniform","","","","","","","385.2999999523163","65315.5","65700.79999995232","[""stimuli/HM10_AO.jpg"",""stimuli/AM09_CC.jpg"",""stimuli/BF05_SUR.jpg"",""stimuli/AM05_DO.jpg""]","stimuli/HM10_AO.jpg","stimuli/AM09_CC.jpg","stimuli/BF05_SUR.jpg","stimuli/AM05_DO.jpg","pos3","stimuli/BF05_SUR.jpg","SUR","BF05","2","4.5","9","8","stimuli/stars_9.png","32","[""AO"",""CC"",""SUR"",""DO""]","[""HM10"",""AM09"",""BF05"",""AM05""]","[6,8,9,1]","[4,6,8,2]","","",""
"show-reward","26","66787","0.0-26.0","p395476","A2PPTQXFVA9H38","3OWZNK3RYMVDNXPNEIRWZ8JM6MU2UY","3BC8WZX3V525Y9CLFGGTKPZZUQYRRF","model","match","uniform","","","","","","","","66216.29999995232","68217.60000002384","","","","","","","","","","","","9","","stimuli/stars_9.png","32","","","","","stimuli/BF05_SUR.jpg","",""
"explore-choice","27","67817","0.0-27.0","p395476","A2PPTQXFVA9H38","3OWZNK3RYMVDNXPNEIRWZ8JM6MU2UY","3BC8WZX3V525Y9CLFGGTKPZZUQYRRF","model","match","uniform","","","","","","","528.3000000715256","68218.39999997616","68746.70000004768","[""stimuli/AM09_AO.jpg"",""stimuli/HM10_SUR.jpg"",""stimuli/BF05_DO.jpg"",""stimuli/AM05_CC.jpg""]","stimuli/AM09_AO.jpg","stimuli/HM10_SUR.jpg","stimuli/BF05_DO.jpg","stimuli/AM05_CC.jpg","pos2","stimuli/HM10_SUR.jpg","SUR","HM10","1","1.5","3","4","stimuli/stars_3.png","33.5","[""AO"",""SUR"",""DO"",""CC""]","[""AM09"",""HM10"",""BF05"",""AM05""]","[6,3,9,1]","[6,4,8,2]","","",""
"show-reward","28","69821","0.0-28.0","p395476","A2PPTQXFVA9H38","3OWZNK3RYMVDNXPNEIRWZ8JM6MU2UY","3BC8WZX3V525Y9CLFGGTKPZZUQYRRF","model","match","uniform","","","","","","","","69248.29999995232","71251.70000004768","","","","","","","","","","","","3","","stimuli/stars_3.png","33.5","","","","","stimuli/HM10_SUR.jpg","",""
"explore-choice","29","71598","0.0-29.0","p395476","A2PPTQXFVA9H38","3OWZNK3RYMVDNXPNEIRWZ8JM6MU2UY","3BC8WZX3V525Y9CLFGGTKPZZUQYRRF","model","match","uniform","","","","","","","1275.3000000715256","71252.29999995232","72527.60000002384","[""stimuli/BF05_AO.jpg"",""stimuli/AM05_DO.jpg"",""stimuli/HM10_CC.jpg"",""stimuli/AM09_SUR.jpg""]","stimuli/BF05_AO.jpg","stimuli/AM05_DO.jpg","stimuli/HM10_CC.jpg","stimuli/AM09_SUR.jpg","pos1","stimuli/BF05_AO.jpg","AO","BF05","0","4.5","9","8","stimuli/stars_9.png","38","[""AO"",""DO"",""CC"",""SUR""]","[""BF05"",""AM05"",""HM10"",""AM09""]","[9,3,5,8]","[8,2,4,6]","","",""
"show-reward","30","73614","0.0-30.0","p395476","A2PPTQXFVA9H38","3OWZNK3RYMVDNXPNEIRWZ8JM6MU2UY","3BC8WZX3V525Y9CLFGGTKPZZUQYRRF","model","match","uniform","","","","","","","","73029.29999995232","75044.70000004768","","","","","","","","","","","","9","","stimuli/stars_9.png","38","","","","","stimuli/BF05_AO.jpg","",""
"explore-choice","31","75407","0.0-31.0","p395476","A2PPTQXFVA9H38","3OWZNK3RYMVDNXPNEIRWZ8JM6MU2UY","3BC8WZX3V525Y9CLFGGTKPZZUQYRRF","model","match","uniform","","","","","","","1291.1999999284744","75045.60000002384","76336.79999995232","[""stimuli/AM09_SUR.jpg"",""stimuli/BF05_DO.jpg"",""stimuli/HM10_AO.jpg"",""stimuli/AM05_CC.jpg""]","stimuli/AM09_SUR.jpg","stimuli/BF05_DO.jpg","stimuli/HM10_AO.jpg","stimuli/AM05_CC.jpg","pos3","stimuli/HM10_AO.jpg","AO","HM10","2","2","4","4","stimuli/stars_4.png","40","[""SUR"",""DO"",""AO"",""CC""]","[""AM09"",""BF05"",""HM10"",""AM05""]","[4,10,4,1]","[6,8,4,2]","","",""
"show-reward","32","77408","0.0-32.0","p395476","A2PPTQXFVA9H38","3OWZNK3RYMVDNXPNEIRWZ8JM6MU2UY","3BC8WZX3V525Y9CLFGGTKPZZUQYRRF","model","match","uniform","","","","","","","","76838.29999995232","78839.39999997616","","","","","","","","","","","","4","","stimuli/stars_4.png","40","","","","","stimuli/HM10_AO.jpg","",""
"explore-choice","33","78513","0.0-33.0","p395476","A2PPTQXFVA9H38","3OWZNK3RYMVDNXPNEIRWZ8JM6MU2UY","3BC8WZX3V525Y9CLFGGTKPZZUQYRRF","model","match","uniform","","","","","","","600.7999999523163","78840","79440.79999995232","[""stimuli/BF05_DO.jpg"",""stimuli/AM05_SUR.jpg"",""stimuli/AM09_CC.jpg"",""stimuli/HM10_AO.jpg""]","stimuli/BF05_DO.jpg","stimuli/AM05_SUR.jpg","stimuli/AM09_CC.jpg","stimuli/HM10_AO.jpg","pos1","stimuli/BF05_DO.jpg","DO","BF05","0","3","6","8","stimuli/stars_6.png","43","[""DO"",""SUR"",""CC"",""AO""]","[""BF05"",""AM05"",""AM09"",""HM10""]","[6,0,6,2]","[8,2,6,4]","","",""
"show-reward","34","80528","0.0-34.0","p395476","A2PPTQXFVA9H38","3OWZNK3RYMVDNXPNEIRWZ8JM6MU2UY","3BC8WZX3V525Y9CLFGGTKPZZUQYRRF","model","match","uniform","","","","","","","","79944.39999997616","81959.10000002384","","","","","","","","","","","","6","","stimuli/stars_6.png","43","","","","","stimuli/BF05_DO.jpg","",""
"explore-choice","35","82419","0.0-35.0","p395476","A2PPTQXFVA9H38","3OWZNK3RYMVDNXPNEIRWZ8JM6MU2UY","3BC8WZX3V525Y9CLFGGTKPZZUQYRRF","model","match","uniform","","","","","","","1389.5999999046326","81959.70000004768","83349.29999995232","[""stimuli/BF05_CC.jpg"",""stimuli/HM10_AO.jpg"",""stimuli/AM09_SUR.jpg"",""stimuli/AM05_DO.jpg""]","stimuli/BF05_CC.jpg","stimuli/HM10_AO.jpg","stimuli/AM09_SUR.jpg","stimuli/AM05_DO.jpg","pos4","stimuli/AM05_DO.jpg","DO","AM05","3","0.5","1","2","stimuli/stars_1.png","43.5","[""CC"",""AO"",""SUR"",""DO""]","[""BF05"",""HM10"",""AM09"",""AM05""]","[8,2,7,1]","[8,4,6,2]","","",""
"show-reward","36","84433","0.0-36.0","p395476","A2PPTQXFVA9H38","3OWZNK3RYMVDNXPNEIRWZ8JM6MU2UY","3BC8WZX3V525Y9CLFGGTKPZZUQYRRF","model","match","uniform","","","","","","","","83850.29999995232","85864.20000004768","","","","","","","","","","","","1","","stimuli/stars_1.png","43.5","","","","","stimuli/AM05_DO.jpg","",""
"explore-choice","37","86558","0.0-37.0","p395476","A2PPTQXFVA9H38","3OWZNK3RYMVDNXPNEIRWZ8JM6MU2UY","3BC8WZX3V525Y9CLFGGTKPZZUQYRRF","model","match","uniform","","","","","","","1622.1999999284744","85864.70000004768","87486.89999997616","[""stimuli/BF05_CC.jpg"",""stimuli/AM05_SUR.jpg"",""stimuli/HM10_AO.jpg"",""stimuli/AM09_DO.jpg""]","stimuli/BF05_CC.jpg","stimuli/AM05_SUR.jpg","stimuli/HM10_AO.jpg","stimuli/AM09_DO.jpg","pos4","stimuli/AM09_DO.jpg","DO","AM09","3","2.5","5","6","stimuli/stars_5.png","46","[""CC"",""SUR"",""AO"",""DO""]","[""BF05"",""AM05"",""HM10"",""AM09""]","[9,4,5,5]","[8,2,4,6]","","",""
"show-reward","38","88562","0.0-38.0","p395476","A2PPTQXFVA9H38","3OWZNK3RYMVDNXPNEIRWZ8JM6MU2UY","3BC8WZX3V525Y9CLFGGTKPZZUQYRRF","model","match","uniform","","","","","","","","87989.39999997616","89993","","","","","","","","","","","","5","","stimuli/stars_5.png","46","","","","","stimuli/AM09_DO.jpg","",""
"explore-choice","39","90726","0.0-39.0","p395476","A2PPTQXFVA9H38","3OWZNK3RYMVDNXPNEIRWZ8JM6MU2UY","3BC8WZX3V525Y9CLFGGTKPZZUQYRRF","model","match","uniform","","","","","","","1663.3000000715256","89993.39999997616","91656.70000004768","[""stimuli/BF05_DO.jpg"",""stimuli/HM10_SUR.jpg"",""stimuli/AM05_AO.jpg"",""stimuli/AM09_CC.jpg""]","stimuli/BF05_DO.jpg","stimuli/HM10_SUR.jpg","stimuli/AM05_AO.jpg","stimuli/AM09_CC.jpg","pos1","stimuli/BF05_DO.jpg","DO","BF05","0","3","6","8","stimuli/stars_6.png","49","[""DO"",""SUR"",""AO"",""CC""]","[""BF05"",""HM10"",""AM05"",""AM09""]","[6,6,0,7]","[8,4,2,6]","","",""
"show-reward","40","92740","0.0-40.0","p395476","A2PPTQXFVA9H38","3OWZNK3RYMVDNXPNEIRWZ8JM6MU2UY","3BC8WZX3V525Y9CLFGGTKPZZUQYRRF","model","match","uniform","","","","","","","","92158","94171.39999997616","","","","","","","","","","","","6","","stimuli/stars_6.png","49","","","","","stimuli/BF05_DO.jpg","",""
"explore-choice","41","94634","0.0-41.0","p395476","A2PPTQXFVA9H38","3OWZNK3RYMVDNXPNEIRWZ8JM6MU2UY","3BC8WZX3V525Y9CLFGGTKPZZUQYRRF","model","match","uniform","","","","","","","1392.8999999761581","94172.20000004768","95565.10000002384","[""stimuli/AM09_CC.jpg"",""stimuli/AM05_AO.jpg"",""stimuli/BF05_SUR.jpg"",""stimuli/HM10_DO.jpg""]","stimuli/AM09_CC.jpg","stimuli/AM05_AO.jpg","stimuli/BF05_SUR.jpg","stimuli/HM10_DO.jpg","pos3","stimuli/BF05_SUR.jpg","SUR","BF05","2","4","8","8","stimuli/stars_8.png","53","[""CC"",""AO"",""SUR"",""DO""]","[""AM09"",""AM05"",""BF05"",""HM10""]","[6,1,8,4]","[6,2,8,4]","","",""
"show-reward","42","96639","0.0-42.0","p395476","A2PPTQXFVA9H38","3OWZNK3RYMVDNXPNEIRWZ8JM6MU2UY","3BC8WZX3V525Y9CLFGGTKPZZUQYRRF","model","match","uniform","","","","","","","","96066.10000002384","98070.5","","","","","","","","","","","","8","","stimuli/stars_8.png","53","","","","","stimuli/BF05_SUR.jpg","",""
"explore-choice","43","98198","0.0-43.0","p395476","A2PPTQXFVA9H38","3OWZNK3RYMVDNXPNEIRWZ8JM6MU2UY","3BC8WZX3V525Y9CLFGGTKPZZUQYRRF","model","match","uniform","","","","","","","1057.3000000715256","98071.39999997616","99128.70000004768","[""stimuli/BF05_SUR.jpg"",""stimuli/HM10_CC.jpg"",""stimuli/AM05_AO.jpg"",""stimuli/AM09_DO.jpg""]","stimuli/BF05_SUR.jpg","stimuli/HM10_CC.jpg","stimuli/AM05_AO.jpg","stimuli/AM09_DO.jpg","pos1","stimuli/BF05_SUR.jpg","SUR","BF05","0","3.5","7","8","stimuli/stars_7.png","56.5","[""SUR"",""CC"",""AO"",""DO""]","[""BF05"",""HM10"",""AM05"",""AM09""]","[7,4,2,4]","[8,4,2,6]","","",""
"show-reward","44","100201","0.0-44.0","p395476","A2PPTQXFVA9H38","3OWZNK3RYMVDNXPNEIRWZ8JM6MU2UY","3BC8WZX3V525Y9CLFGGTKPZZUQYRRF","model","match","uniform","","","","","","","","99629.70000004768","101631.70000004768","","","","","","","","","","","","7","","stimuli/stars_7.png","56.5","","","","","stimuli/BF05_SUR.jpg","",""
"explore-choice","45","101586","0.0-45.0","p395476","A2PPTQXFVA9H38","3OWZNK3RYMVDNXPNEIRWZ8JM6MU2UY","3BC8WZX3V525Y9CLFGGTKPZZUQYRRF","model","match","uniform","","","","","","","870","101632.29999995232","102502.29999995232","[""stimuli/AM05_CC.jpg"",""stimuli/BF05_SUR.jpg"",""stimuli/AM09_AO.jpg"",""stimuli/HM10_DO.jpg""]","stimuli/AM05_CC.jpg","stimuli/BF05_SUR.jpg","stimuli/AM09_AO.jpg","stimuli/HM10_DO.jpg","pos2","stimuli/BF05_SUR.jpg","SUR","BF05","1","5","10","8","stimuli/stars_10.png","61.5","[""CC"",""SUR"",""AO"",""DO""]","[""AM05"",""BF05"",""AM09"",""HM10""]","[4,10,6,3]","[2,8,6,4]","","",""
"show-reward","46","103594","0.0-46.0","p395476","A2PPTQXFVA9H38","3OWZNK3RYMVDNXPNEIRWZ8JM6MU2UY","3BC8WZX3V525Y9CLFGGTKPZZUQYRRF","model","match","uniform","","","","","","","","103018.29999995232","105025.39999997616","","","","","","","","","","","","10","","stimuli/stars_10.png","61.5","","","","","stimuli/BF05_SUR.jpg","",""
"explore-choice","47","105476","0.0-47.0","p395476","A2PPTQXFVA9H38","3OWZNK3RYMVDNXPNEIRWZ8JM6MU2UY","3BC8WZX3V525Y9CLFGGTKPZZUQYRRF","model","match","uniform","","","","","","","1366.8000000715256","105025.89999997616","106392.70000004768","[""stimuli/AM05_SUR.jpg"",""stimuli/HM10_CC.jpg"",""stimuli/BF05_AO.jpg"",""stimuli/AM09_DO.jpg""]","stimuli/AM05_SUR.jpg","stimuli/HM10_CC.jpg","stimuli/BF05_AO.jpg","stimuli/AM09_DO.jpg","pos4","stimuli/AM09_DO.jpg","DO","AM09","3","2","4","6","stimuli/stars_4.png","63.5","[""SUR"",""CC"",""AO"",""DO""]","[""AM05"",""HM10"",""BF05"",""AM09""]","[1,6,7,4]","[2,4,8,6]","","",""
"show-reward","48","107484","0.0-48.0","p395476","A2PPTQXFVA9H38","3OWZNK3RYMVDNXPNEIRWZ8JM6MU2UY","3BC8WZX3V525Y9CLFGGTKPZZUQYRRF","model","match","uniform","","","","","","","","106908.10000002384","108914.89999997616","","","","","","","","","","","","4","","stimuli/stars_4.png","63.5","","","","","stimuli/AM09_DO.jpg","",""
"explore-choice","49","108676","0.0-49.0","p395476","A2PPTQXFVA9H38","3OWZNK3RYMVDNXPNEIRWZ8JM6MU2UY","3BC8WZX3V525Y9CLFGGTKPZZUQYRRF","model","match","uniform","","","","","","","687.3999999761581","108915.39999997616","109602.79999995232","[""stimuli/HM10_CC.jpg"",""stimuli/AM05_DO.jpg"",""stimuli/AM09_AO.jpg"",""stimuli/BF05_SUR.jpg""]","stimuli/HM10_CC.jpg","stimuli/AM05_DO.jpg","stimuli/AM09_AO.jpg","stimuli/BF05_SUR.jpg","pos2","stimuli/AM05_DO.jpg","DO","AM05","1","1.5","3","2","stimuli/stars_3.png","65","[""CC"",""DO"",""AO"",""SUR""]","[""HM10"",""AM05"",""AM09"",""BF05""]","[4,3,8,7]","[4,2,6,8]","","",""
"show-reward","50","110678","0.0-50.0","p395476","A2PPTQXFVA9H38","3OWZNK3RYMVDNXPNEIRWZ8JM6MU2UY","3BC8WZX3V525Y9CLFGGTKPZZUQYRRF","model","match","uniform","","","","","","","","110108.10000002384","112108.79999995232","","","","","","","","","","","","3","","stimuli/stars_3.png","65","","","","","stimuli/AM05_DO.jpg","",""
"explore-choice","51","111536","0.0-51.0","p395476","A2PPTQXFVA9H38","3OWZNK3RYMVDNXPNEIRWZ8JM6MU2UY","3BC8WZX3V525Y9CLFGGTKPZZUQYRRF","model","match","uniform","","","","","","","357.2999999523163","112109.20000004768","112466.5","[""stimuli/AM09_SUR.jpg"",""stimuli/AM05_CC.jpg"",""stimuli/BF05_AO.jpg"",""stimuli/HM10_DO.jpg""]","stimuli/AM09_SUR.jpg","stimuli/AM05_CC.jpg","stimuli/BF05_AO.jpg","stimuli/HM10_DO.jpg","pos4","stimuli/HM10_DO.jpg","DO","HM10","3","1","2","4","stimuli/stars_2.png","66","[""SUR"",""CC"",""AO"",""DO""]","[""AM09"",""AM05"",""BF05"",""HM10""]","[6,1,10,2]","[6,2,8,4]","","",""
"show-reward","52","113551","0.0-52.0","p395476","A2PPTQXFVA9H38","3OWZNK3RYMVDNXPNEIRWZ8JM6MU2UY","3BC8WZX3V525Y9CLFGGTKPZZUQYRRF","model","match","uniform","","","","","","","","112967.79999995232","114982.10000002384","","","","","","","","","","","","2","","stimuli/stars_2.png","66","","","","","stimuli/HM10_DO.jpg","",""
"explore-choice","53","114847","0.0-53.0","p395476","A2PPTQXFVA9H38","3OWZNK3RYMVDNXPNEIRWZ8JM6MU2UY","3BC8WZX3V525Y9CLFGGTKPZZUQYRRF","model","match","uniform","","","","","","","782.8999999761581","114982.70000004768","115765.60000002384","[""stimuli/BF05_CC.jpg"",""stimuli/AM09_AO.jpg"",""stimuli/AM05_DO.jpg"",""stimuli/HM10_SUR.jpg""]","stimuli/BF05_CC.jpg","stimuli/AM09_AO.jpg","stimuli/AM05_DO.jpg","stimuli/HM10_SUR.jpg","pos1","stimuli/BF05_CC.jpg","CC","BF05","0","3","6","8","stimuli/stars_6.png","69","[""CC"",""AO"",""DO"",""SUR""]","[""BF05"",""AM09"",""AM05"",""HM10""]","[6,7,4,2]","[8,6,2,4]","","",""
"show-reward","54","116853","0.0-54.0","p395476","A2PPTQXFVA9H38","3OWZNK3RYMVDNXPNEIRWZ8JM6MU2UY","3BC8WZX3V525Y9CLFGGTKPZZUQYRRF","model","match","uniform","","","","","","","","116278.20000004768","118284","","","","","","","","","","","","6","","stimuli/stars_6.png","69","","","","","stimuli/BF05_CC.jpg","",""
"explore-choice","55","117835","0.0-55.0","p395476","A2PPTQXFVA9H38","3OWZNK3RYMVDNXPNEIRWZ8JM6MU2UY","3BC8WZX3V525Y9CLFGGTKPZZUQYRRF","model","match","uniform","","","","","","","476.09999990463257","118284.70000004768","118760.79999995232","[""stimuli/BF05_CC.jpg"",""stimuli/AM05_SUR.jpg"",""stimuli/AM09_DO.jpg"",""stimuli/HM10_AO.jpg""]","stimuli/BF05_CC.jpg","stimuli/AM05_SUR.jpg","stimuli/AM09_DO.jpg","stimuli/HM10_AO.jpg","pos1","stimuli/BF05_CC.jpg","CC","BF05","0","4.5","9","8","stimuli/stars_9.png","73.5","[""CC"",""SUR"",""DO"",""AO""]","[""BF05"",""AM05"",""AM09"",""HM10""]","[9,4,5,5]","[8,2,6,4]","","",""
"show-reward","56","119842","0.0-56.0","p395476","A2PPTQXFVA9H38","3OWZNK3RYMVDNXPNEIRWZ8JM6MU2UY","3BC8WZX3V525Y9CLFGGTKPZZUQYRRF","model","match","uniform","","","","","","","","119266.60000002384","121272.20000004768","","","","","","","","","","","","9","","stimuli/stars_9.png","73.5","","","","","stimuli/BF05_CC.jpg","",""
"explore-choice","57","120871","0.0-57.0","p395476","A2PPTQXFVA9H38","3OWZNK3RYMVDNXPNEIRWZ8JM6MU2UY","3BC8WZX3V525Y9CLFGGTKPZZUQYRRF","model","match","uniform","","","","","","","516.1000000238419","121272.79999995232","121788.89999997616","[""stimuli/BF05_AO.jpg"",""stimuli/AM09_CC.jpg"",""stimuli/HM10_DO.jpg"",""stimuli/AM05_SUR.jpg""]","stimuli/BF05_AO.jpg","stimuli/AM09_CC.jpg","stimuli/HM10_DO.jpg","stimuli/AM05_SUR.jpg","pos1","stimuli/BF05_AO.jpg","AO","BF05","0","3.5","7","8","stimuli/stars_7.png","77","[""AO"",""CC"",""DO"",""SUR""]","[""BF05"",""AM09"",""HM10"",""AM05""]","[7,5,4,3]","[8,6,4,2]","","",""
"show-reward","58","122879","0.0-58.0","p395476","A2PPTQXFVA9H38","3OWZNK3RYMVDNXPNEIRWZ8JM6MU2UY","3BC8WZX3V525Y9CLFGGTKPZZUQYRRF","model","match","uniform","","","","","","","","122302.20000004768","124309.29999995232","","","","","","","","","","","","7","","stimuli/stars_7.png","77","","","","","stimuli/BF05_AO.jpg","",""
"explore-choice","59","123993","0.0-59.0","p395476","A2PPTQXFVA9H38","3OWZNK3RYMVDNXPNEIRWZ8JM6MU2UY","3BC8WZX3V525Y9CLFGGTKPZZUQYRRF","model","match","uniform","","","","","","","598.8000000715256","124309.89999997616","124908.70000004768","[""stimuli/AM09_SUR.jpg"",""stimuli/AM05_CC.jpg"",""stimuli/BF05_DO.jpg"",""stimuli/HM10_AO.jpg""]","stimuli/AM09_SUR.jpg","stimuli/AM05_CC.jpg","stimuli/BF05_DO.jpg","stimuli/HM10_AO.jpg","pos3","stimuli/BF05_DO.jpg","DO","BF05","2","5","10","8","stimuli/stars_10.png","82","[""SUR"",""CC"",""DO"",""AO""]","[""AM09"",""AM05"",""BF05"",""HM10""]","[4,1,10,4]","[6,2,8,4]","","",""
"show-reward","60","125995","0.0-60.0","p395476","A2PPTQXFVA9H38","3OWZNK3RYMVDNXPNEIRWZ8JM6MU2UY","3BC8WZX3V525Y9CLFGGTKPZZUQYRRF","model","match","uniform","","","","","","","","125424.39999997616","127425.70000004768","","","","","","","","","","","","10","","stimuli/stars_10.png","82","","","","","stimuli/BF05_DO.jpg","",""
"explore-choice","61","127082","0.0-61.0","p395476","A2PPTQXFVA9H38","3OWZNK3RYMVDNXPNEIRWZ8JM6MU2UY","3BC8WZX3V525Y9CLFGGTKPZZUQYRRF","model","match","uniform","","","","","","","573.5999999046326","127426.20000004768","127999.79999995232","[""stimuli/HM10_CC.jpg"",""stimuli/AM05_SUR.jpg"",""stimuli/AM09_AO.jpg"",""stimuli/BF05_DO.jpg""]","stimuli/HM10_CC.jpg","stimuli/AM05_SUR.jpg","stimuli/AM09_AO.jpg","stimuli/BF05_DO.jpg","pos4","stimuli/BF05_DO.jpg","DO","BF05","3","3.5","7","8","stimuli/stars_7.png","85.5","[""CC"",""SUR"",""AO"",""DO""]","[""HM10"",""AM05"",""AM09"",""BF05""]","[6,4,4,7]","[4,2,6,8]","","",""
"show-reward","62","129087","0.0-62.0","p395476","A2PPTQXFVA9H38","3OWZNK3RYMVDNXPNEIRWZ8JM6MU2UY","3BC8WZX3V525Y9CLFGGTKPZZUQYRRF","model","match","uniform","","","","","","","","128513.20000004768","130518.10000002384","","","","","","","","","","","","7","","stimuli/stars_7.png","85.5","","","","","stimuli/BF05_DO.jpg","",""
"explore-choice","63","130155","0.0-63.0","p395476","A2PPTQXFVA9H38","3OWZNK3RYMVDNXPNEIRWZ8JM6MU2UY","3BC8WZX3V525Y9CLFGGTKPZZUQYRRF","model","match","uniform","","","","","","","560.8999999761581","130518.70000004768","131079.60000002384","[""stimuli/HM10_SUR.jpg"",""stimuli/AM05_CC.jpg"",""stimuli/BF05_DO.jpg"",""stimuli/AM09_AO.jpg""]","stimuli/HM10_SUR.jpg","stimuli/AM05_CC.jpg","stimuli/BF05_DO.jpg","stimuli/AM09_AO.jpg","pos3","stimuli/BF05_DO.jpg","DO","BF05","2","4.5","9","8","stimuli/stars_9.png","90","[""SUR"",""CC"",""DO"",""AO""]","[""HM10"",""AM05"",""BF05"",""AM09""]","[3,1,9,6]","[4,2,8,6]","","",""
"show-reward","64","132157","0.0-64.0","p395476","A2PPTQXFVA9H38","3OWZNK3RYMVDNXPNEIRWZ8JM6MU2UY","3BC8WZX3V525Y9CLFGGTKPZZUQYRRF","model","match","uniform","","","","","","","","131586.60000002384","133587.60000002384","","","","","","","","","","","","9","","stimuli/stars_9.png","90","","","","","stimuli/BF05_DO.jpg","",""
"explore-choice","65","133376","0.0-65.0","p395476","A2PPTQXFVA9H38","3OWZNK3RYMVDNXPNEIRWZ8JM6MU2UY","3BC8WZX3V525Y9CLFGGTKPZZUQYRRF","model","match","uniform","","","","","","","717.6999999284744","133588.20000004768","134305.89999997616","[""stimuli/AM05_DO.jpg"",""stimuli/AM09_SUR.jpg"",""stimuli/HM10_CC.jpg"",""stimuli/BF05_AO.jpg""]","stimuli/AM05_DO.jpg","stimuli/AM09_SUR.jpg","stimuli/HM10_CC.jpg","stimuli/BF05_AO.jpg","pos4","stimuli/BF05_AO.jpg","AO","BF05","3","4.5","9","8","stimuli/stars_9.png","94.5","[""DO"",""SUR"",""CC"",""AO""]","[""AM05"",""AM09"",""HM10"",""BF05""]","[3,8,5,9]","[2,6,4,8]","","",""
"show-reward","66","135383","0.0-66.0","p395476","A2PPTQXFVA9H38","3OWZNK3RYMVDNXPNEIRWZ8JM6MU2UY","3BC8WZX3V525Y9CLFGGTKPZZUQYRRF","model","match","uniform","","","","","","","","134807.79999995232","136814","","","","","","","","","","","","9","","stimuli/stars_9.png","94.5","","","","","stimuli/BF05_AO.jpg","",""
"explore-choice","67","136473","0.0-67.0","p395476","A2PPTQXFVA9H38","3OWZNK3RYMVDNXPNEIRWZ8JM6MU2UY","3BC8WZX3V525Y9CLFGGTKPZZUQYRRF","model","match","uniform","","","","","","","588.3999999761581","136815","137403.39999997616","[""stimuli/BF05_AO.jpg"",""stimuli/AM05_DO.jpg"",""stimuli/AM09_CC.jpg"",""stimuli/HM10_SUR.jpg""]","stimuli/BF05_AO.jpg","stimuli/AM05_DO.jpg","stimuli/AM09_CC.jpg","stimuli/HM10_SUR.jpg","pos1","stimuli/BF05_AO.jpg","AO","BF05","0","3.5","7","8","stimuli/stars_7.png","98","[""AO"",""DO"",""CC"",""SUR""]","[""BF05"",""AM05"",""AM09"",""HM10""]","[7,4,6,6]","[8,2,6,4]","","",""
"show-reward","68","138475","0.0-68.0","p395476","A2PPTQXFVA9H38","3OWZNK3RYMVDNXPNEIRWZ8JM6MU2UY","3BC8WZX3V525Y9CLFGGTKPZZUQYRRF","model","match","uniform","","","","","","","","137904.10000002384","139905.79999995232","","","","","","","","","","","","7","","stimuli/stars_7.png","98","","","","","stimuli/BF05_AO.jpg","",""
"explore-choice","69","139532","0.0-69.0","p395476","A2PPTQXFVA9H38","3OWZNK3RYMVDNXPNEIRWZ8JM6MU2UY","3BC8WZX3V525Y9CLFGGTKPZZUQYRRF","model","match","uniform","","","","","","","548.5","139906.39999997616","140454.89999997616","[""stimuli/AM05_DO.jpg"",""stimuli/BF05_SUR.jpg"",""stimuli/AM09_CC.jpg"",""stimuli/HM10_AO.jpg""]","stimuli/AM05_DO.jpg","stimuli/BF05_SUR.jpg","stimuli/AM09_CC.jpg","stimuli/HM10_AO.jpg","pos2","stimuli/BF05_SUR.jpg","SUR","BF05","1","4.5","9","8","stimuli/stars_9.png","102.5","[""DO"",""SUR"",""CC"",""AO""]","[""AM05"",""BF05"",""AM09"",""HM10""]","[1,9,8,6]","[2,8,6,4]","","",""
"show-reward","70","141537","0.0-70.0","p395476","A2PPTQXFVA9H38","3OWZNK3RYMVDNXPNEIRWZ8JM6MU2UY","3BC8WZX3V525Y9CLFGGTKPZZUQYRRF","model","match","uniform","","","","","","","","140963.29999995232","142967.60000002384","","","","","","","","","","","","9","","stimuli/stars_9.png","102.5","","","","","stimuli/BF05_SUR.jpg","",""
"explore-choice","71","142564","0.0-71.0","p395476","A2PPTQXFVA9H38","3OWZNK3RYMVDNXPNEIRWZ8JM6MU2UY","3BC8WZX3V525Y9CLFGGTKPZZUQYRRF","model","match","uniform","","","","","","","524.5","142968.20000004768","143492.70000004768","[""stimuli/AM09_CC.jpg"",""stimuli/AM05_SUR.jpg"",""stimuli/BF05_DO.jpg"",""stimuli/HM10_AO.jpg""]","stimuli/AM09_CC.jpg","stimuli/AM05_SUR.jpg","stimuli/BF05_DO.jpg","stimuli/HM10_AO.jpg","pos3","stimuli/BF05_DO.jpg","DO","BF05","2","3","6","8","stimuli/stars_6.png","105.5","[""CC"",""SUR"",""DO"",""AO""]","[""AM09"",""AM05"",""BF05"",""HM10""]","[6,0,6,2]","[6,2,8,4]","","",""
"show-reward","72","144566","0.0-72.0","p395476","A2PPTQXFVA9H38","3OWZNK3RYMVDNXPNEIRWZ8JM6MU2UY","3BC8WZX3V525Y9CLFGGTKPZZUQYRRF","model","match","uniform","","","","","","","","143995.5","145996.29999995232","","","","","","","","","","","","6","","stimuli/stars_6.png","105.5","","","","","stimuli/BF05_DO.jpg","",""
"explore-choice","73","145708","0.0-73.0","p395476","A2PPTQXFVA9H38","3OWZNK3RYMVDNXPNEIRWZ8JM6MU2UY","3BC8WZX3V525Y9CLFGGTKPZZUQYRRF","model","match","uniform","","","","","","","641.9000000953674","145996.79999995232","146638.70000004768","[""stimuli/AM09_DO.jpg"",""stimuli/HM10_CC.jpg"",""stimuli/AM05_AO.jpg"",""stimuli/BF05_SUR.jpg""]","stimuli/AM09_DO.jpg","stimuli/HM10_CC.jpg","stimuli/AM05_AO.jpg","stimuli/BF05_SUR.jpg","pos4","stimuli/BF05_SUR.jpg","SUR","BF05","3","3.5","7","8","stimuli/stars_7.png","109","[""DO"",""CC"",""AO"",""SUR""]","[""AM09"",""HM10"",""AM05"",""BF05""]","[4,4,2,7]","[6,4,2,8]","","",""
"show-reward","74","147719","0.0-74.0","p395476","A2PPTQXFVA9H38","3OWZNK3RYMVDNXPNEIRWZ8JM6MU2UY","3BC8WZX3V525Y9CLFGGTKPZZUQYRRF","model","match","uniform","","","","","","","","147139.39999997616","149150.10000002384","","","","","","","","","","","","7","","stimuli/stars_7.png","109","","","","","stimuli/BF05_SUR.jpg","",""
"explore-choice","75","149034","0.0-75.0","p395476","A2PPTQXFVA9H38","3OWZNK3RYMVDNXPNEIRWZ8JM6MU2UY","3BC8WZX3V525Y9CLFGGTKPZZUQYRRF","model","match","uniform","","","","","","","812.8000000715256","149150.89999997616","149963.70000004768","[""stimuli/BF05_SUR.jpg"",""stimuli/AM09_AO.jpg"",""stimuli/HM10_CC.jpg"",""stimuli/AM05_DO.jpg""]","stimuli/BF05_SUR.jpg","stimuli/AM09_AO.jpg","stimuli/HM10_CC.jpg","stimuli/AM05_DO.jpg","pos1","stimuli/BF05_SUR.jpg","SUR","BF05","0","3.5","7","8","stimuli/stars_7.png","112.5","[""SUR"",""AO"",""CC"",""DO""]","[""BF05"",""AM09"",""HM10"",""AM05""]","[7,8,4,3]","[8,6,4,2]","","",""
"show-reward","76","151037","0.0-76.0","p395476","A2PPTQXFVA9H38","3OWZNK3RYMVDNXPNEIRWZ8JM6MU2UY","3BC8WZX3V525Y9CLFGGTKPZZUQYRRF","model","match","uniform","","","","","","","","150465.10000002384","152467.79999995232","","","","","","","","","","","","7","","stimuli/stars_7.png","112.5","","","","","stimuli/BF05_SUR.jpg","",""
"explore-choice","77","152136","0.0-77.0","p395476","A2PPTQXFVA9H38","3OWZNK3RYMVDNXPNEIRWZ8JM6MU2UY","3BC8WZX3V525Y9CLFGGTKPZZUQYRRF","model","match","uniform","","","","","","","589.2000000476837","152468.39999997616","153057.60000002384","[""stimuli/BF05_SUR.jpg"",""stimuli/AM05_CC.jpg"",""stimuli/HM10_AO.jpg"",""stimuli/AM09_DO.jpg""]","stimuli/BF05_SUR.jpg","stimuli/AM05_CC.jpg","stimuli/HM10_AO.jpg","stimuli/AM09_DO.jpg","pos1","stimuli/BF05_SUR.jpg","SUR","BF05","0","4","8","8","stimuli/stars_8.png","116.5","[""SUR"",""CC"",""AO"",""DO""]","[""BF05"",""AM05"",""HM10"",""AM09""]","[8,0,4,5]","[8,2,4,6]","","",""
"show-reward","78","154138","0.0-78.0","p395476","A2PPTQXFVA9H38","3OWZNK3RYMVDNXPNEIRWZ8JM6MU2UY","3BC8WZX3V525Y9CLFGGTKPZZUQYRRF","model","match","uniform","","","","","","","","153567.20000004768","155568.70000004768","","","","","","","","","","","","8","","stimuli/stars_8.png","116.5","","","","","stimuli/BF05_SUR.jpg","",""
"explore-choice","79","155179","0.0-79.0","p395476","A2PPTQXFVA9H38","3OWZNK3RYMVDNXPNEIRWZ8JM6MU2UY","3BC8WZX3V525Y9CLFGGTKPZZUQYRRF","model","match","uniform","","","","","","","537.3000000715256","155569.29999995232","156106.60000002384","[""stimuli/AM09_SUR.jpg"",""stimuli/AM05_AO.jpg"",""stimuli/BF05_DO.jpg"",""stimuli/HM10_CC.jpg""]","stimuli/AM09_SUR.jpg","stimuli/AM05_AO.jpg","stimuli/BF05_DO.jpg","stimuli/HM10_CC.jpg","pos3","stimuli/BF05_DO.jpg","DO","BF05","2","3","6","8","stimuli/stars_6.png","119.5","[""SUR"",""AO"",""DO"",""CC""]","[""AM09"",""AM05"",""BF05"",""HM10""]","[5,0,6,3]","[6,2,8,4]","","",""
"show-reward","80","157193","0.0-80.0","p395476","A2PPTQXFVA9H38","3OWZNK3RYMVDNXPNEIRWZ8JM6MU2UY","3BC8WZX3V525Y9CLFGGTKPZZUQYRRF","model","match","uniform","","","","","","","","156609.79999995232","158624","","","","","","","","","","","","6","","stimuli/stars_6.png","119.5","","","","","stimuli/BF05_DO.jpg","",""
"explore-choice","81","158235","0.0-81.0","p395476","A2PPTQXFVA9H38","3OWZNK3RYMVDNXPNEIRWZ8JM6MU2UY","3BC8WZX3V525Y9CLFGGTKPZZUQYRRF","model","match","uniform","","","","","","","527.8000000715256","158624.89999997616","159152.70000004768","[""stimuli/AM05_AO.jpg"",""stimuli/HM10_DO.jpg"",""stimuli/BF05_CC.jpg"",""stimuli/AM09_SUR.jpg""]","stimuli/AM05_AO.jpg","stimuli/HM10_DO.jpg","stimuli/BF05_CC.jpg","stimuli/AM09_SUR.jpg","pos3","stimuli/BF05_CC.jpg","CC","BF05","2","4.5","9","8","stimuli/stars_9.png","124","[""AO"",""DO"",""CC"",""SUR""]","[""AM05"",""HM10"",""BF05"",""AM09""]","[3,4,9,4]","[2,4,8,6]","","",""
"show-reward","82","160240","0.0-82.0","p395476","A2PPTQXFVA9H38","3OWZNK3RYMVDNXPNEIRWZ8JM6MU2UY","3BC8WZX3V525Y9CLFGGTKPZZUQYRRF","model","match","uniform","","","","","","","","159666.70000004768","161671","","","","","","","","","","","","9","","stimuli/stars_9.png","124","","","","","stimuli/BF05_CC.jpg","",""
"explore-choice","83","161797","0.0-83.0","p395476","A2PPTQXFVA9H38","3OWZNK3RYMVDNXPNEIRWZ8JM6MU2UY","3BC8WZX3V525Y9CLFGGTKPZZUQYRRF","model","match","uniform","","","","","","","1054.8999999761581","161671.70000004768","162726.60000002384","[""stimuli/AM09_DO.jpg"",""stimuli/BF05_AO.jpg"",""stimuli/AM05_SUR.jpg"",""stimuli/HM10_CC.jpg""]","stimuli/AM09_DO.jpg","stimuli/BF05_AO.jpg","stimuli/AM05_SUR.jpg","stimuli/HM10_CC.jpg","pos2","stimuli/BF05_AO.jpg","AO","BF05","1","3.5","7","8","stimuli/stars_7.png","127.5","[""DO"",""AO"",""SUR"",""CC""]","[""AM09"",""BF05"",""AM05"",""HM10""]","[4,7,1,6]","[6,8,2,4]","","",""
"show-reward","84","163805","0.0-84.0","p395476","A2PPTQXFVA9H38","3OWZNK3RYMVDNXPNEIRWZ8JM6MU2UY","3BC8WZX3V525Y9CLFGGTKPZZUQYRRF","model","match","uniform","","","","","","","","163228.29999995232","165236","","","","","","","","","","","","7","","stimuli/stars_7.png","127.5","","","","","stimuli/BF05_AO.jpg","",""
"explore-choice","85","164890","0.0-85.0","p395476","A2PPTQXFVA9H38","3OWZNK3RYMVDNXPNEIRWZ8JM6MU2UY","3BC8WZX3V525Y9CLFGGTKPZZUQYRRF","model","match","uniform","","","","","","","579.2999999523163","165236.60000002384","165815.89999997616","[""stimuli/BF05_SUR.jpg"",""stimuli/HM10_DO.jpg"",""stimuli/AM05_AO.jpg"",""stimuli/AM09_CC.jpg""]","stimuli/BF05_SUR.jpg","stimuli/HM10_DO.jpg","stimuli/AM05_AO.jpg","stimuli/AM09_CC.jpg","pos1","stimuli/BF05_SUR.jpg","SUR","BF05","0","4","8","8","stimuli/stars_8.png","131.5","[""SUR"",""DO"",""AO"",""CC""]","[""BF05"",""HM10"",""AM05"",""AM09""]","[8,4,1,6]","[8,4,2,6]","","",""
"show-reward","86","166893","0.0-86.0","p395476","A2PPTQXFVA9H38","3OWZNK3RYMVDNXPNEIRWZ8JM6MU2UY","3BC8WZX3V525Y9CLFGGTKPZZUQYRRF","model","match","uniform","","","","","","","","166321.60000002384","168323.70000004768","","","","","","","","","","","","8","","stimuli/stars_8.png","131.5","","","","","stimuli/BF05_SUR.jpg","",""
"explore-choice","87","167904","0.0-87.0","p395476","A2PPTQXFVA9H38","3OWZNK3RYMVDNXPNEIRWZ8JM6MU2UY","3BC8WZX3V525Y9CLFGGTKPZZUQYRRF","model","match","uniform","","","","","","","506.8000000715256","168324.39999997616","168831.20000004768","[""stimuli/BF05_CC.jpg"",""stimuli/HM10_DO.jpg"",""stimuli/AM09_AO.jpg"",""stimuli/AM05_SUR.jpg""]","stimuli/BF05_CC.jpg","stimuli/HM10_DO.jpg","stimuli/AM09_AO.jpg","stimuli/AM05_SUR.jpg","pos1","stimuli/BF05_CC.jpg","CC","BF05","0","3.5","7","8","stimuli/stars_7.png","135","[""CC"",""DO"",""AO"",""SUR""]","[""BF05"",""HM10"",""AM09"",""AM05""]","[7,4,5,0]","[8,4,6,2]","","",""
"show-reward","88","169911","0.0-88.0","p395476","A2PPTQXFVA9H38","3OWZNK3RYMVDNXPNEIRWZ8JM6MU2UY","3BC8WZX3V525Y9CLFGGTKPZZUQYRRF","model","match","uniform","","","","","","","","169334.89999997616","171341.20000004768","","","","","","","","","","","","7","","stimuli/stars_7.png","135","","","","","stimuli/BF05_CC.jpg","",""
"explore-choice","89","172049","0.0-89.0","p395476","A2PPTQXFVA9H38","3OWZNK3RYMVDNXPNEIRWZ8JM6MU2UY","3BC8WZX3V525Y9CLFGGTKPZZUQYRRF","model","match","uniform","","","","","","","1623.1000000238419","171342","172965.10000002384","[""stimuli/HM10_SUR.jpg"",""stimuli/AM05_CC.jpg"",""stimuli/AM09_DO.jpg"",""stimuli/BF05_AO.jpg""]","stimuli/HM10_SUR.jpg","stimuli/AM05_CC.jpg","stimuli/AM09_DO.jpg","stimuli/BF05_AO.jpg","pos4","stimuli/BF05_AO.jpg","AO","BF05","3","5","10","8","stimuli/stars_10.png","140","[""SUR"",""CC"",""DO"",""AO""]","[""HM10"",""AM05"",""AM09"",""BF05""]","[3,4,5,10]","[4,2,6,8]","","",""
"show-reward","90","174051","0.0-90.0","p395476","A2PPTQXFVA9H38","3OWZNK3RYMVDNXPNEIRWZ8JM6MU2UY","3BC8WZX3V525Y9CLFGGTKPZZUQYRRF","model","match","uniform","","","","","","","","173480.79999995232","175481.89999997616","","","","","","","","","","","","10","","stimuli/stars_10.png","140","","","","","stimuli/BF05_AO.jpg","",""
"explore-choice","91","175165","0.0-91.0","p395476","A2PPTQXFVA9H38","3OWZNK3RYMVDNXPNEIRWZ8JM6MU2UY","3BC8WZX3V525Y9CLFGGTKPZZUQYRRF","model","match","uniform","","","","","","","610.0999999046326","175482.70000004768","176092.79999995232","[""stimuli/HM10_DO.jpg"",""stimuli/AM05_CC.jpg"",""stimuli/AM09_SUR.jpg"",""stimuli/BF05_AO.jpg""]","stimuli/HM10_DO.jpg","stimuli/AM05_CC.jpg","stimuli/AM09_SUR.jpg","stimuli/BF05_AO.jpg","pos4","stimuli/BF05_AO.jpg","AO","BF05","3","5","10","8","stimuli/stars_10.png","145","[""DO"",""CC"",""SUR"",""AO""]","[""HM10"",""AM05"",""AM09"",""BF05""]","[2,1,6,10]","[4,2,6,8]","","",""
"show-reward","92","177172","0.0-92.0","p395476","A2PPTQXFVA9H38","3OWZNK3RYMVDNXPNEIRWZ8JM6MU2UY","3BC8WZX3V525Y9CLFGGTKPZZUQYRRF","model","match","uniform","","","","","","","","176595.79999995232","178602.20000004768","","","","","","","","","","","","10","","stimuli/stars_10.png","145","","","","","stimuli/BF05_AO.jpg","",""
"explore-choice","93","178709","0.0-93.0","p395476","A2PPTQXFVA9H38","3OWZNK3RYMVDNXPNEIRWZ8JM6MU2UY","3BC8WZX3V525Y9CLFGGTKPZZUQYRRF","model","match","uniform","","","","","","","1035.8999999761581","178602.89999997616","179638.79999995232","[""stimuli/BF05_CC.jpg"",""stimuli/AM05_DO.jpg"",""stimuli/HM10_AO.jpg"",""stimuli/AM09_SUR.jpg""]","stimuli/BF05_CC.jpg","stimuli/AM05_DO.jpg","stimuli/HM10_AO.jpg","stimuli/AM09_SUR.jpg","pos1","stimuli/BF05_CC.jpg","CC","BF05","0","4","8","8","stimuli/stars_8.png","149","[""CC"",""DO"",""AO"",""SUR""]","[""BF05"",""AM05"",""HM10"",""AM09""]","[8,1,2,7]","[8,2,4,6]","","",""
"show-reward","94","180716","0.0-94.0","p395476","A2PPTQXFVA9H38","3OWZNK3RYMVDNXPNEIRWZ8JM6MU2UY","3BC8WZX3V525Y9CLFGGTKPZZUQYRRF","model","match","uniform","","","","","","","","180139.60000002384","182146.79999995232","","","","","","","","","","","","8","","stimuli/stars_8.png","149","","","","","stimuli/BF05_CC.jpg","",""
"explore-choice","95","181977","0.0-95.0","p395476","A2PPTQXFVA9H38","3OWZNK3RYMVDNXPNEIRWZ8JM6MU2UY","3BC8WZX3V525Y9CLFGGTKPZZUQYRRF","model","match","uniform","","","","","","","759.2000000476837","182147.5","182906.70000004768","[""stimuli/AM05_AO.jpg"",""stimuli/HM10_SUR.jpg"",""stimuli/BF05_CC.jpg"",""stimuli/AM09_DO.jpg""]","stimuli/AM05_AO.jpg","stimuli/HM10_SUR.jpg","stimuli/BF05_CC.jpg","stimuli/AM09_DO.jpg","pos3","stimuli/BF05_CC.jpg","CC","BF05","2","3.5","7","8","stimuli/stars_7.png","152.5","[""AO"",""SUR"",""CC"",""DO""]","[""AM05"",""HM10"",""BF05"",""AM09""]","[2,2,7,8]","[2,4,8,6]","","",""
"show-reward","96","183980","0.0-96.0","p395476","A2PPTQXFVA9H38","3OWZNK3RYMVDNXPNEIRWZ8JM6MU2UY","3BC8WZX3V525Y9CLFGGTKPZZUQYRRF","model","match","uniform","","","","","","","","183407.89999997616","185410.10000002384","","","","","","","","","","","","7","","stimuli/stars_7.png","152.5","","","","","stimuli/BF05_CC.jpg","",""
"explore-choice","97","185090","0.0-97.0","p395476","A2PPTQXFVA9H38","3OWZNK3RYMVDNXPNEIRWZ8JM6MU2UY","3BC8WZX3V525Y9CLFGGTKPZZUQYRRF","model","match","uniform","","","","","","","608.9000000953674","185410.79999995232","186019.70000004768","[""stimuli/AM09_AO.jpg"",""stimuli/AM05_CC.jpg"",""stimuli/BF05_SUR.jpg"",""stimuli/HM10_DO.jpg""]","stimuli/AM09_AO.jpg","stimuli/AM05_CC.jpg","stimuli/BF05_SUR.jpg","stimuli/HM10_DO.jpg","pos3","stimuli/BF05_SUR.jpg","SUR","BF05","2","5","10","8","stimuli/stars_10.png","157.5","[""AO"",""CC"",""SUR"",""DO""]","[""AM09"",""AM05"",""BF05"",""HM10""]","[6,4,10,3]","[6,2,8,4]","","",""
"show-reward","98","187098","0.0-98.0","p395476","A2PPTQXFVA9H38","3OWZNK3RYMVDNXPNEIRWZ8JM6MU2UY","3BC8WZX3V525Y9CLFGGTKPZZUQYRRF","model","match","uniform","","","","","","","","186520.79999995232","188528.89999997616","","","","","","","","","","","","10","","stimuli/stars_10.png","157.5","","","","","stimuli/BF05_SUR.jpg","",""
"explore-choice","99","188362","0.0-99.0","p395476","A2PPTQXFVA9H38","3OWZNK3RYMVDNXPNEIRWZ8JM6MU2UY","3BC8WZX3V525Y9CLFGGTKPZZUQYRRF","model","match","uniform","","","","","","","761.3999999761581","188529.70000004768","189291.10000002384","[""stimuli/HM10_SUR.jpg"",""stimuli/AM09_AO.jpg"",""stimuli/AM05_DO.jpg"",""stimuli/BF05_CC.jpg""]","stimuli/HM10_SUR.jpg","stimuli/AM09_AO.jpg","stimuli/AM05_DO.jpg","stimuli/BF05_CC.jpg","pos4","stimuli/BF05_CC.jpg","CC","BF05","3","3","6","8","stimuli/stars_6.png","160.5","[""SUR"",""AO"",""DO"",""CC""]","[""HM10"",""AM09"",""AM05"",""BF05""]","[2,7,4,6]","[4,6,2,8]","","",""
"show-reward","100","190370","0.0-100.0","p395476","A2PPTQXFVA9H38","3OWZNK3RYMVDNXPNEIRWZ8JM6MU2UY","3BC8WZX3V525Y9CLFGGTKPZZUQYRRF","model","match","uniform","","","","","","","","189793.20000004768","191799.89999997616","","","","","","","","","","","","6","","stimuli/stars_6.png","160.5","","","","","stimuli/BF05_CC.jpg","",""
"explore-choice","101","191508","0.0-101.0","p395476","A2PPTQXFVA9H38","3OWZNK3RYMVDNXPNEIRWZ8JM6MU2UY","3BC8WZX3V525Y9CLFGGTKPZZUQYRRF","model","match","uniform","","","","","","","636.8999999761581","191800.89999997616","192437.79999995232","[""stimuli/AM05_AO.jpg"",""stimuli/HM10_SUR.jpg"",""stimuli/AM09_CC.jpg"",""stimuli/BF05_DO.jpg""]","stimuli/AM05_AO.jpg","stimuli/HM10_SUR.jpg","stimuli/AM09_CC.jpg","stimuli/BF05_DO.jpg","pos4","stimuli/BF05_DO.jpg","DO","BF05","3","3","6","8","stimuli/stars_6.png","163.5","[""AO"",""SUR"",""CC"",""DO""]","[""AM05"",""HM10"",""AM09"",""BF05""]","[0,6,7,6]","[2,4,6,8]","","",""
"show-reward","102","193521","0.0-102.0","p395476","A2PPTQXFVA9H38","3OWZNK3RYMVDNXPNEIRWZ8JM6MU2UY","3BC8WZX3V525Y9CLFGGTKPZZUQYRRF","model","match","uniform","","","","","","","","192938.79999995232","194951","","","","","","","","","","","","6","","stimuli/stars_6.png","163.5","","","","","stimuli/BF05_DO.jpg","",""
"explore-choice","103","195562","0.0-103.0","p395476","A2PPTQXFVA9H38","3OWZNK3RYMVDNXPNEIRWZ8JM6MU2UY","3BC8WZX3V525Y9CLFGGTKPZZUQYRRF","model","match","uniform","","","","","","","1540.1999999284744","194951.70000004768","196491.89999997616","[""stimuli/WF06_HE.jpg"",""stimuli/BM16_SC.jpg"",""stimuli/BM03_FO.jpg"",""stimuli/HM07_HO.jpg""]","stimuli/WF06_HE.jpg","stimuli/BM16_SC.jpg","stimuli/BM03_FO.jpg","stimuli/HM07_HO.jpg","pos3","stimuli/BM03_FO.jpg","FO","BM03","2","0.5","1","2","stimuli/stars_1.png","164","[""HE"",""SC"",""FO"",""HO""]","[""WF06"",""BM16"",""BM03"",""HM07""]","[7,4,1,7]","[6,4,2,8]","","",""
"show-reward","104","197578","0.0-104.0","p395476","A2PPTQXFVA9H38","3OWZNK3RYMVDNXPNEIRWZ8JM6MU2UY","3BC8WZX3V525Y9CLFGGTKPZZUQYRRF","model","match","uniform","","","","","","","","196993.39999997616","199008.70000004768","","","","","","","","","","","","1","","stimuli/stars_1.png","164","","","","","stimuli/BM03_FO.jpg","",""
"explore-choice","105","199812","0.0-105.0","p395476","A2PPTQXFVA9H38","3OWZNK3RYMVDNXPNEIRWZ8JM6MU2UY","3BC8WZX3V525Y9CLFGGTKPZZUQYRRF","model","match","uniform","","","","","","","1724.4000000953674","199009.29999995232","200733.70000004768","[""stimuli/BM03_HO.jpg"",""stimuli/WF06_FO.jpg"",""stimuli/BM16_HE.jpg"",""stimuli/HM07_SC.jpg""]","stimuli/BM03_HO.jpg","stimuli/WF06_FO.jpg","stimuli/BM16_HE.jpg","stimuli/HM07_SC.jpg","pos2","stimuli/WF06_FO.jpg","FO","WF06","1","4","8","6","stimuli/stars_8.png","168","[""HO"",""FO"",""HE"",""SC""]","[""BM03"",""WF06"",""BM16"",""HM07""]","[1,8,2,7]","[2,6,4,8]","","",""
"show-reward","106","201828","0.0-106.0","p395476","A2PPTQXFVA9H38","3OWZNK3RYMVDNXPNEIRWZ8JM6MU2UY","3BC8WZX3V525Y9CLFGGTKPZZUQYRRF","model","match","uniform","","","","","","","","201242.79999995232","203258.70000004768","","","","","","","","","","","","8","","stimuli/stars_8.png","168","","","","","stimuli/WF06_FO.jpg","",""
"explore-choice","107","202914","0.0-107.0","p395476","A2PPTQXFVA9H38","3OWZNK3RYMVDNXPNEIRWZ8JM6MU2UY","3BC8WZX3V525Y9CLFGGTKPZZUQYRRF","model","match","uniform","","","","","","","572.6999999284744","203259.60000002384","203832.29999995232","[""stimuli/BM16_SC.jpg"",""stimuli/WF06_FO.jpg"",""stimuli/HM07_HO.jpg"",""stimuli/BM03_HE.jpg""]","stimuli/BM16_SC.jpg","stimuli/WF06_FO.jpg","stimuli/HM07_HO.jpg","stimuli/BM03_HE.jpg","pos2","stimuli/WF06_FO.jpg","FO","WF06","1","3.5","7","6","stimuli/stars_7.png","171.5","[""SC"",""FO"",""HO"",""HE""]","[""BM16"",""WF06"",""HM07"",""BM03""]","[3,7,9,2]","[4,6,8,2]","","",""
"show-reward","108","204920","0.0-108.0","p395476","A2PPTQXFVA9H38","3OWZNK3RYMVDNXPNEIRWZ8JM6MU2UY","3BC8WZX3V525Y9CLFGGTKPZZUQYRRF","model","match","uniform","","","","","","","","204345.20000004768","206350.5","","","","","","","","","","","","7","","stimuli/stars_7.png","171.5","","","","","stimuli/WF06_FO.jpg","",""
"explore-choice","109","206442","0.0-109.0","p395476","A2PPTQXFVA9H38","3OWZNK3RYMVDNXPNEIRWZ8JM6MU2UY","3BC8WZX3V525Y9CLFGGTKPZZUQYRRF","model","match","uniform","","","","","","","1012.5","206351.20000004768","207363.70000004768","[""stimuli/BM16_FO.jpg"",""stimuli/BM03_HE.jpg"",""stimuli/WF06_HO.jpg"",""stimuli/HM07_SC.jpg""]","stimuli/BM16_FO.jpg","stimuli/BM03_HE.jpg","stimuli/WF06_HO.jpg","stimuli/HM07_SC.jpg","pos3","stimuli/WF06_HO.jpg","HO","WF06","2","2.5","5","6","stimuli/stars_5.png","174","[""FO"",""HE"",""HO"",""SC""]","[""BM16"",""BM03"",""WF06"",""HM07""]","[3,4,5,9]","[4,2,6,8]","","",""
"show-reward","110","208448","0.0-110.0","p395476","A2PPTQXFVA9H38","3OWZNK3RYMVDNXPNEIRWZ8JM6MU2UY","3BC8WZX3V525Y9CLFGGTKPZZUQYRRF","model","match","uniform","","","","","","","","207873.5","209878.20000004768","","","","","","","","","","","","5","","stimuli/stars_5.png","174","","","","","stimuli/WF06_HO.jpg","",""
"explore-choice","111","209712","0.0-111.0","p395476","A2PPTQXFVA9H38","3OWZNK3RYMVDNXPNEIRWZ8JM6MU2UY","3BC8WZX3V525Y9CLFGGTKPZZUQYRRF","model","match","uniform","","","","","","","756.8999999761581","209878.89999997616","210635.79999995232","[""stimuli/BM03_FO.jpg"",""stimuli/WF06_SC.jpg"",""stimuli/HM07_HO.jpg"",""stimuli/BM16_HE.jpg""]","stimuli/BM03_FO.jpg","stimuli/WF06_SC.jpg","stimuli/HM07_HO.jpg","stimuli/BM16_HE.jpg","pos2","stimuli/WF06_SC.jpg","SC","WF06","1","2","4","6","stimuli/stars_4.png","176","[""FO"",""SC"",""HO"",""HE""]","[""BM03"",""WF06"",""HM07"",""BM16""]","[0,4,8,5]","[2,6,8,4]","","",""
"show-reward","112","211719","0.0-112.0","p395476","A2PPTQXFVA9H38","3OWZNK3RYMVDNXPNEIRWZ8JM6MU2UY","3BC8WZX3V525Y9CLFGGTKPZZUQYRRF","model","match","uniform","","","","","","","","211143.70000004768","213149.39999997616","","","","","","","","","","","","4","","stimuli/stars_4.png","176","","","","","stimuli/WF06_SC.jpg","",""
"explore-choice","113","213781","0.0-113.0","p395476","A2PPTQXFVA9H38","3OWZNK3RYMVDNXPNEIRWZ8JM6MU2UY","3BC8WZX3V525Y9CLFGGTKPZZUQYRRF","model","match","uniform","","","","","","","1557.6000000238419","213150","214707.60000002384","[""stimuli/BM16_HO.jpg"",""stimuli/WF06_FO.jpg"",""stimuli/BM03_SC.jpg"",""stimuli/HM07_HE.jpg""]","stimuli/BM16_HO.jpg","stimuli/WF06_FO.jpg","stimuli/BM03_SC.jpg","stimuli/HM07_HE.jpg","pos1","stimuli/BM16_HO.jpg","HO","BM16","0","1","2","4","stimuli/stars_2.png","177","[""HO"",""FO"",""SC"",""HE""]","[""BM16"",""WF06"",""BM03"",""HM07""]","[2,8,3,10]","[4,6,2,8]","","",""
"show-reward","114","215783","0.0-114.0","p395476","A2PPTQXFVA9H38","3OWZNK3RYMVDNXPNEIRWZ8JM6MU2UY","3BC8WZX3V525Y9CLFGGTKPZZUQYRRF","model","match","uniform","","","","","","","","215211.89999997616","217213.5","","","","","","","","","","","","2","","stimuli/stars_2.png","177","","","","","stimuli/BM16_HO.jpg","",""
"explore-choice","115","216883","0.0-115.0","p395476","A2PPTQXFVA9H38","3OWZNK3RYMVDNXPNEIRWZ8JM6MU2UY","3BC8WZX3V525Y9CLFGGTKPZZUQYRRF","model","match","uniform","","","","","","","598.8999999761581","217214","217812.89999997616","[""stimuli/WF06_HO.jpg"",""stimuli/BM03_HE.jpg"",""stimuli/BM16_SC.jpg"",""stimuli/HM07_FO.jpg""]","stimuli/WF06_HO.jpg","stimuli/BM03_HE.jpg","stimuli/BM16_SC.jpg","stimuli/HM07_FO.jpg","pos4","stimuli/HM07_FO.jpg","FO","HM07","3","3.5","7","8","stimuli/stars_7.png","180.5","[""HO"",""HE"",""SC"",""FO""]","[""WF06"",""BM03"",""BM16"",""HM07""]","[8,1,4,7]","[6,2,4,8]","","",""
"show-reward","116","218884","0.0-116.0","p395476","A2PPTQXFVA9H38","3OWZNK3RYMVDNXPNEIRWZ8JM6MU2UY","3BC8WZX3V525Y9CLFGGTKPZZUQYRRF","model","match","uniform","","","","","","","","218313.79999995232","220314.89999997616","","","","","","","","","","","","7","","stimuli/stars_7.png","180.5","","","","","stimuli/HM07_FO.jpg","",""
"explore-choice","117","220330","0.0-117.0","p395476","A2PPTQXFVA9H38","3OWZNK3RYMVDNXPNEIRWZ8JM6MU2UY","3BC8WZX3V525Y9CLFGGTKPZZUQYRRF","model","match","uniform","","","","","","","932.6000000238419","220315.29999995232","221247.89999997616","[""stimuli/BM03_SC.jpg"",""stimuli/HM07_HO.jpg"",""stimuli/BM16_FO.jpg"",""stimuli/WF06_HE.jpg""]","stimuli/BM03_SC.jpg","stimuli/HM07_HO.jpg","stimuli/BM16_FO.jpg","stimuli/WF06_HE.jpg","pos2","stimuli/HM07_HO.jpg","HO","HM07","1","4.5","9","8","stimuli/stars_9.png","185","[""SC"",""HO"",""FO"",""HE""]","[""BM03"",""HM07"",""BM16"",""WF06""]","[2,9,5,6]","[2,8,4,6]","","",""
"show-reward","118","222337","0.0-118.0","p395476","A2PPTQXFVA9H38","3OWZNK3RYMVDNXPNEIRWZ8JM6MU2UY","3BC8WZX3V525Y9CLFGGTKPZZUQYRRF","model","match","uniform","","","","","","","","221760.79999995232","223767","","","","","","","","","","","","9","","stimuli/stars_9.png","185","","","","","stimuli/HM07_HO.jpg","",""
"explore-choice","119","223847","0.0-119.0","p395476","A2PPTQXFVA9H38","3OWZNK3RYMVDNXPNEIRWZ8JM6MU2UY","3BC8WZX3V525Y9CLFGGTKPZZUQYRRF","model","match","uniform","","","","","","","1002.8999999761581","223767.70000004768","224770.60000002384","[""stimuli/HM07_HO.jpg"",""stimuli/BM03_SC.jpg"",""stimuli/WF06_FO.jpg"",""stimuli/BM16_HE.jpg""]","stimuli/HM07_HO.jpg","stimuli/BM03_SC.jpg","stimuli/WF06_FO.jpg","stimuli/BM16_HE.jpg","pos1","stimuli/HM07_HO.jpg","HO","HM07","0","4","8","8","stimuli/stars_8.png","189","[""HO"",""SC"",""FO"",""HE""]","[""HM07"",""BM03"",""WF06"",""BM16""]","[8,1,8,6]","[8,2,6,4]","","",""
"show-reward","120","225863","0.0-120.0","p395476","A2PPTQXFVA9H38","3OWZNK3RYMVDNXPNEIRWZ8JM6MU2UY","3BC8WZX3V525Y9CLFGGTKPZZUQYRRF","model","match","uniform","","","","","","","","225278.20000004768","227293.39999997616","","","","","","","","","","","","8","","stimuli/stars_8.png","189","","","","","stimuli/HM07_HO.jpg","",""
"explore-choice","121","226964","0.0-121.0","p395476","A2PPTQXFVA9H38","3OWZNK3RYMVDNXPNEIRWZ8JM6MU2UY","3BC8WZX3V525Y9CLFGGTKPZZUQYRRF","model","match","uniform","","","","","","","589.5","227294.5","227884","[""stimuli/HM07_FO.jpg"",""stimuli/BM16_HE.jpg"",""stimuli/WF06_HO.jpg"",""stimuli/BM03_SC.jpg""]","stimuli/HM07_FO.jpg","stimuli/BM16_HE.jpg","stimuli/WF06_HO.jpg","stimuli/BM03_SC.jpg","pos1","stimuli/HM07_FO.jpg","FO","HM07","0","3.5","7","8","stimuli/stars_7.png","192.5","[""FO"",""HE"",""HO"",""SC""]","[""HM07"",""BM16"",""WF06"",""BM03""]","[7,5,8,0]","[8,4,6,2]","","",""
"show-reward","122","228967","0.0-122.0","p395476","A2PPTQXFVA9H38","3OWZNK3RYMVDNXPNEIRWZ8JM6MU2UY","3BC8WZX3V525Y9CLFGGTKPZZUQYRRF","model","match","uniform","","","","","","","","228395.29999995232","230397.70000004768","","","","","","","","","","","","7","","stimuli/stars_7.png","192.5","","","","","stimuli/HM07_FO.jpg","",""
"explore-choice","123","230217","0.0-123.0","p395476","A2PPTQXFVA9H38","3OWZNK3RYMVDNXPNEIRWZ8JM6MU2UY","3BC8WZX3V525Y9CLFGGTKPZZUQYRRF","model","match","uniform","","","","","","","734.5999999046326","230398.20000004768","231132.79999995232","[""stimuli/BM16_HO.jpg"",""stimuli/HM07_HE.jpg"",""stimuli/WF06_SC.jpg"",""stimuli/BM03_FO.jpg""]","stimuli/BM16_HO.jpg","stimuli/HM07_HE.jpg","stimuli/WF06_SC.jpg","stimuli/BM03_FO.jpg","pos2","stimuli/HM07_HE.jpg","HE","HM07","1","3","6","8","stimuli/stars_6.png","195.5","[""HO"",""HE"",""SC"",""FO""]","[""BM16"",""HM07"",""WF06"",""BM03""]","[5,6,5,0]","[4,8,6,2]","","",""
"show-reward","124","232219","0.0-124.0","p395476","A2PPTQXFVA9H38","3OWZNK3RYMVDNXPNEIRWZ8JM6MU2UY","3BC8WZX3V525Y9CLFGGTKPZZUQYRRF","model","match","uniform","","","","","","","","231648.39999997616","233649.70000004768","","","","","","","","","","","","6","","stimuli/stars_6.png","195.5","","","","","stimuli/HM07_HE.jpg","",""
"explore-choice","125","233520","0.0-125.0","p395476","A2PPTQXFVA9H38","3OWZNK3RYMVDNXPNEIRWZ8JM6MU2UY","3BC8WZX3V525Y9CLFGGTKPZZUQYRRF","model","match","uniform","","","","","","","794.6999999284744","233650.10000002384","234444.79999995232","[""stimuli/BM16_HO.jpg"",""stimuli/HM07_FO.jpg"",""stimuli/BM03_HE.jpg"",""stimuli/WF06_SC.jpg""]","stimuli/BM16_HO.jpg","stimuli/HM07_FO.jpg","stimuli/BM03_HE.jpg","stimuli/WF06_SC.jpg","pos2","stimuli/HM07_FO.jpg","FO","HM07","1","4.5","9","8","stimuli/stars_9.png","200","[""HO"",""FO"",""HE"",""SC""]","[""BM16"",""HM07"",""BM03"",""WF06""]","[5,9,0,4]","[4,8,2,6]","","",""
"show-reward","126","235523","0.0-126.0","p395476","A2PPTQXFVA9H38","3OWZNK3RYMVDNXPNEIRWZ8JM6MU2UY","3BC8WZX3V525Y9CLFGGTKPZZUQYRRF","model","match","uniform","","","","","","","","234951.39999997616","236953.29999995232","","","","","","","","","","","","9","","stimuli/stars_9.png","200","","","","","stimuli/HM07_FO.jpg","",""
"explore-choice","127","237022","0.0-127.0","p395476","A2PPTQXFVA9H38","3OWZNK3RYMVDNXPNEIRWZ8JM6MU2UY","3BC8WZX3V525Y9CLFGGTKPZZUQYRRF","model","match","uniform","","","","","","","998.3000000715256","236953.79999995232","237952.10000002384","[""stimuli/BM16_FO.jpg"",""stimuli/WF06_SC.jpg"",""stimuli/BM03_HO.jpg"",""stimuli/HM07_HE.jpg""]","stimuli/BM16_FO.jpg","stimuli/WF06_SC.jpg","stimuli/BM03_HO.jpg","stimuli/HM07_HE.jpg","pos4","stimuli/HM07_HE.jpg","HE","HM07","3","3","6","8","stimuli/stars_6.png","203","[""FO"",""SC"",""HO"",""HE""]","[""BM16"",""WF06"",""BM03"",""HM07""]","[6,8,4,6]","[4,6,2,8]","","",""
"show-reward","128","239030","0.0-128.0","p395476","A2PPTQXFVA9H38","3OWZNK3RYMVDNXPNEIRWZ8JM6MU2UY","3BC8WZX3V525Y9CLFGGTKPZZUQYRRF","model","match","uniform","","","","","","","","238452.79999995232","240460.89999997616","","","","","","","","","","","","6","","stimuli/stars_6.png","203","","","","","stimuli/HM07_HE.jpg","",""
"explore-choice","129","240161","0.0-129.0","p395476","A2PPTQXFVA9H38","3OWZNK3RYMVDNXPNEIRWZ8JM6MU2UY","3BC8WZX3V525Y9CLFGGTKPZZUQYRRF","model","match","uniform","","","","","","","629","240461.70000004768","241090.70000004768","[""stimuli/HM07_HE.jpg"",""stimuli/WF06_HO.jpg"",""stimuli/BM03_FO.jpg"",""stimuli/BM16_SC.jpg""]","stimuli/HM07_HE.jpg","stimuli/WF06_HO.jpg","stimuli/BM03_FO.jpg","stimuli/BM16_SC.jpg","pos1","stimuli/HM07_HE.jpg","HE","HM07","0","3.5","7","8","stimuli/stars_7.png","206.5","[""HE"",""HO"",""FO"",""SC""]","[""HM07"",""WF06"",""BM03"",""BM16""]","[7,8,0,6]","[8,6,2,4]","","",""
"show-reward","130","242164","0.0-130.0","p395476","A2PPTQXFVA9H38","3OWZNK3RYMVDNXPNEIRWZ8JM6MU2UY","3BC8WZX3V525Y9CLFGGTKPZZUQYRRF","model","match","uniform","","","","","","","","241592.39999997616","243594.29999995232","","","","","","","","","","","","7","","stimuli/stars_7.png","206.5","","","","","stimuli/HM07_HE.jpg","",""
"explore-choice","131","243550","0.0-131.0","p395476","A2PPTQXFVA9H38","3OWZNK3RYMVDNXPNEIRWZ8JM6MU2UY","3BC8WZX3V525Y9CLFGGTKPZZUQYRRF","model","match","uniform","","","","","","","885.6000000238419","243595.10000002384","244480.70000004768","[""stimuli/WF06_HE.jpg"",""stimuli/BM03_FO.jpg"",""stimuli/BM16_HO.jpg"",""stimuli/HM07_SC.jpg""]","stimuli/WF06_HE.jpg","stimuli/BM03_FO.jpg","stimuli/BM16_HO.jpg","stimuli/HM07_SC.jpg","pos4","stimuli/HM07_SC.jpg","SC","HM07","3","5","10","8","stimuli/stars_10.png","211.5","[""HE"",""FO"",""HO"",""SC""]","[""WF06"",""BM03"",""BM16"",""HM07""]","[7,4,4,10]","[6,2,4,8]","","",""
"show-reward","132","245552","0.0-132.0","p395476","A2PPTQXFVA9H38","3OWZNK3RYMVDNXPNEIRWZ8JM6MU2UY","3BC8WZX3V525Y9CLFGGTKPZZUQYRRF","model","match","uniform","","","","","","","","244981.29999995232","246982.39999997616","","","","","","","","","","","","10","","stimuli/stars_10.png","211.5","","","","","stimuli/HM07_SC.jpg","",""
"explore-choice","133","246670","0.0-133.0","p395476","A2PPTQXFVA9H38","3OWZNK3RYMVDNXPNEIRWZ8JM6MU2UY","3BC8WZX3V525Y9CLFGGTKPZZUQYRRF","model","match","uniform","","","","","","","608.7000000476837","246982.89999997616","247591.60000002384","[""stimuli/HM07_SC.jpg"",""stimuli/WF06_FO.jpg"",""stimuli/BM03_HE.jpg"",""stimuli/BM16_HO.jpg""]","stimuli/HM07_SC.jpg","stimuli/WF06_FO.jpg","stimuli/BM03_HE.jpg","stimuli/BM16_HO.jpg","pos1","stimuli/HM07_SC.jpg","SC","HM07","0","3.5","7","8","stimuli/stars_7.png","215","[""SC"",""FO"",""HE"",""HO""]","[""HM07"",""WF06"",""BM03"",""BM16""]","[7,4,1,3]","[8,6,2,4]","","",""
"show-reward","134","248680","0.0-134.0","p395476","A2PPTQXFVA9H38","3OWZNK3RYMVDNXPNEIRWZ8JM6MU2UY","3BC8WZX3V525Y9CLFGGTKPZZUQYRRF","model","match","uniform","","","","","","","","248100.70000004768","250110.39999997616","","","","","","","","","","","","7","","stimuli/stars_7.png","215","","","","","stimuli/HM07_SC.jpg","",""
"explore-choice","135","249898","0.0-135.0","p395476","A2PPTQXFVA9H38","3OWZNK3RYMVDNXPNEIRWZ8JM6MU2UY","3BC8WZX3V525Y9CLFGGTKPZZUQYRRF","model","match","uniform","","","","","","","716.7999999523163","250111","250827.79999995232","[""stimuli/BM16_SC.jpg"",""stimuli/HM07_HE.jpg"",""stimuli/WF06_FO.jpg"",""stimuli/BM03_HO.jpg""]","stimuli/BM16_SC.jpg","stimuli/HM07_HE.jpg","stimuli/WF06_FO.jpg","stimuli/BM03_HO.jpg","pos2","stimuli/HM07_HE.jpg","HE","HM07","1","3.5","7","8","stimuli/stars_7.png","218.5","[""SC"",""HE"",""FO"",""HO""]","[""BM16"",""HM07"",""WF06"",""BM03""]","[6,7,4,1]","[4,8,6,2]","","",""
"show-reward","136","251908","0.0-136.0","p395476","A2PPTQXFVA9H38","3OWZNK3RYMVDNXPNEIRWZ8JM6MU2UY","3BC8WZX3V525Y9CLFGGTKPZZUQYRRF","model","match","uniform","","","","","","","","251329","253338","","","","","","","","","","","","7","","stimuli/stars_7.png","218.5","","","","","stimuli/HM07_HE.jpg","",""
"explore-choice","137","253016","0.0-137.0","p395476","A2PPTQXFVA9H38","3OWZNK3RYMVDNXPNEIRWZ8JM6MU2UY","3BC8WZX3V525Y9CLFGGTKPZZUQYRRF","model","match","uniform","","","","","","","606.6000000238419","253338.60000002384","253945.20000004768","[""stimuli/BM03_SC.jpg"",""stimuli/HM07_HE.jpg"",""stimuli/BM16_FO.jpg"",""stimuli/WF06_HO.jpg""]","stimuli/BM03_SC.jpg","stimuli/HM07_HE.jpg","stimuli/BM16_FO.jpg","stimuli/WF06_HO.jpg","pos2","stimuli/HM07_HE.jpg","HE","HM07","1","4","8","8","stimuli/stars_8.png","222.5","[""SC"",""HE"",""FO"",""HO""]","[""BM03"",""HM07"",""BM16"",""WF06""]","[4,8,5,6]","[2,8,4,6]","","",""
"show-reward","138","255018","0.0-138.0","p395476","A2PPTQXFVA9H38","3OWZNK3RYMVDNXPNEIRWZ8JM6MU2UY","3BC8WZX3V525Y9CLFGGTKPZZUQYRRF","model","match","uniform","","","","","","","","254446.5","256448.29999995232","","","","","","","","","","","","8","","stimuli/stars_8.png","222.5","","","","","stimuli/HM07_HE.jpg","",""
"explore-choice","139","256149","0.0-139.0","p395476","A2PPTQXFVA9H38","3OWZNK3RYMVDNXPNEIRWZ8JM6MU2UY","3BC8WZX3V525Y9CLFGGTKPZZUQYRRF","model","match","uniform","","","","","","","628.7000000476837","256448.89999997616","257077.60000002384","[""stimuli/WF06_HE.jpg"",""stimuli/BM03_HO.jpg"",""stimuli/BM16_SC.jpg"",""stimuli/HM07_FO.jpg""]","stimuli/WF06_HE.jpg","stimuli/BM03_HO.jpg","stimuli/BM16_SC.jpg","stimuli/HM07_FO.jpg","pos4","stimuli/HM07_FO.jpg","FO","HM07","3","4","8","8","stimuli/stars_8.png","226.5","[""HE"",""HO"",""SC"",""FO""]","[""WF06"",""BM03"",""BM16"",""HM07""]","[6,4,2,8]","[6,2,4,8]","","",""
"show-reward","140","258159","0.0-140.0","p395476","A2PPTQXFVA9H38","3OWZNK3RYMVDNXPNEIRWZ8JM6MU2UY","3BC8WZX3V525Y9CLFGGTKPZZUQYRRF","model","match","uniform","","","","","","","","257579.79999995232","259589.60000002384","","","","","","","","","","","","8","","stimuli/stars_8.png","226.5","","","","","stimuli/HM07_FO.jpg","",""
"explore-choice","141","259334","0.0-141.0","p395476","A2PPTQXFVA9H38","3OWZNK3RYMVDNXPNEIRWZ8JM6MU2UY","3BC8WZX3V525Y9CLFGGTKPZZUQYRRF","model","match","uniform","","","","","","","665.3000000715256","259590.29999995232","260255.60000002384","[""stimuli/HM07_HO.jpg"",""stimuli/BM03_HE.jpg"",""stimuli/BM16_FO.jpg"",""stimuli/WF06_SC.jpg""]","stimuli/HM07_HO.jpg","stimuli/BM03_HE.jpg","stimuli/BM16_FO.jpg","stimuli/WF06_SC.jpg","pos1","stimuli/HM07_HO.jpg","HO","HM07","0","5","10","8","stimuli/stars_10.png","231.5","[""HO"",""HE"",""FO"",""SC""]","[""HM07"",""BM03"",""BM16"",""WF06""]","[10,0,2,5]","[8,2,4,6]","","",""
"show-reward","142","261350","0.0-142.0","p395476","A2PPTQXFVA9H38","3OWZNK3RYMVDNXPNEIRWZ8JM6MU2UY","3BC8WZX3V525Y9CLFGGTKPZZUQYRRF","model","match","uniform","","","","","","","","260765.10000002384","262780.39999997616","","","","","","","","","","","","10","","stimuli/stars_10.png","231.5","","","","","stimuli/HM07_HO.jpg","",""
"explore-choice","143","263131","0.0-143.0","p395476","A2PPTQXFVA9H38","3OWZNK3RYMVDNXPNEIRWZ8JM6MU2UY","3BC8WZX3V525Y9CLFGGTKPZZUQYRRF","model","match","uniform","","","","","","","1278.9000000953674","262781.2999999523","264060.2000000477","[""stimuli/BM03_SC.jpg"",""stimuli/WF06_HE.jpg"",""stimuli/HM07_FO.jpg"",""stimuli/BM16_HO.jpg""]","stimuli/BM03_SC.jpg","stimuli/WF06_HE.jpg","stimuli/HM07_FO.jpg","stimuli/BM16_HO.jpg","pos3","stimuli/HM07_FO.jpg","FO","HM07","2","4.5","9","8","stimuli/stars_9.png","236","[""SC"",""HE"",""FO"",""HO""]","[""BM03"",""WF06"",""HM07"",""BM16""]","[0,8,9,6]","[2,6,8,4]","","",""
"show-reward","144","265147","0.0-144.0","p395476","A2PPTQXFVA9H38","3OWZNK3RYMVDNXPNEIRWZ8JM6MU2UY","3BC8WZX3V525Y9CLFGGTKPZZUQYRRF","model","match","uniform","","","","","","","","264562.39999997616","266577.39999997616","","","","","","","","","","","","9","","stimuli/stars_9.png","236","","","","","stimuli/HM07_FO.jpg","",""
"explore-choice","145","266243","0.0-145.0","p395476","A2PPTQXFVA9H38","3OWZNK3RYMVDNXPNEIRWZ8JM6MU2UY","3BC8WZX3V525Y9CLFGGTKPZZUQYRRF","model","match","uniform","","","","","","","586.6999999284744","266578.10000002384","267164.7999999523","[""stimuli/HM07_SC.jpg"",""stimuli/BM03_FO.jpg"",""stimuli/BM16_HE.jpg"",""stimuli/WF06_HO.jpg""]","stimuli/HM07_SC.jpg","stimuli/BM03_FO.jpg","stimuli/BM16_HE.jpg","stimuli/WF06_HO.jpg","pos1","stimuli/HM07_SC.jpg","SC","HM07","0","3.5","7","8","stimuli/stars_7.png","239.5","[""SC"",""FO"",""HE"",""HO""]","[""HM07"",""BM03"",""BM16"",""WF06""]","[7,0,2,7]","[8,2,4,6]","","",""
"show-reward","146","268250","0.0-146.0","p395476","A2PPTQXFVA9H38","3OWZNK3RYMVDNXPNEIRWZ8JM6MU2UY","3BC8WZX3V525Y9CLFGGTKPZZUQYRRF","model","match","uniform","","","","","","","","267674","269680","","","","","","","","","","","","7","","stimuli/stars_7.png","239.5","","","","","stimuli/HM07_SC.jpg","",""
"explore-choice","147","269273","0.0-147.0","p395476","A2PPTQXFVA9H38","3OWZNK3RYMVDNXPNEIRWZ8JM6MU2UY","3BC8WZX3V525Y9CLFGGTKPZZUQYRRF","model","match","uniform","","","","","","","516.1999999284744","269680.7000000477","270196.89999997616","[""stimuli/HM07_SC.jpg"",""stimuli/BM03_HO.jpg"",""stimuli/WF06_HE.jpg"",""stimuli/BM16_FO.jpg""]","stimuli/HM07_SC.jpg","stimuli/BM03_HO.jpg","stimuli/WF06_HE.jpg","stimuli/BM16_FO.jpg","pos1","stimuli/HM07_SC.jpg","SC","HM07","0","3.5","7","8","stimuli/stars_7.png","243","[""SC"",""HO"",""HE"",""FO""]","[""HM07"",""BM03"",""WF06"",""BM16""]","[7,2,7,4]","[8,2,6,4]","","",""
"show-reward","148","271289","0.0-148.0","p395476","A2PPTQXFVA9H38","3OWZNK3RYMVDNXPNEIRWZ8JM6MU2UY","3BC8WZX3V525Y9CLFGGTKPZZUQYRRF","model","match","uniform","","","","","","","","270703.60000002384","272719.2999999523","","","","","","","","","","","","7","","stimuli/stars_7.png","243","","","","","stimuli/HM07_SC.jpg","",""
"explore-choice","149","272420","0.0-149.0","p395476","A2PPTQXFVA9H38","3OWZNK3RYMVDNXPNEIRWZ8JM6MU2UY","3BC8WZX3V525Y9CLFGGTKPZZUQYRRF","model","match","uniform","","","","","","","621.6000000238419","272720.10000002384","273341.7000000477","[""stimuli/HM07_FO.jpg"",""stimuli/WF06_SC.jpg"",""stimuli/BM16_HE.jpg"",""stimuli/BM03_HO.jpg""]","stimuli/HM07_FO.jpg","stimuli/WF06_SC.jpg","stimuli/BM16_HE.jpg","stimuli/BM03_HO.jpg","pos1","stimuli/HM07_FO.jpg","FO","HM07","0","4.5","9","8","stimuli/stars_9.png","247.5","[""FO"",""SC"",""HE"",""HO""]","[""HM07"",""WF06"",""BM16"",""BM03""]","[9,7,6,3]","[8,6,4,2]","","",""
"show-reward","150","274435","0.0-150.0","p395476","A2PPTQXFVA9H38","3OWZNK3RYMVDNXPNEIRWZ8JM6MU2UY","3BC8WZX3V525Y9CLFGGTKPZZUQYRRF","model","match","uniform","","","","","","","","273851.2999999523","275865.60000002384","","","","","","","","","","","","9","","stimuli/stars_9.png","247.5","","","","","stimuli/HM07_FO.jpg","",""
"explore-choice","151","275826","0.0-151.0","p395476","A2PPTQXFVA9H38","3OWZNK3RYMVDNXPNEIRWZ8JM6MU2UY","3BC8WZX3V525Y9CLFGGTKPZZUQYRRF","model","match","uniform","","","","","","","890.2000000476837","275866.5","276756.7000000477","[""stimuli/WF06_FO.jpg"",""stimuli/BM16_HO.jpg"",""stimuli/HM07_HE.jpg"",""stimuli/BM03_SC.jpg""]","stimuli/WF06_FO.jpg","stimuli/BM16_HO.jpg","stimuli/HM07_HE.jpg","stimuli/BM03_SC.jpg","pos3","stimuli/HM07_HE.jpg","HE","HM07","2","5","10","8","stimuli/stars_10.png","252.5","[""FO"",""HO"",""HE"",""SC""]","[""WF06"",""BM16"",""HM07"",""BM03""]","[8,2,10,3]","[6,4,8,2]","","",""
"show-reward","152","277828","0.0-152.0","p395476","A2PPTQXFVA9H38","3OWZNK3RYMVDNXPNEIRWZ8JM6MU2UY","3BC8WZX3V525Y9CLFGGTKPZZUQYRRF","model","match","uniform","","","","","","","","277257.5","279258.2999999523","","","","","","","","","","","","10","","stimuli/stars_10.png","252.5","","","","","stimuli/HM07_HE.jpg","",""
"explore-choice","153","279308","0.0-153.0","p395476","A2PPTQXFVA9H38","3OWZNK3RYMVDNXPNEIRWZ8JM6MU2UY","3BC8WZX3V525Y9CLFGGTKPZZUQYRRF","model","match","uniform","","","","","","","978.6000000238419","279259","280237.60000002384","[""stimuli/HM07_HE.jpg"",""stimuli/BM03_HO.jpg"",""stimuli/WF06_FO.jpg"",""stimuli/BM16_SC.jpg""]","stimuli/HM07_HE.jpg","stimuli/BM03_HO.jpg","stimuli/WF06_FO.jpg","stimuli/BM16_SC.jpg","pos1","stimuli/HM07_HE.jpg","HE","HM07","0","3.5","7","8","stimuli/stars_7.png","256","[""HE"",""HO"",""FO"",""SC""]","[""HM07"",""BM03"",""WF06"",""BM16""]","[7,1,4,6]","[8,2,6,4]","","",""
"show-reward","154","281312","0.0-154.0","p395476","A2PPTQXFVA9H38","3OWZNK3RYMVDNXPNEIRWZ8JM6MU2UY","3BC8WZX3V525Y9CLFGGTKPZZUQYRRF","model","match","uniform","","","","","","","","280739.2999999523","282742.10000002384","","","","","","","","","","","","7","","stimuli/stars_7.png","256","","","","","stimuli/HM07_HE.jpg","",""
"explore-choice","155","282489","0.0-155.0","p395476","A2PPTQXFVA9H38","3OWZNK3RYMVDNXPNEIRWZ8JM6MU2UY","3BC8WZX3V525Y9CLFGGTKPZZUQYRRF","model","match","uniform","","","","","","","667.1000000238419","282742.60000002384","283409.7000000477","[""stimuli/BM16_HO.jpg"",""stimuli/HM07_SC.jpg"",""stimuli/WF06_FO.jpg"",""stimuli/BM03_HE.jpg""]","stimuli/BM16_HO.jpg","stimuli/HM07_SC.jpg","stimuli/WF06_FO.jpg","stimuli/BM03_HE.jpg","pos2","stimuli/HM07_SC.jpg","SC","HM07","1","3.5","7","8","stimuli/stars_7.png","259.5","[""HO"",""SC"",""FO"",""HE""]","[""BM16"",""HM07"",""WF06"",""BM03""]","[3,7,4,1]","[4,8,6,2]","","",""
"show-reward","156","284496","0.0-156.0","p395476","A2PPTQXFVA9H38","3OWZNK3RYMVDNXPNEIRWZ8JM6MU2UY","3BC8WZX3V525Y9CLFGGTKPZZUQYRRF","model","match","uniform","","","","","","","","283920.60000002384","285926.89999997616","","","","","","","","","","","","7","","stimuli/stars_7.png","259.5","","","","","stimuli/HM07_SC.jpg","",""
"explore-choice","157","285446","0.0-157.0","p395476","A2PPTQXFVA9H38","3OWZNK3RYMVDNXPNEIRWZ8JM6MU2UY","3BC8WZX3V525Y9CLFGGTKPZZUQYRRF","model","match","uniform","","","","","","","448.39999997615814","285927.39999997616","286375.7999999523","[""stimuli/HM07_SC.jpg"",""stimuli/WF06_HE.jpg"",""stimuli/BM16_HO.jpg"",""stimuli/BM03_FO.jpg""]","stimuli/HM07_SC.jpg","stimuli/WF06_HE.jpg","stimuli/BM16_HO.jpg","stimuli/BM03_FO.jpg","pos1","stimuli/HM07_SC.jpg","SC","HM07","0","5","10","8","stimuli/stars_10.png","264.5","[""SC"",""HE"",""HO"",""FO""]","[""HM07"",""WF06"",""BM16"",""BM03""]","[10,7,4,4]","[8,6,4,2]","","",""
"show-reward","158","287448","0.0-158.0","p395476","A2PPTQXFVA9H38","3OWZNK3RYMVDNXPNEIRWZ8JM6MU2UY","3BC8WZX3V525Y9CLFGGTKPZZUQYRRF","model","match","uniform","","","","","","","","286877.10000002384","288878.39999997616","","","","","","","","","","","","10","","stimuli/stars_10.png","264.5","","","","","stimuli/HM07_SC.jpg","",""
"explore-choice","159","288900","0.0-159.0","p395476","A2PPTQXFVA9H38","3OWZNK3RYMVDNXPNEIRWZ8JM6MU2UY","3BC8WZX3V525Y9CLFGGTKPZZUQYRRF","model","match","uniform","","","","","","","948.8999999761581","288878.89999997616","289827.7999999523","[""stimuli/BM16_FO.jpg"",""stimuli/WF06_HE.jpg"",""stimuli/HM07_HO.jpg"",""stimuli/BM03_SC.jpg""]","stimuli/BM16_FO.jpg","stimuli/WF06_HE.jpg","stimuli/HM07_HO.jpg","stimuli/BM03_SC.jpg","pos3","stimuli/HM07_HO.jpg","HO","HM07","2","4.5","9","8","stimuli/stars_9.png","269","[""FO"",""HE"",""HO"",""SC""]","[""BM16"",""WF06"",""HM07"",""BM03""]","[5,6,9,2]","[4,6,8,2]","","",""
"show-reward","160","290916","0.0-160.0","p395476","A2PPTQXFVA9H38","3OWZNK3RYMVDNXPNEIRWZ8JM6MU2UY","3BC8WZX3V525Y9CLFGGTKPZZUQYRRF","model","match","uniform","","","","","","","","290331.60000002384","292346.39999997616","","","","","","","","","","","","9","","stimuli/stars_9.png","269","","","","","stimuli/HM07_HO.jpg","",""
"explore-choice","161","292426","0.0-161.0","p395476","A2PPTQXFVA9H38","3OWZNK3RYMVDNXPNEIRWZ8JM6MU2UY","3BC8WZX3V525Y9CLFGGTKPZZUQYRRF","model","match","uniform","","","","","","","1002.6000000238419","292347.10000002384","293349.7000000477","[""stimuli/BM03_FO.jpg"",""stimuli/HM07_SC.jpg"",""stimuli/WF06_HO.jpg"",""stimuli/BM16_HE.jpg""]","stimuli/BM03_FO.jpg","stimuli/HM07_SC.jpg","stimuli/WF06_HO.jpg","stimuli/BM16_HE.jpg","pos2","stimuli/HM07_SC.jpg","SC","HM07","1","3.5","7","8","stimuli/stars_7.png","272.5","[""FO"",""SC"",""HO"",""HE""]","[""BM03"",""HM07"",""WF06"",""BM16""]","[0,7,7,2]","[2,8,6,4]","","",""
"show-reward","162","294437","0.0-162.0","p395476","A2PPTQXFVA9H38","3OWZNK3RYMVDNXPNEIRWZ8JM6MU2UY","3BC8WZX3V525Y9CLFGGTKPZZUQYRRF","model","match","uniform","","","","","","","","293857.39999997616","295867.89999997616","","","","","","","","","","","","7","","stimuli/stars_7.png","272.5","","","","","stimuli/HM07_SC.jpg","",""
"explore-choice","163","295848","0.0-163.0","p395476","A2PPTQXFVA9H38","3OWZNK3RYMVDNXPNEIRWZ8JM6MU2UY","3BC8WZX3V525Y9CLFGGTKPZZUQYRRF","model","match","uniform","","","","","","","910","295868.7000000477","296778.7000000477","[""stimuli/BM03_HE.jpg"",""stimuli/BM16_HO.jpg"",""stimuli/WF06_SC.jpg"",""stimuli/HM07_FO.jpg""]","stimuli/BM03_HE.jpg","stimuli/BM16_HO.jpg","stimuli/WF06_SC.jpg","stimuli/HM07_FO.jpg","pos4","stimuli/HM07_FO.jpg","FO","HM07","3","4.5","9","8","stimuli/stars_9.png","277","[""HE"",""HO"",""SC"",""FO""]","[""BM03"",""BM16"",""WF06"",""HM07""]","[0,5,4,9]","[2,4,6,8]","","",""
"show-reward","164","297856","0.0-164.0","p395476","A2PPTQXFVA9H38","3OWZNK3RYMVDNXPNEIRWZ8JM6MU2UY","3BC8WZX3V525Y9CLFGGTKPZZUQYRRF","model","match","uniform","","","","","","","","297279.5","299287","","","","","","","","","","","","9","","stimuli/stars_9.png","277","","","","","stimuli/HM07_FO.jpg","",""
"explore-choice","165","299017","0.0-165.0","p395476","A2PPTQXFVA9H38","3OWZNK3RYMVDNXPNEIRWZ8JM6MU2UY","3BC8WZX3V525Y9CLFGGTKPZZUQYRRF","model","match","uniform","","","","","","","646.3000000715256","299287.7999999523","299934.10000002384","[""stimuli/BM16_SC.jpg"",""stimuli/BM03_HO.jpg"",""stimuli/HM07_FO.jpg"",""stimuli/WF06_HE.jpg""]","stimuli/BM16_SC.jpg","stimuli/BM03_HO.jpg","stimuli/HM07_FO.jpg","stimuli/WF06_HE.jpg","pos3","stimuli/HM07_FO.jpg","FO","HM07","2","4","8","8","stimuli/stars_8.png","281","[""SC"",""HO"",""FO"",""HE""]","[""BM16"",""BM03"",""HM07"",""WF06""]","[2,4,8,6]","[4,2,8,6]","","",""
"show-reward","166","301033","0.0-166.0","p395476","A2PPTQXFVA9H38","3OWZNK3RYMVDNXPNEIRWZ8JM6MU2UY","3BC8WZX3V525Y9CLFGGTKPZZUQYRRF","model","match","uniform","","","","","","","","300448.5","302463.7000000477","","","","","","","","","","","","8","","stimuli/stars_8.png","281","","","","","stimuli/HM07_FO.jpg","",""
"explore-choice","167","302794","0.0-167.0","p395476","A2PPTQXFVA9H38","3OWZNK3RYMVDNXPNEIRWZ8JM6MU2UY","3BC8WZX3V525Y9CLFGGTKPZZUQYRRF","model","match","uniform","","","","","","","1254.6000000238419","302464.39999997616","303719","[""stimuli/BM16_HE.jpg"",""stimuli/WF06_SC.jpg"",""stimuli/HM07_HO.jpg"",""stimuli/BM03_FO.jpg""]","stimuli/BM16_HE.jpg","stimuli/WF06_SC.jpg","stimuli/HM07_HO.jpg","stimuli/BM03_FO.jpg","pos3","stimuli/HM07_HO.jpg","HO","HM07","2","4","8","8","stimuli/stars_8.png","285","[""HE"",""SC"",""HO"",""FO""]","[""BM16"",""WF06"",""HM07"",""BM03""]","[5,4,8,0]","[4,6,8,2]","","",""
"show-reward","168","304796","0.0-168.0","p395476","A2PPTQXFVA9H38","3OWZNK3RYMVDNXPNEIRWZ8JM6MU2UY","3BC8WZX3V525Y9CLFGGTKPZZUQYRRF","model","match","uniform","","","","","","","","304225.5","306227.2000000477","","","","","","","","","","","","8","","stimuli/stars_8.png","285","","","","","stimuli/HM07_HO.jpg","",""
"explore-choice","169","305972","0.0-169.0","p395476","A2PPTQXFVA9H38","3OWZNK3RYMVDNXPNEIRWZ8JM6MU2UY","3BC8WZX3V525Y9CLFGGTKPZZUQYRRF","model","match","uniform","","","","","","","666.0999999046326","306227.7000000477","306893.7999999523","[""stimuli/HM07_FO.jpg"",""stimuli/BM03_HE.jpg"",""stimuli/BM16_SC.jpg"",""stimuli/WF06_HO.jpg""]","stimuli/HM07_FO.jpg","stimuli/BM03_HE.jpg","stimuli/BM16_SC.jpg","stimuli/WF06_HO.jpg","pos1","stimuli/HM07_FO.jpg","FO","HM07","0","3.5","7","8","stimuli/stars_7.png","288.5","[""FO"",""HE"",""SC"",""HO""]","[""HM07"",""BM03"",""BM16"",""WF06""]","[7,1,4,8]","[8,2,4,6]","","",""
"show-reward","170","307973","0.0-170.0","p395476","A2PPTQXFVA9H38","3OWZNK3RYMVDNXPNEIRWZ8JM6MU2UY","3BC8WZX3V525Y9CLFGGTKPZZUQYRRF","model","match","uniform","","","","","","","","307403.10000002384","309404.39999997616","","","","","","","","","","","","7","","stimuli/stars_7.png","288.5","","","","","stimuli/HM07_FO.jpg","",""
"explore-choice","171","309349","0.0-171.0","p395476","A2PPTQXFVA9H38","3OWZNK3RYMVDNXPNEIRWZ8JM6MU2UY","3BC8WZX3V525Y9CLFGGTKPZZUQYRRF","model","match","uniform","","","","","","","864","309404.89999997616","310268.89999997616","[""stimuli/BM16_FO.jpg"",""stimuli/BM03_HE.jpg"",""stimuli/HM07_SC.jpg"",""stimuli/WF06_HO.jpg""]","stimuli/BM16_FO.jpg","stimuli/BM03_HE.jpg","stimuli/HM07_SC.jpg","stimuli/WF06_HO.jpg","pos3","stimuli/HM07_SC.jpg","SC","HM07","2","4.5","9","8","stimuli/stars_9.png","293","[""FO"",""HE"",""SC"",""HO""]","[""BM16"",""BM03"",""HM07"",""WF06""]","[3,4,9,5]","[4,2,8,6]","","",""
"show-reward","172","311354","0.0-172.0","p395476","A2PPTQXFVA9H38","3OWZNK3RYMVDNXPNEIRWZ8JM6MU2UY","3BC8WZX3V525Y9CLFGGTKPZZUQYRRF","model","match","uniform","","","","","","","","310780.7000000477","312784.7000000477","","","","","","","","","","","","9","","stimuli/stars_9.png","293","","","","","stimuli/HM07_SC.jpg","",""
"explore-choice","173","312690","0.0-173.0","p395476","A2PPTQXFVA9H38","3OWZNK3RYMVDNXPNEIRWZ8JM6MU2UY","3BC8WZX3V525Y9CLFGGTKPZZUQYRRF","model","match","uniform","","","","","","","834.2000000476837","312785.5","313619.7000000477","[""stimuli/BM03_SC.jpg"",""stimuli/HM07_FO.jpg"",""stimuli/WF06_HO.jpg"",""stimuli/BM16_HE.jpg""]","stimuli/BM03_SC.jpg","stimuli/HM07_FO.jpg","stimuli/WF06_HO.jpg","stimuli/BM16_HE.jpg","pos2","stimuli/HM07_FO.jpg","FO","HM07","1","3.5","7","8","stimuli/stars_7.png","296.5","[""SC"",""FO"",""HO"",""HE""]","[""BM03"",""HM07"",""WF06"",""BM16""]","[0,7,8,5]","[2,8,6,4]","","",""
"show-reward","174","314696","0.0-174.0","p395476","A2PPTQXFVA9H38","3OWZNK3RYMVDNXPNEIRWZ8JM6MU2UY","3BC8WZX3V525Y9CLFGGTKPZZUQYRRF","model","match","uniform","","","","","","","","314121","316126.60000002384","","","","","","","","","","","","7","","stimuli/stars_7.png","296.5","","","","","stimuli/HM07_FO.jpg","",""
"explore-choice","175","315901","0.0-175.0","p395476","A2PPTQXFVA9H38","3OWZNK3RYMVDNXPNEIRWZ8JM6MU2UY","3BC8WZX3V525Y9CLFGGTKPZZUQYRRF","model","match","uniform","","","","","","","699.4000000953674","316127.2999999523","316826.7000000477","[""stimuli/BM03_FO.jpg"",""stimuli/WF06_SC.jpg"",""stimuli/HM07_HE.jpg"",""stimuli/BM16_HO.jpg""]","stimuli/BM03_FO.jpg","stimuli/WF06_SC.jpg","stimuli/HM07_HE.jpg","stimuli/BM16_HO.jpg","pos3","stimuli/HM07_HE.jpg","HE","HM07","2","3","6","8","stimuli/stars_6.png","299.5","[""FO"",""SC"",""HE"",""HO""]","[""BM03"",""WF06"",""HM07"",""BM16""]","[0,5,6,5]","[2,6,8,4]","","",""
"show-reward","176","317906","0.0-176.0","p395476","A2PPTQXFVA9H38","3OWZNK3RYMVDNXPNEIRWZ8JM6MU2UY","3BC8WZX3V525Y9CLFGGTKPZZUQYRRF","model","match","uniform","","","","","","","","317332.7000000477","319336.5","","","","","","","","","","","","6","","stimuli/stars_6.png","299.5","","","","","stimuli/HM07_HE.jpg","",""
"explore-choice","177","319549","0.0-177.0","p395476","A2PPTQXFVA9H38","3OWZNK3RYMVDNXPNEIRWZ8JM6MU2UY","3BC8WZX3V525Y9CLFGGTKPZZUQYRRF","model","match","uniform","","","","","","","1141.5","319337.2000000477","320478.7000000477","[""stimuli/HM07_HO.jpg"",""stimuli/BM03_HE.jpg"",""stimuli/BM16_FO.jpg"",""stimuli/WF06_SC.jpg""]","stimuli/HM07_HO.jpg","stimuli/BM03_HE.jpg","stimuli/BM16_FO.jpg","stimuli/WF06_SC.jpg","pos1","stimuli/HM07_HO.jpg","HO","HM07","0","5","10","8","stimuli/stars_10.png","304.5","[""HO"",""HE"",""FO"",""SC""]","[""HM07"",""BM03"",""BM16"",""WF06""]","[10,0,2,5]","[8,2,4,6]","","",""
"show-reward","178","321555","0.0-178.0","p395476","A2PPTQXFVA9H38","3OWZNK3RYMVDNXPNEIRWZ8JM6MU2UY","3BC8WZX3V525Y9CLFGGTKPZZUQYRRF","model","match","uniform","","","","","","","","320979.7999999523","322985.60000002384","","","","","","","","","","","","10","","stimuli/stars_10.png","304.5","","","","","stimuli/HM07_HO.jpg","",""
"explore-choice","179","323149","0.0-179.0","p395476","A2PPTQXFVA9H38","3OWZNK3RYMVDNXPNEIRWZ8JM6MU2UY","3BC8WZX3V525Y9CLFGGTKPZZUQYRRF","model","match","uniform","","","","","","","1092.5999999046326","322986.2000000477","324078.7999999523","[""stimuli/BM16_SC.jpg"",""stimuli/BM03_FO.jpg"",""stimuli/WF06_HE.jpg"",""stimuli/HM07_HO.jpg""]","stimuli/BM16_SC.jpg","stimuli/BM03_FO.jpg","stimuli/WF06_HE.jpg","stimuli/HM07_HO.jpg","pos4","stimuli/HM07_HO.jpg","HO","HM07","3","3.5","7","8","stimuli/stars_7.png","308","[""SC"",""FO"",""HE"",""HO""]","[""BM16"",""BM03"",""WF06"",""HM07""]","[4,1,7,7]","[4,2,6,8]","","",""
"show-reward","180","325155","0.0-180.0","p395476","A2PPTQXFVA9H38","3OWZNK3RYMVDNXPNEIRWZ8JM6MU2UY","3BC8WZX3V525Y9CLFGGTKPZZUQYRRF","model","match","uniform","","","","","","","","324579.89999997616","326585.39999997616","","","","","","","","","","","","7","","stimuli/stars_7.png","308","","","","","stimuli/HM07_HO.jpg","",""
"explore-choice","181","326342","0.0-181.0","p395476","A2PPTQXFVA9H38","3OWZNK3RYMVDNXPNEIRWZ8JM6MU2UY","3BC8WZX3V525Y9CLFGGTKPZZUQYRRF","model","match","uniform","","","","","","","686.7999999523163","326586","327272.7999999523","[""stimuli/WF06_HE.jpg"",""stimuli/HM07_FO.jpg"",""stimuli/BM03_SC.jpg"",""stimuli/BM16_HO.jpg""]","stimuli/WF06_HE.jpg","stimuli/HM07_FO.jpg","stimuli/BM03_SC.jpg","stimuli/BM16_HO.jpg","pos2","stimuli/HM07_FO.jpg","FO","HM07","1","4.5","9","8","stimuli/stars_9.png","312.5","[""HE"",""FO"",""SC"",""HO""]","[""WF06"",""HM07"",""BM03"",""BM16""]","[8,9,0,6]","[6,8,2,4]","","",""
"show-reward","182","328354","0.0-182.0","p395476","A2PPTQXFVA9H38","3OWZNK3RYMVDNXPNEIRWZ8JM6MU2UY","3BC8WZX3V525Y9CLFGGTKPZZUQYRRF","model","match","uniform","","","","","","","","327773.5","329784.60000002384","","","","","","","","","","","","9","","stimuli/stars_9.png","312.5","","","","","stimuli/HM07_FO.jpg","",""
"explore-choice","183","329766","0.0-183.0","p395476","A2PPTQXFVA9H38","3OWZNK3RYMVDNXPNEIRWZ8JM6MU2UY","3BC8WZX3V525Y9CLFGGTKPZZUQYRRF","model","match","uniform","","","","","","","910.5","329785.2000000477","330695.7000000477","[""stimuli/WF06_FO.jpg"",""stimuli/BM03_SC.jpg"",""stimuli/BM16_HE.jpg"",""stimuli/HM07_HO.jpg""]","stimuli/WF06_FO.jpg","stimuli/BM03_SC.jpg","stimuli/BM16_HE.jpg","stimuli/HM07_HO.jpg","pos4","stimuli/HM07_HO.jpg","HO","HM07","3","4","8","8","stimuli/stars_8.png","316.5","[""FO"",""SC"",""HE"",""HO""]","[""WF06"",""BM03"",""BM16"",""HM07""]","[8,1,6,8]","[6,2,4,8]","","",""
"show-reward","184","331774","0.0-184.0","p395476","A2PPTQXFVA9H38","3OWZNK3RYMVDNXPNEIRWZ8JM6MU2UY","3BC8WZX3V525Y9CLFGGTKPZZUQYRRF","model","match","uniform","","","","","","","","331197.2999999523","333204.5","","","","","","","","","","","","8","","stimuli/stars_8.png","316.5","","","","","stimuli/HM07_HO.jpg","",""
"explore-choice","185","333269","0.0-185.0","p395476","A2PPTQXFVA9H38","3OWZNK3RYMVDNXPNEIRWZ8JM6MU2UY","3BC8WZX3V525Y9CLFGGTKPZZUQYRRF","model","match","uniform","","","","","","","993.8999999761581","333205.10000002384","334199","[""stimuli/BM16_SC.jpg"",""stimuli/BM03_FO.jpg"",""stimuli/HM07_HE.jpg"",""stimuli/WF06_HO.jpg""]","stimuli/BM16_SC.jpg","stimuli/BM03_FO.jpg","stimuli/HM07_HE.jpg","stimuli/WF06_HO.jpg","pos3","stimuli/HM07_HE.jpg","HE","HM07","2","3.5","7","8","stimuli/stars_7.png","320","[""SC"",""FO"",""HE"",""HO""]","[""BM16"",""BM03"",""HM07"",""WF06""]","[6,0,7,8]","[4,2,8,6]","","",""
"show-reward","186","335284","0.0-186.0","p395476","A2PPTQXFVA9H38","3OWZNK3RYMVDNXPNEIRWZ8JM6MU2UY","3BC8WZX3V525Y9CLFGGTKPZZUQYRRF","model","match","uniform","","","","","","","","334700.10000002384","336714.39999997616","","","","","","","","","","","","7","","stimuli/stars_7.png","320","","","","","stimuli/HM07_HE.jpg","",""
"explore-choice","187","336718","0.0-187.0","p395476","A2PPTQXFVA9H38","3OWZNK3RYMVDNXPNEIRWZ8JM6MU2UY","3BC8WZX3V525Y9CLFGGTKPZZUQYRRF","model","match","uniform","","","","","","","923.7000000476837","336715","337638.7000000477","[""stimuli/BM16_FO.jpg"",""stimuli/HM07_HE.jpg"",""stimuli/WF06_HO.jpg"",""stimuli/BM03_SC.jpg""]","stimuli/BM16_FO.jpg","stimuli/HM07_HE.jpg","stimuli/WF06_HO.jpg","stimuli/BM03_SC.jpg","pos2","stimuli/HM07_HE.jpg","HE","HM07","1","4","8","8","stimuli/stars_8.png","324","[""FO"",""HE"",""HO"",""SC""]","[""BM16"",""HM07"",""WF06"",""BM03""]","[5,8,6,4]","[4,8,6,2]","","",""
"show-reward","188","338721","0.0-188.0","p395476","A2PPTQXFVA9H38","3OWZNK3RYMVDNXPNEIRWZ8JM6MU2UY","3BC8WZX3V525Y9CLFGGTKPZZUQYRRF","model","match","uniform","","","","","","","","338149.7999999523","340151.39999997616","","","","","","","","","","","","8","","stimuli/stars_8.png","324","","","","","stimuli/HM07_HE.jpg","",""
"explore-choice","189","340060","0.0-189.0","p395476","A2PPTQXFVA9H38","3OWZNK3RYMVDNXPNEIRWZ8JM6MU2UY","3BC8WZX3V525Y9CLFGGTKPZZUQYRRF","model","match","uniform","","","","","","","838.5","340152.2000000477","340990.7000000477","[""stimuli/WF06_SC.jpg"",""stimuli/BM03_HO.jpg"",""stimuli/HM07_FO.jpg"",""stimuli/BM16_HE.jpg""]","stimuli/WF06_SC.jpg","stimuli/BM03_HO.jpg","stimuli/HM07_FO.jpg","stimuli/BM16_HE.jpg","pos3","stimuli/HM07_FO.jpg","FO","HM07","2","4.5","9","8","stimuli/stars_9.png","328.5","[""SC"",""HO"",""FO"",""HE""]","[""WF06"",""BM03"",""HM07"",""BM16""]","[7,3,9,6]","[6,2,8,4]","","",""
"show-reward","190","342062","0.0-190.0","p395476","A2PPTQXFVA9H38","3OWZNK3RYMVDNXPNEIRWZ8JM6MU2UY","3BC8WZX3V525Y9CLFGGTKPZZUQYRRF","model","match","uniform","","","","","","","","341491.60000002384","343493.2999999523","","","","","","","","","","","","9","","stimuli/stars_9.png","328.5","","","","","stimuli/HM07_FO.jpg","",""
"explore-choice","191","343404","0.0-191.0","p395476","A2PPTQXFVA9H38","3OWZNK3RYMVDNXPNEIRWZ8JM6MU2UY","3BC8WZX3V525Y9CLFGGTKPZZUQYRRF","model","match","uniform","","","","","","","840.8999999761581","343493.89999997616","344334.7999999523","[""stimuli/BM16_FO.jpg"",""stimuli/WF06_HE.jpg"",""stimuli/BM03_HO.jpg"",""stimuli/HM07_SC.jpg""]","stimuli/BM16_FO.jpg","stimuli/WF06_HE.jpg","stimuli/BM03_HO.jpg","stimuli/HM07_SC.jpg","pos4","stimuli/HM07_SC.jpg","SC","HM07","3","3.5","7","8","stimuli/stars_7.png","332","[""FO"",""HE"",""HO"",""SC""]","[""BM16"",""WF06"",""BM03"",""HM07""]","[4,7,2,7]","[4,6,2,8]","","",""
"show-reward","192","345408","0.0-192.0","p395476","A2PPTQXFVA9H38","3OWZNK3RYMVDNXPNEIRWZ8JM6MU2UY","3BC8WZX3V525Y9CLFGGTKPZZUQYRRF","model","match","uniform","","","","","","","","344835.7999999523","346838.2000000477","","","","","","","","","","","","7","","stimuli/stars_7.png","332","","","","","stimuli/HM07_SC.jpg","",""
"explore-choice","193","346866","0.0-193.0","p395476","A2PPTQXFVA9H38","3OWZNK3RYMVDNXPNEIRWZ8JM6MU2UY","3BC8WZX3V525Y9CLFGGTKPZZUQYRRF","model","match","uniform","","","","","","","955.6999999284744","346839.10000002384","347794.7999999523","[""stimuli/HM07_HE.jpg"",""stimuli/BM03_HO.jpg"",""stimuli/WF06_SC.jpg"",""stimuli/BM16_FO.jpg""]","stimuli/HM07_HE.jpg","stimuli/BM03_HO.jpg","stimuli/WF06_SC.jpg","stimuli/BM16_FO.jpg","pos1","stimuli/HM07_HE.jpg","HE","HM07","0","3","6","8","stimuli/stars_6.png","335","[""HE"",""HO"",""SC"",""FO""]","[""HM07"",""BM03"",""WF06"",""BM16""]","[6,4,8,6]","[8,2,6,4]","","",""
"show-reward","194","348872","0.0-194.0","p395476","A2PPTQXFVA9H38","3OWZNK3RYMVDNXPNEIRWZ8JM6MU2UY","3BC8WZX3V525Y9CLFGGTKPZZUQYRRF","model","match","uniform","","","","","","","","348297.2999999523","350303.2999999523","","","","","","","","","","","","6","","stimuli/stars_6.png","335","","","","","stimuli/HM07_HE.jpg","",""
"explore-choice","195","349882","0.0-195.0","p395476","A2PPTQXFVA9H38","3OWZNK3RYMVDNXPNEIRWZ8JM6MU2UY","3BC8WZX3V525Y9CLFGGTKPZZUQYRRF","model","match","uniform","","","","","","","505.8000000715256","350303.89999997616","350809.7000000477","[""stimuli/HM07_HO.jpg"",""stimuli/BM03_HE.jpg"",""stimuli/WF06_FO.jpg"",""stimuli/BM16_SC.jpg""]","stimuli/HM07_HO.jpg","stimuli/BM03_HE.jpg","stimuli/WF06_FO.jpg","stimuli/BM16_SC.jpg","pos1","stimuli/HM07_HO.jpg","HO","HM07","0","4.5","9","8","stimuli/stars_9.png","339.5","[""HO"",""HE"",""FO"",""SC""]","[""HM07"",""BM03"",""WF06"",""BM16""]","[9,2,7,3]","[8,2,6,4]","","",""
"show-reward","196","351885","0.0-196.0","p395476","A2PPTQXFVA9H38","3OWZNK3RYMVDNXPNEIRWZ8JM6MU2UY","3BC8WZX3V525Y9CLFGGTKPZZUQYRRF","model","match","uniform","","","","","","","","351313.2999999523","353315.60000002384","","","","","","","","","","","","9","","stimuli/stars_9.png","339.5","","","","","stimuli/HM07_HO.jpg","",""
"explore-choice","197","353107","0.0-197.0","p395476","A2PPTQXFVA9H38","3OWZNK3RYMVDNXPNEIRWZ8JM6MU2UY","3BC8WZX3V525Y9CLFGGTKPZZUQYRRF","model","match","uniform","","","","","","","721.8999999761581","353316","354037.89999997616","[""stimuli/WF06_FO.jpg"",""stimuli/HM07_SC.jpg"",""stimuli/BM16_HE.jpg"",""stimuli/BM03_HO.jpg""]","stimuli/WF06_FO.jpg","stimuli/HM07_SC.jpg","stimuli/BM16_HE.jpg","stimuli/BM03_HO.jpg","pos2","stimuli/HM07_SC.jpg","SC","HM07","1","3.5","7","8","stimuli/stars_7.png","343","[""FO"",""SC"",""HE"",""HO""]","[""WF06"",""HM07"",""BM16"",""BM03""]","[8,7,2,1]","[6,8,4,2]","","",""
"show-reward","198","355110","0.0-198.0","p395476","A2PPTQXFVA9H38","3OWZNK3RYMVDNXPNEIRWZ8JM6MU2UY","3BC8WZX3V525Y9CLFGGTKPZZUQYRRF","model","match","uniform","","","","","","","","354538.60000002384","356540.2999999523","","","","","","","","","","","","7","","stimuli/stars_7.png","343","","","","","stimuli/HM07_SC.jpg","",""
"instructions","199","360579","0.0-199.0","p395476","A2PPTQXFVA9H38","3OWZNK3RYMVDNXPNEIRWZ8JM6MU2UY","3BC8WZX3V525Y9CLFGGTKPZZUQYRRF","model","match","uniform","","","","","","[{""page_index"":0,""viewing_time"":5468.600000023842}]","5469.100000023842","","","","","","","","","","","","","","","","","","","","","","","",""
"survey-text","200","364801","0.0-200.0-0.0","p395476","A2PPTQXFVA9H38","3OWZNK3RYMVDNXPNEIRWZ8JM6MU2UY","3BC8WZX3V525Y9CLFGGTKPZZUQYRRF","model","match","uniform","","","","","","","4219.299999952316","","","","","","","","","","","","","","","","","","","","","","","{""age"":""29""}",""
"survey-text","201","368015","0.0-200.0-1.0","p395476","A2PPTQXFVA9H38","3OWZNK3RYMVDNXPNEIRWZ8JM6MU2UY","3BC8WZX3V525Y9CLFGGTKPZZUQYRRF","model","match","uniform","","","","","","","3212.6999999284744","","","","","","","","","","","","","","","","","","","","","","","{""gender"":""Male""}",""
"survey-text","202","371621","0.0-200.0-2.0","p395476","A2PPTQXFVA9H38","3OWZNK3RYMVDNXPNEIRWZ8JM6MU2UY","3BC8WZX3V525Y9CLFGGTKPZZUQYRRF","model","match","uniform","","","","","","","3604.7999999523163","","","","","","","","","","","","","","","","","","","","","","","{""country"":""United States""}",""
"survey-text","203","377902","0.0-200.0-3.0","p395476","A2PPTQXFVA9H38","3OWZNK3RYMVDNXPNEIRWZ8JM6MU2UY","3BC8WZX3V525Y9CLFGGTKPZZUQYRRF","model","match","uniform","","","","","","","6279.599999904633","","","","","","","","","","","","","","","","","","","","","","","{""language"":""English"",""other_languages"":""NA""}",""
"survey-multi-select","204","379539","0.0-201.0","p395476","A2PPTQXFVA9H38","3OWZNK3RYMVDNXPNEIRWZ8JM6MU2UY","3BC8WZX3V525Y9CLFGGTKPZZUQYRRF","model","match","uniform","","","","","","","1635.1999999284744","","","","","","","","","","","","","","","","","","","","","","","{""race"":[""White""]}","[0]"
"survey-multi-choice","205","381244","0.0-202.0","p395476","A2PPTQXFVA9H38","3OWZNK3RYMVDNXPNEIRWZ8JM6MU2UY","3BC8WZX3V525Y9CLFGGTKPZZUQYRRF","model","match","uniform","","","","","","","1703.4000000953674","","","","","","","","","","","","","","","","","","","","","","","{""education"":""Bachelor's degree""}","[0]"
"survey-text","206","435817","0.0-203.0","p395476","A2PPTQXFVA9H38","3OWZNK3RYMVDNXPNEIRWZ8JM6MU2UY","3BC8WZX3V525Y9CLFGGTKPZZUQYRRF","model","match","uniform","","","","","","","54570","","","","","","","","","","","","","","","","","","","","","","","{""patterns"":""I notice that particular people rewarded stars in a higher range and tended to stick with them for my choice."",""strategy"":""My strategy was identifying which individual out of the group presented consistently awarded stars above 5-10."",""comments"":""Fun experiment. ""}",""
