"trial_type","trial_index","time_elapsed","internal_node_id","subject","workerId","hitId","assignmentId","structure_condition","match_condition","noise_type","success","timeout","failed_images","failed_audio","failed_video","view_history","rt","start_time","end_time","stimuli","image1","image2","image3","image4","choiceLocation","choiceImage","choiceEmotion","choiceModel","choice_index","reward_score","reward","reward_score_unadjusted","reward_image","score_after_trial","emotions","models","rewards","rewards_unadjusted","stimulus","response","question_order"
"pavlovia","0","8","0.0-0.0","p347008","A3N15463MQO5VF","3WPCIUYH1BELQU8EB2L3QVOOKYBTD4","3ZWFC4W1UWD8VJ7COLGZ30LGR2NRFK","emotion","match","uniform","","","","","","","","","","","","","","","","","","","","","","","","","","","","","","",""
"preload","1","9798","0.0-1.0","p347008","A3N15463MQO5VF","3WPCIUYH1BELQU8EB2L3QVOOKYBTD4","3ZWFC4W1UWD8VJ7COLGZ30LGR2NRFK","emotion","match","uniform","true","false","[]","[]","[]","","","","","","","","","","","","","","","","","","","","","","","","","",""
"fullscreen","2","16088","0.0-2.0","p347008","A3N15463MQO5VF","3WPCIUYH1BELQU8EB2L3QVOOKYBTD4","3ZWFC4W1UWD8VJ7COLGZ30LGR2NRFK","emotion","match","uniform","true","","","","","","","","","","","","","","","","","","","","","","","","","","","","","",""
"instructions","3","32707","0.0-3.0","p347008","A3N15463MQO5VF","3WPCIUYH1BELQU8EB2L3QVOOKYBTD4","3ZWFC4W1UWD8VJ7COLGZ30LGR2NRFK","emotion","match","uniform","","","","","","[{""page_index"":0,""viewing_time"":16618.199999999255}]","16618.799999998882","","","","","","","","","","","","","","","","","","","","","","","",""
"explore-choice","4","35538","0.0-4.0","p347008","A3N15463MQO5VF","3WPCIUYH1BELQU8EB2L3QVOOKYBTD4","3ZWFC4W1UWD8VJ7COLGZ30LGR2NRFK","emotion","match","uniform","","","","","","","2318.7999999988824","34027.800000000745","36346.59999999963","[""stimuli/sheep.jpg"",""stimuli/hammer.jpg"",""stimuli/basketball.jpg"",""stimuli/horse.jpg""]","stimuli/sheep.jpg","stimuli/hammer.jpg","stimuli/basketball.jpg","stimuli/horse.jpg","pos4","stimuli/horse.jpg","","","3","64","64","64","stimuli/stars_8.png","65","","","","","","",""
"explore-choice","5","37516","0.0-5.0","p347008","A3N15463MQO5VF","3WPCIUYH1BELQU8EB2L3QVOOKYBTD4","3ZWFC4W1UWD8VJ7COLGZ30LGR2NRFK","emotion","match","uniform","","","","","","","1463.699999999255","36858.90000000037","38322.59999999963","[""stimuli/hammer.jpg"",""stimuli/basketball.jpg"",""stimuli/horse.jpg"",""stimuli/sheep.jpg""]","stimuli/hammer.jpg","stimuli/basketball.jpg","stimuli/horse.jpg","stimuli/sheep.jpg","pos1","stimuli/hammer.jpg","","","0","8","8","8","stimuli/stars_2.png","9","","","","","","",""
"instructions","6","69314","0.0-6.0","p347008","A3N15463MQO5VF","3WPCIUYH1BELQU8EB2L3QVOOKYBTD4","3ZWFC4W1UWD8VJ7COLGZ30LGR2NRFK","emotion","match","uniform","","","","","","[{""page_index"":0,""viewing_time"":31797.800000000745}]","31798","","","","","","","","","","","","","","","","","","","","","","","",""
"explore-choice","7","71990","0.0-7.0","p347008","A3N15463MQO5VF","3WPCIUYH1BELQU8EB2L3QVOOKYBTD4","3ZWFC4W1UWD8VJ7COLGZ30LGR2NRFK","emotion","match","uniform","","","","","","","2158.800000000745","70635.69999999925","72794.5","[""stimuli/AM09_HO.jpg"",""stimuli/WM09_SC.jpg"",""stimuli/WF14_DO.jpg"",""stimuli/AF09_AO.jpg""]","stimuli/AM09_HO.jpg","stimuli/WM09_SC.jpg","stimuli/WF14_DO.jpg","stimuli/AF09_AO.jpg","pos1","stimuli/AM09_HO.jpg","HO","AM09","0","0","0","2","stimuli/stars_0.png","1","[""HO"",""SC"",""DO"",""AO""]","[""AM09"",""WM09"",""WF14"",""AF09""]","[0,6,8,6]","[2,4,8,6]","","",""
"show-reward","8","73997","0.0-8.0","p347008","A3N15463MQO5VF","3WPCIUYH1BELQU8EB2L3QVOOKYBTD4","3ZWFC4W1UWD8VJ7COLGZ30LGR2NRFK","emotion","match","uniform","","","","","","","","73311.19999999925","75316.90000000037","","","","","","","","","","","","0","","stimuli/stars_0.png","1","","","","","stimuli/AM09_HO.jpg","",""
"explore-choice","9","75526","0.0-9.0","p347008","A3N15463MQO5VF","3WPCIUYH1BELQU8EB2L3QVOOKYBTD4","3ZWFC4W1UWD8VJ7COLGZ30LGR2NRFK","emotion","match","uniform","","","","","","","1020.6999999992549","75317.90000000037","76338.59999999963","[""stimuli/WF14_DO.jpg"",""stimuli/AM09_HO.jpg"",""stimuli/WM09_AO.jpg"",""stimuli/AF09_SC.jpg""]","stimuli/WF14_DO.jpg","stimuli/AM09_HO.jpg","stimuli/WM09_AO.jpg","stimuli/AF09_SC.jpg","pos4","stimuli/AF09_SC.jpg","SC","AF09","3","1","2","4","stimuli/stars_2.png","2","[""DO"",""HO"",""AO"",""SC""]","[""WF14"",""AM09"",""WM09"",""AF09""]","[7,0,4,2]","[8,2,6,4]","","",""
"show-reward","10","77542","0.0-10.0","p347008","A3N15463MQO5VF","3WPCIUYH1BELQU8EB2L3QVOOKYBTD4","3ZWFC4W1UWD8VJ7COLGZ30LGR2NRFK","emotion","match","uniform","","","","","","","","76847.19999999925","78862.09999999963","","","","","","","","","","","","2","","stimuli/stars_2.png","2","","","","","stimuli/AF09_SC.jpg","",""
"explore-choice","11","79329","0.0-11.0","p347008","A3N15463MQO5VF","3WPCIUYH1BELQU8EB2L3QVOOKYBTD4","3ZWFC4W1UWD8VJ7COLGZ30LGR2NRFK","emotion","match","uniform","","","","","","","1283.5999999996275","78863","80146.59999999963","[""stimuli/AM09_AO.jpg"",""stimuli/WF14_DO.jpg"",""stimuli/AF09_SC.jpg"",""stimuli/WM09_HO.jpg""]","stimuli/AM09_AO.jpg","stimuli/WF14_DO.jpg","stimuli/AF09_SC.jpg","stimuli/WM09_HO.jpg","pos2","stimuli/WF14_DO.jpg","DO","WF14","1","3","6","8","stimuli/stars_6.png","5","[""AO"",""DO"",""SC"",""HO""]","[""AM09"",""WF14"",""AF09"",""WM09""]","[6,6,2,0]","[6,8,4,2]","","",""
"show-reward","12","81342","0.0-12.0","p347008","A3N15463MQO5VF","3WPCIUYH1BELQU8EB2L3QVOOKYBTD4","3ZWFC4W1UWD8VJ7COLGZ30LGR2NRFK","emotion","match","uniform","","","","","","","","80649.80000000075","82662","","","","","","","","","","","","6","","stimuli/stars_6.png","5","","","","","stimuli/WF14_DO.jpg","",""
"explore-choice","13","83161","0.0-13.0","p347008","A3N15463MQO5VF","3WPCIUYH1BELQU8EB2L3QVOOKYBTD4","3ZWFC4W1UWD8VJ7COLGZ30LGR2NRFK","emotion","match","uniform","","","","","","","1315.5999999996275","82662.80000000075","83978.40000000037","[""stimuli/AM09_DO.jpg"",""stimuli/WF14_HO.jpg"",""stimuli/AF09_AO.jpg"",""stimuli/WM09_SC.jpg""]","stimuli/AM09_DO.jpg","stimuli/WF14_HO.jpg","stimuli/AF09_AO.jpg","stimuli/WM09_SC.jpg","pos4","stimuli/WM09_SC.jpg","SC","WM09","3","2.5","5","4","stimuli/stars_5.png","7.5","[""DO"",""HO"",""AO"",""SC""]","[""AM09"",""WF14"",""AF09"",""WM09""]","[10,4,8,5]","[8,2,6,4]","","",""
"show-reward","14","85163","0.0-14.0","p347008","A3N15463MQO5VF","3WPCIUYH1BELQU8EB2L3QVOOKYBTD4","3ZWFC4W1UWD8VJ7COLGZ30LGR2NRFK","emotion","match","uniform","","","","","","","","84482","86483.5","","","","","","","","","","","","5","","stimuli/stars_5.png","7.5","","","","","stimuli/WM09_SC.jpg","",""
"explore-choice","15","86711","0.0-15.0","p347008","A3N15463MQO5VF","3WPCIUYH1BELQU8EB2L3QVOOKYBTD4","3ZWFC4W1UWD8VJ7COLGZ30LGR2NRFK","emotion","match","uniform","","","","","","","1046.2000000011176","86484.19999999925","87530.40000000037","[""stimuli/WM09_HO.jpg"",""stimuli/WF14_AO.jpg"",""stimuli/AF09_DO.jpg"",""stimuli/AM09_SC.jpg""]","stimuli/WM09_HO.jpg","stimuli/WF14_AO.jpg","stimuli/AF09_DO.jpg","stimuli/AM09_SC.jpg","pos3","stimuli/AF09_DO.jpg","DO","AF09","2","3.5","7","8","stimuli/stars_7.png","11","[""HO"",""AO"",""DO"",""SC""]","[""WM09"",""WF14"",""AF09"",""AM09""]","[4,4,7,5]","[2,6,8,4]","","",""
"show-reward","16","88723","0.0-16.0","p347008","A3N15463MQO5VF","3WPCIUYH1BELQU8EB2L3QVOOKYBTD4","3ZWFC4W1UWD8VJ7COLGZ30LGR2NRFK","emotion","match","uniform","","","","","","","","88031.69999999925","90042.69999999925","","","","","","","","","","","","7","","stimuli/stars_7.png","11","","","","","stimuli/AF09_DO.jpg","",""
"explore-choice","17","91824","0.0-17.0","p347008","A3N15463MQO5VF","3WPCIUYH1BELQU8EB2L3QVOOKYBTD4","3ZWFC4W1UWD8VJ7COLGZ30LGR2NRFK","emotion","match","uniform","","","","","","","2599.199999999255","90043.30000000075","92642.5","[""stimuli/WF14_SC.jpg"",""stimuli/AF09_AO.jpg"",""stimuli/AM09_DO.jpg"",""stimuli/WM09_HO.jpg""]","stimuli/WF14_SC.jpg","stimuli/AF09_AO.jpg","stimuli/AM09_DO.jpg","stimuli/WM09_HO.jpg","pos3","stimuli/AM09_DO.jpg","DO","AM09","2","5","10","8","stimuli/stars_10.png","16","[""SC"",""AO"",""DO"",""HO""]","[""WF14"",""AF09"",""AM09"",""WM09""]","[5,7,10,0]","[4,6,8,2]","","",""
"show-reward","18","93841","0.0-18.0","p347008","A3N15463MQO5VF","3WPCIUYH1BELQU8EB2L3QVOOKYBTD4","3ZWFC4W1UWD8VJ7COLGZ30LGR2NRFK","emotion","match","uniform","","","","","","","","93145.09999999963","95160.80000000075","","","","","","","","","","","","10","","stimuli/stars_10.png","16","","","","","stimuli/AM09_DO.jpg","",""
"explore-choice","19","95195","0.0-19.0","p347008","A3N15463MQO5VF","3WPCIUYH1BELQU8EB2L3QVOOKYBTD4","3ZWFC4W1UWD8VJ7COLGZ30LGR2NRFK","emotion","match","uniform","","","","","","","848.5999999996275","95161.80000000075","96010.40000000037","[""stimuli/AF09_DO.jpg"",""stimuli/WM09_AO.jpg"",""stimuli/WF14_HO.jpg"",""stimuli/AM09_SC.jpg""]","stimuli/AF09_DO.jpg","stimuli/WM09_AO.jpg","stimuli/WF14_HO.jpg","stimuli/AM09_SC.jpg","pos1","stimuli/AF09_DO.jpg","DO","AF09","0","5","10","8","stimuli/stars_10.png","21","[""DO"",""AO"",""HO"",""SC""]","[""AF09"",""WM09"",""WF14"",""AM09""]","[10,6,2,5]","[8,6,2,4]","","",""
"show-reward","20","97212","0.0-20.0","p347008","A3N15463MQO5VF","3WPCIUYH1BELQU8EB2L3QVOOKYBTD4","3ZWFC4W1UWD8VJ7COLGZ30LGR2NRFK","emotion","match","uniform","","","","","","","","96516.09999999963","98532","","","","","","","","","","","","10","","stimuli/stars_10.png","21","","","","","stimuli/AF09_DO.jpg","",""
"explore-choice","21","99064","0.0-21.0","p347008","A3N15463MQO5VF","3WPCIUYH1BELQU8EB2L3QVOOKYBTD4","3ZWFC4W1UWD8VJ7COLGZ30LGR2NRFK","emotion","match","uniform","","","","","","","1349.5999999996275","98532.80000000075","99882.40000000037","[""stimuli/AM09_HO.jpg"",""stimuli/WF14_SC.jpg"",""stimuli/WM09_DO.jpg"",""stimuli/AF09_AO.jpg""]","stimuli/AM09_HO.jpg","stimuli/WF14_SC.jpg","stimuli/WM09_DO.jpg","stimuli/AF09_AO.jpg","pos4","stimuli/AF09_AO.jpg","AO","AF09","3","4","8","6","stimuli/stars_8.png","25","[""HO"",""SC"",""DO"",""AO""]","[""AM09"",""WF14"",""WM09"",""AF09""]","[3,2,8,8]","[2,4,8,6]","","",""
"show-reward","22","101082","0.0-22.0","p347008","A3N15463MQO5VF","3WPCIUYH1BELQU8EB2L3QVOOKYBTD4","3ZWFC4W1UWD8VJ7COLGZ30LGR2NRFK","emotion","match","uniform","","","","","","","","100385","102402.40000000037","","","","","","","","","","","","8","","stimuli/stars_8.png","25","","","","","stimuli/AF09_AO.jpg","",""
"explore-choice","23","105295","0.0-23.0","p347008","A3N15463MQO5VF","3WPCIUYH1BELQU8EB2L3QVOOKYBTD4","3ZWFC4W1UWD8VJ7COLGZ30LGR2NRFK","emotion","match","uniform","","","","","","","3703.300000000745","102403.19999999925","106106.5","[""stimuli/WF14_AO.jpg"",""stimuli/AF09_SC.jpg"",""stimuli/WM09_HO.jpg"",""stimuli/AM09_DO.jpg""]","stimuli/WF14_AO.jpg","stimuli/AF09_SC.jpg","stimuli/WM09_HO.jpg","stimuli/AM09_DO.jpg","pos1","stimuli/WF14_AO.jpg","AO","WF14","0","3.5","7","6","stimuli/stars_7.png","28.5","[""AO"",""SC"",""HO"",""DO""]","[""WF14"",""AF09"",""WM09"",""AM09""]","[7,6,3,8]","[6,4,2,8]","","",""
"show-reward","24","107308","0.0-24.0","p347008","A3N15463MQO5VF","3WPCIUYH1BELQU8EB2L3QVOOKYBTD4","3ZWFC4W1UWD8VJ7COLGZ30LGR2NRFK","emotion","match","uniform","","","","","","","","106616.30000000075","108628","","","","","","","","","","","","7","","stimuli/stars_7.png","28.5","","","","","stimuli/WF14_AO.jpg","",""
"explore-choice","25","109185","0.0-25.0","p347008","A3N15463MQO5VF","3WPCIUYH1BELQU8EB2L3QVOOKYBTD4","3ZWFC4W1UWD8VJ7COLGZ30LGR2NRFK","emotion","match","uniform","","","","","","","1365.800000000745","108628.69999999925","109994.5","[""stimuli/WM09_DO.jpg"",""stimuli/AF09_AO.jpg"",""stimuli/WF14_HO.jpg"",""stimuli/AM09_SC.jpg""]","stimuli/WM09_DO.jpg","stimuli/AF09_AO.jpg","stimuli/WF14_HO.jpg","stimuli/AM09_SC.jpg","pos1","stimuli/WM09_DO.jpg","DO","WM09","0","5","10","8","stimuli/stars_10.png","33.5","[""DO"",""AO"",""HO"",""SC""]","[""WM09"",""AF09"",""WF14"",""AM09""]","[10,8,0,5]","[8,6,2,4]","","",""
"show-reward","26","111192","0.0-26.0","p347008","A3N15463MQO5VF","3WPCIUYH1BELQU8EB2L3QVOOKYBTD4","3ZWFC4W1UWD8VJ7COLGZ30LGR2NRFK","emotion","match","uniform","","","","","","","","110506.59999999963","112512.40000000037","","","","","","","","","","","","10","","stimuli/stars_10.png","33.5","","","","","stimuli/WM09_DO.jpg","",""
"explore-choice","27","112500","0.0-27.0","p347008","A3N15463MQO5VF","3WPCIUYH1BELQU8EB2L3QVOOKYBTD4","3ZWFC4W1UWD8VJ7COLGZ30LGR2NRFK","emotion","match","uniform","","","","","","","801.2000000011176","112513.19999999925","113314.40000000037","[""stimuli/AM09_HO.jpg"",""stimuli/WM09_DO.jpg"",""stimuli/AF09_SC.jpg"",""stimuli/WF14_AO.jpg""]","stimuli/AM09_HO.jpg","stimuli/WM09_DO.jpg","stimuli/AF09_SC.jpg","stimuli/WF14_AO.jpg","pos4","stimuli/WF14_AO.jpg","AO","WF14","3","4","8","6","stimuli/stars_8.png","37.5","[""HO"",""DO"",""SC"",""AO""]","[""AM09"",""WM09"",""AF09"",""WF14""]","[1,8,6,8]","[2,8,4,6]","","",""
"show-reward","28","114516","0.0-28.0","p347008","A3N15463MQO5VF","3WPCIUYH1BELQU8EB2L3QVOOKYBTD4","3ZWFC4W1UWD8VJ7COLGZ30LGR2NRFK","emotion","match","uniform","","","","","","","","113820.80000000075","115836","","","","","","","","","","","","8","","stimuli/stars_8.png","37.5","","","","","stimuli/WF14_AO.jpg","",""
"explore-choice","29","117374","0.0-29.0","p347008","A3N15463MQO5VF","3WPCIUYH1BELQU8EB2L3QVOOKYBTD4","3ZWFC4W1UWD8VJ7COLGZ30LGR2NRFK","emotion","match","uniform","","","","","","","2349.7000000011176","115836.69999999925","118186.40000000037","[""stimuli/WF14_DO.jpg"",""stimuli/AF09_AO.jpg"",""stimuli/AM09_SC.jpg"",""stimuli/WM09_HO.jpg""]","stimuli/WF14_DO.jpg","stimuli/AF09_AO.jpg","stimuli/AM09_SC.jpg","stimuli/WM09_HO.jpg","pos2","stimuli/AF09_AO.jpg","AO","AF09","1","2","4","6","stimuli/stars_4.png","39.5","[""DO"",""AO"",""SC"",""HO""]","[""WF14"",""AF09"",""AM09"",""WM09""]","[8,4,2,2]","[8,6,4,2]","","",""
"show-reward","30","119376","0.0-30.0","p347008","A3N15463MQO5VF","3WPCIUYH1BELQU8EB2L3QVOOKYBTD4","3ZWFC4W1UWD8VJ7COLGZ30LGR2NRFK","emotion","match","uniform","","","","","","","","118695.30000000075","120696.80000000075","","","","","","","","","","","","4","","stimuli/stars_4.png","39.5","","","","","stimuli/AF09_AO.jpg","",""
"explore-choice","31","123319","0.0-31.0","p347008","A3N15463MQO5VF","3WPCIUYH1BELQU8EB2L3QVOOKYBTD4","3ZWFC4W1UWD8VJ7COLGZ30LGR2NRFK","emotion","match","uniform","","","","","","","3441","120697.40000000037","124138.40000000037","[""stimuli/WF14_DO.jpg"",""stimuli/WM09_SC.jpg"",""stimuli/AM09_AO.jpg"",""stimuli/AF09_HO.jpg""]","stimuli/WF14_DO.jpg","stimuli/WM09_SC.jpg","stimuli/AM09_AO.jpg","stimuli/AF09_HO.jpg","pos1","stimuli/WF14_DO.jpg","DO","WF14","0","4","8","8","stimuli/stars_8.png","43.5","[""DO"",""SC"",""AO"",""HO""]","[""WF14"",""WM09"",""AM09"",""AF09""]","[8,6,4,4]","[8,4,6,2]","","",""
"show-reward","32","125327","0.0-32.0","p347008","A3N15463MQO5VF","3WPCIUYH1BELQU8EB2L3QVOOKYBTD4","3ZWFC4W1UWD8VJ7COLGZ30LGR2NRFK","emotion","match","uniform","","","","","","","","124640","126647.09999999963","","","","","","","","","","","","8","","stimuli/stars_8.png","43.5","","","","","stimuli/WF14_DO.jpg","",""
"explore-choice","33","128803","0.0-33.0","p347008","A3N15463MQO5VF","3WPCIUYH1BELQU8EB2L3QVOOKYBTD4","3ZWFC4W1UWD8VJ7COLGZ30LGR2NRFK","emotion","match","uniform","","","","","","","2970.5999999996275","126647.80000000075","129618.40000000037","[""stimuli/AM09_DO.jpg"",""stimuli/WM09_AO.jpg"",""stimuli/WF14_SC.jpg"",""stimuli/AF09_HO.jpg""]","stimuli/AM09_DO.jpg","stimuli/WM09_AO.jpg","stimuli/WF14_SC.jpg","stimuli/AF09_HO.jpg","pos2","stimuli/WM09_AO.jpg","AO","WM09","1","4","8","6","stimuli/stars_8.png","47.5","[""DO"",""AO"",""SC"",""HO""]","[""AM09"",""WM09"",""WF14"",""AF09""]","[10,8,6,2]","[8,6,4,2]","","",""
"show-reward","34","130812","0.0-34.0","p347008","A3N15463MQO5VF","3WPCIUYH1BELQU8EB2L3QVOOKYBTD4","3ZWFC4W1UWD8VJ7COLGZ30LGR2NRFK","emotion","match","uniform","","","","","","","","130123.80000000075","132132.80000000075","","","","","","","","","","","","8","","stimuli/stars_8.png","47.5","","","","","stimuli/WM09_AO.jpg","",""
"explore-choice","35","134410","0.0-35.0","p347008","A3N15463MQO5VF","3WPCIUYH1BELQU8EB2L3QVOOKYBTD4","3ZWFC4W1UWD8VJ7COLGZ30LGR2NRFK","emotion","match","uniform","","","","","","","3093","132133.40000000037","135226.40000000037","[""stimuli/AM09_HO.jpg"",""stimuli/WM09_AO.jpg"",""stimuli/AF09_DO.jpg"",""stimuli/WF14_SC.jpg""]","stimuli/AM09_HO.jpg","stimuli/WM09_AO.jpg","stimuli/AF09_DO.jpg","stimuli/WF14_SC.jpg","pos2","stimuli/WM09_AO.jpg","AO","WM09","1","3","6","6","stimuli/stars_6.png","50.5","[""HO"",""AO"",""DO"",""SC""]","[""AM09"",""WM09"",""AF09"",""WF14""]","[4,6,6,2]","[2,6,8,4]","","",""
"show-reward","36","136418","0.0-36.0","p347008","A3N15463MQO5VF","3WPCIUYH1BELQU8EB2L3QVOOKYBTD4","3ZWFC4W1UWD8VJ7COLGZ30LGR2NRFK","emotion","match","uniform","","","","","","","","135731.59999999963","137738.40000000037","","","","","","","","","","","","6","","stimuli/stars_6.png","50.5","","","","","stimuli/WM09_AO.jpg","",""
"explore-choice","37","139011","0.0-37.0","p347008","A3N15463MQO5VF","3WPCIUYH1BELQU8EB2L3QVOOKYBTD4","3ZWFC4W1UWD8VJ7COLGZ30LGR2NRFK","emotion","match","uniform","","","","","","","2079.5999999996275","137739.09999999963","139818.69999999925","[""stimuli/AF09_DO.jpg"",""stimuli/AM09_AO.jpg"",""stimuli/WM09_HO.jpg"",""stimuli/WF14_SC.jpg""]","stimuli/AF09_DO.jpg","stimuli/AM09_AO.jpg","stimuli/WM09_HO.jpg","stimuli/WF14_SC.jpg","pos1","stimuli/AF09_DO.jpg","DO","AF09","0","3.5","7","8","stimuli/stars_7.png","54","[""DO"",""AO"",""HO"",""SC""]","[""AF09"",""AM09"",""WM09"",""WF14""]","[7,5,2,5]","[8,6,2,4]","","",""
"show-reward","38","141021","0.0-38.0","p347008","A3N15463MQO5VF","3WPCIUYH1BELQU8EB2L3QVOOKYBTD4","3ZWFC4W1UWD8VJ7COLGZ30LGR2NRFK","emotion","match","uniform","","","","","","","","140331.80000000075","142341.5","","","","","","","","","","","","7","","stimuli/stars_7.png","54","","","","","stimuli/AF09_DO.jpg","",""
"explore-choice","39","144018","0.0-39.0","p347008","A3N15463MQO5VF","3WPCIUYH1BELQU8EB2L3QVOOKYBTD4","3ZWFC4W1UWD8VJ7COLGZ30LGR2NRFK","emotion","match","uniform","","","","","","","2484.300000000745","142342.09999999963","144826.40000000037","[""stimuli/WM09_SC.jpg"",""stimuli/AF09_DO.jpg"",""stimuli/AM09_AO.jpg"",""stimuli/WF14_HO.jpg""]","stimuli/WM09_SC.jpg","stimuli/AF09_DO.jpg","stimuli/AM09_AO.jpg","stimuli/WF14_HO.jpg","pos2","stimuli/AF09_DO.jpg","DO","AF09","1","4.5","9","8","stimuli/stars_9.png","58.5","[""SC"",""DO"",""AO"",""HO""]","[""WM09"",""AF09"",""AM09"",""WF14""]","[6,9,7,3]","[4,8,6,2]","","",""
"show-reward","40","146029","0.0-40.0","p347008","A3N15463MQO5VF","3WPCIUYH1BELQU8EB2L3QVOOKYBTD4","3ZWFC4W1UWD8VJ7COLGZ30LGR2NRFK","emotion","match","uniform","","","","","","","","145339.69999999925","147349.69999999925","","","","","","","","","","","","9","","stimuli/stars_9.png","58.5","","","","","stimuli/AF09_DO.jpg","",""
"explore-choice","41","148079","0.0-41.0","p347008","A3N15463MQO5VF","3WPCIUYH1BELQU8EB2L3QVOOKYBTD4","3ZWFC4W1UWD8VJ7COLGZ30LGR2NRFK","emotion","match","uniform","","","","","","","1547.5999999996275","147350.80000000075","148898.40000000037","[""stimuli/WM09_DO.jpg"",""stimuli/WF14_SC.jpg"",""stimuli/AM09_AO.jpg"",""stimuli/AF09_HO.jpg""]","stimuli/WM09_DO.jpg","stimuli/WF14_SC.jpg","stimuli/AM09_AO.jpg","stimuli/AF09_HO.jpg","pos1","stimuli/WM09_DO.jpg","DO","WM09","0","5","10","8","stimuli/stars_10.png","63.5","[""DO"",""SC"",""AO"",""HO""]","[""WM09"",""WF14"",""AM09"",""AF09""]","[10,5,4,4]","[8,4,6,2]","","",""
"show-reward","42","150082","0.0-42.0","p347008","A3N15463MQO5VF","3WPCIUYH1BELQU8EB2L3QVOOKYBTD4","3ZWFC4W1UWD8VJ7COLGZ30LGR2NRFK","emotion","match","uniform","","","","","","","","149400.09999999963","151402.09999999963","","","","","","","","","","","","10","","stimuli/stars_10.png","63.5","","","","","stimuli/WM09_DO.jpg","",""
"explore-choice","43","152030","0.0-43.0","p347008","A3N15463MQO5VF","3WPCIUYH1BELQU8EB2L3QVOOKYBTD4","3ZWFC4W1UWD8VJ7COLGZ30LGR2NRFK","emotion","match","uniform","","","","","","","1439.5","151402.90000000037","152842.40000000037","[""stimuli/AM09_DO.jpg"",""stimuli/AF09_SC.jpg"",""stimuli/WF14_HO.jpg"",""stimuli/WM09_AO.jpg""]","stimuli/AM09_DO.jpg","stimuli/AF09_SC.jpg","stimuli/WF14_HO.jpg","stimuli/WM09_AO.jpg","pos4","stimuli/WM09_AO.jpg","AO","WM09","3","2.5","5","6","stimuli/stars_5.png","66","[""DO"",""SC"",""HO"",""AO""]","[""AM09"",""AF09"",""WF14"",""WM09""]","[6,2,3,5]","[8,4,2,6]","","",""
"show-reward","44","154033","0.0-44.0","p347008","A3N15463MQO5VF","3WPCIUYH1BELQU8EB2L3QVOOKYBTD4","3ZWFC4W1UWD8VJ7COLGZ30LGR2NRFK","emotion","match","uniform","","","","","","","","153351.09999999963","155353.80000000075","","","","","","","","","","","","5","","stimuli/stars_5.png","66","","","","","stimuli/WM09_AO.jpg","",""
"explore-choice","45","155839","0.0-45.0","p347008","A3N15463MQO5VF","3WPCIUYH1BELQU8EB2L3QVOOKYBTD4","3ZWFC4W1UWD8VJ7COLGZ30LGR2NRFK","emotion","match","uniform","","","","","","","1295.9000000003725","155354.40000000037","156650.30000000075","[""stimuli/AF09_HO.jpg"",""stimuli/AM09_SC.jpg"",""stimuli/WF14_AO.jpg"",""stimuli/WM09_DO.jpg""]","stimuli/AF09_HO.jpg","stimuli/AM09_SC.jpg","stimuli/WF14_AO.jpg","stimuli/WM09_DO.jpg","pos3","stimuli/WF14_AO.jpg","AO","WF14","2","3","6","6","stimuli/stars_6.png","69","[""HO"",""SC"",""AO"",""DO""]","[""AF09"",""AM09"",""WF14"",""WM09""]","[4,5,6,9]","[2,4,6,8]","","",""
"show-reward","46","157854","0.0-46.0","p347008","A3N15463MQO5VF","3WPCIUYH1BELQU8EB2L3QVOOKYBTD4","3ZWFC4W1UWD8VJ7COLGZ30LGR2NRFK","emotion","match","uniform","","","","","","","","157159.90000000037","159174.80000000075","","","","","","","","","","","","6","","stimuli/stars_6.png","69","","","","","stimuli/WF14_AO.jpg","",""
"explore-choice","47","160985","0.0-47.0","p347008","A3N15463MQO5VF","3WPCIUYH1BELQU8EB2L3QVOOKYBTD4","3ZWFC4W1UWD8VJ7COLGZ30LGR2NRFK","emotion","match","uniform","","","","","","","2626.9000000003725","159175.40000000037","161802.30000000075","[""stimuli/WM09_AO.jpg"",""stimuli/AF09_HO.jpg"",""stimuli/AM09_SC.jpg"",""stimuli/WF14_DO.jpg""]","stimuli/WM09_AO.jpg","stimuli/AF09_HO.jpg","stimuli/AM09_SC.jpg","stimuli/WF14_DO.jpg","pos4","stimuli/WF14_DO.jpg","DO","WF14","3","5","10","8","stimuli/stars_10.png","74","[""AO"",""HO"",""SC"",""DO""]","[""WM09"",""AF09"",""AM09"",""WF14""]","[5,1,3,10]","[6,2,4,8]","","",""
"show-reward","48","162994","0.0-48.0","p347008","A3N15463MQO5VF","3WPCIUYH1BELQU8EB2L3QVOOKYBTD4","3ZWFC4W1UWD8VJ7COLGZ30LGR2NRFK","emotion","match","uniform","","","","","","","","162305.90000000037","164314.40000000037","","","","","","","","","","","","10","","stimuli/stars_10.png","74","","","","","stimuli/WF14_DO.jpg","",""
"explore-choice","49","165934","0.0-49.0","p347008","A3N15463MQO5VF","3WPCIUYH1BELQU8EB2L3QVOOKYBTD4","3ZWFC4W1UWD8VJ7COLGZ30LGR2NRFK","emotion","match","uniform","","","","","","","2439.300000000745","164315.19999999925","166754.5","[""stimuli/AF09_HO.jpg"",""stimuli/WM09_SC.jpg"",""stimuli/WF14_AO.jpg"",""stimuli/AM09_DO.jpg""]","stimuli/AF09_HO.jpg","stimuli/WM09_SC.jpg","stimuli/WF14_AO.jpg","stimuli/AM09_DO.jpg","pos3","stimuli/WF14_AO.jpg","AO","WF14","2","4","8","6","stimuli/stars_8.png","78","[""HO"",""SC"",""AO"",""DO""]","[""AF09"",""WM09"",""WF14"",""AM09""]","[1,4,8,6]","[2,4,6,8]","","",""
"show-reward","50","167947","0.0-50.0","p347008","A3N15463MQO5VF","3WPCIUYH1BELQU8EB2L3QVOOKYBTD4","3ZWFC4W1UWD8VJ7COLGZ30LGR2NRFK","emotion","match","uniform","","","","","","","","167255.5","169267.30000000075","","","","","","","","","","","","8","","stimuli/stars_8.png","78","","","","","stimuli/WF14_AO.jpg","",""
"explore-choice","51","171010","0.0-51.0","p347008","A3N15463MQO5VF","3WPCIUYH1BELQU8EB2L3QVOOKYBTD4","3ZWFC4W1UWD8VJ7COLGZ30LGR2NRFK","emotion","match","uniform","","","","","","","2558.699999999255","169267.90000000037","171826.59999999963","[""stimuli/AF09_SC.jpg"",""stimuli/WM09_DO.jpg"",""stimuli/WF14_HO.jpg"",""stimuli/AM09_AO.jpg""]","stimuli/AF09_SC.jpg","stimuli/WM09_DO.jpg","stimuli/WF14_HO.jpg","stimuli/AM09_AO.jpg","pos2","stimuli/WM09_DO.jpg","DO","WM09","1","4","8","8","stimuli/stars_8.png","82","[""SC"",""DO"",""HO"",""AO""]","[""AF09"",""WM09"",""WF14"",""AM09""]","[6,8,1,4]","[4,8,2,6]","","",""
"show-reward","52","173028","0.0-52.0","p347008","A3N15463MQO5VF","3WPCIUYH1BELQU8EB2L3QVOOKYBTD4","3ZWFC4W1UWD8VJ7COLGZ30LGR2NRFK","emotion","match","uniform","","","","","","","","172331.5","174348.19999999925","","","","","","","","","","","","8","","stimuli/stars_8.png","82","","","","","stimuli/WM09_DO.jpg","",""
"explore-choice","53","175578","0.0-53.0","p347008","A3N15463MQO5VF","3WPCIUYH1BELQU8EB2L3QVOOKYBTD4","3ZWFC4W1UWD8VJ7COLGZ30LGR2NRFK","emotion","match","uniform","","","","","","","2045.300000000745","174349.09999999963","176394.40000000037","[""stimuli/AM09_HO.jpg"",""stimuli/AF09_DO.jpg"",""stimuli/WF14_AO.jpg"",""stimuli/WM09_SC.jpg""]","stimuli/AM09_HO.jpg","stimuli/AF09_DO.jpg","stimuli/WF14_AO.jpg","stimuli/WM09_SC.jpg","pos3","stimuli/WF14_AO.jpg","AO","WF14","2","2.5","5","6","stimuli/stars_5.png","84.5","[""HO"",""DO"",""AO"",""SC""]","[""AM09"",""AF09"",""WF14"",""WM09""]","[1,8,5,5]","[2,8,6,4]","","",""
"show-reward","54","177595","0.0-54.0","p347008","A3N15463MQO5VF","3WPCIUYH1BELQU8EB2L3QVOOKYBTD4","3ZWFC4W1UWD8VJ7COLGZ30LGR2NRFK","emotion","match","uniform","","","","","","","","176899.80000000075","178915.69999999925","","","","","","","","","","","","5","","stimuli/stars_5.png","84.5","","","","","stimuli/WF14_AO.jpg","",""
"explore-choice","55","180329","0.0-55.0","p347008","A3N15463MQO5VF","3WPCIUYH1BELQU8EB2L3QVOOKYBTD4","3ZWFC4W1UWD8VJ7COLGZ30LGR2NRFK","emotion","match","uniform","","","","","","","2229.9000000003725","178916.40000000037","181146.30000000075","[""stimuli/WM09_DO.jpg"",""stimuli/AF09_AO.jpg"",""stimuli/WF14_SC.jpg"",""stimuli/AM09_HO.jpg""]","stimuli/WM09_DO.jpg","stimuli/AF09_AO.jpg","stimuli/WF14_SC.jpg","stimuli/AM09_HO.jpg","pos1","stimuli/WM09_DO.jpg","DO","WM09","0","4","8","8","stimuli/stars_8.png","88.5","[""DO"",""AO"",""SC"",""HO""]","[""WM09"",""AF09"",""WF14"",""AM09""]","[8,8,2,3]","[8,6,4,2]","","",""
"show-reward","56","182345","0.0-56.0","p347008","A3N15463MQO5VF","3WPCIUYH1BELQU8EB2L3QVOOKYBTD4","3ZWFC4W1UWD8VJ7COLGZ30LGR2NRFK","emotion","match","uniform","","","","","","","","181649.90000000037","183665.80000000075","","","","","","","","","","","","8","","stimuli/stars_8.png","88.5","","","","","stimuli/WM09_DO.jpg","",""
"explore-choice","57","184551","0.0-57.0","p347008","A3N15463MQO5VF","3WPCIUYH1BELQU8EB2L3QVOOKYBTD4","3ZWFC4W1UWD8VJ7COLGZ30LGR2NRFK","emotion","match","uniform","","","","","","","1695.9000000003725","183666.40000000037","185362.30000000075","[""stimuli/WM09_HO.jpg"",""stimuli/AM09_DO.jpg"",""stimuli/AF09_AO.jpg"",""stimuli/WF14_SC.jpg""]","stimuli/WM09_HO.jpg","stimuli/AM09_DO.jpg","stimuli/AF09_AO.jpg","stimuli/WF14_SC.jpg","pos3","stimuli/AF09_AO.jpg","AO","AF09","2","3.5","7","6","stimuli/stars_7.png","92","[""HO"",""DO"",""AO"",""SC""]","[""WM09"",""AM09"",""AF09"",""WF14""]","[0,10,7,5]","[2,8,6,4]","","",""
"show-reward","58","186556","0.0-58.0","p347008","A3N15463MQO5VF","3WPCIUYH1BELQU8EB2L3QVOOKYBTD4","3ZWFC4W1UWD8VJ7COLGZ30LGR2NRFK","emotion","match","uniform","","","","","","","","185872.5","187876.80000000075","","","","","","","","","","","","7","","stimuli/stars_7.png","92","","","","","stimuli/AF09_AO.jpg","",""
"explore-choice","59","189303","0.0-59.0","p347008","A3N15463MQO5VF","3WPCIUYH1BELQU8EB2L3QVOOKYBTD4","3ZWFC4W1UWD8VJ7COLGZ30LGR2NRFK","emotion","match","uniform","","","","","","","2244.5","187877.90000000037","190122.40000000037","[""stimuli/AM09_DO.jpg"",""stimuli/WF14_AO.jpg"",""stimuli/AF09_HO.jpg"",""stimuli/WM09_SC.jpg""]","stimuli/AM09_DO.jpg","stimuli/WF14_AO.jpg","stimuli/AF09_HO.jpg","stimuli/WM09_SC.jpg","pos2","stimuli/WF14_AO.jpg","AO","WF14","1","4","8","6","stimuli/stars_8.png","96","[""DO"",""AO"",""HO"",""SC""]","[""AM09"",""WF14"",""AF09"",""WM09""]","[6,8,1,4]","[8,6,2,4]","","",""
"show-reward","60","191311","0.0-60.0","p347008","A3N15463MQO5VF","3WPCIUYH1BELQU8EB2L3QVOOKYBTD4","3ZWFC4W1UWD8VJ7COLGZ30LGR2NRFK","emotion","match","uniform","","","","","","","","190624.59999999963","192631.80000000075","","","","","","","","","","","","8","","stimuli/stars_8.png","96","","","","","stimuli/WF14_AO.jpg","",""
"explore-choice","61","195113","0.0-61.0","p347008","A3N15463MQO5VF","3WPCIUYH1BELQU8EB2L3QVOOKYBTD4","3ZWFC4W1UWD8VJ7COLGZ30LGR2NRFK","emotion","match","uniform","","","","","","","3289.7999999988824","192632.40000000037","195922.19999999925","[""stimuli/WF14_HO.jpg"",""stimuli/AM09_SC.jpg"",""stimuli/WM09_AO.jpg"",""stimuli/AF09_DO.jpg""]","stimuli/WF14_HO.jpg","stimuli/AM09_SC.jpg","stimuli/WM09_AO.jpg","stimuli/AF09_DO.jpg","pos2","stimuli/AM09_SC.jpg","SC","AM09","1","2.5","5","4","stimuli/stars_5.png","98.5","[""HO"",""SC"",""AO"",""DO""]","[""WF14"",""AM09"",""WM09"",""AF09""]","[2,5,6,10]","[2,4,6,8]","","",""
"show-reward","62","197121","0.0-62.0","p347008","A3N15463MQO5VF","3WPCIUYH1BELQU8EB2L3QVOOKYBTD4","3ZWFC4W1UWD8VJ7COLGZ30LGR2NRFK","emotion","match","uniform","","","","","","","","196434.80000000075","198441.09999999963","","","","","","","","","","","","5","","stimuli/stars_5.png","98.5","","","","","stimuli/AM09_SC.jpg","",""
"explore-choice","63","199665","0.0-63.0","p347008","A3N15463MQO5VF","3WPCIUYH1BELQU8EB2L3QVOOKYBTD4","3ZWFC4W1UWD8VJ7COLGZ30LGR2NRFK","emotion","match","uniform","","","","","","","2032.5","198441.90000000037","200474.40000000037","[""stimuli/AM09_AO.jpg"",""stimuli/WF14_DO.jpg"",""stimuli/WM09_SC.jpg"",""stimuli/AF09_HO.jpg""]","stimuli/AM09_AO.jpg","stimuli/WF14_DO.jpg","stimuli/WM09_SC.jpg","stimuli/AF09_HO.jpg","pos1","stimuli/AM09_AO.jpg","AO","AM09","0","2","4","6","stimuli/stars_4.png","100.5","[""AO"",""DO"",""SC"",""HO""]","[""AM09"",""WF14"",""WM09"",""AF09""]","[4,8,6,4]","[6,8,4,2]","","",""
"show-reward","64","201678","0.0-64.0","p347008","A3N15463MQO5VF","3WPCIUYH1BELQU8EB2L3QVOOKYBTD4","3ZWFC4W1UWD8VJ7COLGZ30LGR2NRFK","emotion","match","uniform","","","","","","","","200985.90000000037","202998.90000000037","","","","","","","","","","","","4","","stimuli/stars_4.png","100.5","","","","","stimuli/AM09_AO.jpg","",""
"explore-choice","65","204515","0.0-65.0","p347008","A3N15463MQO5VF","3WPCIUYH1BELQU8EB2L3QVOOKYBTD4","3ZWFC4W1UWD8VJ7COLGZ30LGR2NRFK","emotion","match","uniform","","","","","","","2322.800000000745","202999.5","205322.30000000075","[""stimuli/WF14_SC.jpg"",""stimuli/AM09_AO.jpg"",""stimuli/WM09_HO.jpg"",""stimuli/AF09_DO.jpg""]","stimuli/WF14_SC.jpg","stimuli/AM09_AO.jpg","stimuli/WM09_HO.jpg","stimuli/AF09_DO.jpg","pos1","stimuli/WF14_SC.jpg","SC","WF14","0","2.5","5","4","stimuli/stars_5.png","103","[""SC"",""AO"",""HO"",""DO""]","[""WF14"",""AM09"",""WM09"",""AF09""]","[5,5,2,7]","[4,6,2,8]","","",""
"show-reward","66","206517","0.0-66.0","p347008","A3N15463MQO5VF","3WPCIUYH1BELQU8EB2L3QVOOKYBTD4","3ZWFC4W1UWD8VJ7COLGZ30LGR2NRFK","emotion","match","uniform","","","","","","","","205836.30000000075","207838","","","","","","","","","","","","5","","stimuli/stars_5.png","103","","","","","stimuli/WF14_SC.jpg","",""
"explore-choice","67","208460","0.0-67.0","p347008","A3N15463MQO5VF","3WPCIUYH1BELQU8EB2L3QVOOKYBTD4","3ZWFC4W1UWD8VJ7COLGZ30LGR2NRFK","emotion","match","uniform","","","","","","","1427.800000000745","207838.5","209266.30000000075","[""stimuli/AM09_AO.jpg"",""stimuli/WM09_HO.jpg"",""stimuli/AF09_SC.jpg"",""stimuli/WF14_DO.jpg""]","stimuli/AM09_AO.jpg","stimuli/WM09_HO.jpg","stimuli/AF09_SC.jpg","stimuli/WF14_DO.jpg","pos4","stimuli/WF14_DO.jpg","DO","WF14","3","3","6","8","stimuli/stars_6.png","106","[""AO"",""HO"",""SC"",""DO""]","[""AM09"",""WM09"",""AF09"",""WF14""]","[6,0,2,6]","[6,2,4,8]","","",""
"show-reward","68","210463","0.0-68.0","p347008","A3N15463MQO5VF","3WPCIUYH1BELQU8EB2L3QVOOKYBTD4","3ZWFC4W1UWD8VJ7COLGZ30LGR2NRFK","emotion","match","uniform","","","","","","","","209781.59999999963","211783.5","","","","","","","","","","","","6","","stimuli/stars_6.png","106","","","","","stimuli/WF14_DO.jpg","",""
"explore-choice","69","212174","0.0-69.0","p347008","A3N15463MQO5VF","3WPCIUYH1BELQU8EB2L3QVOOKYBTD4","3ZWFC4W1UWD8VJ7COLGZ30LGR2NRFK","emotion","match","uniform","","","","","","","1210.300000000745","211784","212994.30000000075","[""stimuli/WM09_AO.jpg"",""stimuli/WF14_HO.jpg"",""stimuli/AF09_SC.jpg"",""stimuli/AM09_DO.jpg""]","stimuli/WM09_AO.jpg","stimuli/WF14_HO.jpg","stimuli/AF09_SC.jpg","stimuli/AM09_DO.jpg","pos3","stimuli/AF09_SC.jpg","SC","AF09","2","1","2","4","stimuli/stars_2.png","107","[""AO"",""HO"",""SC"",""DO""]","[""WM09"",""WF14"",""AF09"",""AM09""]","[5,3,2,6]","[6,2,4,8]","","",""
"show-reward","70","214176","0.0-70.0","p347008","A3N15463MQO5VF","3WPCIUYH1BELQU8EB2L3QVOOKYBTD4","3ZWFC4W1UWD8VJ7COLGZ30LGR2NRFK","emotion","match","uniform","","","","","","","","213495.5","215496.80000000075","","","","","","","","","","","","2","","stimuli/stars_2.png","107","","","","","stimuli/AF09_SC.jpg","",""
"explore-choice","71","216130","0.0-71.0","p347008","A3N15463MQO5VF","3WPCIUYH1BELQU8EB2L3QVOOKYBTD4","3ZWFC4W1UWD8VJ7COLGZ30LGR2NRFK","emotion","match","uniform","","","","","","","1440.5","215497.59999999963","216938.09999999963","[""stimuli/WF14_AO.jpg"",""stimuli/WM09_DO.jpg"",""stimuli/AM09_HO.jpg"",""stimuli/AF09_SC.jpg""]","stimuli/WF14_AO.jpg","stimuli/WM09_DO.jpg","stimuli/AM09_HO.jpg","stimuli/AF09_SC.jpg","pos1","stimuli/WF14_AO.jpg","AO","WF14","0","4","8","6","stimuli/stars_8.png","111","[""AO"",""DO"",""HO"",""SC""]","[""WF14"",""WM09"",""AM09"",""AF09""]","[8,8,1,6]","[6,8,2,4]","","",""
"show-reward","72","218134","0.0-72.0","p347008","A3N15463MQO5VF","3WPCIUYH1BELQU8EB2L3QVOOKYBTD4","3ZWFC4W1UWD8VJ7COLGZ30LGR2NRFK","emotion","match","uniform","","","","","","","","217451.40000000037","219454.30000000075","","","","","","","","","","","","8","","stimuli/stars_8.png","111","","","","","stimuli/WF14_AO.jpg","",""
"explore-choice","73","221190","0.0-73.0","p347008","A3N15463MQO5VF","3WPCIUYH1BELQU8EB2L3QVOOKYBTD4","3ZWFC4W1UWD8VJ7COLGZ30LGR2NRFK","emotion","match","uniform","","","","","","","2539.5999999996275","219454.90000000037","221994.5","[""stimuli/WM09_AO.jpg"",""stimuli/AF09_HO.jpg"",""stimuli/WF14_SC.jpg"",""stimuli/AM09_DO.jpg""]","stimuli/WM09_AO.jpg","stimuli/AF09_HO.jpg","stimuli/WF14_SC.jpg","stimuli/AM09_DO.jpg","pos1","stimuli/WM09_AO.jpg","AO","WM09","0","4","8","6","stimuli/stars_8.png","115","[""AO"",""HO"",""SC"",""DO""]","[""WM09"",""AF09"",""WF14"",""AM09""]","[8,2,6,10]","[6,2,4,8]","","",""
"show-reward","74","223205","0.0-74.0","p347008","A3N15463MQO5VF","3WPCIUYH1BELQU8EB2L3QVOOKYBTD4","3ZWFC4W1UWD8VJ7COLGZ30LGR2NRFK","emotion","match","uniform","","","","","","","","222510.59999999963","224525.19999999925","","","","","","","","","","","","8","","stimuli/stars_8.png","115","","","","","stimuli/WM09_AO.jpg","",""
"explore-choice","75","226159","0.0-75.0","p347008","A3N15463MQO5VF","3WPCIUYH1BELQU8EB2L3QVOOKYBTD4","3ZWFC4W1UWD8VJ7COLGZ30LGR2NRFK","emotion","match","uniform","","","","","","","2444.4000000003725","224525.90000000037","226970.30000000075","[""stimuli/AM09_DO.jpg"",""stimuli/AF09_AO.jpg"",""stimuli/WF14_HO.jpg"",""stimuli/WM09_SC.jpg""]","stimuli/AM09_DO.jpg","stimuli/AF09_AO.jpg","stimuli/WF14_HO.jpg","stimuli/WM09_SC.jpg","pos2","stimuli/AF09_AO.jpg","AO","AF09","1","4","8","6","stimuli/stars_8.png","119","[""DO"",""AO"",""HO"",""SC""]","[""AM09"",""AF09"",""WF14"",""WM09""]","[10,8,4,5]","[8,6,2,4]","","",""
"show-reward","76","228165","0.0-76.0","p347008","A3N15463MQO5VF","3WPCIUYH1BELQU8EB2L3QVOOKYBTD4","3ZWFC4W1UWD8VJ7COLGZ30LGR2NRFK","emotion","match","uniform","","","","","","","","227479.90000000037","229484.90000000037","","","","","","","","","","","","8","","stimuli/stars_8.png","119","","","","","stimuli/AF09_AO.jpg","",""
"explore-choice","77","231775","0.0-77.0","p347008","A3N15463MQO5VF","3WPCIUYH1BELQU8EB2L3QVOOKYBTD4","3ZWFC4W1UWD8VJ7COLGZ30LGR2NRFK","emotion","match","uniform","","","","","","","3100.800000000745","229485.59999999963","232586.40000000037","[""stimuli/WM09_DO.jpg"",""stimuli/AM09_AO.jpg"",""stimuli/WF14_SC.jpg"",""stimuli/AF09_HO.jpg""]","stimuli/WM09_DO.jpg","stimuli/AM09_AO.jpg","stimuli/WF14_SC.jpg","stimuli/AF09_HO.jpg","pos3","stimuli/WF14_SC.jpg","SC","WF14","2","2.5","5","4","stimuli/stars_5.png","121.5","[""DO"",""AO"",""SC"",""HO""]","[""WM09"",""AM09"",""WF14"",""AF09""]","[10,4,5,4]","[8,6,4,2]","","",""
"show-reward","78","233778","0.0-78.0","p347008","A3N15463MQO5VF","3WPCIUYH1BELQU8EB2L3QVOOKYBTD4","3ZWFC4W1UWD8VJ7COLGZ30LGR2NRFK","emotion","match","uniform","","","","","","","","233095.80000000075","235097.30000000075","","","","","","","","","","","","5","","stimuli/stars_5.png","121.5","","","","","stimuli/WF14_SC.jpg","",""
"explore-choice","79","236615","0.0-79.0","p347008","A3N15463MQO5VF","3WPCIUYH1BELQU8EB2L3QVOOKYBTD4","3ZWFC4W1UWD8VJ7COLGZ30LGR2NRFK","emotion","match","uniform","","","","","","","2328.5","235097.90000000037","237426.40000000037","[""stimuli/AM09_HO.jpg"",""stimuli/AF09_SC.jpg"",""stimuli/WM09_AO.jpg"",""stimuli/WF14_DO.jpg""]","stimuli/AM09_HO.jpg","stimuli/AF09_SC.jpg","stimuli/WM09_AO.jpg","stimuli/WF14_DO.jpg","pos4","stimuli/WF14_DO.jpg","DO","WF14","3","3.5","7","8","stimuli/stars_7.png","125","[""HO"",""SC"",""AO"",""DO""]","[""AM09"",""AF09"",""WM09"",""WF14""]","[0,2,4,7]","[2,4,6,8]","","",""
"show-reward","80","238619","0.0-80.0","p347008","A3N15463MQO5VF","3WPCIUYH1BELQU8EB2L3QVOOKYBTD4","3ZWFC4W1UWD8VJ7COLGZ30LGR2NRFK","emotion","match","uniform","","","","","","","","237935.90000000037","239939","","","","","","","","","","","","7","","stimuli/stars_7.png","125","","","","","stimuli/WF14_DO.jpg","",""
"explore-choice","81","240054","0.0-81.0","p347008","A3N15463MQO5VF","3WPCIUYH1BELQU8EB2L3QVOOKYBTD4","3ZWFC4W1UWD8VJ7COLGZ30LGR2NRFK","emotion","match","uniform","","","","","","","918.6000000014901","239939.69999999925","240858.30000000075","[""stimuli/AM09_HO.jpg"",""stimuli/WF14_SC.jpg"",""stimuli/AF09_DO.jpg"",""stimuli/WM09_AO.jpg""]","stimuli/AM09_HO.jpg","stimuli/WF14_SC.jpg","stimuli/AF09_DO.jpg","stimuli/WM09_AO.jpg","pos3","stimuli/AF09_DO.jpg","DO","AF09","2","3","6","8","stimuli/stars_6.png","128","[""HO"",""SC"",""DO"",""AO""]","[""AM09"",""WF14"",""AF09"",""WM09""]","[4,2,6,6]","[2,4,8,6]","","",""
"show-reward","82","242057","0.0-82.0","p347008","A3N15463MQO5VF","3WPCIUYH1BELQU8EB2L3QVOOKYBTD4","3ZWFC4W1UWD8VJ7COLGZ30LGR2NRFK","emotion","match","uniform","","","","","","","","241374.59999999963","243376.59999999963","","","","","","","","","","","","6","","stimuli/stars_6.png","128","","","","","stimuli/AF09_DO.jpg","",""
"explore-choice","83","243366","0.0-83.0","p347008","A3N15463MQO5VF","3WPCIUYH1BELQU8EB2L3QVOOKYBTD4","3ZWFC4W1UWD8VJ7COLGZ30LGR2NRFK","emotion","match","uniform","","","","","","","800.9000000003725","243377.40000000037","244178.30000000075","[""stimuli/WF14_DO.jpg"",""stimuli/WM09_SC.jpg"",""stimuli/AF09_AO.jpg"",""stimuli/AM09_HO.jpg""]","stimuli/WF14_DO.jpg","stimuli/WM09_SC.jpg","stimuli/AF09_AO.jpg","stimuli/AM09_HO.jpg","pos1","stimuli/WF14_DO.jpg","DO","WF14","0","4","8","8","stimuli/stars_8.png","132","[""DO"",""SC"",""AO"",""HO""]","[""WF14"",""WM09"",""AF09"",""AM09""]","[8,6,6,0]","[8,4,6,2]","","",""
"show-reward","84","245369","0.0-84.0","p347008","A3N15463MQO5VF","3WPCIUYH1BELQU8EB2L3QVOOKYBTD4","3ZWFC4W1UWD8VJ7COLGZ30LGR2NRFK","emotion","match","uniform","","","","","","","","244687","246689","","","","","","","","","","","","8","","stimuli/stars_8.png","132","","","","","stimuli/WF14_DO.jpg","",""
"explore-choice","85","248027","0.0-85.0","p347008","A3N15463MQO5VF","3WPCIUYH1BELQU8EB2L3QVOOKYBTD4","3ZWFC4W1UWD8VJ7COLGZ30LGR2NRFK","emotion","match","uniform","","","","","","","2152.60000000149","246689.69999999925","248842.30000000075","[""stimuli/WM09_HO.jpg"",""stimuli/AM09_SC.jpg"",""stimuli/AF09_DO.jpg"",""stimuli/WF14_AO.jpg""]","stimuli/WM09_HO.jpg","stimuli/AM09_SC.jpg","stimuli/AF09_DO.jpg","stimuli/WF14_AO.jpg","pos4","stimuli/WF14_AO.jpg","AO","WF14","3","2","4","6","stimuli/stars_4.png","134","[""HO"",""SC"",""DO"",""AO""]","[""WM09"",""AM09"",""AF09"",""WF14""]","[4,5,7,4]","[2,4,8,6]","","",""
"show-reward","86","250031","0.0-86.0","p347008","A3N15463MQO5VF","3WPCIUYH1BELQU8EB2L3QVOOKYBTD4","3ZWFC4W1UWD8VJ7COLGZ30LGR2NRFK","emotion","match","uniform","","","","","","","","249347.40000000037","251350.5","","","","","","","","","","","","4","","stimuli/stars_4.png","134","","","","","stimuli/WF14_AO.jpg","",""
"explore-choice","87","253204","0.0-87.0","p347008","A3N15463MQO5VF","3WPCIUYH1BELQU8EB2L3QVOOKYBTD4","3ZWFC4W1UWD8VJ7COLGZ30LGR2NRFK","emotion","match","uniform","","","","","","","2659.199999999255","251351.30000000075","254010.5","[""stimuli/WM09_HO.jpg"",""stimuli/AM09_DO.jpg"",""stimuli/AF09_SC.jpg"",""stimuli/WF14_AO.jpg""]","stimuli/WM09_HO.jpg","stimuli/AM09_DO.jpg","stimuli/AF09_SC.jpg","stimuli/WF14_AO.jpg","pos3","stimuli/AF09_SC.jpg","SC","AF09","2","3","6","4","stimuli/stars_6.png","137","[""HO"",""DO"",""SC"",""AO""]","[""WM09"",""AM09"",""AF09"",""WF14""]","[3,8,6,7]","[2,8,4,6]","","",""
"show-reward","88","255209","0.0-88.0","p347008","A3N15463MQO5VF","3WPCIUYH1BELQU8EB2L3QVOOKYBTD4","3ZWFC4W1UWD8VJ7COLGZ30LGR2NRFK","emotion","match","uniform","","","","","","","","254524.90000000037","256529.19999999925","","","","","","","","","","","","6","","stimuli/stars_6.png","137","","","","","stimuli/AF09_SC.jpg","",""
"explore-choice","89","258320","0.0-89.0","p347008","A3N15463MQO5VF","3WPCIUYH1BELQU8EB2L3QVOOKYBTD4","3ZWFC4W1UWD8VJ7COLGZ30LGR2NRFK","emotion","match","uniform","","","","","","","2608.4000000003725","256529.90000000037","259138.30000000075","[""stimuli/WF14_DO.jpg"",""stimuli/AF09_AO.jpg"",""stimuli/AM09_SC.jpg"",""stimuli/WM09_HO.jpg""]","stimuli/WF14_DO.jpg","stimuli/AF09_AO.jpg","stimuli/AM09_SC.jpg","stimuli/WM09_HO.jpg","pos1","stimuli/WF14_DO.jpg","DO","WF14","0","4","8","8","stimuli/stars_8.png","141","[""DO"",""AO"",""SC"",""HO""]","[""WF14"",""AF09"",""AM09"",""WM09""]","[8,4,2,2]","[8,6,4,2]","","",""
"show-reward","90","260332","0.0-90.0","p347008","A3N15463MQO5VF","3WPCIUYH1BELQU8EB2L3QVOOKYBTD4","3ZWFC4W1UWD8VJ7COLGZ30LGR2NRFK","emotion","match","uniform","","","","","","","","259640.19999999925","261652","","","","","","","","","","","","8","","stimuli/stars_8.png","141","","","","","stimuli/WF14_DO.jpg","",""
"explore-choice","91","262902","0.0-91.0","p347008","A3N15463MQO5VF","3WPCIUYH1BELQU8EB2L3QVOOKYBTD4","3ZWFC4W1UWD8VJ7COLGZ30LGR2NRFK","emotion","match","uniform","","","","","","","2061.4000000003725","261652.69999999925","263714.0999999996","[""stimuli/WF14_HO.jpg"",""stimuli/AM09_AO.jpg"",""stimuli/WM09_DO.jpg"",""stimuli/AF09_SC.jpg""]","stimuli/WF14_HO.jpg","stimuli/AM09_AO.jpg","stimuli/WM09_DO.jpg","stimuli/AF09_SC.jpg","pos3","stimuli/WM09_DO.jpg","DO","WM09","2","4","8","8","stimuli/stars_8.png","145","[""HO"",""AO"",""DO"",""SC""]","[""WF14"",""AM09"",""WM09"",""AF09""]","[1,4,8,6]","[2,6,8,4]","","",""
"show-reward","92","264911","0.0-92.0","p347008","A3N15463MQO5VF","3WPCIUYH1BELQU8EB2L3QVOOKYBTD4","3ZWFC4W1UWD8VJ7COLGZ30LGR2NRFK","emotion","match","uniform","","","","","","","","264222.9000000004","266230.4000000004","","","","","","","","","","","","8","","stimuli/stars_8.png","145","","","","","stimuli/WM09_DO.jpg","",""
"explore-choice","93","267452","0.0-93.0","p347008","A3N15463MQO5VF","3WPCIUYH1BELQU8EB2L3QVOOKYBTD4","3ZWFC4W1UWD8VJ7COLGZ30LGR2NRFK","emotion","match","uniform","","","","","","","2035","266231.0999999996","268266.0999999996","[""stimuli/WM09_AO.jpg"",""stimuli/AF09_HO.jpg"",""stimuli/WF14_DO.jpg"",""stimuli/AM09_SC.jpg""]","stimuli/WM09_AO.jpg","stimuli/AF09_HO.jpg","stimuli/WF14_DO.jpg","stimuli/AM09_SC.jpg","pos3","stimuli/WF14_DO.jpg","DO","WF14","2","5","10","8","stimuli/stars_10.png","150","[""AO"",""HO"",""DO"",""SC""]","[""WM09"",""AF09"",""WF14"",""AM09""]","[5,1,10,3]","[6,2,8,4]","","",""
"show-reward","94","269456","0.0-94.0","p347008","A3N15463MQO5VF","3WPCIUYH1BELQU8EB2L3QVOOKYBTD4","3ZWFC4W1UWD8VJ7COLGZ30LGR2NRFK","emotion","match","uniform","","","","","","","","268772.30000000075","270775.4000000004","","","","","","","","","","","","10","","stimuli/stars_10.png","150","","","","","stimuli/WF14_DO.jpg","",""
"explore-choice","95","271635","0.0-95.0","p347008","A3N15463MQO5VF","3WPCIUYH1BELQU8EB2L3QVOOKYBTD4","3ZWFC4W1UWD8VJ7COLGZ30LGR2NRFK","emotion","match","uniform","","","","","","","1673.7999999988824","270776.4000000004","272450.19999999925","[""stimuli/AF09_AO.jpg"",""stimuli/WM09_DO.jpg"",""stimuli/AM09_SC.jpg"",""stimuli/WF14_HO.jpg""]","stimuli/AF09_AO.jpg","stimuli/WM09_DO.jpg","stimuli/AM09_SC.jpg","stimuli/WF14_HO.jpg","pos2","stimuli/WM09_DO.jpg","DO","WM09","1","5","10","8","stimuli/stars_10.png","155","[""AO"",""DO"",""SC"",""HO""]","[""AF09"",""WM09"",""AM09"",""WF14""]","[8,10,5,0]","[6,8,4,2]","","",""
"show-reward","96","273642","0.0-96.0","p347008","A3N15463MQO5VF","3WPCIUYH1BELQU8EB2L3QVOOKYBTD4","3ZWFC4W1UWD8VJ7COLGZ30LGR2NRFK","emotion","match","uniform","","","","","","","","272955.9000000004","274961.5","","","","","","","","","","","","10","","stimuli/stars_10.png","155","","","","","stimuli/WM09_DO.jpg","",""
"explore-choice","97","276234","0.0-97.0","p347008","A3N15463MQO5VF","3WPCIUYH1BELQU8EB2L3QVOOKYBTD4","3ZWFC4W1UWD8VJ7COLGZ30LGR2NRFK","emotion","match","uniform","","","","","","","2080.0999999996275","274962.0999999996","277042.19999999925","[""stimuli/AF09_DO.jpg"",""stimuli/AM09_HO.jpg"",""stimuli/WF14_AO.jpg"",""stimuli/WM09_SC.jpg""]","stimuli/AF09_DO.jpg","stimuli/AM09_HO.jpg","stimuli/WF14_AO.jpg","stimuli/WM09_SC.jpg","pos1","stimuli/AF09_DO.jpg","DO","AF09","0","4","8","8","stimuli/stars_8.png","159","[""DO"",""HO"",""AO"",""SC""]","[""AF09"",""AM09"",""WF14"",""WM09""]","[8,1,5,5]","[8,2,6,4]","","",""
"show-reward","98","278251","0.0-98.0","p347008","A3N15463MQO5VF","3WPCIUYH1BELQU8EB2L3QVOOKYBTD4","3ZWFC4W1UWD8VJ7COLGZ30LGR2NRFK","emotion","match","uniform","","","","","","","","277554.30000000075","279570.5","","","","","","","","","","","","8","","stimuli/stars_8.png","159","","","","","stimuli/AF09_DO.jpg","",""
"explore-choice","99","280060","0.0-99.0","p347008","A3N15463MQO5VF","3WPCIUYH1BELQU8EB2L3QVOOKYBTD4","3ZWFC4W1UWD8VJ7COLGZ30LGR2NRFK","emotion","match","uniform","","","","","","","1302.699999999255","279571.5","280874.19999999925","[""stimuli/AF09_DO.jpg"",""stimuli/WF14_HO.jpg"",""stimuli/AM09_AO.jpg"",""stimuli/WM09_SC.jpg""]","stimuli/AF09_DO.jpg","stimuli/WF14_HO.jpg","stimuli/AM09_AO.jpg","stimuli/WM09_SC.jpg","pos2","stimuli/WF14_HO.jpg","HO","WF14","1","1.5","3","2","stimuli/stars_3.png","160.5","[""DO"",""HO"",""AO"",""SC""]","[""AF09"",""WF14"",""AM09"",""WM09""]","[9,3,7,6]","[8,2,6,4]","","",""
"show-reward","100","282071","0.0-100.0","p347008","A3N15463MQO5VF","3WPCIUYH1BELQU8EB2L3QVOOKYBTD4","3ZWFC4W1UWD8VJ7COLGZ30LGR2NRFK","emotion","match","uniform","","","","","","","","281380.69999999925","283391.5","","","","","","","","","","","","3","","stimuli/stars_3.png","160.5","","","","","stimuli/WF14_HO.jpg","",""
"explore-choice","101","284442","0.0-101.0","p347008","A3N15463MQO5VF","3WPCIUYH1BELQU8EB2L3QVOOKYBTD4","3ZWFC4W1UWD8VJ7COLGZ30LGR2NRFK","emotion","match","uniform","","","","","","","1865.8999999985099","283392.30000000075","285258.19999999925","[""stimuli/AF09_HO.jpg"",""stimuli/AM09_SC.jpg"",""stimuli/WF14_AO.jpg"",""stimuli/WM09_DO.jpg""]","stimuli/AF09_HO.jpg","stimuli/AM09_SC.jpg","stimuli/WF14_AO.jpg","stimuli/WM09_DO.jpg","pos4","stimuli/WM09_DO.jpg","DO","WM09","3","4.5","9","8","stimuli/stars_9.png","165","[""HO"",""SC"",""AO"",""DO""]","[""AF09"",""AM09"",""WF14"",""WM09""]","[4,5,6,9]","[2,4,6,8]","","",""
"show-reward","102","286451","0.0-102.0","p347008","A3N15463MQO5VF","3WPCIUYH1BELQU8EB2L3QVOOKYBTD4","3ZWFC4W1UWD8VJ7COLGZ30LGR2NRFK","emotion","match","uniform","","","","","","","","285763.5","287771.0999999996","","","","","","","","","","","","9","","stimuli/stars_9.png","165","","","","","stimuli/WM09_DO.jpg","",""
"explore-choice","103","291659","0.0-103.0","p347008","A3N15463MQO5VF","3WPCIUYH1BELQU8EB2L3QVOOKYBTD4","3ZWFC4W1UWD8VJ7COLGZ30LGR2NRFK","emotion","match","uniform","","","","","","","4694.5","287771.80000000075","292466.30000000075","[""stimuli/HM07_CC.jpg"",""stimuli/HF04_FO.jpg"",""stimuli/BF05_SUR.jpg"",""stimuli/HF09_HE.jpg""]","stimuli/HM07_CC.jpg","stimuli/HF04_FO.jpg","stimuli/BF05_SUR.jpg","stimuli/HF09_HE.jpg","pos1","stimuli/HM07_CC.jpg","CC","HM07","0","2","4","6","stimuli/stars_4.png","167","[""CC"",""FO"",""SUR"",""HE""]","[""HM07"",""HF04"",""BF05"",""HF09""]","[4,3,2,6]","[6,4,2,8]","","",""
"show-reward","104","293661","0.0-104.0","p347008","A3N15463MQO5VF","3WPCIUYH1BELQU8EB2L3QVOOKYBTD4","3ZWFC4W1UWD8VJ7COLGZ30LGR2NRFK","emotion","match","uniform","","","","","","","","292979.80000000075","294981.0999999996","","","","","","","","","","","","4","","stimuli/stars_4.png","167","","","","","stimuli/HM07_CC.jpg","",""
"explore-choice","105","295630","0.0-105.0","p347008","A3N15463MQO5VF","3WPCIUYH1BELQU8EB2L3QVOOKYBTD4","3ZWFC4W1UWD8VJ7COLGZ30LGR2NRFK","emotion","match","uniform","","","","","","","1460.5","294981.80000000075","296442.30000000075","[""stimuli/HF09_SUR.jpg"",""stimuli/HF04_CC.jpg"",""stimuli/BF05_FO.jpg"",""stimuli/HM07_HE.jpg""]","stimuli/HF09_SUR.jpg","stimuli/HF04_CC.jpg","stimuli/BF05_FO.jpg","stimuli/HM07_HE.jpg","pos1","stimuli/HF09_SUR.jpg","SUR","HF09","0","2","4","2","stimuli/stars_4.png","169","[""SUR"",""CC"",""FO"",""HE""]","[""HF09"",""HF04"",""BF05"",""HM07""]","[4,7,2,7]","[2,6,4,8]","","",""
"show-reward","106","297644","0.0-106.0","p347008","A3N15463MQO5VF","3WPCIUYH1BELQU8EB2L3QVOOKYBTD4","3ZWFC4W1UWD8VJ7COLGZ30LGR2NRFK","emotion","match","uniform","","","","","","","","296950.80000000075","298963.9000000004","","","","","","","","","","","","4","","stimuli/stars_4.png","169","","","","","stimuli/HF09_SUR.jpg","",""
"explore-choice","107","299507","0.0-107.0","p347008","A3N15463MQO5VF","3WPCIUYH1BELQU8EB2L3QVOOKYBTD4","3ZWFC4W1UWD8VJ7COLGZ30LGR2NRFK","emotion","match","uniform","","","","","","","1357.5","298964.69999999925","300322.19999999925","[""stimuli/BF05_FO.jpg"",""stimuli/HF04_SUR.jpg"",""stimuli/HM07_HE.jpg"",""stimuli/HF09_CC.jpg""]","stimuli/BF05_FO.jpg","stimuli/HF04_SUR.jpg","stimuli/HM07_HE.jpg","stimuli/HF09_CC.jpg","pos1","stimuli/BF05_FO.jpg","FO","BF05","0","2","4","4","stimuli/stars_4.png","171","[""FO"",""SUR"",""HE"",""CC""]","[""BF05"",""HF04"",""HM07"",""HF09""]","[4,2,9,5]","[4,2,8,6]","","",""
"show-reward","108","301509","0.0-108.0","p347008","A3N15463MQO5VF","3WPCIUYH1BELQU8EB2L3QVOOKYBTD4","3ZWFC4W1UWD8VJ7COLGZ30LGR2NRFK","emotion","match","uniform","","","","","","","","300828.0999999996","302829.4000000004","","","","","","","","","","","","4","","stimuli/stars_4.png","171","","","","","stimuli/BF05_FO.jpg","",""
"explore-choice","109","303352","0.0-109.0","p347008","A3N15463MQO5VF","3WPCIUYH1BELQU8EB2L3QVOOKYBTD4","3ZWFC4W1UWD8VJ7COLGZ30LGR2NRFK","emotion","match","uniform","","","","","","","1332","302829.9000000004","304161.9000000004","[""stimuli/HF09_HE.jpg"",""stimuli/HM07_FO.jpg"",""stimuli/HF04_CC.jpg"",""stimuli/BF05_SUR.jpg""]","stimuli/HF09_HE.jpg","stimuli/HM07_FO.jpg","stimuli/HF04_CC.jpg","stimuli/BF05_SUR.jpg","pos2","stimuli/HM07_FO.jpg","FO","HM07","1","2","4","4","stimuli/stars_4.png","173","[""HE"",""FO"",""CC"",""SUR""]","[""HF09"",""HM07"",""HF04"",""BF05""]","[9,4,5,2]","[8,4,6,2]","","",""
"show-reward","110","305355","0.0-110.0","p347008","A3N15463MQO5VF","3WPCIUYH1BELQU8EB2L3QVOOKYBTD4","3ZWFC4W1UWD8VJ7COLGZ30LGR2NRFK","emotion","match","uniform","","","","","","","","304673.4000000004","306675","","","","","","","","","","","","4","","stimuli/stars_4.png","173","","","","","stimuli/HM07_FO.jpg","",""
"explore-choice","111","307246","0.0-111.0","p347008","A3N15463MQO5VF","3WPCIUYH1BELQU8EB2L3QVOOKYBTD4","3ZWFC4W1UWD8VJ7COLGZ30LGR2NRFK","emotion","match","uniform","","","","","","","1390.7000000011176","306675.5999999996","308066.30000000075","[""stimuli/HF04_SUR.jpg"",""stimuli/BF05_HE.jpg"",""stimuli/HM07_CC.jpg"",""stimuli/HF09_FO.jpg""]","stimuli/HF04_SUR.jpg","stimuli/BF05_HE.jpg","stimuli/HM07_CC.jpg","stimuli/HF09_FO.jpg","pos4","stimuli/HF09_FO.jpg","FO","HF09","3","1","2","4","stimuli/stars_2.png","174","[""SUR"",""HE"",""CC"",""FO""]","[""HF04"",""BF05"",""HM07"",""HF09""]","[1,6,7,2]","[2,8,6,4]","","",""
"show-reward","112","309249","0.0-112.0","p347008","A3N15463MQO5VF","3WPCIUYH1BELQU8EB2L3QVOOKYBTD4","3ZWFC4W1UWD8VJ7COLGZ30LGR2NRFK","emotion","match","uniform","","","","","","","","308567.5","310569.69999999925","","","","","","","","","","","","2","","stimuli/stars_2.png","174","","","","","stimuli/HF09_FO.jpg","",""
"explore-choice","113","311237","0.0-113.0","p347008","A3N15463MQO5VF","3WPCIUYH1BELQU8EB2L3QVOOKYBTD4","3ZWFC4W1UWD8VJ7COLGZ30LGR2NRFK","emotion","match","uniform","","","","","","","1471.8999999985099","310570.30000000075","312042.19999999925","[""stimuli/BF05_CC.jpg"",""stimuli/HM07_HE.jpg"",""stimuli/HF09_SUR.jpg"",""stimuli/HF04_FO.jpg""]","stimuli/BF05_CC.jpg","stimuli/HM07_HE.jpg","stimuli/HF09_SUR.jpg","stimuli/HF04_FO.jpg","pos4","stimuli/HF04_FO.jpg","FO","HF04","3","1.5","3","4","stimuli/stars_3.png","175.5","[""CC"",""HE"",""SUR"",""FO""]","[""BF05"",""HM07"",""HF09"",""HF04""]","[8,8,2,3]","[6,8,2,4]","","",""
"show-reward","114","313252","0.0-114.0","p347008","A3N15463MQO5VF","3WPCIUYH1BELQU8EB2L3QVOOKYBTD4","3ZWFC4W1UWD8VJ7COLGZ30LGR2NRFK","emotion","match","uniform","","","","","","","","312558","314572.5999999996","","","","","","","","","","","","3","","stimuli/stars_3.png","175.5","","","","","stimuli/HF04_FO.jpg","",""
"explore-choice","115","319007","0.0-115.0","p347008","A3N15463MQO5VF","3WPCIUYH1BELQU8EB2L3QVOOKYBTD4","3ZWFC4W1UWD8VJ7COLGZ30LGR2NRFK","emotion","match","uniform","","","","","","","5253","314573.30000000075","319826.30000000075","[""stimuli/HF09_HE.jpg"",""stimuli/HM07_FO.jpg"",""stimuli/BF05_CC.jpg"",""stimuli/HF04_SUR.jpg""]","stimuli/HF09_HE.jpg","stimuli/HM07_FO.jpg","stimuli/BF05_CC.jpg","stimuli/HF04_SUR.jpg","pos3","stimuli/BF05_CC.jpg","CC","BF05","2","2.5","5","6","stimuli/stars_5.png","178","[""HE"",""FO"",""CC"",""SUR""]","[""HF09"",""HM07"",""BF05"",""HF04""]","[6,4,5,1]","[8,4,6,2]","","",""
"show-reward","116","321010","0.0-116.0","p347008","A3N15463MQO5VF","3WPCIUYH1BELQU8EB2L3QVOOKYBTD4","3ZWFC4W1UWD8VJ7COLGZ30LGR2NRFK","emotion","match","uniform","","","","","","","","320328.4000000004","322329.80000000075","","","","","","","","","","","","5","","stimuli/stars_5.png","178","","","","","stimuli/BF05_CC.jpg","",""
"explore-choice","117","323169","0.0-117.0","p347008","A3N15463MQO5VF","3WPCIUYH1BELQU8EB2L3QVOOKYBTD4","3ZWFC4W1UWD8VJ7COLGZ30LGR2NRFK","emotion","match","uniform","","","","","","","1647.699999999255","322330.5","323978.19999999925","[""stimuli/HM07_SUR.jpg"",""stimuli/HF09_CC.jpg"",""stimuli/HF04_HE.jpg"",""stimuli/BF05_FO.jpg""]","stimuli/HM07_SUR.jpg","stimuli/HF09_CC.jpg","stimuli/HF04_HE.jpg","stimuli/BF05_FO.jpg","pos2","stimuli/HF09_CC.jpg","CC","HF09","1","2","4","6","stimuli/stars_4.png","180","[""SUR"",""CC"",""HE"",""FO""]","[""HM07"",""HF09"",""HF04"",""BF05""]","[3,4,7,5]","[2,6,8,4]","","",""
"show-reward","118","325185","0.0-118.0","p347008","A3N15463MQO5VF","3WPCIUYH1BELQU8EB2L3QVOOKYBTD4","3ZWFC4W1UWD8VJ7COLGZ30LGR2NRFK","emotion","match","uniform","","","","","","","","324490.30000000075","326504.9000000004","","","","","","","","","","","","4","","stimuli/stars_4.png","180","","","","","stimuli/HF09_CC.jpg","",""
"explore-choice","119","327956","0.0-119.0","p347008","A3N15463MQO5VF","3WPCIUYH1BELQU8EB2L3QVOOKYBTD4","3ZWFC4W1UWD8VJ7COLGZ30LGR2NRFK","emotion","match","uniform","","","","","","","2256.5999999996275","326505.5999999996","328762.19999999925","[""stimuli/HF04_HE.jpg"",""stimuli/HF09_FO.jpg"",""stimuli/BF05_SUR.jpg"",""stimuli/HM07_CC.jpg""]","stimuli/HF04_HE.jpg","stimuli/HF09_FO.jpg","stimuli/BF05_SUR.jpg","stimuli/HM07_CC.jpg","pos3","stimuli/BF05_SUR.jpg","SUR","BF05","2","0","0","2","stimuli/stars_0.png","180","[""HE"",""FO"",""SUR"",""CC""]","[""HF04"",""HF09"",""BF05"",""HM07""]","[6,6,0,5]","[8,4,2,6]","","",""
"show-reward","120","329973","0.0-120.0","p347008","A3N15463MQO5VF","3WPCIUYH1BELQU8EB2L3QVOOKYBTD4","3ZWFC4W1UWD8VJ7COLGZ30LGR2NRFK","emotion","match","uniform","","","","","","","","329277.5","331293","","","","","","","","","","","","0","","stimuli/stars_0.png","180","","","","","stimuli/BF05_SUR.jpg","",""
"explore-choice","121","332464","0.0-121.0","p347008","A3N15463MQO5VF","3WPCIUYH1BELQU8EB2L3QVOOKYBTD4","3ZWFC4W1UWD8VJ7COLGZ30LGR2NRFK","emotion","match","uniform","","","","","","","1988.2999999988824","331293.9000000004","333282.19999999925","[""stimuli/HF09_FO.jpg"",""stimuli/HM07_HE.jpg"",""stimuli/BF05_CC.jpg"",""stimuli/HF04_SUR.jpg""]","stimuli/HF09_FO.jpg","stimuli/HM07_HE.jpg","stimuli/BF05_CC.jpg","stimuli/HF04_SUR.jpg","pos3","stimuli/BF05_CC.jpg","CC","BF05","2","2","4","6","stimuli/stars_4.png","182","[""FO"",""HE"",""CC"",""SUR""]","[""HF09"",""HM07"",""BF05"",""HF04""]","[3,6,4,0]","[4,8,6,2]","","",""
"show-reward","122","334481","0.0-122.0","p347008","A3N15463MQO5VF","3WPCIUYH1BELQU8EB2L3QVOOKYBTD4","3ZWFC4W1UWD8VJ7COLGZ30LGR2NRFK","emotion","match","uniform","","","","","","","","333785","335800.80000000075","","","","","","","","","","","","4","","stimuli/stars_4.png","182","","","","","stimuli/BF05_CC.jpg","",""
"explore-choice","123","337559","0.0-123.0","p347008","A3N15463MQO5VF","3WPCIUYH1BELQU8EB2L3QVOOKYBTD4","3ZWFC4W1UWD8VJ7COLGZ30LGR2NRFK","emotion","match","uniform","","","","","","","2576.7999999988824","335801.4000000004","338378.19999999925","[""stimuli/HM07_HE.jpg"",""stimuli/HF04_FO.jpg"",""stimuli/HF09_CC.jpg"",""stimuli/BF05_SUR.jpg""]","stimuli/HM07_HE.jpg","stimuli/HF04_FO.jpg","stimuli/HF09_CC.jpg","stimuli/BF05_SUR.jpg","pos2","stimuli/HF04_FO.jpg","FO","HF04","1","1","2","4","stimuli/stars_2.png","183","[""HE"",""FO"",""CC"",""SUR""]","[""HM07"",""HF04"",""HF09"",""BF05""]","[7,2,8,2]","[8,4,6,2]","","",""
"show-reward","124","339563","0.0-124.0","p347008","A3N15463MQO5VF","3WPCIUYH1BELQU8EB2L3QVOOKYBTD4","3ZWFC4W1UWD8VJ7COLGZ30LGR2NRFK","emotion","match","uniform","","","","","","","","338879.80000000075","340882.5","","","","","","","","","","","","2","","stimuli/stars_2.png","183","","","","","stimuli/HF04_FO.jpg","",""
"explore-choice","125","341758","0.0-125.0","p347008","A3N15463MQO5VF","3WPCIUYH1BELQU8EB2L3QVOOKYBTD4","3ZWFC4W1UWD8VJ7COLGZ30LGR2NRFK","emotion","match","uniform","","","","","","","1686.9000000003725","340883.19999999925","342570.0999999996","[""stimuli/BF05_CC.jpg"",""stimuli/HF09_HE.jpg"",""stimuli/HM07_SUR.jpg"",""stimuli/HF04_FO.jpg""]","stimuli/BF05_CC.jpg","stimuli/HF09_HE.jpg","stimuli/HM07_SUR.jpg","stimuli/HF04_FO.jpg","pos4","stimuli/HF04_FO.jpg","FO","HF04","3","2","4","4","stimuli/stars_4.png","185","[""CC"",""HE"",""SUR"",""FO""]","[""BF05"",""HF09"",""HM07"",""HF04""]","[8,8,2,4]","[6,8,2,4]","","",""
"show-reward","126","343770","0.0-126.0","p347008","A3N15463MQO5VF","3WPCIUYH1BELQU8EB2L3QVOOKYBTD4","3ZWFC4W1UWD8VJ7COLGZ30LGR2NRFK","emotion","match","uniform","","","","","","","","343078.69999999925","345090.19999999925","","","","","","","","","","","","4","","stimuli/stars_4.png","185","","","","","stimuli/HF04_FO.jpg","",""
"explore-choice","127","347065","0.0-127.0","p347008","A3N15463MQO5VF","3WPCIUYH1BELQU8EB2L3QVOOKYBTD4","3ZWFC4W1UWD8VJ7COLGZ30LGR2NRFK","emotion","match","uniform","","","","","","","2791.39999999851","345090.80000000075","347882.19999999925","[""stimuli/BF05_CC.jpg"",""stimuli/HM07_FO.jpg"",""stimuli/HF04_HE.jpg"",""stimuli/HF09_SUR.jpg""]","stimuli/BF05_CC.jpg","stimuli/HM07_FO.jpg","stimuli/HF04_HE.jpg","stimuli/HF09_SUR.jpg","pos1","stimuli/BF05_CC.jpg","CC","BF05","0","3","6","6","stimuli/stars_6.png","188","[""CC"",""FO"",""HE"",""SUR""]","[""BF05"",""HM07"",""HF04"",""HF09""]","[6,3,8,0]","[6,4,8,2]","","",""
"show-reward","128","349083","0.0-128.0","p347008","A3N15463MQO5VF","3WPCIUYH1BELQU8EB2L3QVOOKYBTD4","3ZWFC4W1UWD8VJ7COLGZ30LGR2NRFK","emotion","match","uniform","","","","","","","","348386.19999999925","350402.80000000075","","","","","","","","","","","","6","","stimuli/stars_6.png","188","","","","","stimuli/BF05_CC.jpg","",""
"explore-choice","129","351793","0.0-129.0","p347008","A3N15463MQO5VF","3WPCIUYH1BELQU8EB2L3QVOOKYBTD4","3ZWFC4W1UWD8VJ7COLGZ30LGR2NRFK","emotion","match","uniform","","","","","","","2206.7999999988824","350403.4000000004","352610.19999999925","[""stimuli/HF09_HE.jpg"",""stimuli/HF04_SUR.jpg"",""stimuli/HM07_CC.jpg"",""stimuli/BF05_FO.jpg""]","stimuli/HF09_HE.jpg","stimuli/HF04_SUR.jpg","stimuli/HM07_CC.jpg","stimuli/BF05_FO.jpg","pos4","stimuli/BF05_FO.jpg","FO","BF05","3","3","6","4","stimuli/stars_6.png","191","[""HE"",""SUR"",""CC"",""FO""]","[""HF09"",""HF04"",""HM07"",""BF05""]","[8,2,6,6]","[8,2,6,4]","","",""
"show-reward","130","353811","0.0-130.0","p347008","A3N15463MQO5VF","3WPCIUYH1BELQU8EB2L3QVOOKYBTD4","3ZWFC4W1UWD8VJ7COLGZ30LGR2NRFK","emotion","match","uniform","","","","","","","","353114","355131.0999999996","","","","","","","","","","","","6","","stimuli/stars_6.png","191","","","","","stimuli/BF05_FO.jpg","",""
"explore-choice","131","356205","0.0-131.0","p347008","A3N15463MQO5VF","3WPCIUYH1BELQU8EB2L3QVOOKYBTD4","3ZWFC4W1UWD8VJ7COLGZ30LGR2NRFK","emotion","match","uniform","","","","","","","1886.3999999985099","355131.80000000075","357018.19999999925","[""stimuli/HM07_SUR.jpg"",""stimuli/HF04_HE.jpg"",""stimuli/BF05_CC.jpg"",""stimuli/HF09_FO.jpg""]","stimuli/HM07_SUR.jpg","stimuli/HF04_HE.jpg","stimuli/BF05_CC.jpg","stimuli/HF09_FO.jpg","pos2","stimuli/HF04_HE.jpg","HE","HF04","1","3.5","7","8","stimuli/stars_7.png","194.5","[""SUR"",""HE"",""CC"",""FO""]","[""HM07"",""HF04"",""BF05"",""HF09""]","[0,7,7,3]","[2,8,6,4]","","",""
"show-reward","132","358222","0.0-132.0","p347008","A3N15463MQO5VF","3WPCIUYH1BELQU8EB2L3QVOOKYBTD4","3ZWFC4W1UWD8VJ7COLGZ30LGR2NRFK","emotion","match","uniform","","","","","","","","357525","359541.5","","","","","","","","","","","","7","","stimuli/stars_7.png","194.5","","","","","stimuli/HF04_HE.jpg","",""
"explore-choice","133","361040","0.0-133.0","p347008","A3N15463MQO5VF","3WPCIUYH1BELQU8EB2L3QVOOKYBTD4","3ZWFC4W1UWD8VJ7COLGZ30LGR2NRFK","emotion","match","uniform","","","","","","","2315.5999999996275","359542.4000000004","361858","[""stimuli/HM07_FO.jpg"",""stimuli/HF09_SUR.jpg"",""stimuli/HF04_CC.jpg"",""stimuli/BF05_HE.jpg""]","stimuli/HM07_FO.jpg","stimuli/HF09_SUR.jpg","stimuli/HF04_CC.jpg","stimuli/BF05_HE.jpg","pos2","stimuli/HF09_SUR.jpg","SUR","HF09","1","0","0","2","stimuli/stars_0.png","194.5","[""FO"",""SUR"",""CC"",""HE""]","[""HM07"",""HF09"",""HF04"",""BF05""]","[4,0,7,10]","[4,2,6,8]","","",""
"show-reward","134","363048","0.0-134.0","p347008","A3N15463MQO5VF","3WPCIUYH1BELQU8EB2L3QVOOKYBTD4","3ZWFC4W1UWD8VJ7COLGZ30LGR2NRFK","emotion","match","uniform","","","","","","","","362360.0999999996","364367.69999999925","","","","","","","","","","","","0","","stimuli/stars_0.png","194.5","","","","","stimuli/HF09_SUR.jpg","",""
"explore-choice","135","365004","0.0-135.0","p347008","A3N15463MQO5VF","3WPCIUYH1BELQU8EB2L3QVOOKYBTD4","3ZWFC4W1UWD8VJ7COLGZ30LGR2NRFK","emotion","match","uniform","","","","","","","1441.699999999255","364368.4000000004","365810.0999999996","[""stimuli/BF05_HE.jpg"",""stimuli/HF09_CC.jpg"",""stimuli/HF04_FO.jpg"",""stimuli/HM07_SUR.jpg""]","stimuli/BF05_HE.jpg","stimuli/HF09_CC.jpg","stimuli/HF04_FO.jpg","stimuli/HM07_SUR.jpg","pos1","stimuli/BF05_HE.jpg","HE","BF05","0","5","10","8","stimuli/stars_10.png","199.5","[""HE"",""CC"",""FO"",""SUR""]","[""BF05"",""HF09"",""HF04"",""HM07""]","[10,7,4,4]","[8,6,4,2]","","",""
"show-reward","136","367014","0.0-136.0","p347008","A3N15463MQO5VF","3WPCIUYH1BELQU8EB2L3QVOOKYBTD4","3ZWFC4W1UWD8VJ7COLGZ30LGR2NRFK","emotion","match","uniform","","","","","","","","366324.9000000004","368334.0999999996","","","","","","","","","","","","10","","stimuli/stars_10.png","199.5","","","","","stimuli/BF05_HE.jpg","",""
"explore-choice","137","369438","0.0-137.0","p347008","A3N15463MQO5VF","3WPCIUYH1BELQU8EB2L3QVOOKYBTD4","3ZWFC4W1UWD8VJ7COLGZ30LGR2NRFK","emotion","match","uniform","","","","","","","1915.199999999255","368334.80000000075","370250","[""stimuli/HF09_HE.jpg"",""stimuli/HF04_CC.jpg"",""stimuli/BF05_FO.jpg"",""stimuli/HM07_SUR.jpg""]","stimuli/HF09_HE.jpg","stimuli/HF04_CC.jpg","stimuli/BF05_FO.jpg","stimuli/HM07_SUR.jpg","pos1","stimuli/HF09_HE.jpg","HE","HF09","0","4.5","9","8","stimuli/stars_9.png","204","[""HE"",""CC"",""FO"",""SUR""]","[""HF09"",""HF04"",""BF05"",""HM07""]","[9,4,3,4]","[8,6,4,2]","","",""
"show-reward","138","371454","0.0-138.0","p347008","A3N15463MQO5VF","3WPCIUYH1BELQU8EB2L3QVOOKYBTD4","3ZWFC4W1UWD8VJ7COLGZ30LGR2NRFK","emotion","match","uniform","","","","","","","","370758.30000000075","372774.0999999996","","","","","","","","","","","","9","","stimuli/stars_9.png","204","","","","","stimuli/HF09_HE.jpg","",""
"explore-choice","139","374101","0.0-139.0","p347008","A3N15463MQO5VF","3WPCIUYH1BELQU8EB2L3QVOOKYBTD4","3ZWFC4W1UWD8VJ7COLGZ30LGR2NRFK","emotion","match","uniform","","","","","","","2130.9000000003725","372775.19999999925","374906.0999999996","[""stimuli/HF04_CC.jpg"",""stimuli/HM07_SUR.jpg"",""stimuli/HF09_FO.jpg"",""stimuli/BF05_HE.jpg""]","stimuli/HF04_CC.jpg","stimuli/HM07_SUR.jpg","stimuli/HF09_FO.jpg","stimuli/BF05_HE.jpg","pos4","stimuli/BF05_HE.jpg","HE","BF05","3","4.5","9","8","stimuli/stars_9.png","208.5","[""CC"",""SUR"",""FO"",""HE""]","[""HF04"",""HM07"",""HF09"",""BF05""]","[5,3,2,9]","[6,2,4,8]","","",""
"show-reward","140","376108","0.0-140.0","p347008","A3N15463MQO5VF","3WPCIUYH1BELQU8EB2L3QVOOKYBTD4","3ZWFC4W1UWD8VJ7COLGZ30LGR2NRFK","emotion","match","uniform","","","","","","","","375421.5","377428.19999999925","","","","","","","","","","","","9","","stimuli/stars_9.png","208.5","","","","","stimuli/BF05_HE.jpg","",""
"explore-choice","141","378167","0.0-141.0","p347008","A3N15463MQO5VF","3WPCIUYH1BELQU8EB2L3QVOOKYBTD4","3ZWFC4W1UWD8VJ7COLGZ30LGR2NRFK","emotion","match","uniform","","","","","","","1549.2000000011176","377429.0999999996","378978.30000000075","[""stimuli/HF09_CC.jpg"",""stimuli/BF05_HE.jpg"",""stimuli/HM07_FO.jpg"",""stimuli/HF04_SUR.jpg""]","stimuli/HF09_CC.jpg","stimuli/BF05_HE.jpg","stimuli/HM07_FO.jpg","stimuli/HF04_SUR.jpg","pos2","stimuli/BF05_HE.jpg","HE","BF05","1","3.5","7","8","stimuli/stars_7.png","212","[""CC"",""HE"",""FO"",""SUR""]","[""HF09"",""BF05"",""HM07"",""HF04""]","[8,7,6,3]","[6,8,4,2]","","",""
"show-reward","142","380181","0.0-142.0","p347008","A3N15463MQO5VF","3WPCIUYH1BELQU8EB2L3QVOOKYBTD4","3ZWFC4W1UWD8VJ7COLGZ30LGR2NRFK","emotion","match","uniform","","","","","","","","379487.80000000075","381500.9000000004","","","","","","","","","","","","7","","stimuli/stars_7.png","212","","","","","stimuli/BF05_HE.jpg","",""
"explore-choice","143","383706","0.0-143.0","p347008","A3N15463MQO5VF","3WPCIUYH1BELQU8EB2L3QVOOKYBTD4","3ZWFC4W1UWD8VJ7COLGZ30LGR2NRFK","emotion","match","uniform","","","","","","","3011.4000000003725","381502.5999999996","384514","[""stimuli/HF04_FO.jpg"",""stimuli/BF05_HE.jpg"",""stimuli/HF09_SUR.jpg"",""stimuli/HM07_CC.jpg""]","stimuli/HF04_FO.jpg","stimuli/BF05_HE.jpg","stimuli/HF09_SUR.jpg","stimuli/HM07_CC.jpg","pos2","stimuli/BF05_HE.jpg","HE","BF05","1","4","8","8","stimuli/stars_8.png","216","[""FO"",""HE"",""SUR"",""CC""]","[""HF04"",""BF05"",""HF09"",""HM07""]","[4,8,2,4]","[4,8,2,6]","","",""
"show-reward","144","385709","0.0-144.0","p347008","A3N15463MQO5VF","3WPCIUYH1BELQU8EB2L3QVOOKYBTD4","3ZWFC4W1UWD8VJ7COLGZ30LGR2NRFK","emotion","match","uniform","","","","","","","","385026.69999999925","387028.19999999925","","","","","","","","","","","","8","","stimuli/stars_8.png","216","","","","","stimuli/BF05_HE.jpg","",""
"explore-choice","145","389858","0.0-145.0","p347008","A3N15463MQO5VF","3WPCIUYH1BELQU8EB2L3QVOOKYBTD4","3ZWFC4W1UWD8VJ7COLGZ30LGR2NRFK","emotion","match","uniform","","","","","","","3644.9000000003725","387029.19999999925","390674.0999999996","[""stimuli/HF04_CC.jpg"",""stimuli/HF09_FO.jpg"",""stimuli/BF05_SUR.jpg"",""stimuli/HM07_HE.jpg""]","stimuli/HF04_CC.jpg","stimuli/HF09_FO.jpg","stimuli/BF05_SUR.jpg","stimuli/HM07_HE.jpg","pos4","stimuli/HM07_HE.jpg","HE","HM07","3","4","8","8","stimuli/stars_8.png","220","[""CC"",""FO"",""SUR"",""HE""]","[""HF04"",""HF09"",""BF05"",""HM07""]","[6,6,3,8]","[6,4,2,8]","","",""
"show-reward","146","391872","0.0-146.0","p347008","A3N15463MQO5VF","3WPCIUYH1BELQU8EB2L3QVOOKYBTD4","3ZWFC4W1UWD8VJ7COLGZ30LGR2NRFK","emotion","match","uniform","","","","","","","","391179.0999999996","393192","","","","","","","","","","","","8","","stimuli/stars_8.png","220","","","","","stimuli/HM07_HE.jpg","",""
"explore-choice","147","394008","0.0-147.0","p347008","A3N15463MQO5VF","3WPCIUYH1BELQU8EB2L3QVOOKYBTD4","3ZWFC4W1UWD8VJ7COLGZ30LGR2NRFK","emotion","match","uniform","","","","","","","1625.5","393192.5999999996","394818.0999999996","[""stimuli/HM07_CC.jpg"",""stimuli/HF04_HE.jpg"",""stimuli/BF05_FO.jpg"",""stimuli/HF09_SUR.jpg""]","stimuli/HM07_CC.jpg","stimuli/HF04_HE.jpg","stimuli/BF05_FO.jpg","stimuli/HF09_SUR.jpg","pos2","stimuli/HF04_HE.jpg","HE","HF04","1","4.5","9","8","stimuli/stars_9.png","224.5","[""CC"",""HE"",""FO"",""SUR""]","[""HM07"",""HF04"",""BF05"",""HF09""]","[7,9,3,1]","[6,8,4,2]","","",""
"show-reward","148","396014","0.0-148.0","p347008","A3N15463MQO5VF","3WPCIUYH1BELQU8EB2L3QVOOKYBTD4","3ZWFC4W1UWD8VJ7COLGZ30LGR2NRFK","emotion","match","uniform","","","","","","","","395328.4000000004","397333.5999999996","","","","","","","","","","","","9","","stimuli/stars_9.png","224.5","","","","","stimuli/HF04_HE.jpg","",""
"explore-choice","149","398990","0.0-149.0","p347008","A3N15463MQO5VF","3WPCIUYH1BELQU8EB2L3QVOOKYBTD4","3ZWFC4W1UWD8VJ7COLGZ30LGR2NRFK","emotion","match","uniform","","","","","","","2459.699999999255","397334.4000000004","399794.0999999996","[""stimuli/HM07_FO.jpg"",""stimuli/BF05_SUR.jpg"",""stimuli/HF09_CC.jpg"",""stimuli/HF04_HE.jpg""]","stimuli/HM07_FO.jpg","stimuli/BF05_SUR.jpg","stimuli/HF09_CC.jpg","stimuli/HF04_HE.jpg","pos4","stimuli/HF04_HE.jpg","HE","HF04","3","4.5","9","8","stimuli/stars_9.png","229","[""FO"",""SUR"",""CC"",""HE""]","[""HM07"",""BF05"",""HF09"",""HF04""]","[5,1,6,9]","[4,2,6,8]","","",""
"show-reward","150","400992","0.0-150.0","p347008","A3N15463MQO5VF","3WPCIUYH1BELQU8EB2L3QVOOKYBTD4","3ZWFC4W1UWD8VJ7COLGZ30LGR2NRFK","emotion","match","uniform","","","","","","","","400310.19999999925","402311.9000000004","","","","","","","","","","","","9","","stimuli/stars_9.png","229","","","","","stimuli/HF04_HE.jpg","",""
"explore-choice","151","405108","0.0-151.0","p347008","A3N15463MQO5VF","3WPCIUYH1BELQU8EB2L3QVOOKYBTD4","3ZWFC4W1UWD8VJ7COLGZ30LGR2NRFK","emotion","match","uniform","","","","","","","3609.60000000149","402312.69999999925","405922.30000000075","[""stimuli/HF04_SUR.jpg"",""stimuli/HM07_FO.jpg"",""stimuli/HF09_CC.jpg"",""stimuli/BF05_HE.jpg""]","stimuli/HF04_SUR.jpg","stimuli/HM07_FO.jpg","stimuli/HF09_CC.jpg","stimuli/BF05_HE.jpg","pos4","stimuli/BF05_HE.jpg","HE","BF05","3","3.5","7","8","stimuli/stars_7.png","232.5","[""SUR"",""FO"",""CC"",""HE""]","[""HF04"",""HM07"",""HF09"",""BF05""]","[3,6,8,7]","[2,4,6,8]","","",""
"show-reward","152","407110","0.0-152.0","p347008","A3N15463MQO5VF","3WPCIUYH1BELQU8EB2L3QVOOKYBTD4","3ZWFC4W1UWD8VJ7COLGZ30LGR2NRFK","emotion","match","uniform","","","","","","","","406428.5","408430.19999999925","","","","","","","","","","","","7","","stimuli/stars_7.png","232.5","","","","","stimuli/BF05_HE.jpg","",""
"explore-choice","153","410978","0.0-153.0","p347008","A3N15463MQO5VF","3WPCIUYH1BELQU8EB2L3QVOOKYBTD4","3ZWFC4W1UWD8VJ7COLGZ30LGR2NRFK","emotion","match","uniform","","","","","","","3363.2999999988824","408430.80000000075","411794.0999999996","[""stimuli/HF09_FO.jpg"",""stimuli/HF04_CC.jpg"",""stimuli/HM07_HE.jpg"",""stimuli/BF05_SUR.jpg""]","stimuli/HF09_FO.jpg","stimuli/HF04_CC.jpg","stimuli/HM07_HE.jpg","stimuli/BF05_SUR.jpg","pos3","stimuli/HM07_HE.jpg","HE","HM07","2","4","8","8","stimuli/stars_8.png","236.5","[""FO"",""CC"",""HE"",""SUR""]","[""HF09"",""HF04"",""HM07"",""BF05""]","[6,6,8,3]","[4,6,8,2]","","",""
"show-reward","154","412987","0.0-154.0","p347008","A3N15463MQO5VF","3WPCIUYH1BELQU8EB2L3QVOOKYBTD4","3ZWFC4W1UWD8VJ7COLGZ30LGR2NRFK","emotion","match","uniform","","","","","","","","412298.4000000004","414306.69999999925","","","","","","","","","","","","8","","stimuli/stars_8.png","236.5","","","","","stimuli/HM07_HE.jpg","",""
"explore-choice","155","415471","0.0-155.0","p347008","A3N15463MQO5VF","3WPCIUYH1BELQU8EB2L3QVOOKYBTD4","3ZWFC4W1UWD8VJ7COLGZ30LGR2NRFK","emotion","match","uniform","","","","","","","1974.5","414307.5999999996","416282.0999999996","[""stimuli/HF09_CC.jpg"",""stimuli/HF04_FO.jpg"",""stimuli/HM07_HE.jpg"",""stimuli/BF05_SUR.jpg""]","stimuli/HF09_CC.jpg","stimuli/HF04_FO.jpg","stimuli/HM07_HE.jpg","stimuli/BF05_SUR.jpg","pos3","stimuli/HM07_HE.jpg","HE","HM07","2","3.5","7","8","stimuli/stars_7.png","240","[""CC"",""FO"",""HE"",""SUR""]","[""HF09"",""HF04"",""HM07"",""BF05""]","[8,2,7,2]","[6,4,8,2]","","",""
"show-reward","156","417476","0.0-156.0","p347008","A3N15463MQO5VF","3WPCIUYH1BELQU8EB2L3QVOOKYBTD4","3ZWFC4W1UWD8VJ7COLGZ30LGR2NRFK","emotion","match","uniform","","","","","","","","416791","418795.30000000075","","","","","","","","","","","","7","","stimuli/stars_7.png","240","","","","","stimuli/HM07_HE.jpg","",""
"explore-choice","157","420903","0.0-157.0","p347008","A3N15463MQO5VF","3WPCIUYH1BELQU8EB2L3QVOOKYBTD4","3ZWFC4W1UWD8VJ7COLGZ30LGR2NRFK","emotion","match","uniform","","","","","","","2918.199999999255","418796","421714.19999999925","[""stimuli/HF04_HE.jpg"",""stimuli/HF09_CC.jpg"",""stimuli/BF05_FO.jpg"",""stimuli/HM07_SUR.jpg""]","stimuli/HF04_HE.jpg","stimuli/HF09_CC.jpg","stimuli/BF05_FO.jpg","stimuli/HM07_SUR.jpg","pos1","stimuli/HF04_HE.jpg","HE","HF04","0","3.5","7","8","stimuli/stars_7.png","243.5","[""HE"",""CC"",""FO"",""SUR""]","[""HF04"",""HF09"",""BF05"",""HM07""]","[7,4,5,3]","[8,6,4,2]","","",""
"show-reward","158","422918","0.0-158.0","p347008","A3N15463MQO5VF","3WPCIUYH1BELQU8EB2L3QVOOKYBTD4","3ZWFC4W1UWD8VJ7COLGZ30LGR2NRFK","emotion","match","uniform","","","","","","","","422223.0999999996","424238.19999999925","","","","","","","","","","","","7","","stimuli/stars_7.png","243.5","","","","","stimuli/HF04_HE.jpg","",""
"explore-choice","159","425907","0.0-159.0","p347008","A3N15463MQO5VF","3WPCIUYH1BELQU8EB2L3QVOOKYBTD4","3ZWFC4W1UWD8VJ7COLGZ30LGR2NRFK","emotion","match","uniform","","","","","","","2483.5","424239","426722.5","[""stimuli/HF04_CC.jpg"",""stimuli/HM07_SUR.jpg"",""stimuli/HF09_FO.jpg"",""stimuli/BF05_HE.jpg""]","stimuli/HF04_CC.jpg","stimuli/HM07_SUR.jpg","stimuli/HF09_FO.jpg","stimuli/BF05_HE.jpg","pos4","stimuli/BF05_HE.jpg","HE","BF05","3","4.5","9","8","stimuli/stars_9.png","248","[""CC"",""SUR"",""FO"",""HE""]","[""HF04"",""HM07"",""HF09"",""BF05""]","[5,3,2,9]","[6,2,4,8]","","",""
"show-reward","160","427921","0.0-160.0","p347008","A3N15463MQO5VF","3WPCIUYH1BELQU8EB2L3QVOOKYBTD4","3ZWFC4W1UWD8VJ7COLGZ30LGR2NRFK","emotion","match","uniform","","","","","","","","427227.9000000004","429240.69999999925","","","","","","","","","","","","9","","stimuli/stars_9.png","248","","","","","stimuli/BF05_HE.jpg","",""
"explore-choice","161","431770","0.0-161.0","p347008","A3N15463MQO5VF","3WPCIUYH1BELQU8EB2L3QVOOKYBTD4","3ZWFC4W1UWD8VJ7COLGZ30LGR2NRFK","emotion","match","uniform","","","","","","","3337","429241.30000000075","432578.30000000075","[""stimuli/BF05_FO.jpg"",""stimuli/HM07_SUR.jpg"",""stimuli/HF04_CC.jpg"",""stimuli/HF09_HE.jpg""]","stimuli/BF05_FO.jpg","stimuli/HM07_SUR.jpg","stimuli/HF04_CC.jpg","stimuli/HF09_HE.jpg","pos4","stimuli/HF09_HE.jpg","HE","HF09","3","4.5","9","8","stimuli/stars_9.png","252.5","[""FO"",""SUR"",""CC"",""HE""]","[""BF05"",""HM07"",""HF04"",""HF09""]","[3,4,4,9]","[4,2,6,8]","","",""
"show-reward","162","433773","0.0-162.0","p347008","A3N15463MQO5VF","3WPCIUYH1BELQU8EB2L3QVOOKYBTD4","3ZWFC4W1UWD8VJ7COLGZ30LGR2NRFK","emotion","match","uniform","","","","","","","","433090.4000000004","435092.5999999996","","","","","","","","","","","","9","","stimuli/stars_9.png","252.5","","","","","stimuli/HF09_HE.jpg","",""
"explore-choice","163","436790","0.0-163.0","p347008","A3N15463MQO5VF","3WPCIUYH1BELQU8EB2L3QVOOKYBTD4","3ZWFC4W1UWD8VJ7COLGZ30LGR2NRFK","emotion","match","uniform","","","","","","","2500.699999999255","435093.30000000075","437594","[""stimuli/HF04_FO.jpg"",""stimuli/HF09_SUR.jpg"",""stimuli/BF05_CC.jpg"",""stimuli/HM07_HE.jpg""]","stimuli/HF04_FO.jpg","stimuli/HF09_SUR.jpg","stimuli/BF05_CC.jpg","stimuli/HM07_HE.jpg","pos4","stimuli/HM07_HE.jpg","HE","HM07","3","4","8","8","stimuli/stars_8.png","256.5","[""FO"",""SUR"",""CC"",""HE""]","[""HF04"",""HF09"",""BF05"",""HM07""]","[3,2,8,8]","[4,2,6,8]","","",""
"show-reward","164","438792","0.0-164.0","p347008","A3N15463MQO5VF","3WPCIUYH1BELQU8EB2L3QVOOKYBTD4","3ZWFC4W1UWD8VJ7COLGZ30LGR2NRFK","emotion","match","uniform","","","","","","","","438110.19999999925","440111.4000000004","","","","","","","","","","","","8","","stimuli/stars_8.png","256.5","","","","","stimuli/HM07_HE.jpg","",""
"explore-choice","165","441272","0.0-165.0","p347008","A3N15463MQO5VF","3WPCIUYH1BELQU8EB2L3QVOOKYBTD4","3ZWFC4W1UWD8VJ7COLGZ30LGR2NRFK","emotion","match","uniform","","","","","","","1969.5999999996275","440112.5","442082.0999999996","[""stimuli/HF09_FO.jpg"",""stimuli/BF05_SUR.jpg"",""stimuli/HM07_CC.jpg"",""stimuli/HF04_HE.jpg""]","stimuli/HF09_FO.jpg","stimuli/BF05_SUR.jpg","stimuli/HM07_CC.jpg","stimuli/HF04_HE.jpg","pos4","stimuli/HF04_HE.jpg","HE","HF04","3","3","6","8","stimuli/stars_6.png","259.5","[""FO"",""SUR"",""CC"",""HE""]","[""HF09"",""BF05"",""HM07"",""HF04""]","[6,0,5,6]","[4,2,6,8]","","",""
"show-reward","166","443278","0.0-166.0","p347008","A3N15463MQO5VF","3WPCIUYH1BELQU8EB2L3QVOOKYBTD4","3ZWFC4W1UWD8VJ7COLGZ30LGR2NRFK","emotion","match","uniform","","","","","","","","442592.19999999925","444597.5","","","","","","","","","","","","6","","stimuli/stars_6.png","259.5","","","","","stimuli/HF04_HE.jpg","",""
"explore-choice","167","446479","0.0-167.0","p347008","A3N15463MQO5VF","3WPCIUYH1BELQU8EB2L3QVOOKYBTD4","3ZWFC4W1UWD8VJ7COLGZ30LGR2NRFK","emotion","match","uniform","","","","","","","2691.699999999255","444598.30000000075","447290","[""stimuli/HF04_SUR.jpg"",""stimuli/HM07_FO.jpg"",""stimuli/HF09_HE.jpg"",""stimuli/BF05_CC.jpg""]","stimuli/HF04_SUR.jpg","stimuli/HM07_FO.jpg","stimuli/HF09_HE.jpg","stimuli/BF05_CC.jpg","pos3","stimuli/HF09_HE.jpg","HE","HF09","2","3","6","8","stimuli/stars_6.png","262.5","[""SUR"",""FO"",""HE"",""CC""]","[""HF04"",""HM07"",""HF09"",""BF05""]","[1,4,6,5]","[2,4,8,6]","","",""
"show-reward","168","448497","0.0-168.0","p347008","A3N15463MQO5VF","3WPCIUYH1BELQU8EB2L3QVOOKYBTD4","3ZWFC4W1UWD8VJ7COLGZ30LGR2NRFK","emotion","match","uniform","","","","","","","","447799.30000000075","449816.5999999996","","","","","","","","","","","","6","","stimuli/stars_6.png","262.5","","","","","stimuli/HF09_HE.jpg","",""
"explore-choice","169","450757","0.0-169.0","p347008","A3N15463MQO5VF","3WPCIUYH1BELQU8EB2L3QVOOKYBTD4","3ZWFC4W1UWD8VJ7COLGZ30LGR2NRFK","emotion","match","uniform","","","","","","","1744.800000000745","449817.19999999925","451562","[""stimuli/HF09_FO.jpg"",""stimuli/HF04_SUR.jpg"",""stimuli/HM07_CC.jpg"",""stimuli/BF05_HE.jpg""]","stimuli/HF09_FO.jpg","stimuli/HF04_SUR.jpg","stimuli/HM07_CC.jpg","stimuli/BF05_HE.jpg","pos4","stimuli/BF05_HE.jpg","HE","BF05","3","3","6","8","stimuli/stars_6.png","265.5","[""FO"",""SUR"",""CC"",""HE""]","[""HF09"",""HF04"",""HM07"",""BF05""]","[2,1,7,6]","[4,2,6,8]","","",""
"show-reward","170","452759","0.0-170.0","p347008","A3N15463MQO5VF","3WPCIUYH1BELQU8EB2L3QVOOKYBTD4","3ZWFC4W1UWD8VJ7COLGZ30LGR2NRFK","emotion","match","uniform","","","","","","","","452077.30000000075","454079","","","","","","","","","","","","6","","stimuli/stars_6.png","265.5","","","","","stimuli/BF05_HE.jpg","",""
"explore-choice","171","455814","0.0-171.0","p347008","A3N15463MQO5VF","3WPCIUYH1BELQU8EB2L3QVOOKYBTD4","3ZWFC4W1UWD8VJ7COLGZ30LGR2NRFK","emotion","match","uniform","","","","","","","2546.4000000003725","454079.5999999996","456626","[""stimuli/HF04_CC.jpg"",""stimuli/HM07_FO.jpg"",""stimuli/HF09_HE.jpg"",""stimuli/BF05_SUR.jpg""]","stimuli/HF04_CC.jpg","stimuli/HM07_FO.jpg","stimuli/HF09_HE.jpg","stimuli/BF05_SUR.jpg","pos3","stimuli/HF09_HE.jpg","HE","HF09","2","4.5","9","8","stimuli/stars_9.png","270","[""CC"",""FO"",""HE"",""SUR""]","[""HF04"",""HM07"",""HF09"",""BF05""]","[5,4,9,2]","[6,4,8,2]","","",""
"show-reward","172","457830","0.0-172.0","p347008","A3N15463MQO5VF","3WPCIUYH1BELQU8EB2L3QVOOKYBTD4","3ZWFC4W1UWD8VJ7COLGZ30LGR2NRFK","emotion","match","uniform","","","","","","","","457134.5","459149.9000000004","","","","","","","","","","","","9","","stimuli/stars_9.png","270","","","","","stimuli/HF09_HE.jpg","",""
"explore-choice","173","459723","0.0-173.0","p347008","A3N15463MQO5VF","3WPCIUYH1BELQU8EB2L3QVOOKYBTD4","3ZWFC4W1UWD8VJ7COLGZ30LGR2NRFK","emotion","match","uniform","","","","","","","1379.4000000003725","459150.5999999996","460530","[""stimuli/HF04_CC.jpg"",""stimuli/BF05_HE.jpg"",""stimuli/HM07_FO.jpg"",""stimuli/HF09_SUR.jpg""]","stimuli/HF04_CC.jpg","stimuli/BF05_HE.jpg","stimuli/HM07_FO.jpg","stimuli/HF09_SUR.jpg","pos4","stimuli/HF09_SUR.jpg","SUR","HF09","3","0","0","2","stimuli/stars_0.png","270","[""CC"",""HE"",""FO"",""SUR""]","[""HF04"",""BF05"",""HM07"",""HF09""]","[7,10,4,0]","[6,8,4,2]","","",""
"show-reward","174","461725","0.0-174.0","p347008","A3N15463MQO5VF","3WPCIUYH1BELQU8EB2L3QVOOKYBTD4","3ZWFC4W1UWD8VJ7COLGZ30LGR2NRFK","emotion","match","uniform","","","","","","","","461043.30000000075","463045.19999999925","","","","","","","","","","","","0","","stimuli/stars_0.png","270","","","","","stimuli/HF09_SUR.jpg","",""
"explore-choice","175","465344","0.0-175.0","p347008","A3N15463MQO5VF","3WPCIUYH1BELQU8EB2L3QVOOKYBTD4","3ZWFC4W1UWD8VJ7COLGZ30LGR2NRFK","emotion","match","uniform","","","","","","","3108.0999999996275","463045.80000000075","466153.9000000004","[""stimuli/HF04_SUR.jpg"",""stimuli/BF05_FO.jpg"",""stimuli/HF09_CC.jpg"",""stimuli/HM07_HE.jpg""]","stimuli/HF04_SUR.jpg","stimuli/BF05_FO.jpg","stimuli/HF09_CC.jpg","stimuli/HM07_HE.jpg","pos4","stimuli/HM07_HE.jpg","HE","HM07","3","4.5","9","8","stimuli/stars_9.png","274.5","[""SUR"",""FO"",""CC"",""HE""]","[""HF04"",""BF05"",""HF09"",""HM07""]","[2,4,5,9]","[2,4,6,8]","","",""
"show-reward","176","467359","0.0-176.0","p347008","A3N15463MQO5VF","3WPCIUYH1BELQU8EB2L3QVOOKYBTD4","3ZWFC4W1UWD8VJ7COLGZ30LGR2NRFK","emotion","match","uniform","","","","","","","","466664.30000000075","468679","","","","","","","","","","","","9","","stimuli/stars_9.png","274.5","","","","","stimuli/HM07_HE.jpg","",""
"explore-choice","177","471560","0.0-177.0","p347008","A3N15463MQO5VF","3WPCIUYH1BELQU8EB2L3QVOOKYBTD4","3ZWFC4W1UWD8VJ7COLGZ30LGR2NRFK","emotion","match","uniform","","","","","","","3690.199999999255","468679.80000000075","472370","[""stimuli/HF04_FO.jpg"",""stimuli/HF09_HE.jpg"",""stimuli/HM07_CC.jpg"",""stimuli/BF05_SUR.jpg""]","stimuli/HF04_FO.jpg","stimuli/HF09_HE.jpg","stimuli/HM07_CC.jpg","stimuli/BF05_SUR.jpg","pos2","stimuli/HF09_HE.jpg","HE","HF09","1","3","6","8","stimuli/stars_6.png","277.5","[""FO"",""HE"",""CC"",""SUR""]","[""HF04"",""HF09"",""HM07"",""BF05""]","[3,6,4,2]","[4,8,6,2]","","",""
"show-reward","178","473563","0.0-178.0","p347008","A3N15463MQO5VF","3WPCIUYH1BELQU8EB2L3QVOOKYBTD4","3ZWFC4W1UWD8VJ7COLGZ30LGR2NRFK","emotion","match","uniform","","","","","","","","472880.5","474883.19999999925","","","","","","","","","","","","6","","stimuli/stars_6.png","277.5","","","","","stimuli/HF09_HE.jpg","",""
"explore-choice","179","475824","0.0-179.0","p347008","A3N15463MQO5VF","3WPCIUYH1BELQU8EB2L3QVOOKYBTD4","3ZWFC4W1UWD8VJ7COLGZ30LGR2NRFK","emotion","match","uniform","","","","","","","1750.199999999255","474883.9000000004","476634.0999999996","[""stimuli/HM07_HE.jpg"",""stimuli/HF09_SUR.jpg"",""stimuli/HF04_CC.jpg"",""stimuli/BF05_FO.jpg""]","stimuli/HM07_HE.jpg","stimuli/HF09_SUR.jpg","stimuli/HF04_CC.jpg","stimuli/BF05_FO.jpg","pos1","stimuli/HM07_HE.jpg","HE","HM07","0","3.5","7","8","stimuli/stars_7.png","281","[""HE"",""SUR"",""CC"",""FO""]","[""HM07"",""HF09"",""HF04"",""BF05""]","[7,4,7,2]","[8,2,6,4]","","",""
"show-reward","180","477831","0.0-180.0","p347008","A3N15463MQO5VF","3WPCIUYH1BELQU8EB2L3QVOOKYBTD4","3ZWFC4W1UWD8VJ7COLGZ30LGR2NRFK","emotion","match","uniform","","","","","","","","477144.0999999996","479151.0999999996","","","","","","","","","","","","7","","stimuli/stars_7.png","281","","","","","stimuli/HM07_HE.jpg","",""
"explore-choice","181","480162","0.0-181.0","p347008","A3N15463MQO5VF","3WPCIUYH1BELQU8EB2L3QVOOKYBTD4","3ZWFC4W1UWD8VJ7COLGZ30LGR2NRFK","emotion","match","uniform","","","","","","","1823.0999999996275","479151.80000000075","480974.9000000004","[""stimuli/HF09_SUR.jpg"",""stimuli/HF04_HE.jpg"",""stimuli/BF05_CC.jpg"",""stimuli/HM07_FO.jpg""]","stimuli/HF09_SUR.jpg","stimuli/HF04_HE.jpg","stimuli/BF05_CC.jpg","stimuli/HM07_FO.jpg","pos2","stimuli/HF04_HE.jpg","HE","HF04","1","4","8","8","stimuli/stars_8.png","285","[""SUR"",""HE"",""CC"",""FO""]","[""HF09"",""HF04"",""BF05"",""HM07""]","[0,8,6,3]","[2,8,6,4]","","",""
"show-reward","182","482164","0.0-182.0","p347008","A3N15463MQO5VF","3WPCIUYH1BELQU8EB2L3QVOOKYBTD4","3ZWFC4W1UWD8VJ7COLGZ30LGR2NRFK","emotion","match","uniform","","","","","","","","481482.0999999996","483484.19999999925","","","","","","","","","","","","8","","stimuli/stars_8.png","285","","","","","stimuli/HF04_HE.jpg","",""
"explore-choice","183","486697","0.0-183.0","p347008","A3N15463MQO5VF","3WPCIUYH1BELQU8EB2L3QVOOKYBTD4","3ZWFC4W1UWD8VJ7COLGZ30LGR2NRFK","emotion","match","uniform","","","","","","","4021.199999999255","483484.9000000004","487506.0999999996","[""stimuli/HF09_FO.jpg"",""stimuli/BF05_CC.jpg"",""stimuli/HF04_SUR.jpg"",""stimuli/HM07_HE.jpg""]","stimuli/HF09_FO.jpg","stimuli/BF05_CC.jpg","stimuli/HF04_SUR.jpg","stimuli/HM07_HE.jpg","pos4","stimuli/HM07_HE.jpg","HE","HM07","3","3","6","8","stimuli/stars_6.png","288","[""FO"",""CC"",""SUR"",""HE""]","[""HF09"",""BF05"",""HF04"",""HM07""]","[3,4,0,6]","[4,6,2,8]","","",""
"show-reward","184","488699","0.0-184.0","p347008","A3N15463MQO5VF","3WPCIUYH1BELQU8EB2L3QVOOKYBTD4","3ZWFC4W1UWD8VJ7COLGZ30LGR2NRFK","emotion","match","uniform","","","","","","","","488017.30000000075","490018.30000000075","","","","","","","","","","","","6","","stimuli/stars_6.png","288","","","","","stimuli/HM07_HE.jpg","",""
"explore-choice","185","491694","0.0-185.0","p347008","A3N15463MQO5VF","3WPCIUYH1BELQU8EB2L3QVOOKYBTD4","3ZWFC4W1UWD8VJ7COLGZ30LGR2NRFK","emotion","match","uniform","","","","","","","2487.0999999996275","490018.9000000004","492506","[""stimuli/HF04_HE.jpg"",""stimuli/HF09_FO.jpg"",""stimuli/BF05_CC.jpg"",""stimuli/HM07_SUR.jpg""]","stimuli/HF04_HE.jpg","stimuli/HF09_FO.jpg","stimuli/BF05_CC.jpg","stimuli/HM07_SUR.jpg","pos1","stimuli/HF04_HE.jpg","HE","HF04","0","3.5","7","8","stimuli/stars_7.png","291.5","[""HE"",""FO"",""CC"",""SUR""]","[""HF04"",""HF09"",""BF05"",""HM07""]","[7,3,7,0]","[8,4,6,2]","","",""
"show-reward","186","493709","0.0-186.0","p347008","A3N15463MQO5VF","3WPCIUYH1BELQU8EB2L3QVOOKYBTD4","3ZWFC4W1UWD8VJ7COLGZ30LGR2NRFK","emotion","match","uniform","","","","","","","","493015","495028.5999999996","","","","","","","","","","","","7","","stimuli/stars_7.png","291.5","","","","","stimuli/HF04_HE.jpg","",""
"explore-choice","187","496449","0.0-187.0","p347008","A3N15463MQO5VF","3WPCIUYH1BELQU8EB2L3QVOOKYBTD4","3ZWFC4W1UWD8VJ7COLGZ30LGR2NRFK","emotion","match","uniform","","","","","","","2236.699999999255","495029.30000000075","497266","[""stimuli/HF04_SUR.jpg"",""stimuli/HM07_CC.jpg"",""stimuli/HF09_HE.jpg"",""stimuli/BF05_FO.jpg""]","stimuli/HF04_SUR.jpg","stimuli/HM07_CC.jpg","stimuli/HF09_HE.jpg","stimuli/BF05_FO.jpg","pos1","stimuli/HF04_SUR.jpg","SUR","HF04","0","1","2","2","stimuli/stars_2.png","292.5","[""SUR"",""CC"",""HE"",""FO""]","[""HF04"",""HM07"",""HF09"",""BF05""]","[2,6,8,6]","[2,6,8,4]","","",""
"show-reward","188","498462","0.0-188.0","p347008","A3N15463MQO5VF","3WPCIUYH1BELQU8EB2L3QVOOKYBTD4","3ZWFC4W1UWD8VJ7COLGZ30LGR2NRFK","emotion","match","uniform","","","","","","","","497769.0999999996","499781.80000000075","","","","","","","","","","","","2","","stimuli/stars_2.png","292.5","","","","","stimuli/HF04_SUR.jpg","",""
"explore-choice","189","500819","0.0-189.0","p347008","A3N15463MQO5VF","3WPCIUYH1BELQU8EB2L3QVOOKYBTD4","3ZWFC4W1UWD8VJ7COLGZ30LGR2NRFK","emotion","match","uniform","","","","","","","1843.199999999255","499782.80000000075","501626","[""stimuli/HM07_CC.jpg"",""stimuli/HF04_HE.jpg"",""stimuli/BF05_FO.jpg"",""stimuli/HF09_SUR.jpg""]","stimuli/HM07_CC.jpg","stimuli/HF04_HE.jpg","stimuli/BF05_FO.jpg","stimuli/HF09_SUR.jpg","pos4","stimuli/HF09_SUR.jpg","SUR","HF09","3","0.5","1","2","stimuli/stars_1.png","293","[""CC"",""HE"",""FO"",""SUR""]","[""HM07"",""HF04"",""BF05"",""HF09""]","[7,9,3,1]","[6,8,4,2]","","",""
"show-reward","190","502825","0.0-190.0","p347008","A3N15463MQO5VF","3WPCIUYH1BELQU8EB2L3QVOOKYBTD4","3ZWFC4W1UWD8VJ7COLGZ30LGR2NRFK","emotion","match","uniform","","","","","","","","502139.5999999996","504145","","","","","","","","","","","","1","","stimuli/stars_1.png","293","","","","","stimuli/HF09_SUR.jpg","",""
"explore-choice","191","504601","0.0-191.0","p347008","A3N15463MQO5VF","3WPCIUYH1BELQU8EB2L3QVOOKYBTD4","3ZWFC4W1UWD8VJ7COLGZ30LGR2NRFK","emotion","match","uniform","","","","","","","1271.9000000003725","504146","505417.9000000004","[""stimuli/HF04_FO.jpg"",""stimuli/HF09_CC.jpg"",""stimuli/HM07_SUR.jpg"",""stimuli/BF05_HE.jpg""]","stimuli/HF04_FO.jpg","stimuli/HF09_CC.jpg","stimuli/HM07_SUR.jpg","stimuli/BF05_HE.jpg","pos4","stimuli/BF05_HE.jpg","HE","BF05","3","5","10","8","stimuli/stars_10.png","298","[""FO"",""CC"",""SUR"",""HE""]","[""HF04"",""HF09"",""HM07"",""BF05""]","[4,7,4,10]","[4,6,2,8]","","",""
"show-reward","192","506603","0.0-192.0","p347008","A3N15463MQO5VF","3WPCIUYH1BELQU8EB2L3QVOOKYBTD4","3ZWFC4W1UWD8VJ7COLGZ30LGR2NRFK","emotion","match","uniform","","","","","","","","505921.19999999925","507922.80000000075","","","","","","","","","","","","10","","stimuli/stars_10.png","298","","","","","stimuli/BF05_HE.jpg","",""
"explore-choice","193","511143","0.0-193.0","p347008","A3N15463MQO5VF","3WPCIUYH1BELQU8EB2L3QVOOKYBTD4","3ZWFC4W1UWD8VJ7COLGZ30LGR2NRFK","emotion","match","uniform","","","","","","","4030.2999999988824","507923.4000000004","511953.69999999925","[""stimuli/HF09_SUR.jpg"",""stimuli/HF04_FO.jpg"",""stimuli/BF05_HE.jpg"",""stimuli/HM07_CC.jpg""]","stimuli/HF09_SUR.jpg","stimuli/HF04_FO.jpg","stimuli/BF05_HE.jpg","stimuli/HM07_CC.jpg","pos3","stimuli/BF05_HE.jpg","HE","BF05","2","4","8","8","stimuli/stars_8.png","302","[""SUR"",""FO"",""HE"",""CC""]","[""HF09"",""HF04"",""BF05"",""HM07""]","[2,4,8,4]","[2,4,8,6]","","",""
"show-reward","194","513158","0.0-194.0","p347008","A3N15463MQO5VF","3WPCIUYH1BELQU8EB2L3QVOOKYBTD4","3ZWFC4W1UWD8VJ7COLGZ30LGR2NRFK","emotion","match","uniform","","","","","","","","512463.30000000075","514477.5999999996","","","","","","","","","","","","8","","stimuli/stars_8.png","302","","","","","stimuli/BF05_HE.jpg","",""
"explore-choice","195","516136","0.0-195.0","p347008","A3N15463MQO5VF","3WPCIUYH1BELQU8EB2L3QVOOKYBTD4","3ZWFC4W1UWD8VJ7COLGZ30LGR2NRFK","emotion","match","uniform","","","","","","","2475.300000000745","514478.69999999925","516954","[""stimuli/HF09_HE.jpg"",""stimuli/HF04_FO.jpg"",""stimuli/BF05_CC.jpg"",""stimuli/HM07_SUR.jpg""]","stimuli/HF09_HE.jpg","stimuli/HF04_FO.jpg","stimuli/BF05_CC.jpg","stimuli/HM07_SUR.jpg","pos1","stimuli/HF09_HE.jpg","HE","HF09","0","4","8","8","stimuli/stars_8.png","306","[""HE"",""FO"",""CC"",""SUR""]","[""HF09"",""HF04"",""BF05"",""HM07""]","[8,4,8,2]","[8,4,6,2]","","",""
"show-reward","196","518142","0.0-196.0","p347008","A3N15463MQO5VF","3WPCIUYH1BELQU8EB2L3QVOOKYBTD4","3ZWFC4W1UWD8VJ7COLGZ30LGR2NRFK","emotion","match","uniform","","","","","","","","517456.5","519461.9000000004","","","","","","","","","","","","8","","stimuli/stars_8.png","306","","","","","stimuli/HF09_HE.jpg","",""
"explore-choice","197","520862","0.0-197.0","p347008","A3N15463MQO5VF","3WPCIUYH1BELQU8EB2L3QVOOKYBTD4","3ZWFC4W1UWD8VJ7COLGZ30LGR2NRFK","emotion","match","uniform","","","","","","","2203.4000000003725","519462.5999999996","521666","[""stimuli/BF05_SUR.jpg"",""stimuli/HF04_HE.jpg"",""stimuli/HF09_CC.jpg"",""stimuli/HM07_FO.jpg""]","stimuli/BF05_SUR.jpg","stimuli/HF04_HE.jpg","stimuli/HF09_CC.jpg","stimuli/HM07_FO.jpg","pos2","stimuli/HF04_HE.jpg","HE","HF04","1","4.5","9","8","stimuli/stars_9.png","310.5","[""SUR"",""HE"",""CC"",""FO""]","[""BF05"",""HF04"",""HF09"",""HM07""]","[1,9,6,5]","[2,8,6,4]","","",""
"show-reward","198","522878","0.0-198.0","p347008","A3N15463MQO5VF","3WPCIUYH1BELQU8EB2L3QVOOKYBTD4","3ZWFC4W1UWD8VJ7COLGZ30LGR2NRFK","emotion","match","uniform","","","","","","","","522182.5","524198.0999999996","","","","","","","","","","","","9","","stimuli/stars_9.png","310.5","","","","","stimuli/HF04_HE.jpg","",""
"instructions","199","531027","0.0-199.0","p347008","A3N15463MQO5VF","3WPCIUYH1BELQU8EB2L3QVOOKYBTD4","3ZWFC4W1UWD8VJ7COLGZ30LGR2NRFK","emotion","match","uniform","","","","","","[{""page_index"":0,""viewing_time"":8147}]","8147.5","","","","","","","","","","","","","","","","","","","","","","","",""
"survey-text","200","536691","0.0-200.0-0.0","p347008","A3N15463MQO5VF","3WPCIUYH1BELQU8EB2L3QVOOKYBTD4","3ZWFC4W1UWD8VJ7COLGZ30LGR2NRFK","emotion","match","uniform","","","","","","","5661.39999999851","","","","","","","","","","","","","","","","","","","","","","","{""age"":""43""}",""
"survey-text","201","542066","0.0-200.0-1.0","p347008","A3N15463MQO5VF","3WPCIUYH1BELQU8EB2L3QVOOKYBTD4","3ZWFC4W1UWD8VJ7COLGZ30LGR2NRFK","emotion","match","uniform","","","","","","","5373.699999999255","","","","","","","","","","","","","","","","","","","","","","","{""gender"":""Female""}",""
"survey-text","202","548298","0.0-200.0-2.0","p347008","A3N15463MQO5VF","3WPCIUYH1BELQU8EB2L3QVOOKYBTD4","3ZWFC4W1UWD8VJ7COLGZ30LGR2NRFK","emotion","match","uniform","","","","","","","6229.699999999255","","","","","","","","","","","","","","","","","","","","","","","{""country"":""United States""}",""
"survey-text","203","564634","0.0-200.0-3.0","p347008","A3N15463MQO5VF","3WPCIUYH1BELQU8EB2L3QVOOKYBTD4","3ZWFC4W1UWD8VJ7COLGZ30LGR2NRFK","emotion","match","uniform","","","","","","","16334","","","","","","","","","","","","","","","","","","","","","","","{""language"":""English"",""other_languages"":""Spanish""}",""
"survey-multi-select","204","567931","0.0-201.0","p347008","A3N15463MQO5VF","3WPCIUYH1BELQU8EB2L3QVOOKYBTD4","3ZWFC4W1UWD8VJ7COLGZ30LGR2NRFK","emotion","match","uniform","","","","","","","3292.699999999255","","","","","","","","","","","","","","","","","","","","","","","{""race"":[""Hispanic or Latino""]}","[0]"
"survey-multi-choice","205","570882","0.0-202.0","p347008","A3N15463MQO5VF","3WPCIUYH1BELQU8EB2L3QVOOKYBTD4","3ZWFC4W1UWD8VJ7COLGZ30LGR2NRFK","emotion","match","uniform","","","","","","","2950.0999999996275","","","","","","","","","","","","","","","","","","","","","","","{""education"":""Bachelor's degree""}","[0]"
"survey-text","206","658986","0.0-203.0","p347008","A3N15463MQO5VF","3WPCIUYH1BELQU8EB2L3QVOOKYBTD4","3ZWFC4W1UWD8VJ7COLGZ30LGR2NRFK","emotion","match","uniform","","","","","","","88101","","","","","","","","","","","","","","","","","","","","","","","{""patterns"":""The first part of the game the faces that looked the most aggressive gave the most stars. In the second part of the game, the faces that looked the happiest, gave the most stars."",""strategy"":""In the first part of the game, I looked for the face with that looked mad and the second part, I looked for the face that looked happy."",""comments"":""""}",""
