"trial_type","trial_index","time_elapsed","internal_node_id","subject","workerId","hitId","assignmentId","structure_condition","match_condition","noise_type","success","timeout","failed_images","failed_audio","failed_video","view_history","rt","start_time","end_time","stimuli","image1","image2","image3","image4","choiceLocation","choiceImage","choiceEmotion","choiceModel","choice_index","reward_score","reward","reward_score_unadjusted","reward_image","score_after_trial","emotions","models","rewards","rewards_unadjusted","stimulus","response","question_order"
"pavlovia","0","9","0.0-0.0","p995631","A3UUH3632AI3ZX","3RDTX9JRTZ7MP6YQMJD0Z3DG4HK978","32SVAV9L3HFLGQ522FTB7179OAM3AB","emotion","match","uniform","","","","","","","","","","","","","","","","","","","","","","","","","","","","","","",""
"preload","1","6403","0.0-1.0","p995631","A3UUH3632AI3ZX","3RDTX9JRTZ7MP6YQMJD0Z3DG4HK978","32SVAV9L3HFLGQ522FTB7179OAM3AB","emotion","match","uniform","true","false","[]","[]","[]","","","","","","","","","","","","","","","","","","","","","","","","","",""
"fullscreen","2","98464","0.0-2.0","p995631","A3UUH3632AI3ZX","3RDTX9JRTZ7MP6YQMJD0Z3DG4HK978","32SVAV9L3HFLGQ522FTB7179OAM3AB","emotion","match","uniform","true","","","","","","","","","","","","","","","","","","","","","","","","","","","","","",""
"instructions","3","100386","0.0-3.0","p995631","A3UUH3632AI3ZX","3RDTX9JRTZ7MP6YQMJD0Z3DG4HK978","32SVAV9L3HFLGQ522FTB7179OAM3AB","emotion","match","uniform","","","","","","[{""page_index"":0,""viewing_time"":1921.4000000953674}]","1921.6000000238419","","","","","","","","","","","","","","","","","","","","","","","",""
"explore-choice","4","102959","0.0-4.0","p995631","A3UUH3632AI3ZX","3RDTX9JRTZ7MP6YQMJD0Z3DG4HK978","32SVAV9L3HFLGQ522FTB7179OAM3AB","emotion","match","uniform","","","","","","","2071.2000000476837","102233","104304.20000004768","[""stimuli/sheep.jpg"",""stimuli/hammer.jpg"",""stimuli/basketball.jpg"",""stimuli/horse.jpg""]","stimuli/sheep.jpg","stimuli/hammer.jpg","stimuli/basketball.jpg","stimuli/horse.jpg","pos4","stimuli/horse.jpg","","","3","64","64","64","stimuli/stars_8.png","65","","","","","","",""
"explore-choice","5","104698","0.0-5.0","p995631","A3UUH3632AI3ZX","3RDTX9JRTZ7MP6YQMJD0Z3DG4HK978","32SVAV9L3HFLGQ522FTB7179OAM3AB","emotion","match","uniform","","","","","","","1237.7999999523163","104805.70000004768","106043.5","[""stimuli/hammer.jpg"",""stimuli/basketball.jpg"",""stimuli/horse.jpg"",""stimuli/sheep.jpg""]","stimuli/hammer.jpg","stimuli/basketball.jpg","stimuli/horse.jpg","stimuli/sheep.jpg","pos1","stimuli/hammer.jpg","","","0","8","8","8","stimuli/stars_2.png","9","","","","","","",""
"instructions","6","109839","0.0-6.0","p995631","A3UUH3632AI3ZX","3RDTX9JRTZ7MP6YQMJD0Z3DG4HK978","32SVAV9L3HFLGQ522FTB7179OAM3AB","emotion","match","uniform","","","","","","[{""page_index"":0,""viewing_time"":5140.5}]","5140.600000023842","","","","","","","","","","","","","","","","","","","","","","","",""
"explore-choice","7","115079","0.0-7.0","p995631","A3UUH3632AI3ZX","3RDTX9JRTZ7MP6YQMJD0Z3DG4HK978","32SVAV9L3HFLGQ522FTB7179OAM3AB","emotion","match","uniform","","","","","","","4737.5","111686","116423.5","[""stimuli/BM03_FO.jpg"",""stimuli/BM07_HE.jpg"",""stimuli/AM03_CC.jpg"",""stimuli/HM02_HO.jpg""]","stimuli/BM03_FO.jpg","stimuli/BM07_HE.jpg","stimuli/AM03_CC.jpg","stimuli/HM02_HO.jpg","pos2","stimuli/BM07_HE.jpg","HE","BM07","1","0","0","2","stimuli/stars_0.png","1","[""FO"",""HE"",""CC"",""HO""]","[""BM03"",""BM07"",""AM03"",""HM02""]","[10,0,8,3]","[8,2,6,4]","","",""
"show-reward","8","117087","0.0-8.0","p995631","A3UUH3632AI3ZX","3RDTX9JRTZ7MP6YQMJD0Z3DG4HK978","32SVAV9L3HFLGQ522FTB7179OAM3AB","emotion","match","uniform","","","","","","","","116926.60000002384","118932.5","","","","","","","","","","","","0","","stimuli/stars_0.png","1","","","","","stimuli/BM07_HE.jpg","",""
"explore-choice","9","117750","0.0-9.0","p995631","A3UUH3632AI3ZX","3RDTX9JRTZ7MP6YQMJD0Z3DG4HK978","32SVAV9L3HFLGQ522FTB7179OAM3AB","emotion","match","uniform","","","","","","","159.89999997615814","118934.30000007153","119094.20000004768","[""stimuli/BM07_CC.jpg"",""stimuli/AM03_HE.jpg"",""stimuli/BM03_HO.jpg"",""stimuli/HM02_FO.jpg""]","stimuli/BM07_CC.jpg","stimuli/AM03_HE.jpg","stimuli/BM03_HO.jpg","stimuli/HM02_FO.jpg","pos1","stimuli/BM07_CC.jpg","CC","BM07","0","4","8","6","stimuli/stars_8.png","5","[""CC"",""HE"",""HO"",""FO""]","[""BM07"",""AM03"",""BM03"",""HM02""]","[8,1,5,8]","[6,2,4,8]","","",""
"show-reward","10","119763","0.0-10.0","p995631","A3UUH3632AI3ZX","3RDTX9JRTZ7MP6YQMJD0Z3DG4HK978","32SVAV9L3HFLGQ522FTB7179OAM3AB","emotion","match","uniform","","","","","","","","119596.5","121609","","","","","","","","","","","","8","","stimuli/stars_8.png","5","","","","","stimuli/BM07_CC.jpg","",""
"explore-choice","11","122612","0.0-11.0","p995631","A3UUH3632AI3ZX","3RDTX9JRTZ7MP6YQMJD0Z3DG4HK978","32SVAV9L3HFLGQ522FTB7179OAM3AB","emotion","match","uniform","","","","","","","2345.7000000476837","121609.60000002384","123955.30000007153","[""stimuli/HM02_CC.jpg"",""stimuli/BM07_HO.jpg"",""stimuli/AM03_FO.jpg"",""stimuli/BM03_HE.jpg""]","stimuli/HM02_CC.jpg","stimuli/BM07_HO.jpg","stimuli/AM03_FO.jpg","stimuli/BM03_HE.jpg","pos1","stimuli/HM02_CC.jpg","CC","HM02","0","4","8","6","stimuli/stars_8.png","9","[""CC"",""HO"",""FO"",""HE""]","[""HM02"",""BM07"",""AM03"",""BM03""]","[8,3,6,3]","[6,4,8,2]","","",""
"show-reward","12","124615","0.0-12.0","p995631","A3UUH3632AI3ZX","3RDTX9JRTZ7MP6YQMJD0Z3DG4HK978","32SVAV9L3HFLGQ522FTB7179OAM3AB","emotion","match","uniform","","","","","","","","124458.89999997616","126460.80000007153","","","","","","","","","","","","8","","stimuli/stars_8.png","9","","","","","stimuli/HM02_CC.jpg","",""
"explore-choice","13","127038","0.0-13.0","p995631","A3UUH3632AI3ZX","3RDTX9JRTZ7MP6YQMJD0Z3DG4HK978","32SVAV9L3HFLGQ522FTB7179OAM3AB","emotion","match","uniform","","","","","","","1917.6000000238419","126461.20000004768","128378.80000007153","[""stimuli/BM03_HO.jpg"",""stimuli/HM02_HE.jpg"",""stimuli/AM03_CC.jpg"",""stimuli/BM07_FO.jpg""]","stimuli/BM03_HO.jpg","stimuli/HM02_HE.jpg","stimuli/AM03_CC.jpg","stimuli/BM07_FO.jpg","pos4","stimuli/BM07_FO.jpg","FO","BM07","3","3.5","7","8","stimuli/stars_7.png","12.5","[""HO"",""HE"",""CC"",""FO""]","[""BM03"",""HM02"",""AM03"",""BM07""]","[3,1,6,7]","[4,2,6,8]","","",""
"show-reward","14","129044","0.0-14.0","p995631","A3UUH3632AI3ZX","3RDTX9JRTZ7MP6YQMJD0Z3DG4HK978","32SVAV9L3HFLGQ522FTB7179OAM3AB","emotion","match","uniform","","","","","","","","128885.60000002384","130890.30000007153","","","","","","","","","","","","7","","stimuli/stars_7.png","12.5","","","","","stimuli/BM07_FO.jpg","",""
"explore-choice","15","131297","0.0-15.0","p995631","A3UUH3632AI3ZX","3RDTX9JRTZ7MP6YQMJD0Z3DG4HK978","32SVAV9L3HFLGQ522FTB7179OAM3AB","emotion","match","uniform","","","","","","","1743.3999999761581","130890.80000007153","132634.20000004768","[""stimuli/HM02_CC.jpg"",""stimuli/BM07_FO.jpg"",""stimuli/BM03_HO.jpg"",""stimuli/AM03_HE.jpg""]","stimuli/HM02_CC.jpg","stimuli/BM07_FO.jpg","stimuli/BM03_HO.jpg","stimuli/AM03_HE.jpg","pos1","stimuli/HM02_CC.jpg","CC","HM02","0","3","6","6","stimuli/stars_6.png","15.5","[""CC"",""FO"",""HO"",""HE""]","[""HM02"",""BM07"",""BM03"",""AM03""]","[6,6,4,0]","[6,8,4,2]","","",""
"show-reward","16","133299","0.0-16.0","p995631","A3UUH3632AI3ZX","3RDTX9JRTZ7MP6YQMJD0Z3DG4HK978","32SVAV9L3HFLGQ522FTB7179OAM3AB","emotion","match","uniform","","","","","","","","133143.5","135144.70000004768","","","","","","","","","","","","6","","stimuli/stars_6.png","15.5","","","","","stimuli/HM02_CC.jpg","",""
"explore-choice","17","134793","0.0-17.0","p995631","A3UUH3632AI3ZX","3RDTX9JRTZ7MP6YQMJD0Z3DG4HK978","32SVAV9L3HFLGQ522FTB7179OAM3AB","emotion","match","uniform","","","","","","","992.7000000476837","135145.5","136138.20000004768","[""stimuli/BM03_HE.jpg"",""stimuli/HM02_FO.jpg"",""stimuli/AM03_HO.jpg"",""stimuli/BM07_CC.jpg""]","stimuli/BM03_HE.jpg","stimuli/HM02_FO.jpg","stimuli/AM03_HO.jpg","stimuli/BM07_CC.jpg","pos4","stimuli/BM07_CC.jpg","CC","BM07","3","2","4","6","stimuli/stars_4.png","17.5","[""HE"",""FO"",""HO"",""CC""]","[""BM03"",""HM02"",""AM03"",""BM07""]","[3,7,6,4]","[2,8,4,6]","","",""
"show-reward","18","136795","0.0-18.0","p995631","A3UUH3632AI3ZX","3RDTX9JRTZ7MP6YQMJD0Z3DG4HK978","32SVAV9L3HFLGQ522FTB7179OAM3AB","emotion","match","uniform","","","","","","","","136639.30000007153","138641.39999997616","","","","","","","","","","","","4","","stimuli/stars_4.png","17.5","","","","","stimuli/BM07_CC.jpg","",""
"explore-choice","19","140172","0.0-19.0","p995631","A3UUH3632AI3ZX","3RDTX9JRTZ7MP6YQMJD0Z3DG4HK978","32SVAV9L3HFLGQ522FTB7179OAM3AB","emotion","match","uniform","","","","","","","2874.399999976158","138642","141516.39999997616","[""stimuli/BM03_HO.jpg"",""stimuli/AM03_CC.jpg"",""stimuli/HM02_FO.jpg"",""stimuli/BM07_HE.jpg""]","stimuli/BM03_HO.jpg","stimuli/AM03_CC.jpg","stimuli/HM02_FO.jpg","stimuli/BM07_HE.jpg","pos2","stimuli/AM03_CC.jpg","CC","AM03","1","3.5","7","6","stimuli/stars_7.png","21","[""HO"",""CC"",""FO"",""HE""]","[""BM03"",""AM03"",""HM02"",""BM07""]","[5,7,6,1]","[4,6,8,2]","","",""
"show-reward","20","142175","0.0-20.0","p995631","A3UUH3632AI3ZX","3RDTX9JRTZ7MP6YQMJD0Z3DG4HK978","32SVAV9L3HFLGQ522FTB7179OAM3AB","emotion","match","uniform","","","","","","","","142018.20000004768","144020.80000007153","","","","","","","","","","","","7","","stimuli/stars_7.png","21","","","","","stimuli/AM03_CC.jpg","",""
"explore-choice","21","143830","0.0-21.0","p995631","A3UUH3632AI3ZX","3RDTX9JRTZ7MP6YQMJD0Z3DG4HK978","32SVAV9L3HFLGQ522FTB7179OAM3AB","emotion","match","uniform","","","","","","","1154.3999999761581","144021.20000004768","145175.60000002384","[""stimuli/BM03_CC.jpg"",""stimuli/HM02_HO.jpg"",""stimuli/AM03_HE.jpg"",""stimuli/BM07_FO.jpg""]","stimuli/BM03_CC.jpg","stimuli/HM02_HO.jpg","stimuli/AM03_HE.jpg","stimuli/BM07_FO.jpg","pos1","stimuli/BM03_CC.jpg","CC","BM03","0","2.5","5","6","stimuli/stars_5.png","23.5","[""CC"",""HO"",""HE"",""FO""]","[""BM03"",""HM02"",""AM03"",""BM07""]","[5,5,0,7]","[6,4,2,8]","","",""
"show-reward","22","145841","0.0-22.0","p995631","A3UUH3632AI3ZX","3RDTX9JRTZ7MP6YQMJD0Z3DG4HK978","32SVAV9L3HFLGQ522FTB7179OAM3AB","emotion","match","uniform","","","","","","","","145676.60000002384","147686.5","","","","","","","","","","","","5","","stimuli/stars_5.png","23.5","","","","","stimuli/BM03_CC.jpg","",""
"explore-choice","23","148337","0.0-23.0","p995631","A3UUH3632AI3ZX","3RDTX9JRTZ7MP6YQMJD0Z3DG4HK978","32SVAV9L3HFLGQ522FTB7179OAM3AB","emotion","match","uniform","","","","","","","1994.5","147687.89999997616","149682.39999997616","[""stimuli/BM03_CC.jpg"",""stimuli/HM02_HO.jpg"",""stimuli/BM07_HE.jpg"",""stimuli/AM03_FO.jpg""]","stimuli/BM03_CC.jpg","stimuli/HM02_HO.jpg","stimuli/BM07_HE.jpg","stimuli/AM03_FO.jpg","pos1","stimuli/BM03_CC.jpg","CC","BM03","0","3","6","6","stimuli/stars_6.png","26.5","[""CC"",""HO"",""HE"",""FO""]","[""BM03"",""HM02"",""BM07"",""AM03""]","[6,5,4,8]","[6,4,2,8]","","",""
"show-reward","24","150354","0.0-24.0","p995631","A3UUH3632AI3ZX","3RDTX9JRTZ7MP6YQMJD0Z3DG4HK978","32SVAV9L3HFLGQ522FTB7179OAM3AB","emotion","match","uniform","","","","","","","","150184.5","152200.30000007153","","","","","","","","","","","","6","","stimuli/stars_6.png","26.5","","","","","stimuli/BM03_CC.jpg","",""
"explore-choice","25","152343","0.0-25.0","p995631","A3UUH3632AI3ZX","3RDTX9JRTZ7MP6YQMJD0Z3DG4HK978","32SVAV9L3HFLGQ522FTB7179OAM3AB","emotion","match","uniform","","","","","","","1487.8999999761581","152200.70000004768","153688.60000002384","[""stimuli/BM07_FO.jpg"",""stimuli/BM03_HE.jpg"",""stimuli/AM03_CC.jpg"",""stimuli/HM02_HO.jpg""]","stimuli/BM07_FO.jpg","stimuli/BM03_HE.jpg","stimuli/AM03_CC.jpg","stimuli/HM02_HO.jpg","pos3","stimuli/AM03_CC.jpg","CC","AM03","2","3","6","6","stimuli/stars_6.png","29.5","[""FO"",""HE"",""CC"",""HO""]","[""BM07"",""BM03"",""AM03"",""HM02""]","[10,3,6,5]","[8,2,6,4]","","",""
"show-reward","26","154345","0.0-26.0","p995631","A3UUH3632AI3ZX","3RDTX9JRTZ7MP6YQMJD0Z3DG4HK978","32SVAV9L3HFLGQ522FTB7179OAM3AB","emotion","match","uniform","","","","","","","","154189.5","156190.60000002384","","","","","","","","","","","","6","","stimuli/stars_6.png","29.5","","","","","stimuli/AM03_CC.jpg","",""
"explore-choice","27","156568","0.0-27.0","p995631","A3UUH3632AI3ZX","3RDTX9JRTZ7MP6YQMJD0Z3DG4HK978","32SVAV9L3HFLGQ522FTB7179OAM3AB","emotion","match","uniform","","","","","","","1722.7000000476837","156191","157913.70000004768","[""stimuli/HM02_HO.jpg"",""stimuli/AM03_HE.jpg"",""stimuli/BM07_CC.jpg"",""stimuli/BM03_FO.jpg""]","stimuli/HM02_HO.jpg","stimuli/AM03_HE.jpg","stimuli/BM07_CC.jpg","stimuli/BM03_FO.jpg","pos3","stimuli/BM07_CC.jpg","CC","BM07","2","2","4","6","stimuli/stars_4.png","31.5","[""HO"",""HE"",""CC"",""FO""]","[""HM02"",""AM03"",""BM07"",""BM03""]","[3,3,4,7]","[4,2,6,8]","","",""
"show-reward","28","158575","0.0-28.0","p995631","A3UUH3632AI3ZX","3RDTX9JRTZ7MP6YQMJD0Z3DG4HK978","32SVAV9L3HFLGQ522FTB7179OAM3AB","emotion","match","uniform","","","","","","","","158414.10000002384","160421","","","","","","","","","","","","4","","stimuli/stars_4.png","31.5","","","","","stimuli/BM07_CC.jpg","",""
"explore-choice","29","160646","0.0-29.0","p995631","A3UUH3632AI3ZX","3RDTX9JRTZ7MP6YQMJD0Z3DG4HK978","32SVAV9L3HFLGQ522FTB7179OAM3AB","emotion","match","uniform","","","","","","","1568.5","160422.5","161991","[""stimuli/BM03_HE.jpg"",""stimuli/HM02_HO.jpg"",""stimuli/AM03_FO.jpg"",""stimuli/BM07_CC.jpg""]","stimuli/BM03_HE.jpg","stimuli/HM02_HO.jpg","stimuli/AM03_FO.jpg","stimuli/BM07_CC.jpg","pos4","stimuli/BM07_CC.jpg","CC","BM07","3","3.5","7","6","stimuli/stars_7.png","35","[""HE"",""HO"",""FO"",""CC""]","[""BM03"",""HM02"",""AM03"",""BM07""]","[3,6,9,7]","[2,4,8,6]","","",""
"show-reward","30","162648","0.0-30.0","p995631","A3UUH3632AI3ZX","3RDTX9JRTZ7MP6YQMJD0Z3DG4HK978","32SVAV9L3HFLGQ522FTB7179OAM3AB","emotion","match","uniform","","","","","","","","162492.60000002384","164494.10000002384","","","","","","","","","","","","7","","stimuli/stars_7.png","35","","","","","stimuli/BM07_CC.jpg","",""
"explore-choice","31","164235","0.0-31.0","p995631","A3UUH3632AI3ZX","3RDTX9JRTZ7MP6YQMJD0Z3DG4HK978","32SVAV9L3HFLGQ522FTB7179OAM3AB","emotion","match","uniform","","","","","","","1085.6000000238419","164494.70000004768","165580.30000007153","[""stimuli/HM02_FO.jpg"",""stimuli/BM07_HO.jpg"",""stimuli/AM03_HE.jpg"",""stimuli/BM03_CC.jpg""]","stimuli/HM02_FO.jpg","stimuli/BM07_HO.jpg","stimuli/AM03_HE.jpg","stimuli/BM03_CC.jpg","pos4","stimuli/BM03_CC.jpg","CC","BM03","3","4","8","6","stimuli/stars_8.png","39","[""FO"",""HO"",""HE"",""CC""]","[""HM02"",""BM07"",""AM03"",""BM03""]","[6,5,1,8]","[8,4,2,6]","","",""
"show-reward","32","166238","0.0-32.0","p995631","A3UUH3632AI3ZX","3RDTX9JRTZ7MP6YQMJD0Z3DG4HK978","32SVAV9L3HFLGQ522FTB7179OAM3AB","emotion","match","uniform","","","","","","","","166081.60000002384","168084","","","","","","","","","","","","8","","stimuli/stars_8.png","39","","","","","stimuli/BM03_CC.jpg","",""
"explore-choice","33","169759","0.0-33.0","p995631","A3UUH3632AI3ZX","3RDTX9JRTZ7MP6YQMJD0Z3DG4HK978","32SVAV9L3HFLGQ522FTB7179OAM3AB","emotion","match","uniform","","","","","","","3018.5","168085.60000002384","171104.10000002384","[""stimuli/HM02_CC.jpg"",""stimuli/AM03_HE.jpg"",""stimuli/BM07_HO.jpg"",""stimuli/BM03_FO.jpg""]","stimuli/HM02_CC.jpg","stimuli/AM03_HE.jpg","stimuli/BM07_HO.jpg","stimuli/BM03_FO.jpg","pos1","stimuli/HM02_CC.jpg","CC","HM02","0","4","8","6","stimuli/stars_8.png","43","[""CC"",""HE"",""HO"",""FO""]","[""HM02"",""AM03"",""BM07"",""BM03""]","[8,1,6,7]","[6,2,4,8]","","",""
"show-reward","34","171761","0.0-34.0","p995631","A3UUH3632AI3ZX","3RDTX9JRTZ7MP6YQMJD0Z3DG4HK978","32SVAV9L3HFLGQ522FTB7179OAM3AB","emotion","match","uniform","","","","","","","","171605.5","173607.5","","","","","","","","","","","","8","","stimuli/stars_8.png","43","","","","","stimuli/HM02_CC.jpg","",""
"explore-choice","35","177679","0.0-35.0","p995631","A3UUH3632AI3ZX","3RDTX9JRTZ7MP6YQMJD0Z3DG4HK978","32SVAV9L3HFLGQ522FTB7179OAM3AB","emotion","match","uniform","","","","","","","5415.300000071526","173608","179023.30000007153","[""stimuli/BM07_HE.jpg"",""stimuli/BM03_CC.jpg"",""stimuli/HM02_FO.jpg"",""stimuli/AM03_HO.jpg""]","stimuli/BM07_HE.jpg","stimuli/BM03_CC.jpg","stimuli/HM02_FO.jpg","stimuli/AM03_HO.jpg","pos2","stimuli/BM03_CC.jpg","CC","BM03","1","4","8","6","stimuli/stars_8.png","47","[""HE"",""CC"",""FO"",""HO""]","[""BM07"",""BM03"",""HM02"",""AM03""]","[2,8,10,4]","[2,6,8,4]","","",""
"show-reward","36","179683","0.0-36.0","p995631","A3UUH3632AI3ZX","3RDTX9JRTZ7MP6YQMJD0Z3DG4HK978","32SVAV9L3HFLGQ522FTB7179OAM3AB","emotion","match","uniform","","","","","","","","179525.20000004768","181528.89999997616","","","","","","","","","","","","8","","stimuli/stars_8.png","47","","","","","stimuli/BM03_CC.jpg","",""
"explore-choice","37","180994","0.0-37.0","p995631","A3UUH3632AI3ZX","3RDTX9JRTZ7MP6YQMJD0Z3DG4HK978","32SVAV9L3HFLGQ522FTB7179OAM3AB","emotion","match","uniform","","","","","","","810","181529.39999997616","182339.39999997616","[""stimuli/BM07_CC.jpg"",""stimuli/HM02_HE.jpg"",""stimuli/AM03_FO.jpg"",""stimuli/BM03_HO.jpg""]","stimuli/BM07_CC.jpg","stimuli/HM02_HE.jpg","stimuli/AM03_FO.jpg","stimuli/BM03_HO.jpg","pos1","stimuli/BM07_CC.jpg","CC","BM07","0","4","8","6","stimuli/stars_8.png","51","[""CC"",""HE"",""FO"",""HO""]","[""BM07"",""HM02"",""AM03"",""BM03""]","[8,2,7,4]","[6,2,8,4]","","",""
"show-reward","38","182995","0.0-38.0","p995631","A3UUH3632AI3ZX","3RDTX9JRTZ7MP6YQMJD0Z3DG4HK978","32SVAV9L3HFLGQ522FTB7179OAM3AB","emotion","match","uniform","","","","","","","","182840.5","184841.39999997616","","","","","","","","","","","","8","","stimuli/stars_8.png","51","","","","","stimuli/BM07_CC.jpg","",""
"explore-choice","39","185008","0.0-39.0","p995631","A3UUH3632AI3ZX","3RDTX9JRTZ7MP6YQMJD0Z3DG4HK978","32SVAV9L3HFLGQ522FTB7179OAM3AB","emotion","match","uniform","","","","","","","1511.4000000953674","184841.89999997616","186353.30000007153","[""stimuli/BM03_FO.jpg"",""stimuli/HM02_HE.jpg"",""stimuli/AM03_CC.jpg"",""stimuli/BM07_HO.jpg""]","stimuli/BM03_FO.jpg","stimuli/HM02_HE.jpg","stimuli/AM03_CC.jpg","stimuli/BM07_HO.jpg","pos3","stimuli/AM03_CC.jpg","CC","AM03","2","2.5","5","6","stimuli/stars_5.png","53.5","[""FO"",""HE"",""CC"",""HO""]","[""BM03"",""HM02"",""AM03"",""BM07""]","[8,2,5,6]","[8,2,6,4]","","",""
"show-reward","40","187014","0.0-40.0","p995631","A3UUH3632AI3ZX","3RDTX9JRTZ7MP6YQMJD0Z3DG4HK978","32SVAV9L3HFLGQ522FTB7179OAM3AB","emotion","match","uniform","","","","","","","","186855.70000004768","188860.30000007153","","","","","","","","","","","","5","","stimuli/stars_5.png","53.5","","","","","stimuli/AM03_CC.jpg","",""
"explore-choice","41","189654","0.0-41.0","p995631","A3UUH3632AI3ZX","3RDTX9JRTZ7MP6YQMJD0Z3DG4HK978","32SVAV9L3HFLGQ522FTB7179OAM3AB","emotion","match","uniform","","","","","","","2137.600000023842","188860.60000002384","190998.20000004768","[""stimuli/AM03_CC.jpg"",""stimuli/HM02_FO.jpg"",""stimuli/BM03_HE.jpg"",""stimuli/BM07_HO.jpg""]","stimuli/AM03_CC.jpg","stimuli/HM02_FO.jpg","stimuli/BM03_HE.jpg","stimuli/BM07_HO.jpg","pos1","stimuli/AM03_CC.jpg","CC","AM03","0","4","8","6","stimuli/stars_8.png","57.5","[""CC"",""FO"",""HE"",""HO""]","[""AM03"",""HM02"",""BM03"",""BM07""]","[8,8,3,6]","[6,8,2,4]","","",""
"show-reward","42","191659","0.0-42.0","p995631","A3UUH3632AI3ZX","3RDTX9JRTZ7MP6YQMJD0Z3DG4HK978","32SVAV9L3HFLGQ522FTB7179OAM3AB","emotion","match","uniform","","","","","","","","191500.10000002384","193505.5","","","","","","","","","","","","8","","stimuli/stars_8.png","57.5","","","","","stimuli/AM03_CC.jpg","",""
"explore-choice","43","253150","0.0-43.0","p995631","A3UUH3632AI3ZX","3RDTX9JRTZ7MP6YQMJD0Z3DG4HK978","32SVAV9L3HFLGQ522FTB7179OAM3AB","emotion","match","uniform","","","","","","","60989","193505.89999997616","254494.89999997616","[""stimuli/AM03_HO.jpg"",""stimuli/BM03_FO.jpg"",""stimuli/BM07_CC.jpg"",""stimuli/HM02_HE.jpg""]","stimuli/AM03_HO.jpg","stimuli/BM03_FO.jpg","stimuli/BM07_CC.jpg","stimuli/HM02_HE.jpg","pos3","stimuli/BM07_CC.jpg","CC","BM07","2","3","6","6","stimuli/stars_6.png","60.5","[""HO"",""FO"",""CC"",""HE""]","[""AM03"",""BM03"",""BM07"",""HM02""]","[6,9,6,2]","[4,8,6,2]","","",""
"show-reward","44","255152","0.0-44.0","p995631","A3UUH3632AI3ZX","3RDTX9JRTZ7MP6YQMJD0Z3DG4HK978","32SVAV9L3HFLGQ522FTB7179OAM3AB","emotion","match","uniform","","","","","","","","254996.10000002384","256997.10000002384","","","","","","","","","","","","6","","stimuli/stars_6.png","60.5","","","","","stimuli/BM07_CC.jpg","",""
"explore-choice","45","257074","0.0-45.0","p995631","A3UUH3632AI3ZX","3RDTX9JRTZ7MP6YQMJD0Z3DG4HK978","32SVAV9L3HFLGQ522FTB7179OAM3AB","emotion","match","uniform","","","","","","","1421.5","256997.5","258419","[""stimuli/BM03_CC.jpg"",""stimuli/HM02_HE.jpg"",""stimuli/BM07_FO.jpg"",""stimuli/AM03_HO.jpg""]","stimuli/BM03_CC.jpg","stimuli/HM02_HE.jpg","stimuli/BM07_FO.jpg","stimuli/AM03_HO.jpg","pos1","stimuli/BM03_CC.jpg","CC","BM03","0","4","8","6","stimuli/stars_8.png","64.5","[""CC"",""HE"",""FO"",""HO""]","[""BM03"",""HM02"",""BM07"",""AM03""]","[8,4,7,4]","[6,2,8,4]","","",""
"show-reward","46","259076","0.0-46.0","p995631","A3UUH3632AI3ZX","3RDTX9JRTZ7MP6YQMJD0Z3DG4HK978","32SVAV9L3HFLGQ522FTB7179OAM3AB","emotion","match","uniform","","","","","","","","258919.60000002384","260921.60000002384","","","","","","","","","","","","8","","stimuli/stars_8.png","64.5","","","","","stimuli/BM03_CC.jpg","",""
"explore-choice","47","261148","0.0-47.0","p995631","A3UUH3632AI3ZX","3RDTX9JRTZ7MP6YQMJD0Z3DG4HK978","32SVAV9L3HFLGQ522FTB7179OAM3AB","emotion","match","uniform","","","","","","","1572","260921.89999997616","262493.89999997616","[""stimuli/BM03_FO.jpg"",""stimuli/BM07_HE.jpg"",""stimuli/AM03_HO.jpg"",""stimuli/HM02_CC.jpg""]","stimuli/BM03_FO.jpg","stimuli/BM07_HE.jpg","stimuli/AM03_HO.jpg","stimuli/HM02_CC.jpg","pos4","stimuli/HM02_CC.jpg","CC","HM02","3","2","4","6","stimuli/stars_4.png","66.5","[""FO"",""HE"",""HO"",""CC""]","[""BM03"",""BM07"",""AM03"",""HM02""]","[7,3,5,4]","[8,2,4,6]","","",""
"show-reward","48","263150","0.0-48.0","p995631","A3UUH3632AI3ZX","3RDTX9JRTZ7MP6YQMJD0Z3DG4HK978","32SVAV9L3HFLGQ522FTB7179OAM3AB","emotion","match","uniform","","","","","","","","262994.5","264995.8000000715","","","","","","","","","","","","4","","stimuli/stars_4.png","66.5","","","","","stimuli/HM02_CC.jpg","",""
"explore-choice","49","264857","0.0-49.0","p995631","A3UUH3632AI3ZX","3RDTX9JRTZ7MP6YQMJD0Z3DG4HK978","32SVAV9L3HFLGQ522FTB7179OAM3AB","emotion","match","uniform","","","","","","","1205.6000000238419","264996.39999997616","266202","[""stimuli/HM02_CC.jpg"",""stimuli/AM03_HO.jpg"",""stimuli/BM07_FO.jpg"",""stimuli/BM03_HE.jpg""]","stimuli/HM02_CC.jpg","stimuli/AM03_HO.jpg","stimuli/BM07_FO.jpg","stimuli/BM03_HE.jpg","pos1","stimuli/HM02_CC.jpg","CC","HM02","0","2","4","6","stimuli/stars_4.png","68.5","[""CC"",""HO"",""FO"",""HE""]","[""HM02"",""AM03"",""BM07"",""BM03""]","[4,2,10,2]","[6,4,8,2]","","",""
"show-reward","50","266863","0.0-50.0","p995631","A3UUH3632AI3ZX","3RDTX9JRTZ7MP6YQMJD0Z3DG4HK978","32SVAV9L3HFLGQ522FTB7179OAM3AB","emotion","match","uniform","","","","","","","","266704.39999997616","268708.39999997616","","","","","","","","","","","","4","","stimuli/stars_4.png","68.5","","","","","stimuli/HM02_CC.jpg","",""
"explore-choice","51","269868","0.0-51.0","p995631","A3UUH3632AI3ZX","3RDTX9JRTZ7MP6YQMJD0Z3DG4HK978","32SVAV9L3HFLGQ522FTB7179OAM3AB","emotion","match","uniform","","","","","","","2504.2000000476837","268708.89999997616","271213.10000002384","[""stimuli/BM07_HE.jpg"",""stimuli/BM03_HO.jpg"",""stimuli/AM03_FO.jpg"",""stimuli/HM02_CC.jpg""]","stimuli/BM07_HE.jpg","stimuli/BM03_HO.jpg","stimuli/AM03_FO.jpg","stimuli/HM02_CC.jpg","pos4","stimuli/HM02_CC.jpg","CC","HM02","3","3.5","7","6","stimuli/stars_7.png","72","[""HE"",""HO"",""FO"",""CC""]","[""BM07"",""BM03"",""AM03"",""HM02""]","[0,2,10,7]","[2,4,8,6]","","",""
"show-reward","52","271870","0.0-52.0","p995631","A3UUH3632AI3ZX","3RDTX9JRTZ7MP6YQMJD0Z3DG4HK978","32SVAV9L3HFLGQ522FTB7179OAM3AB","emotion","match","uniform","","","","","","","","271714.39999997616","273716","","","","","","","","","","","","7","","stimuli/stars_7.png","72","","","","","stimuli/HM02_CC.jpg","",""
"explore-choice","53","273557","0.0-53.0","p995631","A3UUH3632AI3ZX","3RDTX9JRTZ7MP6YQMJD0Z3DG4HK978","32SVAV9L3HFLGQ522FTB7179OAM3AB","emotion","match","uniform","","","","","","","1171.8000000715256","273716.39999997616","274888.2000000477","[""stimuli/BM07_HO.jpg"",""stimuli/BM03_CC.jpg"",""stimuli/HM02_HE.jpg"",""stimuli/AM03_FO.jpg""]","stimuli/BM07_HO.jpg","stimuli/BM03_CC.jpg","stimuli/HM02_HE.jpg","stimuli/AM03_FO.jpg","pos2","stimuli/BM03_CC.jpg","CC","BM03","1","4","8","6","stimuli/stars_8.png","76","[""HO"",""CC"",""HE"",""FO""]","[""BM07"",""BM03"",""HM02"",""AM03""]","[3,8,2,10]","[4,6,2,8]","","",""
"show-reward","54","275559","0.0-54.0","p995631","A3UUH3632AI3ZX","3RDTX9JRTZ7MP6YQMJD0Z3DG4HK978","32SVAV9L3HFLGQ522FTB7179OAM3AB","emotion","match","uniform","","","","","","","","275403.5","277404.39999997616","","","","","","","","","","","","8","","stimuli/stars_8.png","76","","","","","stimuli/BM03_CC.jpg","",""
"explore-choice","55","276883","0.0-55.0","p995631","A3UUH3632AI3ZX","3RDTX9JRTZ7MP6YQMJD0Z3DG4HK978","32SVAV9L3HFLGQ522FTB7179OAM3AB","emotion","match","uniform","","","","","","","823.0999999046326","277404.8000000715","278227.89999997616","[""stimuli/BM07_HO.jpg"",""stimuli/BM03_CC.jpg"",""stimuli/AM03_FO.jpg"",""stimuli/HM02_HE.jpg""]","stimuli/BM07_HO.jpg","stimuli/BM03_CC.jpg","stimuli/AM03_FO.jpg","stimuli/HM02_HE.jpg","pos2","stimuli/BM03_CC.jpg","CC","BM03","1","4","8","6","stimuli/stars_8.png","80","[""HO"",""CC"",""FO"",""HE""]","[""BM07"",""BM03"",""AM03"",""HM02""]","[3,8,10,2]","[4,6,8,2]","","",""
"show-reward","56","278896","0.0-56.0","p995631","A3UUH3632AI3ZX","3RDTX9JRTZ7MP6YQMJD0Z3DG4HK978","32SVAV9L3HFLGQ522FTB7179OAM3AB","emotion","match","uniform","","","","","","","","278729.3000000715","280742","","","","","","","","","","","","8","","stimuli/stars_8.png","80","","","","","stimuli/BM03_CC.jpg","",""
"explore-choice","57","280430","0.0-57.0","p995631","A3UUH3632AI3ZX","3RDTX9JRTZ7MP6YQMJD0Z3DG4HK978","32SVAV9L3HFLGQ522FTB7179OAM3AB","emotion","match","uniform","","","","","","","1031.6000000238419","280742.39999997616","281774","[""stimuli/AM03_FO.jpg"",""stimuli/BM07_CC.jpg"",""stimuli/BM03_HO.jpg"",""stimuli/HM02_HE.jpg""]","stimuli/AM03_FO.jpg","stimuli/BM07_CC.jpg","stimuli/BM03_HO.jpg","stimuli/HM02_HE.jpg","pos2","stimuli/BM07_CC.jpg","CC","BM07","1","4","8","6","stimuli/stars_8.png","84","[""FO"",""CC"",""HO"",""HE""]","[""AM03"",""BM07"",""BM03"",""HM02""]","[7,8,4,2]","[8,6,4,2]","","",""
"show-reward","58","282431","0.0-58.0","p995631","A3UUH3632AI3ZX","3RDTX9JRTZ7MP6YQMJD0Z3DG4HK978","32SVAV9L3HFLGQ522FTB7179OAM3AB","emotion","match","uniform","","","","","","","","282275.60000002384","284276.7000000477","","","","","","","","","","","","8","","stimuli/stars_8.png","84","","","","","stimuli/BM07_CC.jpg","",""
"explore-choice","59","284650","0.0-59.0","p995631","A3UUH3632AI3ZX","3RDTX9JRTZ7MP6YQMJD0Z3DG4HK978","32SVAV9L3HFLGQ522FTB7179OAM3AB","emotion","match","uniform","","","","","","","1717.8999999761581","284277.10000002384","285995","[""stimuli/BM03_HE.jpg"",""stimuli/HM02_FO.jpg"",""stimuli/BM07_CC.jpg"",""stimuli/AM03_HO.jpg""]","stimuli/BM03_HE.jpg","stimuli/HM02_FO.jpg","stimuli/BM07_CC.jpg","stimuli/AM03_HO.jpg","pos3","stimuli/BM07_CC.jpg","CC","BM07","2","2","4","6","stimuli/stars_4.png","86","[""HE"",""FO"",""CC"",""HO""]","[""BM03"",""HM02"",""BM07"",""AM03""]","[3,7,4,6]","[2,8,6,4]","","",""
"show-reward","60","286653","0.0-60.0","p995631","A3UUH3632AI3ZX","3RDTX9JRTZ7MP6YQMJD0Z3DG4HK978","32SVAV9L3HFLGQ522FTB7179OAM3AB","emotion","match","uniform","","","","","","","","286495.89999997616","288498.5","","","","","","","","","","","","4","","stimuli/stars_4.png","86","","","","","stimuli/BM07_CC.jpg","",""
"explore-choice","61","291808","0.0-61.0","p995631","A3UUH3632AI3ZX","3RDTX9JRTZ7MP6YQMJD0Z3DG4HK978","32SVAV9L3HFLGQ522FTB7179OAM3AB","emotion","match","uniform","","","","","","","4654","288498.89999997616","293152.89999997616","[""stimuli/HM02_HO.jpg"",""stimuli/BM03_CC.jpg"",""stimuli/BM07_FO.jpg"",""stimuli/AM03_HE.jpg""]","stimuli/HM02_HO.jpg","stimuli/BM03_CC.jpg","stimuli/BM07_FO.jpg","stimuli/AM03_HE.jpg","pos2","stimuli/BM03_CC.jpg","CC","BM03","1","2.5","5","6","stimuli/stars_5.png","88.5","[""HO"",""CC"",""FO"",""HE""]","[""HM02"",""BM03"",""BM07"",""AM03""]","[5,5,7,0]","[4,6,8,2]","","",""
"show-reward","62","293810","0.0-62.0","p995631","A3UUH3632AI3ZX","3RDTX9JRTZ7MP6YQMJD0Z3DG4HK978","32SVAV9L3HFLGQ522FTB7179OAM3AB","emotion","match","uniform","","","","","","","","293654.5","295655.7000000477","","","","","","","","","","","","5","","stimuli/stars_5.png","88.5","","","","","stimuli/BM03_CC.jpg","",""
"explore-choice","63","295348","0.0-63.0","p995631","A3UUH3632AI3ZX","3RDTX9JRTZ7MP6YQMJD0Z3DG4HK978","32SVAV9L3HFLGQ522FTB7179OAM3AB","emotion","match","uniform","","","","","","","1036.7999999523163","295656.10000002384","296692.89999997616","[""stimuli/BM07_FO.jpg"",""stimuli/HM02_CC.jpg"",""stimuli/AM03_HO.jpg"",""stimuli/BM03_HE.jpg""]","stimuli/BM07_FO.jpg","stimuli/HM02_CC.jpg","stimuli/AM03_HO.jpg","stimuli/BM03_HE.jpg","pos2","stimuli/HM02_CC.jpg","CC","HM02","1","2","4","6","stimuli/stars_4.png","90.5","[""FO"",""CC"",""HO"",""HE""]","[""BM07"",""HM02"",""AM03"",""BM03""]","[10,4,2,2]","[8,6,4,2]","","",""
"show-reward","64","297349","0.0-64.0","p995631","A3UUH3632AI3ZX","3RDTX9JRTZ7MP6YQMJD0Z3DG4HK978","32SVAV9L3HFLGQ522FTB7179OAM3AB","emotion","match","uniform","","","","","","","","297193.60000002384","299194.60000002384","","","","","","","","","","","","4","","stimuli/stars_4.png","90.5","","","","","stimuli/HM02_CC.jpg","",""
"explore-choice","65","299275","0.0-65.0","p995631","A3UUH3632AI3ZX","3RDTX9JRTZ7MP6YQMJD0Z3DG4HK978","32SVAV9L3HFLGQ522FTB7179OAM3AB","emotion","match","uniform","","","","","","","1423.7999999523163","299195.10000002384","300618.89999997616","[""stimuli/BM07_CC.jpg"",""stimuli/HM02_HO.jpg"",""stimuli/AM03_FO.jpg"",""stimuli/BM03_HE.jpg""]","stimuli/BM07_CC.jpg","stimuli/HM02_HO.jpg","stimuli/AM03_FO.jpg","stimuli/BM03_HE.jpg","pos1","stimuli/BM07_CC.jpg","CC","BM07","0","3.5","7","6","stimuli/stars_7.png","94","[""CC"",""HO"",""FO"",""HE""]","[""BM07"",""HM02"",""AM03"",""BM03""]","[7,6,9,3]","[6,4,8,2]","","",""
"show-reward","66","301285","0.0-66.0","p995631","A3UUH3632AI3ZX","3RDTX9JRTZ7MP6YQMJD0Z3DG4HK978","32SVAV9L3HFLGQ522FTB7179OAM3AB","emotion","match","uniform","","","","","","","","301121.3000000715","303130.39999997616","","","","","","","","","","","","7","","stimuli/stars_7.png","94","","","","","stimuli/BM07_CC.jpg","",""
"explore-choice","67","303908","0.0-67.0","p995631","A3UUH3632AI3ZX","3RDTX9JRTZ7MP6YQMJD0Z3DG4HK978","32SVAV9L3HFLGQ522FTB7179OAM3AB","emotion","match","uniform","","","","","","","2121.899999976158","303131","305252.89999997616","[""stimuli/BM07_HE.jpg"",""stimuli/HM02_CC.jpg"",""stimuli/BM03_FO.jpg"",""stimuli/AM03_HO.jpg""]","stimuli/BM07_HE.jpg","stimuli/HM02_CC.jpg","stimuli/BM03_FO.jpg","stimuli/AM03_HO.jpg","pos2","stimuli/HM02_CC.jpg","CC","HM02","1","2","4","6","stimuli/stars_4.png","96","[""HE"",""CC"",""FO"",""HO""]","[""BM07"",""HM02"",""BM03"",""AM03""]","[3,4,7,5]","[2,6,8,4]","","",""
"show-reward","68","305910","0.0-68.0","p995631","A3UUH3632AI3ZX","3RDTX9JRTZ7MP6YQMJD0Z3DG4HK978","32SVAV9L3HFLGQ522FTB7179OAM3AB","emotion","match","uniform","","","","","","","","305753.89999997616","307755.3000000715","","","","","","","","","","","","4","","stimuli/stars_4.png","96","","","","","stimuli/HM02_CC.jpg","",""
"explore-choice","69","307549","0.0-69.0","p995631","A3UUH3632AI3ZX","3RDTX9JRTZ7MP6YQMJD0Z3DG4HK978","32SVAV9L3HFLGQ522FTB7179OAM3AB","emotion","match","uniform","","","","","","","1138.1999999284744","307755.8000000715","308894","[""stimuli/BM03_HO.jpg"",""stimuli/HM02_FO.jpg"",""stimuli/BM07_HE.jpg"",""stimuli/AM03_CC.jpg""]","stimuli/BM03_HO.jpg","stimuli/HM02_FO.jpg","stimuli/BM07_HE.jpg","stimuli/AM03_CC.jpg","pos4","stimuli/AM03_CC.jpg","CC","AM03","3","3.5","7","6","stimuli/stars_7.png","99.5","[""HO"",""FO"",""HE"",""CC""]","[""BM03"",""HM02"",""BM07"",""AM03""]","[5,6,1,7]","[4,8,2,6]","","",""
"show-reward","70","309551","0.0-70.0","p995631","A3UUH3632AI3ZX","3RDTX9JRTZ7MP6YQMJD0Z3DG4HK978","32SVAV9L3HFLGQ522FTB7179OAM3AB","emotion","match","uniform","","","","","","","","309395.2000000477","311396.3000000715","","","","","","","","","","","","7","","stimuli/stars_7.png","99.5","","","","","stimuli/AM03_CC.jpg","",""
"explore-choice","71","311216","0.0-71.0","p995631","A3UUH3632AI3ZX","3RDTX9JRTZ7MP6YQMJD0Z3DG4HK978","32SVAV9L3HFLGQ522FTB7179OAM3AB","emotion","match","uniform","","","","","","","1163.7999999523163","311397.3000000715","312561.10000002384","[""stimuli/AM03_CC.jpg"",""stimuli/HM02_HE.jpg"",""stimuli/BM03_HO.jpg"",""stimuli/BM07_FO.jpg""]","stimuli/AM03_CC.jpg","stimuli/HM02_HE.jpg","stimuli/BM03_HO.jpg","stimuli/BM07_FO.jpg","pos1","stimuli/AM03_CC.jpg","CC","AM03","0","3","6","6","stimuli/stars_6.png","102.5","[""CC"",""HE"",""HO"",""FO""]","[""AM03"",""HM02"",""BM03"",""BM07""]","[6,1,3,7]","[6,2,4,8]","","",""
"show-reward","72","313230","0.0-72.0","p995631","A3UUH3632AI3ZX","3RDTX9JRTZ7MP6YQMJD0Z3DG4HK978","32SVAV9L3HFLGQ522FTB7179OAM3AB","emotion","match","uniform","","","","","","","","313062","315076","","","","","","","","","","","","6","","stimuli/stars_6.png","102.5","","","","","stimuli/AM03_CC.jpg","",""
"explore-choice","73","315131","0.0-73.0","p995631","A3UUH3632AI3ZX","3RDTX9JRTZ7MP6YQMJD0Z3DG4HK978","32SVAV9L3HFLGQ522FTB7179OAM3AB","emotion","match","uniform","","","","","","","1397.7000000476837","315077.60000002384","316475.3000000715","[""stimuli/BM07_HE.jpg"",""stimuli/AM03_HO.jpg"",""stimuli/BM03_CC.jpg"",""stimuli/HM02_FO.jpg""]","stimuli/BM07_HE.jpg","stimuli/AM03_HO.jpg","stimuli/BM03_CC.jpg","stimuli/HM02_FO.jpg","pos3","stimuli/BM03_CC.jpg","CC","BM03","2","4","8","6","stimuli/stars_8.png","106.5","[""HE"",""HO"",""CC"",""FO""]","[""BM07"",""AM03"",""BM03"",""HM02""]","[2,4,8,10]","[2,4,6,8]","","",""
"show-reward","74","317136","0.0-74.0","p995631","A3UUH3632AI3ZX","3RDTX9JRTZ7MP6YQMJD0Z3DG4HK978","32SVAV9L3HFLGQ522FTB7179OAM3AB","emotion","match","uniform","","","","","","","","316978.3000000715","318982.5","","","","","","","","","","","","8","","stimuli/stars_8.png","106.5","","","","","stimuli/BM03_CC.jpg","",""
"explore-choice","75","318902","0.0-75.0","p995631","A3UUH3632AI3ZX","3RDTX9JRTZ7MP6YQMJD0Z3DG4HK978","32SVAV9L3HFLGQ522FTB7179OAM3AB","emotion","match","uniform","","","","","","","1265.1999999284744","318982.8000000715","320248","[""stimuli/BM03_FO.jpg"",""stimuli/AM03_CC.jpg"",""stimuli/HM02_HO.jpg"",""stimuli/BM07_HE.jpg""]","stimuli/BM03_FO.jpg","stimuli/AM03_CC.jpg","stimuli/HM02_HO.jpg","stimuli/BM07_HE.jpg","pos2","stimuli/AM03_CC.jpg","CC","AM03","1","4","8","6","stimuli/stars_8.png","110.5","[""FO"",""CC"",""HO"",""HE""]","[""BM03"",""AM03"",""HM02"",""BM07""]","[10,8,3,0]","[8,6,4,2]","","",""
"show-reward","76","320918","0.0-76.0","p995631","A3UUH3632AI3ZX","3RDTX9JRTZ7MP6YQMJD0Z3DG4HK978","32SVAV9L3HFLGQ522FTB7179OAM3AB","emotion","match","uniform","","","","","","","","320748.7000000477","322764","","","","","","","","","","","","8","","stimuli/stars_8.png","110.5","","","","","stimuli/AM03_CC.jpg","",""
"explore-choice","77","326442","0.0-77.0","p995631","A3UUH3632AI3ZX","3RDTX9JRTZ7MP6YQMJD0Z3DG4HK978","32SVAV9L3HFLGQ522FTB7179OAM3AB","emotion","match","uniform","","","","","","","5023.100000023842","322764.5","327787.60000002384","[""stimuli/BM03_HE.jpg"",""stimuli/BM07_FO.jpg"",""stimuli/AM03_CC.jpg"",""stimuli/HM02_HO.jpg""]","stimuli/BM03_HE.jpg","stimuli/BM07_FO.jpg","stimuli/AM03_CC.jpg","stimuli/HM02_HO.jpg","pos3","stimuli/AM03_CC.jpg","CC","AM03","2","3","6","6","stimuli/stars_6.png","113.5","[""HE"",""FO"",""CC"",""HO""]","[""BM03"",""BM07"",""AM03"",""HM02""]","[3,10,6,5]","[2,8,6,4]","","",""
"show-reward","78","328444","0.0-78.0","p995631","A3UUH3632AI3ZX","3RDTX9JRTZ7MP6YQMJD0Z3DG4HK978","32SVAV9L3HFLGQ522FTB7179OAM3AB","emotion","match","uniform","","","","","","","","328289.10000002384","330290.3000000715","","","","","","","","","","","","6","","stimuli/stars_6.png","113.5","","","","","stimuli/AM03_CC.jpg","",""
"explore-choice","79","330840","0.0-79.0","p995631","A3UUH3632AI3ZX","3RDTX9JRTZ7MP6YQMJD0Z3DG4HK978","32SVAV9L3HFLGQ522FTB7179OAM3AB","emotion","match","uniform","","","","","","","1894.2999999523163","330290.7000000477","332185","[""stimuli/BM03_FO.jpg"",""stimuli/BM07_CC.jpg"",""stimuli/HM02_HE.jpg"",""stimuli/AM03_HO.jpg""]","stimuli/BM03_FO.jpg","stimuli/BM07_CC.jpg","stimuli/HM02_HE.jpg","stimuli/AM03_HO.jpg","pos2","stimuli/BM07_CC.jpg","CC","BM07","1","3","6","6","stimuli/stars_6.png","116.5","[""FO"",""CC"",""HE"",""HO""]","[""BM03"",""BM07"",""HM02"",""AM03""]","[9,6,2,6]","[8,6,2,4]","","",""
"show-reward","80","332842","0.0-80.0","p995631","A3UUH3632AI3ZX","3RDTX9JRTZ7MP6YQMJD0Z3DG4HK978","32SVAV9L3HFLGQ522FTB7179OAM3AB","emotion","match","uniform","","","","","","","","332686.8000000715","334688.5","","","","","","","","","","","","6","","stimuli/stars_6.png","116.5","","","","","stimuli/BM07_CC.jpg","",""
"explore-choice","81","336678","0.0-81.0","p995631","A3UUH3632AI3ZX","3RDTX9JRTZ7MP6YQMJD0Z3DG4HK978","32SVAV9L3HFLGQ522FTB7179OAM3AB","emotion","match","uniform","","","","","","","3334","334688.89999997616","338022.89999997616","[""stimuli/BM03_CC.jpg"",""stimuli/BM07_FO.jpg"",""stimuli/HM02_HE.jpg"",""stimuli/AM03_HO.jpg""]","stimuli/BM03_CC.jpg","stimuli/BM07_FO.jpg","stimuli/HM02_HE.jpg","stimuli/AM03_HO.jpg","pos1","stimuli/BM03_CC.jpg","CC","BM03","0","4","8","6","stimuli/stars_8.png","120.5","[""CC"",""FO"",""HE"",""HO""]","[""BM03"",""BM07"",""HM02"",""AM03""]","[8,7,4,4]","[6,8,2,4]","","",""
"show-reward","82","338698","0.0-82.0","p995631","A3UUH3632AI3ZX","3RDTX9JRTZ7MP6YQMJD0Z3DG4HK978","32SVAV9L3HFLGQ522FTB7179OAM3AB","emotion","match","uniform","","","","","","","","338525.8000000715","340544.39999997616","","","","","","","","","","","","8","","stimuli/stars_8.png","120.5","","","","","stimuli/BM03_CC.jpg","",""
"explore-choice","83","340650","0.0-83.0","p995631","A3UUH3632AI3ZX","3RDTX9JRTZ7MP6YQMJD0Z3DG4HK978","32SVAV9L3HFLGQ522FTB7179OAM3AB","emotion","match","uniform","","","","","","","1449.7999999523163","340545.2000000477","341995","[""stimuli/AM03_HE.jpg"",""stimuli/BM07_FO.jpg"",""stimuli/BM03_HO.jpg"",""stimuli/HM02_CC.jpg""]","stimuli/AM03_HE.jpg","stimuli/BM07_FO.jpg","stimuli/BM03_HO.jpg","stimuli/HM02_CC.jpg","pos4","stimuli/HM02_CC.jpg","CC","HM02","3","3","6","6","stimuli/stars_6.png","123.5","[""HE"",""FO"",""HO"",""CC""]","[""AM03"",""BM07"",""BM03"",""HM02""]","[0,6,4,6]","[2,8,4,6]","","",""
"show-reward","84","342659","0.0-84.0","p995631","A3UUH3632AI3ZX","3RDTX9JRTZ7MP6YQMJD0Z3DG4HK978","32SVAV9L3HFLGQ522FTB7179OAM3AB","emotion","match","uniform","","","","","","","","342497","344505.10000002384","","","","","","","","","","","","6","","stimuli/stars_6.png","123.5","","","","","stimuli/HM02_CC.jpg","",""
"explore-choice","85","344813","0.0-85.0","p995631","A3UUH3632AI3ZX","3RDTX9JRTZ7MP6YQMJD0Z3DG4HK978","32SVAV9L3HFLGQ522FTB7179OAM3AB","emotion","match","uniform","","","","","","","1653.3999999761581","344505.5","346158.89999997616","[""stimuli/BM07_HO.jpg"",""stimuli/BM03_FO.jpg"",""stimuli/AM03_CC.jpg"",""stimuli/HM02_HE.jpg""]","stimuli/BM07_HO.jpg","stimuli/BM03_FO.jpg","stimuli/AM03_CC.jpg","stimuli/HM02_HE.jpg","pos3","stimuli/AM03_CC.jpg","CC","AM03","2","2.5","5","6","stimuli/stars_5.png","126","[""HO"",""FO"",""CC"",""HE""]","[""BM07"",""BM03"",""AM03"",""HM02""]","[6,8,5,2]","[4,8,6,2]","","",""
"show-reward","86","346824","0.0-86.0","p995631","A3UUH3632AI3ZX","3RDTX9JRTZ7MP6YQMJD0Z3DG4HK978","32SVAV9L3HFLGQ522FTB7179OAM3AB","emotion","match","uniform","","","","","","","","346659.7000000477","348670.3000000715","","","","","","","","","","","","5","","stimuli/stars_5.png","126","","","","","stimuli/AM03_CC.jpg","",""
"explore-choice","87","349517","0.0-87.0","p995631","A3UUH3632AI3ZX","3RDTX9JRTZ7MP6YQMJD0Z3DG4HK978","32SVAV9L3HFLGQ522FTB7179OAM3AB","emotion","match","uniform","","","","","","","2192","348670.7000000477","350862.7000000477","[""stimuli/HM02_HO.jpg"",""stimuli/BM07_HE.jpg"",""stimuli/AM03_FO.jpg"",""stimuli/BM03_CC.jpg""]","stimuli/HM02_HO.jpg","stimuli/BM07_HE.jpg","stimuli/AM03_FO.jpg","stimuli/BM03_CC.jpg","pos4","stimuli/BM03_CC.jpg","CC","BM03","3","3","6","6","stimuli/stars_6.png","129","[""HO"",""HE"",""FO"",""CC""]","[""HM02"",""BM07"",""AM03"",""BM03""]","[5,4,8,6]","[4,2,8,6]","","",""
"show-reward","88","351523","0.0-88.0","p995631","A3UUH3632AI3ZX","3RDTX9JRTZ7MP6YQMJD0Z3DG4HK978","32SVAV9L3HFLGQ522FTB7179OAM3AB","emotion","match","uniform","","","","","","","","351363.2000000477","353369.5","","","","","","","","","","","","6","","stimuli/stars_6.png","129","","","","","stimuli/BM03_CC.jpg","",""
"explore-choice","89","353504","0.0-89.0","p995631","A3UUH3632AI3ZX","3RDTX9JRTZ7MP6YQMJD0Z3DG4HK978","32SVAV9L3HFLGQ522FTB7179OAM3AB","emotion","match","uniform","","","","","","","1479.8000000715256","353369.89999997616","354849.7000000477","[""stimuli/AM03_HE.jpg"",""stimuli/HM02_CC.jpg"",""stimuli/BM07_HO.jpg"",""stimuli/BM03_FO.jpg""]","stimuli/AM03_HE.jpg","stimuli/HM02_CC.jpg","stimuli/BM07_HO.jpg","stimuli/BM03_FO.jpg","pos2","stimuli/HM02_CC.jpg","CC","HM02","1","4","8","6","stimuli/stars_8.png","133","[""HE"",""CC"",""HO"",""FO""]","[""AM03"",""HM02"",""BM07"",""BM03""]","[1,8,6,7]","[2,6,4,8]","","",""
"show-reward","90","355507","0.0-90.0","p995631","A3UUH3632AI3ZX","3RDTX9JRTZ7MP6YQMJD0Z3DG4HK978","32SVAV9L3HFLGQ522FTB7179OAM3AB","emotion","match","uniform","","","","","","","","355351","357352.8000000715","","","","","","","","","","","","8","","stimuli/stars_8.png","133","","","","","stimuli/HM02_CC.jpg","",""
"explore-choice","91","357426","0.0-91.0","p995631","A3UUH3632AI3ZX","3RDTX9JRTZ7MP6YQMJD0Z3DG4HK978","32SVAV9L3HFLGQ522FTB7179OAM3AB","emotion","match","uniform","","","","","","","1418.3999999761581","357353.3000000715","358771.7000000477","[""stimuli/AM03_FO.jpg"",""stimuli/HM02_CC.jpg"",""stimuli/BM07_HO.jpg"",""stimuli/BM03_HE.jpg""]","stimuli/AM03_FO.jpg","stimuli/HM02_CC.jpg","stimuli/BM07_HO.jpg","stimuli/BM03_HE.jpg","pos2","stimuli/HM02_CC.jpg","CC","HM02","1","4","8","6","stimuli/stars_8.png","137","[""FO"",""CC"",""HO"",""HE""]","[""AM03"",""HM02"",""BM07"",""BM03""]","[6,8,3,3]","[8,6,4,2]","","",""
"show-reward","92","359429","0.0-92.0","p995631","A3UUH3632AI3ZX","3RDTX9JRTZ7MP6YQMJD0Z3DG4HK978","32SVAV9L3HFLGQ522FTB7179OAM3AB","emotion","match","uniform","","","","","","","","359272.2000000477","361275.60000002384","","","","","","","","","","","","8","","stimuli/stars_8.png","137","","","","","stimuli/HM02_CC.jpg","",""
"explore-choice","93","365504","0.0-93.0","p995631","A3UUH3632AI3ZX","3RDTX9JRTZ7MP6YQMJD0Z3DG4HK978","32SVAV9L3HFLGQ522FTB7179OAM3AB","emotion","match","uniform","","","","","","","5560.5","361276.10000002384","366836.60000002384","[""stimuli/HM02_CC.jpg"",""stimuli/BM03_HO.jpg"",""stimuli/BM07_HE.jpg"",""stimuli/AM03_FO.jpg""]","stimuli/HM02_CC.jpg","stimuli/BM03_HO.jpg","stimuli/BM07_HE.jpg","stimuli/AM03_FO.jpg","pos1","stimuli/HM02_CC.jpg","CC","HM02","0","3.5","7","6","stimuli/stars_7.png","140.5","[""CC"",""HO"",""HE"",""FO""]","[""HM02"",""BM03"",""BM07"",""AM03""]","[7,2,0,10]","[6,4,2,8]","","",""
"show-reward","94","367510","0.0-94.0","p995631","A3UUH3632AI3ZX","3RDTX9JRTZ7MP6YQMJD0Z3DG4HK978","32SVAV9L3HFLGQ522FTB7179OAM3AB","emotion","match","uniform","","","","","","","","367350.10000002384","369356.2000000477","","","","","","","","","","","","7","","stimuli/stars_7.png","140.5","","","","","stimuli/HM02_CC.jpg","",""
"explore-choice","95","370004","0.0-95.0","p995631","A3UUH3632AI3ZX","3RDTX9JRTZ7MP6YQMJD0Z3DG4HK978","32SVAV9L3HFLGQ522FTB7179OAM3AB","emotion","match","uniform","","","","","","","1993.1999999284744","369356.8000000715","371350","[""stimuli/BM07_HO.jpg"",""stimuli/HM02_FO.jpg"",""stimuli/BM03_CC.jpg"",""stimuli/AM03_HE.jpg""]","stimuli/BM07_HO.jpg","stimuli/HM02_FO.jpg","stimuli/BM03_CC.jpg","stimuli/AM03_HE.jpg","pos3","stimuli/BM03_CC.jpg","CC","BM03","2","4","8","6","stimuli/stars_8.png","144.5","[""HO"",""FO"",""CC"",""HE""]","[""BM07"",""HM02"",""BM03"",""AM03""]","[5,6,8,1]","[4,8,6,2]","","",""
"show-reward","96","372007","0.0-96.0","p995631","A3UUH3632AI3ZX","3RDTX9JRTZ7MP6YQMJD0Z3DG4HK978","32SVAV9L3HFLGQ522FTB7179OAM3AB","emotion","match","uniform","","","","","","","","371850.89999997616","373852.7000000477","","","","","","","","","","","","8","","stimuli/stars_8.png","144.5","","","","","stimuli/BM03_CC.jpg","",""
"explore-choice","97","374294","0.0-97.0","p995631","A3UUH3632AI3ZX","3RDTX9JRTZ7MP6YQMJD0Z3DG4HK978","32SVAV9L3HFLGQ522FTB7179OAM3AB","emotion","match","uniform","","","","","","","1785.8999999761581","373853.10000002384","375639","[""stimuli/AM03_HE.jpg"",""stimuli/BM03_FO.jpg"",""stimuli/BM07_CC.jpg"",""stimuli/HM02_HO.jpg""]","stimuli/AM03_HE.jpg","stimuli/BM03_FO.jpg","stimuli/BM07_CC.jpg","stimuli/HM02_HO.jpg","pos3","stimuli/BM07_CC.jpg","CC","BM07","2","2","4","6","stimuli/stars_4.png","146.5","[""HE"",""FO"",""CC"",""HO""]","[""AM03"",""BM03"",""BM07"",""HM02""]","[3,7,4,3]","[2,8,6,4]","","",""
"show-reward","98","376296","0.0-98.0","p995631","A3UUH3632AI3ZX","3RDTX9JRTZ7MP6YQMJD0Z3DG4HK978","32SVAV9L3HFLGQ522FTB7179OAM3AB","emotion","match","uniform","","","","","","","","376140.5","378142.10000002384","","","","","","","","","","","","4","","stimuli/stars_4.png","146.5","","","","","stimuli/BM07_CC.jpg","",""
"explore-choice","99","378442","0.0-99.0","p995631","A3UUH3632AI3ZX","3RDTX9JRTZ7MP6YQMJD0Z3DG4HK978","32SVAV9L3HFLGQ522FTB7179OAM3AB","emotion","match","uniform","","","","","","","1639.3999999761581","378142.5","379781.89999997616","[""stimuli/AM03_HE.jpg"",""stimuli/BM03_HO.jpg"",""stimuli/BM07_CC.jpg"",""stimuli/HM02_FO.jpg""]","stimuli/AM03_HE.jpg","stimuli/BM03_HO.jpg","stimuli/BM07_CC.jpg","stimuli/HM02_FO.jpg","pos3","stimuli/BM07_CC.jpg","CC","BM07","2","4","8","6","stimuli/stars_8.png","150.5","[""HE"",""HO"",""CC"",""FO""]","[""AM03"",""BM03"",""BM07"",""HM02""]","[1,5,8,8]","[2,4,6,8]","","",""
"show-reward","100","380458","0.0-100.0","p995631","A3UUH3632AI3ZX","3RDTX9JRTZ7MP6YQMJD0Z3DG4HK978","32SVAV9L3HFLGQ522FTB7179OAM3AB","emotion","match","uniform","","","","","","","","380288","382303.89999997616","","","","","","","","","","","","8","","stimuli/stars_8.png","150.5","","","","","stimuli/BM07_CC.jpg","",""
"explore-choice","101","385261","0.0-101.0","p995631","A3UUH3632AI3ZX","3RDTX9JRTZ7MP6YQMJD0Z3DG4HK978","32SVAV9L3HFLGQ522FTB7179OAM3AB","emotion","match","uniform","","","","","","","4287.200000047684","382304.5","386591.7000000477","[""stimuli/BM03_HE.jpg"",""stimuli/BM07_HO.jpg"",""stimuli/HM02_FO.jpg"",""stimuli/AM03_CC.jpg""]","stimuli/BM03_HE.jpg","stimuli/BM07_HO.jpg","stimuli/HM02_FO.jpg","stimuli/AM03_CC.jpg","pos4","stimuli/AM03_CC.jpg","CC","AM03","3","4","8","6","stimuli/stars_8.png","154.5","[""HE"",""HO"",""FO"",""CC""]","[""BM03"",""BM07"",""HM02"",""AM03""]","[3,6,8,8]","[2,4,8,6]","","",""
"show-reward","102","387268","0.0-102.0","p995631","A3UUH3632AI3ZX","3RDTX9JRTZ7MP6YQMJD0Z3DG4HK978","32SVAV9L3HFLGQ522FTB7179OAM3AB","emotion","match","uniform","","","","","","","","387106.89999997616","389113.5","","","","","","","","","","","","8","","stimuli/stars_8.png","154.5","","","","","stimuli/AM03_CC.jpg","",""
"explore-choice","103","389263","0.0-103.0","p995631","A3UUH3632AI3ZX","3RDTX9JRTZ7MP6YQMJD0Z3DG4HK978","32SVAV9L3HFLGQ522FTB7179OAM3AB","emotion","match","uniform","","","","","","","1493.7000000476837","389114.10000002384","390607.8000000715","[""stimuli/AM06_DO.jpg"",""stimuli/HF10_AO.jpg"",""stimuli/HF09_SUR.jpg"",""stimuli/AF10_SC.jpg""]","stimuli/AM06_DO.jpg","stimuli/HF10_AO.jpg","stimuli/HF09_SUR.jpg","stimuli/AF10_SC.jpg","pos4","stimuli/AF10_SC.jpg","SC","AF10","3","5","10","8","stimuli/stars_10.png","159.5","[""DO"",""AO"",""SUR"",""SC""]","[""AM06"",""HF10"",""HF09"",""AF10""]","[7,0,4,10]","[6,2,4,8]","","",""
"show-reward","104","391265","0.0-104.0","p995631","A3UUH3632AI3ZX","3RDTX9JRTZ7MP6YQMJD0Z3DG4HK978","32SVAV9L3HFLGQ522FTB7179OAM3AB","emotion","match","uniform","","","","","","","","391108.8000000715","393110.39999997616","","","","","","","","","","","","10","","stimuli/stars_10.png","159.5","","","","","stimuli/AF10_SC.jpg","",""
"explore-choice","105","393993","0.0-105.0","p995631","A3UUH3632AI3ZX","3RDTX9JRTZ7MP6YQMJD0Z3DG4HK978","32SVAV9L3HFLGQ522FTB7179OAM3AB","emotion","match","uniform","","","","","","","2226.7000000476837","393111","395337.7000000477","[""stimuli/AF10_SUR.jpg"",""stimuli/HF09_SC.jpg"",""stimuli/AM06_AO.jpg"",""stimuli/HF10_DO.jpg""]","stimuli/AF10_SUR.jpg","stimuli/HF09_SC.jpg","stimuli/AM06_AO.jpg","stimuli/HF10_DO.jpg","pos2","stimuli/HF09_SC.jpg","SC","HF09","1","4","8","8","stimuli/stars_8.png","163.5","[""SUR"",""SC"",""AO"",""DO""]","[""AF10"",""HF09"",""AM06"",""HF10""]","[3,8,2,8]","[4,8,2,6]","","",""
"show-reward","106","396006","0.0-106.0","p995631","A3UUH3632AI3ZX","3RDTX9JRTZ7MP6YQMJD0Z3DG4HK978","32SVAV9L3HFLGQ522FTB7179OAM3AB","emotion","match","uniform","","","","","","","","395839.2000000477","397851.7000000477","","","","","","","","","","","","8","","stimuli/stars_8.png","163.5","","","","","stimuli/HF09_SC.jpg","",""
"explore-choice","107","404352","0.0-107.0","p995631","A3UUH3632AI3ZX","3RDTX9JRTZ7MP6YQMJD0Z3DG4HK978","32SVAV9L3HFLGQ522FTB7179OAM3AB","emotion","match","uniform","","","","","","","7839.5","397852.2000000477","405691.7000000477","[""stimuli/AM06_AO.jpg"",""stimuli/HF09_SUR.jpg"",""stimuli/AF10_DO.jpg"",""stimuli/HF10_SC.jpg""]","stimuli/AM06_AO.jpg","stimuli/HF09_SUR.jpg","stimuli/AF10_DO.jpg","stimuli/HF10_SC.jpg","pos4","stimuli/HF10_SC.jpg","SC","HF10","3","4.5","9","8","stimuli/stars_9.png","168","[""AO"",""SUR"",""DO"",""SC""]","[""AM06"",""HF09"",""AF10"",""HF10""]","[4,4,6,9]","[2,4,6,8]","","",""
"show-reward","108","406353","0.0-108.0","p995631","A3UUH3632AI3ZX","3RDTX9JRTZ7MP6YQMJD0Z3DG4HK978","32SVAV9L3HFLGQ522FTB7179OAM3AB","emotion","match","uniform","","","","","","","","406198.3000000715","408199.39999997616","","","","","","","","","","","","9","","stimuli/stars_9.png","168","","","","","stimuli/HF10_SC.jpg","",""
"explore-choice","109","407999","0.0-109.0","p995631","A3UUH3632AI3ZX","3RDTX9JRTZ7MP6YQMJD0Z3DG4HK978","32SVAV9L3HFLGQ522FTB7179OAM3AB","emotion","match","uniform","","","","","","","1142.8999999761581","408199.8000000715","409342.7000000477","[""stimuli/HF10_SC.jpg"",""stimuli/AF10_SUR.jpg"",""stimuli/AM06_DO.jpg"",""stimuli/HF09_AO.jpg""]","stimuli/HF10_SC.jpg","stimuli/AF10_SUR.jpg","stimuli/AM06_DO.jpg","stimuli/HF09_AO.jpg","pos1","stimuli/HF10_SC.jpg","SC","HF10","0","5","10","8","stimuli/stars_10.png","173","[""SC"",""SUR"",""DO"",""AO""]","[""HF10"",""AF10"",""AM06"",""HF09""]","[10,3,4,1]","[8,4,6,2]","","",""
"show-reward","110","410000","0.0-110.0","p995631","A3UUH3632AI3ZX","3RDTX9JRTZ7MP6YQMJD0Z3DG4HK978","32SVAV9L3HFLGQ522FTB7179OAM3AB","emotion","match","uniform","","","","","","","","409844.89999997616","411845.89999997616","","","","","","","","","","","","10","","stimuli/stars_10.png","173","","","","","stimuli/HF10_SC.jpg","",""
"explore-choice","111","411827","0.0-111.0","p995631","A3UUH3632AI3ZX","3RDTX9JRTZ7MP6YQMJD0Z3DG4HK978","32SVAV9L3HFLGQ522FTB7179OAM3AB","emotion","match","uniform","","","","","","","1325.6999999284744","411846.3000000715","413172","[""stimuli/AF10_SC.jpg"",""stimuli/HF10_AO.jpg"",""stimuli/AM06_SUR.jpg"",""stimuli/HF09_DO.jpg""]","stimuli/AF10_SC.jpg","stimuli/HF10_AO.jpg","stimuli/AM06_SUR.jpg","stimuli/HF09_DO.jpg","pos1","stimuli/AF10_SC.jpg","SC","AF10","0","4","8","8","stimuli/stars_8.png","177","[""SC"",""AO"",""SUR"",""DO""]","[""AF10"",""HF10"",""AM06"",""HF09""]","[8,0,2,7]","[8,2,4,6]","","",""
"show-reward","112","413837","0.0-112.0","p995631","A3UUH3632AI3ZX","3RDTX9JRTZ7MP6YQMJD0Z3DG4HK978","32SVAV9L3HFLGQ522FTB7179OAM3AB","emotion","match","uniform","","","","","","","","413673","415682.5","","","","","","","","","","","","8","","stimuli/stars_8.png","177","","","","","stimuli/AF10_SC.jpg","",""
"explore-choice","113","416244","0.0-113.0","p995631","A3UUH3632AI3ZX","3RDTX9JRTZ7MP6YQMJD0Z3DG4HK978","32SVAV9L3HFLGQ522FTB7179OAM3AB","emotion","match","uniform","","","","","","","1905.6999999284744","415683.2000000477","417588.89999997616","[""stimuli/HF09_DO.jpg"",""stimuli/AF10_SUR.jpg"",""stimuli/HF10_AO.jpg"",""stimuli/AM06_SC.jpg""]","stimuli/HF09_DO.jpg","stimuli/AF10_SUR.jpg","stimuli/HF10_AO.jpg","stimuli/AM06_SC.jpg","pos4","stimuli/AM06_SC.jpg","SC","AM06","3","5","10","8","stimuli/stars_10.png","182","[""DO"",""SUR"",""AO"",""SC""]","[""HF09"",""AF10"",""HF10"",""AM06""]","[7,6,0,10]","[6,4,2,8]","","",""
"show-reward","114","418245","0.0-114.0","p995631","A3UUH3632AI3ZX","3RDTX9JRTZ7MP6YQMJD0Z3DG4HK978","32SVAV9L3HFLGQ522FTB7179OAM3AB","emotion","match","uniform","","","","","","","","418090.10000002384","420090.8000000715","","","","","","","","","","","","10","","stimuli/stars_10.png","182","","","","","stimuli/AM06_SC.jpg","",""
"explore-choice","115","420314","0.0-115.0","p995631","A3UUH3632AI3ZX","3RDTX9JRTZ7MP6YQMJD0Z3DG4HK978","32SVAV9L3HFLGQ522FTB7179OAM3AB","emotion","match","uniform","","","","","","","1567.0999999046326","420091.3000000715","421658.39999997616","[""stimuli/AM06_SC.jpg"",""stimuli/HF09_AO.jpg"",""stimuli/HF10_SUR.jpg"",""stimuli/AF10_DO.jpg""]","stimuli/AM06_SC.jpg","stimuli/HF09_AO.jpg","stimuli/HF10_SUR.jpg","stimuli/AF10_DO.jpg","pos1","stimuli/AM06_SC.jpg","SC","AM06","0","5","10","8","stimuli/stars_10.png","187","[""SC"",""AO"",""SUR"",""DO""]","[""AM06"",""HF09"",""HF10"",""AF10""]","[10,4,6,8]","[8,2,4,6]","","",""
"show-reward","116","422316","0.0-116.0","p995631","A3UUH3632AI3ZX","3RDTX9JRTZ7MP6YQMJD0Z3DG4HK978","32SVAV9L3HFLGQ522FTB7179OAM3AB","emotion","match","uniform","","","","","","","","422160.2000000477","424162","","","","","","","","","","","","10","","stimuli/stars_10.png","187","","","","","stimuli/AM06_SC.jpg","",""
"explore-choice","117","423867","0.0-117.0","p995631","A3UUH3632AI3ZX","3RDTX9JRTZ7MP6YQMJD0Z3DG4HK978","32SVAV9L3HFLGQ522FTB7179OAM3AB","emotion","match","uniform","","","","","","","1049.2000000476837","424162.39999997616","425211.60000002384","[""stimuli/HF09_SUR.jpg"",""stimuli/AM06_SC.jpg"",""stimuli/HF10_AO.jpg"",""stimuli/AF10_DO.jpg""]","stimuli/HF09_SUR.jpg","stimuli/AM06_SC.jpg","stimuli/HF10_AO.jpg","stimuli/AF10_DO.jpg","pos1","stimuli/HF09_SUR.jpg","SUR","HF09","0","3","6","4","stimuli/stars_6.png","190","[""SUR"",""SC"",""AO"",""DO""]","[""HF09"",""AM06"",""HF10"",""AF10""]","[6,10,0,4]","[4,8,2,6]","","",""
"show-reward","118","425868","0.0-118.0","p995631","A3UUH3632AI3ZX","3RDTX9JRTZ7MP6YQMJD0Z3DG4HK978","32SVAV9L3HFLGQ522FTB7179OAM3AB","emotion","match","uniform","","","","","","","","425712.89999997616","427713.8000000715","","","","","","","","","","","","6","","stimuli/stars_6.png","190","","","","","stimuli/HF09_SUR.jpg","",""
"explore-choice","119","426947","0.0-119.0","p995631","A3UUH3632AI3ZX","3RDTX9JRTZ7MP6YQMJD0Z3DG4HK978","32SVAV9L3HFLGQ522FTB7179OAM3AB","emotion","match","uniform","","","","","","","576.6000000238419","427714.2000000477","428290.8000000715","[""stimuli/AM06_SUR.jpg"",""stimuli/HF09_SC.jpg"",""stimuli/AF10_DO.jpg"",""stimuli/HF10_AO.jpg""]","stimuli/AM06_SUR.jpg","stimuli/HF09_SC.jpg","stimuli/AF10_DO.jpg","stimuli/HF10_AO.jpg","pos2","stimuli/HF09_SC.jpg","SC","HF09","1","5","10","8","stimuli/stars_10.png","195","[""SUR"",""SC"",""DO"",""AO""]","[""AM06"",""HF09"",""AF10"",""HF10""]","[4,10,4,4]","[4,8,6,2]","","",""
"show-reward","120","428960","0.0-120.0","p995631","A3UUH3632AI3ZX","3RDTX9JRTZ7MP6YQMJD0Z3DG4HK978","32SVAV9L3HFLGQ522FTB7179OAM3AB","emotion","match","uniform","","","","","","","","428792.89999997616","430805.5","","","","","","","","","","","","10","","stimuli/stars_10.png","195","","","","","stimuli/HF09_SC.jpg","",""
"explore-choice","121","431127","0.0-121.0","p995631","A3UUH3632AI3ZX","3RDTX9JRTZ7MP6YQMJD0Z3DG4HK978","32SVAV9L3HFLGQ522FTB7179OAM3AB","emotion","match","uniform","","","","","","","1665.7000000476837","430806.10000002384","432471.8000000715","[""stimuli/AM06_SC.jpg"",""stimuli/HF10_DO.jpg"",""stimuli/HF09_SUR.jpg"",""stimuli/AF10_AO.jpg""]","stimuli/AM06_SC.jpg","stimuli/HF10_DO.jpg","stimuli/HF09_SUR.jpg","stimuli/AF10_AO.jpg","pos1","stimuli/AM06_SC.jpg","SC","AM06","0","3.5","7","8","stimuli/stars_7.png","198.5","[""SC"",""DO"",""SUR"",""AO""]","[""AM06"",""HF10"",""HF09"",""AF10""]","[7,5,5,3]","[8,6,4,2]","","",""
"show-reward","122","433132","0.0-122.0","p995631","A3UUH3632AI3ZX","3RDTX9JRTZ7MP6YQMJD0Z3DG4HK978","32SVAV9L3HFLGQ522FTB7179OAM3AB","emotion","match","uniform","","","","","","","","432974","434977.5","","","","","","","","","","","","7","","stimuli/stars_7.png","198.5","","","","","stimuli/AM06_SC.jpg","",""
"explore-choice","123","434790","0.0-123.0","p995631","A3UUH3632AI3ZX","3RDTX9JRTZ7MP6YQMJD0Z3DG4HK978","32SVAV9L3HFLGQ522FTB7179OAM3AB","emotion","match","uniform","","","","","","","1155.6000000238419","434979","436134.60000002384","[""stimuli/HF09_SUR.jpg"",""stimuli/AM06_AO.jpg"",""stimuli/HF10_DO.jpg"",""stimuli/AF10_SC.jpg""]","stimuli/HF09_SUR.jpg","stimuli/AM06_AO.jpg","stimuli/HF10_DO.jpg","stimuli/AF10_SC.jpg","pos4","stimuli/AF10_SC.jpg","SC","AF10","3","4","8","8","stimuli/stars_8.png","202.5","[""SUR"",""AO"",""DO"",""SC""]","[""HF09"",""AM06"",""HF10"",""AF10""]","[6,4,6,8]","[4,2,6,8]","","",""
"show-reward","124","436803","0.0-124.0","p995631","A3UUH3632AI3ZX","3RDTX9JRTZ7MP6YQMJD0Z3DG4HK978","32SVAV9L3HFLGQ522FTB7179OAM3AB","emotion","match","uniform","","","","","","","","436635.7000000477","438648.60000002384","","","","","","","","","","","","8","","stimuli/stars_8.png","202.5","","","","","stimuli/AF10_SC.jpg","",""
"explore-choice","125","438873","0.0-125.0","p995631","A3UUH3632AI3ZX","3RDTX9JRTZ7MP6YQMJD0Z3DG4HK978","32SVAV9L3HFLGQ522FTB7179OAM3AB","emotion","match","uniform","","","","","","","1558.7000000476837","438649.10000002384","440207.8000000715","[""stimuli/AF10_DO.jpg"",""stimuli/HF10_SC.jpg"",""stimuli/HF09_AO.jpg"",""stimuli/AM06_SUR.jpg""]","stimuli/AF10_DO.jpg","stimuli/HF10_SC.jpg","stimuli/HF09_AO.jpg","stimuli/AM06_SUR.jpg","pos2","stimuli/HF10_SC.jpg","SC","HF10","1","3.5","7","8","stimuli/stars_7.png","206","[""DO"",""SC"",""AO"",""SUR""]","[""AF10"",""HF10"",""HF09"",""AM06""]","[8,7,2,3]","[6,8,2,4]","","",""
"show-reward","126","440881","0.0-126.0","p995631","A3UUH3632AI3ZX","3RDTX9JRTZ7MP6YQMJD0Z3DG4HK978","32SVAV9L3HFLGQ522FTB7179OAM3AB","emotion","match","uniform","","","","","","","","440719.89999997616","442726.60000002384","","","","","","","","","","","","7","","stimuli/stars_7.png","206","","","","","stimuli/HF10_SC.jpg","",""
"explore-choice","127","442717","0.0-127.0","p995631","A3UUH3632AI3ZX","3RDTX9JRTZ7MP6YQMJD0Z3DG4HK978","32SVAV9L3HFLGQ522FTB7179OAM3AB","emotion","match","uniform","","","","","","","1335.3999999761581","442727.2000000477","444062.60000002384","[""stimuli/HF09_DO.jpg"",""stimuli/AF10_SUR.jpg"",""stimuli/AM06_AO.jpg"",""stimuli/HF10_SC.jpg""]","stimuli/HF09_DO.jpg","stimuli/AF10_SUR.jpg","stimuli/AM06_AO.jpg","stimuli/HF10_SC.jpg","pos3","stimuli/AM06_AO.jpg","AO","AM06","2","0.5","1","2","stimuli/stars_1.png","206.5","[""DO"",""SUR"",""AO"",""SC""]","[""HF09"",""AF10"",""AM06"",""HF10""]","[5,2,1,8]","[6,4,2,8]","","",""
"show-reward","128","444719","0.0-128.0","p995631","A3UUH3632AI3ZX","3RDTX9JRTZ7MP6YQMJD0Z3DG4HK978","32SVAV9L3HFLGQ522FTB7179OAM3AB","emotion","match","uniform","","","","","","","","444563.39999997616","446565.10000002384","","","","","","","","","","","","1","","stimuli/stars_1.png","206.5","","","","","stimuli/AM06_AO.jpg","",""
"explore-choice","129","446419","0.0-129.0","p995631","A3UUH3632AI3ZX","3RDTX9JRTZ7MP6YQMJD0Z3DG4HK978","32SVAV9L3HFLGQ522FTB7179OAM3AB","emotion","match","uniform","","","","","","","1198","446565.7000000477","447763.7000000477","[""stimuli/AM06_AO.jpg"",""stimuli/HF10_SUR.jpg"",""stimuli/HF09_SC.jpg"",""stimuli/AF10_DO.jpg""]","stimuli/AM06_AO.jpg","stimuli/HF10_SUR.jpg","stimuli/HF09_SC.jpg","stimuli/AF10_DO.jpg","pos3","stimuli/HF09_SC.jpg","SC","HF09","2","3.5","7","8","stimuli/stars_7.png","210","[""AO"",""SUR"",""SC"",""DO""]","[""AM06"",""HF10"",""HF09"",""AF10""]","[2,5,7,6]","[2,4,8,6]","","",""
"show-reward","130","448421","0.0-130.0","p995631","A3UUH3632AI3ZX","3RDTX9JRTZ7MP6YQMJD0Z3DG4HK978","32SVAV9L3HFLGQ522FTB7179OAM3AB","emotion","match","uniform","","","","","","","","448264.60000002384","450266.5","","","","","","","","","","","","7","","stimuli/stars_7.png","210","","","","","stimuli/HF09_SC.jpg","",""
"explore-choice","131","450085","0.0-131.0","p995631","A3UUH3632AI3ZX","3RDTX9JRTZ7MP6YQMJD0Z3DG4HK978","32SVAV9L3HFLGQ522FTB7179OAM3AB","emotion","match","uniform","","","","","","","1162.5","450267","451429.5","[""stimuli/HF10_SUR.jpg"",""stimuli/AF10_SC.jpg"",""stimuli/AM06_DO.jpg"",""stimuli/HF09_AO.jpg""]","stimuli/HF10_SUR.jpg","stimuli/AF10_SC.jpg","stimuli/AM06_DO.jpg","stimuli/HF09_AO.jpg","pos2","stimuli/AF10_SC.jpg","SC","AF10","1","4.5","9","8","stimuli/stars_9.png","214.5","[""SUR"",""SC"",""DO"",""AO""]","[""HF10"",""AF10"",""AM06"",""HF09""]","[4,9,6,1]","[4,8,6,2]","","",""
"show-reward","132","452087","0.0-132.0","p995631","A3UUH3632AI3ZX","3RDTX9JRTZ7MP6YQMJD0Z3DG4HK978","32SVAV9L3HFLGQ522FTB7179OAM3AB","emotion","match","uniform","","","","","","","","451930.60000002384","453932.39999997616","","","","","","","","","","","","9","","stimuli/stars_9.png","214.5","","","","","stimuli/AF10_SC.jpg","",""
"explore-choice","133","454191","0.0-133.0","p995631","A3UUH3632AI3ZX","3RDTX9JRTZ7MP6YQMJD0Z3DG4HK978","32SVAV9L3HFLGQ522FTB7179OAM3AB","emotion","match","uniform","","","","","","","1588.8000000715256","453934","455522.8000000715","[""stimuli/AM06_SUR.jpg"",""stimuli/HF09_AO.jpg"",""stimuli/AF10_SC.jpg"",""stimuli/HF10_DO.jpg""]","stimuli/AM06_SUR.jpg","stimuli/HF09_AO.jpg","stimuli/AF10_SC.jpg","stimuli/HF10_DO.jpg","pos3","stimuli/AF10_SC.jpg","SC","AF10","2","5","10","8","stimuli/stars_10.png","219.5","[""SUR"",""AO"",""SC"",""DO""]","[""AM06"",""HF09"",""AF10"",""HF10""]","[6,3,10,7]","[4,2,8,6]","","",""
"show-reward","134","456200","0.0-134.0","p995631","A3UUH3632AI3ZX","3RDTX9JRTZ7MP6YQMJD0Z3DG4HK978","32SVAV9L3HFLGQ522FTB7179OAM3AB","emotion","match","uniform","","","","","","","","456038.2000000477","458045.8000000715","","","","","","","","","","","","10","","stimuli/stars_10.png","219.5","","","","","stimuli/AF10_SC.jpg","",""
"explore-choice","135","458730","0.0-135.0","p995631","A3UUH3632AI3ZX","3RDTX9JRTZ7MP6YQMJD0Z3DG4HK978","32SVAV9L3HFLGQ522FTB7179OAM3AB","emotion","match","uniform","","","","","","","2028.0999999046326","458046.3000000715","460074.39999997616","[""stimuli/AM06_DO.jpg"",""stimuli/HF10_AO.jpg"",""stimuli/AF10_SUR.jpg"",""stimuli/HF09_SC.jpg""]","stimuli/AM06_DO.jpg","stimuli/HF10_AO.jpg","stimuli/AF10_SUR.jpg","stimuli/HF09_SC.jpg","pos4","stimuli/HF09_SC.jpg","SC","HF09","3","3.5","7","8","stimuli/stars_7.png","223","[""DO"",""AO"",""SUR"",""SC""]","[""AM06"",""HF10"",""AF10"",""HF09""]","[5,1,4,7]","[6,2,4,8]","","",""
"show-reward","136","460732","0.0-136.0","p995631","A3UUH3632AI3ZX","3RDTX9JRTZ7MP6YQMJD0Z3DG4HK978","32SVAV9L3HFLGQ522FTB7179OAM3AB","emotion","match","uniform","","","","","","","","460576.3000000715","462577.8000000715","","","","","","","","","","","","7","","stimuli/stars_7.png","223","","","","","stimuli/HF09_SC.jpg","",""
"explore-choice","137","462087","0.0-137.0","p995631","A3UUH3632AI3ZX","3RDTX9JRTZ7MP6YQMJD0Z3DG4HK978","32SVAV9L3HFLGQ522FTB7179OAM3AB","emotion","match","uniform","","","","","","","842.3999999761581","462578.10000002384","463420.5","[""stimuli/HF09_SUR.jpg"",""stimuli/AM06_DO.jpg"",""stimuli/AF10_AO.jpg"",""stimuli/HF10_SC.jpg""]","stimuli/HF09_SUR.jpg","stimuli/AM06_DO.jpg","stimuli/AF10_AO.jpg","stimuli/HF10_SC.jpg","pos3","stimuli/AF10_AO.jpg","AO","AF10","2","1.5","3","2","stimuli/stars_3.png","224.5","[""SUR"",""DO"",""AO"",""SC""]","[""HF09"",""AM06"",""AF10"",""HF10""]","[5,8,3,7]","[4,6,2,8]","","",""
"show-reward","138","464089","0.0-138.0","p995631","A3UUH3632AI3ZX","3RDTX9JRTZ7MP6YQMJD0Z3DG4HK978","32SVAV9L3HFLGQ522FTB7179OAM3AB","emotion","match","uniform","","","","","","","","463933.2000000477","465934.3000000715","","","","","","","","","","","","3","","stimuli/stars_3.png","224.5","","","","","stimuli/AF10_AO.jpg","",""
"explore-choice","139","465574","0.0-139.0","p995631","A3UUH3632AI3ZX","3RDTX9JRTZ7MP6YQMJD0Z3DG4HK978","32SVAV9L3HFLGQ522FTB7179OAM3AB","emotion","match","uniform","","","","","","","983.6999999284744","465935.8000000715","466919.5","[""stimuli/AM06_DO.jpg"",""stimuli/HF09_SC.jpg"",""stimuli/HF10_SUR.jpg"",""stimuli/AF10_AO.jpg""]","stimuli/AM06_DO.jpg","stimuli/HF09_SC.jpg","stimuli/HF10_SUR.jpg","stimuli/AF10_AO.jpg","pos2","stimuli/HF09_SC.jpg","SC","HF09","1","3.5","7","8","stimuli/stars_7.png","228","[""DO"",""SC"",""SUR"",""AO""]","[""AM06"",""HF09"",""HF10"",""AF10""]","[4,7,5,3]","[6,8,4,2]","","",""
"show-reward","140","467578","0.0-140.0","p995631","A3UUH3632AI3ZX","3RDTX9JRTZ7MP6YQMJD0Z3DG4HK978","32SVAV9L3HFLGQ522FTB7179OAM3AB","emotion","match","uniform","","","","","","","","467420.5","469423.3000000715","","","","","","","","","","","","7","","stimuli/stars_7.png","228","","","","","stimuli/HF09_SC.jpg","",""
"explore-choice","141","469352","0.0-141.0","p995631","A3UUH3632AI3ZX","3RDTX9JRTZ7MP6YQMJD0Z3DG4HK978","32SVAV9L3HFLGQ522FTB7179OAM3AB","emotion","match","uniform","","","","","","","1272","469423.89999997616","470695.89999997616","[""stimuli/AF10_AO.jpg"",""stimuli/AM06_SUR.jpg"",""stimuli/HF10_DO.jpg"",""stimuli/HF09_SC.jpg""]","stimuli/AF10_AO.jpg","stimuli/AM06_SUR.jpg","stimuli/HF10_DO.jpg","stimuli/HF09_SC.jpg","pos4","stimuli/HF09_SC.jpg","SC","HF09","3","3","6","8","stimuli/stars_6.png","231","[""AO"",""SUR"",""DO"",""SC""]","[""AF10"",""AM06"",""HF10"",""HF09""]","[0,3,7,6]","[2,4,6,8]","","",""
"show-reward","142","471353","0.0-142.0","p995631","A3UUH3632AI3ZX","3RDTX9JRTZ7MP6YQMJD0Z3DG4HK978","32SVAV9L3HFLGQ522FTB7179OAM3AB","emotion","match","uniform","","","","","","","","471197.8000000715","473198.7000000477","","","","","","","","","","","","6","","stimuli/stars_6.png","231","","","","","stimuli/HF09_SC.jpg","",""
"explore-choice","143","473629","0.0-143.0","p995631","A3UUH3632AI3ZX","3RDTX9JRTZ7MP6YQMJD0Z3DG4HK978","32SVAV9L3HFLGQ522FTB7179OAM3AB","emotion","match","uniform","","","","","","","1769.6000000238419","473199.2000000477","474968.8000000715","[""stimuli/HF09_AO.jpg"",""stimuli/HF10_DO.jpg"",""stimuli/AM06_SC.jpg"",""stimuli/AF10_SUR.jpg""]","stimuli/HF09_AO.jpg","stimuli/HF10_DO.jpg","stimuli/AM06_SC.jpg","stimuli/AF10_SUR.jpg","pos3","stimuli/AM06_SC.jpg","SC","AM06","2","3.5","7","8","stimuli/stars_7.png","234.5","[""AO"",""DO"",""SC"",""SUR""]","[""HF09"",""HF10"",""AM06"",""AF10""]","[2,8,7,4]","[2,6,8,4]","","",""
"show-reward","144","475631","0.0-144.0","p995631","A3UUH3632AI3ZX","3RDTX9JRTZ7MP6YQMJD0Z3DG4HK978","32SVAV9L3HFLGQ522FTB7179OAM3AB","emotion","match","uniform","","","","","","","","475474.8000000715","477476.5","","","","","","","","","","","","7","","stimuli/stars_7.png","234.5","","","","","stimuli/AM06_SC.jpg","",""
"explore-choice","145","477012","0.0-145.0","p995631","A3UUH3632AI3ZX","3RDTX9JRTZ7MP6YQMJD0Z3DG4HK978","32SVAV9L3HFLGQ522FTB7179OAM3AB","emotion","match","uniform","","","","","","","879","477477.8000000715","478356.8000000715","[""stimuli/HF09_DO.jpg"",""stimuli/AM06_SC.jpg"",""stimuli/AF10_AO.jpg"",""stimuli/HF10_SUR.jpg""]","stimuli/HF09_DO.jpg","stimuli/AM06_SC.jpg","stimuli/AF10_AO.jpg","stimuli/HF10_SUR.jpg","pos2","stimuli/AM06_SC.jpg","SC","AM06","1","4","8","8","stimuli/stars_8.png","238.5","[""DO"",""SC"",""AO"",""SUR""]","[""HF09"",""AM06"",""AF10"",""HF10""]","[5,8,3,4]","[6,8,2,4]","","",""
"show-reward","146","479017","0.0-146.0","p995631","A3UUH3632AI3ZX","3RDTX9JRTZ7MP6YQMJD0Z3DG4HK978","32SVAV9L3HFLGQ522FTB7179OAM3AB","emotion","match","uniform","","","","","","","","478859.3000000715","480863.10000002384","","","","","","","","","","","","8","","stimuli/stars_8.png","238.5","","","","","stimuli/AM06_SC.jpg","",""
"explore-choice","147","480792","0.0-147.0","p995631","A3UUH3632AI3ZX","3RDTX9JRTZ7MP6YQMJD0Z3DG4HK978","32SVAV9L3HFLGQ522FTB7179OAM3AB","emotion","match","uniform","","","","","","","1273.1000000238419","480863.5","482136.60000002384","[""stimuli/AM06_SUR.jpg"",""stimuli/AF10_AO.jpg"",""stimuli/HF09_DO.jpg"",""stimuli/HF10_SC.jpg""]","stimuli/AM06_SUR.jpg","stimuli/AF10_AO.jpg","stimuli/HF09_DO.jpg","stimuli/HF10_SC.jpg","pos4","stimuli/HF10_SC.jpg","SC","HF10","3","3","6","8","stimuli/stars_6.png","241.5","[""SUR"",""AO"",""DO"",""SC""]","[""AM06"",""AF10"",""HF09"",""HF10""]","[3,1,8,6]","[4,2,6,8]","","",""
"show-reward","148","482795","0.0-148.0","p995631","A3UUH3632AI3ZX","3RDTX9JRTZ7MP6YQMJD0Z3DG4HK978","32SVAV9L3HFLGQ522FTB7179OAM3AB","emotion","match","uniform","","","","","","","","482638.39999997616","484640.7000000477","","","","","","","","","","","","6","","stimuli/stars_6.png","241.5","","","","","stimuli/HF10_SC.jpg","",""
"explore-choice","149","484894","0.0-149.0","p995631","A3UUH3632AI3ZX","3RDTX9JRTZ7MP6YQMJD0Z3DG4HK978","32SVAV9L3HFLGQ522FTB7179OAM3AB","emotion","match","uniform","","","","","","","1587.2999999523163","484641.2000000477","486228.5","[""stimuli/AM06_AO.jpg"",""stimuli/AF10_SC.jpg"",""stimuli/HF09_DO.jpg"",""stimuli/HF10_SUR.jpg""]","stimuli/AM06_AO.jpg","stimuli/AF10_SC.jpg","stimuli/HF09_DO.jpg","stimuli/HF10_SUR.jpg","pos2","stimuli/AF10_SC.jpg","SC","AF10","1","4","8","8","stimuli/stars_8.png","245.5","[""AO"",""SC"",""DO"",""SUR""]","[""AM06"",""AF10"",""HF09"",""HF10""]","[4,8,4,5]","[2,8,6,4]","","",""
"show-reward","150","486900","0.0-150.0","p995631","A3UUH3632AI3ZX","3RDTX9JRTZ7MP6YQMJD0Z3DG4HK978","32SVAV9L3HFLGQ522FTB7179OAM3AB","emotion","match","uniform","","","","","","","","486741.3000000715","488745.3000000715","","","","","","","","","","","","8","","stimuli/stars_8.png","245.5","","","","","stimuli/AF10_SC.jpg","",""
"explore-choice","151","488521","0.0-151.0","p995631","A3UUH3632AI3ZX","3RDTX9JRTZ7MP6YQMJD0Z3DG4HK978","32SVAV9L3HFLGQ522FTB7179OAM3AB","emotion","match","uniform","","","","","","","1120.1999999284744","488745.7000000477","489865.89999997616","[""stimuli/AF10_DO.jpg"",""stimuli/AM06_SC.jpg"",""stimuli/HF09_SUR.jpg"",""stimuli/HF10_AO.jpg""]","stimuli/AF10_DO.jpg","stimuli/AM06_SC.jpg","stimuli/HF09_SUR.jpg","stimuli/HF10_AO.jpg","pos2","stimuli/AM06_SC.jpg","SC","AM06","1","5","10","8","stimuli/stars_10.png","250.5","[""DO"",""SC"",""SUR"",""AO""]","[""AF10"",""AM06"",""HF09"",""HF10""]","[4,10,6,0]","[6,8,4,2]","","",""
"show-reward","152","490523","0.0-152.0","p995631","A3UUH3632AI3ZX","3RDTX9JRTZ7MP6YQMJD0Z3DG4HK978","32SVAV9L3HFLGQ522FTB7179OAM3AB","emotion","match","uniform","","","","","","","","490367.2000000477","492368.8000000715","","","","","","","","","","","","10","","stimuli/stars_10.png","250.5","","","","","stimuli/AM06_SC.jpg","",""
"explore-choice","153","491796","0.0-153.0","p995631","A3UUH3632AI3ZX","3RDTX9JRTZ7MP6YQMJD0Z3DG4HK978","32SVAV9L3HFLGQ522FTB7179OAM3AB","emotion","match","uniform","","","","","","","771.6000000238419","492369.2000000477","493140.8000000715","[""stimuli/AF10_SC.jpg"",""stimuli/AM06_DO.jpg"",""stimuli/HF10_SUR.jpg"",""stimuli/HF09_AO.jpg""]","stimuli/AF10_SC.jpg","stimuli/AM06_DO.jpg","stimuli/HF10_SUR.jpg","stimuli/HF09_AO.jpg","pos1","stimuli/AF10_SC.jpg","SC","AF10","0","4.5","9","8","stimuli/stars_9.png","255","[""SC"",""DO"",""SUR"",""AO""]","[""AF10"",""AM06"",""HF10"",""HF09""]","[9,6,4,1]","[8,6,4,2]","","",""
"show-reward","154","493801","0.0-154.0","p995631","A3UUH3632AI3ZX","3RDTX9JRTZ7MP6YQMJD0Z3DG4HK978","32SVAV9L3HFLGQ522FTB7179OAM3AB","emotion","match","uniform","","","","","","","","493642.2000000477","495646.60000002384","","","","","","","","","","","","9","","stimuli/stars_9.png","255","","","","","stimuli/AF10_SC.jpg","",""
"explore-choice","155","495607","0.0-155.0","p995631","A3UUH3632AI3ZX","3RDTX9JRTZ7MP6YQMJD0Z3DG4HK978","32SVAV9L3HFLGQ522FTB7179OAM3AB","emotion","match","uniform","","","","","","","1303.2000000476837","495647.10000002384","496950.3000000715","[""stimuli/AF10_AO.jpg"",""stimuli/HF09_SUR.jpg"",""stimuli/HF10_DO.jpg"",""stimuli/AM06_SC.jpg""]","stimuli/AF10_AO.jpg","stimuli/HF09_SUR.jpg","stimuli/HF10_DO.jpg","stimuli/AM06_SC.jpg","pos4","stimuli/AM06_SC.jpg","SC","AM06","3","3.5","7","8","stimuli/stars_7.png","258.5","[""AO"",""SUR"",""DO"",""SC""]","[""AF10"",""HF09"",""HF10"",""AM06""]","[3,5,5,7]","[2,4,6,8]","","",""
"show-reward","156","497614","0.0-156.0","p995631","A3UUH3632AI3ZX","3RDTX9JRTZ7MP6YQMJD0Z3DG4HK978","32SVAV9L3HFLGQ522FTB7179OAM3AB","emotion","match","uniform","","","","","","","","497453.10000002384","499460","","","","","","","","","","","","7","","stimuli/stars_7.png","258.5","","","","","stimuli/AM06_SC.jpg","",""
"explore-choice","157","498894","0.0-157.0","p995631","A3UUH3632AI3ZX","3RDTX9JRTZ7MP6YQMJD0Z3DG4HK978","32SVAV9L3HFLGQ522FTB7179OAM3AB","emotion","match","uniform","","","","","","","779.1000000238419","499460.39999997616","500239.5","[""stimuli/AF10_SUR.jpg"",""stimuli/HF10_SC.jpg"",""stimuli/AM06_DO.jpg"",""stimuli/HF09_AO.jpg""]","stimuli/AF10_SUR.jpg","stimuli/HF10_SC.jpg","stimuli/AM06_DO.jpg","stimuli/HF09_AO.jpg","pos2","stimuli/HF10_SC.jpg","SC","HF10","1","5","10","8","stimuli/stars_10.png","263.5","[""SUR"",""SC"",""DO"",""AO""]","[""AF10"",""HF10"",""AM06"",""HF09""]","[3,10,4,1]","[4,8,6,2]","","",""
"show-reward","158","501318","0.0-158.0","p995631","A3UUH3632AI3ZX","3RDTX9JRTZ7MP6YQMJD0Z3DG4HK978","32SVAV9L3HFLGQ522FTB7179OAM3AB","emotion","match","uniform","","","","","","","","500740.2000000477","503164.2000000477","","","","","","","","","","","","10","","stimuli/stars_10.png","263.5","","","","","stimuli/HF10_SC.jpg","",""
"explore-choice","159","503312","0.0-159.0","p995631","A3UUH3632AI3ZX","3RDTX9JRTZ7MP6YQMJD0Z3DG4HK978","32SVAV9L3HFLGQ522FTB7179OAM3AB","emotion","match","uniform","","","","","","","1492.7999999523163","503164.7000000477","504657.5","[""stimuli/AF10_AO.jpg"",""stimuli/AM06_DO.jpg"",""stimuli/HF09_SUR.jpg"",""stimuli/HF10_SC.jpg""]","stimuli/AF10_AO.jpg","stimuli/AM06_DO.jpg","stimuli/HF09_SUR.jpg","stimuli/HF10_SC.jpg","pos4","stimuli/HF10_SC.jpg","SC","HF10","3","3.5","7","8","stimuli/stars_7.png","267","[""AO"",""DO"",""SUR"",""SC""]","[""AF10"",""AM06"",""HF09"",""HF10""]","[3,8,5,7]","[2,6,4,8]","","",""
"show-reward","160","505317","0.0-160.0","p995631","A3UUH3632AI3ZX","3RDTX9JRTZ7MP6YQMJD0Z3DG4HK978","32SVAV9L3HFLGQ522FTB7179OAM3AB","emotion","match","uniform","","","","","","","","505159.10000002384","507163.2000000477","","","","","","","","","","","","7","","stimuli/stars_7.png","267","","","","","stimuli/HF10_SC.jpg","",""
"explore-choice","161","507025","0.0-161.0","p995631","A3UUH3632AI3ZX","3RDTX9JRTZ7MP6YQMJD0Z3DG4HK978","32SVAV9L3HFLGQ522FTB7179OAM3AB","emotion","match","uniform","","","","","","","1205.1000000238419","507163.60000002384","508368.7000000477","[""stimuli/HF09_SUR.jpg"",""stimuli/HF10_AO.jpg"",""stimuli/AF10_SC.jpg"",""stimuli/AM06_DO.jpg""]","stimuli/HF09_SUR.jpg","stimuli/HF10_AO.jpg","stimuli/AF10_SC.jpg","stimuli/AM06_DO.jpg","pos3","stimuli/AF10_SC.jpg","SC","AF10","2","5","10","8","stimuli/stars_10.png","272","[""SUR"",""AO"",""SC"",""DO""]","[""HF09"",""HF10"",""AF10"",""AM06""]","[4,0,10,7]","[4,2,8,6]","","",""
"show-reward","162","509028","0.0-162.0","p995631","A3UUH3632AI3ZX","3RDTX9JRTZ7MP6YQMJD0Z3DG4HK978","32SVAV9L3HFLGQ522FTB7179OAM3AB","emotion","match","uniform","","","","","","","","508871.39999997616","510874.10000002384","","","","","","","","","","","","10","","stimuli/stars_10.png","272","","","","","stimuli/AF10_SC.jpg","",""
"explore-choice","163","511084","0.0-163.0","p995631","A3UUH3632AI3ZX","3RDTX9JRTZ7MP6YQMJD0Z3DG4HK978","32SVAV9L3HFLGQ522FTB7179OAM3AB","emotion","match","uniform","","","","","","","1554","510874.60000002384","512428.60000002384","[""stimuli/HF09_SUR.jpg"",""stimuli/AM06_AO.jpg"",""stimuli/HF10_SC.jpg"",""stimuli/AF10_DO.jpg""]","stimuli/HF09_SUR.jpg","stimuli/AM06_AO.jpg","stimuli/HF10_SC.jpg","stimuli/AF10_DO.jpg","pos3","stimuli/HF10_SC.jpg","SC","HF10","2","4.5","9","8","stimuli/stars_9.png","276.5","[""SUR"",""AO"",""SC"",""DO""]","[""HF09"",""AM06"",""HF10"",""AF10""]","[4,4,9,6]","[4,2,8,6]","","",""
"show-reward","164","513093","0.0-164.0","p995631","A3UUH3632AI3ZX","3RDTX9JRTZ7MP6YQMJD0Z3DG4HK978","32SVAV9L3HFLGQ522FTB7179OAM3AB","emotion","match","uniform","","","","","","","","512930.60000002384","514938.5","","","","","","","","","","","","9","","stimuli/stars_9.png","276.5","","","","","stimuli/HF10_SC.jpg","",""
"explore-choice","165","515986","0.0-165.0","p995631","A3UUH3632AI3ZX","3RDTX9JRTZ7MP6YQMJD0Z3DG4HK978","32SVAV9L3HFLGQ522FTB7179OAM3AB","emotion","match","uniform","","","","","","","2392.7000000476837","514939","517331.7000000477","[""stimuli/AF10_AO.jpg"",""stimuli/HF09_DO.jpg"",""stimuli/HF10_SC.jpg"",""stimuli/AM06_SUR.jpg""]","stimuli/AF10_AO.jpg","stimuli/HF09_DO.jpg","stimuli/HF10_SC.jpg","stimuli/AM06_SUR.jpg","pos3","stimuli/HF10_SC.jpg","SC","HF10","2","3","6","8","stimuli/stars_6.png","279.5","[""AO"",""DO"",""SC"",""SUR""]","[""AF10"",""HF09"",""HF10"",""AM06""]","[1,8,6,3]","[2,6,8,4]","","",""
"show-reward","166","517989","0.0-166.0","p995631","A3UUH3632AI3ZX","3RDTX9JRTZ7MP6YQMJD0Z3DG4HK978","32SVAV9L3HFLGQ522FTB7179OAM3AB","emotion","match","uniform","","","","","","","","517832.60000002384","519834.5","","","","","","","","","","","","6","","stimuli/stars_6.png","279.5","","","","","stimuli/HF10_SC.jpg","",""
"explore-choice","167","520021","0.0-167.0","p995631","A3UUH3632AI3ZX","3RDTX9JRTZ7MP6YQMJD0Z3DG4HK978","32SVAV9L3HFLGQ522FTB7179OAM3AB","emotion","match","uniform","","","","","","","1531.7000000476837","519834.89999997616","521366.60000002384","[""stimuli/HF09_DO.jpg"",""stimuli/HF10_SUR.jpg"",""stimuli/AM06_SC.jpg"",""stimuli/AF10_AO.jpg""]","stimuli/HF09_DO.jpg","stimuli/HF10_SUR.jpg","stimuli/AM06_SC.jpg","stimuli/AF10_AO.jpg","pos3","stimuli/AM06_SC.jpg","SC","AM06","2","4","8","8","stimuli/stars_8.png","283.5","[""DO"",""SUR"",""SC"",""AO""]","[""HF09"",""HF10"",""AM06"",""AF10""]","[5,4,8,3]","[6,4,8,2]","","",""
"show-reward","168","522038","0.0-168.0","p995631","A3UUH3632AI3ZX","3RDTX9JRTZ7MP6YQMJD0Z3DG4HK978","32SVAV9L3HFLGQ522FTB7179OAM3AB","emotion","match","uniform","","","","","","","","521867.5","523883.60000002384","","","","","","","","","","","","8","","stimuli/stars_8.png","283.5","","","","","stimuli/AM06_SC.jpg","",""
"explore-choice","169","523266","0.0-169.0","p995631","A3UUH3632AI3ZX","3RDTX9JRTZ7MP6YQMJD0Z3DG4HK978","32SVAV9L3HFLGQ522FTB7179OAM3AB","emotion","match","uniform","","","","","","","724.3999999761581","523885.3000000715","524609.7000000477","[""stimuli/AF10_DO.jpg"",""stimuli/HF09_SC.jpg"",""stimuli/HF10_SUR.jpg"",""stimuli/AM06_AO.jpg""]","stimuli/AF10_DO.jpg","stimuli/HF09_SC.jpg","stimuli/HF10_SUR.jpg","stimuli/AM06_AO.jpg","pos2","stimuli/HF09_SC.jpg","SC","HF09","1","3.5","7","8","stimuli/stars_7.png","287","[""DO"",""SC"",""SUR"",""AO""]","[""AF10"",""HF09"",""HF10"",""AM06""]","[6,7,5,2]","[6,8,4,2]","","",""
"show-reward","170","525268","0.0-170.0","p995631","A3UUH3632AI3ZX","3RDTX9JRTZ7MP6YQMJD0Z3DG4HK978","32SVAV9L3HFLGQ522FTB7179OAM3AB","emotion","match","uniform","","","","","","","","525111.8000000715","527113.3999999762","","","","","","","","","","","","7","","stimuli/stars_7.png","287","","","","","stimuli/HF09_SC.jpg","",""
"explore-choice","171","526466","0.0-171.0","p995631","A3UUH3632AI3ZX","3RDTX9JRTZ7MP6YQMJD0Z3DG4HK978","32SVAV9L3HFLGQ522FTB7179OAM3AB","emotion","match","uniform","","","","","","","697.3999999761581","527113.8000000715","527811.2000000477","[""stimuli/AM06_AO.jpg"",""stimuli/HF09_SC.jpg"",""stimuli/HF10_DO.jpg"",""stimuli/AF10_SUR.jpg""]","stimuli/AM06_AO.jpg","stimuli/HF09_SC.jpg","stimuli/HF10_DO.jpg","stimuli/AF10_SUR.jpg","pos2","stimuli/HF09_SC.jpg","SC","HF09","1","4","8","8","stimuli/stars_8.png","291","[""AO"",""SC"",""DO"",""SUR""]","[""AM06"",""HF09"",""HF10"",""AF10""]","[2,8,8,3]","[2,8,6,4]","","",""
"show-reward","172","528469","0.0-172.0","p995631","A3UUH3632AI3ZX","3RDTX9JRTZ7MP6YQMJD0Z3DG4HK978","32SVAV9L3HFLGQ522FTB7179OAM3AB","emotion","match","uniform","","","","","","","","528312.7000000477","530314.6000000238","","","","","","","","","","","","8","","stimuli/stars_8.png","291","","","","","stimuli/HF09_SC.jpg","",""
"explore-choice","173","530114","0.0-173.0","p995631","A3UUH3632AI3ZX","3RDTX9JRTZ7MP6YQMJD0Z3DG4HK978","32SVAV9L3HFLGQ522FTB7179OAM3AB","emotion","match","uniform","","","","","","","1142.5","530315","531457.5","[""stimuli/AF10_DO.jpg"",""stimuli/AM06_SUR.jpg"",""stimuli/HF09_AO.jpg"",""stimuli/HF10_SC.jpg""]","stimuli/AF10_DO.jpg","stimuli/AM06_SUR.jpg","stimuli/HF09_AO.jpg","stimuli/HF10_SC.jpg","pos4","stimuli/HF10_SC.jpg","SC","HF10","3","3.5","7","8","stimuli/stars_7.png","294.5","[""DO"",""SUR"",""AO"",""SC""]","[""AF10"",""AM06"",""HF09"",""HF10""]","[8,3,2,7]","[6,4,2,8]","","",""
"show-reward","174","532116","0.0-174.0","p995631","A3UUH3632AI3ZX","3RDTX9JRTZ7MP6YQMJD0Z3DG4HK978","32SVAV9L3HFLGQ522FTB7179OAM3AB","emotion","match","uniform","","","","","","","","531960.5","533962.1000000238","","","","","","","","","","","","7","","stimuli/stars_7.png","294.5","","","","","stimuli/HF10_SC.jpg","",""
"explore-choice","175","533594","0.0-175.0","p995631","A3UUH3632AI3ZX","3RDTX9JRTZ7MP6YQMJD0Z3DG4HK978","32SVAV9L3HFLGQ522FTB7179OAM3AB","emotion","match","uniform","","","","","","","977","533962.5","534939.5","[""stimuli/HF09_SC.jpg"",""stimuli/AF10_DO.jpg"",""stimuli/AM06_SUR.jpg"",""stimuli/HF10_AO.jpg""]","stimuli/HF09_SC.jpg","stimuli/AF10_DO.jpg","stimuli/AM06_SUR.jpg","stimuli/HF10_AO.jpg","pos1","stimuli/HF09_SC.jpg","SC","HF09","0","5","10","8","stimuli/stars_10.png","299.5","[""SC"",""DO"",""SUR"",""AO""]","[""HF09"",""AF10"",""AM06"",""HF10""]","[10,4,4,4]","[8,6,4,2]","","",""
"show-reward","176","535597","0.0-176.0","p995631","A3UUH3632AI3ZX","3RDTX9JRTZ7MP6YQMJD0Z3DG4HK978","32SVAV9L3HFLGQ522FTB7179OAM3AB","emotion","match","uniform","","","","","","","","535440.6000000238","537442.8000000715","","","","","","","","","","","","10","","stimuli/stars_10.png","299.5","","","","","stimuli/HF09_SC.jpg","",""
"explore-choice","177","537015","0.0-177.0","p995631","A3UUH3632AI3ZX","3RDTX9JRTZ7MP6YQMJD0Z3DG4HK978","32SVAV9L3HFLGQ522FTB7179OAM3AB","emotion","match","uniform","","","","","","","902.9000000953674","537443.3999999762","538346.3000000715","[""stimuli/AM06_SC.jpg"",""stimuli/AF10_DO.jpg"",""stimuli/HF09_AO.jpg"",""stimuli/HF10_SUR.jpg""]","stimuli/AM06_SC.jpg","stimuli/AF10_DO.jpg","stimuli/HF09_AO.jpg","stimuli/HF10_SUR.jpg","pos1","stimuli/AM06_SC.jpg","SC","AM06","0","5","10","8","stimuli/stars_10.png","304.5","[""SC"",""DO"",""AO"",""SUR""]","[""AM06"",""AF10"",""HF09"",""HF10""]","[10,8,4,6]","[8,6,2,4]","","",""
"show-reward","178","539018","0.0-178.0","p995631","A3UUH3632AI3ZX","3RDTX9JRTZ7MP6YQMJD0Z3DG4HK978","32SVAV9L3HFLGQ522FTB7179OAM3AB","emotion","match","uniform","","","","","","","","538861.2000000477","540863.3000000715","","","","","","","","","","","","10","","stimuli/stars_10.png","304.5","","","","","stimuli/AM06_SC.jpg","",""
"explore-choice","179","540395","0.0-179.0","p995631","A3UUH3632AI3ZX","3RDTX9JRTZ7MP6YQMJD0Z3DG4HK978","32SVAV9L3HFLGQ522FTB7179OAM3AB","emotion","match","uniform","","","","","","","860.5","540863.8000000715","541724.3000000715","[""stimuli/HF09_SC.jpg"",""stimuli/HF10_DO.jpg"",""stimuli/AM06_SUR.jpg"",""stimuli/AF10_AO.jpg""]","stimuli/HF09_SC.jpg","stimuli/HF10_DO.jpg","stimuli/AM06_SUR.jpg","stimuli/AF10_AO.jpg","pos1","stimuli/HF09_SC.jpg","SC","HF09","0","3","6","8","stimuli/stars_6.png","307.5","[""SC"",""DO"",""SUR"",""AO""]","[""HF09"",""HF10"",""AM06"",""AF10""]","[6,7,3,0]","[8,6,4,2]","","",""
"show-reward","180","542397","0.0-180.0","p995631","A3UUH3632AI3ZX","3RDTX9JRTZ7MP6YQMJD0Z3DG4HK978","32SVAV9L3HFLGQ522FTB7179OAM3AB","emotion","match","uniform","","","","","","","","542240.8000000715","544242.8000000715","","","","","","","","","","","","6","","stimuli/stars_6.png","307.5","","","","","stimuli/HF09_SC.jpg","",""
"explore-choice","181","543602","0.0-181.0","p995631","A3UUH3632AI3ZX","3RDTX9JRTZ7MP6YQMJD0Z3DG4HK978","32SVAV9L3HFLGQ522FTB7179OAM3AB","emotion","match","uniform","","","","","","","703.2000000476837","544243.3999999762","544946.6000000238","[""stimuli/HF10_SC.jpg"",""stimuli/AM06_AO.jpg"",""stimuli/HF09_DO.jpg"",""stimuli/AF10_SUR.jpg""]","stimuli/HF10_SC.jpg","stimuli/AM06_AO.jpg","stimuli/HF09_DO.jpg","stimuli/AF10_SUR.jpg","pos1","stimuli/HF10_SC.jpg","SC","HF10","0","4","8","8","stimuli/stars_8.png","311.5","[""SC"",""AO"",""DO"",""SUR""]","[""HF10"",""AM06"",""HF09"",""AF10""]","[8,1,5,2]","[8,2,6,4]","","",""
"show-reward","182","545609","0.0-182.0","p995631","A3UUH3632AI3ZX","3RDTX9JRTZ7MP6YQMJD0Z3DG4HK978","32SVAV9L3HFLGQ522FTB7179OAM3AB","emotion","match","uniform","","","","","","","","545449.3000000715","547454.5","","","","","","","","","","","","8","","stimuli/stars_8.png","311.5","","","","","stimuli/HF10_SC.jpg","",""
"explore-choice","183","547417","0.0-183.0","p995631","A3UUH3632AI3ZX","3RDTX9JRTZ7MP6YQMJD0Z3DG4HK978","32SVAV9L3HFLGQ522FTB7179OAM3AB","emotion","match","uniform","","","","","","","1305.6999999284744","547455.8000000715","548761.5","[""stimuli/AF10_SUR.jpg"",""stimuli/HF10_DO.jpg"",""stimuli/HF09_AO.jpg"",""stimuli/AM06_SC.jpg""]","stimuli/AF10_SUR.jpg","stimuli/HF10_DO.jpg","stimuli/HF09_AO.jpg","stimuli/AM06_SC.jpg","pos4","stimuli/AM06_SC.jpg","SC","AM06","3","3.5","7","8","stimuli/stars_7.png","315","[""SUR"",""DO"",""AO"",""SC""]","[""AF10"",""HF10"",""HF09"",""AM06""]","[4,8,2,7]","[4,6,2,8]","","",""
"show-reward","184","549424","0.0-184.0","p995631","A3UUH3632AI3ZX","3RDTX9JRTZ7MP6YQMJD0Z3DG4HK978","32SVAV9L3HFLGQ522FTB7179OAM3AB","emotion","match","uniform","","","","","","","","549263.8999999762","551269.6000000238","","","","","","","","","","","","7","","stimuli/stars_7.png","315","","","","","stimuli/AM06_SC.jpg","",""
"explore-choice","185","550618","0.0-185.0","p995631","A3UUH3632AI3ZX","3RDTX9JRTZ7MP6YQMJD0Z3DG4HK978","32SVAV9L3HFLGQ522FTB7179OAM3AB","emotion","match","uniform","","","","","","","691.6999999284744","551270.7000000477","551962.3999999762","[""stimuli/AM06_SUR.jpg"",""stimuli/AF10_SC.jpg"",""stimuli/HF10_AO.jpg"",""stimuli/HF09_DO.jpg""]","stimuli/AM06_SUR.jpg","stimuli/AF10_SC.jpg","stimuli/HF10_AO.jpg","stimuli/HF09_DO.jpg","pos2","stimuli/AF10_SC.jpg","SC","AF10","1","4","8","8","stimuli/stars_8.png","319","[""SUR"",""SC"",""AO"",""DO""]","[""AM06"",""AF10"",""HF10"",""HF09""]","[2,8,0,7]","[4,8,2,6]","","",""
"show-reward","186","552620","0.0-186.0","p995631","A3UUH3632AI3ZX","3RDTX9JRTZ7MP6YQMJD0Z3DG4HK978","32SVAV9L3HFLGQ522FTB7179OAM3AB","emotion","match","uniform","","","","","","","","552463.8999999762","554466.2000000477","","","","","","","","","","","","8","","stimuli/stars_8.png","319","","","","","stimuli/AF10_SC.jpg","",""
"explore-choice","187","553878","0.0-187.0","p995631","A3UUH3632AI3ZX","3RDTX9JRTZ7MP6YQMJD0Z3DG4HK978","32SVAV9L3HFLGQ522FTB7179OAM3AB","emotion","match","uniform","","","","","","","756.7000000476837","554466.6000000238","555223.3000000715","[""stimuli/HF10_SUR.jpg"",""stimuli/HF09_SC.jpg"",""stimuli/AM06_DO.jpg"",""stimuli/AF10_AO.jpg""]","stimuli/HF10_SUR.jpg","stimuli/HF09_SC.jpg","stimuli/AM06_DO.jpg","stimuli/AF10_AO.jpg","pos2","stimuli/HF09_SC.jpg","SC","HF09","1","3.5","7","8","stimuli/stars_7.png","322.5","[""SUR"",""SC"",""DO"",""AO""]","[""HF10"",""HF09"",""AM06"",""AF10""]","[5,7,4,3]","[4,8,6,2]","","",""
"show-reward","188","555884","0.0-188.0","p995631","A3UUH3632AI3ZX","3RDTX9JRTZ7MP6YQMJD0Z3DG4HK978","32SVAV9L3HFLGQ522FTB7179OAM3AB","emotion","match","uniform","","","","","","","","555725.8000000715","557729.5","","","","","","","","","","","","7","","stimuli/stars_7.png","322.5","","","","","stimuli/HF09_SC.jpg","",""
"explore-choice","189","557912","0.0-189.0","p995631","A3UUH3632AI3ZX","3RDTX9JRTZ7MP6YQMJD0Z3DG4HK978","32SVAV9L3HFLGQ522FTB7179OAM3AB","emotion","match","uniform","","","","","","","1514.1000000238419","557731.3999999762","559245.5","[""stimuli/HF09_AO.jpg"",""stimuli/HF10_DO.jpg"",""stimuli/AM06_SUR.jpg"",""stimuli/AF10_SC.jpg""]","stimuli/HF09_AO.jpg","stimuli/HF10_DO.jpg","stimuli/AM06_SUR.jpg","stimuli/AF10_SC.jpg","pos4","stimuli/AF10_SC.jpg","SC","AF10","3","5","10","8","stimuli/stars_10.png","327.5","[""AO"",""DO"",""SUR"",""SC""]","[""HF09"",""HF10"",""AM06"",""AF10""]","[3,7,6,10]","[2,6,4,8]","","",""
"show-reward","190","559915","0.0-190.0","p995631","A3UUH3632AI3ZX","3RDTX9JRTZ7MP6YQMJD0Z3DG4HK978","32SVAV9L3HFLGQ522FTB7179OAM3AB","emotion","match","uniform","","","","","","","","559758.8000000715","561760.3000000715","","","","","","","","","","","","10","","stimuli/stars_10.png","327.5","","","","","stimuli/AF10_SC.jpg","",""
"explore-choice","191","561598","0.0-191.0","p995631","A3UUH3632AI3ZX","3RDTX9JRTZ7MP6YQMJD0Z3DG4HK978","32SVAV9L3HFLGQ522FTB7179OAM3AB","emotion","match","uniform","","","","","","","1182.6000000238419","561761.7000000477","562944.3000000715","[""stimuli/HF10_AO.jpg"",""stimuli/HF09_DO.jpg"",""stimuli/AF10_SUR.jpg"",""stimuli/AM06_SC.jpg""]","stimuli/HF10_AO.jpg","stimuli/HF09_DO.jpg","stimuli/AF10_SUR.jpg","stimuli/AM06_SC.jpg","pos4","stimuli/AM06_SC.jpg","SC","AM06","3","5","10","8","stimuli/stars_10.png","332.5","[""AO"",""DO"",""SUR"",""SC""]","[""HF10"",""HF09"",""AF10"",""AM06""]","[0,7,6,10]","[2,6,4,8]","","",""
"show-reward","192","563600","0.0-192.0","p995631","A3UUH3632AI3ZX","3RDTX9JRTZ7MP6YQMJD0Z3DG4HK978","32SVAV9L3HFLGQ522FTB7179OAM3AB","emotion","match","uniform","","","","","","","","563444.8999999762","565446.1000000238","","","","","","","","","","","","10","","stimuli/stars_10.png","332.5","","","","","stimuli/AM06_SC.jpg","",""
"explore-choice","193","564883","0.0-193.0","p995631","A3UUH3632AI3ZX","3RDTX9JRTZ7MP6YQMJD0Z3DG4HK978","32SVAV9L3HFLGQ522FTB7179OAM3AB","emotion","match","uniform","","","","","","","781.5","565446.6000000238","566228.1000000238","[""stimuli/AM06_AO.jpg"",""stimuli/HF10_SUR.jpg"",""stimuli/HF09_DO.jpg"",""stimuli/AF10_SC.jpg""]","stimuli/AM06_AO.jpg","stimuli/HF10_SUR.jpg","stimuli/HF09_DO.jpg","stimuli/AF10_SC.jpg","pos4","stimuli/AF10_SC.jpg","SC","AF10","3","4","8","8","stimuli/stars_8.png","336.5","[""AO"",""SUR"",""DO"",""SC""]","[""AM06"",""HF10"",""HF09"",""AF10""]","[4,5,4,8]","[2,4,6,8]","","",""
"show-reward","194","566884","0.0-194.0","p995631","A3UUH3632AI3ZX","3RDTX9JRTZ7MP6YQMJD0Z3DG4HK978","32SVAV9L3HFLGQ522FTB7179OAM3AB","emotion","match","uniform","","","","","","","","566729.2000000477","568730.3999999762","","","","","","","","","","","","8","","stimuli/stars_8.png","336.5","","","","","stimuli/AF10_SC.jpg","",""
"explore-choice","195","569115","0.0-195.0","p995631","A3UUH3632AI3ZX","3RDTX9JRTZ7MP6YQMJD0Z3DG4HK978","32SVAV9L3HFLGQ522FTB7179OAM3AB","emotion","match","uniform","","","","","","","1729.6999999284744","568730.8000000715","570460.5","[""stimuli/AF10_SUR.jpg"",""stimuli/HF09_SC.jpg"",""stimuli/HF10_AO.jpg"",""stimuli/AM06_DO.jpg""]","stimuli/AF10_SUR.jpg","stimuli/HF09_SC.jpg","stimuli/HF10_AO.jpg","stimuli/AM06_DO.jpg","pos2","stimuli/HF09_SC.jpg","SC","HF09","1","3.5","7","8","stimuli/stars_7.png","340","[""SUR"",""SC"",""AO"",""DO""]","[""AF10"",""HF09"",""HF10"",""AM06""]","[4,7,1,5]","[4,8,2,6]","","",""
"show-reward","196","571117","0.0-196.0","p995631","A3UUH3632AI3ZX","3RDTX9JRTZ7MP6YQMJD0Z3DG4HK978","32SVAV9L3HFLGQ522FTB7179OAM3AB","emotion","match","uniform","","","","","","","","570961.5","572962.6000000238","","","","","","","","","","","","7","","stimuli/stars_7.png","340","","","","","stimuli/HF09_SC.jpg","",""
"explore-choice","197","572607","0.0-197.0","p995631","A3UUH3632AI3ZX","3RDTX9JRTZ7MP6YQMJD0Z3DG4HK978","32SVAV9L3HFLGQ522FTB7179OAM3AB","emotion","match","uniform","","","","","","","989.5","572963.1000000238","573952.6000000238","[""stimuli/AM06_AO.jpg"",""stimuli/HF09_SUR.jpg"",""stimuli/AF10_SC.jpg"",""stimuli/HF10_DO.jpg""]","stimuli/AM06_AO.jpg","stimuli/HF09_SUR.jpg","stimuli/AF10_SC.jpg","stimuli/HF10_DO.jpg","pos3","stimuli/AF10_SC.jpg","SC","AF10","2","4","8","8","stimuli/stars_8.png","344","[""AO"",""SUR"",""SC"",""DO""]","[""AM06"",""HF09"",""AF10"",""HF10""]","[4,6,8,6]","[2,4,8,6]","","",""
"show-reward","198","574610","0.0-198.0","p995631","A3UUH3632AI3ZX","3RDTX9JRTZ7MP6YQMJD0Z3DG4HK978","32SVAV9L3HFLGQ522FTB7179OAM3AB","emotion","match","uniform","","","","","","","","574454.1000000238","576456.1000000238","","","","","","","","","","","","8","","stimuli/stars_8.png","344","","","","","stimuli/AF10_SC.jpg","",""
"instructions","199","579452","0.0-199.0","p995631","A3UUH3632AI3ZX","3RDTX9JRTZ7MP6YQMJD0Z3DG4HK978","32SVAV9L3HFLGQ522FTB7179OAM3AB","emotion","match","uniform","","","","","","[{""page_index"":0,""viewing_time"":4840.5}]","4840.899999976158","","","","","","","","","","","","","","","","","","","","","","","",""
"survey-text","200","581624","0.0-200.0-0.0","p995631","A3UUH3632AI3ZX","3RDTX9JRTZ7MP6YQMJD0Z3DG4HK978","32SVAV9L3HFLGQ522FTB7179OAM3AB","emotion","match","uniform","","","","","","","2169.600000023842","","","","","","","","","","","","","","","","","","","","","","","{""age"":""37""}",""
"survey-text","201","584394","0.0-200.0-1.0","p995631","A3UUH3632AI3ZX","3RDTX9JRTZ7MP6YQMJD0Z3DG4HK978","32SVAV9L3HFLGQ522FTB7179OAM3AB","emotion","match","uniform","","","","","","","2768.6999999284744","","","","","","","","","","","","","","","","","","","","","","","{""gender"":""female""}",""
"survey-text","202","586416","0.0-200.0-2.0","p995631","A3UUH3632AI3ZX","3RDTX9JRTZ7MP6YQMJD0Z3DG4HK978","32SVAV9L3HFLGQ522FTB7179OAM3AB","emotion","match","uniform","","","","","","","2020.7000000476837","","","","","","","","","","","","","","","","","","","","","","","{""country"":""us""}",""
"survey-text","203","591491","0.0-200.0-3.0","p995631","A3UUH3632AI3ZX","3RDTX9JRTZ7MP6YQMJD0Z3DG4HK978","32SVAV9L3HFLGQ522FTB7179OAM3AB","emotion","match","uniform","","","","","","","5073.699999928474","","","","","","","","","","","","","","","","","","","","","","","{""language"":""english"",""other_languages"":""""}",""
"survey-multi-select","204","593078","0.0-201.0","p995631","A3UUH3632AI3ZX","3RDTX9JRTZ7MP6YQMJD0Z3DG4HK978","32SVAV9L3HFLGQ522FTB7179OAM3AB","emotion","match","uniform","","","","","","","1583.6999999284744","","","","","","","","","","","","","","","","","","","","","","","{""race"":[""White""]}","[0]"
"survey-multi-choice","205","595123","0.0-202.0","p995631","A3UUH3632AI3ZX","3RDTX9JRTZ7MP6YQMJD0Z3DG4HK978","32SVAV9L3HFLGQ522FTB7179OAM3AB","emotion","match","uniform","","","","","","","2043.5","","","","","","","","","","","","","","","","","","","","","","","{""education"":""Bachelor's degree""}","[0]"
"survey-text","206","667181","0.0-203.0","p995631","A3UUH3632AI3ZX","3RDTX9JRTZ7MP6YQMJD0Z3DG4HK978","32SVAV9L3HFLGQ522FTB7179OAM3AB","emotion","match","uniform","","","","","","","72056.20000004768","","","","","","","","","","","","","","","","","","","","","","","{""patterns"":""no"",""strategy"":""faces that weren't making crazy faces"",""comments"":""""}",""
