"trial_type","trial_index","time_elapsed","internal_node_id","subject","workerId","hitId","assignmentId","structure_condition","match_condition","noise_type","success","timeout","failed_images","failed_audio","failed_video","view_history","rt","start_time","end_time","stimuli","image1","image2","image3","image4","choiceLocation","choiceImage","choiceEmotion","choiceModel","choice_index","reward_score","reward","reward_score_unadjusted","reward_image","score_after_trial","emotions","models","rewards","rewards_unadjusted","stimulus","response","question_order"
"pavlovia","0","11","0.0-0.0","p47485","A2E0LU8V4EUX5C","336OE47KI3QZCSCUXSQ8J11UOZXVWV","3907X2AHF2B3ICFLNYX3EMRCHGV2PK","model","match","uniform","","","","","","","","","","","","","","","","","","","","","","","","","","","","","","",""
"preload","1","15045","0.0-1.0","p47485","A2E0LU8V4EUX5C","336OE47KI3QZCSCUXSQ8J11UOZXVWV","3907X2AHF2B3ICFLNYX3EMRCHGV2PK","model","match","uniform","true","false","[]","[]","[]","","","","","","","","","","","","","","","","","","","","","","","","","",""
"fullscreen","2","25118","0.0-2.0","p47485","A2E0LU8V4EUX5C","336OE47KI3QZCSCUXSQ8J11UOZXVWV","3907X2AHF2B3ICFLNYX3EMRCHGV2PK","model","match","uniform","true","","","","","","","","","","","","","","","","","","","","","","","","","","","","","",""
"instructions","3","29989","0.0-3.0","p47485","A2E0LU8V4EUX5C","336OE47KI3QZCSCUXSQ8J11UOZXVWV","3907X2AHF2B3ICFLNYX3EMRCHGV2PK","model","match","uniform","","","","","","[{""page_index"":0,""viewing_time"":4869.0999999996275}]","4869.5","","","","","","","","","","","","","","","","","","","","","","","",""
"explore-choice","4","33035","0.0-4.0","p47485","A2E0LU8V4EUX5C","336OE47KI3QZCSCUXSQ8J11UOZXVWV","3907X2AHF2B3ICFLNYX3EMRCHGV2PK","model","match","uniform","","","","","","","2543.5","31923.400000000373","34466.90000000037","[""stimuli/sheep.jpg"",""stimuli/hammer.jpg"",""stimuli/basketball.jpg"",""stimuli/horse.jpg""]","stimuli/sheep.jpg","stimuli/hammer.jpg","stimuli/basketball.jpg","stimuli/horse.jpg","pos4","stimuli/horse.jpg","","","3","64","64","64","stimuli/stars_8.png","65","","","","","","",""
"explore-choice","5","34906","0.0-5.0","p47485","A2E0LU8V4EUX5C","336OE47KI3QZCSCUXSQ8J11UOZXVWV","3907X2AHF2B3ICFLNYX3EMRCHGV2PK","model","match","uniform","","","","","","","1367.7999999988824","34970.800000000745","36338.59999999963","[""stimuli/hammer.jpg"",""stimuli/basketball.jpg"",""stimuli/horse.jpg"",""stimuli/sheep.jpg""]","stimuli/hammer.jpg","stimuli/basketball.jpg","stimuli/horse.jpg","stimuli/sheep.jpg","pos1","stimuli/hammer.jpg","","","0","8","8","8","stimuli/stars_2.png","9","","","","","","",""
"instructions","6","51749","0.0-6.0","p47485","A2E0LU8V4EUX5C","336OE47KI3QZCSCUXSQ8J11UOZXVWV","3907X2AHF2B3ICFLNYX3EMRCHGV2PK","model","match","uniform","","","","","","[{""page_index"":0,""viewing_time"":16841.699999999255}]","16841.900000000373","","","","","","","","","","","","","","","","","","","","","","","",""
"explore-choice","7","55058","0.0-7.0","p47485","A2E0LU8V4EUX5C","336OE47KI3QZCSCUXSQ8J11UOZXVWV","3907X2AHF2B3ICFLNYX3EMRCHGV2PK","model","match","uniform","","","","","","","2806.89999999851","53683.300000000745","56490.199999999255","[""stimuli/AM06_DO.jpg"",""stimuli/WF11_HO.jpg"",""stimuli/WM07_SUR.jpg"",""stimuli/WF14_SC.jpg""]","stimuli/AM06_DO.jpg","stimuli/WF11_HO.jpg","stimuli/WM07_SUR.jpg","stimuli/WF14_SC.jpg","pos2","stimuli/WF11_HO.jpg","HO","WF11","1","0","0","2","stimuli/stars_0.png","1","[""DO"",""HO"",""SUR"",""SC""]","[""AM06"",""WF11"",""WM07"",""WF14""]","[4,0,5,9]","[4,2,6,8]","","",""
"show-reward","8","57066","0.0-8.0","p47485","A2E0LU8V4EUX5C","336OE47KI3QZCSCUXSQ8J11UOZXVWV","3907X2AHF2B3ICFLNYX3EMRCHGV2PK","model","match","uniform","","","","","","","","56996","58999.59999999963","","","","","","","","","","","","0","","stimuli/stars_0.png","1","","","","","stimuli/WF11_HO.jpg","",""
"explore-choice","9","59282","0.0-9.0","p47485","A2E0LU8V4EUX5C","336OE47KI3QZCSCUXSQ8J11UOZXVWV","3907X2AHF2B3ICFLNYX3EMRCHGV2PK","model","match","uniform","","","","","","","1712.800000000745","59001.699999999255","60714.5","[""stimuli/AM06_HO.jpg"",""stimuli/WF11_SUR.jpg"",""stimuli/WF14_DO.jpg"",""stimuli/WM07_SC.jpg""]","stimuli/AM06_HO.jpg","stimuli/WF11_SUR.jpg","stimuli/WF14_DO.jpg","stimuli/WM07_SC.jpg","pos4","stimuli/WM07_SC.jpg","SC","WM07","3","3","6","6","stimuli/stars_6.png","4","[""HO"",""SUR"",""DO"",""SC""]","[""AM06"",""WF11"",""WF14"",""WM07""]","[3,2,6,6]","[4,2,8,6]","","",""
"show-reward","10","61289","0.0-10.0","p47485","A2E0LU8V4EUX5C","336OE47KI3QZCSCUXSQ8J11UOZXVWV","3907X2AHF2B3ICFLNYX3EMRCHGV2PK","model","match","uniform","","","","","","","","61217.300000000745","63222.5","","","","","","","","","","","","6","","stimuli/stars_6.png","4","","","","","stimuli/WM07_SC.jpg","",""
"explore-choice","11","63506","0.0-11.0","p47485","A2E0LU8V4EUX5C","336OE47KI3QZCSCUXSQ8J11UOZXVWV","3907X2AHF2B3ICFLNYX3EMRCHGV2PK","model","match","uniform","","","","","","","1715.0999999996275","63223.300000000745","64938.40000000037","[""stimuli/WF14_SC.jpg"",""stimuli/WM07_HO.jpg"",""stimuli/WF11_DO.jpg"",""stimuli/AM06_SUR.jpg""]","stimuli/WF14_SC.jpg","stimuli/WM07_HO.jpg","stimuli/WF11_DO.jpg","stimuli/AM06_SUR.jpg","pos2","stimuli/WM07_HO.jpg","HO","WM07","1","3.5","7","6","stimuli/stars_7.png","7.5","[""SC"",""HO"",""DO"",""SUR""]","[""WF14"",""WM07"",""WF11"",""AM06""]","[10,7,3,3]","[8,6,2,4]","","",""
"show-reward","12","65511","0.0-12.0","p47485","A2E0LU8V4EUX5C","336OE47KI3QZCSCUXSQ8J11UOZXVWV","3907X2AHF2B3ICFLNYX3EMRCHGV2PK","model","match","uniform","","","","","","","","65441.40000000037","67445.09999999963","","","","","","","","","","","","7","","stimuli/stars_7.png","7.5","","","","","stimuli/WM07_HO.jpg","",""
"explore-choice","13","68225","0.0-13.0","p47485","A2E0LU8V4EUX5C","336OE47KI3QZCSCUXSQ8J11UOZXVWV","3907X2AHF2B3ICFLNYX3EMRCHGV2PK","model","match","uniform","","","","","","","2211.5","67446.90000000037","69658.40000000037","[""stimuli/WF11_SUR.jpg"",""stimuli/AM06_DO.jpg"",""stimuli/WF14_SC.jpg"",""stimuli/WM07_HO.jpg""]","stimuli/WF11_SUR.jpg","stimuli/AM06_DO.jpg","stimuli/WF14_SC.jpg","stimuli/WM07_HO.jpg","pos4","stimuli/WM07_HO.jpg","HO","WM07","3","2","4","6","stimuli/stars_4.png","9.5","[""SUR"",""DO"",""SC"",""HO""]","[""WF11"",""AM06"",""WF14"",""WM07""]","[0,5,9,4]","[2,4,8,6]","","",""
"show-reward","14","70232","0.0-14.0","p47485","A2E0LU8V4EUX5C","336OE47KI3QZCSCUXSQ8J11UOZXVWV","3907X2AHF2B3ICFLNYX3EMRCHGV2PK","model","match","uniform","","","","","","","","70160.80000000075","72165.5","","","","","","","","","","","","4","","stimuli/stars_4.png","9.5","","","","","stimuli/WM07_HO.jpg","",""
"explore-choice","15","72130","0.0-15.0","p47485","A2E0LU8V4EUX5C","336OE47KI3QZCSCUXSQ8J11UOZXVWV","3907X2AHF2B3ICFLNYX3EMRCHGV2PK","model","match","uniform","","","","","","","1394.5999999996275","72167.80000000075","73562.40000000037","[""stimuli/WF14_DO.jpg"",""stimuli/AM06_SUR.jpg"",""stimuli/WM07_HO.jpg"",""stimuli/WF11_SC.jpg""]","stimuli/WF14_DO.jpg","stimuli/AM06_SUR.jpg","stimuli/WM07_HO.jpg","stimuli/WF11_SC.jpg","pos1","stimuli/WF14_DO.jpg","DO","WF14","0","4.5","9","8","stimuli/stars_9.png","14","[""DO"",""SUR"",""HO"",""SC""]","[""WF14"",""AM06"",""WM07"",""WF11""]","[9,5,7,2]","[8,4,6,2]","","",""
"show-reward","16","74136","0.0-16.0","p47485","A2E0LU8V4EUX5C","336OE47KI3QZCSCUXSQ8J11UOZXVWV","3907X2AHF2B3ICFLNYX3EMRCHGV2PK","model","match","uniform","","","","","","","","74065.40000000037","76070.09999999963","","","","","","","","","","","","9","","stimuli/stars_9.png","14","","","","","stimuli/WF14_DO.jpg","",""
"explore-choice","17","76361","0.0-17.0","p47485","A2E0LU8V4EUX5C","336OE47KI3QZCSCUXSQ8J11UOZXVWV","3907X2AHF2B3ICFLNYX3EMRCHGV2PK","model","match","uniform","","","","","","","1722.4000000003725","76072","77794.40000000037","[""stimuli/WM07_DO.jpg"",""stimuli/WF14_SUR.jpg"",""stimuli/AM06_SC.jpg"",""stimuli/WF11_HO.jpg""]","stimuli/WM07_DO.jpg","stimuli/WF14_SUR.jpg","stimuli/AM06_SC.jpg","stimuli/WF11_HO.jpg","pos2","stimuli/WF14_SUR.jpg","SUR","WF14","1","5","10","8","stimuli/stars_10.png","19","[""DO"",""SUR"",""SC"",""HO""]","[""WM07"",""WF14"",""AM06"",""WF11""]","[7,10,5,1]","[6,8,4,2]","","",""
"show-reward","18","78365","0.0-18.0","p47485","A2E0LU8V4EUX5C","336OE47KI3QZCSCUXSQ8J11UOZXVWV","3907X2AHF2B3ICFLNYX3EMRCHGV2PK","model","match","uniform","","","","","","","","78296","80298.5","","","","","","","","","","","","10","","stimuli/stars_10.png","19","","","","","stimuli/WF14_SUR.jpg","",""
"explore-choice","19","80835","0.0-19.0","p47485","A2E0LU8V4EUX5C","336OE47KI3QZCSCUXSQ8J11UOZXVWV","3907X2AHF2B3ICFLNYX3EMRCHGV2PK","model","match","uniform","","","","","","","1967.2000000011176","80299.19999999925","82266.40000000037","[""stimuli/AM06_HO.jpg"",""stimuli/WF11_SUR.jpg"",""stimuli/WM07_DO.jpg"",""stimuli/WF14_SC.jpg""]","stimuli/AM06_HO.jpg","stimuli/WF11_SUR.jpg","stimuli/WM07_DO.jpg","stimuli/WF14_SC.jpg","pos2","stimuli/WF11_SUR.jpg","SUR","WF11","1","1","2","2","stimuli/stars_2.png","20","[""HO"",""SUR"",""DO"",""SC""]","[""AM06"",""WF11"",""WM07"",""WF14""]","[2,2,6,8]","[4,2,6,8]","","",""
"show-reward","20","82840","0.0-20.0","p47485","A2E0LU8V4EUX5C","336OE47KI3QZCSCUXSQ8J11UOZXVWV","3907X2AHF2B3ICFLNYX3EMRCHGV2PK","model","match","uniform","","","","","","","","82770.30000000075","84774.09999999963","","","","","","","","","","","","2","","stimuli/stars_2.png","20","","","","","stimuli/WF11_SUR.jpg","",""
"explore-choice","21","85114","0.0-21.0","p47485","A2E0LU8V4EUX5C","336OE47KI3QZCSCUXSQ8J11UOZXVWV","3907X2AHF2B3ICFLNYX3EMRCHGV2PK","model","match","uniform","","","","","","","1770.300000000745","84776","86546.30000000075","[""stimuli/WF14_HO.jpg"",""stimuli/AM06_DO.jpg"",""stimuli/WF11_SC.jpg"",""stimuli/WM07_SUR.jpg""]","stimuli/WF14_HO.jpg","stimuli/AM06_DO.jpg","stimuli/WF11_SC.jpg","stimuli/WM07_SUR.jpg","pos4","stimuli/WM07_SUR.jpg","SUR","WM07","3","3","6","6","stimuli/stars_6.png","23","[""HO"",""DO"",""SC"",""SUR""]","[""WF14"",""AM06"",""WF11"",""WM07""]","[10,2,2,6]","[8,4,2,6]","","",""
"show-reward","22","87119","0.0-22.0","p47485","A2E0LU8V4EUX5C","336OE47KI3QZCSCUXSQ8J11UOZXVWV","3907X2AHF2B3ICFLNYX3EMRCHGV2PK","model","match","uniform","","","","","","","","87049.09999999963","89052.80000000075","","","","","","","","","","","","6","","stimuli/stars_6.png","23","","","","","stimuli/WM07_SUR.jpg","",""
"explore-choice","23","88660","0.0-23.0","p47485","A2E0LU8V4EUX5C","336OE47KI3QZCSCUXSQ8J11UOZXVWV","3907X2AHF2B3ICFLNYX3EMRCHGV2PK","model","match","uniform","","","","","","","1035.800000000745","89054.59999999963","90090.40000000037","[""stimuli/WF14_HO.jpg"",""stimuli/WF11_SUR.jpg"",""stimuli/WM07_SC.jpg"",""stimuli/AM06_DO.jpg""]","stimuli/WF14_HO.jpg","stimuli/WF11_SUR.jpg","stimuli/WM07_SC.jpg","stimuli/AM06_DO.jpg","pos1","stimuli/WF14_HO.jpg","HO","WF14","0","5","10","8","stimuli/stars_10.png","28","[""HO"",""SUR"",""SC"",""DO""]","[""WF14"",""WF11"",""WM07"",""AM06""]","[10,2,6,4]","[8,2,6,4]","","",""
"show-reward","24","90663","0.0-24.0","p47485","A2E0LU8V4EUX5C","336OE47KI3QZCSCUXSQ8J11UOZXVWV","3907X2AHF2B3ICFLNYX3EMRCHGV2PK","model","match","uniform","","","","","","","","90594.69999999925","92596.59999999963","","","","","","","","","","","","10","","stimuli/stars_10.png","28","","","","","stimuli/WF14_HO.jpg","",""
"explore-choice","25","92531","0.0-25.0","p47485","A2E0LU8V4EUX5C","336OE47KI3QZCSCUXSQ8J11UOZXVWV","3907X2AHF2B3ICFLNYX3EMRCHGV2PK","model","match","uniform","","","","","","","1365.3999999985099","92598.30000000075","93963.69999999925","[""stimuli/WM07_HO.jpg"",""stimuli/WF14_DO.jpg"",""stimuli/WF11_SUR.jpg"",""stimuli/AM06_SC.jpg""]","stimuli/WM07_HO.jpg","stimuli/WF14_DO.jpg","stimuli/WF11_SUR.jpg","stimuli/AM06_SC.jpg","pos3","stimuli/WF11_SUR.jpg","SUR","WF11","2","1.5","3","2","stimuli/stars_3.png","29.5","[""HO"",""DO"",""SUR"",""SC""]","[""WM07"",""WF14"",""WF11"",""AM06""]","[4,9,3,5]","[6,8,2,4]","","",""
"show-reward","26","94537","0.0-26.0","p47485","A2E0LU8V4EUX5C","336OE47KI3QZCSCUXSQ8J11UOZXVWV","3907X2AHF2B3ICFLNYX3EMRCHGV2PK","model","match","uniform","","","","","","","","94466.59999999963","96470.80000000075","","","","","","","","","","","","3","","stimuli/stars_3.png","29.5","","","","","stimuli/WF11_SUR.jpg","",""
"explore-choice","27","96010","0.0-27.0","p47485","A2E0LU8V4EUX5C","336OE47KI3QZCSCUXSQ8J11UOZXVWV","3907X2AHF2B3ICFLNYX3EMRCHGV2PK","model","match","uniform","","","","","","","970","96472.40000000037","97442.40000000037","[""stimuli/WF11_SC.jpg"",""stimuli/AM06_HO.jpg"",""stimuli/WF14_SUR.jpg"",""stimuli/WM07_DO.jpg""]","stimuli/WF11_SC.jpg","stimuli/AM06_HO.jpg","stimuli/WF14_SUR.jpg","stimuli/WM07_DO.jpg","pos2","stimuli/AM06_HO.jpg","HO","AM06","1","1","2","4","stimuli/stars_2.png","30.5","[""SC"",""HO"",""SUR"",""DO""]","[""WF11"",""AM06"",""WF14"",""WM07""]","[2,2,10,8]","[2,4,8,6]","","",""
"show-reward","28","98016","0.0-28.0","p47485","A2E0LU8V4EUX5C","336OE47KI3QZCSCUXSQ8J11UOZXVWV","3907X2AHF2B3ICFLNYX3EMRCHGV2PK","model","match","uniform","","","","","","","","97945.40000000037","99949.90000000037","","","","","","","","","","","","2","","stimuli/stars_2.png","30.5","","","","","stimuli/AM06_HO.jpg","",""
"explore-choice","29","99794","0.0-29.0","p47485","A2E0LU8V4EUX5C","336OE47KI3QZCSCUXSQ8J11UOZXVWV","3907X2AHF2B3ICFLNYX3EMRCHGV2PK","model","match","uniform","","","","","","","1274.9000000003725","99951.59999999963","101226.5","[""stimuli/AM06_SC.jpg"",""stimuli/WM07_SUR.jpg"",""stimuli/WF11_DO.jpg"",""stimuli/WF14_HO.jpg""]","stimuli/AM06_SC.jpg","stimuli/WM07_SUR.jpg","stimuli/WF11_DO.jpg","stimuli/WF14_HO.jpg","pos1","stimuli/AM06_SC.jpg","SC","AM06","0","1","2","4","stimuli/stars_2.png","31.5","[""SC"",""SUR"",""DO"",""HO""]","[""AM06"",""WM07"",""WF11"",""WF14""]","[2,6,4,8]","[4,6,2,8]","","",""
"show-reward","30","101801","0.0-30.0","p47485","A2E0LU8V4EUX5C","336OE47KI3QZCSCUXSQ8J11UOZXVWV","3907X2AHF2B3ICFLNYX3EMRCHGV2PK","model","match","uniform","","","","","","","","101729.30000000075","103734.30000000075","","","","","","","","","","","","2","","stimuli/stars_2.png","31.5","","","","","stimuli/AM06_SC.jpg","",""
"explore-choice","31","109033","0.0-31.0","p47485","A2E0LU8V4EUX5C","336OE47KI3QZCSCUXSQ8J11UOZXVWV","3907X2AHF2B3ICFLNYX3EMRCHGV2PK","model","match","uniform","","","","","","","6730.5","103735.90000000037","110466.40000000037","[""stimuli/WM07_DO.jpg"",""stimuli/AM06_SUR.jpg"",""stimuli/WF14_HO.jpg"",""stimuli/WF11_SC.jpg""]","stimuli/WM07_DO.jpg","stimuli/AM06_SUR.jpg","stimuli/WF14_HO.jpg","stimuli/WF11_SC.jpg","pos1","stimuli/WM07_DO.jpg","DO","WM07","0","2.5","5","6","stimuli/stars_5.png","34","[""DO"",""SUR"",""HO"",""SC""]","[""WM07"",""AM06"",""WF14"",""WF11""]","[5,4,10,3]","[6,4,8,2]","","",""
"show-reward","32","111039","0.0-32.0","p47485","A2E0LU8V4EUX5C","336OE47KI3QZCSCUXSQ8J11UOZXVWV","3907X2AHF2B3ICFLNYX3EMRCHGV2PK","model","match","uniform","","","","","","","","110969.19999999925","112973.09999999963","","","","","","","","","","","","5","","stimuli/stars_5.png","34","","","","","stimuli/WM07_DO.jpg","",""
"explore-choice","33","112722","0.0-33.0","p47485","A2E0LU8V4EUX5C","336OE47KI3QZCSCUXSQ8J11UOZXVWV","3907X2AHF2B3ICFLNYX3EMRCHGV2PK","model","match","uniform","","","","","","","1179.5999999996275","112974.80000000075","114154.40000000037","[""stimuli/WF11_HO.jpg"",""stimuli/AM06_DO.jpg"",""stimuli/WM07_SC.jpg"",""stimuli/WF14_SUR.jpg""]","stimuli/WF11_HO.jpg","stimuli/AM06_DO.jpg","stimuli/WM07_SC.jpg","stimuli/WF14_SUR.jpg","pos2","stimuli/AM06_DO.jpg","DO","AM06","1","3","6","4","stimuli/stars_6.png","37","[""HO"",""DO"",""SC"",""SUR""]","[""WF11"",""AM06"",""WM07"",""WF14""]","[4,6,4,10]","[2,4,6,8]","","",""
"show-reward","34","114729","0.0-34.0","p47485","A2E0LU8V4EUX5C","336OE47KI3QZCSCUXSQ8J11UOZXVWV","3907X2AHF2B3ICFLNYX3EMRCHGV2PK","model","match","uniform","","","","","","","","114657.30000000075","116662.40000000037","","","","","","","","","","","","6","","stimuli/stars_6.png","37","","","","","stimuli/AM06_DO.jpg","",""
"explore-choice","35","116258","0.0-35.0","p47485","A2E0LU8V4EUX5C","336OE47KI3QZCSCUXSQ8J11UOZXVWV","3907X2AHF2B3ICFLNYX3EMRCHGV2PK","model","match","uniform","","","","","","","1026.300000000745","116664.19999999925","117690.5","[""stimuli/WF14_HO.jpg"",""stimuli/AM06_SUR.jpg"",""stimuli/WM07_SC.jpg"",""stimuli/WF11_DO.jpg""]","stimuli/WF14_HO.jpg","stimuli/AM06_SUR.jpg","stimuli/WM07_SC.jpg","stimuli/WF11_DO.jpg","pos2","stimuli/AM06_SUR.jpg","SUR","AM06","1","1.5","3","4","stimuli/stars_3.png","38.5","[""HO"",""SUR"",""SC"",""DO""]","[""WF14"",""AM06"",""WM07"",""WF11""]","[8,3,6,4]","[8,4,6,2]","","",""
"show-reward","36","118265","0.0-36.0","p47485","A2E0LU8V4EUX5C","336OE47KI3QZCSCUXSQ8J11UOZXVWV","3907X2AHF2B3ICFLNYX3EMRCHGV2PK","model","match","uniform","","","","","","","","118193.69999999925","120198.40000000037","","","","","","","","","","","","3","","stimuli/stars_3.png","38.5","","","","","stimuli/AM06_SUR.jpg","",""
"explore-choice","37","119986","0.0-37.0","p47485","A2E0LU8V4EUX5C","336OE47KI3QZCSCUXSQ8J11UOZXVWV","3907X2AHF2B3ICFLNYX3EMRCHGV2PK","model","match","uniform","","","","","","","1218.300000000745","120200.19999999925","121418.5","[""stimuli/WM07_HO.jpg"",""stimuli/WF11_DO.jpg"",""stimuli/AM06_SC.jpg"",""stimuli/WF14_SUR.jpg""]","stimuli/WM07_HO.jpg","stimuli/WF11_DO.jpg","stimuli/AM06_SC.jpg","stimuli/WF14_SUR.jpg","pos4","stimuli/WF14_SUR.jpg","SUR","WF14","3","4.5","9","8","stimuli/stars_9.png","43","[""HO"",""DO"",""SC"",""SUR""]","[""WM07"",""WF11"",""AM06"",""WF14""]","[4,0,2,9]","[6,2,4,8]","","",""
"show-reward","38","121991","0.0-38.0","p47485","A2E0LU8V4EUX5C","336OE47KI3QZCSCUXSQ8J11UOZXVWV","3907X2AHF2B3ICFLNYX3EMRCHGV2PK","model","match","uniform","","","","","","","","121921.40000000037","123924.80000000075","","","","","","","","","","","","9","","stimuli/stars_9.png","43","","","","","stimuli/WF14_SUR.jpg","",""
"explore-choice","39","125306","0.0-39.0","p47485","A2E0LU8V4EUX5C","336OE47KI3QZCSCUXSQ8J11UOZXVWV","3907X2AHF2B3ICFLNYX3EMRCHGV2PK","model","match","uniform","","","","","","","2812.800000000745","123925.69999999925","126738.5","[""stimuli/WF14_SC.jpg"",""stimuli/AM06_SUR.jpg"",""stimuli/WM07_DO.jpg"",""stimuli/WF11_HO.jpg""]","stimuli/WF14_SC.jpg","stimuli/AM06_SUR.jpg","stimuli/WM07_DO.jpg","stimuli/WF11_HO.jpg","pos2","stimuli/AM06_SUR.jpg","SUR","AM06","1","2.5","5","4","stimuli/stars_5.png","45.5","[""SC"",""SUR"",""DO"",""HO""]","[""WF14"",""AM06"",""WM07"",""WF11""]","[9,5,6,1]","[8,4,6,2]","","",""
"show-reward","40","127312","0.0-40.0","p47485","A2E0LU8V4EUX5C","336OE47KI3QZCSCUXSQ8J11UOZXVWV","3907X2AHF2B3ICFLNYX3EMRCHGV2PK","model","match","uniform","","","","","","","","127241.5","129245.90000000037","","","","","","","","","","","","5","","stimuli/stars_5.png","45.5","","","","","stimuli/AM06_SUR.jpg","",""
"explore-choice","41","128682","0.0-41.0","p47485","A2E0LU8V4EUX5C","336OE47KI3QZCSCUXSQ8J11UOZXVWV","3907X2AHF2B3ICFLNYX3EMRCHGV2PK","model","match","uniform","","","","","","","866.8000000007451","129247.59999999963","130114.40000000037","[""stimuli/WF11_HO.jpg"",""stimuli/WF14_DO.jpg"",""stimuli/WM07_SC.jpg"",""stimuli/AM06_SUR.jpg""]","stimuli/WF11_HO.jpg","stimuli/WF14_DO.jpg","stimuli/WM07_SC.jpg","stimuli/AM06_SUR.jpg","pos1","stimuli/WF11_HO.jpg","HO","WF11","0","1.5","3","2","stimuli/stars_3.png","47","[""HO"",""DO"",""SC"",""SUR""]","[""WF11"",""WF14"",""WM07"",""AM06""]","[3,6,7,6]","[2,8,6,4]","","",""
"show-reward","42","130687","0.0-42.0","p47485","A2E0LU8V4EUX5C","336OE47KI3QZCSCUXSQ8J11UOZXVWV","3907X2AHF2B3ICFLNYX3EMRCHGV2PK","model","match","uniform","","","","","","","","130617.40000000037","132620.90000000037","","","","","","","","","","","","3","","stimuli/stars_3.png","47","","","","","stimuli/WF11_HO.jpg","",""
"explore-choice","43","132170","0.0-43.0","p47485","A2E0LU8V4EUX5C","336OE47KI3QZCSCUXSQ8J11UOZXVWV","3907X2AHF2B3ICFLNYX3EMRCHGV2PK","model","match","uniform","","","","","","","980","132622.69999999925","133602.69999999925","[""stimuli/WF11_SC.jpg"",""stimuli/WF14_DO.jpg"",""stimuli/AM06_HO.jpg"",""stimuli/WM07_SUR.jpg""]","stimuli/WF11_SC.jpg","stimuli/WF14_DO.jpg","stimuli/AM06_HO.jpg","stimuli/WM07_SUR.jpg","pos3","stimuli/AM06_HO.jpg","HO","AM06","2","2.5","5","4","stimuli/stars_5.png","49.5","[""SC"",""DO"",""HO"",""SUR""]","[""WF11"",""WF14"",""AM06"",""WM07""]","[2,7,5,4]","[2,8,4,6]","","",""
"show-reward","44","134175","0.0-44.0","p47485","A2E0LU8V4EUX5C","336OE47KI3QZCSCUXSQ8J11UOZXVWV","3907X2AHF2B3ICFLNYX3EMRCHGV2PK","model","match","uniform","","","","","","","","134105","136108.90000000037","","","","","","","","","","","","5","","stimuli/stars_5.png","49.5","","","","","stimuli/AM06_HO.jpg","",""
"explore-choice","45","138393","0.0-45.0","p47485","A2E0LU8V4EUX5C","336OE47KI3QZCSCUXSQ8J11UOZXVWV","3907X2AHF2B3ICFLNYX3EMRCHGV2PK","model","match","uniform","","","","","","","3715.800000000745","136110.59999999963","139826.40000000037","[""stimuli/WM07_SUR.jpg"",""stimuli/AM06_SC.jpg"",""stimuli/WF14_DO.jpg"",""stimuli/WF11_HO.jpg""]","stimuli/WM07_SUR.jpg","stimuli/AM06_SC.jpg","stimuli/WF14_DO.jpg","stimuli/WF11_HO.jpg","pos1","stimuli/WM07_SUR.jpg","SUR","WM07","0","3.5","7","6","stimuli/stars_7.png","53","[""SUR"",""SC"",""DO"",""HO""]","[""WM07"",""AM06"",""WF14"",""WF11""]","[7,6,8,2]","[6,4,8,2]","","",""
"show-reward","46","140399","0.0-46.0","p47485","A2E0LU8V4EUX5C","336OE47KI3QZCSCUXSQ8J11UOZXVWV","3907X2AHF2B3ICFLNYX3EMRCHGV2PK","model","match","uniform","","","","","","","","140328.90000000037","142332.90000000037","","","","","","","","","","","","7","","stimuli/stars_7.png","53","","","","","stimuli/WM07_SUR.jpg","",""
"explore-choice","47","142177","0.0-47.0","p47485","A2E0LU8V4EUX5C","336OE47KI3QZCSCUXSQ8J11UOZXVWV","3907X2AHF2B3ICFLNYX3EMRCHGV2PK","model","match","uniform","","","","","","","1276.800000000745","142334","143610.80000000075","[""stimuli/WF11_SUR.jpg"",""stimuli/AM06_SC.jpg"",""stimuli/WM07_DO.jpg"",""stimuli/WF14_HO.jpg""]","stimuli/WF11_SUR.jpg","stimuli/AM06_SC.jpg","stimuli/WM07_DO.jpg","stimuli/WF14_HO.jpg","pos1","stimuli/WF11_SUR.jpg","SUR","WF11","0","2","4","2","stimuli/stars_4.png","55","[""SUR"",""SC"",""DO"",""HO""]","[""WF11"",""AM06"",""WM07"",""WF14""]","[4,4,5,9]","[2,4,6,8]","","",""
"show-reward","48","144183","0.0-48.0","p47485","A2E0LU8V4EUX5C","336OE47KI3QZCSCUXSQ8J11UOZXVWV","3907X2AHF2B3ICFLNYX3EMRCHGV2PK","model","match","uniform","","","","","","","","144112.59999999963","146116.90000000037","","","","","","","","","","","","4","","stimuli/stars_4.png","55","","","","","stimuli/WF11_SUR.jpg","",""
"explore-choice","49","145778","0.0-49.0","p47485","A2E0LU8V4EUX5C","336OE47KI3QZCSCUXSQ8J11UOZXVWV","3907X2AHF2B3ICFLNYX3EMRCHGV2PK","model","match","uniform","","","","","","","1092.0999999996275","146118.5","147210.59999999963","[""stimuli/AM06_HO.jpg"",""stimuli/WF11_DO.jpg"",""stimuli/WF14_SC.jpg"",""stimuli/WM07_SUR.jpg""]","stimuli/AM06_HO.jpg","stimuli/WF11_DO.jpg","stimuli/WF14_SC.jpg","stimuli/WM07_SUR.jpg","pos2","stimuli/WF11_DO.jpg","DO","WF11","1","1.5","3","2","stimuli/stars_3.png","56.5","[""HO"",""DO"",""SC"",""SUR""]","[""AM06"",""WF11"",""WF14"",""WM07""]","[6,3,10,6]","[4,2,8,6]","","",""
"show-reward","50","147782","0.0-50.0","p47485","A2E0LU8V4EUX5C","336OE47KI3QZCSCUXSQ8J11UOZXVWV","3907X2AHF2B3ICFLNYX3EMRCHGV2PK","model","match","uniform","","","","","","","","147712.5","149715.90000000037","","","","","","","","","","","","3","","stimuli/stars_3.png","56.5","","","","","stimuli/WF11_DO.jpg","",""
"explore-choice","51","149419","0.0-51.0","p47485","A2E0LU8V4EUX5C","336OE47KI3QZCSCUXSQ8J11UOZXVWV","3907X2AHF2B3ICFLNYX3EMRCHGV2PK","model","match","uniform","","","","","","","1133.0999999996275","149717.59999999963","150850.69999999925","[""stimuli/WF11_DO.jpg"",""stimuli/WM07_SC.jpg"",""stimuli/WF14_SUR.jpg"",""stimuli/AM06_HO.jpg""]","stimuli/WF11_DO.jpg","stimuli/WM07_SC.jpg","stimuli/WF14_SUR.jpg","stimuli/AM06_HO.jpg","pos4","stimuli/AM06_HO.jpg","HO","AM06","3","2","4","4","stimuli/stars_4.png","58.5","[""DO"",""SC"",""SUR"",""HO""]","[""WF11"",""WM07"",""WF14"",""AM06""]","[0,4,8,4]","[2,6,8,4]","","",""
"show-reward","52","151426","0.0-52.0","p47485","A2E0LU8V4EUX5C","336OE47KI3QZCSCUXSQ8J11UOZXVWV","3907X2AHF2B3ICFLNYX3EMRCHGV2PK","model","match","uniform","","","","","","","","151354.59999999963","153359.80000000075","","","","","","","","","","","","4","","stimuli/stars_4.png","58.5","","","","","stimuli/AM06_HO.jpg","",""
"explore-choice","53","154954","0.0-53.0","p47485","A2E0LU8V4EUX5C","336OE47KI3QZCSCUXSQ8J11UOZXVWV","3907X2AHF2B3ICFLNYX3EMRCHGV2PK","model","match","uniform","","","","","","","3025.9000000003725","153360.59999999963","156386.5","[""stimuli/WM07_HO.jpg"",""stimuli/WF11_SC.jpg"",""stimuli/WF14_SUR.jpg"",""stimuli/AM06_DO.jpg""]","stimuli/WM07_HO.jpg","stimuli/WF11_SC.jpg","stimuli/WF14_SUR.jpg","stimuli/AM06_DO.jpg","pos3","stimuli/WF14_SUR.jpg","SUR","WF14","2","3","6","8","stimuli/stars_6.png","61.5","[""HO"",""SC"",""SUR"",""DO""]","[""WM07"",""WF11"",""WF14"",""AM06""]","[4,4,6,6]","[6,2,8,4]","","",""
"show-reward","54","156959","0.0-54.0","p47485","A2E0LU8V4EUX5C","336OE47KI3QZCSCUXSQ8J11UOZXVWV","3907X2AHF2B3ICFLNYX3EMRCHGV2PK","model","match","uniform","","","","","","","","156889.19999999925","158892.90000000037","","","","","","","","","","","","6","","stimuli/stars_6.png","61.5","","","","","stimuli/WF14_SUR.jpg","",""
"explore-choice","55","163861","0.0-55.0","p47485","A2E0LU8V4EUX5C","336OE47KI3QZCSCUXSQ8J11UOZXVWV","3907X2AHF2B3ICFLNYX3EMRCHGV2PK","model","match","uniform","","","","","","","6396.300000000745","158894.5","165290.80000000075","[""stimuli/WF14_DO.jpg"",""stimuli/WF11_SC.jpg"",""stimuli/AM06_HO.jpg"",""stimuli/WM07_SUR.jpg""]","stimuli/WF14_DO.jpg","stimuli/WF11_SC.jpg","stimuli/AM06_HO.jpg","stimuli/WM07_SUR.jpg","pos4","stimuli/WM07_SUR.jpg","SUR","WM07","3","2","4","6","stimuli/stars_4.png","63.5","[""DO"",""SC"",""HO"",""SUR""]","[""WF14"",""WF11"",""AM06"",""WM07""]","[7,2,5,4]","[8,2,4,6]","","",""
"show-reward","56","165864","0.0-56.0","p47485","A2E0LU8V4EUX5C","336OE47KI3QZCSCUXSQ8J11UOZXVWV","3907X2AHF2B3ICFLNYX3EMRCHGV2PK","model","match","uniform","","","","","","","","165795.69999999925","167797.40000000037","","","","","","","","","","","","4","","stimuli/stars_4.png","63.5","","","","","stimuli/WM07_SUR.jpg","",""
"explore-choice","57","170578","0.0-57.0","p47485","A2E0LU8V4EUX5C","336OE47KI3QZCSCUXSQ8J11UOZXVWV","3907X2AHF2B3ICFLNYX3EMRCHGV2PK","model","match","uniform","","","","","","","4211.60000000149","167799.19999999925","172010.80000000075","[""stimuli/WF14_SUR.jpg"",""stimuli/AM06_SC.jpg"",""stimuli/WF11_DO.jpg"",""stimuli/WM07_HO.jpg""]","stimuli/WF14_SUR.jpg","stimuli/AM06_SC.jpg","stimuli/WF11_DO.jpg","stimuli/WM07_HO.jpg","pos3","stimuli/WF11_DO.jpg","DO","WF11","2","0","0","2","stimuli/stars_0.png","63.5","[""SUR"",""SC"",""DO"",""HO""]","[""WF14"",""AM06"",""WF11"",""WM07""]","[9,2,0,4]","[8,4,2,6]","","",""
"show-reward","58","172579","0.0-58.0","p47485","A2E0LU8V4EUX5C","336OE47KI3QZCSCUXSQ8J11UOZXVWV","3907X2AHF2B3ICFLNYX3EMRCHGV2PK","model","match","uniform","","","","","","","","172512","174513.09999999963","","","","","","","","","","","","0","","stimuli/stars_0.png","63.5","","","","","stimuli/WF11_DO.jpg","",""
"explore-choice","59","175418","0.0-59.0","p47485","A2E0LU8V4EUX5C","336OE47KI3QZCSCUXSQ8J11UOZXVWV","3907X2AHF2B3ICFLNYX3EMRCHGV2PK","model","match","uniform","","","","","","","2336.5999999996275","174513.90000000037","176850.5","[""stimuli/WF11_DO.jpg"",""stimuli/WM07_SUR.jpg"",""stimuli/AM06_HO.jpg"",""stimuli/WF14_SC.jpg""]","stimuli/WF11_DO.jpg","stimuli/WM07_SUR.jpg","stimuli/AM06_HO.jpg","stimuli/WF14_SC.jpg","pos1","stimuli/WF11_DO.jpg","DO","WF11","0","1.5","3","2","stimuli/stars_3.png","65","[""DO"",""SUR"",""HO"",""SC""]","[""WF11"",""WM07"",""AM06"",""WF14""]","[3,6,6,10]","[2,6,4,8]","","",""
"show-reward","60","177423","0.0-60.0","p47485","A2E0LU8V4EUX5C","336OE47KI3QZCSCUXSQ8J11UOZXVWV","3907X2AHF2B3ICFLNYX3EMRCHGV2PK","model","match","uniform","","","","","","","","177354.19999999925","179357.40000000037","","","","","","","","","","","","3","","stimuli/stars_3.png","65","","","","","stimuli/WF11_DO.jpg","",""
"explore-choice","61","186529","0.0-61.0","p47485","A2E0LU8V4EUX5C","336OE47KI3QZCSCUXSQ8J11UOZXVWV","3907X2AHF2B3ICFLNYX3EMRCHGV2PK","model","match","uniform","","","","","","","8603.200000001118","179359.19999999925","187962.40000000037","[""stimuli/AM06_SUR.jpg"",""stimuli/WM07_DO.jpg"",""stimuli/WF14_SC.jpg"",""stimuli/WF11_HO.jpg""]","stimuli/AM06_SUR.jpg","stimuli/WM07_DO.jpg","stimuli/WF14_SC.jpg","stimuli/WF11_HO.jpg","pos4","stimuli/WF11_HO.jpg","HO","WF11","3","0.5","1","2","stimuli/stars_1.png","65.5","[""SUR"",""DO"",""SC"",""HO""]","[""AM06"",""WM07"",""WF14"",""WF11""]","[5,6,9,1]","[4,6,8,2]","","",""
"show-reward","62","188531","0.0-62.0","p47485","A2E0LU8V4EUX5C","336OE47KI3QZCSCUXSQ8J11UOZXVWV","3907X2AHF2B3ICFLNYX3EMRCHGV2PK","model","match","uniform","","","","","","","","188464.40000000037","190465.59999999963","","","","","","","","","","","","1","","stimuli/stars_1.png","65.5","","","","","stimuli/WF11_HO.jpg","",""
"explore-choice","63","191353","0.0-63.0","p47485","A2E0LU8V4EUX5C","336OE47KI3QZCSCUXSQ8J11UOZXVWV","3907X2AHF2B3ICFLNYX3EMRCHGV2PK","model","match","uniform","","","","","","","2320.199999999255","190466.40000000037","192786.59999999963","[""stimuli/AM06_SUR.jpg"",""stimuli/WF11_SC.jpg"",""stimuli/WF14_HO.jpg"",""stimuli/WM07_DO.jpg""]","stimuli/AM06_SUR.jpg","stimuli/WF11_SC.jpg","stimuli/WF14_HO.jpg","stimuli/WM07_DO.jpg","pos4","stimuli/WM07_DO.jpg","DO","WM07","3","2.5","5","6","stimuli/stars_5.png","68","[""SUR"",""SC"",""HO"",""DO""]","[""AM06"",""WF11"",""WF14"",""WM07""]","[4,3,10,5]","[4,2,8,6]","","",""
"show-reward","64","193358","0.0-64.0","p47485","A2E0LU8V4EUX5C","336OE47KI3QZCSCUXSQ8J11UOZXVWV","3907X2AHF2B3ICFLNYX3EMRCHGV2PK","model","match","uniform","","","","","","","","193288.30000000075","195292.40000000037","","","","","","","","","","","","5","","stimuli/stars_5.png","68","","","","","stimuli/WM07_DO.jpg","",""
"explore-choice","65","196178","0.0-65.0","p47485","A2E0LU8V4EUX5C","336OE47KI3QZCSCUXSQ8J11UOZXVWV","3907X2AHF2B3ICFLNYX3EMRCHGV2PK","model","match","uniform","","","","","","","2317.4000000003725","195293","197610.40000000037","[""stimuli/WM07_HO.jpg"",""stimuli/WF11_DO.jpg"",""stimuli/WF14_SC.jpg"",""stimuli/AM06_SUR.jpg""]","stimuli/WM07_HO.jpg","stimuli/WF11_DO.jpg","stimuli/WF14_SC.jpg","stimuli/AM06_SUR.jpg","pos4","stimuli/AM06_SUR.jpg","SUR","AM06","3","1.5","3","4","stimuli/stars_3.png","69.5","[""HO"",""DO"",""SC"",""SUR""]","[""WM07"",""WF11"",""WF14"",""AM06""]","[7,3,10,3]","[6,2,8,4]","","",""
"show-reward","66","198184","0.0-66.0","p47485","A2E0LU8V4EUX5C","336OE47KI3QZCSCUXSQ8J11UOZXVWV","3907X2AHF2B3ICFLNYX3EMRCHGV2PK","model","match","uniform","","","","","","","","198114.09999999963","200118","","","","","","","","","","","","3","","stimuli/stars_3.png","69.5","","","","","stimuli/AM06_SUR.jpg","",""
"explore-choice","67","201441","0.0-67.0","p47485","A2E0LU8V4EUX5C","336OE47KI3QZCSCUXSQ8J11UOZXVWV","3907X2AHF2B3ICFLNYX3EMRCHGV2PK","model","match","uniform","","","","","","","2754.9000000003725","200119.69999999925","202874.59999999963","[""stimuli/WM07_HO.jpg"",""stimuli/WF11_SC.jpg"",""stimuli/AM06_DO.jpg"",""stimuli/WF14_SUR.jpg""]","stimuli/WM07_HO.jpg","stimuli/WF11_SC.jpg","stimuli/AM06_DO.jpg","stimuli/WF14_SUR.jpg","pos4","stimuli/WF14_SUR.jpg","SUR","WF14","3","3","6","8","stimuli/stars_6.png","72.5","[""HO"",""SC"",""DO"",""SUR""]","[""WM07"",""WF11"",""AM06"",""WF14""]","[4,4,6,6]","[6,2,4,8]","","",""
"show-reward","68","203445","0.0-68.0","p47485","A2E0LU8V4EUX5C","336OE47KI3QZCSCUXSQ8J11UOZXVWV","3907X2AHF2B3ICFLNYX3EMRCHGV2PK","model","match","uniform","","","","","","","","203377","205379.19999999925","","","","","","","","","","","","6","","stimuli/stars_6.png","72.5","","","","","stimuli/WF14_SUR.jpg","",""
"explore-choice","69","205217","0.0-69.0","p47485","A2E0LU8V4EUX5C","336OE47KI3QZCSCUXSQ8J11UOZXVWV","3907X2AHF2B3ICFLNYX3EMRCHGV2PK","model","match","uniform","","","","","","","1269.4000000003725","205381","206650.40000000037","[""stimuli/WF14_DO.jpg"",""stimuli/AM06_SC.jpg"",""stimuli/WM07_HO.jpg"",""stimuli/WF11_SUR.jpg""]","stimuli/WF14_DO.jpg","stimuli/AM06_SC.jpg","stimuli/WM07_HO.jpg","stimuli/WF11_SUR.jpg","pos3","stimuli/WM07_HO.jpg","HO","WM07","2","2","4","6","stimuli/stars_4.png","74.5","[""DO"",""SC"",""HO"",""SUR""]","[""WF14"",""AM06"",""WM07"",""WF11""]","[9,5,4,3]","[8,4,6,2]","","",""
"show-reward","70","207222","0.0-70.0","p47485","A2E0LU8V4EUX5C","336OE47KI3QZCSCUXSQ8J11UOZXVWV","3907X2AHF2B3ICFLNYX3EMRCHGV2PK","model","match","uniform","","","","","","","","207152.5","209155.80000000075","","","","","","","","","","","","4","","stimuli/stars_4.png","74.5","","","","","stimuli/WM07_HO.jpg","",""
"explore-choice","71","209497","0.0-71.0","p47485","A2E0LU8V4EUX5C","336OE47KI3QZCSCUXSQ8J11UOZXVWV","3907X2AHF2B3ICFLNYX3EMRCHGV2PK","model","match","uniform","","","","","","","1773","209157.5","210930.5","[""stimuli/AM06_HO.jpg"",""stimuli/WF11_SC.jpg"",""stimuli/WM07_DO.jpg"",""stimuli/WF14_SUR.jpg""]","stimuli/AM06_HO.jpg","stimuli/WF11_SC.jpg","stimuli/WM07_DO.jpg","stimuli/WF14_SUR.jpg","pos1","stimuli/AM06_HO.jpg","HO","AM06","0","1","2","4","stimuli/stars_2.png","75.5","[""HO"",""SC"",""DO"",""SUR""]","[""AM06"",""WF11"",""WM07"",""WF14""]","[2,2,8,10]","[4,2,6,8]","","",""
"show-reward","72","211502","0.0-72.0","p47485","A2E0LU8V4EUX5C","336OE47KI3QZCSCUXSQ8J11UOZXVWV","3907X2AHF2B3ICFLNYX3EMRCHGV2PK","model","match","uniform","","","","","","","","211433","213436.59999999963","","","","","","","","","","","","2","","stimuli/stars_2.png","75.5","","","","","stimuli/AM06_HO.jpg","",""
"explore-choice","73","219810","0.0-73.0","p47485","A2E0LU8V4EUX5C","336OE47KI3QZCSCUXSQ8J11UOZXVWV","3907X2AHF2B3ICFLNYX3EMRCHGV2PK","model","match","uniform","","","","","","","7804.9000000003725","213437.59999999963","221242.5","[""stimuli/WF11_SUR.jpg"",""stimuli/WM07_SC.jpg"",""stimuli/WF14_DO.jpg"",""stimuli/AM06_HO.jpg""]","stimuli/WF11_SUR.jpg","stimuli/WM07_SC.jpg","stimuli/WF14_DO.jpg","stimuli/AM06_HO.jpg","pos1","stimuli/WF11_SUR.jpg","SUR","WF11","0","1","2","2","stimuli/stars_2.png","76.5","[""SUR"",""SC"",""DO"",""HO""]","[""WF11"",""WM07"",""WF14"",""AM06""]","[2,6,6,3]","[2,6,8,4]","","",""
"show-reward","74","221815","0.0-74.0","p47485","A2E0LU8V4EUX5C","336OE47KI3QZCSCUXSQ8J11UOZXVWV","3907X2AHF2B3ICFLNYX3EMRCHGV2PK","model","match","uniform","","","","","","","","221746.30000000075","223749.5","","","","","","","","","","","","2","","stimuli/stars_2.png","76.5","","","","","stimuli/WF11_SUR.jpg","",""
"explore-choice","75","223649","0.0-75.0","p47485","A2E0LU8V4EUX5C","336OE47KI3QZCSCUXSQ8J11UOZXVWV","3907X2AHF2B3ICFLNYX3EMRCHGV2PK","model","match","uniform","","","","","","","1332","223750.5","225082.5","[""stimuli/WF11_HO.jpg"",""stimuli/WF14_DO.jpg"",""stimuli/AM06_SC.jpg"",""stimuli/WM07_SUR.jpg""]","stimuli/WF11_HO.jpg","stimuli/WF14_DO.jpg","stimuli/AM06_SC.jpg","stimuli/WM07_SUR.jpg","pos2","stimuli/WF14_DO.jpg","DO","WF14","1","4","8","8","stimuli/stars_8.png","80.5","[""HO"",""DO"",""SC"",""SUR""]","[""WF11"",""WF14"",""AM06"",""WM07""]","[2,8,6,7]","[2,8,4,6]","","",""
"show-reward","76","225655","0.0-76.0","p47485","A2E0LU8V4EUX5C","336OE47KI3QZCSCUXSQ8J11UOZXVWV","3907X2AHF2B3ICFLNYX3EMRCHGV2PK","model","match","uniform","","","","","","","","225584.69999999925","227589.19999999925","","","","","","","","","","","","8","","stimuli/stars_8.png","80.5","","","","","stimuli/WF14_DO.jpg","",""
"explore-choice","77","227210","0.0-77.0","p47485","A2E0LU8V4EUX5C","336OE47KI3QZCSCUXSQ8J11UOZXVWV","3907X2AHF2B3ICFLNYX3EMRCHGV2PK","model","match","uniform","","","","","","","1051.5999999996275","227591","228642.59999999963","[""stimuli/WF14_HO.jpg"",""stimuli/AM06_SUR.jpg"",""stimuli/WF11_DO.jpg"",""stimuli/WM07_SC.jpg""]","stimuli/WF14_HO.jpg","stimuli/AM06_SUR.jpg","stimuli/WF11_DO.jpg","stimuli/WM07_SC.jpg","pos4","stimuli/WM07_SC.jpg","SC","WM07","3","3","6","6","stimuli/stars_6.png","83.5","[""HO"",""SUR"",""DO"",""SC""]","[""WF14"",""AM06"",""WF11"",""WM07""]","[8,3,4,6]","[8,4,2,6]","","",""
"show-reward","78","229213","0.0-78.0","p47485","A2E0LU8V4EUX5C","336OE47KI3QZCSCUXSQ8J11UOZXVWV","3907X2AHF2B3ICFLNYX3EMRCHGV2PK","model","match","uniform","","","","","","","","229144.5","231146.69999999925","","","","","","","","","","","","6","","stimuli/stars_6.png","83.5","","","","","stimuli/WM07_SC.jpg","",""
"explore-choice","79","230753","0.0-79.0","p47485","A2E0LU8V4EUX5C","336OE47KI3QZCSCUXSQ8J11UOZXVWV","3907X2AHF2B3ICFLNYX3EMRCHGV2PK","model","match","uniform","","","","","","","1037.9000000003725","231148.5","232186.40000000037","[""stimuli/WF11_SUR.jpg"",""stimuli/WF14_HO.jpg"",""stimuli/WM07_DO.jpg"",""stimuli/AM06_SC.jpg""]","stimuli/WF11_SUR.jpg","stimuli/WF14_HO.jpg","stimuli/WM07_DO.jpg","stimuli/AM06_SC.jpg","pos1","stimuli/WF11_SUR.jpg","SUR","WF11","0","2","4","2","stimuli/stars_4.png","85.5","[""SUR"",""HO"",""DO"",""SC""]","[""WF11"",""WF14"",""WM07"",""AM06""]","[4,9,5,4]","[2,8,6,4]","","",""
"show-reward","80","232756","0.0-80.0","p47485","A2E0LU8V4EUX5C","336OE47KI3QZCSCUXSQ8J11UOZXVWV","3907X2AHF2B3ICFLNYX3EMRCHGV2PK","model","match","uniform","","","","","","","","232687.69999999925","234689.59999999963","","","","","","","","","","","","4","","stimuli/stars_4.png","85.5","","","","","stimuli/WF11_SUR.jpg","",""
"explore-choice","81","234234","0.0-81.0","p47485","A2E0LU8V4EUX5C","336OE47KI3QZCSCUXSQ8J11UOZXVWV","3907X2AHF2B3ICFLNYX3EMRCHGV2PK","model","match","uniform","","","","","","","975.2999999988824","234691.40000000037","235666.69999999925","[""stimuli/AM06_DO.jpg"",""stimuli/WF14_HO.jpg"",""stimuli/WF11_SC.jpg"",""stimuli/WM07_SUR.jpg""]","stimuli/AM06_DO.jpg","stimuli/WF14_HO.jpg","stimuli/WF11_SC.jpg","stimuli/WM07_SUR.jpg","pos2","stimuli/WF14_HO.jpg","HO","WF14","1","5","10","8","stimuli/stars_10.png","90.5","[""DO"",""HO"",""SC"",""SUR""]","[""AM06"",""WF14"",""WF11"",""WM07""]","[2,10,2,6]","[4,8,2,6]","","",""
"show-reward","82","236239","0.0-82.0","p47485","A2E0LU8V4EUX5C","336OE47KI3QZCSCUXSQ8J11UOZXVWV","3907X2AHF2B3ICFLNYX3EMRCHGV2PK","model","match","uniform","","","","","","","","236169.40000000037","238173.09999999963","","","","","","","","","","","","10","","stimuli/stars_10.png","90.5","","","","","stimuli/WF14_HO.jpg","",""
"explore-choice","83","237161","0.0-83.0","p47485","A2E0LU8V4EUX5C","336OE47KI3QZCSCUXSQ8J11UOZXVWV","3907X2AHF2B3ICFLNYX3EMRCHGV2PK","model","match","uniform","","","","","","","419.40000000037253","238175","238594.40000000037","[""stimuli/AM06_HO.jpg"",""stimuli/WM07_SC.jpg"",""stimuli/WF14_SUR.jpg"",""stimuli/WF11_DO.jpg""]","stimuli/AM06_HO.jpg","stimuli/WM07_SC.jpg","stimuli/WF14_SUR.jpg","stimuli/WF11_DO.jpg","pos2","stimuli/WM07_SC.jpg","SC","WM07","1","2","4","6","stimuli/stars_4.png","92.5","[""HO"",""SC"",""SUR"",""DO""]","[""AM06"",""WM07"",""WF14"",""WF11""]","[4,4,8,0]","[4,6,8,2]","","",""
"show-reward","84","239167","0.0-84.0","p47485","A2E0LU8V4EUX5C","336OE47KI3QZCSCUXSQ8J11UOZXVWV","3907X2AHF2B3ICFLNYX3EMRCHGV2PK","model","match","uniform","","","","","","","","239097.19999999925","241101","","","","","","","","","","","","4","","stimuli/stars_4.png","92.5","","","","","stimuli/WM07_SC.jpg","",""
"explore-choice","85","240105","0.0-85.0","p47485","A2E0LU8V4EUX5C","336OE47KI3QZCSCUXSQ8J11UOZXVWV","3907X2AHF2B3ICFLNYX3EMRCHGV2PK","model","match","uniform","","","","","","","435.6000000014901","241102.69999999925","241538.30000000075","[""stimuli/WM07_SC.jpg"",""stimuli/WF11_HO.jpg"",""stimuli/AM06_DO.jpg"",""stimuli/WF14_SUR.jpg""]","stimuli/WM07_SC.jpg","stimuli/WF11_HO.jpg","stimuli/AM06_DO.jpg","stimuli/WF14_SUR.jpg","pos2","stimuli/WF11_HO.jpg","HO","WF11","1","2","4","2","stimuli/stars_4.png","94.5","[""SC"",""HO"",""DO"",""SUR""]","[""WM07"",""WF11"",""AM06"",""WF14""]","[4,4,6,10]","[6,2,4,8]","","",""
"show-reward","86","242111","0.0-86.0","p47485","A2E0LU8V4EUX5C","336OE47KI3QZCSCUXSQ8J11UOZXVWV","3907X2AHF2B3ICFLNYX3EMRCHGV2PK","model","match","uniform","","","","","","","","242041","244044.59999999963","","","","","","","","","","","","4","","stimuli/stars_4.png","94.5","","","","","stimuli/WF11_HO.jpg","",""
"explore-choice","87","242994","0.0-87.0","p47485","A2E0LU8V4EUX5C","336OE47KI3QZCSCUXSQ8J11UOZXVWV","3907X2AHF2B3ICFLNYX3EMRCHGV2PK","model","match","uniform","","","","","","","380.09999999962747","244046.30000000075","244426.40000000037","[""stimuli/WF11_SUR.jpg"",""stimuli/WF14_HO.jpg"",""stimuli/WM07_SC.jpg"",""stimuli/AM06_DO.jpg""]","stimuli/WF11_SUR.jpg","stimuli/WF14_HO.jpg","stimuli/WM07_SC.jpg","stimuli/AM06_DO.jpg","pos2","stimuli/WF14_HO.jpg","HO","WF14","1","5","10","8","stimuli/stars_10.png","99.5","[""SUR"",""HO"",""SC"",""DO""]","[""WF11"",""WF14"",""WM07"",""AM06""]","[2,10,6,4]","[2,8,6,4]","","",""
"show-reward","88","244998","0.0-88.0","p47485","A2E0LU8V4EUX5C","336OE47KI3QZCSCUXSQ8J11UOZXVWV","3907X2AHF2B3ICFLNYX3EMRCHGV2PK","model","match","uniform","","","","","","","","244929.40000000037","246932.59999999963","","","","","","","","","","","","10","","stimuli/stars_10.png","99.5","","","","","stimuli/WF14_HO.jpg","",""
"explore-choice","89","245937","0.0-89.0","p47485","A2E0LU8V4EUX5C","336OE47KI3QZCSCUXSQ8J11UOZXVWV","3907X2AHF2B3ICFLNYX3EMRCHGV2PK","model","match","uniform","","","","","","","437.2000000011176","246933.19999999925","247370.40000000037","[""stimuli/WF14_SUR.jpg"",""stimuli/WM07_DO.jpg"",""stimuli/WF11_HO.jpg"",""stimuli/AM06_SC.jpg""]","stimuli/WF14_SUR.jpg","stimuli/WM07_DO.jpg","stimuli/WF11_HO.jpg","stimuli/AM06_SC.jpg","pos2","stimuli/WM07_DO.jpg","DO","WM07","1","3.5","7","6","stimuli/stars_7.png","103","[""SUR"",""DO"",""HO"",""SC""]","[""WF14"",""WM07"",""WF11"",""AM06""]","[10,7,1,5]","[8,6,2,4]","","",""
"show-reward","90","247939","0.0-90.0","p47485","A2E0LU8V4EUX5C","336OE47KI3QZCSCUXSQ8J11UOZXVWV","3907X2AHF2B3ICFLNYX3EMRCHGV2PK","model","match","uniform","","","","","","","","247871.69999999925","249873.59999999963","","","","","","","","","","","","7","","stimuli/stars_7.png","103","","","","","stimuli/WM07_DO.jpg","",""
"explore-choice","91","248913","0.0-91.0","p47485","A2E0LU8V4EUX5C","336OE47KI3QZCSCUXSQ8J11UOZXVWV","3907X2AHF2B3ICFLNYX3EMRCHGV2PK","model","match","uniform","","","","","","","472.2000000011176","249874.19999999925","250346.40000000037","[""stimuli/WF11_HO.jpg"",""stimuli/AM06_SUR.jpg"",""stimuli/WF14_DO.jpg"",""stimuli/WM07_SC.jpg""]","stimuli/WF11_HO.jpg","stimuli/AM06_SUR.jpg","stimuli/WF14_DO.jpg","stimuli/WM07_SC.jpg","pos2","stimuli/AM06_SUR.jpg","SUR","AM06","1","3","6","4","stimuli/stars_6.png","106","[""HO"",""SUR"",""DO"",""SC""]","[""WF11"",""AM06"",""WF14"",""WM07""]","[3,6,6,7]","[2,4,8,6]","","",""
"show-reward","92","250919","0.0-92.0","p47485","A2E0LU8V4EUX5C","336OE47KI3QZCSCUXSQ8J11UOZXVWV","3907X2AHF2B3ICFLNYX3EMRCHGV2PK","model","match","uniform","","","","","","","","250848.5","252852.90000000037","","","","","","","","","","","","6","","stimuli/stars_6.png","106","","","","","stimuli/AM06_SUR.jpg","",""
"explore-choice","93","251785","0.0-93.0","p47485","A2E0LU8V4EUX5C","336OE47KI3QZCSCUXSQ8J11UOZXVWV","3907X2AHF2B3ICFLNYX3EMRCHGV2PK","model","match","uniform","","","","","","","364.7000000011176","252853.59999999963","253218.30000000075","[""stimuli/AM06_SC.jpg"",""stimuli/WF11_DO.jpg"",""stimuli/WF14_HO.jpg"",""stimuli/WM07_SUR.jpg""]","stimuli/AM06_SC.jpg","stimuli/WF11_DO.jpg","stimuli/WF14_HO.jpg","stimuli/WM07_SUR.jpg","pos2","stimuli/WF11_DO.jpg","DO","WF11","1","2","4","2","stimuli/stars_4.png","108","[""SC"",""DO"",""HO"",""SUR""]","[""AM06"",""WF11"",""WF14"",""WM07""]","[2,4,8,6]","[4,2,8,6]","","",""
"show-reward","94","253788","0.0-94.0","p47485","A2E0LU8V4EUX5C","336OE47KI3QZCSCUXSQ8J11UOZXVWV","3907X2AHF2B3ICFLNYX3EMRCHGV2PK","model","match","uniform","","","","","","","","253719.69999999925","255721.69999999925","","","","","","","","","","","","4","","stimuli/stars_4.png","108","","","","","stimuli/WF11_DO.jpg","",""
"explore-choice","95","254617","0.0-95.0","p47485","A2E0LU8V4EUX5C","336OE47KI3QZCSCUXSQ8J11UOZXVWV","3907X2AHF2B3ICFLNYX3EMRCHGV2PK","model","match","uniform","","","","","","","326.90000000037253","255723.5","256050.40000000037","[""stimuli/AM06_SUR.jpg"",""stimuli/WF11_SC.jpg"",""stimuli/WM07_HO.jpg"",""stimuli/WF14_DO.jpg""]","stimuli/AM06_SUR.jpg","stimuli/WF11_SC.jpg","stimuli/WM07_HO.jpg","stimuli/WF14_DO.jpg","pos2","stimuli/WF11_SC.jpg","SC","WF11","1","1","2","2","stimuli/stars_2.png","109","[""SUR"",""SC"",""HO"",""DO""]","[""AM06"",""WF11"",""WM07"",""WF14""]","[5,2,7,9]","[4,2,6,8]","","",""
"show-reward","96","256619","0.0-96.0","p47485","A2E0LU8V4EUX5C","336OE47KI3QZCSCUXSQ8J11UOZXVWV","3907X2AHF2B3ICFLNYX3EMRCHGV2PK","model","match","uniform","","","","","","","","256551.40000000037","258553","","","","","","","","","","","","2","","stimuli/stars_2.png","109","","","","","stimuli/WF11_SC.jpg","",""
"explore-choice","97","257458","0.0-97.0","p47485","A2E0LU8V4EUX5C","336OE47KI3QZCSCUXSQ8J11UOZXVWV","3907X2AHF2B3ICFLNYX3EMRCHGV2PK","model","match","uniform","","","","","","","336.80000000074506","258553.69999999925","258890.5","[""stimuli/WF14_SC.jpg"",""stimuli/WM07_HO.jpg"",""stimuli/AM06_DO.jpg"",""stimuli/WF11_SUR.jpg""]","stimuli/WF14_SC.jpg","stimuli/WM07_HO.jpg","stimuli/AM06_DO.jpg","stimuli/WF11_SUR.jpg","pos2","stimuli/WM07_HO.jpg","HO","WM07","1","2","4","6","stimuli/stars_4.png","111","[""SC"",""HO"",""DO"",""SUR""]","[""WF14"",""WM07"",""AM06"",""WF11""]","[9,4,5,0]","[8,6,4,2]","","",""
"show-reward","98","259464","0.0-98.0","p47485","A2E0LU8V4EUX5C","336OE47KI3QZCSCUXSQ8J11UOZXVWV","3907X2AHF2B3ICFLNYX3EMRCHGV2PK","model","match","uniform","","","","","","","","259394","261397.69999999925","","","","","","","","","","","","4","","stimuli/stars_4.png","111","","","","","stimuli/WM07_HO.jpg","",""
"explore-choice","99","260361","0.0-99.0","p47485","A2E0LU8V4EUX5C","336OE47KI3QZCSCUXSQ8J11UOZXVWV","3907X2AHF2B3ICFLNYX3EMRCHGV2PK","model","match","uniform","","","","","","","394.80000000074506","261399.69999999925","261794.5","[""stimuli/WF14_SC.jpg"",""stimuli/WM07_SUR.jpg"",""stimuli/AM06_DO.jpg"",""stimuli/WF11_HO.jpg""]","stimuli/WF14_SC.jpg","stimuli/WM07_SUR.jpg","stimuli/AM06_DO.jpg","stimuli/WF11_HO.jpg","pos2","stimuli/WM07_SUR.jpg","SUR","WM07","1","2.5","5","6","stimuli/stars_5.png","113.5","[""SC"",""SUR"",""DO"",""HO""]","[""WF14"",""WM07"",""AM06"",""WF11""]","[9,5,4,0]","[8,6,4,2]","","",""
"show-reward","100","262366","0.0-100.0","p47485","A2E0LU8V4EUX5C","336OE47KI3QZCSCUXSQ8J11UOZXVWV","3907X2AHF2B3ICFLNYX3EMRCHGV2PK","model","match","uniform","","","","","","","","262297.0999999996","264300.30000000075","","","","","","","","","","","","5","","stimuli/stars_5.png","113.5","","","","","stimuli/WM07_SUR.jpg","",""
"explore-choice","101","263233","0.0-101.0","p47485","A2E0LU8V4EUX5C","336OE47KI3QZCSCUXSQ8J11UOZXVWV","3907X2AHF2B3ICFLNYX3EMRCHGV2PK","model","match","uniform","","","","","","","365.40000000037253","264301","264666.4000000004","[""stimuli/WF14_SC.jpg"",""stimuli/WM07_DO.jpg"",""stimuli/WF11_SUR.jpg"",""stimuli/AM06_HO.jpg""]","stimuli/WF14_SC.jpg","stimuli/WM07_DO.jpg","stimuli/WF11_SUR.jpg","stimuli/AM06_HO.jpg","pos2","stimuli/WM07_DO.jpg","DO","WM07","1","3","6","6","stimuli/stars_6.png","116.5","[""SC"",""DO"",""SUR"",""HO""]","[""WF14"",""WM07"",""WF11"",""AM06""]","[8,6,2,2]","[8,6,2,4]","","",""
"show-reward","102","265239","0.0-102.0","p47485","A2E0LU8V4EUX5C","336OE47KI3QZCSCUXSQ8J11UOZXVWV","3907X2AHF2B3ICFLNYX3EMRCHGV2PK","model","match","uniform","","","","","","","","265171.4000000004","267173.5","","","","","","","","","","","","6","","stimuli/stars_6.png","116.5","","","","","stimuli/WM07_DO.jpg","",""
"explore-choice","103","266225","0.0-103.0","p47485","A2E0LU8V4EUX5C","336OE47KI3QZCSCUXSQ8J11UOZXVWV","3907X2AHF2B3ICFLNYX3EMRCHGV2PK","model","match","uniform","","","","","","","484.30000000074506","267174.0999999996","267658.4000000004","[""stimuli/BM03_FO.jpg"",""stimuli/HF04_AO.jpg"",""stimuli/AF02_HE.jpg"",""stimuli/WF04_CC.jpg""]","stimuli/BM03_FO.jpg","stimuli/HF04_AO.jpg","stimuli/AF02_HE.jpg","stimuli/WF04_CC.jpg","pos2","stimuli/HF04_AO.jpg","AO","HF04","1","4","8","6","stimuli/stars_8.png","120.5","[""FO"",""AO"",""HE"",""CC""]","[""BM03"",""HF04"",""AF02"",""WF04""]","[3,8,6,6]","[2,6,4,8]","","",""
"show-reward","104","268231","0.0-104.0","p47485","A2E0LU8V4EUX5C","336OE47KI3QZCSCUXSQ8J11UOZXVWV","3907X2AHF2B3ICFLNYX3EMRCHGV2PK","model","match","uniform","","","","","","","","268160.5","270165.30000000075","","","","","","","","","","","","8","","stimuli/stars_8.png","120.5","","","","","stimuli/HF04_AO.jpg","",""
"explore-choice","105","269241","0.0-105.0","p47485","A2E0LU8V4EUX5C","336OE47KI3QZCSCUXSQ8J11UOZXVWV","3907X2AHF2B3ICFLNYX3EMRCHGV2PK","model","match","uniform","","","","","","","507.40000000037253","270167.0999999996","270674.5","[""stimuli/WF04_HE.jpg"",""stimuli/HF04_CC.jpg"",""stimuli/BM03_AO.jpg"",""stimuli/AF02_FO.jpg""]","stimuli/WF04_HE.jpg","stimuli/HF04_CC.jpg","stimuli/BM03_AO.jpg","stimuli/AF02_FO.jpg","pos2","stimuli/HF04_CC.jpg","CC","HF04","1","2","4","6","stimuli/stars_4.png","122.5","[""HE"",""CC"",""AO"",""FO""]","[""WF04"",""HF04"",""BM03"",""AF02""]","[7,4,2,5]","[8,6,2,4]","","",""
"show-reward","106","271248","0.0-106.0","p47485","A2E0LU8V4EUX5C","336OE47KI3QZCSCUXSQ8J11UOZXVWV","3907X2AHF2B3ICFLNYX3EMRCHGV2PK","model","match","uniform","","","","","","","","271177.5999999996","273182.5","","","","","","","","","","","","4","","stimuli/stars_4.png","122.5","","","","","stimuli/HF04_CC.jpg","",""
"explore-choice","107","272233","0.0-107.0","p47485","A2E0LU8V4EUX5C","336OE47KI3QZCSCUXSQ8J11UOZXVWV","3907X2AHF2B3ICFLNYX3EMRCHGV2PK","model","match","uniform","","","","","","","483.2000000011176","273183.19999999925","273666.4000000004","[""stimuli/WF04_AO.jpg"",""stimuli/AF02_CC.jpg"",""stimuli/BM03_HE.jpg"",""stimuli/HF04_FO.jpg""]","stimuli/WF04_AO.jpg","stimuli/AF02_CC.jpg","stimuli/BM03_HE.jpg","stimuli/HF04_FO.jpg","pos2","stimuli/AF02_CC.jpg","CC","AF02","1","2","4","4","stimuli/stars_4.png","124.5","[""AO"",""CC"",""HE"",""FO""]","[""WF04"",""AF02"",""BM03"",""HF04""]","[8,4,3,6]","[8,4,2,6]","","",""
"show-reward","108","274236","0.0-108.0","p47485","A2E0LU8V4EUX5C","336OE47KI3QZCSCUXSQ8J11UOZXVWV","3907X2AHF2B3ICFLNYX3EMRCHGV2PK","model","match","uniform","","","","","","","","274168.0999999996","276169.69999999925","","","","","","","","","","","","4","","stimuli/stars_4.png","124.5","","","","","stimuli/AF02_CC.jpg","",""
"explore-choice","109","275113","0.0-109.0","p47485","A2E0LU8V4EUX5C","336OE47KI3QZCSCUXSQ8J11UOZXVWV","3907X2AHF2B3ICFLNYX3EMRCHGV2PK","model","match","uniform","","","","","","","376.40000000037253","276170.19999999925","276546.5999999996","[""stimuli/WF04_HE.jpg"",""stimuli/HF04_CC.jpg"",""stimuli/BM03_FO.jpg"",""stimuli/AF02_AO.jpg""]","stimuli/WF04_HE.jpg","stimuli/HF04_CC.jpg","stimuli/BM03_FO.jpg","stimuli/AF02_AO.jpg","pos2","stimuli/HF04_CC.jpg","CC","HF04","1","2.5","5","6","stimuli/stars_5.png","127","[""HE"",""CC"",""FO"",""AO""]","[""WF04"",""HF04"",""BM03"",""AF02""]","[7,5,3,3]","[8,6,2,4]","","",""
"show-reward","110","277119","0.0-110.0","p47485","A2E0LU8V4EUX5C","336OE47KI3QZCSCUXSQ8J11UOZXVWV","3907X2AHF2B3ICFLNYX3EMRCHGV2PK","model","match","uniform","","","","","","","","277049.0999999996","279052.9000000004","","","","","","","","","","","","5","","stimuli/stars_5.png","127","","","","","stimuli/HF04_CC.jpg","",""
"explore-choice","111","278058","0.0-111.0","p47485","A2E0LU8V4EUX5C","336OE47KI3QZCSCUXSQ8J11UOZXVWV","3907X2AHF2B3ICFLNYX3EMRCHGV2PK","model","match","uniform","","","","","","","436.59999999962747","279053.80000000075","279490.4000000004","[""stimuli/BM03_AO.jpg"",""stimuli/AF02_FO.jpg"",""stimuli/WF04_CC.jpg"",""stimuli/HF04_HE.jpg""]","stimuli/BM03_AO.jpg","stimuli/AF02_FO.jpg","stimuli/WF04_CC.jpg","stimuli/HF04_HE.jpg","pos2","stimuli/AF02_FO.jpg","FO","AF02","1","2.5","5","4","stimuli/stars_5.png","129.5","[""AO"",""FO"",""CC"",""HE""]","[""BM03"",""AF02"",""WF04"",""HF04""]","[1,5,9,6]","[2,4,8,6]","","",""
"show-reward","112","280062","0.0-112.0","p47485","A2E0LU8V4EUX5C","336OE47KI3QZCSCUXSQ8J11UOZXVWV","3907X2AHF2B3ICFLNYX3EMRCHGV2PK","model","match","uniform","","","","","","","","279993.5","281995.80000000075","","","","","","","","","","","","5","","stimuli/stars_5.png","129.5","","","","","stimuli/AF02_FO.jpg","",""
"explore-choice","113","280929","0.0-113.0","p47485","A2E0LU8V4EUX5C","336OE47KI3QZCSCUXSQ8J11UOZXVWV","3907X2AHF2B3ICFLNYX3EMRCHGV2PK","model","match","uniform","","","","","","","364.90000000037253","281997.5","282362.4000000004","[""stimuli/AF02_CC.jpg"",""stimuli/HF04_HE.jpg"",""stimuli/BM03_FO.jpg"",""stimuli/WF04_AO.jpg""]","stimuli/AF02_CC.jpg","stimuli/HF04_HE.jpg","stimuli/BM03_FO.jpg","stimuli/WF04_AO.jpg","pos2","stimuli/HF04_HE.jpg","HE","HF04","1","3","6","6","stimuli/stars_6.png","132.5","[""CC"",""HE"",""FO"",""AO""]","[""AF02"",""HF04"",""BM03"",""WF04""]","[4,6,2,6]","[4,6,2,8]","","",""
"show-reward","114","282934","0.0-114.0","p47485","A2E0LU8V4EUX5C","336OE47KI3QZCSCUXSQ8J11UOZXVWV","3907X2AHF2B3ICFLNYX3EMRCHGV2PK","model","match","uniform","","","","","","","","282864.30000000075","284867.9000000004","","","","","","","","","","","","6","","stimuli/stars_6.png","132.5","","","","","stimuli/HF04_HE.jpg","",""
"explore-choice","115","284689","0.0-115.0","p47485","A2E0LU8V4EUX5C","336OE47KI3QZCSCUXSQ8J11UOZXVWV","3907X2AHF2B3ICFLNYX3EMRCHGV2PK","model","match","uniform","","","","","","","1252.9000000003725","284869.5","286122.4000000004","[""stimuli/WF04_HE.jpg"",""stimuli/AF02_FO.jpg"",""stimuli/BM03_CC.jpg"",""stimuli/HF04_AO.jpg""]","stimuli/WF04_HE.jpg","stimuli/AF02_FO.jpg","stimuli/BM03_CC.jpg","stimuli/HF04_AO.jpg","pos1","stimuli/WF04_HE.jpg","HE","WF04","0","4","8","8","stimuli/stars_8.png","136.5","[""HE"",""FO"",""CC"",""AO""]","[""WF04"",""AF02"",""BM03"",""HF04""]","[8,4,2,6]","[8,4,2,6]","","",""
"show-reward","116","286695","0.0-116.0","p47485","A2E0LU8V4EUX5C","336OE47KI3QZCSCUXSQ8J11UOZXVWV","3907X2AHF2B3ICFLNYX3EMRCHGV2PK","model","match","uniform","","","","","","","","286625.0999999996","288628.69999999925","","","","","","","","","","","","8","","stimuli/stars_8.png","136.5","","","","","stimuli/WF04_HE.jpg","",""
"explore-choice","117","287666","0.0-117.0","p47485","A2E0LU8V4EUX5C","336OE47KI3QZCSCUXSQ8J11UOZXVWV","3907X2AHF2B3ICFLNYX3EMRCHGV2PK","model","match","uniform","","","","","","","468.2999999988824","288630.30000000075","289098.5999999996","[""stimuli/AF02_CC.jpg"",""stimuli/HF04_FO.jpg"",""stimuli/BM03_AO.jpg"",""stimuli/WF04_HE.jpg""]","stimuli/AF02_CC.jpg","stimuli/HF04_FO.jpg","stimuli/BM03_AO.jpg","stimuli/WF04_HE.jpg","pos1","stimuli/AF02_CC.jpg","CC","AF02","0","3","6","4","stimuli/stars_6.png","139.5","[""CC"",""FO"",""AO"",""HE""]","[""AF02"",""HF04"",""BM03"",""WF04""]","[6,5,2,6]","[4,6,2,8]","","",""
"show-reward","118","289671","0.0-118.0","p47485","A2E0LU8V4EUX5C","336OE47KI3QZCSCUXSQ8J11UOZXVWV","3907X2AHF2B3ICFLNYX3EMRCHGV2PK","model","match","uniform","","","","","","","","289601.4000000004","291604.9000000004","","","","","","","","","","","","6","","stimuli/stars_6.png","139.5","","","","","stimuli/AF02_CC.jpg","",""
"explore-choice","119","290569","0.0-119.0","p47485","A2E0LU8V4EUX5C","336OE47KI3QZCSCUXSQ8J11UOZXVWV","3907X2AHF2B3ICFLNYX3EMRCHGV2PK","model","match","uniform","","","","","","","395.80000000074506","291606.5999999996","292002.4000000004","[""stimuli/HF04_AO.jpg"",""stimuli/BM03_FO.jpg"",""stimuli/AF02_CC.jpg"",""stimuli/WF04_HE.jpg""]","stimuli/HF04_AO.jpg","stimuli/BM03_FO.jpg","stimuli/AF02_CC.jpg","stimuli/WF04_HE.jpg","pos1","stimuli/HF04_AO.jpg","AO","HF04","0","2","4","6","stimuli/stars_4.png","141.5","[""AO"",""FO"",""CC"",""HE""]","[""HF04"",""BM03"",""AF02"",""WF04""]","[4,2,4,7]","[6,2,4,8]","","",""
"show-reward","120","292572","0.0-120.0","p47485","A2E0LU8V4EUX5C","336OE47KI3QZCSCUXSQ8J11UOZXVWV","3907X2AHF2B3ICFLNYX3EMRCHGV2PK","model","match","uniform","","","","","","","","292503.5","294506.19999999925","","","","","","","","","","","","4","","stimuli/stars_4.png","141.5","","","","","stimuli/HF04_AO.jpg","",""
"explore-choice","121","293409","0.0-121.0","p47485","A2E0LU8V4EUX5C","336OE47KI3QZCSCUXSQ8J11UOZXVWV","3907X2AHF2B3ICFLNYX3EMRCHGV2PK","model","match","uniform","","","","","","","334.59999999962747","294507.9000000004","294842.5","[""stimuli/AF02_AO.jpg"",""stimuli/WF04_CC.jpg"",""stimuli/BM03_HE.jpg"",""stimuli/HF04_FO.jpg""]","stimuli/AF02_AO.jpg","stimuli/WF04_CC.jpg","stimuli/BM03_HE.jpg","stimuli/HF04_FO.jpg","pos1","stimuli/AF02_AO.jpg","AO","AF02","0","1","2","4","stimuli/stars_2.png","142.5","[""AO"",""CC"",""HE"",""FO""]","[""AF02"",""WF04"",""BM03"",""HF04""]","[2,8,2,4]","[4,8,2,6]","","",""
"show-reward","122","295413","0.0-122.0","p47485","A2E0LU8V4EUX5C","336OE47KI3QZCSCUXSQ8J11UOZXVWV","3907X2AHF2B3ICFLNYX3EMRCHGV2PK","model","match","uniform","","","","","","","","295344.5999999996","297347.5","","","","","","","","","","","","2","","stimuli/stars_2.png","142.5","","","","","stimuli/AF02_AO.jpg","",""
"explore-choice","123","296305","0.0-123.0","p47485","A2E0LU8V4EUX5C","336OE47KI3QZCSCUXSQ8J11UOZXVWV","3907X2AHF2B3ICFLNYX3EMRCHGV2PK","model","match","uniform","","","","","","","389.30000000074506","297349.19999999925","297738.5","[""stimuli/HF04_CC.jpg"",""stimuli/BM03_HE.jpg"",""stimuli/AF02_FO.jpg"",""stimuli/WF04_AO.jpg""]","stimuli/HF04_CC.jpg","stimuli/BM03_HE.jpg","stimuli/AF02_FO.jpg","stimuli/WF04_AO.jpg","pos1","stimuli/HF04_CC.jpg","CC","HF04","0","2","4","6","stimuli/stars_4.png","144.5","[""CC"",""HE"",""FO"",""AO""]","[""HF04"",""BM03"",""AF02"",""WF04""]","[4,1,4,8]","[6,2,4,8]","","",""
"show-reward","124","298310","0.0-124.0","p47485","A2E0LU8V4EUX5C","336OE47KI3QZCSCUXSQ8J11UOZXVWV","3907X2AHF2B3ICFLNYX3EMRCHGV2PK","model","match","uniform","","","","","","","","298240.9000000004","300244.0999999996","","","","","","","","","","","","4","","stimuli/stars_4.png","144.5","","","","","stimuli/HF04_CC.jpg","",""
"explore-choice","125","299169","0.0-125.0","p47485","A2E0LU8V4EUX5C","336OE47KI3QZCSCUXSQ8J11UOZXVWV","3907X2AHF2B3ICFLNYX3EMRCHGV2PK","model","match","uniform","","","","","","","356.3999999985099","300245.80000000075","300602.19999999925","[""stimuli/HF04_FO.jpg"",""stimuli/BM03_CC.jpg"",""stimuli/WF04_HE.jpg"",""stimuli/AF02_AO.jpg""]","stimuli/HF04_FO.jpg","stimuli/BM03_CC.jpg","stimuli/WF04_HE.jpg","stimuli/AF02_AO.jpg","pos1","stimuli/HF04_FO.jpg","FO","HF04","0","3","6","6","stimuli/stars_6.png","147.5","[""FO"",""CC"",""HE"",""AO""]","[""HF04"",""BM03"",""WF04"",""AF02""]","[6,1,8,5]","[6,2,8,4]","","",""
"show-reward","126","301175","0.0-126.0","p47485","A2E0LU8V4EUX5C","336OE47KI3QZCSCUXSQ8J11UOZXVWV","3907X2AHF2B3ICFLNYX3EMRCHGV2PK","model","match","uniform","","","","","","","","301104.80000000075","303108.80000000075","","","","","","","","","","","","6","","stimuli/stars_6.png","147.5","","","","","stimuli/HF04_FO.jpg","",""
"explore-choice","127","302089","0.0-127.0","p47485","A2E0LU8V4EUX5C","336OE47KI3QZCSCUXSQ8J11UOZXVWV","3907X2AHF2B3ICFLNYX3EMRCHGV2PK","model","match","uniform","","","","","","","413.5","303109.4000000004","303522.9000000004","[""stimuli/HF04_FO.jpg"",""stimuli/AF02_HE.jpg"",""stimuli/BM03_CC.jpg"",""stimuli/WF04_AO.jpg""]","stimuli/HF04_FO.jpg","stimuli/AF02_HE.jpg","stimuli/BM03_CC.jpg","stimuli/WF04_AO.jpg","pos1","stimuli/HF04_FO.jpg","FO","HF04","0","3","6","6","stimuli/stars_6.png","150.5","[""FO"",""HE"",""CC"",""AO""]","[""HF04"",""AF02"",""BM03"",""WF04""]","[6,2,2,8]","[6,4,2,8]","","",""
"show-reward","128","304092","0.0-128.0","p47485","A2E0LU8V4EUX5C","336OE47KI3QZCSCUXSQ8J11UOZXVWV","3907X2AHF2B3ICFLNYX3EMRCHGV2PK","model","match","uniform","","","","","","","","304023.9000000004","306026.5","","","","","","","","","","","","6","","stimuli/stars_6.png","150.5","","","","","stimuli/HF04_FO.jpg","",""
"explore-choice","129","306185","0.0-129.0","p47485","A2E0LU8V4EUX5C","336OE47KI3QZCSCUXSQ8J11UOZXVWV","3907X2AHF2B3ICFLNYX3EMRCHGV2PK","model","match","uniform","","","","","","","1590.2000000011176","306028.0999999996","307618.30000000075","[""stimuli/AF02_HE.jpg"",""stimuli/WF04_AO.jpg"",""stimuli/BM03_FO.jpg"",""stimuli/HF04_CC.jpg""]","stimuli/AF02_HE.jpg","stimuli/WF04_AO.jpg","stimuli/BM03_FO.jpg","stimuli/HF04_CC.jpg","pos4","stimuli/HF04_CC.jpg","CC","HF04","3","2","4","6","stimuli/stars_4.png","152.5","[""HE"",""AO"",""FO"",""CC""]","[""AF02"",""WF04"",""BM03"",""HF04""]","[5,7,2,4]","[4,8,2,6]","","",""
"show-reward","130","308186","0.0-130.0","p47485","A2E0LU8V4EUX5C","336OE47KI3QZCSCUXSQ8J11UOZXVWV","3907X2AHF2B3ICFLNYX3EMRCHGV2PK","model","match","uniform","","","","","","","","308119.4000000004","310120.5999999996","","","","","","","","","","","","4","","stimuli/stars_4.png","152.5","","","","","stimuli/HF04_CC.jpg","",""
"explore-choice","131","309048","0.0-131.0","p47485","A2E0LU8V4EUX5C","336OE47KI3QZCSCUXSQ8J11UOZXVWV","3907X2AHF2B3ICFLNYX3EMRCHGV2PK","model","match","uniform","","","","","","","360.1000000014901","310122.19999999925","310482.30000000075","[""stimuli/AF02_AO.jpg"",""stimuli/WF04_CC.jpg"",""stimuli/HF04_HE.jpg"",""stimuli/BM03_FO.jpg""]","stimuli/AF02_AO.jpg","stimuli/WF04_CC.jpg","stimuli/HF04_HE.jpg","stimuli/BM03_FO.jpg","pos4","stimuli/BM03_FO.jpg","FO","BM03","3","1","2","2","stimuli/stars_2.png","153.5","[""AO"",""CC"",""HE"",""FO""]","[""AF02"",""WF04"",""HF04"",""BM03""]","[5,10,8,2]","[4,8,6,2]","","",""
"show-reward","132","311051","0.0-132.0","p47485","A2E0LU8V4EUX5C","336OE47KI3QZCSCUXSQ8J11UOZXVWV","3907X2AHF2B3ICFLNYX3EMRCHGV2PK","model","match","uniform","","","","","","","","310983.5","312984.9000000004","","","","","","","","","","","","2","","stimuli/stars_2.png","153.5","","","","","stimuli/BM03_FO.jpg","",""
"explore-choice","133","311962","0.0-133.0","p47485","A2E0LU8V4EUX5C","336OE47KI3QZCSCUXSQ8J11UOZXVWV","3907X2AHF2B3ICFLNYX3EMRCHGV2PK","model","match","uniform","","","","","","","408.80000000074506","312985.5999999996","313394.4000000004","[""stimuli/HF04_AO.jpg"",""stimuli/WF04_FO.jpg"",""stimuli/AF02_HE.jpg"",""stimuli/BM03_CC.jpg""]","stimuli/HF04_AO.jpg","stimuli/WF04_FO.jpg","stimuli/AF02_HE.jpg","stimuli/BM03_CC.jpg","pos4","stimuli/BM03_CC.jpg","CC","BM03","3","0","0","2","stimuli/stars_0.png","153.5","[""AO"",""FO"",""HE"",""CC""]","[""HF04"",""WF04"",""AF02"",""BM03""]","[5,10,2,0]","[6,8,4,2]","","",""
"show-reward","134","313968","0.0-134.0","p47485","A2E0LU8V4EUX5C","336OE47KI3QZCSCUXSQ8J11UOZXVWV","3907X2AHF2B3ICFLNYX3EMRCHGV2PK","model","match","uniform","","","","","","","","313897.69999999925","315902.0999999996","","","","","","","","","","","","0","","stimuli/stars_0.png","153.5","","","","","stimuli/BM03_CC.jpg","",""
"explore-choice","135","315098","0.0-135.0","p47485","A2E0LU8V4EUX5C","336OE47KI3QZCSCUXSQ8J11UOZXVWV","3907X2AHF2B3ICFLNYX3EMRCHGV2PK","model","match","uniform","","","","","","","626.5","315903.80000000075","316530.30000000075","[""stimuli/BM03_HE.jpg"",""stimuli/HF04_CC.jpg"",""stimuli/AF02_AO.jpg"",""stimuli/WF04_FO.jpg""]","stimuli/BM03_HE.jpg","stimuli/HF04_CC.jpg","stimuli/AF02_AO.jpg","stimuli/WF04_FO.jpg","pos3","stimuli/AF02_AO.jpg","AO","AF02","2","3","6","4","stimuli/stars_6.png","156.5","[""HE"",""CC"",""AO"",""FO""]","[""BM03"",""HF04"",""AF02"",""WF04""]","[1,7,6,8]","[2,6,4,8]","","",""
"show-reward","136","317100","0.0-136.0","p47485","A2E0LU8V4EUX5C","336OE47KI3QZCSCUXSQ8J11UOZXVWV","3907X2AHF2B3ICFLNYX3EMRCHGV2PK","model","match","uniform","","","","","","","","317033.0999999996","319034.5999999996","","","","","","","","","","","","6","","stimuli/stars_6.png","156.5","","","","","stimuli/AF02_AO.jpg","",""
"explore-choice","137","318041","0.0-137.0","p47485","A2E0LU8V4EUX5C","336OE47KI3QZCSCUXSQ8J11UOZXVWV","3907X2AHF2B3ICFLNYX3EMRCHGV2PK","model","match","uniform","","","","","","","438.1000000014901","319036.19999999925","319474.30000000075","[""stimuli/HF04_HE.jpg"",""stimuli/WF04_AO.jpg"",""stimuli/BM03_CC.jpg"",""stimuli/AF02_FO.jpg""]","stimuli/HF04_HE.jpg","stimuli/WF04_AO.jpg","stimuli/BM03_CC.jpg","stimuli/AF02_FO.jpg","pos3","stimuli/BM03_CC.jpg","CC","BM03","2","2","4","2","stimuli/stars_4.png","158.5","[""HE"",""AO"",""CC"",""FO""]","[""HF04"",""WF04"",""BM03"",""AF02""]","[5,9,4,2]","[6,8,2,4]","","",""
"show-reward","138","320046","0.0-138.0","p47485","A2E0LU8V4EUX5C","336OE47KI3QZCSCUXSQ8J11UOZXVWV","3907X2AHF2B3ICFLNYX3EMRCHGV2PK","model","match","uniform","","","","","","","","319976.5999999996","321979.9000000004","","","","","","","","","","","","4","","stimuli/stars_4.png","158.5","","","","","stimuli/BM03_CC.jpg","",""
"explore-choice","139","320897","0.0-139.0","p47485","A2E0LU8V4EUX5C","336OE47KI3QZCSCUXSQ8J11UOZXVWV","3907X2AHF2B3ICFLNYX3EMRCHGV2PK","model","match","uniform","","","","","","","350","321980.4000000004","322330.4000000004","[""stimuli/WF04_CC.jpg"",""stimuli/AF02_HE.jpg"",""stimuli/HF04_FO.jpg"",""stimuli/BM03_AO.jpg""]","stimuli/WF04_CC.jpg","stimuli/AF02_HE.jpg","stimuli/HF04_FO.jpg","stimuli/BM03_AO.jpg","pos3","stimuli/HF04_FO.jpg","FO","HF04","2","4","8","6","stimuli/stars_8.png","162.5","[""CC"",""HE"",""FO"",""AO""]","[""WF04"",""AF02"",""HF04"",""BM03""]","[9,6,8,0]","[8,4,6,2]","","",""
"show-reward","140","322903","0.0-140.0","p47485","A2E0LU8V4EUX5C","336OE47KI3QZCSCUXSQ8J11UOZXVWV","3907X2AHF2B3ICFLNYX3EMRCHGV2PK","model","match","uniform","","","","","","","","322832.5999999996","324836.69999999925","","","","","","","","","","","","8","","stimuli/stars_8.png","162.5","","","","","stimuli/HF04_FO.jpg","",""
"explore-choice","141","323745","0.0-141.0","p47485","A2E0LU8V4EUX5C","336OE47KI3QZCSCUXSQ8J11UOZXVWV","3907X2AHF2B3ICFLNYX3EMRCHGV2PK","model","match","uniform","","","","","","","339.80000000074506","324838.5999999996","325178.4000000004","[""stimuli/BM03_AO.jpg"",""stimuli/WF04_FO.jpg"",""stimuli/HF04_CC.jpg"",""stimuli/AF02_HE.jpg""]","stimuli/BM03_AO.jpg","stimuli/WF04_FO.jpg","stimuli/HF04_CC.jpg","stimuli/AF02_HE.jpg","pos3","stimuli/HF04_CC.jpg","CC","HF04","2","3","6","6","stimuli/stars_6.png","165.5","[""AO"",""FO"",""CC"",""HE""]","[""BM03"",""WF04"",""HF04"",""AF02""]","[1,9,6,2]","[2,8,6,4]","","",""
"show-reward","142","325750","0.0-142.0","p47485","A2E0LU8V4EUX5C","336OE47KI3QZCSCUXSQ8J11UOZXVWV","3907X2AHF2B3ICFLNYX3EMRCHGV2PK","model","match","uniform","","","","","","","","325680.4000000004","327684.30000000075","","","","","","","","","","","","6","","stimuli/stars_6.png","165.5","","","","","stimuli/HF04_CC.jpg","",""
"explore-choice","143","326616","0.0-143.0","p47485","A2E0LU8V4EUX5C","336OE47KI3QZCSCUXSQ8J11UOZXVWV","3907X2AHF2B3ICFLNYX3EMRCHGV2PK","model","match","uniform","","","","","","","364.19999999925494","327686","328050.19999999925","[""stimuli/AF02_CC.jpg"",""stimuli/WF04_FO.jpg"",""stimuli/BM03_HE.jpg"",""stimuli/HF04_AO.jpg""]","stimuli/AF02_CC.jpg","stimuli/WF04_FO.jpg","stimuli/BM03_HE.jpg","stimuli/HF04_AO.jpg","pos3","stimuli/BM03_HE.jpg","HE","BM03","2","0","0","2","stimuli/stars_0.png","165.5","[""CC"",""FO"",""HE"",""AO""]","[""AF02"",""WF04"",""BM03"",""HF04""]","[2,6,0,7]","[4,8,2,6]","","",""
"show-reward","144","328622","0.0-144.0","p47485","A2E0LU8V4EUX5C","336OE47KI3QZCSCUXSQ8J11UOZXVWV","3907X2AHF2B3ICFLNYX3EMRCHGV2PK","model","match","uniform","","","","","","","","328552.30000000075","330556.0999999996","","","","","","","","","","","","0","","stimuli/stars_0.png","165.5","","","","","stimuli/BM03_HE.jpg","",""
"explore-choice","145","329249","0.0-145.0","p47485","A2E0LU8V4EUX5C","336OE47KI3QZCSCUXSQ8J11UOZXVWV","3907X2AHF2B3ICFLNYX3EMRCHGV2PK","model","match","uniform","","","","","","","124.69999999925494","330557.80000000075","330682.5","[""stimuli/AF02_CC.jpg"",""stimuli/WF04_FO.jpg"",""stimuli/HF04_HE.jpg"",""stimuli/BM03_AO.jpg""]","stimuli/AF02_CC.jpg","stimuli/WF04_FO.jpg","stimuli/HF04_HE.jpg","stimuli/BM03_AO.jpg","pos3","stimuli/HF04_HE.jpg","HE","HF04","2","2","4","6","stimuli/stars_4.png","167.5","[""CC"",""FO"",""HE"",""AO""]","[""AF02"",""WF04"",""HF04"",""BM03""]","[5,10,4,3]","[4,8,6,2]","","",""
"show-reward","146","331252","0.0-146.0","p47485","A2E0LU8V4EUX5C","336OE47KI3QZCSCUXSQ8J11UOZXVWV","3907X2AHF2B3ICFLNYX3EMRCHGV2PK","model","match","uniform","","","","","","","","331184.4000000004","333185.5999999996","","","","","","","","","","","","4","","stimuli/stars_4.png","167.5","","","","","stimuli/HF04_HE.jpg","",""
"explore-choice","147","332057","0.0-147.0","p47485","A2E0LU8V4EUX5C","336OE47KI3QZCSCUXSQ8J11UOZXVWV","3907X2AHF2B3ICFLNYX3EMRCHGV2PK","model","match","uniform","","","","","","","303.2999999988824","333187.4000000004","333490.69999999925","[""stimuli/HF04_HE.jpg"",""stimuli/AF02_AO.jpg"",""stimuli/BM03_CC.jpg"",""stimuli/WF04_FO.jpg""]","stimuli/HF04_HE.jpg","stimuli/AF02_AO.jpg","stimuli/BM03_CC.jpg","stimuli/WF04_FO.jpg","pos3","stimuli/BM03_CC.jpg","CC","BM03","2","0.5","1","2","stimuli/stars_1.png","168","[""HE"",""AO"",""CC"",""FO""]","[""HF04"",""AF02"",""BM03"",""WF04""]","[5,6,1,6]","[6,4,2,8]","","",""
"show-reward","148","334062","0.0-148.0","p47485","A2E0LU8V4EUX5C","336OE47KI3QZCSCUXSQ8J11UOZXVWV","3907X2AHF2B3ICFLNYX3EMRCHGV2PK","model","match","uniform","","","","","","","","333992.80000000075","335996.30000000075","","","","","","","","","","","","1","","stimuli/stars_1.png","168","","","","","stimuli/BM03_CC.jpg","",""
"explore-choice","149","335313","0.0-149.0","p47485","A2E0LU8V4EUX5C","336OE47KI3QZCSCUXSQ8J11UOZXVWV","3907X2AHF2B3ICFLNYX3EMRCHGV2PK","model","match","uniform","","","","","","","748.5","335997.9000000004","336746.4000000004","[""stimuli/HF04_AO.jpg"",""stimuli/WF04_CC.jpg"",""stimuli/AF02_FO.jpg"",""stimuli/BM03_HE.jpg""]","stimuli/HF04_AO.jpg","stimuli/WF04_CC.jpg","stimuli/AF02_FO.jpg","stimuli/BM03_HE.jpg","pos4","stimuli/BM03_HE.jpg","HE","BM03","3","0","0","2","stimuli/stars_0.png","168","[""AO"",""CC"",""FO"",""HE""]","[""HF04"",""WF04"",""AF02"",""BM03""]","[7,7,5,0]","[6,8,4,2]","","",""
"show-reward","150","337318","0.0-150.0","p47485","A2E0LU8V4EUX5C","336OE47KI3QZCSCUXSQ8J11UOZXVWV","3907X2AHF2B3ICFLNYX3EMRCHGV2PK","model","match","uniform","","","","","","","","337248.80000000075","339252.30000000075","","","","","","","","","","","","0","","stimuli/stars_0.png","168","","","","","stimuli/BM03_HE.jpg","",""
"explore-choice","151","338242","0.0-151.0","p47485","A2E0LU8V4EUX5C","336OE47KI3QZCSCUXSQ8J11UOZXVWV","3907X2AHF2B3ICFLNYX3EMRCHGV2PK","model","match","uniform","","","","","","","421.40000000037253","339252.9000000004","339674.30000000075","[""stimuli/AF02_CC.jpg"",""stimuli/BM03_AO.jpg"",""stimuli/WF04_FO.jpg"",""stimuli/HF04_HE.jpg""]","stimuli/AF02_CC.jpg","stimuli/BM03_AO.jpg","stimuli/WF04_FO.jpg","stimuli/HF04_HE.jpg","pos2","stimuli/BM03_AO.jpg","AO","BM03","1","1.5","3","2","stimuli/stars_3.png","169.5","[""CC"",""AO"",""FO"",""HE""]","[""AF02"",""BM03"",""WF04"",""HF04""]","[5,3,10,4]","[4,2,8,6]","","",""
"show-reward","152","340248","0.0-152.0","p47485","A2E0LU8V4EUX5C","336OE47KI3QZCSCUXSQ8J11UOZXVWV","3907X2AHF2B3ICFLNYX3EMRCHGV2PK","model","match","uniform","","","","","","","","340177.69999999925","342181.69999999925","","","","","","","","","","","","3","","stimuli/stars_3.png","169.5","","","","","stimuli/BM03_AO.jpg","",""
"explore-choice","153","341705","0.0-153.0","p47485","A2E0LU8V4EUX5C","336OE47KI3QZCSCUXSQ8J11UOZXVWV","3907X2AHF2B3ICFLNYX3EMRCHGV2PK","model","match","uniform","","","","","","","954.9000000003725","342183.4000000004","343138.30000000075","[""stimuli/BM03_CC.jpg"",""stimuli/HF04_AO.jpg"",""stimuli/WF04_FO.jpg"",""stimuli/AF02_HE.jpg""]","stimuli/BM03_CC.jpg","stimuli/HF04_AO.jpg","stimuli/WF04_FO.jpg","stimuli/AF02_HE.jpg","pos1","stimuli/BM03_CC.jpg","CC","BM03","0","0","0","2","stimuli/stars_0.png","169.5","[""CC"",""AO"",""FO"",""HE""]","[""BM03"",""HF04"",""WF04"",""AF02""]","[0,5,10,2]","[2,6,8,4]","","",""
"show-reward","154","343710","0.0-154.0","p47485","A2E0LU8V4EUX5C","336OE47KI3QZCSCUXSQ8J11UOZXVWV","3907X2AHF2B3ICFLNYX3EMRCHGV2PK","model","match","uniform","","","","","","","","343640.80000000075","345643.80000000075","","","","","","","","","","","","0","","stimuli/stars_0.png","169.5","","","","","stimuli/BM03_CC.jpg","",""
"explore-choice","155","344321","0.0-155.0","p47485","A2E0LU8V4EUX5C","336OE47KI3QZCSCUXSQ8J11UOZXVWV","3907X2AHF2B3ICFLNYX3EMRCHGV2PK","model","match","uniform","","","","","","","109","345645.4000000004","345754.4000000004","[""stimuli/AF02_HE.jpg"",""stimuli/WF04_AO.jpg"",""stimuli/HF04_FO.jpg"",""stimuli/BM03_CC.jpg""]","stimuli/AF02_HE.jpg","stimuli/WF04_AO.jpg","stimuli/HF04_FO.jpg","stimuli/BM03_CC.jpg","pos1","stimuli/AF02_HE.jpg","HE","AF02","0","1","2","4","stimuli/stars_2.png","170.5","[""HE"",""AO"",""FO"",""CC""]","[""AF02"",""WF04"",""HF04"",""BM03""]","[2,8,6,2]","[4,8,6,2]","","",""
"show-reward","156","346326","0.0-156.0","p47485","A2E0LU8V4EUX5C","336OE47KI3QZCSCUXSQ8J11UOZXVWV","3907X2AHF2B3ICFLNYX3EMRCHGV2PK","model","match","uniform","","","","","","","","346256.5","348260.5999999996","","","","","","","","","","","","2","","stimuli/stars_2.png","170.5","","","","","stimuli/AF02_HE.jpg","",""
"explore-choice","157","347209","0.0-157.0","p47485","A2E0LU8V4EUX5C","336OE47KI3QZCSCUXSQ8J11UOZXVWV","3907X2AHF2B3ICFLNYX3EMRCHGV2PK","model","match","uniform","","","","","","","381.1000000014901","348261.19999999925","348642.30000000075","[""stimuli/AF02_AO.jpg"",""stimuli/HF04_HE.jpg"",""stimuli/BM03_CC.jpg"",""stimuli/WF04_FO.jpg""]","stimuli/AF02_AO.jpg","stimuli/HF04_HE.jpg","stimuli/BM03_CC.jpg","stimuli/WF04_FO.jpg","pos1","stimuli/AF02_AO.jpg","AO","AF02","0","3","6","4","stimuli/stars_6.png","173.5","[""AO"",""HE"",""CC"",""FO""]","[""AF02"",""HF04"",""BM03"",""WF04""]","[6,5,1,6]","[4,6,2,8]","","",""
"show-reward","158","349211","0.0-158.0","p47485","A2E0LU8V4EUX5C","336OE47KI3QZCSCUXSQ8J11UOZXVWV","3907X2AHF2B3ICFLNYX3EMRCHGV2PK","model","match","uniform","","","","","","","","349143.80000000075","351145","","","","","","","","","","","","6","","stimuli/stars_6.png","173.5","","","","","stimuli/AF02_AO.jpg","",""
"explore-choice","159","350024","0.0-159.0","p47485","A2E0LU8V4EUX5C","336OE47KI3QZCSCUXSQ8J11UOZXVWV","3907X2AHF2B3ICFLNYX3EMRCHGV2PK","model","match","uniform","","","","","","","311.6000000014901","351146.69999999925","351458.30000000075","[""stimuli/AF02_FO.jpg"",""stimuli/HF04_CC.jpg"",""stimuli/BM03_HE.jpg"",""stimuli/WF04_AO.jpg""]","stimuli/AF02_FO.jpg","stimuli/HF04_CC.jpg","stimuli/BM03_HE.jpg","stimuli/WF04_AO.jpg","pos1","stimuli/AF02_FO.jpg","FO","AF02","0","2","4","4","stimuli/stars_4.png","175.5","[""FO"",""CC"",""HE"",""AO""]","[""AF02"",""HF04"",""BM03"",""WF04""]","[4,4,1,8]","[4,6,2,8]","","",""
"show-reward","160","352029","0.0-160.0","p47485","A2E0LU8V4EUX5C","336OE47KI3QZCSCUXSQ8J11UOZXVWV","3907X2AHF2B3ICFLNYX3EMRCHGV2PK","model","match","uniform","","","","","","","","351960.30000000075","353963.5","","","","","","","","","","","","4","","stimuli/stars_4.png","175.5","","","","","stimuli/AF02_FO.jpg","",""
"explore-choice","161","352833","0.0-161.0","p47485","A2E0LU8V4EUX5C","336OE47KI3QZCSCUXSQ8J11UOZXVWV","3907X2AHF2B3ICFLNYX3EMRCHGV2PK","model","match","uniform","","","","","","","301.2000000011176","353965.19999999925","354266.4000000004","[""stimuli/WF04_CC.jpg"",""stimuli/BM03_AO.jpg"",""stimuli/AF02_FO.jpg"",""stimuli/HF04_HE.jpg""]","stimuli/WF04_CC.jpg","stimuli/BM03_AO.jpg","stimuli/AF02_FO.jpg","stimuli/HF04_HE.jpg","pos1","stimuli/WF04_CC.jpg","CC","WF04","0","4.5","9","8","stimuli/stars_9.png","180","[""CC"",""AO"",""FO"",""HE""]","[""WF04"",""BM03"",""AF02"",""HF04""]","[9,1,5,6]","[8,2,4,6]","","",""
"show-reward","162","354839","0.0-162.0","p47485","A2E0LU8V4EUX5C","336OE47KI3QZCSCUXSQ8J11UOZXVWV","3907X2AHF2B3ICFLNYX3EMRCHGV2PK","model","match","uniform","","","","","","","","354769.19999999925","356772.69999999925","","","","","","","","","","","","9","","stimuli/stars_9.png","180","","","","","stimuli/WF04_CC.jpg","",""
"explore-choice","163","355969","0.0-163.0","p47485","A2E0LU8V4EUX5C","336OE47KI3QZCSCUXSQ8J11UOZXVWV","3907X2AHF2B3ICFLNYX3EMRCHGV2PK","model","match","uniform","","","","","","","629","356773.30000000075","357402.30000000075","[""stimuli/AF02_CC.jpg"",""stimuli/BM03_HE.jpg"",""stimuli/WF04_AO.jpg"",""stimuli/HF04_FO.jpg""]","stimuli/AF02_CC.jpg","stimuli/BM03_HE.jpg","stimuli/WF04_AO.jpg","stimuli/HF04_FO.jpg","pos2","stimuli/BM03_HE.jpg","HE","BM03","1","1.5","3","2","stimuli/stars_3.png","181.5","[""CC"",""HE"",""AO"",""FO""]","[""AF02"",""BM03"",""WF04"",""HF04""]","[4,3,8,6]","[4,2,8,6]","","",""
"show-reward","164","357976","0.0-164.0","p47485","A2E0LU8V4EUX5C","336OE47KI3QZCSCUXSQ8J11UOZXVWV","3907X2AHF2B3ICFLNYX3EMRCHGV2PK","model","match","uniform","","","","","","","","357904.30000000075","359909.4000000004","","","","","","","","","","","","3","","stimuli/stars_3.png","181.5","","","","","stimuli/BM03_HE.jpg","",""
"explore-choice","165","358818","0.0-165.0","p47485","A2E0LU8V4EUX5C","336OE47KI3QZCSCUXSQ8J11UOZXVWV","3907X2AHF2B3ICFLNYX3EMRCHGV2PK","model","match","uniform","","","","","","","339.59999999962747","359911","360250.5999999996","[""stimuli/HF04_HE.jpg"",""stimuli/AF02_AO.jpg"",""stimuli/WF04_CC.jpg"",""stimuli/BM03_FO.jpg""]","stimuli/HF04_HE.jpg","stimuli/AF02_AO.jpg","stimuli/WF04_CC.jpg","stimuli/BM03_FO.jpg","pos4","stimuli/BM03_FO.jpg","FO","BM03","3","1","2","2","stimuli/stars_2.png","182.5","[""HE"",""AO"",""CC"",""FO""]","[""HF04"",""AF02"",""WF04"",""BM03""]","[8,5,10,2]","[6,4,8,2]","","",""
"show-reward","166","360824","0.0-166.0","p47485","A2E0LU8V4EUX5C","336OE47KI3QZCSCUXSQ8J11UOZXVWV","3907X2AHF2B3ICFLNYX3EMRCHGV2PK","model","match","uniform","","","","","","","","360752.80000000075","362757.5999999996","","","","","","","","","","","","2","","stimuli/stars_2.png","182.5","","","","","stimuli/BM03_FO.jpg","",""
"explore-choice","167","361771","0.0-167.0","p47485","A2E0LU8V4EUX5C","336OE47KI3QZCSCUXSQ8J11UOZXVWV","3907X2AHF2B3ICFLNYX3EMRCHGV2PK","model","match","uniform","","","","","","","443.2999999988824","362759.30000000075","363202.5999999996","[""stimuli/BM03_FO.jpg"",""stimuli/AF02_AO.jpg"",""stimuli/HF04_CC.jpg"",""stimuli/WF04_HE.jpg""]","stimuli/BM03_FO.jpg","stimuli/AF02_AO.jpg","stimuli/HF04_CC.jpg","stimuli/WF04_HE.jpg","pos3","stimuli/HF04_CC.jpg","CC","HF04","2","2.5","5","6","stimuli/stars_5.png","185","[""FO"",""AO"",""CC"",""HE""]","[""BM03"",""AF02"",""HF04"",""WF04""]","[3,3,5,7]","[2,4,6,8]","","",""
"show-reward","168","363776","0.0-168.0","p47485","A2E0LU8V4EUX5C","336OE47KI3QZCSCUXSQ8J11UOZXVWV","3907X2AHF2B3ICFLNYX3EMRCHGV2PK","model","match","uniform","","","","","","","","363706.5","365709.5","","","","","","","","","","","","5","","stimuli/stars_5.png","185","","","","","stimuli/HF04_CC.jpg","",""
"explore-choice","169","364898","0.0-169.0","p47485","A2E0LU8V4EUX5C","336OE47KI3QZCSCUXSQ8J11UOZXVWV","3907X2AHF2B3ICFLNYX3EMRCHGV2PK","model","match","uniform","","","","","","","619.2000000011176","365711.19999999925","366330.4000000004","[""stimuli/HF04_AO.jpg"",""stimuli/WF04_CC.jpg"",""stimuli/AF02_HE.jpg"",""stimuli/BM03_FO.jpg""]","stimuli/HF04_AO.jpg","stimuli/WF04_CC.jpg","stimuli/AF02_HE.jpg","stimuli/BM03_FO.jpg","pos3","stimuli/AF02_HE.jpg","HE","AF02","2","3","6","4","stimuli/stars_6.png","188","[""AO"",""CC"",""HE"",""FO""]","[""HF04"",""WF04"",""AF02"",""BM03""]","[8,6,6,3]","[6,8,4,2]","","",""
"show-reward","170","366903","0.0-170.0","p47485","A2E0LU8V4EUX5C","336OE47KI3QZCSCUXSQ8J11UOZXVWV","3907X2AHF2B3ICFLNYX3EMRCHGV2PK","model","match","uniform","","","","","","","","366832.9000000004","368836.4000000004","","","","","","","","","","","","6","","stimuli/stars_6.png","188","","","","","stimuli/AF02_HE.jpg","",""
"explore-choice","171","367786","0.0-171.0","p47485","A2E0LU8V4EUX5C","336OE47KI3QZCSCUXSQ8J11UOZXVWV","3907X2AHF2B3ICFLNYX3EMRCHGV2PK","model","match","uniform","","","","","","","380.2000000011176","368838.0999999996","369218.30000000075","[""stimuli/BM03_FO.jpg"",""stimuli/HF04_AO.jpg"",""stimuli/WF04_HE.jpg"",""stimuli/AF02_CC.jpg""]","stimuli/BM03_FO.jpg","stimuli/HF04_AO.jpg","stimuli/WF04_HE.jpg","stimuli/AF02_CC.jpg","pos3","stimuli/WF04_HE.jpg","HE","WF04","2","3.5","7","8","stimuli/stars_7.png","191.5","[""FO"",""AO"",""HE"",""CC""]","[""BM03"",""HF04"",""WF04"",""AF02""]","[2,4,7,4]","[2,6,8,4]","","",""
"show-reward","172","369790","0.0-172.0","p47485","A2E0LU8V4EUX5C","336OE47KI3QZCSCUXSQ8J11UOZXVWV","3907X2AHF2B3ICFLNYX3EMRCHGV2PK","model","match","uniform","","","","","","","","369720.19999999925","371722.9000000004","","","","","","","","","","","","7","","stimuli/stars_7.png","191.5","","","","","stimuli/WF04_HE.jpg","",""
"explore-choice","173","370625","0.0-173.0","p47485","A2E0LU8V4EUX5C","336OE47KI3QZCSCUXSQ8J11UOZXVWV","3907X2AHF2B3ICFLNYX3EMRCHGV2PK","model","match","uniform","","","","","","","333.59999999962747","371724.5","372058.0999999996","[""stimuli/WF04_CC.jpg"",""stimuli/BM03_HE.jpg"",""stimuli/AF02_FO.jpg"",""stimuli/HF04_AO.jpg""]","stimuli/WF04_CC.jpg","stimuli/BM03_HE.jpg","stimuli/AF02_FO.jpg","stimuli/HF04_AO.jpg","pos3","stimuli/AF02_FO.jpg","FO","AF02","2","2.5","5","4","stimuli/stars_5.png","194","[""CC"",""HE"",""FO"",""AO""]","[""WF04"",""BM03"",""AF02"",""HF04""]","[7,0,5,7]","[8,2,4,6]","","",""
"show-reward","174","372628","0.0-174.0","p47485","A2E0LU8V4EUX5C","336OE47KI3QZCSCUXSQ8J11UOZXVWV","3907X2AHF2B3ICFLNYX3EMRCHGV2PK","model","match","uniform","","","","","","","","372559.4000000004","374561.0999999996","","","","","","","","","","","","5","","stimuli/stars_5.png","194","","","","","stimuli/AF02_FO.jpg","",""
"explore-choice","175","373459","0.0-175.0","p47485","A2E0LU8V4EUX5C","336OE47KI3QZCSCUXSQ8J11UOZXVWV","3907X2AHF2B3ICFLNYX3EMRCHGV2PK","model","match","uniform","","","","","","","328.5","374561.9000000004","374890.4000000004","[""stimuli/AF02_HE.jpg"",""stimuli/HF04_FO.jpg"",""stimuli/WF04_CC.jpg"",""stimuli/BM03_AO.jpg""]","stimuli/AF02_HE.jpg","stimuli/HF04_FO.jpg","stimuli/WF04_CC.jpg","stimuli/BM03_AO.jpg","pos3","stimuli/WF04_CC.jpg","CC","WF04","2","4.5","9","8","stimuli/stars_9.png","198.5","[""HE"",""FO"",""CC"",""AO""]","[""AF02"",""HF04"",""WF04"",""BM03""]","[6,8,9,0]","[4,6,8,2]","","",""
"show-reward","176","375461","0.0-176.0","p47485","A2E0LU8V4EUX5C","336OE47KI3QZCSCUXSQ8J11UOZXVWV","3907X2AHF2B3ICFLNYX3EMRCHGV2PK","model","match","uniform","","","","","","","","375392.5999999996","377394.5","","","","","","","","","","","","9","","stimuli/stars_9.png","198.5","","","","","stimuli/WF04_CC.jpg","",""
"explore-choice","177","376290","0.0-177.0","p47485","A2E0LU8V4EUX5C","336OE47KI3QZCSCUXSQ8J11UOZXVWV","3907X2AHF2B3ICFLNYX3EMRCHGV2PK","model","match","uniform","","","","","","","326.1000000014901","377396.19999999925","377722.30000000075","[""stimuli/WF04_HE.jpg"",""stimuli/AF02_CC.jpg"",""stimuli/HF04_FO.jpg"",""stimuli/BM03_AO.jpg""]","stimuli/WF04_HE.jpg","stimuli/AF02_CC.jpg","stimuli/HF04_FO.jpg","stimuli/BM03_AO.jpg","pos3","stimuli/HF04_FO.jpg","FO","HF04","2","2.5","5","6","stimuli/stars_5.png","201","[""HE"",""CC"",""FO"",""AO""]","[""WF04"",""AF02"",""HF04"",""BM03""]","[6,6,5,2]","[8,4,6,2]","","",""
"show-reward","178","378296","0.0-178.0","p47485","A2E0LU8V4EUX5C","336OE47KI3QZCSCUXSQ8J11UOZXVWV","3907X2AHF2B3ICFLNYX3EMRCHGV2PK","model","match","uniform","","","","","","","","378225","380229.5999999996","","","","","","","","","","","","5","","stimuli/stars_5.png","201","","","","","stimuli/HF04_FO.jpg","",""
"explore-choice","179","379146","0.0-179.0","p47485","A2E0LU8V4EUX5C","336OE47KI3QZCSCUXSQ8J11UOZXVWV","3907X2AHF2B3ICFLNYX3EMRCHGV2PK","model","match","uniform","","","","","","","347","380231.30000000075","380578.30000000075","[""stimuli/WF04_HE.jpg"",""stimuli/AF02_FO.jpg"",""stimuli/HF04_AO.jpg"",""stimuli/BM03_CC.jpg""]","stimuli/WF04_HE.jpg","stimuli/AF02_FO.jpg","stimuli/HF04_AO.jpg","stimuli/BM03_CC.jpg","pos3","stimuli/HF04_AO.jpg","AO","HF04","2","3","6","6","stimuli/stars_6.png","204","[""HE"",""FO"",""AO"",""CC""]","[""WF04"",""AF02"",""HF04"",""BM03""]","[8,4,6,2]","[8,4,6,2]","","",""
"show-reward","180","381151","0.0-180.0","p47485","A2E0LU8V4EUX5C","336OE47KI3QZCSCUXSQ8J11UOZXVWV","3907X2AHF2B3ICFLNYX3EMRCHGV2PK","model","match","uniform","","","","","","","","381080.5999999996","383084","","","","","","","","","","","","6","","stimuli/stars_6.png","204","","","","","stimuli/HF04_AO.jpg","",""
"explore-choice","181","381954","0.0-181.0","p47485","A2E0LU8V4EUX5C","336OE47KI3QZCSCUXSQ8J11UOZXVWV","3907X2AHF2B3ICFLNYX3EMRCHGV2PK","model","match","uniform","","","","","","","300.5","383085.80000000075","383386.30000000075","[""stimuli/WF04_FO.jpg"",""stimuli/BM03_HE.jpg"",""stimuli/HF04_CC.jpg"",""stimuli/AF02_AO.jpg""]","stimuli/WF04_FO.jpg","stimuli/BM03_HE.jpg","stimuli/HF04_CC.jpg","stimuli/AF02_AO.jpg","pos3","stimuli/HF04_CC.jpg","CC","HF04","2","3.5","7","6","stimuli/stars_7.png","207.5","[""FO"",""HE"",""CC"",""AO""]","[""WF04"",""BM03"",""HF04"",""AF02""]","[8,1,7,6]","[8,2,6,4]","","",""
"show-reward","182","383959","0.0-182.0","p47485","A2E0LU8V4EUX5C","336OE47KI3QZCSCUXSQ8J11UOZXVWV","3907X2AHF2B3ICFLNYX3EMRCHGV2PK","model","match","uniform","","","","","","","","383888.5999999996","385892.0999999996","","","","","","","","","","","","7","","stimuli/stars_7.png","207.5","","","","","stimuli/HF04_CC.jpg","",""
"explore-choice","183","384666","0.0-183.0","p47485","A2E0LU8V4EUX5C","336OE47KI3QZCSCUXSQ8J11UOZXVWV","3907X2AHF2B3ICFLNYX3EMRCHGV2PK","model","match","uniform","","","","","","","204.60000000149012","385893.69999999925","386098.30000000075","[""stimuli/AF02_FO.jpg"",""stimuli/HF04_HE.jpg"",""stimuli/WF04_AO.jpg"",""stimuli/BM03_CC.jpg""]","stimuli/AF02_FO.jpg","stimuli/HF04_HE.jpg","stimuli/WF04_AO.jpg","stimuli/BM03_CC.jpg","pos3","stimuli/WF04_AO.jpg","AO","WF04","2","4.5","9","8","stimuli/stars_9.png","212","[""FO"",""HE"",""AO"",""CC""]","[""AF02"",""HF04"",""WF04"",""BM03""]","[2,5,9,4]","[4,6,8,2]","","",""
"show-reward","184","386670","0.0-184.0","p47485","A2E0LU8V4EUX5C","336OE47KI3QZCSCUXSQ8J11UOZXVWV","3907X2AHF2B3ICFLNYX3EMRCHGV2PK","model","match","uniform","","","","","","","","386600.4000000004","388603.0999999996","","","","","","","","","","","","9","","stimuli/stars_9.png","212","","","","","stimuli/WF04_AO.jpg","",""
"explore-choice","185","387434","0.0-185.0","p47485","A2E0LU8V4EUX5C","336OE47KI3QZCSCUXSQ8J11UOZXVWV","3907X2AHF2B3ICFLNYX3EMRCHGV2PK","model","match","uniform","","","","","","","261.59999999962747","388604.80000000075","388866.4000000004","[""stimuli/WF04_CC.jpg"",""stimuli/HF04_FO.jpg"",""stimuli/BM03_HE.jpg"",""stimuli/AF02_AO.jpg""]","stimuli/WF04_CC.jpg","stimuli/HF04_FO.jpg","stimuli/BM03_HE.jpg","stimuli/AF02_AO.jpg","pos3","stimuli/BM03_HE.jpg","HE","BM03","2","1","2","2","stimuli/stars_2.png","213","[""CC"",""FO"",""HE"",""AO""]","[""WF04"",""HF04"",""BM03"",""AF02""]","[8,4,2,2]","[8,6,2,4]","","",""
"show-reward","186","389436","0.0-186.0","p47485","A2E0LU8V4EUX5C","336OE47KI3QZCSCUXSQ8J11UOZXVWV","3907X2AHF2B3ICFLNYX3EMRCHGV2PK","model","match","uniform","","","","","","","","389368.5999999996","391369.5","","","","","","","","","","","","2","","stimuli/stars_2.png","213","","","","","stimuli/BM03_HE.jpg","",""
"explore-choice","187","390170","0.0-187.0","p47485","A2E0LU8V4EUX5C","336OE47KI3QZCSCUXSQ8J11UOZXVWV","3907X2AHF2B3ICFLNYX3EMRCHGV2PK","model","match","uniform","","","","","","","231.39999999850988","391370.80000000075","391602.19999999925","[""stimuli/WF04_HE.jpg"",""stimuli/BM03_CC.jpg"",""stimuli/HF04_FO.jpg"",""stimuli/AF02_AO.jpg""]","stimuli/WF04_HE.jpg","stimuli/BM03_CC.jpg","stimuli/HF04_FO.jpg","stimuli/AF02_AO.jpg","pos3","stimuli/HF04_FO.jpg","FO","HF04","2","3","6","6","stimuli/stars_6.png","216","[""HE"",""CC"",""FO"",""AO""]","[""WF04"",""BM03"",""HF04"",""AF02""]","[8,1,6,5]","[8,2,6,4]","","",""
"show-reward","188","392172","0.0-188.0","p47485","A2E0LU8V4EUX5C","336OE47KI3QZCSCUXSQ8J11UOZXVWV","3907X2AHF2B3ICFLNYX3EMRCHGV2PK","model","match","uniform","","","","","","","","392104","394105.30000000075","","","","","","","","","","","","6","","stimuli/stars_6.png","216","","","","","stimuli/HF04_FO.jpg","",""
"explore-choice","189","393025","0.0-189.0","p47485","A2E0LU8V4EUX5C","336OE47KI3QZCSCUXSQ8J11UOZXVWV","3907X2AHF2B3ICFLNYX3EMRCHGV2PK","model","match","uniform","","","","","","","351.5","394107","394458.5","[""stimuli/BM03_AO.jpg"",""stimuli/WF04_FO.jpg"",""stimuli/AF02_HE.jpg"",""stimuli/HF04_CC.jpg""]","stimuli/BM03_AO.jpg","stimuli/WF04_FO.jpg","stimuli/AF02_HE.jpg","stimuli/HF04_CC.jpg","pos3","stimuli/AF02_HE.jpg","HE","AF02","2","1","2","4","stimuli/stars_2.png","217","[""AO"",""FO"",""HE"",""CC""]","[""BM03"",""WF04"",""AF02"",""HF04""]","[1,9,2,6]","[2,8,4,6]","","",""
"show-reward","190","395027","0.0-190.0","p47485","A2E0LU8V4EUX5C","336OE47KI3QZCSCUXSQ8J11UOZXVWV","3907X2AHF2B3ICFLNYX3EMRCHGV2PK","model","match","uniform","","","","","","","","394959.19999999925","396960.5999999996","","","","","","","","","","","","2","","stimuli/stars_2.png","217","","","","","stimuli/AF02_HE.jpg","",""
"explore-choice","191","395866","0.0-191.0","p47485","A2E0LU8V4EUX5C","336OE47KI3QZCSCUXSQ8J11UOZXVWV","3907X2AHF2B3ICFLNYX3EMRCHGV2PK","model","match","uniform","","","","","","","336.1000000014901","396962.19999999925","397298.30000000075","[""stimuli/HF04_HE.jpg"",""stimuli/BM03_FO.jpg"",""stimuli/AF02_CC.jpg"",""stimuli/WF04_AO.jpg""]","stimuli/HF04_HE.jpg","stimuli/BM03_FO.jpg","stimuli/AF02_CC.jpg","stimuli/WF04_AO.jpg","pos3","stimuli/AF02_CC.jpg","CC","AF02","2","2","4","4","stimuli/stars_4.png","219","[""HE"",""FO"",""CC"",""AO""]","[""HF04"",""BM03"",""AF02"",""WF04""]","[6,2,4,6]","[6,2,4,8]","","",""
"show-reward","192","397872","0.0-192.0","p47485","A2E0LU8V4EUX5C","336OE47KI3QZCSCUXSQ8J11UOZXVWV","3907X2AHF2B3ICFLNYX3EMRCHGV2PK","model","match","uniform","","","","","","","","397800.80000000075","399805.5","","","","","","","","","","","","4","","stimuli/stars_4.png","219","","","","","stimuli/AF02_CC.jpg","",""
"explore-choice","193","398754","0.0-193.0","p47485","A2E0LU8V4EUX5C","336OE47KI3QZCSCUXSQ8J11UOZXVWV","3907X2AHF2B3ICFLNYX3EMRCHGV2PK","model","match","uniform","","","","","","","379.2000000011176","399807.0999999996","400186.30000000075","[""stimuli/WF04_AO.jpg"",""stimuli/AF02_HE.jpg"",""stimuli/HF04_CC.jpg"",""stimuli/BM03_FO.jpg""]","stimuli/WF04_AO.jpg","stimuli/AF02_HE.jpg","stimuli/HF04_CC.jpg","stimuli/BM03_FO.jpg","pos2","stimuli/AF02_HE.jpg","HE","AF02","1","2.5","5","4","stimuli/stars_5.png","221.5","[""AO"",""HE"",""CC"",""FO""]","[""WF04"",""AF02"",""HF04"",""BM03""]","[7,5,4,2]","[8,4,6,2]","","",""
"show-reward","194","400759","0.0-194.0","p47485","A2E0LU8V4EUX5C","336OE47KI3QZCSCUXSQ8J11UOZXVWV","3907X2AHF2B3ICFLNYX3EMRCHGV2PK","model","match","uniform","","","","","","","","400689","402692.69999999925","","","","","","","","","","","","5","","stimuli/stars_5.png","221.5","","","","","stimuli/AF02_HE.jpg","",""
"explore-choice","195","401594","0.0-195.0","p47485","A2E0LU8V4EUX5C","336OE47KI3QZCSCUXSQ8J11UOZXVWV","3907X2AHF2B3ICFLNYX3EMRCHGV2PK","model","match","uniform","","","","","","","332","402694.5","403026.5","[""stimuli/HF04_CC.jpg"",""stimuli/WF04_HE.jpg"",""stimuli/BM03_AO.jpg"",""stimuli/AF02_FO.jpg""]","stimuli/HF04_CC.jpg","stimuli/WF04_HE.jpg","stimuli/BM03_AO.jpg","stimuli/AF02_FO.jpg","pos1","stimuli/HF04_CC.jpg","CC","HF04","0","2","4","6","stimuli/stars_4.png","223.5","[""CC"",""HE"",""AO"",""FO""]","[""HF04"",""WF04"",""BM03"",""AF02""]","[4,7,2,5]","[6,8,2,4]","","",""
"show-reward","196","403595","0.0-196.0","p47485","A2E0LU8V4EUX5C","336OE47KI3QZCSCUXSQ8J11UOZXVWV","3907X2AHF2B3ICFLNYX3EMRCHGV2PK","model","match","uniform","","","","","","","","403527.80000000075","405528.9000000004","","","","","","","","","","","","4","","stimuli/stars_4.png","223.5","","","","","stimuli/HF04_CC.jpg","",""
"explore-choice","197","404386","0.0-197.0","p47485","A2E0LU8V4EUX5C","336OE47KI3QZCSCUXSQ8J11UOZXVWV","3907X2AHF2B3ICFLNYX3EMRCHGV2PK","model","match","uniform","","","","","","","288.80000000074506","405529.5999999996","405818.4000000004","[""stimuli/BM03_HE.jpg"",""stimuli/HF04_AO.jpg"",""stimuli/WF04_FO.jpg"",""stimuli/AF02_CC.jpg""]","stimuli/BM03_HE.jpg","stimuli/HF04_AO.jpg","stimuli/WF04_FO.jpg","stimuli/AF02_CC.jpg","pos1","stimuli/BM03_HE.jpg","HE","BM03","0","0","0","2","stimuli/stars_0.png","223.5","[""HE"",""AO"",""FO"",""CC""]","[""BM03"",""HF04"",""WF04"",""AF02""]","[0,7,6,2]","[2,6,8,4]","","",""
"show-reward","198","406392","0.0-198.0","p47485","A2E0LU8V4EUX5C","336OE47KI3QZCSCUXSQ8J11UOZXVWV","3907X2AHF2B3ICFLNYX3EMRCHGV2PK","model","match","uniform","","","","","","","","406321.0999999996","408324.9000000004","","","","","","","","","","","","0","","stimuli/stars_0.png","223.5","","","","","stimuli/BM03_HE.jpg","",""
"instructions","199","415309","0.0-199.0","p47485","A2E0LU8V4EUX5C","336OE47KI3QZCSCUXSQ8J11UOZXVWV","3907X2AHF2B3ICFLNYX3EMRCHGV2PK","model","match","uniform","","","","","","[{""page_index"":0,""viewing_time"":8914.800000000745}]","8915.099999999627","","","","","","","","","","","","","","","","","","","","","","","",""
"survey-text","200","418381","0.0-200.0-0.0","p47485","A2E0LU8V4EUX5C","336OE47KI3QZCSCUXSQ8J11UOZXVWV","3907X2AHF2B3ICFLNYX3EMRCHGV2PK","model","match","uniform","","","","","","","3068.89999999851","","","","","","","","","","","","","","","","","","","","","","","{""age"":""28""}",""
"survey-text","201","422100","0.0-200.0-1.0","p47485","A2E0LU8V4EUX5C","336OE47KI3QZCSCUXSQ8J11UOZXVWV","3907X2AHF2B3ICFLNYX3EMRCHGV2PK","model","match","uniform","","","","","","","3717.89999999851","","","","","","","","","","","","","","","","","","","","","","","{""gender"":""Male""}",""
"survey-text","202","428564","0.0-200.0-2.0","p47485","A2E0LU8V4EUX5C","336OE47KI3QZCSCUXSQ8J11UOZXVWV","3907X2AHF2B3ICFLNYX3EMRCHGV2PK","model","match","uniform","","","","","","","6461.89999999851","","","","","","","","","","","","","","","","","","","","","","","{""country"":""United States""}",""
"survey-text","203","436789","0.0-200.0-3.0","p47485","A2E0LU8V4EUX5C","336OE47KI3QZCSCUXSQ8J11UOZXVWV","3907X2AHF2B3ICFLNYX3EMRCHGV2PK","model","match","uniform","","","","","","","8221.800000000745","","","","","","","","","","","","","","","","","","","","","","","{""language"":""English"",""other_languages"":""""}",""
"survey-multi-select","204","438925","0.0-201.0","p47485","A2E0LU8V4EUX5C","336OE47KI3QZCSCUXSQ8J11UOZXVWV","3907X2AHF2B3ICFLNYX3EMRCHGV2PK","model","match","uniform","","","","","","","2133.300000000745","","","","","","","","","","","","","","","","","","","","","","","{""race"":[""White""]}","[0]"
"survey-multi-choice","205","441125","0.0-202.0","p47485","A2E0LU8V4EUX5C","336OE47KI3QZCSCUXSQ8J11UOZXVWV","3907X2AHF2B3ICFLNYX3EMRCHGV2PK","model","match","uniform","","","","","","","2196.0999999996275","","","","","","","","","","","","","","","","","","","","","","","{""education"":""Bachelor's degree""}","[0]"
"survey-text","206","475389","0.0-203.0","p47485","A2E0LU8V4EUX5C","336OE47KI3QZCSCUXSQ8J11UOZXVWV","3907X2AHF2B3ICFLNYX3EMRCHGV2PK","model","match","uniform","","","","","","","34258.39999999851","","","","","","","","","","","","","","","","","","","","","","","{""patterns"":""Surprised faces I thought might pay more."",""strategy"":""Both random and trying different face looks."",""comments"":""All images loaded.""}",""
