"trial_type","trial_index","time_elapsed","internal_node_id","subject","workerId","hitId","assignmentId","structure_condition","match_condition","noise_type","success","timeout","failed_images","failed_audio","failed_video","view_history","rt","start_time","end_time","stimuli","image1","image2","image3","image4","choiceLocation","choiceImage","choiceEmotion","choiceModel","choice_index","reward_score","reward","reward_score_unadjusted","reward_image","score_after_trial","emotions","models","rewards","rewards_unadjusted","stimulus","response","question_order"
"pavlovia","0","8","0.0-0.0","p752831","A13WTEQ06V3B6D","3FVBZG9CLKK1M1GPZWGJX51HFG80HB","3VNXK88KKEORNGXGUJLHU1O89A5V9P","emotion","match","uniform","","","","","","","","","","","","","","","","","","","","","","","","","","","","","","",""
"preload","1","20067","0.0-1.0","p752831","A13WTEQ06V3B6D","3FVBZG9CLKK1M1GPZWGJX51HFG80HB","3VNXK88KKEORNGXGUJLHU1O89A5V9P","emotion","match","uniform","true","false","[]","[]","[]","","","","","","","","","","","","","","","","","","","","","","","","","",""
"fullscreen","2","93432","0.0-2.0","p752831","A13WTEQ06V3B6D","3FVBZG9CLKK1M1GPZWGJX51HFG80HB","3VNXK88KKEORNGXGUJLHU1O89A5V9P","emotion","match","uniform","true","","","","","","","","","","","","","","","","","","","","","","","","","","","","","",""
"instructions","3","95980","0.0-3.0","p752831","A13WTEQ06V3B6D","3FVBZG9CLKK1M1GPZWGJX51HFG80HB","3VNXK88KKEORNGXGUJLHU1O89A5V9P","emotion","match","uniform","","","","","","[{""page_index"":0,""viewing_time"":2544.4000000953674}]","2544.7999999523163","","","","","","","","","","","","","","","","","","","","","","","",""
"explore-choice","4","98371","0.0-4.0","p752831","A13WTEQ06V3B6D","3FVBZG9CLKK1M1GPZWGJX51HFG80HB","3VNXK88KKEORNGXGUJLHU1O89A5V9P","emotion","match","uniform","","","","","","","1887.6000001430511","97039.29999995232","98926.90000009537","[""stimuli/sheep.jpg"",""stimuli/hammer.jpg"",""stimuli/basketball.jpg"",""stimuli/horse.jpg""]","stimuli/sheep.jpg","stimuli/hammer.jpg","stimuli/basketball.jpg","stimuli/horse.jpg","pos4","stimuli/horse.jpg","","","3","64","64","64","stimuli/stars_8.png","65","","","","","","",""
"explore-choice","5","99819","0.0-5.0","p752831","A13WTEQ06V3B6D","3FVBZG9CLKK1M1GPZWGJX51HFG80HB","3VNXK88KKEORNGXGUJLHU1O89A5V9P","emotion","match","uniform","","","","","","","942.7000000476837","99432","100374.70000004768","[""stimuli/hammer.jpg"",""stimuli/basketball.jpg"",""stimuli/horse.jpg"",""stimuli/sheep.jpg""]","stimuli/hammer.jpg","stimuli/basketball.jpg","stimuli/horse.jpg","stimuli/sheep.jpg","pos1","stimuli/hammer.jpg","","","0","8","8","8","stimuli/stars_2.png","9","","","","","","",""
"instructions","6","109880","0.0-6.0","p752831","A13WTEQ06V3B6D","3FVBZG9CLKK1M1GPZWGJX51HFG80HB","3VNXK88KKEORNGXGUJLHU1O89A5V9P","emotion","match","uniform","","","","","","[{""page_index"":0,""viewing_time"":10059.5}]","10059.700000047684","","","","","","","","","","","","","","","","","","","","","","","",""
"explore-choice","7","112547","0.0-7.0","p752831","A13WTEQ06V3B6D","3FVBZG9CLKK1M1GPZWGJX51HFG80HB","3VNXK88KKEORNGXGUJLHU1O89A5V9P","emotion","match","uniform","","","","","","","2164.2000000476837","110939.79999995232","113104","[""stimuli/AM03_HE.jpg"",""stimuli/HF02_SC.jpg"",""stimuli/WM09_CC.jpg"",""stimuli/BF08_AO.jpg""]","stimuli/AM03_HE.jpg","stimuli/HF02_SC.jpg","stimuli/WM09_CC.jpg","stimuli/BF08_AO.jpg","pos1","stimuli/AM03_HE.jpg","HE","AM03","0","3.5","7","6","stimuli/stars_7.png","4.5","[""HE"",""SC"",""CC"",""AO""]","[""AM03"",""HF02"",""WM09"",""BF08""]","[7,5,2,9]","[6,4,2,8]","","",""
"show-reward","8","114558","0.0-8.0","p752831","A13WTEQ06V3B6D","3FVBZG9CLKK1M1GPZWGJX51HFG80HB","3VNXK88KKEORNGXGUJLHU1O89A5V9P","emotion","match","uniform","","","","","","","","113610","115616.09999990463","","","","","","","","","","","","7","","stimuli/stars_7.png","4.5","","","","","stimuli/AM03_HE.jpg","",""
"explore-choice","9","117041","0.0-9.0","p752831","A13WTEQ06V3B6D","3FVBZG9CLKK1M1GPZWGJX51HFG80HB","3VNXK88KKEORNGXGUJLHU1O89A5V9P","emotion","match","uniform","","","","","","","1979.1999998092651","115619.40000009537","117598.59999990463","[""stimuli/BF08_CC.jpg"",""stimuli/AM03_SC.jpg"",""stimuli/HF02_HE.jpg"",""stimuli/WM09_AO.jpg""]","stimuli/BF08_CC.jpg","stimuli/AM03_SC.jpg","stimuli/HF02_HE.jpg","stimuli/WM09_AO.jpg","pos3","stimuli/HF02_HE.jpg","HE","HF02","2","3","6","6","stimuli/stars_6.png","7.5","[""CC"",""SC"",""HE"",""AO""]","[""BF08"",""AM03"",""HF02"",""WM09""]","[4,3,6,10]","[2,4,6,8]","","",""
"show-reward","10","119049","0.0-10.0","p752831","A13WTEQ06V3B6D","3FVBZG9CLKK1M1GPZWGJX51HFG80HB","3VNXK88KKEORNGXGUJLHU1O89A5V9P","emotion","match","uniform","","","","","","","","118102","120107.40000009537","","","","","","","","","","","","6","","stimuli/stars_6.png","7.5","","","","","stimuli/HF02_HE.jpg","",""
"explore-choice","11","121283","0.0-11.0","p752831","A13WTEQ06V3B6D","3FVBZG9CLKK1M1GPZWGJX51HFG80HB","3VNXK88KKEORNGXGUJLHU1O89A5V9P","emotion","match","uniform","","","","","","","1730.7999999523163","120109.5","121840.29999995232","[""stimuli/WM09_SC.jpg"",""stimuli/BF08_HE.jpg"",""stimuli/HF02_CC.jpg"",""stimuli/AM03_AO.jpg""]","stimuli/WM09_SC.jpg","stimuli/BF08_HE.jpg","stimuli/HF02_CC.jpg","stimuli/AM03_AO.jpg","pos4","stimuli/AM03_AO.jpg","AO","AM03","3","4.5","9","8","stimuli/stars_9.png","12","[""SC"",""HE"",""CC"",""AO""]","[""WM09"",""BF08"",""HF02"",""AM03""]","[2,7,4,9]","[4,6,2,8]","","",""
"show-reward","12","123291","0.0-12.0","p752831","A13WTEQ06V3B6D","3FVBZG9CLKK1M1GPZWGJX51HFG80HB","3VNXK88KKEORNGXGUJLHU1O89A5V9P","emotion","match","uniform","","","","","","","","122343.20000004768","124348.79999995232","","","","","","","","","","","","9","","stimuli/stars_9.png","12","","","","","stimuli/AM03_AO.jpg","",""
"explore-choice","13","125484","0.0-13.0","p752831","A13WTEQ06V3B6D","3FVBZG9CLKK1M1GPZWGJX51HFG80HB","3VNXK88KKEORNGXGUJLHU1O89A5V9P","emotion","match","uniform","","","","","","","1689.1000001430511","124350.79999995232","126039.90000009537","[""stimuli/HF02_HE.jpg"",""stimuli/WM09_SC.jpg"",""stimuli/AM03_CC.jpg"",""stimuli/BF08_AO.jpg""]","stimuli/HF02_HE.jpg","stimuli/WM09_SC.jpg","stimuli/AM03_CC.jpg","stimuli/BF08_AO.jpg","pos4","stimuli/BF08_AO.jpg","AO","BF08","3","5","10","8","stimuli/stars_10.png","17","[""HE"",""SC"",""CC"",""AO""]","[""HF02"",""WM09"",""AM03"",""BF08""]","[8,6,1,10]","[6,4,2,8]","","",""
"show-reward","14","127492","0.0-14.0","p752831","A13WTEQ06V3B6D","3FVBZG9CLKK1M1GPZWGJX51HFG80HB","3VNXK88KKEORNGXGUJLHU1O89A5V9P","emotion","match","uniform","","","","","","","","126544.09999990463","128549.70000004768","","","","","","","","","","","","10","","stimuli/stars_10.png","17","","","","","stimuli/BF08_AO.jpg","",""
"explore-choice","15","129175","0.0-15.0","p752831","A13WTEQ06V3B6D","3FVBZG9CLKK1M1GPZWGJX51HFG80HB","3VNXK88KKEORNGXGUJLHU1O89A5V9P","emotion","match","uniform","","","","","","","1180.0999999046326","128552.5","129732.59999990463","[""stimuli/AM03_AO.jpg"",""stimuli/BF08_CC.jpg"",""stimuli/WM09_HE.jpg"",""stimuli/HF02_SC.jpg""]","stimuli/AM03_AO.jpg","stimuli/BF08_CC.jpg","stimuli/WM09_HE.jpg","stimuli/HF02_SC.jpg","pos2","stimuli/BF08_CC.jpg","CC","BF08","1","1","2","2","stimuli/stars_2.png","18","[""AO"",""CC"",""HE"",""SC""]","[""AM03"",""BF08"",""WM09"",""HF02""]","[7,2,8,5]","[8,2,6,4]","","",""
"show-reward","16","131181","0.0-16.0","p752831","A13WTEQ06V3B6D","3FVBZG9CLKK1M1GPZWGJX51HFG80HB","3VNXK88KKEORNGXGUJLHU1O89A5V9P","emotion","match","uniform","","","","","","","","130234.90000009537","132238.5","","","","","","","","","","","","2","","stimuli/stars_2.png","18","","","","","stimuli/BF08_CC.jpg","",""
"explore-choice","17","135088","0.0-17.0","p752831","A13WTEQ06V3B6D","3FVBZG9CLKK1M1GPZWGJX51HFG80HB","3VNXK88KKEORNGXGUJLHU1O89A5V9P","emotion","match","uniform","","","","","","","3403.2000000476837","132241","135644.20000004768","[""stimuli/HF02_AO.jpg"",""stimuli/AM03_SC.jpg"",""stimuli/BF08_HE.jpg"",""stimuli/WM09_CC.jpg""]","stimuli/HF02_AO.jpg","stimuli/AM03_SC.jpg","stimuli/BF08_HE.jpg","stimuli/WM09_CC.jpg","pos2","stimuli/AM03_SC.jpg","SC","AM03","1","3","6","4","stimuli/stars_6.png","21","[""AO"",""SC"",""HE"",""CC""]","[""HF02"",""AM03"",""BF08"",""WM09""]","[9,6,8,3]","[8,4,6,2]","","",""
"show-reward","18","137096","0.0-18.0","p752831","A13WTEQ06V3B6D","3FVBZG9CLKK1M1GPZWGJX51HFG80HB","3VNXK88KKEORNGXGUJLHU1O89A5V9P","emotion","match","uniform","","","","","","","","136148.20000004768","138153.90000009537","","","","","","","","","","","","6","","stimuli/stars_6.png","21","","","","","stimuli/AM03_SC.jpg","",""
"explore-choice","19","139504","0.0-19.0","p752831","A13WTEQ06V3B6D","3FVBZG9CLKK1M1GPZWGJX51HFG80HB","3VNXK88KKEORNGXGUJLHU1O89A5V9P","emotion","match","uniform","","","","","","","1905.6999998092651","138156.40000009537","140062.09999990463","[""stimuli/BF08_SC.jpg"",""stimuli/HF02_HE.jpg"",""stimuli/WM09_CC.jpg"",""stimuli/AM03_AO.jpg""]","stimuli/BF08_SC.jpg","stimuli/HF02_HE.jpg","stimuli/WM09_CC.jpg","stimuli/AM03_AO.jpg","pos4","stimuli/AM03_AO.jpg","AO","AM03","3","5","10","8","stimuli/stars_10.png","26","[""SC"",""HE"",""CC"",""AO""]","[""BF08"",""HF02"",""WM09"",""AM03""]","[6,4,0,10]","[4,6,2,8]","","",""
"show-reward","20","141508","0.0-20.0","p752831","A13WTEQ06V3B6D","3FVBZG9CLKK1M1GPZWGJX51HFG80HB","3VNXK88KKEORNGXGUJLHU1O89A5V9P","emotion","match","uniform","","","","","","","","140563.09999990463","142566.29999995232","","","","","","","","","","","","10","","stimuli/stars_10.png","26","","","","","stimuli/AM03_AO.jpg","",""
"explore-choice","21","143249","0.0-21.0","p752831","A13WTEQ06V3B6D","3FVBZG9CLKK1M1GPZWGJX51HFG80HB","3VNXK88KKEORNGXGUJLHU1O89A5V9P","emotion","match","uniform","","","","","","","1237.5999999046326","142568.20000004768","143805.79999995232","[""stimuli/WM09_AO.jpg"",""stimuli/HF02_SC.jpg"",""stimuli/AM03_CC.jpg"",""stimuli/BF08_HE.jpg""]","stimuli/WM09_AO.jpg","stimuli/HF02_SC.jpg","stimuli/AM03_CC.jpg","stimuli/BF08_HE.jpg","pos1","stimuli/WM09_AO.jpg","AO","WM09","0","3.5","7","8","stimuli/stars_7.png","29.5","[""AO"",""SC"",""CC"",""HE""]","[""WM09"",""HF02"",""AM03"",""BF08""]","[7,4,4,6]","[8,4,2,6]","","",""
"show-reward","22","145257","0.0-22.0","p752831","A13WTEQ06V3B6D","3FVBZG9CLKK1M1GPZWGJX51HFG80HB","3VNXK88KKEORNGXGUJLHU1O89A5V9P","emotion","match","uniform","","","","","","","","144308.90000009537","146314.59999990463","","","","","","","","","","","","7","","stimuli/stars_7.png","29.5","","","","","stimuli/WM09_AO.jpg","",""
"explore-choice","23","147221","0.0-23.0","p752831","A13WTEQ06V3B6D","3FVBZG9CLKK1M1GPZWGJX51HFG80HB","3VNXK88KKEORNGXGUJLHU1O89A5V9P","emotion","match","uniform","","","","","","","1458.2000000476837","146317.79999995232","147776","[""stimuli/AM03_HE.jpg"",""stimuli/BF08_SC.jpg"",""stimuli/HF02_AO.jpg"",""stimuli/WM09_CC.jpg""]","stimuli/AM03_HE.jpg","stimuli/BF08_SC.jpg","stimuli/HF02_AO.jpg","stimuli/WM09_CC.jpg","pos3","stimuli/HF02_AO.jpg","AO","HF02","2","4","8","8","stimuli/stars_8.png","33.5","[""HE"",""SC"",""AO"",""CC""]","[""AM03"",""BF08"",""HF02"",""WM09""]","[4,6,8,4]","[6,4,8,2]","","",""
"show-reward","24","149226","0.0-24.0","p752831","A13WTEQ06V3B6D","3FVBZG9CLKK1M1GPZWGJX51HFG80HB","3VNXK88KKEORNGXGUJLHU1O89A5V9P","emotion","match","uniform","","","","","","","","148280.59999990463","150284.59999990463","","","","","","","","","","","","8","","stimuli/stars_8.png","33.5","","","","","stimuli/HF02_AO.jpg","",""
"explore-choice","25","151923","0.0-25.0","p752831","A13WTEQ06V3B6D","3FVBZG9CLKK1M1GPZWGJX51HFG80HB","3VNXK88KKEORNGXGUJLHU1O89A5V9P","emotion","match","uniform","","","","","","","2193.5999999046326","150286.20000004768","152479.79999995232","[""stimuli/BF08_HE.jpg"",""stimuli/WM09_CC.jpg"",""stimuli/AM03_AO.jpg"",""stimuli/HF02_SC.jpg""]","stimuli/BF08_HE.jpg","stimuli/WM09_CC.jpg","stimuli/AM03_AO.jpg","stimuli/HF02_SC.jpg","pos3","stimuli/AM03_AO.jpg","AO","AM03","2","3","6","8","stimuli/stars_6.png","36.5","[""HE"",""CC"",""AO"",""SC""]","[""BF08"",""WM09"",""AM03"",""HF02""]","[4,4,6,6]","[6,2,8,4]","","",""
"show-reward","26","153930","0.0-26.0","p752831","A13WTEQ06V3B6D","3FVBZG9CLKK1M1GPZWGJX51HFG80HB","3VNXK88KKEORNGXGUJLHU1O89A5V9P","emotion","match","uniform","","","","","","","","152983","154988.29999995232","","","","","","","","","","","","6","","stimuli/stars_6.png","36.5","","","","","stimuli/AM03_AO.jpg","",""
"explore-choice","27","155878","0.0-27.0","p752831","A13WTEQ06V3B6D","3FVBZG9CLKK1M1GPZWGJX51HFG80HB","3VNXK88KKEORNGXGUJLHU1O89A5V9P","emotion","match","uniform","","","","","","","1444.9000000953674","154989.09999990463","156434","[""stimuli/HF02_HE.jpg"",""stimuli/WM09_SC.jpg"",""stimuli/BF08_CC.jpg"",""stimuli/AM03_AO.jpg""]","stimuli/HF02_HE.jpg","stimuli/WM09_SC.jpg","stimuli/BF08_CC.jpg","stimuli/AM03_AO.jpg","pos4","stimuli/AM03_AO.jpg","AO","AM03","3","4","8","8","stimuli/stars_8.png","40.5","[""HE"",""SC"",""CC"",""AO""]","[""HF02"",""WM09"",""BF08"",""AM03""]","[4,4,2,8]","[6,4,2,8]","","",""
"show-reward","28","157885","0.0-28.0","p752831","A13WTEQ06V3B6D","3FVBZG9CLKK1M1GPZWGJX51HFG80HB","3VNXK88KKEORNGXGUJLHU1O89A5V9P","emotion","match","uniform","","","","","","","","156937.40000009537","158942.79999995232","","","","","","","","","","","","8","","stimuli/stars_8.png","40.5","","","","","stimuli/AM03_AO.jpg","",""
"explore-choice","29","159103","0.0-29.0","p752831","A13WTEQ06V3B6D","3FVBZG9CLKK1M1GPZWGJX51HFG80HB","3VNXK88KKEORNGXGUJLHU1O89A5V9P","emotion","match","uniform","","","","","","","715.1000001430511","158944.79999995232","159659.90000009537","[""stimuli/HF02_AO.jpg"",""stimuli/WM09_HE.jpg"",""stimuli/BF08_SC.jpg"",""stimuli/AM03_CC.jpg""]","stimuli/HF02_AO.jpg","stimuli/WM09_HE.jpg","stimuli/BF08_SC.jpg","stimuli/AM03_CC.jpg","pos2","stimuli/WM09_HE.jpg","HE","WM09","1","3.5","7","6","stimuli/stars_7.png","44","[""AO"",""HE"",""SC"",""CC""]","[""HF02"",""WM09"",""BF08"",""AM03""]","[8,7,6,1]","[8,6,4,2]","","",""
"show-reward","30","161109","0.0-30.0","p752831","A13WTEQ06V3B6D","3FVBZG9CLKK1M1GPZWGJX51HFG80HB","3VNXK88KKEORNGXGUJLHU1O89A5V9P","emotion","match","uniform","","","","","","","","160162.40000009537","162166.90000009537","","","","","","","","","","","","7","","stimuli/stars_7.png","44","","","","","stimuli/WM09_HE.jpg","",""
"explore-choice","31","162322","0.0-31.0","p752831","A13WTEQ06V3B6D","3FVBZG9CLKK1M1GPZWGJX51HFG80HB","3VNXK88KKEORNGXGUJLHU1O89A5V9P","emotion","match","uniform","","","","","","","710.0999999046326","162168.90000009537","162879","[""stimuli/BF08_CC.jpg"",""stimuli/WM09_HE.jpg"",""stimuli/AM03_SC.jpg"",""stimuli/HF02_AO.jpg""]","stimuli/BF08_CC.jpg","stimuli/WM09_HE.jpg","stimuli/AM03_SC.jpg","stimuli/HF02_AO.jpg","pos2","stimuli/WM09_HE.jpg","HE","WM09","1","3.5","7","6","stimuli/stars_7.png","47.5","[""CC"",""HE"",""SC"",""AO""]","[""BF08"",""WM09"",""AM03"",""HF02""]","[0,7,3,9]","[2,6,4,8]","","",""
"show-reward","32","164325","0.0-32.0","p752831","A13WTEQ06V3B6D","3FVBZG9CLKK1M1GPZWGJX51HFG80HB","3VNXK88KKEORNGXGUJLHU1O89A5V9P","emotion","match","uniform","","","","","","","","163380.90000009537","165383.29999995232","","","","","","","","","","","","7","","stimuli/stars_7.png","47.5","","","","","stimuli/WM09_HE.jpg","",""
"explore-choice","33","167334","0.0-33.0","p752831","A13WTEQ06V3B6D","3FVBZG9CLKK1M1GPZWGJX51HFG80HB","3VNXK88KKEORNGXGUJLHU1O89A5V9P","emotion","match","uniform","","","","","","","2507.5","165383.90000009537","167891.40000009537","[""stimuli/AM03_SC.jpg"",""stimuli/WM09_CC.jpg"",""stimuli/BF08_AO.jpg"",""stimuli/HF02_HE.jpg""]","stimuli/AM03_SC.jpg","stimuli/WM09_CC.jpg","stimuli/BF08_AO.jpg","stimuli/HF02_HE.jpg","pos3","stimuli/BF08_AO.jpg","AO","BF08","2","4.5","9","8","stimuli/stars_9.png","52","[""SC"",""CC"",""AO"",""HE""]","[""AM03"",""WM09"",""BF08"",""HF02""]","[2,1,9,5]","[4,2,8,6]","","",""
"show-reward","34","169337","0.0-34.0","p752831","A13WTEQ06V3B6D","3FVBZG9CLKK1M1GPZWGJX51HFG80HB","3VNXK88KKEORNGXGUJLHU1O89A5V9P","emotion","match","uniform","","","","","","","","168392.5","170395.09999990463","","","","","","","","","","","","9","","stimuli/stars_9.png","52","","","","","stimuli/BF08_AO.jpg","",""
"explore-choice","35","176747","0.0-35.0","p752831","A13WTEQ06V3B6D","3FVBZG9CLKK1M1GPZWGJX51HFG80HB","3VNXK88KKEORNGXGUJLHU1O89A5V9P","emotion","match","uniform","","","","","","","6906.699999809265","170395.90000009537","177302.59999990463","[""stimuli/AM03_CC.jpg"",""stimuli/WM09_SC.jpg"",""stimuli/HF02_AO.jpg"",""stimuli/BF08_HE.jpg""]","stimuli/AM03_CC.jpg","stimuli/WM09_SC.jpg","stimuli/HF02_AO.jpg","stimuli/BF08_HE.jpg","pos3","stimuli/HF02_AO.jpg","AO","HF02","2","5","10","8","stimuli/stars_10.png","57","[""CC"",""SC"",""AO"",""HE""]","[""AM03"",""WM09"",""HF02"",""BF08""]","[2,4,10,4]","[2,4,8,6]","","",""
"show-reward","36","178754","0.0-36.0","p752831","A13WTEQ06V3B6D","3FVBZG9CLKK1M1GPZWGJX51HFG80HB","3VNXK88KKEORNGXGUJLHU1O89A5V9P","emotion","match","uniform","","","","","","","","177806.79999995232","179811.79999995232","","","","","","","","","","","","10","","stimuli/stars_10.png","57","","","","","stimuli/HF02_AO.jpg","",""
"explore-choice","37","187647","0.0-37.0","p752831","A13WTEQ06V3B6D","3FVBZG9CLKK1M1GPZWGJX51HFG80HB","3VNXK88KKEORNGXGUJLHU1O89A5V9P","emotion","match","uniform","","","","","","","8390","179814.09999990463","188204.09999990463","[""stimuli/BF08_AO.jpg"",""stimuli/AM03_CC.jpg"",""stimuli/WM09_HE.jpg"",""stimuli/HF02_SC.jpg""]","stimuli/BF08_AO.jpg","stimuli/AM03_CC.jpg","stimuli/WM09_HE.jpg","stimuli/HF02_SC.jpg","pos1","stimuli/BF08_AO.jpg","AO","BF08","0","4","8","8","stimuli/stars_8.png","61","[""AO"",""CC"",""HE"",""SC""]","[""BF08"",""AM03"",""WM09"",""HF02""]","[8,0,8,2]","[8,2,6,4]","","",""
"show-reward","38","189655","0.0-38.0","p752831","A13WTEQ06V3B6D","3FVBZG9CLKK1M1GPZWGJX51HFG80HB","3VNXK88KKEORNGXGUJLHU1O89A5V9P","emotion","match","uniform","","","","","","","","188707.59999990463","190713","","","","","","","","","","","","8","","stimuli/stars_8.png","61","","","","","stimuli/BF08_AO.jpg","",""
"explore-choice","39","194930","0.0-39.0","p752831","A13WTEQ06V3B6D","3FVBZG9CLKK1M1GPZWGJX51HFG80HB","3VNXK88KKEORNGXGUJLHU1O89A5V9P","emotion","match","uniform","","","","","","","4772.399999856949","190714.90000009537","195487.29999995232","[""stimuli/BF08_AO.jpg"",""stimuli/WM09_HE.jpg"",""stimuli/HF02_CC.jpg"",""stimuli/AM03_SC.jpg""]","stimuli/BF08_AO.jpg","stimuli/WM09_HE.jpg","stimuli/HF02_CC.jpg","stimuli/AM03_SC.jpg","pos1","stimuli/BF08_AO.jpg","AO","BF08","0","3.5","7","8","stimuli/stars_7.png","64.5","[""AO"",""HE"",""CC"",""SC""]","[""BF08"",""WM09"",""HF02"",""AM03""]","[7,8,2,3]","[8,6,2,4]","","",""
"show-reward","40","196937","0.0-40.0","p752831","A13WTEQ06V3B6D","3FVBZG9CLKK1M1GPZWGJX51HFG80HB","3VNXK88KKEORNGXGUJLHU1O89A5V9P","emotion","match","uniform","","","","","","","","195990.70000004768","197995","","","","","","","","","","","","7","","stimuli/stars_7.png","64.5","","","","","stimuli/BF08_AO.jpg","",""
"explore-choice","41","200326","0.0-41.0","p752831","A13WTEQ06V3B6D","3FVBZG9CLKK1M1GPZWGJX51HFG80HB","3VNXK88KKEORNGXGUJLHU1O89A5V9P","emotion","match","uniform","","","","","","","2885.399999856949","197996.90000009537","200882.29999995232","[""stimuli/AM03_HE.jpg"",""stimuli/BF08_AO.jpg"",""stimuli/WM09_SC.jpg"",""stimuli/HF02_CC.jpg""]","stimuli/AM03_HE.jpg","stimuli/BF08_AO.jpg","stimuli/WM09_SC.jpg","stimuli/HF02_CC.jpg","pos2","stimuli/BF08_AO.jpg","AO","BF08","1","3.5","7","8","stimuli/stars_7.png","68","[""HE"",""AO"",""SC"",""CC""]","[""AM03"",""BF08"",""WM09"",""HF02""]","[7,7,3,4]","[6,8,4,2]","","",""
"show-reward","42","202334","0.0-42.0","p752831","A13WTEQ06V3B6D","3FVBZG9CLKK1M1GPZWGJX51HFG80HB","3VNXK88KKEORNGXGUJLHU1O89A5V9P","emotion","match","uniform","","","","","","","","201386.59999990463","203392.20000004768","","","","","","","","","","","","7","","stimuli/stars_7.png","68","","","","","stimuli/BF08_AO.jpg","",""
"explore-choice","43","207444","0.0-43.0","p752831","A13WTEQ06V3B6D","3FVBZG9CLKK1M1GPZWGJX51HFG80HB","3VNXK88KKEORNGXGUJLHU1O89A5V9P","emotion","match","uniform","","","","","","","4607","203394.5","208001.5","[""stimuli/AM03_HE.jpg"",""stimuli/HF02_SC.jpg"",""stimuli/WM09_AO.jpg"",""stimuli/BF08_CC.jpg""]","stimuli/AM03_HE.jpg","stimuli/HF02_SC.jpg","stimuli/WM09_AO.jpg","stimuli/BF08_CC.jpg","pos3","stimuli/WM09_AO.jpg","AO","WM09","2","3.5","7","8","stimuli/stars_7.png","71.5","[""HE"",""SC"",""AO"",""CC""]","[""AM03"",""HF02"",""WM09"",""BF08""]","[8,5,7,3]","[6,4,8,2]","","",""
"show-reward","44","209451","0.0-44.0","p752831","A13WTEQ06V3B6D","3FVBZG9CLKK1M1GPZWGJX51HFG80HB","3VNXK88KKEORNGXGUJLHU1O89A5V9P","emotion","match","uniform","","","","","","","","208504.20000004768","210509.09999990463","","","","","","","","","","","","7","","stimuli/stars_7.png","71.5","","","","","stimuli/WM09_AO.jpg","",""
"explore-choice","45","218350","0.0-45.0","p752831","A13WTEQ06V3B6D","3FVBZG9CLKK1M1GPZWGJX51HFG80HB","3VNXK88KKEORNGXGUJLHU1O89A5V9P","emotion","match","uniform","","","","","","","8394.5","210511.29999995232","218905.79999995232","[""stimuli/AM03_HE.jpg"",""stimuli/BF08_CC.jpg"",""stimuli/HF02_AO.jpg"",""stimuli/WM09_SC.jpg""]","stimuli/AM03_HE.jpg","stimuli/BF08_CC.jpg","stimuli/HF02_AO.jpg","stimuli/WM09_SC.jpg","pos3","stimuli/HF02_AO.jpg","AO","HF02","2","4.5","9","8","stimuli/stars_9.png","76","[""HE"",""CC"",""AO"",""SC""]","[""AM03"",""BF08"",""HF02"",""WM09""]","[6,0,9,5]","[6,2,8,4]","","",""
"show-reward","46","220358","0.0-46.0","p752831","A13WTEQ06V3B6D","3FVBZG9CLKK1M1GPZWGJX51HFG80HB","3VNXK88KKEORNGXGUJLHU1O89A5V9P","emotion","match","uniform","","","","","","","","219409.90000009537","221414.59999990463","","","","","","","","","","","","9","","stimuli/stars_9.png","76","","","","","stimuli/HF02_AO.jpg","",""
"explore-choice","47","224071","0.0-47.0","p752831","A13WTEQ06V3B6D","3FVBZG9CLKK1M1GPZWGJX51HFG80HB","3VNXK88KKEORNGXGUJLHU1O89A5V9P","emotion","match","uniform","","","","","","","3209.7999999523163","221416.40000009537","224626.20000004768","[""stimuli/HF02_CC.jpg"",""stimuli/BF08_SC.jpg"",""stimuli/WM09_HE.jpg"",""stimuli/AM03_AO.jpg""]","stimuli/HF02_CC.jpg","stimuli/BF08_SC.jpg","stimuli/WM09_HE.jpg","stimuli/AM03_AO.jpg","pos4","stimuli/AM03_AO.jpg","AO","AM03","3","4.5","9","8","stimuli/stars_9.png","80.5","[""CC"",""SC"",""HE"",""AO""]","[""HF02"",""BF08"",""WM09"",""AM03""]","[2,5,5,9]","[2,4,6,8]","","",""
"show-reward","48","226076","0.0-48.0","p752831","A13WTEQ06V3B6D","3FVBZG9CLKK1M1GPZWGJX51HFG80HB","3VNXK88KKEORNGXGUJLHU1O89A5V9P","emotion","match","uniform","","","","","","","","225129.70000004768","227133.59999990463","","","","","","","","","","","","9","","stimuli/stars_9.png","80.5","","","","","stimuli/AM03_AO.jpg","",""
"explore-choice","49","234108","0.0-49.0","p752831","A13WTEQ06V3B6D","3FVBZG9CLKK1M1GPZWGJX51HFG80HB","3VNXK88KKEORNGXGUJLHU1O89A5V9P","emotion","match","uniform","","","","","","","7528.5","227134.70000004768","234663.20000004768","[""stimuli/BF08_HE.jpg"",""stimuli/AM03_SC.jpg"",""stimuli/HF02_CC.jpg"",""stimuli/WM09_AO.jpg""]","stimuli/BF08_HE.jpg","stimuli/AM03_SC.jpg","stimuli/HF02_CC.jpg","stimuli/WM09_AO.jpg","pos4","stimuli/WM09_AO.jpg","AO","WM09","3","3","6","8","stimuli/stars_6.png","83.5","[""HE"",""SC"",""CC"",""AO""]","[""BF08"",""AM03"",""HF02"",""WM09""]","[8,4,1,6]","[6,4,2,8]","","",""
"show-reward","50","236116","0.0-50.0","p752831","A13WTEQ06V3B6D","3FVBZG9CLKK1M1GPZWGJX51HFG80HB","3VNXK88KKEORNGXGUJLHU1O89A5V9P","emotion","match","uniform","","","","","","","","235168.09999990463","237173.09999990463","","","","","","","","","","","","6","","stimuli/stars_6.png","83.5","","","","","stimuli/WM09_AO.jpg","",""
"explore-choice","51","242559","0.0-51.0","p752831","A13WTEQ06V3B6D","3FVBZG9CLKK1M1GPZWGJX51HFG80HB","3VNXK88KKEORNGXGUJLHU1O89A5V9P","emotion","match","uniform","","","","","","","5938.899999856949","237175.40000009537","243114.29999995232","[""stimuli/WM09_AO.jpg"",""stimuli/HF02_HE.jpg"",""stimuli/AM03_CC.jpg"",""stimuli/BF08_SC.jpg""]","stimuli/WM09_AO.jpg","stimuli/HF02_HE.jpg","stimuli/AM03_CC.jpg","stimuli/BF08_SC.jpg","pos1","stimuli/WM09_AO.jpg","AO","WM09","0","3.5","7","8","stimuli/stars_7.png","87","[""AO"",""HE"",""CC"",""SC""]","[""WM09"",""HF02"",""AM03"",""BF08""]","[7,5,3,5]","[8,6,2,4]","","",""
"show-reward","52","244567","0.0-52.0","p752831","A13WTEQ06V3B6D","3FVBZG9CLKK1M1GPZWGJX51HFG80HB","3VNXK88KKEORNGXGUJLHU1O89A5V9P","emotion","match","uniform","","","","","","","","243618.29999995232","245623.90000009537","","","","","","","","","","","","7","","stimuli/stars_7.png","87","","","","","stimuli/WM09_AO.jpg","",""
"explore-choice","53","246251","0.0-53.0","p752831","A13WTEQ06V3B6D","3FVBZG9CLKK1M1GPZWGJX51HFG80HB","3VNXK88KKEORNGXGUJLHU1O89A5V9P","emotion","match","uniform","","","","","","","1173.1000001430511","245625.09999990463","246798.20000004768","[""stimuli/HF02_CC.jpg"",""stimuli/BF08_SC.jpg"",""stimuli/AM03_HE.jpg"",""stimuli/WM09_AO.jpg""]","stimuli/HF02_CC.jpg","stimuli/BF08_SC.jpg","stimuli/AM03_HE.jpg","stimuli/WM09_AO.jpg","pos3","stimuli/AM03_HE.jpg","HE","AM03","2","3.5","7","6","stimuli/stars_7.png","90.5","[""CC"",""SC"",""HE"",""AO""]","[""HF02"",""BF08"",""AM03"",""WM09""]","[3,5,7,7]","[2,4,6,8]","","",""
"show-reward","54","248255","0.0-54.0","p752831","A13WTEQ06V3B6D","3FVBZG9CLKK1M1GPZWGJX51HFG80HB","3VNXK88KKEORNGXGUJLHU1O89A5V9P","emotion","match","uniform","","","","","","","","247309.09999990463","249312.40000009537","","","","","","","","","","","","7","","stimuli/stars_7.png","90.5","","","","","stimuli/AM03_HE.jpg","",""
"explore-choice","55","254135","0.0-55.0","p752831","A13WTEQ06V3B6D","3FVBZG9CLKK1M1GPZWGJX51HFG80HB","3VNXK88KKEORNGXGUJLHU1O89A5V9P","emotion","match","uniform","","","","","","","5377.5","249314.29999995232","254691.79999995232","[""stimuli/WM09_AO.jpg"",""stimuli/BF08_HE.jpg"",""stimuli/AM03_SC.jpg"",""stimuli/HF02_CC.jpg""]","stimuli/WM09_AO.jpg","stimuli/BF08_HE.jpg","stimuli/AM03_SC.jpg","stimuli/HF02_CC.jpg","pos2","stimuli/BF08_HE.jpg","HE","BF08","1","4","8","6","stimuli/stars_8.png","94.5","[""AO"",""HE"",""SC"",""CC""]","[""WM09"",""BF08"",""AM03"",""HF02""]","[6,8,4,1]","[8,6,4,2]","","",""
"show-reward","56","256140","0.0-56.0","p752831","A13WTEQ06V3B6D","3FVBZG9CLKK1M1GPZWGJX51HFG80HB","3VNXK88KKEORNGXGUJLHU1O89A5V9P","emotion","match","uniform","","","","","","","","255194","257196.90000009537","","","","","","","","","","","","8","","stimuli/stars_8.png","94.5","","","","","stimuli/BF08_HE.jpg","",""
"explore-choice","57","262919","0.0-57.0","p752831","A13WTEQ06V3B6D","3FVBZG9CLKK1M1GPZWGJX51HFG80HB","3VNXK88KKEORNGXGUJLHU1O89A5V9P","emotion","match","uniform","","","","","","","6274.700000047684","257199.09999990463","263473.7999999523","[""stimuli/HF02_AO.jpg"",""stimuli/BF08_SC.jpg"",""stimuli/AM03_CC.jpg"",""stimuli/WM09_HE.jpg""]","stimuli/HF02_AO.jpg","stimuli/BF08_SC.jpg","stimuli/AM03_CC.jpg","stimuli/WM09_HE.jpg","pos1","stimuli/HF02_AO.jpg","AO","HF02","0","4","8","8","stimuli/stars_8.png","98.5","[""AO"",""SC"",""CC"",""HE""]","[""HF02"",""BF08"",""AM03"",""WM09""]","[8,6,1,7]","[8,4,2,6]","","",""
"show-reward","58","264925","0.0-58.0","p752831","A13WTEQ06V3B6D","3FVBZG9CLKK1M1GPZWGJX51HFG80HB","3VNXK88KKEORNGXGUJLHU1O89A5V9P","emotion","match","uniform","","","","","","","","263978","265982.40000009537","","","","","","","","","","","","8","","stimuli/stars_8.png","98.5","","","","","stimuli/HF02_AO.jpg","",""
"explore-choice","59","274030","0.0-59.0","p752831","A13WTEQ06V3B6D","3FVBZG9CLKK1M1GPZWGJX51HFG80HB","3VNXK88KKEORNGXGUJLHU1O89A5V9P","emotion","match","uniform","","","","","","","8601.399999856949","265984.2000000477","274585.59999990463","[""stimuli/AM03_SC.jpg"",""stimuli/BF08_CC.jpg"",""stimuli/HF02_AO.jpg"",""stimuli/WM09_HE.jpg""]","stimuli/AM03_SC.jpg","stimuli/BF08_CC.jpg","stimuli/HF02_AO.jpg","stimuli/WM09_HE.jpg","pos3","stimuli/HF02_AO.jpg","AO","HF02","2","4.5","9","8","stimuli/stars_9.png","103","[""SC"",""CC"",""AO"",""HE""]","[""AM03"",""BF08"",""HF02"",""WM09""]","[3,0,9,7]","[4,2,8,6]","","",""
"show-reward","60","276033","0.0-60.0","p752831","A13WTEQ06V3B6D","3FVBZG9CLKK1M1GPZWGJX51HFG80HB","3VNXK88KKEORNGXGUJLHU1O89A5V9P","emotion","match","uniform","","","","","","","","275088","277090.09999990463","","","","","","","","","","","","9","","stimuli/stars_9.png","103","","","","","stimuli/HF02_AO.jpg","",""
"explore-choice","61","278223","0.0-61.0","p752831","A13WTEQ06V3B6D","3FVBZG9CLKK1M1GPZWGJX51HFG80HB","3VNXK88KKEORNGXGUJLHU1O89A5V9P","emotion","match","uniform","","","","","","","1687.7000000476837","277091.7999999523","278779.5","[""stimuli/HF02_SC.jpg"",""stimuli/WM09_CC.jpg"",""stimuli/AM03_HE.jpg"",""stimuli/BF08_AO.jpg""]","stimuli/HF02_SC.jpg","stimuli/WM09_CC.jpg","stimuli/AM03_HE.jpg","stimuli/BF08_AO.jpg","pos4","stimuli/BF08_AO.jpg","AO","BF08","3","4.5","9","8","stimuli/stars_9.png","107.5","[""SC"",""CC"",""HE"",""AO""]","[""HF02"",""WM09"",""AM03"",""BF08""]","[5,2,7,9]","[4,2,6,8]","","",""
"show-reward","62","280225","0.0-62.0","p752831","A13WTEQ06V3B6D","3FVBZG9CLKK1M1GPZWGJX51HFG80HB","3VNXK88KKEORNGXGUJLHU1O89A5V9P","emotion","match","uniform","","","","","","","","279280.90000009537","281282.7999999523","","","","","","","","","","","","9","","stimuli/stars_9.png","107.5","","","","","stimuli/BF08_AO.jpg","",""
"explore-choice","63","282170","0.0-63.0","p752831","A13WTEQ06V3B6D","3FVBZG9CLKK1M1GPZWGJX51HFG80HB","3VNXK88KKEORNGXGUJLHU1O89A5V9P","emotion","match","uniform","","","","","","","1442","281283.7999999523","282725.7999999523","[""stimuli/WM09_AO.jpg"",""stimuli/AM03_CC.jpg"",""stimuli/BF08_HE.jpg"",""stimuli/HF02_SC.jpg""]","stimuli/WM09_AO.jpg","stimuli/AM03_CC.jpg","stimuli/BF08_HE.jpg","stimuli/HF02_SC.jpg","pos1","stimuli/WM09_AO.jpg","AO","WM09","0","3.5","7","8","stimuli/stars_7.png","111","[""AO"",""CC"",""HE"",""SC""]","[""WM09"",""AM03"",""BF08"",""HF02""]","[7,4,6,4]","[8,2,6,4]","","",""
"show-reward","64","284173","0.0-64.0","p752831","A13WTEQ06V3B6D","3FVBZG9CLKK1M1GPZWGJX51HFG80HB","3VNXK88KKEORNGXGUJLHU1O89A5V9P","emotion","match","uniform","","","","","","","","283228","285230","","","","","","","","","","","","7","","stimuli/stars_7.png","111","","","","","stimuli/WM09_AO.jpg","",""
"explore-choice","65","285708","0.0-65.0","p752831","A13WTEQ06V3B6D","3FVBZG9CLKK1M1GPZWGJX51HFG80HB","3VNXK88KKEORNGXGUJLHU1O89A5V9P","emotion","match","uniform","","","","","","","1032.5","285230.59999990463","286263.09999990463","[""stimuli/HF02_HE.jpg"",""stimuli/WM09_SC.jpg"",""stimuli/BF08_AO.jpg"",""stimuli/AM03_CC.jpg""]","stimuli/HF02_HE.jpg","stimuli/WM09_SC.jpg","stimuli/BF08_AO.jpg","stimuli/AM03_CC.jpg","pos1","stimuli/HF02_HE.jpg","HE","HF02","0","4","8","6","stimuli/stars_8.png","115","[""HE"",""SC"",""AO"",""CC""]","[""HF02"",""WM09"",""BF08"",""AM03""]","[8,6,10,1]","[6,4,8,2]","","",""
"show-reward","66","287715","0.0-66.0","p752831","A13WTEQ06V3B6D","3FVBZG9CLKK1M1GPZWGJX51HFG80HB","3VNXK88KKEORNGXGUJLHU1O89A5V9P","emotion","match","uniform","","","","","","","","286767.09999990463","288771.7999999523","","","","","","","","","","","","8","","stimuli/stars_8.png","115","","","","","stimuli/HF02_HE.jpg","",""
"explore-choice","67","292090","0.0-67.0","p752831","A13WTEQ06V3B6D","3FVBZG9CLKK1M1GPZWGJX51HFG80HB","3VNXK88KKEORNGXGUJLHU1O89A5V9P","emotion","match","uniform","","","","","","","3871.7000000476837","288774.09999990463","292645.7999999523","[""stimuli/AM03_AO.jpg"",""stimuli/HF02_CC.jpg"",""stimuli/WM09_HE.jpg"",""stimuli/BF08_SC.jpg""]","stimuli/AM03_AO.jpg","stimuli/HF02_CC.jpg","stimuli/WM09_HE.jpg","stimuli/BF08_SC.jpg","pos3","stimuli/WM09_HE.jpg","HE","WM09","2","2.5","5","6","stimuli/stars_5.png","117.5","[""AO"",""CC"",""HE"",""SC""]","[""AM03"",""HF02"",""WM09"",""BF08""]","[9,2,5,5]","[8,2,6,4]","","",""
"show-reward","68","294093","0.0-68.0","p752831","A13WTEQ06V3B6D","3FVBZG9CLKK1M1GPZWGJX51HFG80HB","3VNXK88KKEORNGXGUJLHU1O89A5V9P","emotion","match","uniform","","","","","","","","293148","295150.40000009537","","","","","","","","","","","","5","","stimuli/stars_5.png","117.5","","","","","stimuli/WM09_HE.jpg","",""
"explore-choice","69","295828","0.0-69.0","p752831","A13WTEQ06V3B6D","3FVBZG9CLKK1M1GPZWGJX51HFG80HB","3VNXK88KKEORNGXGUJLHU1O89A5V9P","emotion","match","uniform","","","","","","","1231.0999999046326","295152.2000000477","296383.2999999523","[""stimuli/AM03_AO.jpg"",""stimuli/WM09_HE.jpg"",""stimuli/HF02_SC.jpg"",""stimuli/BF08_CC.jpg""]","stimuli/AM03_AO.jpg","stimuli/WM09_HE.jpg","stimuli/HF02_SC.jpg","stimuli/BF08_CC.jpg","pos1","stimuli/AM03_AO.jpg","AO","AM03","0","3.5","7","8","stimuli/stars_7.png","121","[""AO"",""HE"",""SC"",""CC""]","[""AM03"",""WM09"",""HF02"",""BF08""]","[7,8,5,2]","[8,6,4,2]","","",""
"show-reward","70","297836","0.0-70.0","p752831","A13WTEQ06V3B6D","3FVBZG9CLKK1M1GPZWGJX51HFG80HB","3VNXK88KKEORNGXGUJLHU1O89A5V9P","emotion","match","uniform","","","","","","","","296887.09999990463","298893.5","","","","","","","","","","","","7","","stimuli/stars_7.png","121","","","","","stimuli/AM03_AO.jpg","",""
"explore-choice","71","303745","0.0-71.0","p752831","A13WTEQ06V3B6D","3FVBZG9CLKK1M1GPZWGJX51HFG80HB","3VNXK88KKEORNGXGUJLHU1O89A5V9P","emotion","match","uniform","","","","","","","5404.600000143051","298895.59999990463","304300.2000000477","[""stimuli/AM03_CC.jpg"",""stimuli/BF08_AO.jpg"",""stimuli/HF02_SC.jpg"",""stimuli/WM09_HE.jpg""]","stimuli/AM03_CC.jpg","stimuli/BF08_AO.jpg","stimuli/HF02_SC.jpg","stimuli/WM09_HE.jpg","pos2","stimuli/BF08_AO.jpg","AO","BF08","1","4","8","8","stimuli/stars_8.png","125","[""CC"",""AO"",""SC"",""HE""]","[""AM03"",""BF08"",""HF02"",""WM09""]","[0,8,2,8]","[2,8,4,6]","","",""
"show-reward","72","305753","0.0-72.0","p752831","A13WTEQ06V3B6D","3FVBZG9CLKK1M1GPZWGJX51HFG80HB","3VNXK88KKEORNGXGUJLHU1O89A5V9P","emotion","match","uniform","","","","","","","","304804.7000000477","306810.2000000477","","","","","","","","","","","","8","","stimuli/stars_8.png","125","","","","","stimuli/BF08_AO.jpg","",""
"explore-choice","73","307365","0.0-73.0","p752831","A13WTEQ06V3B6D","3FVBZG9CLKK1M1GPZWGJX51HFG80HB","3VNXK88KKEORNGXGUJLHU1O89A5V9P","emotion","match","uniform","","","","","","","1109.9000000953674","306812.2999999523","307922.2000000477","[""stimuli/WM09_SC.jpg"",""stimuli/AM03_AO.jpg"",""stimuli/BF08_CC.jpg"",""stimuli/HF02_HE.jpg""]","stimuli/WM09_SC.jpg","stimuli/AM03_AO.jpg","stimuli/BF08_CC.jpg","stimuli/HF02_HE.jpg","pos2","stimuli/AM03_AO.jpg","AO","AM03","1","4","8","8","stimuli/stars_8.png","129","[""SC"",""AO"",""CC"",""HE""]","[""WM09"",""AM03"",""BF08"",""HF02""]","[4,8,2,4]","[4,8,2,6]","","",""
"show-reward","74","309369","0.0-74.0","p752831","A13WTEQ06V3B6D","3FVBZG9CLKK1M1GPZWGJX51HFG80HB","3VNXK88KKEORNGXGUJLHU1O89A5V9P","emotion","match","uniform","","","","","","","","308424","310426.90000009537","","","","","","","","","","","","8","","stimuli/stars_8.png","129","","","","","stimuli/AM03_AO.jpg","",""
"explore-choice","75","311266","0.0-75.0","p752831","A13WTEQ06V3B6D","3FVBZG9CLKK1M1GPZWGJX51HFG80HB","3VNXK88KKEORNGXGUJLHU1O89A5V9P","emotion","match","uniform","","","","","","","1394.2000000476837","310427.5","311821.7000000477","[""stimuli/AM03_HE.jpg"",""stimuli/WM09_CC.jpg"",""stimuli/BF08_SC.jpg"",""stimuli/HF02_AO.jpg""]","stimuli/AM03_HE.jpg","stimuli/WM09_CC.jpg","stimuli/BF08_SC.jpg","stimuli/HF02_AO.jpg","pos4","stimuli/HF02_AO.jpg","AO","HF02","3","4","8","8","stimuli/stars_8.png","133","[""HE"",""CC"",""SC"",""AO""]","[""AM03"",""WM09"",""BF08"",""HF02""]","[4,4,6,8]","[6,2,4,8]","","",""
"show-reward","76","313270","0.0-76.0","p752831","A13WTEQ06V3B6D","3FVBZG9CLKK1M1GPZWGJX51HFG80HB","3VNXK88KKEORNGXGUJLHU1O89A5V9P","emotion","match","uniform","","","","","","","","312324.90000009537","314327.7000000477","","","","","","","","","","","","8","","stimuli/stars_8.png","133","","","","","stimuli/HF02_AO.jpg","",""
"explore-choice","77","315499","0.0-77.0","p752831","A13WTEQ06V3B6D","3FVBZG9CLKK1M1GPZWGJX51HFG80HB","3VNXK88KKEORNGXGUJLHU1O89A5V9P","emotion","match","uniform","","","","","","","1727","314328.59999990463","316055.59999990463","[""stimuli/WM09_CC.jpg"",""stimuli/HF02_SC.jpg"",""stimuli/AM03_AO.jpg"",""stimuli/BF08_HE.jpg""]","stimuli/WM09_CC.jpg","stimuli/HF02_SC.jpg","stimuli/AM03_AO.jpg","stimuli/BF08_HE.jpg","pos3","stimuli/AM03_AO.jpg","AO","AM03","2","3","6","8","stimuli/stars_6.png","136","[""CC"",""SC"",""AO"",""HE""]","[""WM09"",""HF02"",""AM03"",""BF08""]","[4,6,6,4]","[2,4,8,6]","","",""
"show-reward","78","317505","0.0-78.0","p752831","A13WTEQ06V3B6D","3FVBZG9CLKK1M1GPZWGJX51HFG80HB","3VNXK88KKEORNGXGUJLHU1O89A5V9P","emotion","match","uniform","","","","","","","","316557.7999999523","318562","","","","","","","","","","","","6","","stimuli/stars_6.png","136","","","","","stimuli/AM03_AO.jpg","",""
"explore-choice","79","319856","0.0-79.0","p752831","A13WTEQ06V3B6D","3FVBZG9CLKK1M1GPZWGJX51HFG80HB","3VNXK88KKEORNGXGUJLHU1O89A5V9P","emotion","match","uniform","","","","","","","1848.4000000953674","318563","320411.40000009537","[""stimuli/WM09_SC.jpg"",""stimuli/HF02_AO.jpg"",""stimuli/AM03_HE.jpg"",""stimuli/BF08_CC.jpg""]","stimuli/WM09_SC.jpg","stimuli/HF02_AO.jpg","stimuli/AM03_HE.jpg","stimuli/BF08_CC.jpg","pos2","stimuli/HF02_AO.jpg","AO","HF02","1","4.5","9","8","stimuli/stars_9.png","140.5","[""SC"",""AO"",""HE"",""CC""]","[""WM09"",""HF02"",""AM03"",""BF08""]","[5,9,6,0]","[4,8,6,2]","","",""
"show-reward","80","321862","0.0-80.0","p752831","A13WTEQ06V3B6D","3FVBZG9CLKK1M1GPZWGJX51HFG80HB","3VNXK88KKEORNGXGUJLHU1O89A5V9P","emotion","match","uniform","","","","","","","","320914.7000000477","322919.2999999523","","","","","","","","","","","","9","","stimuli/stars_9.png","140.5","","","","","stimuli/HF02_AO.jpg","",""
"explore-choice","81","326463","0.0-81.0","p752831","A13WTEQ06V3B6D","3FVBZG9CLKK1M1GPZWGJX51HFG80HB","3VNXK88KKEORNGXGUJLHU1O89A5V9P","emotion","match","uniform","","","","","","","4098.399999856949","322921.40000009537","327019.7999999523","[""stimuli/HF02_CC.jpg"",""stimuli/WM09_HE.jpg"",""stimuli/AM03_SC.jpg"",""stimuli/BF08_AO.jpg""]","stimuli/HF02_CC.jpg","stimuli/WM09_HE.jpg","stimuli/AM03_SC.jpg","stimuli/BF08_AO.jpg","pos4","stimuli/BF08_AO.jpg","AO","BF08","3","3.5","7","8","stimuli/stars_7.png","144","[""CC"",""HE"",""SC"",""AO""]","[""HF02"",""WM09"",""AM03"",""BF08""]","[2,8,3,7]","[2,6,4,8]","","",""
"show-reward","82","328467","0.0-82.0","p752831","A13WTEQ06V3B6D","3FVBZG9CLKK1M1GPZWGJX51HFG80HB","3VNXK88KKEORNGXGUJLHU1O89A5V9P","emotion","match","uniform","","","","","","","","327521.7000000477","329524.40000009537","","","","","","","","","","","","7","","stimuli/stars_7.png","144","","","","","stimuli/BF08_AO.jpg","",""
"explore-choice","83","333297","0.0-83.0","p752831","A13WTEQ06V3B6D","3FVBZG9CLKK1M1GPZWGJX51HFG80HB","3VNXK88KKEORNGXGUJLHU1O89A5V9P","emotion","match","uniform","","","","","","","4329","329525.09999990463","333854.09999990463","[""stimuli/WM09_CC.jpg"",""stimuli/AM03_AO.jpg"",""stimuli/HF02_HE.jpg"",""stimuli/BF08_SC.jpg""]","stimuli/WM09_CC.jpg","stimuli/AM03_AO.jpg","stimuli/HF02_HE.jpg","stimuli/BF08_SC.jpg","pos2","stimuli/AM03_AO.jpg","AO","AM03","1","5","10","8","stimuli/stars_10.png","149","[""CC"",""AO"",""HE"",""SC""]","[""WM09"",""AM03"",""HF02"",""BF08""]","[0,10,4,6]","[2,8,6,4]","","",""
"show-reward","84","335300","0.0-84.0","p752831","A13WTEQ06V3B6D","3FVBZG9CLKK1M1GPZWGJX51HFG80HB","3VNXK88KKEORNGXGUJLHU1O89A5V9P","emotion","match","uniform","","","","","","","","334355.40000009537","336357","","","","","","","","","","","","10","","stimuli/stars_10.png","149","","","","","stimuli/AM03_AO.jpg","",""
"explore-choice","85","336981","0.0-85.0","p752831","A13WTEQ06V3B6D","3FVBZG9CLKK1M1GPZWGJX51HFG80HB","3VNXK88KKEORNGXGUJLHU1O89A5V9P","emotion","match","uniform","","","","","","","1178.6999998092651","336358.90000009537","337537.59999990463","[""stimuli/HF02_CC.jpg"",""stimuli/BF08_SC.jpg"",""stimuli/WM09_AO.jpg"",""stimuli/AM03_HE.jpg""]","stimuli/HF02_CC.jpg","stimuli/BF08_SC.jpg","stimuli/WM09_AO.jpg","stimuli/AM03_HE.jpg","pos3","stimuli/WM09_AO.jpg","AO","WM09","2","3.5","7","8","stimuli/stars_7.png","152.5","[""CC"",""SC"",""AO"",""HE""]","[""HF02"",""BF08"",""WM09"",""AM03""]","[3,5,7,7]","[2,4,8,6]","","",""
"show-reward","86","338988","0.0-86.0","p752831","A13WTEQ06V3B6D","3FVBZG9CLKK1M1GPZWGJX51HFG80HB","3VNXK88KKEORNGXGUJLHU1O89A5V9P","emotion","match","uniform","","","","","","","","338040.2999999523","340044.5","","","","","","","","","","","","7","","stimuli/stars_7.png","152.5","","","","","stimuli/WM09_AO.jpg","",""
"explore-choice","87","341069","0.0-87.0","p752831","A13WTEQ06V3B6D","3FVBZG9CLKK1M1GPZWGJX51HFG80HB","3VNXK88KKEORNGXGUJLHU1O89A5V9P","emotion","match","uniform","","","","","","","1576.8999998569489","340046.7000000477","341623.59999990463","[""stimuli/BF08_HE.jpg"",""stimuli/HF02_AO.jpg"",""stimuli/WM09_CC.jpg"",""stimuli/AM03_SC.jpg""]","stimuli/BF08_HE.jpg","stimuli/HF02_AO.jpg","stimuli/WM09_CC.jpg","stimuli/AM03_SC.jpg","pos2","stimuli/HF02_AO.jpg","AO","HF02","1","4.5","9","8","stimuli/stars_9.png","157","[""HE"",""AO"",""CC"",""SC""]","[""BF08"",""HF02"",""WM09"",""AM03""]","[8,9,3,6]","[6,8,2,4]","","",""
"show-reward","88","343077","0.0-88.0","p752831","A13WTEQ06V3B6D","3FVBZG9CLKK1M1GPZWGJX51HFG80HB","3VNXK88KKEORNGXGUJLHU1O89A5V9P","emotion","match","uniform","","","","","","","","342128.40000009537","344133.90000009537","","","","","","","","","","","","9","","stimuli/stars_9.png","157","","","","","stimuli/HF02_AO.jpg","",""
"explore-choice","89","346502","0.0-89.0","p752831","A13WTEQ06V3B6D","3FVBZG9CLKK1M1GPZWGJX51HFG80HB","3VNXK88KKEORNGXGUJLHU1O89A5V9P","emotion","match","uniform","","","","","","","2922","344135.59999990463","347057.59999990463","[""stimuli/WM09_SC.jpg"",""stimuli/BF08_HE.jpg"",""stimuli/AM03_AO.jpg"",""stimuli/HF02_CC.jpg""]","stimuli/WM09_SC.jpg","stimuli/BF08_HE.jpg","stimuli/AM03_AO.jpg","stimuli/HF02_CC.jpg","pos3","stimuli/AM03_AO.jpg","AO","AM03","2","4.5","9","8","stimuli/stars_9.png","161.5","[""SC"",""HE"",""AO"",""CC""]","[""WM09"",""BF08"",""AM03"",""HF02""]","[2,7,9,4]","[4,6,8,2]","","",""
"show-reward","90","348508","0.0-90.0","p752831","A13WTEQ06V3B6D","3FVBZG9CLKK1M1GPZWGJX51HFG80HB","3VNXK88KKEORNGXGUJLHU1O89A5V9P","emotion","match","uniform","","","","","","","","347560.7000000477","349565.09999990463","","","","","","","","","","","","9","","stimuli/stars_9.png","161.5","","","","","stimuli/AM03_AO.jpg","",""
"explore-choice","91","350380","0.0-91.0","p752831","A13WTEQ06V3B6D","3FVBZG9CLKK1M1GPZWGJX51HFG80HB","3VNXK88KKEORNGXGUJLHU1O89A5V9P","emotion","match","uniform","","","","","","","1367.5","349566.09999990463","350933.59999990463","[""stimuli/HF02_CC.jpg"",""stimuli/BF08_AO.jpg"",""stimuli/WM09_SC.jpg"",""stimuli/AM03_HE.jpg""]","stimuli/HF02_CC.jpg","stimuli/BF08_AO.jpg","stimuli/WM09_SC.jpg","stimuli/AM03_HE.jpg","pos2","stimuli/BF08_AO.jpg","AO","BF08","1","3.5","7","8","stimuli/stars_7.png","165","[""CC"",""AO"",""SC"",""HE""]","[""HF02"",""BF08"",""WM09"",""AM03""]","[4,7,3,7]","[2,8,4,6]","","",""
"show-reward","92","352385","0.0-92.0","p752831","A13WTEQ06V3B6D","3FVBZG9CLKK1M1GPZWGJX51HFG80HB","3VNXK88KKEORNGXGUJLHU1O89A5V9P","emotion","match","uniform","","","","","","","","351438.7000000477","353441.59999990463","","","","","","","","","","","","7","","stimuli/stars_7.png","165","","","","","stimuli/BF08_AO.jpg","",""
"explore-choice","93","354395","0.0-93.0","p752831","A13WTEQ06V3B6D","3FVBZG9CLKK1M1GPZWGJX51HFG80HB","3VNXK88KKEORNGXGUJLHU1O89A5V9P","emotion","match","uniform","","","","","","","1508.1000001430511","353443.59999990463","354951.7000000477","[""stimuli/WM09_CC.jpg"",""stimuli/AM03_SC.jpg"",""stimuli/BF08_AO.jpg"",""stimuli/HF02_HE.jpg""]","stimuli/WM09_CC.jpg","stimuli/AM03_SC.jpg","stimuli/BF08_AO.jpg","stimuli/HF02_HE.jpg","pos3","stimuli/BF08_AO.jpg","AO","BF08","2","4.5","9","8","stimuli/stars_9.png","169.5","[""CC"",""SC"",""AO"",""HE""]","[""WM09"",""AM03"",""BF08"",""HF02""]","[1,2,9,5]","[2,4,8,6]","","",""
"show-reward","94","356401","0.0-94.0","p752831","A13WTEQ06V3B6D","3FVBZG9CLKK1M1GPZWGJX51HFG80HB","3VNXK88KKEORNGXGUJLHU1O89A5V9P","emotion","match","uniform","","","","","","","","355453.7999999523","357458","","","","","","","","","","","","9","","stimuli/stars_9.png","169.5","","","","","stimuli/BF08_AO.jpg","",""
"explore-choice","95","359224","0.0-95.0","p752831","A13WTEQ06V3B6D","3FVBZG9CLKK1M1GPZWGJX51HFG80HB","3VNXK88KKEORNGXGUJLHU1O89A5V9P","emotion","match","uniform","","","","","","","2320","357459.59999990463","359779.59999990463","[""stimuli/AM03_CC.jpg"",""stimuli/WM09_AO.jpg"",""stimuli/BF08_SC.jpg"",""stimuli/HF02_HE.jpg""]","stimuli/AM03_CC.jpg","stimuli/WM09_AO.jpg","stimuli/BF08_SC.jpg","stimuli/HF02_HE.jpg","pos2","stimuli/WM09_AO.jpg","AO","WM09","1","3.5","7","8","stimuli/stars_7.png","173","[""CC"",""AO"",""SC"",""HE""]","[""AM03"",""WM09"",""BF08"",""HF02""]","[3,7,5,5]","[2,8,4,6]","","",""
"show-reward","96","361230","0.0-96.0","p752831","A13WTEQ06V3B6D","3FVBZG9CLKK1M1GPZWGJX51HFG80HB","3VNXK88KKEORNGXGUJLHU1O89A5V9P","emotion","match","uniform","","","","","","","","360282.90000009537","362287.2999999523","","","","","","","","","","","","7","","stimuli/stars_7.png","173","","","","","stimuli/WM09_AO.jpg","",""
"explore-choice","97","364170","0.0-97.0","p752831","A13WTEQ06V3B6D","3FVBZG9CLKK1M1GPZWGJX51HFG80HB","3VNXK88KKEORNGXGUJLHU1O89A5V9P","emotion","match","uniform","","","","","","","2435.2000000476837","362289.7000000477","364724.90000009537","[""stimuli/BF08_CC.jpg"",""stimuli/AM03_HE.jpg"",""stimuli/WM09_AO.jpg"",""stimuli/HF02_SC.jpg""]","stimuli/BF08_CC.jpg","stimuli/AM03_HE.jpg","stimuli/WM09_AO.jpg","stimuli/HF02_SC.jpg","pos3","stimuli/WM09_AO.jpg","AO","WM09","2","3.5","7","8","stimuli/stars_7.png","176.5","[""CC"",""HE"",""AO"",""SC""]","[""BF08"",""AM03"",""WM09"",""HF02""]","[3,8,7,5]","[2,6,8,4]","","",""
"show-reward","98","366177","0.0-98.0","p752831","A13WTEQ06V3B6D","3FVBZG9CLKK1M1GPZWGJX51HFG80HB","3VNXK88KKEORNGXGUJLHU1O89A5V9P","emotion","match","uniform","","","","","","","","365229.09999990463","367233.40000009537","","","","","","","","","","","","7","","stimuli/stars_7.png","176.5","","","","","stimuli/WM09_AO.jpg","",""
"explore-choice","99","368095","0.0-99.0","p752831","A13WTEQ06V3B6D","3FVBZG9CLKK1M1GPZWGJX51HFG80HB","3VNXK88KKEORNGXGUJLHU1O89A5V9P","emotion","match","uniform","","","","","","","1414.8000001907349","367235.59999990463","368650.40000009537","[""stimuli/WM09_SC.jpg"",""stimuli/HF02_AO.jpg"",""stimuli/AM03_CC.jpg"",""stimuli/BF08_HE.jpg""]","stimuli/WM09_SC.jpg","stimuli/HF02_AO.jpg","stimuli/AM03_CC.jpg","stimuli/BF08_HE.jpg","pos2","stimuli/HF02_AO.jpg","AO","HF02","1","5","10","8","stimuli/stars_10.png","181.5","[""SC"",""AO"",""CC"",""HE""]","[""WM09"",""HF02"",""AM03"",""BF08""]","[4,10,2,4]","[4,8,2,6]","","",""
"show-reward","100","370098","0.0-100.0","p752831","A13WTEQ06V3B6D","3FVBZG9CLKK1M1GPZWGJX51HFG80HB","3VNXK88KKEORNGXGUJLHU1O89A5V9P","emotion","match","uniform","","","","","","","","369153","371155.5","","","","","","","","","","","","10","","stimuli/stars_10.png","181.5","","","","","stimuli/HF02_AO.jpg","",""
"explore-choice","101","372574","0.0-101.0","p752831","A13WTEQ06V3B6D","3FVBZG9CLKK1M1GPZWGJX51HFG80HB","3VNXK88KKEORNGXGUJLHU1O89A5V9P","emotion","match","uniform","","","","","","","1974.5","371156.2000000477","373130.7000000477","[""stimuli/HF02_HE.jpg"",""stimuli/WM09_AO.jpg"",""stimuli/BF08_CC.jpg"",""stimuli/AM03_SC.jpg""]","stimuli/HF02_HE.jpg","stimuli/WM09_AO.jpg","stimuli/BF08_CC.jpg","stimuli/AM03_SC.jpg","pos2","stimuli/WM09_AO.jpg","AO","WM09","1","5","10","8","stimuli/stars_10.png","186.5","[""HE"",""AO"",""CC"",""SC""]","[""HF02"",""WM09"",""BF08"",""AM03""]","[6,10,4,3]","[6,8,2,4]","","",""
"show-reward","102","374576","0.0-102.0","p752831","A13WTEQ06V3B6D","3FVBZG9CLKK1M1GPZWGJX51HFG80HB","3VNXK88KKEORNGXGUJLHU1O89A5V9P","emotion","match","uniform","","","","","","","","373631.5","375633.09999990463","","","","","","","","","","","","10","","stimuli/stars_10.png","186.5","","","","","stimuli/WM09_AO.jpg","",""
"explore-choice","103","378587","0.0-103.0","p752831","A13WTEQ06V3B6D","3FVBZG9CLKK1M1GPZWGJX51HFG80HB","3VNXK88KKEORNGXGUJLHU1O89A5V9P","emotion","match","uniform","","","","","","","3510","375633.7000000477","379143.7000000477","[""stimuli/HM10_FO.jpg"",""stimuli/AF09_DO.jpg"",""stimuli/HM09_HO.jpg"",""stimuli/BM04_SUR.jpg""]","stimuli/HM10_FO.jpg","stimuli/AF09_DO.jpg","stimuli/HM09_HO.jpg","stimuli/BM04_SUR.jpg","pos2","stimuli/AF09_DO.jpg","DO","AF09","1","3","6","4","stimuli/stars_6.png","189.5","[""FO"",""DO"",""HO"",""SUR""]","[""HM10"",""AF09"",""HM09"",""BM04""]","[10,6,5,2]","[8,4,6,2]","","",""
"show-reward","104","380595","0.0-104.0","p752831","A13WTEQ06V3B6D","3FVBZG9CLKK1M1GPZWGJX51HFG80HB","3VNXK88KKEORNGXGUJLHU1O89A5V9P","emotion","match","uniform","","","","","","","","379646.90000009537","381652","","","","","","","","","","","","6","","stimuli/stars_6.png","189.5","","","","","stimuli/AF09_DO.jpg","",""
"explore-choice","105","384200","0.0-105.0","p752831","A13WTEQ06V3B6D","3FVBZG9CLKK1M1GPZWGJX51HFG80HB","3VNXK88KKEORNGXGUJLHU1O89A5V9P","emotion","match","uniform","","","","","","","3100.300000190735","381654.59999990463","384754.90000009537","[""stimuli/HM10_HO.jpg"",""stimuli/HM09_SUR.jpg"",""stimuli/BM04_DO.jpg"",""stimuli/AF09_FO.jpg""]","stimuli/HM10_HO.jpg","stimuli/HM09_SUR.jpg","stimuli/BM04_DO.jpg","stimuli/AF09_FO.jpg","pos3","stimuli/BM04_DO.jpg","DO","BM04","2","2","4","4","stimuli/stars_4.png","191.5","[""HO"",""SUR"",""DO"",""FO""]","[""HM10"",""HM09"",""BM04"",""AF09""]","[7,4,4,10]","[6,2,4,8]","","",""
"show-reward","106","386206","0.0-106.0","p752831","A13WTEQ06V3B6D","3FVBZG9CLKK1M1GPZWGJX51HFG80HB","3VNXK88KKEORNGXGUJLHU1O89A5V9P","emotion","match","uniform","","","","","","","","385259","387262.7999999523","","","","","","","","","","","","4","","stimuli/stars_4.png","191.5","","","","","stimuli/BM04_DO.jpg","",""
"explore-choice","107","388532","0.0-107.0","p752831","A13WTEQ06V3B6D","3FVBZG9CLKK1M1GPZWGJX51HFG80HB","3VNXK88KKEORNGXGUJLHU1O89A5V9P","emotion","match","uniform","","","","","","","1822.7999999523163","387264.7999999523","389087.59999990463","[""stimuli/HM09_DO.jpg"",""stimuli/AF09_SUR.jpg"",""stimuli/HM10_HO.jpg"",""stimuli/BM04_FO.jpg""]","stimuli/HM09_DO.jpg","stimuli/AF09_SUR.jpg","stimuli/HM10_HO.jpg","stimuli/BM04_FO.jpg","pos3","stimuli/HM10_HO.jpg","HO","HM10","2","4","8","6","stimuli/stars_8.png","195.5","[""DO"",""SUR"",""HO"",""FO""]","[""HM09"",""AF09"",""HM10"",""BM04""]","[3,1,8,7]","[4,2,6,8]","","",""
"show-reward","108","390539","0.0-108.0","p752831","A13WTEQ06V3B6D","3FVBZG9CLKK1M1GPZWGJX51HFG80HB","3VNXK88KKEORNGXGUJLHU1O89A5V9P","emotion","match","uniform","","","","","","","","389591.59999990463","391595.59999990463","","","","","","","","","","","","8","","stimuli/stars_8.png","195.5","","","","","stimuli/HM10_HO.jpg","",""
"explore-choice","109","393269","0.0-109.0","p752831","A13WTEQ06V3B6D","3FVBZG9CLKK1M1GPZWGJX51HFG80HB","3VNXK88KKEORNGXGUJLHU1O89A5V9P","emotion","match","uniform","","","","","","","2226.399999856949","391597.7000000477","393824.09999990463","[""stimuli/HM10_SUR.jpg"",""stimuli/HM09_HO.jpg"",""stimuli/AF09_FO.jpg"",""stimuli/BM04_DO.jpg""]","stimuli/HM10_SUR.jpg","stimuli/HM09_HO.jpg","stimuli/AF09_FO.jpg","stimuli/BM04_DO.jpg","pos1","stimuli/HM10_SUR.jpg","SUR","HM10","0","1.5","3","2","stimuli/stars_3.png","197","[""SUR"",""HO"",""FO"",""DO""]","[""HM10"",""HM09"",""AF09"",""BM04""]","[3,6,7,6]","[2,6,8,4]","","",""
"show-reward","110","395276","0.0-110.0","p752831","A13WTEQ06V3B6D","3FVBZG9CLKK1M1GPZWGJX51HFG80HB","3VNXK88KKEORNGXGUJLHU1O89A5V9P","emotion","match","uniform","","","","","","","","394327.7999999523","396332.90000009537","","","","","","","","","","","","3","","stimuli/stars_3.png","197","","","","","stimuli/HM10_SUR.jpg","",""
"explore-choice","111","397176","0.0-111.0","p752831","A13WTEQ06V3B6D","3FVBZG9CLKK1M1GPZWGJX51HFG80HB","3VNXK88KKEORNGXGUJLHU1O89A5V9P","emotion","match","uniform","","","","","","","1397.1000001430511","396334.7999999523","397731.90000009537","[""stimuli/AF09_HO.jpg"",""stimuli/HM10_FO.jpg"",""stimuli/BM04_DO.jpg"",""stimuli/HM09_SUR.jpg""]","stimuli/AF09_HO.jpg","stimuli/HM10_FO.jpg","stimuli/BM04_DO.jpg","stimuli/HM09_SUR.jpg","pos1","stimuli/AF09_HO.jpg","HO","AF09","0","4","8","6","stimuli/stars_8.png","201","[""HO"",""FO"",""DO"",""SUR""]","[""AF09"",""HM10"",""BM04"",""HM09""]","[8,10,2,2]","[6,8,4,2]","","",""
"show-reward","112","399183","0.0-112.0","p752831","A13WTEQ06V3B6D","3FVBZG9CLKK1M1GPZWGJX51HFG80HB","3VNXK88KKEORNGXGUJLHU1O89A5V9P","emotion","match","uniform","","","","","","","","398234.90000009537","400239","","","","","","","","","","","","8","","stimuli/stars_8.png","201","","","","","stimuli/AF09_HO.jpg","",""
"explore-choice","113","401423","0.0-113.0","p752831","A13WTEQ06V3B6D","3FVBZG9CLKK1M1GPZWGJX51HFG80HB","3VNXK88KKEORNGXGUJLHU1O89A5V9P","emotion","match","uniform","","","","","","","1737.7000000476837","400241.09999990463","401978.7999999523","[""stimuli/BM04_FO.jpg"",""stimuli/HM10_SUR.jpg"",""stimuli/AF09_DO.jpg"",""stimuli/HM09_HO.jpg""]","stimuli/BM04_FO.jpg","stimuli/HM10_SUR.jpg","stimuli/AF09_DO.jpg","stimuli/HM09_HO.jpg","pos3","stimuli/AF09_DO.jpg","DO","AF09","2","1.5","3","4","stimuli/stars_3.png","202.5","[""FO"",""SUR"",""DO"",""HO""]","[""BM04"",""HM10"",""AF09"",""HM09""]","[8,3,3,6]","[8,2,4,6]","","",""
"show-reward","114","403426","0.0-114.0","p752831","A13WTEQ06V3B6D","3FVBZG9CLKK1M1GPZWGJX51HFG80HB","3VNXK88KKEORNGXGUJLHU1O89A5V9P","emotion","match","uniform","","","","","","","","402479.7999999523","404482","","","","","","","","","","","","3","","stimuli/stars_3.png","202.5","","","","","stimuli/AF09_DO.jpg","",""
"explore-choice","115","405069","0.0-115.0","p752831","A13WTEQ06V3B6D","3FVBZG9CLKK1M1GPZWGJX51HFG80HB","3VNXK88KKEORNGXGUJLHU1O89A5V9P","emotion","match","uniform","","","","","","","1141.7000000476837","404484","405625.7000000477","[""stimuli/HM09_DO.jpg"",""stimuli/AF09_FO.jpg"",""stimuli/HM10_HO.jpg"",""stimuli/BM04_SUR.jpg""]","stimuli/HM09_DO.jpg","stimuli/AF09_FO.jpg","stimuli/HM10_HO.jpg","stimuli/BM04_SUR.jpg","pos3","stimuli/HM10_HO.jpg","HO","HM10","2","3.5","7","6","stimuli/stars_7.png","206","[""DO"",""FO"",""HO"",""SUR""]","[""HM09"",""AF09"",""HM10"",""BM04""]","[5,9,7,4]","[4,8,6,2]","","",""
"show-reward","116","407073","0.0-116.0","p752831","A13WTEQ06V3B6D","3FVBZG9CLKK1M1GPZWGJX51HFG80HB","3VNXK88KKEORNGXGUJLHU1O89A5V9P","emotion","match","uniform","","","","","","","","406126.59999990463","408129.2999999523","","","","","","","","","","","","7","","stimuli/stars_7.png","206","","","","","stimuli/HM10_HO.jpg","",""
"explore-choice","117","409723","0.0-117.0","p752831","A13WTEQ06V3B6D","3FVBZG9CLKK1M1GPZWGJX51HFG80HB","3VNXK88KKEORNGXGUJLHU1O89A5V9P","emotion","match","uniform","","","","","","","2147","408131.09999990463","410278.09999990463","[""stimuli/HM09_SUR.jpg"",""stimuli/AF09_DO.jpg"",""stimuli/BM04_FO.jpg"",""stimuli/HM10_HO.jpg""]","stimuli/HM09_SUR.jpg","stimuli/AF09_DO.jpg","stimuli/BM04_FO.jpg","stimuli/HM10_HO.jpg","pos4","stimuli/HM10_HO.jpg","HO","HM10","3","2.5","5","6","stimuli/stars_5.png","208.5","[""SUR"",""DO"",""FO"",""HO""]","[""HM09"",""AF09"",""BM04"",""HM10""]","[1,6,8,5]","[2,4,8,6]","","",""
"show-reward","118","411730","0.0-118.0","p752831","A13WTEQ06V3B6D","3FVBZG9CLKK1M1GPZWGJX51HFG80HB","3VNXK88KKEORNGXGUJLHU1O89A5V9P","emotion","match","uniform","","","","","","","","410781.7999999523","412786.40000009537","","","","","","","","","","","","5","","stimuli/stars_5.png","208.5","","","","","stimuli/HM10_HO.jpg","",""
"explore-choice","119","413174","0.0-119.0","p752831","A13WTEQ06V3B6D","3FVBZG9CLKK1M1GPZWGJX51HFG80HB","3VNXK88KKEORNGXGUJLHU1O89A5V9P","emotion","match","uniform","","","","","","","940.9000000953674","412788.59999990463","413729.5","[""stimuli/HM10_HO.jpg"",""stimuli/HM09_FO.jpg"",""stimuli/BM04_SUR.jpg"",""stimuli/AF09_DO.jpg""]","stimuli/HM10_HO.jpg","stimuli/HM09_FO.jpg","stimuli/BM04_SUR.jpg","stimuli/AF09_DO.jpg","pos1","stimuli/HM10_HO.jpg","HO","HM10","0","3.5","7","6","stimuli/stars_7.png","212","[""HO"",""FO"",""SUR"",""DO""]","[""HM10"",""HM09"",""BM04"",""AF09""]","[7,8,1,6]","[6,8,2,4]","","",""
"show-reward","120","415186","0.0-120.0","p752831","A13WTEQ06V3B6D","3FVBZG9CLKK1M1GPZWGJX51HFG80HB","3VNXK88KKEORNGXGUJLHU1O89A5V9P","emotion","match","uniform","","","","","","","","414231.90000009537","416242","","","","","","","","","","","","7","","stimuli/stars_7.png","212","","","","","stimuli/HM10_HO.jpg","",""
"explore-choice","121","418427","0.0-121.0","p752831","A13WTEQ06V3B6D","3FVBZG9CLKK1M1GPZWGJX51HFG80HB","3VNXK88KKEORNGXGUJLHU1O89A5V9P","emotion","match","uniform","","","","","","","2739.399999856949","416244.2000000477","418983.59999990463","[""stimuli/AF09_HO.jpg"",""stimuli/HM10_DO.jpg"",""stimuli/BM04_SUR.jpg"",""stimuli/HM09_FO.jpg""]","stimuli/AF09_HO.jpg","stimuli/HM10_DO.jpg","stimuli/BM04_SUR.jpg","stimuli/HM09_FO.jpg","pos1","stimuli/AF09_HO.jpg","HO","AF09","0","3.5","7","6","stimuli/stars_7.png","215.5","[""HO"",""DO"",""SUR"",""FO""]","[""AF09"",""HM10"",""BM04"",""HM09""]","[7,3,1,9]","[6,4,2,8]","","",""
"show-reward","122","420431","0.0-122.0","p752831","A13WTEQ06V3B6D","3FVBZG9CLKK1M1GPZWGJX51HFG80HB","3VNXK88KKEORNGXGUJLHU1O89A5V9P","emotion","match","uniform","","","","","","","","419484.7999999523","421487.40000009537","","","","","","","","","","","","7","","stimuli/stars_7.png","215.5","","","","","stimuli/AF09_HO.jpg","",""
"explore-choice","123","422445","0.0-123.0","p752831","A13WTEQ06V3B6D","3FVBZG9CLKK1M1GPZWGJX51HFG80HB","3VNXK88KKEORNGXGUJLHU1O89A5V9P","emotion","match","uniform","","","","","","","1510.7000000476837","421489.7000000477","423000.40000009537","[""stimuli/AF09_SUR.jpg"",""stimuli/BM04_HO.jpg"",""stimuli/HM09_DO.jpg"",""stimuli/HM10_FO.jpg""]","stimuli/AF09_SUR.jpg","stimuli/BM04_HO.jpg","stimuli/HM09_DO.jpg","stimuli/HM10_FO.jpg","pos2","stimuli/BM04_HO.jpg","HO","BM04","1","4","8","6","stimuli/stars_8.png","219.5","[""SUR"",""HO"",""DO"",""FO""]","[""AF09"",""BM04"",""HM09"",""HM10""]","[1,8,3,8]","[2,6,4,8]","","",""
"show-reward","124","424453","0.0-124.0","p752831","A13WTEQ06V3B6D","3FVBZG9CLKK1M1GPZWGJX51HFG80HB","3VNXK88KKEORNGXGUJLHU1O89A5V9P","emotion","match","uniform","","","","","","","","423503.40000009537","425508.59999990463","","","","","","","","","","","","8","","stimuli/stars_8.png","219.5","","","","","stimuli/BM04_HO.jpg","",""
"explore-choice","125","426593","0.0-125.0","p752831","A13WTEQ06V3B6D","3FVBZG9CLKK1M1GPZWGJX51HFG80HB","3VNXK88KKEORNGXGUJLHU1O89A5V9P","emotion","match","uniform","","","","","","","1636.6000001430511","425510.7999999523","427147.40000009537","[""stimuli/HM09_DO.jpg"",""stimuli/AF09_HO.jpg"",""stimuli/BM04_SUR.jpg"",""stimuli/HM10_FO.jpg""]","stimuli/HM09_DO.jpg","stimuli/AF09_HO.jpg","stimuli/BM04_SUR.jpg","stimuli/HM10_FO.jpg","pos2","stimuli/AF09_HO.jpg","HO","AF09","1","3","6","6","stimuli/stars_6.png","222.5","[""DO"",""HO"",""SUR"",""FO""]","[""HM09"",""AF09"",""BM04"",""HM10""]","[6,6,4,8]","[4,6,2,8]","","",""
"show-reward","126","428600","0.0-126.0","p752831","A13WTEQ06V3B6D","3FVBZG9CLKK1M1GPZWGJX51HFG80HB","3VNXK88KKEORNGXGUJLHU1O89A5V9P","emotion","match","uniform","","","","","","","","427651.09999990463","429655.90000009537","","","","","","","","","","","","6","","stimuli/stars_6.png","222.5","","","","","stimuli/AF09_HO.jpg","",""
"explore-choice","127","430379","0.0-127.0","p752831","A13WTEQ06V3B6D","3FVBZG9CLKK1M1GPZWGJX51HFG80HB","3VNXK88KKEORNGXGUJLHU1O89A5V9P","emotion","match","uniform","","","","","","","1275.6000001430511","429658.09999990463","430933.7000000477","[""stimuli/BM04_HO.jpg"",""stimuli/HM09_SUR.jpg"",""stimuli/AF09_DO.jpg"",""stimuli/HM10_FO.jpg""]","stimuli/BM04_HO.jpg","stimuli/HM09_SUR.jpg","stimuli/AF09_DO.jpg","stimuli/HM10_FO.jpg","pos1","stimuli/BM04_HO.jpg","HO","BM04","0","3.5","7","6","stimuli/stars_7.png","226","[""HO"",""SUR"",""DO"",""FO""]","[""BM04"",""HM09"",""AF09"",""HM10""]","[7,3,5,8]","[6,2,4,8]","","",""
"show-reward","128","432386","0.0-128.0","p752831","A13WTEQ06V3B6D","3FVBZG9CLKK1M1GPZWGJX51HFG80HB","3VNXK88KKEORNGXGUJLHU1O89A5V9P","emotion","match","uniform","","","","","","","","431437.2999999523","433442.5","","","","","","","","","","","","7","","stimuli/stars_7.png","226","","","","","stimuli/BM04_HO.jpg","",""
"explore-choice","129","433838","0.0-129.0","p752831","A13WTEQ06V3B6D","3FVBZG9CLKK1M1GPZWGJX51HFG80HB","3VNXK88KKEORNGXGUJLHU1O89A5V9P","emotion","match","uniform","","","","","","","948.4000000953674","433444.7999999523","434393.2000000477","[""stimuli/HM09_HO.jpg"",""stimuli/HM10_DO.jpg"",""stimuli/AF09_FO.jpg"",""stimuli/BM04_SUR.jpg""]","stimuli/HM09_HO.jpg","stimuli/HM10_DO.jpg","stimuli/AF09_FO.jpg","stimuli/BM04_SUR.jpg","pos1","stimuli/HM09_HO.jpg","HO","HM09","0","4","8","6","stimuli/stars_8.png","230","[""HO"",""DO"",""FO"",""SUR""]","[""HM09"",""HM10"",""AF09"",""BM04""]","[8,4,8,2]","[6,4,8,2]","","",""
"show-reward","130","435842","0.0-130.0","p752831","A13WTEQ06V3B6D","3FVBZG9CLKK1M1GPZWGJX51HFG80HB","3VNXK88KKEORNGXGUJLHU1O89A5V9P","emotion","match","uniform","","","","","","","","434895.2000000477","436897.7000000477","","","","","","","","","","","","8","","stimuli/stars_8.png","230","","","","","stimuli/HM09_HO.jpg","",""
"explore-choice","131","437337","0.0-131.0","p752831","A13WTEQ06V3B6D","3FVBZG9CLKK1M1GPZWGJX51HFG80HB","3VNXK88KKEORNGXGUJLHU1O89A5V9P","emotion","match","uniform","","","","","","","992","436899.90000009537","437891.90000009537","[""stimuli/BM04_HO.jpg"",""stimuli/AF09_DO.jpg"",""stimuli/HM10_SUR.jpg"",""stimuli/HM09_FO.jpg""]","stimuli/BM04_HO.jpg","stimuli/AF09_DO.jpg","stimuli/HM10_SUR.jpg","stimuli/HM09_FO.jpg","pos1","stimuli/BM04_HO.jpg","HO","BM04","0","3","6","6","stimuli/stars_6.png","233","[""HO"",""DO"",""SUR"",""FO""]","[""BM04"",""AF09"",""HM10"",""HM09""]","[6,4,2,8]","[6,4,2,8]","","",""
"show-reward","132","439341","0.0-132.0","p752831","A13WTEQ06V3B6D","3FVBZG9CLKK1M1GPZWGJX51HFG80HB","3VNXK88KKEORNGXGUJLHU1O89A5V9P","emotion","match","uniform","","","","","","","","438394.09999990463","440396.90000009537","","","","","","","","","","","","6","","stimuli/stars_6.png","233","","","","","stimuli/BM04_HO.jpg","",""
"explore-choice","133","441716","0.0-133.0","p752831","A13WTEQ06V3B6D","3FVBZG9CLKK1M1GPZWGJX51HFG80HB","3VNXK88KKEORNGXGUJLHU1O89A5V9P","emotion","match","uniform","","","","","","","1872.2000000476837","440398.7000000477","442270.90000009537","[""stimuli/HM10_SUR.jpg"",""stimuli/HM09_DO.jpg"",""stimuli/AF09_HO.jpg"",""stimuli/BM04_FO.jpg""]","stimuli/HM10_SUR.jpg","stimuli/HM09_DO.jpg","stimuli/AF09_HO.jpg","stimuli/BM04_FO.jpg","pos3","stimuli/AF09_HO.jpg","HO","AF09","2","3.5","7","6","stimuli/stars_7.png","236.5","[""SUR"",""DO"",""HO"",""FO""]","[""HM10"",""HM09"",""AF09"",""BM04""]","[0,4,7,6]","[2,4,6,8]","","",""
"show-reward","134","443722","0.0-134.0","p752831","A13WTEQ06V3B6D","3FVBZG9CLKK1M1GPZWGJX51HFG80HB","3VNXK88KKEORNGXGUJLHU1O89A5V9P","emotion","match","uniform","","","","","","","","442774.5","444778.2000000477","","","","","","","","","","","","7","","stimuli/stars_7.png","236.5","","","","","stimuli/AF09_HO.jpg","",""
"explore-choice","135","445656","0.0-135.0","p752831","A13WTEQ06V3B6D","3FVBZG9CLKK1M1GPZWGJX51HFG80HB","3VNXK88KKEORNGXGUJLHU1O89A5V9P","emotion","match","uniform","","","","","","","1431.0999999046326","444779.7000000477","446210.7999999523","[""stimuli/BM04_FO.jpg"",""stimuli/HM09_SUR.jpg"",""stimuli/AF09_HO.jpg"",""stimuli/HM10_DO.jpg""]","stimuli/BM04_FO.jpg","stimuli/HM09_SUR.jpg","stimuli/AF09_HO.jpg","stimuli/HM10_DO.jpg","pos3","stimuli/AF09_HO.jpg","HO","AF09","2","2.5","5","6","stimuli/stars_5.png","239","[""FO"",""SUR"",""HO"",""DO""]","[""BM04"",""HM09"",""AF09"",""HM10""]","[10,0,5,3]","[8,2,6,4]","","",""
"show-reward","136","447663","0.0-136.0","p752831","A13WTEQ06V3B6D","3FVBZG9CLKK1M1GPZWGJX51HFG80HB","3VNXK88KKEORNGXGUJLHU1O89A5V9P","emotion","match","uniform","","","","","","","","446714.40000009537","448719.2000000477","","","","","","","","","","","","5","","stimuli/stars_5.png","239","","","","","stimuli/AF09_HO.jpg","",""
"explore-choice","137","450114","0.0-137.0","p752831","A13WTEQ06V3B6D","3FVBZG9CLKK1M1GPZWGJX51HFG80HB","3VNXK88KKEORNGXGUJLHU1O89A5V9P","emotion","match","uniform","","","","","","","1949.5","448720.2999999523","450669.7999999523","[""stimuli/HM10_SUR.jpg"",""stimuli/BM04_HO.jpg"",""stimuli/AF09_FO.jpg"",""stimuli/HM09_DO.jpg""]","stimuli/HM10_SUR.jpg","stimuli/BM04_HO.jpg","stimuli/AF09_FO.jpg","stimuli/HM09_DO.jpg","pos2","stimuli/BM04_HO.jpg","HO","BM04","1","2","4","6","stimuli/stars_4.png","241","[""SUR"",""HO"",""FO"",""DO""]","[""HM10"",""BM04"",""AF09"",""HM09""]","[2,4,6,4]","[2,6,8,4]","","",""
"show-reward","138","452119","0.0-138.0","p752831","A13WTEQ06V3B6D","3FVBZG9CLKK1M1GPZWGJX51HFG80HB","3VNXK88KKEORNGXGUJLHU1O89A5V9P","emotion","match","uniform","","","","","","","","451172","453175.40000009537","","","","","","","","","","","","4","","stimuli/stars_4.png","241","","","","","stimuli/BM04_HO.jpg","",""
"explore-choice","139","455143","0.0-139.0","p752831","A13WTEQ06V3B6D","3FVBZG9CLKK1M1GPZWGJX51HFG80HB","3VNXK88KKEORNGXGUJLHU1O89A5V9P","emotion","match","uniform","","","","","","","2522.2000000476837","453177","455699.2000000477","[""stimuli/BM04_DO.jpg"",""stimuli/HM10_HO.jpg"",""stimuli/AF09_SUR.jpg"",""stimuli/HM09_FO.jpg""]","stimuli/BM04_DO.jpg","stimuli/HM10_HO.jpg","stimuli/AF09_SUR.jpg","stimuli/HM09_FO.jpg","pos2","stimuli/HM10_HO.jpg","HO","HM10","1","2","4","6","stimuli/stars_4.png","243","[""DO"",""HO"",""SUR"",""FO""]","[""BM04"",""HM10"",""AF09"",""HM09""]","[5,4,3,7]","[4,6,2,8]","","",""
"show-reward","140","457148","0.0-140.0","p752831","A13WTEQ06V3B6D","3FVBZG9CLKK1M1GPZWGJX51HFG80HB","3VNXK88KKEORNGXGUJLHU1O89A5V9P","emotion","match","uniform","","","","","","","","456201.09999990463","458204.40000009537","","","","","","","","","","","","4","","stimuli/stars_4.png","243","","","","","stimuli/HM10_HO.jpg","",""
"explore-choice","141","459136","0.0-141.0","p752831","A13WTEQ06V3B6D","3FVBZG9CLKK1M1GPZWGJX51HFG80HB","3VNXK88KKEORNGXGUJLHU1O89A5V9P","emotion","match","uniform","","","","","","","1485.5","458206.09999990463","459691.59999990463","[""stimuli/HM09_HO.jpg"",""stimuli/AF09_SUR.jpg"",""stimuli/BM04_FO.jpg"",""stimuli/HM10_DO.jpg""]","stimuli/HM09_HO.jpg","stimuli/AF09_SUR.jpg","stimuli/BM04_FO.jpg","stimuli/HM10_DO.jpg","pos3","stimuli/BM04_FO.jpg","FO","BM04","2","3.5","7","8","stimuli/stars_7.png","246.5","[""HO"",""SUR"",""FO"",""DO""]","[""HM09"",""AF09"",""BM04"",""HM10""]","[7,0,7,6]","[6,2,8,4]","","",""
"show-reward","142","461140","0.0-142.0","p752831","A13WTEQ06V3B6D","3FVBZG9CLKK1M1GPZWGJX51HFG80HB","3VNXK88KKEORNGXGUJLHU1O89A5V9P","emotion","match","uniform","","","","","","","","460193.40000009537","462196.59999990463","","","","","","","","","","","","7","","stimuli/stars_7.png","246.5","","","","","stimuli/BM04_FO.jpg","",""
"explore-choice","143","463029","0.0-143.0","p752831","A13WTEQ06V3B6D","3FVBZG9CLKK1M1GPZWGJX51HFG80HB","3VNXK88KKEORNGXGUJLHU1O89A5V9P","emotion","match","uniform","","","","","","","1385.7000000476837","462198","463583.7000000477","[""stimuli/BM04_HO.jpg"",""stimuli/HM09_FO.jpg"",""stimuli/HM10_DO.jpg"",""stimuli/AF09_SUR.jpg""]","stimuli/BM04_HO.jpg","stimuli/HM09_FO.jpg","stimuli/HM10_DO.jpg","stimuli/AF09_SUR.jpg","pos2","stimuli/HM09_FO.jpg","FO","HM09","1","4.5","9","8","stimuli/stars_9.png","251","[""HO"",""FO"",""DO"",""SUR""]","[""BM04"",""HM09"",""HM10"",""AF09""]","[7,9,4,3]","[6,8,4,2]","","",""
"show-reward","144","465035","0.0-144.0","p752831","A13WTEQ06V3B6D","3FVBZG9CLKK1M1GPZWGJX51HFG80HB","3VNXK88KKEORNGXGUJLHU1O89A5V9P","emotion","match","uniform","","","","","","","","464086.40000009537","466091.09999990463","","","","","","","","","","","","9","","stimuli/stars_9.png","251","","","","","stimuli/HM09_FO.jpg","",""
"explore-choice","145","467479","0.0-145.0","p752831","A13WTEQ06V3B6D","3FVBZG9CLKK1M1GPZWGJX51HFG80HB","3VNXK88KKEORNGXGUJLHU1O89A5V9P","emotion","match","uniform","","","","","","","1940.5999999046326","466093.2000000477","468033.7999999523","[""stimuli/BM04_DO.jpg"",""stimuli/AF09_HO.jpg"",""stimuli/HM09_FO.jpg"",""stimuli/HM10_SUR.jpg""]","stimuli/BM04_DO.jpg","stimuli/AF09_HO.jpg","stimuli/HM09_FO.jpg","stimuli/HM10_SUR.jpg","pos3","stimuli/HM09_FO.jpg","FO","HM09","2","4","8","8","stimuli/stars_8.png","255","[""DO"",""HO"",""FO"",""SUR""]","[""BM04"",""AF09"",""HM09"",""HM10""]","[4,7,8,0]","[4,6,8,2]","","",""
"show-reward","146","469485","0.0-146.0","p752831","A13WTEQ06V3B6D","3FVBZG9CLKK1M1GPZWGJX51HFG80HB","3VNXK88KKEORNGXGUJLHU1O89A5V9P","emotion","match","uniform","","","","","","","","468536.59999990463","470540.90000009537","","","","","","","","","","","","8","","stimuli/stars_8.png","255","","","","","stimuli/HM09_FO.jpg","",""
"explore-choice","147","472222","0.0-147.0","p752831","A13WTEQ06V3B6D","3FVBZG9CLKK1M1GPZWGJX51HFG80HB","3VNXK88KKEORNGXGUJLHU1O89A5V9P","emotion","match","uniform","","","","","","","2235.7999999523163","470542.2000000477","472778","[""stimuli/HM10_FO.jpg"",""stimuli/AF09_SUR.jpg"",""stimuli/HM09_HO.jpg"",""stimuli/BM04_DO.jpg""]","stimuli/HM10_FO.jpg","stimuli/AF09_SUR.jpg","stimuli/HM09_HO.jpg","stimuli/BM04_DO.jpg","pos1","stimuli/HM10_FO.jpg","FO","HM10","0","4.5","9","8","stimuli/stars_9.png","259.5","[""FO"",""SUR"",""HO"",""DO""]","[""HM10"",""AF09"",""HM09"",""BM04""]","[9,0,8,3]","[8,2,6,4]","","",""
"show-reward","148","474225","0.0-148.0","p752831","A13WTEQ06V3B6D","3FVBZG9CLKK1M1GPZWGJX51HFG80HB","3VNXK88KKEORNGXGUJLHU1O89A5V9P","emotion","match","uniform","","","","","","","","473278.7999999523","475281.2999999523","","","","","","","","","","","","9","","stimuli/stars_9.png","259.5","","","","","stimuli/HM10_FO.jpg","",""
"explore-choice","149","477082","0.0-149.0","p752831","A13WTEQ06V3B6D","3FVBZG9CLKK1M1GPZWGJX51HFG80HB","3VNXK88KKEORNGXGUJLHU1O89A5V9P","emotion","match","uniform","","","","","","","2354.300000190735","475283.09999990463","477637.40000009537","[""stimuli/BM04_HO.jpg"",""stimuli/HM10_DO.jpg"",""stimuli/HM09_SUR.jpg"",""stimuli/AF09_FO.jpg""]","stimuli/BM04_HO.jpg","stimuli/HM10_DO.jpg","stimuli/HM09_SUR.jpg","stimuli/AF09_FO.jpg","pos4","stimuli/AF09_FO.jpg","FO","AF09","3","4","8","8","stimuli/stars_8.png","263.5","[""HO"",""DO"",""SUR"",""FO""]","[""BM04"",""HM10"",""HM09"",""AF09""]","[8,3,0,8]","[6,4,2,8]","","",""
"show-reward","150","479090","0.0-150.0","p752831","A13WTEQ06V3B6D","3FVBZG9CLKK1M1GPZWGJX51HFG80HB","3VNXK88KKEORNGXGUJLHU1O89A5V9P","emotion","match","uniform","","","","","","","","478140","480145.59999990463","","","","","","","","","","","","8","","stimuli/stars_8.png","263.5","","","","","stimuli/AF09_FO.jpg","",""
"explore-choice","151","483221","0.0-151.0","p752831","A13WTEQ06V3B6D","3FVBZG9CLKK1M1GPZWGJX51HFG80HB","3VNXK88KKEORNGXGUJLHU1O89A5V9P","emotion","match","uniform","","","","","","","3627.899999856949","480147.7000000477","483775.59999990463","[""stimuli/AF09_FO.jpg"",""stimuli/HM09_SUR.jpg"",""stimuli/BM04_HO.jpg"",""stimuli/HM10_DO.jpg""]","stimuli/AF09_FO.jpg","stimuli/HM09_SUR.jpg","stimuli/BM04_HO.jpg","stimuli/HM10_DO.jpg","pos2","stimuli/HM09_SUR.jpg","SUR","HM09","1","0","0","2","stimuli/stars_0.png","263.5","[""FO"",""SUR"",""HO"",""DO""]","[""AF09"",""HM09"",""BM04"",""HM10""]","[8,0,8,3]","[8,2,6,4]","","",""
"show-reward","152","485228","0.0-152.0","p752831","A13WTEQ06V3B6D","3FVBZG9CLKK1M1GPZWGJX51HFG80HB","3VNXK88KKEORNGXGUJLHU1O89A5V9P","emotion","match","uniform","","","","","","","","484279.2999999523","486283.7999999523","","","","","","","","","","","","0","","stimuli/stars_0.png","263.5","","","","","stimuli/HM09_SUR.jpg","",""
"explore-choice","153","486967","0.0-153.0","p752831","A13WTEQ06V3B6D","3FVBZG9CLKK1M1GPZWGJX51HFG80HB","3VNXK88KKEORNGXGUJLHU1O89A5V9P","emotion","match","uniform","","","","","","","1235.5","486286","487521.5","[""stimuli/BM04_FO.jpg"",""stimuli/HM09_HO.jpg"",""stimuli/HM10_DO.jpg"",""stimuli/AF09_SUR.jpg""]","stimuli/BM04_FO.jpg","stimuli/HM09_HO.jpg","stimuli/HM10_DO.jpg","stimuli/AF09_SUR.jpg","pos1","stimuli/BM04_FO.jpg","FO","BM04","0","3.5","7","8","stimuli/stars_7.png","267","[""FO"",""HO"",""DO"",""SUR""]","[""BM04"",""HM09"",""HM10"",""AF09""]","[7,7,6,0]","[8,6,4,2]","","",""
"show-reward","154","488975","0.0-154.0","p752831","A13WTEQ06V3B6D","3FVBZG9CLKK1M1GPZWGJX51HFG80HB","3VNXK88KKEORNGXGUJLHU1O89A5V9P","emotion","match","uniform","","","","","","","","488024.90000009537","490030.5","","","","","","","","","","","","7","","stimuli/stars_7.png","267","","","","","stimuli/BM04_FO.jpg","",""
"explore-choice","155","490938","0.0-155.0","p752831","A13WTEQ06V3B6D","3FVBZG9CLKK1M1GPZWGJX51HFG80HB","3VNXK88KKEORNGXGUJLHU1O89A5V9P","emotion","match","uniform","","","","","","","1459.3999998569489","490032.7000000477","491492.09999990463","[""stimuli/BM04_FO.jpg"",""stimuli/AF09_DO.jpg"",""stimuli/HM10_SUR.jpg"",""stimuli/HM09_HO.jpg""]","stimuli/BM04_FO.jpg","stimuli/AF09_DO.jpg","stimuli/HM10_SUR.jpg","stimuli/HM09_HO.jpg","pos3","stimuli/HM10_SUR.jpg","SUR","HM10","2","1.5","3","2","stimuli/stars_3.png","268.5","[""FO"",""DO"",""SUR"",""HO""]","[""BM04"",""AF09"",""HM10"",""HM09""]","[8,3,3,6]","[8,4,2,6]","","",""
"show-reward","156","492945","0.0-156.0","p752831","A13WTEQ06V3B6D","3FVBZG9CLKK1M1GPZWGJX51HFG80HB","3VNXK88KKEORNGXGUJLHU1O89A5V9P","emotion","match","uniform","","","","","","","","491996","494001","","","","","","","","","","","","3","","stimuli/stars_3.png","268.5","","","","","stimuli/HM10_SUR.jpg","",""
"explore-choice","157","494961","0.0-157.0","p752831","A13WTEQ06V3B6D","3FVBZG9CLKK1M1GPZWGJX51HFG80HB","3VNXK88KKEORNGXGUJLHU1O89A5V9P","emotion","match","uniform","","","","","","","1513.0999999046326","494002.90000009537","495516","[""stimuli/BM04_SUR.jpg"",""stimuli/HM10_HO.jpg"",""stimuli/HM09_FO.jpg"",""stimuli/AF09_DO.jpg""]","stimuli/BM04_SUR.jpg","stimuli/HM10_HO.jpg","stimuli/HM09_FO.jpg","stimuli/AF09_DO.jpg","pos3","stimuli/HM09_FO.jpg","FO","HM09","2","4","8","8","stimuli/stars_8.png","272.5","[""SUR"",""HO"",""FO"",""DO""]","[""BM04"",""HM10"",""HM09"",""AF09""]","[1,7,8,6]","[2,6,8,4]","","",""
"show-reward","158","496967","0.0-158.0","p752831","A13WTEQ06V3B6D","3FVBZG9CLKK1M1GPZWGJX51HFG80HB","3VNXK88KKEORNGXGUJLHU1O89A5V9P","emotion","match","uniform","","","","","","","","496019.09999990463","498023.09999990463","","","","","","","","","","","","8","","stimuli/stars_8.png","272.5","","","","","stimuli/HM09_FO.jpg","",""
"explore-choice","159","499939","0.0-159.0","p752831","A13WTEQ06V3B6D","3FVBZG9CLKK1M1GPZWGJX51HFG80HB","3VNXK88KKEORNGXGUJLHU1O89A5V9P","emotion","match","uniform","","","","","","","2468","498024.2000000477","500492.2000000477","[""stimuli/HM09_DO.jpg"",""stimuli/BM04_SUR.jpg"",""stimuli/AF09_FO.jpg"",""stimuli/HM10_HO.jpg""]","stimuli/HM09_DO.jpg","stimuli/BM04_SUR.jpg","stimuli/AF09_FO.jpg","stimuli/HM10_HO.jpg","pos3","stimuli/AF09_FO.jpg","FO","AF09","2","4.5","9","8","stimuli/stars_9.png","277","[""DO"",""SUR"",""FO"",""HO""]","[""HM09"",""BM04"",""AF09"",""HM10""]","[5,4,9,7]","[4,2,8,6]","","",""
"show-reward","160","501946","0.0-160.0","p752831","A13WTEQ06V3B6D","3FVBZG9CLKK1M1GPZWGJX51HFG80HB","3VNXK88KKEORNGXGUJLHU1O89A5V9P","emotion","match","uniform","","","","","","","","500997","503002.2000000477","","","","","","","","","","","","9","","stimuli/stars_9.png","277","","","","","stimuli/AF09_FO.jpg","",""
"explore-choice","161","504355","0.0-161.0","p752831","A13WTEQ06V3B6D","3FVBZG9CLKK1M1GPZWGJX51HFG80HB","3VNXK88KKEORNGXGUJLHU1O89A5V9P","emotion","match","uniform","","","","","","","1905.7000000476837","503004.2999999523","504910","[""stimuli/AF09_DO.jpg"",""stimuli/HM10_SUR.jpg"",""stimuli/HM09_FO.jpg"",""stimuli/BM04_HO.jpg""]","stimuli/AF09_DO.jpg","stimuli/HM10_SUR.jpg","stimuli/HM09_FO.jpg","stimuli/BM04_HO.jpg","pos3","stimuli/HM09_FO.jpg","FO","HM09","2","4","8","8","stimuli/stars_8.png","281","[""DO"",""SUR"",""FO"",""HO""]","[""AF09"",""HM10"",""HM09"",""BM04""]","[4,2,8,6]","[4,2,8,6]","","",""
"show-reward","162","506358","0.0-162.0","p752831","A13WTEQ06V3B6D","3FVBZG9CLKK1M1GPZWGJX51HFG80HB","3VNXK88KKEORNGXGUJLHU1O89A5V9P","emotion","match","uniform","","","","","","","","505412","507414.2000000477","","","","","","","","","","","","8","","stimuli/stars_8.png","281","","","","","stimuli/HM09_FO.jpg","",""
"explore-choice","163","509663","0.0-163.0","p752831","A13WTEQ06V3B6D","3FVBZG9CLKK1M1GPZWGJX51HFG80HB","3VNXK88KKEORNGXGUJLHU1O89A5V9P","emotion","match","uniform","","","","","","","2803","507415.90000009537","510218.90000009537","[""stimuli/AF09_HO.jpg"",""stimuli/BM04_SUR.jpg"",""stimuli/HM09_FO.jpg"",""stimuli/HM10_DO.jpg""]","stimuli/AF09_HO.jpg","stimuli/BM04_SUR.jpg","stimuli/HM09_FO.jpg","stimuli/HM10_DO.jpg","pos3","stimuli/HM09_FO.jpg","FO","HM09","2","4.5","9","8","stimuli/stars_9.png","285.5","[""HO"",""SUR"",""FO"",""DO""]","[""AF09"",""BM04"",""HM09"",""HM10""]","[7,1,9,3]","[6,2,8,4]","","",""
"show-reward","164","511666","0.0-164.0","p752831","A13WTEQ06V3B6D","3FVBZG9CLKK1M1GPZWGJX51HFG80HB","3VNXK88KKEORNGXGUJLHU1O89A5V9P","emotion","match","uniform","","","","","","","","510719.7999999523","512721.59999990463","","","","","","","","","","","","9","","stimuli/stars_9.png","285.5","","","","","stimuli/HM09_FO.jpg","",""
"explore-choice","165","514316","0.0-165.0","p752831","A13WTEQ06V3B6D","3FVBZG9CLKK1M1GPZWGJX51HFG80HB","3VNXK88KKEORNGXGUJLHU1O89A5V9P","emotion","match","uniform","","","","","","","2146.800000190735","512723.09999990463","514869.90000009537","[""stimuli/AF09_FO.jpg"",""stimuli/BM04_DO.jpg"",""stimuli/HM09_HO.jpg"",""stimuli/HM10_SUR.jpg""]","stimuli/AF09_FO.jpg","stimuli/BM04_DO.jpg","stimuli/HM09_HO.jpg","stimuli/HM10_SUR.jpg","pos1","stimuli/AF09_FO.jpg","FO","AF09","0","3.5","7","8","stimuli/stars_7.png","289","[""FO"",""DO"",""HO"",""SUR""]","[""AF09"",""BM04"",""HM09"",""HM10""]","[7,6,6,3]","[8,4,6,2]","","",""
"show-reward","166","516323","0.0-166.0","p752831","A13WTEQ06V3B6D","3FVBZG9CLKK1M1GPZWGJX51HFG80HB","3VNXK88KKEORNGXGUJLHU1O89A5V9P","emotion","match","uniform","","","","","","","","515374.09999990463","517379.40000009537","","","","","","","","","","","","7","","stimuli/stars_7.png","289","","","","","stimuli/AF09_FO.jpg","",""
"explore-choice","167","518540","0.0-167.0","p752831","A13WTEQ06V3B6D","3FVBZG9CLKK1M1GPZWGJX51HFG80HB","3VNXK88KKEORNGXGUJLHU1O89A5V9P","emotion","match","uniform","","","","","","","1715.2000000476837","517380.2000000477","519095.40000009537","[""stimuli/HM09_SUR.jpg"",""stimuli/HM10_HO.jpg"",""stimuli/AF09_DO.jpg"",""stimuli/BM04_FO.jpg""]","stimuli/HM09_SUR.jpg","stimuli/HM10_HO.jpg","stimuli/AF09_DO.jpg","stimuli/BM04_FO.jpg","pos4","stimuli/BM04_FO.jpg","FO","BM04","3","4","8","8","stimuli/stars_8.png","293","[""SUR"",""HO"",""DO"",""FO""]","[""HM09"",""HM10"",""AF09"",""BM04""]","[1,5,6,8]","[2,6,4,8]","","",""
"show-reward","168","520549","0.0-168.0","p752831","A13WTEQ06V3B6D","3FVBZG9CLKK1M1GPZWGJX51HFG80HB","3VNXK88KKEORNGXGUJLHU1O89A5V9P","emotion","match","uniform","","","","","","","","519599","521603.5","","","","","","","","","","","","8","","stimuli/stars_8.png","293","","","","","stimuli/BM04_FO.jpg","",""
"explore-choice","169","522294","0.0-169.0","p752831","A13WTEQ06V3B6D","3FVBZG9CLKK1M1GPZWGJX51HFG80HB","3VNXK88KKEORNGXGUJLHU1O89A5V9P","emotion","match","uniform","","","","","","","1241.9000000953674","521605.5","522847.40000009537","[""stimuli/HM09_DO.jpg"",""stimuli/HM10_FO.jpg"",""stimuli/BM04_HO.jpg"",""stimuli/AF09_SUR.jpg""]","stimuli/HM09_DO.jpg","stimuli/HM10_FO.jpg","stimuli/BM04_HO.jpg","stimuli/AF09_SUR.jpg","pos2","stimuli/HM10_FO.jpg","FO","HM10","1","4","8","8","stimuli/stars_8.png","297","[""DO"",""FO"",""HO"",""SUR""]","[""HM09"",""HM10"",""BM04"",""AF09""]","[3,8,8,1]","[4,8,6,2]","","",""
"show-reward","170","524300","0.0-170.0","p752831","A13WTEQ06V3B6D","3FVBZG9CLKK1M1GPZWGJX51HFG80HB","3VNXK88KKEORNGXGUJLHU1O89A5V9P","emotion","match","uniform","","","","","","","","523350.5","525355.5","","","","","","","","","","","","8","","stimuli/stars_8.png","297","","","","","stimuli/HM10_FO.jpg","",""
"explore-choice","171","526226","0.0-171.0","p752831","A13WTEQ06V3B6D","3FVBZG9CLKK1M1GPZWGJX51HFG80HB","3VNXK88KKEORNGXGUJLHU1O89A5V9P","emotion","match","uniform","","","","","","","1422.1000001430511","525357.2999999523","526779.4000000954","[""stimuli/BM04_SUR.jpg"",""stimuli/HM10_FO.jpg"",""stimuli/HM09_DO.jpg"",""stimuli/AF09_HO.jpg""]","stimuli/BM04_SUR.jpg","stimuli/HM10_FO.jpg","stimuli/HM09_DO.jpg","stimuli/AF09_HO.jpg","pos2","stimuli/HM10_FO.jpg","FO","HM10","1","4","8","8","stimuli/stars_8.png","301","[""SUR"",""FO"",""DO"",""HO""]","[""BM04"",""HM10"",""HM09"",""AF09""]","[4,8,6,6]","[2,8,4,6]","","",""
"show-reward","172","528233","0.0-172.0","p752831","A13WTEQ06V3B6D","3FVBZG9CLKK1M1GPZWGJX51HFG80HB","3VNXK88KKEORNGXGUJLHU1O89A5V9P","emotion","match","uniform","","","","","","","","527282.7999999523","529287.7999999523","","","","","","","","","","","","8","","stimuli/stars_8.png","301","","","","","stimuli/HM10_FO.jpg","",""
"explore-choice","173","531125","0.0-173.0","p752831","A13WTEQ06V3B6D","3FVBZG9CLKK1M1GPZWGJX51HFG80HB","3VNXK88KKEORNGXGUJLHU1O89A5V9P","emotion","match","uniform","","","","","","","2388.4000000953674","529289.5","531677.9000000954","[""stimuli/HM09_SUR.jpg"",""stimuli/AF09_FO.jpg"",""stimuli/BM04_DO.jpg"",""stimuli/HM10_HO.jpg""]","stimuli/HM09_SUR.jpg","stimuli/AF09_FO.jpg","stimuli/BM04_DO.jpg","stimuli/HM10_HO.jpg","pos1","stimuli/HM09_SUR.jpg","SUR","HM09","0","2","4","2","stimuli/stars_4.png","303","[""SUR"",""FO"",""DO"",""HO""]","[""HM09"",""AF09"",""BM04"",""HM10""]","[4,10,4,7]","[2,8,4,6]","","",""
"show-reward","174","533132","0.0-174.0","p752831","A13WTEQ06V3B6D","3FVBZG9CLKK1M1GPZWGJX51HFG80HB","3VNXK88KKEORNGXGUJLHU1O89A5V9P","emotion","match","uniform","","","","","","","","532182.0999999046","534186.5999999046","","","","","","","","","","","","4","","stimuli/stars_4.png","303","","","","","stimuli/HM09_SUR.jpg","",""
"explore-choice","175","535837","0.0-175.0","p752831","A13WTEQ06V3B6D","3FVBZG9CLKK1M1GPZWGJX51HFG80HB","3VNXK88KKEORNGXGUJLHU1O89A5V9P","emotion","match","uniform","","","","","","","2203.2000000476837","534188.5999999046","536391.7999999523","[""stimuli/BM04_SUR.jpg"",""stimuli/HM09_HO.jpg"",""stimuli/HM10_FO.jpg"",""stimuli/AF09_DO.jpg""]","stimuli/BM04_SUR.jpg","stimuli/HM09_HO.jpg","stimuli/HM10_FO.jpg","stimuli/AF09_DO.jpg","pos4","stimuli/AF09_DO.jpg","DO","AF09","3","3","6","4","stimuli/stars_6.png","306","[""SUR"",""HO"",""FO"",""DO""]","[""BM04"",""HM09"",""HM10"",""AF09""]","[2,5,10,6]","[2,6,8,4]","","",""
"show-reward","176","537838","0.0-176.0","p752831","A13WTEQ06V3B6D","3FVBZG9CLKK1M1GPZWGJX51HFG80HB","3VNXK88KKEORNGXGUJLHU1O89A5V9P","emotion","match","uniform","","","","","","","","536892.4000000954","538893.7000000477","","","","","","","","","","","","6","","stimuli/stars_6.png","306","","","","","stimuli/AF09_DO.jpg","",""
"explore-choice","177","539816","0.0-177.0","p752831","A13WTEQ06V3B6D","3FVBZG9CLKK1M1GPZWGJX51HFG80HB","3VNXK88KKEORNGXGUJLHU1O89A5V9P","emotion","match","uniform","","","","","","","1475.2999999523163","538894.4000000954","540369.7000000477","[""stimuli/HM10_HO.jpg"",""stimuli/HM09_DO.jpg"",""stimuli/BM04_FO.jpg"",""stimuli/AF09_SUR.jpg""]","stimuli/HM10_HO.jpg","stimuli/HM09_DO.jpg","stimuli/BM04_FO.jpg","stimuli/AF09_SUR.jpg","pos3","stimuli/BM04_FO.jpg","FO","BM04","2","3.5","7","8","stimuli/stars_7.png","309.5","[""HO"",""DO"",""FO"",""SUR""]","[""HM10"",""HM09"",""BM04"",""AF09""]","[8,3,7,1]","[6,4,8,2]","","",""
"show-reward","178","541825","0.0-178.0","p752831","A13WTEQ06V3B6D","3FVBZG9CLKK1M1GPZWGJX51HFG80HB","3VNXK88KKEORNGXGUJLHU1O89A5V9P","emotion","match","uniform","","","","","","","","540877.2000000477","542880.5","","","","","","","","","","","","7","","stimuli/stars_7.png","309.5","","","","","stimuli/BM04_FO.jpg","",""
"explore-choice","179","543483","0.0-179.0","p752831","A13WTEQ06V3B6D","3FVBZG9CLKK1M1GPZWGJX51HFG80HB","3VNXK88KKEORNGXGUJLHU1O89A5V9P","emotion","match","uniform","","","","","","","1155.7000000476837","542881.2999999523","544037","[""stimuli/AF09_DO.jpg"",""stimuli/HM10_FO.jpg"",""stimuli/HM09_SUR.jpg"",""stimuli/BM04_HO.jpg""]","stimuli/AF09_DO.jpg","stimuli/HM10_FO.jpg","stimuli/HM09_SUR.jpg","stimuli/BM04_HO.jpg","pos2","stimuli/HM10_FO.jpg","FO","HM10","1","4","8","8","stimuli/stars_8.png","313.5","[""DO"",""FO"",""SUR"",""HO""]","[""AF09"",""HM10"",""HM09"",""BM04""]","[5,8,3,7]","[4,8,2,6]","","",""
"show-reward","180","545490","0.0-180.0","p752831","A13WTEQ06V3B6D","3FVBZG9CLKK1M1GPZWGJX51HFG80HB","3VNXK88KKEORNGXGUJLHU1O89A5V9P","emotion","match","uniform","","","","","","","","544540.2999999523","546544.7000000477","","","","","","","","","","","","8","","stimuli/stars_8.png","313.5","","","","","stimuli/HM10_FO.jpg","",""
"explore-choice","181","547786","0.0-181.0","p752831","A13WTEQ06V3B6D","3FVBZG9CLKK1M1GPZWGJX51HFG80HB","3VNXK88KKEORNGXGUJLHU1O89A5V9P","emotion","match","uniform","","","","","","","1793.0999999046326","546546.5","548339.5999999046","[""stimuli/HM09_DO.jpg"",""stimuli/HM10_SUR.jpg"",""stimuli/AF09_FO.jpg"",""stimuli/BM04_HO.jpg""]","stimuli/HM09_DO.jpg","stimuli/HM10_SUR.jpg","stimuli/AF09_FO.jpg","stimuli/BM04_HO.jpg","pos3","stimuli/AF09_FO.jpg","FO","AF09","2","3","6","8","stimuli/stars_6.png","316.5","[""DO"",""SUR"",""FO"",""HO""]","[""HM09"",""HM10"",""AF09"",""BM04""]","[4,2,6,4]","[4,2,8,6]","","",""
"show-reward","182","549791","0.0-182.0","p752831","A13WTEQ06V3B6D","3FVBZG9CLKK1M1GPZWGJX51HFG80HB","3VNXK88KKEORNGXGUJLHU1O89A5V9P","emotion","match","uniform","","","","","","","","548842.7000000477","550845.9000000954","","","","","","","","","","","","6","","stimuli/stars_6.png","316.5","","","","","stimuli/AF09_FO.jpg","",""
"explore-choice","183","551500","0.0-183.0","p752831","A13WTEQ06V3B6D","3FVBZG9CLKK1M1GPZWGJX51HFG80HB","3VNXK88KKEORNGXGUJLHU1O89A5V9P","emotion","match","uniform","","","","","","","1204.9000000953674","550848.2999999523","552053.2000000477","[""stimuli/HM10_SUR.jpg"",""stimuli/HM09_FO.jpg"",""stimuli/BM04_DO.jpg"",""stimuli/AF09_HO.jpg""]","stimuli/HM10_SUR.jpg","stimuli/HM09_FO.jpg","stimuli/BM04_DO.jpg","stimuli/AF09_HO.jpg","pos2","stimuli/HM09_FO.jpg","FO","HM09","1","4","8","8","stimuli/stars_8.png","320.5","[""SUR"",""FO"",""DO"",""HO""]","[""HM10"",""HM09"",""BM04"",""AF09""]","[0,8,4,7]","[2,8,4,6]","","",""
"show-reward","184","553507","0.0-184.0","p752831","A13WTEQ06V3B6D","3FVBZG9CLKK1M1GPZWGJX51HFG80HB","3VNXK88KKEORNGXGUJLHU1O89A5V9P","emotion","match","uniform","","","","","","","","552556.7999999523","554562.2000000477","","","","","","","","","","","","8","","stimuli/stars_8.png","320.5","","","","","stimuli/HM09_FO.jpg","",""
"explore-choice","185","554951","0.0-185.0","p752831","A13WTEQ06V3B6D","3FVBZG9CLKK1M1GPZWGJX51HFG80HB","3VNXK88KKEORNGXGUJLHU1O89A5V9P","emotion","match","uniform","","","","","","","941.7999999523163","554564.4000000954","555506.2000000477","[""stimuli/HM09_HO.jpg"",""stimuli/HM10_FO.jpg"",""stimuli/BM04_DO.jpg"",""stimuli/AF09_SUR.jpg""]","stimuli/HM09_HO.jpg","stimuli/HM10_FO.jpg","stimuli/BM04_DO.jpg","stimuli/AF09_SUR.jpg","pos2","stimuli/HM10_FO.jpg","FO","HM10","1","4.5","9","8","stimuli/stars_9.png","325","[""HO"",""FO"",""DO"",""SUR""]","[""HM09"",""HM10"",""BM04"",""AF09""]","[8,9,3,0]","[6,8,4,2]","","",""
"show-reward","186","556956","0.0-186.0","p752831","A13WTEQ06V3B6D","3FVBZG9CLKK1M1GPZWGJX51HFG80HB","3VNXK88KKEORNGXGUJLHU1O89A5V9P","emotion","match","uniform","","","","","","","","556007.7999999523","558010.9000000954","","","","","","","","","","","","9","","stimuli/stars_9.png","325","","","","","stimuli/HM10_FO.jpg","",""
"explore-choice","187","558867","0.0-187.0","p752831","A13WTEQ06V3B6D","3FVBZG9CLKK1M1GPZWGJX51HFG80HB","3VNXK88KKEORNGXGUJLHU1O89A5V9P","emotion","match","uniform","","","","","","","1409.4000000953674","558011.5999999046","559421","[""stimuli/BM04_HO.jpg"",""stimuli/AF09_SUR.jpg"",""stimuli/HM10_DO.jpg"",""stimuli/HM09_FO.jpg""]","stimuli/BM04_HO.jpg","stimuli/AF09_SUR.jpg","stimuli/HM10_DO.jpg","stimuli/HM09_FO.jpg","pos4","stimuli/HM09_FO.jpg","FO","HM09","3","4.5","9","8","stimuli/stars_9.png","329.5","[""HO"",""SUR"",""DO"",""FO""]","[""BM04"",""AF09"",""HM10"",""HM09""]","[7,3,4,9]","[6,2,4,8]","","",""
"show-reward","188","560875","0.0-188.0","p752831","A13WTEQ06V3B6D","3FVBZG9CLKK1M1GPZWGJX51HFG80HB","3VNXK88KKEORNGXGUJLHU1O89A5V9P","emotion","match","uniform","","","","","","","","559924.2000000477","561929.5999999046","","","","","","","","","","","","9","","stimuli/stars_9.png","329.5","","","","","stimuli/HM09_FO.jpg","",""
"explore-choice","189","562429","0.0-189.0","p752831","A13WTEQ06V3B6D","3FVBZG9CLKK1M1GPZWGJX51HFG80HB","3VNXK88KKEORNGXGUJLHU1O89A5V9P","emotion","match","uniform","","","","","","","1051.2999999523163","561930.9000000954","562982.2000000477","[""stimuli/HM10_DO.jpg"",""stimuli/HM09_SUR.jpg"",""stimuli/AF09_HO.jpg"",""stimuli/BM04_FO.jpg""]","stimuli/HM10_DO.jpg","stimuli/HM09_SUR.jpg","stimuli/AF09_HO.jpg","stimuli/BM04_FO.jpg","pos2","stimuli/HM09_SUR.jpg","SUR","HM09","1","0","0","2","stimuli/stars_0.png","329.5","[""DO"",""SUR"",""HO"",""FO""]","[""HM10"",""HM09"",""AF09"",""BM04""]","[3,0,5,10]","[4,2,6,8]","","",""
"show-reward","190","564435","0.0-190.0","p752831","A13WTEQ06V3B6D","3FVBZG9CLKK1M1GPZWGJX51HFG80HB","3VNXK88KKEORNGXGUJLHU1O89A5V9P","emotion","match","uniform","","","","","","","","563485.7999999523","565490.4000000954","","","","","","","","","","","","0","","stimuli/stars_0.png","329.5","","","","","stimuli/HM09_SUR.jpg","",""
"explore-choice","191","567317","0.0-191.0","p752831","A13WTEQ06V3B6D","3FVBZG9CLKK1M1GPZWGJX51HFG80HB","3VNXK88KKEORNGXGUJLHU1O89A5V9P","emotion","match","uniform","","","","","","","2378.5999999046326","565492.7000000477","567871.2999999523","[""stimuli/HM10_FO.jpg"",""stimuli/AF09_HO.jpg"",""stimuli/BM04_DO.jpg"",""stimuli/HM09_SUR.jpg""]","stimuli/HM10_FO.jpg","stimuli/AF09_HO.jpg","stimuli/BM04_DO.jpg","stimuli/HM09_SUR.jpg","pos1","stimuli/HM10_FO.jpg","FO","HM10","0","5","10","8","stimuli/stars_10.png","334.5","[""FO"",""HO"",""DO"",""SUR""]","[""HM10"",""AF09"",""BM04"",""HM09""]","[10,8,2,2]","[8,6,4,2]","","",""
"show-reward","192","569322","0.0-192.0","p752831","A13WTEQ06V3B6D","3FVBZG9CLKK1M1GPZWGJX51HFG80HB","3VNXK88KKEORNGXGUJLHU1O89A5V9P","emotion","match","uniform","","","","","","","","568373.9000000954","570377.2999999523","","","","","","","","","","","","10","","stimuli/stars_10.png","334.5","","","","","stimuli/HM10_FO.jpg","",""
"explore-choice","193","571405","0.0-193.0","p752831","A13WTEQ06V3B6D","3FVBZG9CLKK1M1GPZWGJX51HFG80HB","3VNXK88KKEORNGXGUJLHU1O89A5V9P","emotion","match","uniform","","","","","","","1579.0999999046326","570379","571958.0999999046","[""stimuli/HM10_HO.jpg"",""stimuli/BM04_DO.jpg"",""stimuli/HM09_FO.jpg"",""stimuli/AF09_SUR.jpg""]","stimuli/HM10_HO.jpg","stimuli/BM04_DO.jpg","stimuli/HM09_FO.jpg","stimuli/AF09_SUR.jpg","pos3","stimuli/HM09_FO.jpg","FO","HM09","2","3.5","7","8","stimuli/stars_7.png","338","[""HO"",""DO"",""FO"",""SUR""]","[""HM10"",""BM04"",""HM09"",""AF09""]","[4,5,7,3]","[6,4,8,2]","","",""
"show-reward","194","573412","0.0-194.0","p752831","A13WTEQ06V3B6D","3FVBZG9CLKK1M1GPZWGJX51HFG80HB","3VNXK88KKEORNGXGUJLHU1O89A5V9P","emotion","match","uniform","","","","","","","","572461.9000000954","574466.5999999046","","","","","","","","","","","","7","","stimuli/stars_7.png","338","","","","","stimuli/HM09_FO.jpg","",""
"explore-choice","195","575581","0.0-195.0","p752831","A13WTEQ06V3B6D","3FVBZG9CLKK1M1GPZWGJX51HFG80HB","3VNXK88KKEORNGXGUJLHU1O89A5V9P","emotion","match","uniform","","","","","","","1667.2000000476837","574468.2000000477","576135.4000000954","[""stimuli/HM10_DO.jpg"",""stimuli/BM04_SUR.jpg"",""stimuli/HM09_HO.jpg"",""stimuli/AF09_FO.jpg""]","stimuli/HM10_DO.jpg","stimuli/BM04_SUR.jpg","stimuli/HM09_HO.jpg","stimuli/AF09_FO.jpg","pos4","stimuli/AF09_FO.jpg","FO","AF09","3","4","8","8","stimuli/stars_8.png","342","[""DO"",""SUR"",""HO"",""FO""]","[""HM10"",""BM04"",""HM09"",""AF09""]","[4,2,8,8]","[4,2,6,8]","","",""
"show-reward","196","577587","0.0-196.0","p752831","A13WTEQ06V3B6D","3FVBZG9CLKK1M1GPZWGJX51HFG80HB","3VNXK88KKEORNGXGUJLHU1O89A5V9P","emotion","match","uniform","","","","","","","","576638.5","578642.4000000954","","","","","","","","","","","","8","","stimuli/stars_8.png","342","","","","","stimuli/AF09_FO.jpg","",""
"explore-choice","197","580202","0.0-197.0","p752831","A13WTEQ06V3B6D","3FVBZG9CLKK1M1GPZWGJX51HFG80HB","3VNXK88KKEORNGXGUJLHU1O89A5V9P","emotion","match","uniform","","","","","","","2112.199999809265","578643.4000000954","580755.5999999046","[""stimuli/BM04_FO.jpg"",""stimuli/HM09_DO.jpg"",""stimuli/HM10_SUR.jpg"",""stimuli/AF09_HO.jpg""]","stimuli/BM04_FO.jpg","stimuli/HM09_DO.jpg","stimuli/HM10_SUR.jpg","stimuli/AF09_HO.jpg","pos1","stimuli/BM04_FO.jpg","FO","BM04","0","3","6","8","stimuli/stars_6.png","345","[""FO"",""DO"",""SUR"",""HO""]","[""BM04"",""HM09"",""HM10"",""AF09""]","[6,4,0,7]","[8,4,2,6]","","",""
"show-reward","198","582205","0.0-198.0","p752831","A13WTEQ06V3B6D","3FVBZG9CLKK1M1GPZWGJX51HFG80HB","3VNXK88KKEORNGXGUJLHU1O89A5V9P","emotion","match","uniform","","","","","","","","581257.7000000477","583260.0999999046","","","","","","","","","","","","6","","stimuli/stars_6.png","345","","","","","stimuli/BM04_FO.jpg","",""
"instructions","199","585460","0.0-199.0","p752831","A13WTEQ06V3B6D","3FVBZG9CLKK1M1GPZWGJX51HFG80HB","3VNXK88KKEORNGXGUJLHU1O89A5V9P","emotion","match","uniform","","","","","","[{""page_index"":0,""viewing_time"":3251.7999999523163}]","3252.5999999046326","","","","","","","","","","","","","","","","","","","","","","","",""
"survey-text","200","588070","0.0-200.0-0.0","p752831","A13WTEQ06V3B6D","3FVBZG9CLKK1M1GPZWGJX51HFG80HB","3VNXK88KKEORNGXGUJLHU1O89A5V9P","emotion","match","uniform","","","","","","","2605.4000000953674","","","","","","","","","","","","","","","","","","","","","","","{""age"":""30""}",""
"survey-text","201","590372","0.0-200.0-1.0","p752831","A13WTEQ06V3B6D","3FVBZG9CLKK1M1GPZWGJX51HFG80HB","3VNXK88KKEORNGXGUJLHU1O89A5V9P","emotion","match","uniform","","","","","","","2298.7999999523163","","","","","","","","","","","","","","","","","","","","","","","{""gender"":""Male""}",""
"survey-text","202","594105","0.0-200.0-2.0","p752831","A13WTEQ06V3B6D","3FVBZG9CLKK1M1GPZWGJX51HFG80HB","3VNXK88KKEORNGXGUJLHU1O89A5V9P","emotion","match","uniform","","","","","","","3730.4000000953674","","","","","","","","","","","","","","","","","","","","","","","{""country"":""United States""}",""
"survey-text","203","601427","0.0-200.0-3.0","p752831","A13WTEQ06V3B6D","3FVBZG9CLKK1M1GPZWGJX51HFG80HB","3VNXK88KKEORNGXGUJLHU1O89A5V9P","emotion","match","uniform","","","","","","","7318.100000143051","","","","","","","","","","","","","","","","","","","","","","","{""language"":""English"",""other_languages"":""Mandarin Chinese""}",""
"survey-multi-select","204","603655","0.0-201.0","p752831","A13WTEQ06V3B6D","3FVBZG9CLKK1M1GPZWGJX51HFG80HB","3VNXK88KKEORNGXGUJLHU1O89A5V9P","emotion","match","uniform","","","","","","","2222.399999856949","","","","","","","","","","","","","","","","","","","","","","","{""race"":[""Asian""]}","[0]"
"survey-multi-choice","205","605868","0.0-202.0","p752831","A13WTEQ06V3B6D","3FVBZG9CLKK1M1GPZWGJX51HFG80HB","3VNXK88KKEORNGXGUJLHU1O89A5V9P","emotion","match","uniform","","","","","","","2205.9000000953674","","","","","","","","","","","","","","","","","","","","","","","{""education"":""Master's degree""}","[0]"
"survey-text","206","640664","0.0-203.0","p752831","A13WTEQ06V3B6D","3FVBZG9CLKK1M1GPZWGJX51HFG80HB","3VNXK88KKEORNGXGUJLHU1O89A5V9P","emotion","match","uniform","","","","","","","34786.799999952316","","","","","","","","","","","","","","","","","","","","","","","{""patterns"":""yes, the images with the same emotions have similar rewards."",""strategy"":""I tried out all emotions and saw which one rewarded the most."",""comments"":""I have no additional comments.""}",""
