"trial_type","trial_index","time_elapsed","internal_node_id","subject","workerId","hitId","assignmentId","structure_condition","match_condition","noise_type","success","timeout","failed_images","failed_audio","failed_video","view_history","rt","start_time","end_time","stimuli","image1","image2","image3","image4","choiceLocation","choiceImage","choiceEmotion","choiceModel","choice_index","reward_score","reward","reward_score_unadjusted","reward_image","score_after_trial","emotions","models","rewards","rewards_unadjusted","stimulus","response","question_order"
"pavlovia","0","9","0.0-0.0","p466195","AE4FRGGT254D3","3P888QFVX40Z2B7BK75OWKP045JQOK","386CSBG1O1SC0PZ1ADOV44YY2IT6Q8","model","match","uniform","","","","","","","","","","","","","","","","","","","","","","","","","","","","","","",""
"preload","1","27525","0.0-1.0","p466195","AE4FRGGT254D3","3P888QFVX40Z2B7BK75OWKP045JQOK","386CSBG1O1SC0PZ1ADOV44YY2IT6Q8","model","match","uniform","true","false","[]","[]","[]","","","","","","","","","","","","","","","","","","","","","","","","","",""
"fullscreen","2","43303","0.0-2.0","p466195","AE4FRGGT254D3","3P888QFVX40Z2B7BK75OWKP045JQOK","386CSBG1O1SC0PZ1ADOV44YY2IT6Q8","model","match","uniform","true","","","","","","","","","","","","","","","","","","","","","","","","","","","","","",""
"instructions","3","48293","0.0-3.0","p466195","AE4FRGGT254D3","3P888QFVX40Z2B7BK75OWKP045JQOK","386CSBG1O1SC0PZ1ADOV44YY2IT6Q8","model","match","uniform","","","","","","[{""page_index"":0,""viewing_time"":4989.099999904633}]","4989.400000095367","","","","","","","","","","","","","","","","","","","","","","","",""
"explore-choice","4","51477","0.0-4.0","p466195","AE4FRGGT254D3","3P888QFVX40Z2B7BK75OWKP045JQOK","386CSBG1O1SC0PZ1ADOV44YY2IT6Q8","model","match","uniform","","","","","","","2670","49531.5","52201.5","[""stimuli/sheep.jpg"",""stimuli/hammer.jpg"",""stimuli/basketball.jpg"",""stimuli/horse.jpg""]","stimuli/sheep.jpg","stimuli/hammer.jpg","stimuli/basketball.jpg","stimuli/horse.jpg","pos4","stimuli/horse.jpg","","","3","64","64","64","stimuli/stars_8.png","65","","","","","","",""
"explore-choice","5","54388","0.0-5.0","p466195","AE4FRGGT254D3","3P888QFVX40Z2B7BK75OWKP045JQOK","386CSBG1O1SC0PZ1ADOV44YY2IT6Q8","model","match","uniform","","","","","","","2395.7999999523163","52715.200000047684","55111","[""stimuli/hammer.jpg"",""stimuli/basketball.jpg"",""stimuli/horse.jpg"",""stimuli/sheep.jpg""]","stimuli/hammer.jpg","stimuli/basketball.jpg","stimuli/horse.jpg","stimuli/sheep.jpg","pos1","stimuli/hammer.jpg","","","0","8","8","8","stimuli/stars_2.png","9","","","","","","",""
"instructions","6","79044","0.0-6.0","p466195","AE4FRGGT254D3","3P888QFVX40Z2B7BK75OWKP045JQOK","386CSBG1O1SC0PZ1ADOV44YY2IT6Q8","model","match","uniform","","","","","","[{""page_index"":0,""viewing_time"":24654.300000190735}]","24654.5","","","","","","","","","","","","","","","","","","","","","","","",""
"explore-choice","7","81893","0.0-7.0","p466195","AE4FRGGT254D3","3P888QFVX40Z2B7BK75OWKP045JQOK","386CSBG1O1SC0PZ1ADOV44YY2IT6Q8","model","match","uniform","","","","","","","2346.5","80282.20000004768","82628.70000004768","[""stimuli/AF02_HO.jpg"",""stimuli/WF04_SC.jpg"",""stimuli/AM09_CC.jpg"",""stimuli/BM04_AO.jpg""]","stimuli/AF02_HO.jpg","stimuli/WF04_SC.jpg","stimuli/AM09_CC.jpg","stimuli/BM04_AO.jpg","pos1","stimuli/AF02_HO.jpg","HO","AF02","0","1.5","3","4","stimuli/stars_3.png","2.5","[""HO"",""SC"",""CC"",""AO""]","[""AF02"",""WF04"",""AM09"",""BM04""]","[3,6,5,1]","[4,8,6,2]","","",""
"show-reward","8","83904","0.0-8.0","p466195","AE4FRGGT254D3","3P888QFVX40Z2B7BK75OWKP045JQOK","386CSBG1O1SC0PZ1ADOV44YY2IT6Q8","model","match","uniform","","","","","","","","83131.79999995232","85141.29999995232","","","","","","","","","","","","3","","stimuli/stars_3.png","2.5","","","","","stimuli/AF02_HO.jpg","",""
"explore-choice","9","87720","0.0-9.0","p466195","AE4FRGGT254D3","3P888QFVX40Z2B7BK75OWKP045JQOK","386CSBG1O1SC0PZ1ADOV44YY2IT6Q8","model","match","uniform","","","","","","","3306.399999856949","85141.90000009537","88448.29999995232","[""stimuli/WF04_CC.jpg"",""stimuli/BM04_SC.jpg"",""stimuli/AF02_AO.jpg"",""stimuli/AM09_HO.jpg""]","stimuli/WF04_CC.jpg","stimuli/BM04_SC.jpg","stimuli/AF02_AO.jpg","stimuli/AM09_HO.jpg","pos4","stimuli/AM09_HO.jpg","HO","AM09","3","3.5","7","6","stimuli/stars_7.png","6","[""CC"",""SC"",""AO"",""HO""]","[""WF04"",""BM04"",""AF02"",""AM09""]","[10,2,3,7]","[8,2,4,6]","","",""
"show-reward","10","89733","0.0-10.0","p466195","AE4FRGGT254D3","3P888QFVX40Z2B7BK75OWKP045JQOK","386CSBG1O1SC0PZ1ADOV44YY2IT6Q8","model","match","uniform","","","","","","","","88958.29999995232","90970.79999995232","","","","","","","","","","","","7","","stimuli/stars_7.png","6","","","","","stimuli/AM09_HO.jpg","",""
"explore-choice","11","92774","0.0-11.0","p466195","AE4FRGGT254D3","3P888QFVX40Z2B7BK75OWKP045JQOK","386CSBG1O1SC0PZ1ADOV44YY2IT6Q8","model","match","uniform","","","","","","","2539.4000000953674","90971.79999995232","93511.20000004768","[""stimuli/BM04_CC.jpg"",""stimuli/WF04_SC.jpg"",""stimuli/AF02_HO.jpg"",""stimuli/AM09_AO.jpg""]","stimuli/BM04_CC.jpg","stimuli/WF04_SC.jpg","stimuli/AF02_HO.jpg","stimuli/AM09_AO.jpg","pos3","stimuli/AF02_HO.jpg","HO","AF02","2","2.5","5","4","stimuli/stars_5.png","8.5","[""CC"",""SC"",""HO"",""AO""]","[""BM04"",""WF04"",""AF02"",""AM09""]","[1,10,5,4]","[2,8,4,6]","","",""
"show-reward","12","94784","0.0-12.0","p466195","AE4FRGGT254D3","3P888QFVX40Z2B7BK75OWKP045JQOK","386CSBG1O1SC0PZ1ADOV44YY2IT6Q8","model","match","uniform","","","","","","","","94012.70000004768","96022","","","","","","","","","","","","5","","stimuli/stars_5.png","8.5","","","","","stimuli/AF02_HO.jpg","",""
"explore-choice","13","98523","0.0-13.0","p466195","AE4FRGGT254D3","3P888QFVX40Z2B7BK75OWKP045JQOK","386CSBG1O1SC0PZ1ADOV44YY2IT6Q8","model","match","uniform","","","","","","","3233.800000190735","96022.59999990463","99256.40000009537","[""stimuli/AF02_AO.jpg"",""stimuli/BM04_HO.jpg"",""stimuli/AM09_SC.jpg"",""stimuli/WF04_CC.jpg""]","stimuli/AF02_AO.jpg","stimuli/BM04_HO.jpg","stimuli/AM09_SC.jpg","stimuli/WF04_CC.jpg","pos2","stimuli/BM04_HO.jpg","HO","BM04","1","2","4","2","stimuli/stars_4.png","10.5","[""AO"",""HO"",""SC"",""CC""]","[""AF02"",""BM04"",""AM09"",""WF04""]","[4,4,6,7]","[4,2,6,8]","","",""
"show-reward","14","100536","0.0-14.0","p466195","AE4FRGGT254D3","3P888QFVX40Z2B7BK75OWKP045JQOK","386CSBG1O1SC0PZ1ADOV44YY2IT6Q8","model","match","uniform","","","","","","","","99761.29999995232","101773.79999995232","","","","","","","","","","","","4","","stimuli/stars_4.png","10.5","","","","","stimuli/BM04_HO.jpg","",""
"explore-choice","15","103163","0.0-15.0","p466195","AE4FRGGT254D3","3P888QFVX40Z2B7BK75OWKP045JQOK","386CSBG1O1SC0PZ1ADOV44YY2IT6Q8","model","match","uniform","","","","","","","2116.2000000476837","101774.5","103890.70000004768","[""stimuli/WF04_AO.jpg"",""stimuli/BM04_HO.jpg"",""stimuli/AF02_CC.jpg"",""stimuli/AM09_SC.jpg""]","stimuli/WF04_AO.jpg","stimuli/BM04_HO.jpg","stimuli/AF02_CC.jpg","stimuli/AM09_SC.jpg","pos2","stimuli/BM04_HO.jpg","HO","BM04","1","2","4","2","stimuli/stars_4.png","12.5","[""AO"",""HO"",""CC"",""SC""]","[""WF04"",""BM04"",""AF02"",""AM09""]","[9,4,3,6]","[8,2,4,6]","","",""
"show-reward","16","105178","0.0-16.0","p466195","AE4FRGGT254D3","3P888QFVX40Z2B7BK75OWKP045JQOK","386CSBG1O1SC0PZ1ADOV44YY2IT6Q8","model","match","uniform","","","","","","","","104402","106415.09999990463","","","","","","","","","","","","4","","stimuli/stars_4.png","12.5","","","","","stimuli/BM04_HO.jpg","",""
"explore-choice","17","107597","0.0-17.0","p466195","AE4FRGGT254D3","3P888QFVX40Z2B7BK75OWKP045JQOK","386CSBG1O1SC0PZ1ADOV44YY2IT6Q8","model","match","uniform","","","","","","","1907.3999998569489","106415.90000009537","108323.29999995232","[""stimuli/AF02_CC.jpg"",""stimuli/AM09_HO.jpg"",""stimuli/BM04_SC.jpg"",""stimuli/WF04_AO.jpg""]","stimuli/AF02_CC.jpg","stimuli/AM09_HO.jpg","stimuli/BM04_SC.jpg","stimuli/WF04_AO.jpg","pos2","stimuli/AM09_HO.jpg","HO","AM09","1","2","4","6","stimuli/stars_4.png","14.5","[""CC"",""HO"",""SC"",""AO""]","[""AF02"",""AM09"",""BM04"",""WF04""]","[3,4,2,7]","[4,6,2,8]","","",""
"show-reward","18","109600","0.0-18.0","p466195","AE4FRGGT254D3","3P888QFVX40Z2B7BK75OWKP045JQOK","386CSBG1O1SC0PZ1ADOV44YY2IT6Q8","model","match","uniform","","","","","","","","108835.20000004768","110837.09999990463","","","","","","","","","","","","4","","stimuli/stars_4.png","14.5","","","","","stimuli/AM09_HO.jpg","",""
"explore-choice","19","112452","0.0-19.0","p466195","AE4FRGGT254D3","3P888QFVX40Z2B7BK75OWKP045JQOK","386CSBG1O1SC0PZ1ADOV44YY2IT6Q8","model","match","uniform","","","","","","","2345.2000000476837","110837.70000004768","113182.90000009537","[""stimuli/AM09_AO.jpg"",""stimuli/BM04_CC.jpg"",""stimuli/WF04_HO.jpg"",""stimuli/AF02_SC.jpg""]","stimuli/AM09_AO.jpg","stimuli/BM04_CC.jpg","stimuli/WF04_HO.jpg","stimuli/AF02_SC.jpg","pos3","stimuli/WF04_HO.jpg","HO","WF04","2","4","8","8","stimuli/stars_8.png","18.5","[""AO"",""CC"",""HO"",""SC""]","[""AM09"",""BM04"",""WF04"",""AF02""]","[4,3,8,4]","[6,2,8,4]","","",""
"show-reward","20","114454","0.0-20.0","p466195","AE4FRGGT254D3","3P888QFVX40Z2B7BK75OWKP045JQOK","386CSBG1O1SC0PZ1ADOV44YY2IT6Q8","model","match","uniform","","","","","","","","113690.20000004768","115691.70000004768","","","","","","","","","","","","8","","stimuli/stars_8.png","18.5","","","","","stimuli/WF04_HO.jpg","",""
"explore-choice","21","117224","0.0-21.0","p466195","AE4FRGGT254D3","3P888QFVX40Z2B7BK75OWKP045JQOK","386CSBG1O1SC0PZ1ADOV44YY2IT6Q8","model","match","uniform","","","","","","","2254.7999999523163","115692.29999995232","117947.09999990463","[""stimuli/BM04_AO.jpg"",""stimuli/AM09_HO.jpg"",""stimuli/AF02_CC.jpg"",""stimuli/WF04_SC.jpg""]","stimuli/BM04_AO.jpg","stimuli/AM09_HO.jpg","stimuli/AF02_CC.jpg","stimuli/WF04_SC.jpg","pos3","stimuli/AF02_CC.jpg","CC","AF02","2","1","2","4","stimuli/stars_2.png","19.5","[""AO"",""HO"",""CC"",""SC""]","[""BM04"",""AM09"",""AF02"",""WF04""]","[1,6,2,7]","[2,6,4,8]","","",""
"show-reward","22","119240","0.0-22.0","p466195","AE4FRGGT254D3","3P888QFVX40Z2B7BK75OWKP045JQOK","386CSBG1O1SC0PZ1ADOV44YY2IT6Q8","model","match","uniform","","","","","","","","118462.90000009537","120477.79999995232","","","","","","","","","","","","2","","stimuli/stars_2.png","19.5","","","","","stimuli/AF02_CC.jpg","",""
"explore-choice","23","121322","0.0-23.0","p466195","AE4FRGGT254D3","3P888QFVX40Z2B7BK75OWKP045JQOK","386CSBG1O1SC0PZ1ADOV44YY2IT6Q8","model","match","uniform","","","","","","","1569.5","120478.59999990463","122048.09999990463","[""stimuli/AF02_AO.jpg"",""stimuli/BM04_HO.jpg"",""stimuli/AM09_CC.jpg"",""stimuli/WF04_SC.jpg""]","stimuli/AF02_AO.jpg","stimuli/BM04_HO.jpg","stimuli/AM09_CC.jpg","stimuli/WF04_SC.jpg","pos2","stimuli/BM04_HO.jpg","HO","BM04","1","2","4","2","stimuli/stars_4.png","21.5","[""AO"",""HO"",""CC"",""SC""]","[""AF02"",""BM04"",""AM09"",""WF04""]","[6,4,8,8]","[4,2,6,8]","","",""
"show-reward","24","123325","0.0-24.0","p466195","AE4FRGGT254D3","3P888QFVX40Z2B7BK75OWKP045JQOK","386CSBG1O1SC0PZ1ADOV44YY2IT6Q8","model","match","uniform","","","","","","","","122560.29999995232","124562.20000004768","","","","","","","","","","","","4","","stimuli/stars_4.png","21.5","","","","","stimuli/BM04_HO.jpg","",""
"explore-choice","25","125298","0.0-25.0","p466195","AE4FRGGT254D3","3P888QFVX40Z2B7BK75OWKP045JQOK","386CSBG1O1SC0PZ1ADOV44YY2IT6Q8","model","match","uniform","","","","","","","1460.2000000476837","124563.09999990463","126023.29999995232","[""stimuli/AF02_SC.jpg"",""stimuli/AM09_CC.jpg"",""stimuli/BM04_AO.jpg"",""stimuli/WF04_HO.jpg""]","stimuli/AF02_SC.jpg","stimuli/AM09_CC.jpg","stimuli/BM04_AO.jpg","stimuli/WF04_HO.jpg","pos4","stimuli/WF04_HO.jpg","HO","WF04","3","3.5","7","8","stimuli/stars_7.png","25","[""SC"",""CC"",""AO"",""HO""]","[""AF02"",""AM09"",""BM04"",""WF04""]","[4,4,1,7]","[4,6,2,8]","","",""
"show-reward","26","127302","0.0-26.0","p466195","AE4FRGGT254D3","3P888QFVX40Z2B7BK75OWKP045JQOK","386CSBG1O1SC0PZ1ADOV44YY2IT6Q8","model","match","uniform","","","","","","","","126536.79999995232","128539.29999995232","","","","","","","","","","","","7","","stimuli/stars_7.png","25","","","","","stimuli/WF04_HO.jpg","",""
"explore-choice","27","130480","0.0-27.0","p466195","AE4FRGGT254D3","3P888QFVX40Z2B7BK75OWKP045JQOK","386CSBG1O1SC0PZ1ADOV44YY2IT6Q8","model","match","uniform","","","","","","","2673","128539.90000009537","131212.90000009537","[""stimuli/AF02_SC.jpg"",""stimuli/AM09_CC.jpg"",""stimuli/BM04_HO.jpg"",""stimuli/WF04_AO.jpg""]","stimuli/AF02_SC.jpg","stimuli/AM09_CC.jpg","stimuli/BM04_HO.jpg","stimuli/WF04_AO.jpg","pos3","stimuli/BM04_HO.jpg","HO","BM04","2","1","2","2","stimuli/stars_2.png","26","[""SC"",""CC"",""HO"",""AO""]","[""AF02"",""AM09"",""BM04"",""WF04""]","[4,4,2,6]","[4,6,2,8]","","",""
"show-reward","28","132493","0.0-28.0","p466195","AE4FRGGT254D3","3P888QFVX40Z2B7BK75OWKP045JQOK","386CSBG1O1SC0PZ1ADOV44YY2IT6Q8","model","match","uniform","","","","","","","","131718.29999995232","133730.40000009537","","","","","","","","","","","","2","","stimuli/stars_2.png","26","","","","","stimuli/BM04_HO.jpg","",""
"explore-choice","29","134987","0.0-29.0","p466195","AE4FRGGT254D3","3P888QFVX40Z2B7BK75OWKP045JQOK","386CSBG1O1SC0PZ1ADOV44YY2IT6Q8","model","match","uniform","","","","","","","1989.5999999046326","133731","135720.59999990463","[""stimuli/AF02_HO.jpg"",""stimuli/BM04_SC.jpg"",""stimuli/AM09_CC.jpg"",""stimuli/WF04_AO.jpg""]","stimuli/AF02_HO.jpg","stimuli/BM04_SC.jpg","stimuli/AM09_CC.jpg","stimuli/WF04_AO.jpg","pos1","stimuli/AF02_HO.jpg","HO","AF02","0","2.5","5","4","stimuli/stars_5.png","28.5","[""HO"",""SC"",""CC"",""AO""]","[""AF02"",""BM04"",""AM09"",""WF04""]","[5,4,8,7]","[4,2,6,8]","","",""
"show-reward","30","136989","0.0-30.0","p466195","AE4FRGGT254D3","3P888QFVX40Z2B7BK75OWKP045JQOK","386CSBG1O1SC0PZ1ADOV44YY2IT6Q8","model","match","uniform","","","","","","","","136225.40000009537","138226.79999995232","","","","","","","","","","","","5","","stimuli/stars_5.png","28.5","","","","","stimuli/AF02_HO.jpg","",""
"explore-choice","31","139046","0.0-31.0","p466195","AE4FRGGT254D3","3P888QFVX40Z2B7BK75OWKP045JQOK","386CSBG1O1SC0PZ1ADOV44YY2IT6Q8","model","match","uniform","","","","","","","1543.7999999523163","138227.20000004768","139771","[""stimuli/WF04_AO.jpg"",""stimuli/AF02_HO.jpg"",""stimuli/BM04_CC.jpg"",""stimuli/AM09_SC.jpg""]","stimuli/WF04_AO.jpg","stimuli/AF02_HO.jpg","stimuli/BM04_CC.jpg","stimuli/AM09_SC.jpg","pos2","stimuli/AF02_HO.jpg","HO","AF02","1","2.5","5","4","stimuli/stars_5.png","31","[""AO"",""HO"",""CC"",""SC""]","[""WF04"",""AF02"",""BM04"",""AM09""]","[8,5,0,7]","[8,4,2,6]","","",""
"show-reward","32","141063","0.0-32.0","p466195","AE4FRGGT254D3","3P888QFVX40Z2B7BK75OWKP045JQOK","386CSBG1O1SC0PZ1ADOV44YY2IT6Q8","model","match","uniform","","","","","","","","140284.40000009537","142300.70000004768","","","","","","","","","","","","5","","stimuli/stars_5.png","31","","","","","stimuli/AF02_HO.jpg","",""
"explore-choice","33","143247","0.0-33.0","p466195","AE4FRGGT254D3","3P888QFVX40Z2B7BK75OWKP045JQOK","386CSBG1O1SC0PZ1ADOV44YY2IT6Q8","model","match","uniform","","","","","","","1668.9000000953674","142301.5","143970.40000009537","[""stimuli/BM04_SC.jpg"",""stimuli/AM09_AO.jpg"",""stimuli/AF02_HO.jpg"",""stimuli/WF04_CC.jpg""]","stimuli/BM04_SC.jpg","stimuli/AM09_AO.jpg","stimuli/AF02_HO.jpg","stimuli/WF04_CC.jpg","pos3","stimuli/AF02_HO.jpg","HO","AF02","2","3","6","4","stimuli/stars_6.png","34","[""SC"",""AO"",""HO"",""CC""]","[""BM04"",""AM09"",""AF02"",""WF04""]","[2,4,6,8]","[2,6,4,8]","","",""
"show-reward","34","145251","0.0-34.0","p466195","AE4FRGGT254D3","3P888QFVX40Z2B7BK75OWKP045JQOK","386CSBG1O1SC0PZ1ADOV44YY2IT6Q8","model","match","uniform","","","","","","","","144485.79999995232","146488.40000009537","","","","","","","","","","","","6","","stimuli/stars_6.png","34","","","","","stimuli/AF02_HO.jpg","",""
"explore-choice","35","147457","0.0-35.0","p466195","AE4FRGGT254D3","3P888QFVX40Z2B7BK75OWKP045JQOK","386CSBG1O1SC0PZ1ADOV44YY2IT6Q8","model","match","uniform","","","","","","","1704.0999999046326","146489","148193.09999990463","[""stimuli/AF02_SC.jpg"",""stimuli/AM09_AO.jpg"",""stimuli/BM04_HO.jpg"",""stimuli/WF04_CC.jpg""]","stimuli/AF02_SC.jpg","stimuli/AM09_AO.jpg","stimuli/BM04_HO.jpg","stimuli/WF04_CC.jpg","pos1","stimuli/AF02_SC.jpg","SC","AF02","0","1","2","4","stimuli/stars_2.png","35","[""SC"",""AO"",""HO"",""CC""]","[""AF02"",""AM09"",""BM04"",""WF04""]","[2,5,4,8]","[4,6,2,8]","","",""
"show-reward","36","149468","0.0-36.0","p466195","AE4FRGGT254D3","3P888QFVX40Z2B7BK75OWKP045JQOK","386CSBG1O1SC0PZ1ADOV44YY2IT6Q8","model","match","uniform","","","","","","","","148696","150705.90000009537","","","","","","","","","","","","2","","stimuli/stars_2.png","35","","","","","stimuli/AF02_SC.jpg","",""
"explore-choice","37","151247","0.0-37.0","p466195","AE4FRGGT254D3","3P888QFVX40Z2B7BK75OWKP045JQOK","386CSBG1O1SC0PZ1ADOV44YY2IT6Q8","model","match","uniform","","","","","","","1275.0999999046326","150706.5","151981.59999990463","[""stimuli/WF04_AO.jpg"",""stimuli/AM09_HO.jpg"",""stimuli/BM04_CC.jpg"",""stimuli/AF02_SC.jpg""]","stimuli/WF04_AO.jpg","stimuli/AM09_HO.jpg","stimuli/BM04_CC.jpg","stimuli/AF02_SC.jpg","pos2","stimuli/AM09_HO.jpg","HO","AM09","1","4","8","6","stimuli/stars_8.png","39","[""AO"",""HO"",""CC"",""SC""]","[""WF04"",""AM09"",""BM04"",""AF02""]","[7,8,2,4]","[8,6,2,4]","","",""
"show-reward","38","153249","0.0-38.0","p466195","AE4FRGGT254D3","3P888QFVX40Z2B7BK75OWKP045JQOK","386CSBG1O1SC0PZ1ADOV44YY2IT6Q8","model","match","uniform","","","","","","","","152485","154486.70000004768","","","","","","","","","","","","8","","stimuli/stars_8.png","39","","","","","stimuli/AM09_HO.jpg","",""
"explore-choice","39","155733","0.0-39.0","p466195","AE4FRGGT254D3","3P888QFVX40Z2B7BK75OWKP045JQOK","386CSBG1O1SC0PZ1ADOV44YY2IT6Q8","model","match","uniform","","","","","","","1978.7000000476837","154487.29999995232","156466","[""stimuli/AF02_CC.jpg"",""stimuli/BM04_AO.jpg"",""stimuli/WF04_HO.jpg"",""stimuli/AM09_SC.jpg""]","stimuli/AF02_CC.jpg","stimuli/BM04_AO.jpg","stimuli/WF04_HO.jpg","stimuli/AM09_SC.jpg","pos3","stimuli/WF04_HO.jpg","HO","WF04","2","3","6","8","stimuli/stars_6.png","42","[""CC"",""AO"",""HO"",""SC""]","[""AF02"",""BM04"",""WF04"",""AM09""]","[4,4,6,6]","[4,2,8,6]","","",""
"show-reward","40","157736","0.0-40.0","p466195","AE4FRGGT254D3","3P888QFVX40Z2B7BK75OWKP045JQOK","386CSBG1O1SC0PZ1ADOV44YY2IT6Q8","model","match","uniform","","","","","","","","156971.90000009537","158974","","","","","","","","","","","","6","","stimuli/stars_6.png","42","","","","","stimuli/WF04_HO.jpg","",""
"explore-choice","41","160090","0.0-41.0","p466195","AE4FRGGT254D3","3P888QFVX40Z2B7BK75OWKP045JQOK","386CSBG1O1SC0PZ1ADOV44YY2IT6Q8","model","match","uniform","","","","","","","1851.9000000953674","158974.5","160826.40000009537","[""stimuli/AM09_SC.jpg"",""stimuli/AF02_HO.jpg"",""stimuli/BM04_AO.jpg"",""stimuli/WF04_CC.jpg""]","stimuli/AM09_SC.jpg","stimuli/AF02_HO.jpg","stimuli/BM04_AO.jpg","stimuli/WF04_CC.jpg","pos2","stimuli/AF02_HO.jpg","HO","AF02","1","1","2","4","stimuli/stars_2.png","43","[""SC"",""HO"",""AO"",""CC""]","[""AM09"",""AF02"",""BM04"",""WF04""]","[8,2,4,7]","[6,4,2,8]","","",""
"show-reward","42","162092","0.0-42.0","p466195","AE4FRGGT254D3","3P888QFVX40Z2B7BK75OWKP045JQOK","386CSBG1O1SC0PZ1ADOV44YY2IT6Q8","model","match","uniform","","","","","","","","161328.20000004768","163329.79999995232","","","","","","","","","","","","2","","stimuli/stars_2.png","43","","","","","stimuli/AF02_HO.jpg","",""
"explore-choice","43","164730","0.0-43.0","p466195","AE4FRGGT254D3","3P888QFVX40Z2B7BK75OWKP045JQOK","386CSBG1O1SC0PZ1ADOV44YY2IT6Q8","model","match","uniform","","","","","","","2135.4000000953674","163330.59999990463","165466","[""stimuli/AF02_AO.jpg"",""stimuli/WF04_HO.jpg"",""stimuli/BM04_CC.jpg"",""stimuli/AM09_SC.jpg""]","stimuli/AF02_AO.jpg","stimuli/WF04_HO.jpg","stimuli/BM04_CC.jpg","stimuli/AM09_SC.jpg","pos2","stimuli/WF04_HO.jpg","HO","WF04","1","5","10","8","stimuli/stars_10.png","48","[""AO"",""HO"",""CC"",""SC""]","[""AF02"",""WF04"",""BM04"",""AM09""]","[2,10,3,7]","[4,8,2,6]","","",""
"show-reward","44","166739","0.0-44.0","p466195","AE4FRGGT254D3","3P888QFVX40Z2B7BK75OWKP045JQOK","386CSBG1O1SC0PZ1ADOV44YY2IT6Q8","model","match","uniform","","","","","","","","165967.79999995232","167975.90000009537","","","","","","","","","","","","10","","stimuli/stars_10.png","48","","","","","stimuli/WF04_HO.jpg","",""
"explore-choice","45","170622","0.0-45.0","p466195","AE4FRGGT254D3","3P888QFVX40Z2B7BK75OWKP045JQOK","386CSBG1O1SC0PZ1ADOV44YY2IT6Q8","model","match","uniform","","","","","","","3376.7999999523163","167976.5","171353.29999995232","[""stimuli/AF02_AO.jpg"",""stimuli/BM04_CC.jpg"",""stimuli/WF04_SC.jpg"",""stimuli/AM09_HO.jpg""]","stimuli/AF02_AO.jpg","stimuli/BM04_CC.jpg","stimuli/WF04_SC.jpg","stimuli/AM09_HO.jpg","pos4","stimuli/AM09_HO.jpg","HO","AM09","3","2.5","5","6","stimuli/stars_5.png","50.5","[""AO"",""CC"",""SC"",""HO""]","[""AF02"",""BM04"",""WF04"",""AM09""]","[5,2,8,5]","[4,2,8,6]","","",""
"show-reward","46","172637","0.0-46.0","p466195","AE4FRGGT254D3","3P888QFVX40Z2B7BK75OWKP045JQOK","386CSBG1O1SC0PZ1ADOV44YY2IT6Q8","model","match","uniform","","","","","","","","171860.09999990463","173874.40000009537","","","","","","","","","","","","5","","stimuli/stars_5.png","50.5","","","","","stimuli/AM09_HO.jpg","",""
"explore-choice","47","175019","0.0-47.0","p466195","AE4FRGGT254D3","3P888QFVX40Z2B7BK75OWKP045JQOK","386CSBG1O1SC0PZ1ADOV44YY2IT6Q8","model","match","uniform","","","","","","","1865.4000000953674","173875.09999990463","175740.5","[""stimuli/BM04_SC.jpg"",""stimuli/AF02_AO.jpg"",""stimuli/WF04_HO.jpg"",""stimuli/AM09_CC.jpg""]","stimuli/BM04_SC.jpg","stimuli/AF02_AO.jpg","stimuli/WF04_HO.jpg","stimuli/AM09_CC.jpg","pos3","stimuli/WF04_HO.jpg","HO","WF04","2","3","6","8","stimuli/stars_6.png","53.5","[""SC"",""AO"",""HO"",""CC""]","[""BM04"",""AF02"",""WF04"",""AM09""]","[2,4,6,6]","[2,4,8,6]","","",""
"show-reward","48","177024","0.0-48.0","p466195","AE4FRGGT254D3","3P888QFVX40Z2B7BK75OWKP045JQOK","386CSBG1O1SC0PZ1ADOV44YY2IT6Q8","model","match","uniform","","","","","","","","176256.29999995232","178261.29999995232","","","","","","","","","","","","6","","stimuli/stars_6.png","53.5","","","","","stimuli/WF04_HO.jpg","",""
"explore-choice","49","179742","0.0-49.0","p466195","AE4FRGGT254D3","3P888QFVX40Z2B7BK75OWKP045JQOK","386CSBG1O1SC0PZ1ADOV44YY2IT6Q8","model","match","uniform","","","","","","","2211.7000000476837","178261.79999995232","180473.5","[""stimuli/BM04_AO.jpg"",""stimuli/AM09_HO.jpg"",""stimuli/AF02_SC.jpg"",""stimuli/WF04_CC.jpg""]","stimuli/BM04_AO.jpg","stimuli/AM09_HO.jpg","stimuli/AF02_SC.jpg","stimuli/WF04_CC.jpg","pos2","stimuli/AM09_HO.jpg","HO","AM09","1","3","6","6","stimuli/stars_6.png","56.5","[""AO"",""HO"",""SC"",""CC""]","[""BM04"",""AM09"",""AF02"",""WF04""]","[1,6,4,7]","[2,6,4,8]","","",""
"show-reward","50","181743","0.0-50.0","p466195","AE4FRGGT254D3","3P888QFVX40Z2B7BK75OWKP045JQOK","386CSBG1O1SC0PZ1ADOV44YY2IT6Q8","model","match","uniform","","","","","","","","180979.20000004768","182980.09999990463","","","","","","","","","","","","6","","stimuli/stars_6.png","56.5","","","","","stimuli/AM09_HO.jpg","",""
"explore-choice","51","184232","0.0-51.0","p466195","AE4FRGGT254D3","3P888QFVX40Z2B7BK75OWKP045JQOK","386CSBG1O1SC0PZ1ADOV44YY2IT6Q8","model","match","uniform","","","","","","","1978","182980.79999995232","184958.79999995232","[""stimuli/WF04_SC.jpg"",""stimuli/AF02_CC.jpg"",""stimuli/BM04_HO.jpg"",""stimuli/AM09_AO.jpg""]","stimuli/WF04_SC.jpg","stimuli/AF02_CC.jpg","stimuli/BM04_HO.jpg","stimuli/AM09_AO.jpg","pos3","stimuli/BM04_HO.jpg","HO","BM04","2","0","0","2","stimuli/stars_0.png","56.5","[""SC"",""CC"",""HO"",""AO""]","[""WF04"",""AF02"",""BM04"",""AM09""]","[6,4,0,5]","[8,4,2,6]","","",""
"show-reward","52","186235","0.0-52.0","p466195","AE4FRGGT254D3","3P888QFVX40Z2B7BK75OWKP045JQOK","386CSBG1O1SC0PZ1ADOV44YY2IT6Q8","model","match","uniform","","","","","","","","185470.20000004768","187471.79999995232","","","","","","","","","","","","0","","stimuli/stars_0.png","56.5","","","","","stimuli/BM04_HO.jpg","",""
"explore-choice","53","188257","0.0-53.0","p466195","AE4FRGGT254D3","3P888QFVX40Z2B7BK75OWKP045JQOK","386CSBG1O1SC0PZ1ADOV44YY2IT6Q8","model","match","uniform","","","","","","","1520.6999998092651","187472.40000009537","188993.09999990463","[""stimuli/WF04_HO.jpg"",""stimuli/BM04_SC.jpg"",""stimuli/AM09_AO.jpg"",""stimuli/AF02_CC.jpg""]","stimuli/WF04_HO.jpg","stimuli/BM04_SC.jpg","stimuli/AM09_AO.jpg","stimuli/AF02_CC.jpg","pos1","stimuli/WF04_HO.jpg","HO","WF04","0","5","10","8","stimuli/stars_10.png","61.5","[""HO"",""SC"",""AO"",""CC""]","[""WF04"",""BM04"",""AM09"",""AF02""]","[10,0,6,5]","[8,2,6,4]","","",""
"show-reward","54","190273","0.0-54.0","p466195","AE4FRGGT254D3","3P888QFVX40Z2B7BK75OWKP045JQOK","386CSBG1O1SC0PZ1ADOV44YY2IT6Q8","model","match","uniform","","","","","","","","189494.59999990463","191510.09999990463","","","","","","","","","","","","10","","stimuli/stars_10.png","61.5","","","","","stimuli/WF04_HO.jpg","",""
"explore-choice","55","192353","0.0-55.0","p466195","AE4FRGGT254D3","3P888QFVX40Z2B7BK75OWKP045JQOK","386CSBG1O1SC0PZ1ADOV44YY2IT6Q8","model","match","uniform","","","","","","","1569.7999999523163","191510.70000004768","193080.5","[""stimuli/BM04_HO.jpg"",""stimuli/WF04_CC.jpg"",""stimuli/AM09_AO.jpg"",""stimuli/AF02_SC.jpg""]","stimuli/BM04_HO.jpg","stimuli/WF04_CC.jpg","stimuli/AM09_AO.jpg","stimuli/AF02_SC.jpg","pos1","stimuli/BM04_HO.jpg","HO","BM04","0","2","4","2","stimuli/stars_4.png","63.5","[""HO"",""CC"",""AO"",""SC""]","[""BM04"",""WF04"",""AM09"",""AF02""]","[4,8,5,2]","[2,8,6,4]","","",""
"show-reward","56","194356","0.0-56.0","p466195","AE4FRGGT254D3","3P888QFVX40Z2B7BK75OWKP045JQOK","386CSBG1O1SC0PZ1ADOV44YY2IT6Q8","model","match","uniform","","","","","","","","193590.59999990463","195593.5","","","","","","","","","","","","4","","stimuli/stars_4.png","63.5","","","","","stimuli/BM04_HO.jpg","",""
"explore-choice","57","196203","0.0-57.0","p466195","AE4FRGGT254D3","3P888QFVX40Z2B7BK75OWKP045JQOK","386CSBG1O1SC0PZ1ADOV44YY2IT6Q8","model","match","uniform","","","","","","","1333.2999999523163","195594.29999995232","196927.59999990463","[""stimuli/AF02_HO.jpg"",""stimuli/WF04_SC.jpg"",""stimuli/BM04_CC.jpg"",""stimuli/AM09_AO.jpg""]","stimuli/AF02_HO.jpg","stimuli/WF04_SC.jpg","stimuli/BM04_CC.jpg","stimuli/AM09_AO.jpg","pos1","stimuli/AF02_HO.jpg","HO","AF02","0","2.5","5","4","stimuli/stars_5.png","66","[""HO"",""SC"",""CC"",""AO""]","[""AF02"",""WF04"",""BM04"",""AM09""]","[5,10,1,4]","[4,8,2,6]","","",""
"show-reward","58","198205","0.0-58.0","p466195","AE4FRGGT254D3","3P888QFVX40Z2B7BK75OWKP045JQOK","386CSBG1O1SC0PZ1ADOV44YY2IT6Q8","model","match","uniform","","","","","","","","197440.40000009537","199441.79999995232","","","","","","","","","","","","5","","stimuli/stars_5.png","66","","","","","stimuli/AF02_HO.jpg","",""
"explore-choice","59","200378","0.0-59.0","p466195","AE4FRGGT254D3","3P888QFVX40Z2B7BK75OWKP045JQOK","386CSBG1O1SC0PZ1ADOV44YY2IT6Q8","model","match","uniform","","","","","","","1671","199442.29999995232","201113.29999995232","[""stimuli/BM04_CC.jpg"",""stimuli/WF04_AO.jpg"",""stimuli/AF02_HO.jpg"",""stimuli/AM09_SC.jpg""]","stimuli/BM04_CC.jpg","stimuli/WF04_AO.jpg","stimuli/AF02_HO.jpg","stimuli/AM09_SC.jpg","pos3","stimuli/AF02_HO.jpg","HO","AF02","2","2.5","5","4","stimuli/stars_5.png","68.5","[""CC"",""AO"",""HO"",""SC""]","[""BM04"",""WF04"",""AF02"",""AM09""]","[0,8,5,7]","[2,8,4,6]","","",""
"show-reward","60","202381","0.0-60.0","p466195","AE4FRGGT254D3","3P888QFVX40Z2B7BK75OWKP045JQOK","386CSBG1O1SC0PZ1ADOV44YY2IT6Q8","model","match","uniform","","","","","","","","201616.29999995232","203617.90000009537","","","","","","","","","","","","5","","stimuli/stars_5.png","68.5","","","","","stimuli/AF02_HO.jpg","",""
"explore-choice","61","204660","0.0-61.0","p466195","AE4FRGGT254D3","3P888QFVX40Z2B7BK75OWKP045JQOK","386CSBG1O1SC0PZ1ADOV44YY2IT6Q8","model","match","uniform","","","","","","","1777.5999999046326","203618.5","205396.09999990463","[""stimuli/AF02_CC.jpg"",""stimuli/AM09_SC.jpg"",""stimuli/WF04_AO.jpg"",""stimuli/BM04_HO.jpg""]","stimuli/AF02_CC.jpg","stimuli/AM09_SC.jpg","stimuli/WF04_AO.jpg","stimuli/BM04_HO.jpg","pos4","stimuli/BM04_HO.jpg","HO","BM04","3","2","4","2","stimuli/stars_4.png","70.5","[""CC"",""SC"",""AO"",""HO""]","[""AF02"",""AM09"",""WF04"",""BM04""]","[3,6,9,4]","[4,6,8,2]","","",""
"show-reward","62","206672","0.0-62.0","p466195","AE4FRGGT254D3","3P888QFVX40Z2B7BK75OWKP045JQOK","386CSBG1O1SC0PZ1ADOV44YY2IT6Q8","model","match","uniform","","","","","","","","205898","207909.09999990463","","","","","","","","","","","","4","","stimuli/stars_4.png","70.5","","","","","stimuli/BM04_HO.jpg","",""
"explore-choice","63","209062","0.0-63.0","p466195","AE4FRGGT254D3","3P888QFVX40Z2B7BK75OWKP045JQOK","386CSBG1O1SC0PZ1ADOV44YY2IT6Q8","model","match","uniform","","","","","","","1887.7000000476837","207909.79999995232","209797.5","[""stimuli/AM09_SC.jpg"",""stimuli/BM04_AO.jpg"",""stimuli/WF04_HO.jpg"",""stimuli/AF02_CC.jpg""]","stimuli/AM09_SC.jpg","stimuli/BM04_AO.jpg","stimuli/WF04_HO.jpg","stimuli/AF02_CC.jpg","pos3","stimuli/WF04_HO.jpg","HO","WF04","2","3","6","8","stimuli/stars_6.png","73.5","[""SC"",""AO"",""HO"",""CC""]","[""AM09"",""BM04"",""WF04"",""AF02""]","[6,4,6,4]","[6,2,8,4]","","",""
"show-reward","64","211063","0.0-64.0","p466195","AE4FRGGT254D3","3P888QFVX40Z2B7BK75OWKP045JQOK","386CSBG1O1SC0PZ1ADOV44YY2IT6Q8","model","match","uniform","","","","","","","","210299.20000004768","212300.5","","","","","","","","","","","","6","","stimuli/stars_6.png","73.5","","","","","stimuli/WF04_HO.jpg","",""
"explore-choice","65","213970","0.0-65.0","p466195","AE4FRGGT254D3","3P888QFVX40Z2B7BK75OWKP045JQOK","386CSBG1O1SC0PZ1ADOV44YY2IT6Q8","model","match","uniform","","","","","","","2394.2000000476837","212301","214695.20000004768","[""stimuli/WF04_HO.jpg"",""stimuli/AM09_AO.jpg"",""stimuli/AF02_CC.jpg"",""stimuli/BM04_SC.jpg""]","stimuli/WF04_HO.jpg","stimuli/AM09_AO.jpg","stimuli/AF02_CC.jpg","stimuli/BM04_SC.jpg","pos3","stimuli/AF02_CC.jpg","CC","AF02","2","2.5","5","4","stimuli/stars_5.png","76","[""HO"",""AO"",""CC"",""SC""]","[""WF04"",""AM09"",""AF02"",""BM04""]","[10,6,5,0]","[8,6,4,2]","","",""
"show-reward","66","215975","0.0-66.0","p466195","AE4FRGGT254D3","3P888QFVX40Z2B7BK75OWKP045JQOK","386CSBG1O1SC0PZ1ADOV44YY2IT6Q8","model","match","uniform","","","","","","","","215208.29999995232","217211.79999995232","","","","","","","","","","","","5","","stimuli/stars_5.png","76","","","","","stimuli/AF02_CC.jpg","",""
"explore-choice","67","218589","0.0-67.0","p466195","AE4FRGGT254D3","3P888QFVX40Z2B7BK75OWKP045JQOK","386CSBG1O1SC0PZ1ADOV44YY2IT6Q8","model","match","uniform","","","","","","","2103","217212.40000009537","219315.40000009537","[""stimuli/AF02_CC.jpg"",""stimuli/BM04_SC.jpg"",""stimuli/AM09_HO.jpg"",""stimuli/WF04_AO.jpg""]","stimuli/AF02_CC.jpg","stimuli/BM04_SC.jpg","stimuli/AM09_HO.jpg","stimuli/WF04_AO.jpg","pos3","stimuli/AM09_HO.jpg","HO","AM09","2","2","4","6","stimuli/stars_4.png","78","[""CC"",""SC"",""HO"",""AO""]","[""AF02"",""BM04"",""AM09"",""WF04""]","[3,2,4,7]","[4,2,6,8]","","",""
"show-reward","68","220590","0.0-68.0","p466195","AE4FRGGT254D3","3P888QFVX40Z2B7BK75OWKP045JQOK","386CSBG1O1SC0PZ1ADOV44YY2IT6Q8","model","match","uniform","","","","","","","","219826.29999995232","221827.29999995232","","","","","","","","","","","","4","","stimuli/stars_4.png","78","","","","","stimuli/AM09_HO.jpg","",""
"explore-choice","69","223298","0.0-69.0","p466195","AE4FRGGT254D3","3P888QFVX40Z2B7BK75OWKP045JQOK","386CSBG1O1SC0PZ1ADOV44YY2IT6Q8","model","match","uniform","","","","","","","2204.7999999523163","221827.79999995232","224032.59999990463","[""stimuli/AM09_HO.jpg"",""stimuli/BM04_AO.jpg"",""stimuli/AF02_CC.jpg"",""stimuli/WF04_SC.jpg""]","stimuli/AM09_HO.jpg","stimuli/BM04_AO.jpg","stimuli/AF02_CC.jpg","stimuli/WF04_SC.jpg","pos3","stimuli/AF02_CC.jpg","CC","AF02","2","1","2","4","stimuli/stars_2.png","79","[""HO"",""AO"",""CC"",""SC""]","[""AM09"",""BM04"",""AF02"",""WF04""]","[6,1,2,7]","[6,2,4,8]","","",""
"show-reward","70","225301","0.0-70.0","p466195","AE4FRGGT254D3","3P888QFVX40Z2B7BK75OWKP045JQOK","386CSBG1O1SC0PZ1ADOV44YY2IT6Q8","model","match","uniform","","","","","","","","224536.09999990463","226537.79999995232","","","","","","","","","","","","2","","stimuli/stars_2.png","79","","","","","stimuli/AF02_CC.jpg","",""
"explore-choice","71","227626","0.0-71.0","p466195","AE4FRGGT254D3","3P888QFVX40Z2B7BK75OWKP045JQOK","386CSBG1O1SC0PZ1ADOV44YY2IT6Q8","model","match","uniform","","","","","","","1821.2999999523163","226538.40000009537","228359.70000004768","[""stimuli/WF04_AO.jpg"",""stimuli/BM04_SC.jpg"",""stimuli/AM09_CC.jpg"",""stimuli/AF02_HO.jpg""]","stimuli/WF04_AO.jpg","stimuli/BM04_SC.jpg","stimuli/AM09_CC.jpg","stimuli/AF02_HO.jpg","pos4","stimuli/AF02_HO.jpg","HO","AF02","3","2.5","5","4","stimuli/stars_5.png","81.5","[""AO"",""SC"",""CC"",""HO""]","[""WF04"",""BM04"",""AM09"",""AF02""]","[7,4,8,5]","[8,2,6,4]","","",""
"show-reward","72","229632","0.0-72.0","p466195","AE4FRGGT254D3","3P888QFVX40Z2B7BK75OWKP045JQOK","386CSBG1O1SC0PZ1ADOV44YY2IT6Q8","model","match","uniform","","","","","","","","228863.90000009537","230868.59999990463","","","","","","","","","","","","5","","stimuli/stars_5.png","81.5","","","","","stimuli/AF02_HO.jpg","",""
"explore-choice","73","231889","0.0-73.0","p466195","AE4FRGGT254D3","3P888QFVX40Z2B7BK75OWKP045JQOK","386CSBG1O1SC0PZ1ADOV44YY2IT6Q8","model","match","uniform","","","","","","","1750.7000000476837","230869.20000004768","232619.90000009537","[""stimuli/WF04_HO.jpg"",""stimuli/AM09_SC.jpg"",""stimuli/BM04_CC.jpg"",""stimuli/AF02_AO.jpg""]","stimuli/WF04_HO.jpg","stimuli/AM09_SC.jpg","stimuli/BM04_CC.jpg","stimuli/AF02_AO.jpg","pos1","stimuli/WF04_HO.jpg","HO","WF04","0","5","10","8","stimuli/stars_10.png","86.5","[""HO"",""SC"",""CC"",""AO""]","[""WF04"",""AM09"",""BM04"",""AF02""]","[10,7,3,2]","[8,6,2,4]","","",""
"show-reward","74","233891","0.0-74.0","p466195","AE4FRGGT254D3","3P888QFVX40Z2B7BK75OWKP045JQOK","386CSBG1O1SC0PZ1ADOV44YY2IT6Q8","model","match","uniform","","","","","","","","233126.70000004768","235128.40000009537","","","","","","","","","","","","10","","stimuli/stars_10.png","86.5","","","","","stimuli/WF04_HO.jpg","",""
"explore-choice","75","235979","0.0-75.0","p466195","AE4FRGGT254D3","3P888QFVX40Z2B7BK75OWKP045JQOK","386CSBG1O1SC0PZ1ADOV44YY2IT6Q8","model","match","uniform","","","","","","","1579.5999999046326","235128.90000009537","236708.5","[""stimuli/WF04_CC.jpg"",""stimuli/AF02_HO.jpg"",""stimuli/AM09_AO.jpg"",""stimuli/BM04_SC.jpg""]","stimuli/WF04_CC.jpg","stimuli/AF02_HO.jpg","stimuli/AM09_AO.jpg","stimuli/BM04_SC.jpg","pos2","stimuli/AF02_HO.jpg","HO","AF02","1","3","6","4","stimuli/stars_6.png","89.5","[""CC"",""HO"",""AO"",""SC""]","[""WF04"",""AF02"",""AM09"",""BM04""]","[8,6,4,2]","[8,4,6,2]","","",""
"show-reward","76","237987","0.0-76.0","p466195","AE4FRGGT254D3","3P888QFVX40Z2B7BK75OWKP045JQOK","386CSBG1O1SC0PZ1ADOV44YY2IT6Q8","model","match","uniform","","","","","","","","237216.59999990463","239223.79999995232","","","","","","","","","","","","6","","stimuli/stars_6.png","89.5","","","","","stimuli/AF02_HO.jpg","",""
"explore-choice","77","241540","0.0-77.0","p466195","AE4FRGGT254D3","3P888QFVX40Z2B7BK75OWKP045JQOK","386CSBG1O1SC0PZ1ADOV44YY2IT6Q8","model","match","uniform","","","","","","","3040.9000000953674","239224.29999995232","242265.20000004768","[""stimuli/BM04_CC.jpg"",""stimuli/AM09_HO.jpg"",""stimuli/AF02_SC.jpg"",""stimuli/WF04_AO.jpg""]","stimuli/BM04_CC.jpg","stimuli/AM09_HO.jpg","stimuli/AF02_SC.jpg","stimuli/WF04_AO.jpg","pos2","stimuli/AM09_HO.jpg","HO","AM09","1","4","8","6","stimuli/stars_8.png","93.5","[""CC"",""HO"",""SC"",""AO""]","[""BM04"",""AM09"",""AF02"",""WF04""]","[2,8,4,7]","[2,6,4,8]","","",""
"show-reward","78","243542","0.0-78.0","p466195","AE4FRGGT254D3","3P888QFVX40Z2B7BK75OWKP045JQOK","386CSBG1O1SC0PZ1ADOV44YY2IT6Q8","model","match","uniform","","","","","","","","242777.70000004768","244779.5","","","","","","","","","","","","8","","stimuli/stars_8.png","93.5","","","","","stimuli/AM09_HO.jpg","",""
"explore-choice","79","246097","0.0-79.0","p466195","AE4FRGGT254D3","3P888QFVX40Z2B7BK75OWKP045JQOK","386CSBG1O1SC0PZ1ADOV44YY2IT6Q8","model","match","uniform","","","","","","","2052.5","244779.79999995232","246832.29999995232","[""stimuli/BM04_SC.jpg"",""stimuli/AM09_CC.jpg"",""stimuli/WF04_HO.jpg"",""stimuli/AF02_AO.jpg""]","stimuli/BM04_SC.jpg","stimuli/AM09_CC.jpg","stimuli/WF04_HO.jpg","stimuli/AF02_AO.jpg","pos3","stimuli/WF04_HO.jpg","HO","WF04","2","3","6","8","stimuli/stars_6.png","96.5","[""SC"",""CC"",""HO"",""AO""]","[""BM04"",""AM09"",""WF04"",""AF02""]","[2,6,6,4]","[2,6,8,4]","","",""
"show-reward","80","248099","0.0-80.0","p466195","AE4FRGGT254D3","3P888QFVX40Z2B7BK75OWKP045JQOK","386CSBG1O1SC0PZ1ADOV44YY2IT6Q8","model","match","uniform","","","","","","","","247334.59999990463","249336.5","","","","","","","","","","","","6","","stimuli/stars_6.png","96.5","","","","","stimuli/WF04_HO.jpg","",""
"explore-choice","81","250423","0.0-81.0","p466195","AE4FRGGT254D3","3P888QFVX40Z2B7BK75OWKP045JQOK","386CSBG1O1SC0PZ1ADOV44YY2IT6Q8","model","match","uniform","","","","","","","1807.7999999523163","249336.90000009537","251144.70000004768","[""stimuli/AM09_SC.jpg"",""stimuli/BM04_AO.jpg"",""stimuli/WF04_CC.jpg"",""stimuli/AF02_HO.jpg""]","stimuli/AM09_SC.jpg","stimuli/BM04_AO.jpg","stimuli/WF04_CC.jpg","stimuli/AF02_HO.jpg","pos4","stimuli/AF02_HO.jpg","HO","AF02","3","1","2","4","stimuli/stars_2.png","97.5","[""SC"",""AO"",""CC"",""HO""]","[""AM09"",""BM04"",""WF04"",""AF02""]","[8,4,7,2]","[6,2,8,4]","","",""
"show-reward","82","252426","0.0-82.0","p466195","AE4FRGGT254D3","3P888QFVX40Z2B7BK75OWKP045JQOK","386CSBG1O1SC0PZ1ADOV44YY2IT6Q8","model","match","uniform","","","","","","","","251660.40000009537","253662.70000004768","","","","","","","","","","","","2","","stimuli/stars_2.png","97.5","","","","","stimuli/AF02_HO.jpg","",""
"explore-choice","83","255536","0.0-83.0","p466195","AE4FRGGT254D3","3P888QFVX40Z2B7BK75OWKP045JQOK","386CSBG1O1SC0PZ1ADOV44YY2IT6Q8","model","match","uniform","","","","","","","2603.5","253663.70000004768","256267.20000004768","[""stimuli/AM09_CC.jpg"",""stimuli/BM04_HO.jpg"",""stimuli/AF02_SC.jpg"",""stimuli/WF04_AO.jpg""]","stimuli/AM09_CC.jpg","stimuli/BM04_HO.jpg","stimuli/AF02_SC.jpg","stimuli/WF04_AO.jpg","pos2","stimuli/BM04_HO.jpg","HO","BM04","1","1","2","2","stimuli/stars_2.png","98.5","[""CC"",""HO"",""SC"",""AO""]","[""AM09"",""BM04"",""AF02"",""WF04""]","[4,2,4,6]","[6,2,4,8]","","",""
"show-reward","84","257538","0.0-84.0","p466195","AE4FRGGT254D3","3P888QFVX40Z2B7BK75OWKP045JQOK","386CSBG1O1SC0PZ1ADOV44YY2IT6Q8","model","match","uniform","","","","","","","","256773.90000009537","258774.90000009537","","","","","","","","","","","","2","","stimuli/stars_2.png","98.5","","","","","stimuli/BM04_HO.jpg","",""
"explore-choice","85","260624","0.0-85.0","p466195","AE4FRGGT254D3","3P888QFVX40Z2B7BK75OWKP045JQOK","386CSBG1O1SC0PZ1ADOV44YY2IT6Q8","model","match","uniform","","","","","","","2584.5","258775.40000009537","261359.90000009537","[""stimuli/AF02_HO.jpg"",""stimuli/BM04_AO.jpg"",""stimuli/WF04_SC.jpg"",""stimuli/AM09_CC.jpg""]","stimuli/AF02_HO.jpg","stimuli/BM04_AO.jpg","stimuli/WF04_SC.jpg","stimuli/AM09_CC.jpg","pos1","stimuli/AF02_HO.jpg","HO","AF02","0","1.5","3","4","stimuli/stars_3.png","100","[""HO"",""AO"",""SC"",""CC""]","[""AF02"",""BM04"",""WF04"",""AM09""]","[3,1,6,5]","[4,2,8,6]","","",""
"show-reward","86","262626","0.0-86.0","p466195","AE4FRGGT254D3","3P888QFVX40Z2B7BK75OWKP045JQOK","386CSBG1O1SC0PZ1ADOV44YY2IT6Q8","model","match","uniform","","","","","","","","261861.59999990463","263863","","","","","","","","","","","","3","","stimuli/stars_3.png","100","","","","","stimuli/AF02_HO.jpg","",""
"explore-choice","87","265836","0.0-87.0","p466195","AE4FRGGT254D3","3P888QFVX40Z2B7BK75OWKP045JQOK","386CSBG1O1SC0PZ1ADOV44YY2IT6Q8","model","match","uniform","","","","","","","2708.4000000953674","263863.59999990463","266572","[""stimuli/AM09_HO.jpg"",""stimuli/AF02_AO.jpg"",""stimuli/BM04_SC.jpg"",""stimuli/WF04_CC.jpg""]","stimuli/AM09_HO.jpg","stimuli/AF02_AO.jpg","stimuli/BM04_SC.jpg","stimuli/WF04_CC.jpg","pos2","stimuli/AF02_AO.jpg","AO","AF02","1","1.5","3","4","stimuli/stars_3.png","101.5","[""HO"",""AO"",""SC"",""CC""]","[""AM09"",""AF02"",""BM04"",""WF04""]","[7,3,2,10]","[6,4,2,8]","","",""
"show-reward","88","267851","0.0-88.0","p466195","AE4FRGGT254D3","3P888QFVX40Z2B7BK75OWKP045JQOK","386CSBG1O1SC0PZ1ADOV44YY2IT6Q8","model","match","uniform","","","","","","","","267073.90000009537","269087.59999990463","","","","","","","","","","","","3","","stimuli/stars_3.png","101.5","","","","","stimuli/AF02_AO.jpg","",""
"explore-choice","89","269863","0.0-89.0","p466195","AE4FRGGT254D3","3P888QFVX40Z2B7BK75OWKP045JQOK","386CSBG1O1SC0PZ1ADOV44YY2IT6Q8","model","match","uniform","","","","","","","1496.7999999523163","269088.40000009537","270585.2000000477","[""stimuli/AM09_HO.jpg"",""stimuli/WF04_SC.jpg"",""stimuli/BM04_CC.jpg"",""stimuli/AF02_AO.jpg""]","stimuli/AM09_HO.jpg","stimuli/WF04_SC.jpg","stimuli/BM04_CC.jpg","stimuli/AF02_AO.jpg","pos1","stimuli/AM09_HO.jpg","HO","AM09","0","2.5","5","6","stimuli/stars_5.png","104","[""HO"",""SC"",""CC"",""AO""]","[""AM09"",""WF04"",""BM04"",""AF02""]","[5,8,2,5]","[6,8,2,4]","","",""
"show-reward","90","271878","0.0-90.0","p466195","AE4FRGGT254D3","3P888QFVX40Z2B7BK75OWKP045JQOK","386CSBG1O1SC0PZ1ADOV44YY2IT6Q8","model","match","uniform","","","","","","","","271101.09999990463","273115.2000000477","","","","","","","","","","","","5","","stimuli/stars_5.png","104","","","","","stimuli/AM09_HO.jpg","",""
"explore-choice","91","273958","0.0-91.0","p466195","AE4FRGGT254D3","3P888QFVX40Z2B7BK75OWKP045JQOK","386CSBG1O1SC0PZ1ADOV44YY2IT6Q8","model","match","uniform","","","","","","","1571.0999999046326","273115.90000009537","274687","[""stimuli/AM09_SC.jpg"",""stimuli/BM04_HO.jpg"",""stimuli/AF02_AO.jpg"",""stimuli/WF04_CC.jpg""]","stimuli/AM09_SC.jpg","stimuli/BM04_HO.jpg","stimuli/AF02_AO.jpg","stimuli/WF04_CC.jpg","pos2","stimuli/BM04_HO.jpg","HO","BM04","1","2","4","2","stimuli/stars_4.png","106","[""SC"",""HO"",""AO"",""CC""]","[""AM09"",""BM04"",""AF02"",""WF04""]","[6,4,4,7]","[6,2,4,8]","","",""
"show-reward","92","275961","0.0-92.0","p466195","AE4FRGGT254D3","3P888QFVX40Z2B7BK75OWKP045JQOK","386CSBG1O1SC0PZ1ADOV44YY2IT6Q8","model","match","uniform","","","","","","","","275195.7999999523","277197.40000009537","","","","","","","","","","","","4","","stimuli/stars_4.png","106","","","","","stimuli/BM04_HO.jpg","",""
"explore-choice","93","278840","0.0-93.0","p466195","AE4FRGGT254D3","3P888QFVX40Z2B7BK75OWKP045JQOK","386CSBG1O1SC0PZ1ADOV44YY2IT6Q8","model","match","uniform","","","","","","","2378.5","277198.09999990463","279576.59999990463","[""stimuli/WF04_HO.jpg"",""stimuli/BM04_AO.jpg"",""stimuli/AM09_CC.jpg"",""stimuli/AF02_SC.jpg""]","stimuli/WF04_HO.jpg","stimuli/BM04_AO.jpg","stimuli/AM09_CC.jpg","stimuli/AF02_SC.jpg","pos3","stimuli/AM09_CC.jpg","CC","AM09","2","2","4","6","stimuli/stars_4.png","108","[""HO"",""AO"",""CC"",""SC""]","[""WF04"",""BM04"",""AM09"",""AF02""]","[7,1,4,4]","[8,2,6,4]","","",""
"show-reward","94","280848","0.0-94.0","p466195","AE4FRGGT254D3","3P888QFVX40Z2B7BK75OWKP045JQOK","386CSBG1O1SC0PZ1ADOV44YY2IT6Q8","model","match","uniform","","","","","","","","280077.59999990463","282084.5","","","","","","","","","","","","4","","stimuli/stars_4.png","108","","","","","stimuli/AM09_CC.jpg","",""
"explore-choice","95","282649","0.0-95.0","p466195","AE4FRGGT254D3","3P888QFVX40Z2B7BK75OWKP045JQOK","386CSBG1O1SC0PZ1ADOV44YY2IT6Q8","model","match","uniform","","","","","","","1294.2999999523163","282085","283379.2999999523","[""stimuli/AF02_AO.jpg"",""stimuli/AM09_CC.jpg"",""stimuli/BM04_HO.jpg"",""stimuli/WF04_SC.jpg""]","stimuli/AF02_AO.jpg","stimuli/AM09_CC.jpg","stimuli/BM04_HO.jpg","stimuli/WF04_SC.jpg","pos1","stimuli/AF02_AO.jpg","AO","AF02","0","3","6","4","stimuli/stars_6.png","111","[""AO"",""CC"",""HO"",""SC""]","[""AF02"",""AM09"",""BM04"",""WF04""]","[6,8,4,8]","[4,6,2,8]","","",""
"show-reward","96","284651","0.0-96.0","p466195","AE4FRGGT254D3","3P888QFVX40Z2B7BK75OWKP045JQOK","386CSBG1O1SC0PZ1ADOV44YY2IT6Q8","model","match","uniform","","","","","","","","283886.7000000477","285888.5","","","","","","","","","","","","6","","stimuli/stars_6.png","111","","","","","stimuli/AF02_AO.jpg","",""
"explore-choice","97","287588","0.0-97.0","p466195","AE4FRGGT254D3","3P888QFVX40Z2B7BK75OWKP045JQOK","386CSBG1O1SC0PZ1ADOV44YY2IT6Q8","model","match","uniform","","","","","","","2425.100000143051","285889.09999990463","288314.2000000477","[""stimuli/WF04_SC.jpg"",""stimuli/AF02_CC.jpg"",""stimuli/BM04_HO.jpg"",""stimuli/AM09_AO.jpg""]","stimuli/WF04_SC.jpg","stimuli/AF02_CC.jpg","stimuli/BM04_HO.jpg","stimuli/AM09_AO.jpg","pos4","stimuli/AM09_AO.jpg","AO","AM09","3","2.5","5","6","stimuli/stars_5.png","113.5","[""SC"",""CC"",""HO"",""AO""]","[""WF04"",""AF02"",""BM04"",""AM09""]","[6,4,0,5]","[8,4,2,6]","","",""
"show-reward","98","289593","0.0-98.0","p466195","AE4FRGGT254D3","3P888QFVX40Z2B7BK75OWKP045JQOK","386CSBG1O1SC0PZ1ADOV44YY2IT6Q8","model","match","uniform","","","","","","","","288826.2000000477","290830.5","","","","","","","","","","","","5","","stimuli/stars_5.png","113.5","","","","","stimuli/AM09_AO.jpg","",""
"explore-choice","99","291455","0.0-99.0","p466195","AE4FRGGT254D3","3P888QFVX40Z2B7BK75OWKP045JQOK","386CSBG1O1SC0PZ1ADOV44YY2IT6Q8","model","match","uniform","","","","","","","1360.4000000953674","290831.2999999523","292191.7000000477","[""stimuli/BM04_CC.jpg"",""stimuli/AF02_SC.jpg"",""stimuli/AM09_AO.jpg"",""stimuli/WF04_HO.jpg""]","stimuli/BM04_CC.jpg","stimuli/AF02_SC.jpg","stimuli/AM09_AO.jpg","stimuli/WF04_HO.jpg","pos1","stimuli/BM04_CC.jpg","CC","BM04","0","1.5","3","2","stimuli/stars_3.png","115","[""CC"",""SC"",""AO"",""HO""]","[""BM04"",""AF02"",""AM09"",""WF04""]","[3,4,4,8]","[2,4,6,8]","","",""
"show-reward","100","293461","0.0-100.0","p466195","AE4FRGGT254D3","3P888QFVX40Z2B7BK75OWKP045JQOK","386CSBG1O1SC0PZ1ADOV44YY2IT6Q8","model","match","uniform","","","","","","","","292692.7999999523","294698.2000000477","","","","","","","","","","","","3","","stimuli/stars_3.png","115","","","","","stimuli/BM04_CC.jpg","",""
"explore-choice","101","296943","0.0-101.0","p466195","AE4FRGGT254D3","3P888QFVX40Z2B7BK75OWKP045JQOK","386CSBG1O1SC0PZ1ADOV44YY2IT6Q8","model","match","uniform","","","","","","","2975.7000000476837","294698.7999999523","297674.5","[""stimuli/WF04_CC.jpg"",""stimuli/AF02_SC.jpg"",""stimuli/BM04_AO.jpg"",""stimuli/AM09_HO.jpg""]","stimuli/WF04_CC.jpg","stimuli/AF02_SC.jpg","stimuli/BM04_AO.jpg","stimuli/AM09_HO.jpg","pos4","stimuli/AM09_HO.jpg","HO","AM09","3","3","6","6","stimuli/stars_6.png","118","[""CC"",""SC"",""AO"",""HO""]","[""WF04"",""AF02"",""BM04"",""AM09""]","[7,4,1,6]","[8,4,2,6]","","",""
"show-reward","102","298953","0.0-102.0","p466195","AE4FRGGT254D3","3P888QFVX40Z2B7BK75OWKP045JQOK","386CSBG1O1SC0PZ1ADOV44YY2IT6Q8","model","match","uniform","","","","","","","","298181.59999990463","300190.2000000477","","","","","","","","","","","","6","","stimuli/stars_6.png","118","","","","","stimuli/AM09_HO.jpg","",""
"explore-choice","103","301812","0.0-103.0","p466195","AE4FRGGT254D3","3P888QFVX40Z2B7BK75OWKP045JQOK","386CSBG1O1SC0PZ1ADOV44YY2IT6Q8","model","match","uniform","","","","","","","2359","300190.7999999523","302549.7999999523","[""stimuli/HM07_FO.jpg"",""stimuli/BF05_HE.jpg"",""stimuli/AF11_DO.jpg"",""stimuli/BM16_SUR.jpg""]","stimuli/HM07_FO.jpg","stimuli/BF05_HE.jpg","stimuli/AF11_DO.jpg","stimuli/BM16_SUR.jpg","pos1","stimuli/HM07_FO.jpg","FO","HM07","0","0.5","1","2","stimuli/stars_1.png","118.5","[""FO"",""HE"",""DO"",""SUR""]","[""HM07"",""BF05"",""AF11"",""BM16""]","[1,8,3,8]","[2,6,4,8]","","",""
"show-reward","104","303815","0.0-104.0","p466195","AE4FRGGT254D3","3P888QFVX40Z2B7BK75OWKP045JQOK","386CSBG1O1SC0PZ1ADOV44YY2IT6Q8","model","match","uniform","","","","","","","","303050.7000000477","305052.2999999523","","","","","","","","","","","","1","","stimuli/stars_1.png","118.5","","","","","stimuli/HM07_FO.jpg","",""
"explore-choice","105","305692","0.0-105.0","p466195","AE4FRGGT254D3","3P888QFVX40Z2B7BK75OWKP045JQOK","386CSBG1O1SC0PZ1ADOV44YY2IT6Q8","model","match","uniform","","","","","","","1373.9000000953674","305053","306426.90000009537","[""stimuli/BM16_DO.jpg"",""stimuli/AF11_HE.jpg"",""stimuli/BF05_FO.jpg"",""stimuli/HM07_SUR.jpg""]","stimuli/BM16_DO.jpg","stimuli/AF11_HE.jpg","stimuli/BF05_FO.jpg","stimuli/HM07_SUR.jpg","pos2","stimuli/AF11_HE.jpg","HE","AF11","1","1.5","3","4","stimuli/stars_3.png","120","[""DO"",""HE"",""FO"",""SUR""]","[""BM16"",""AF11"",""BF05"",""HM07""]","[7,3,4,1]","[8,4,6,2]","","",""
"show-reward","106","307701","0.0-106.0","p466195","AE4FRGGT254D3","3P888QFVX40Z2B7BK75OWKP045JQOK","386CSBG1O1SC0PZ1ADOV44YY2IT6Q8","model","match","uniform","","","","","","","","306930.2999999523","308938.5","","","","","","","","","","","","3","","stimuli/stars_3.png","120","","","","","stimuli/AF11_HE.jpg","",""
"explore-choice","107","310294","0.0-107.0","p466195","AE4FRGGT254D3","3P888QFVX40Z2B7BK75OWKP045JQOK","386CSBG1O1SC0PZ1ADOV44YY2IT6Q8","model","match","uniform","","","","","","","2085.0999999046326","308939.2000000477","311024.2999999523","[""stimuli/AF11_FO.jpg"",""stimuli/BM16_SUR.jpg"",""stimuli/BF05_HE.jpg"",""stimuli/HM07_DO.jpg""]","stimuli/AF11_FO.jpg","stimuli/BM16_SUR.jpg","stimuli/BF05_HE.jpg","stimuli/HM07_DO.jpg","pos3","stimuli/BF05_HE.jpg","HE","BF05","2","3.5","7","6","stimuli/stars_7.png","123.5","[""FO"",""SUR"",""HE"",""DO""]","[""AF11"",""BM16"",""BF05"",""HM07""]","[2,7,7,4]","[4,8,6,2]","","",""
"show-reward","108","312308","0.0-108.0","p466195","AE4FRGGT254D3","3P888QFVX40Z2B7BK75OWKP045JQOK","386CSBG1O1SC0PZ1ADOV44YY2IT6Q8","model","match","uniform","","","","","","","","311532.2999999523","313545.7999999523","","","","","","","","","","","","7","","stimuli/stars_7.png","123.5","","","","","stimuli/BF05_HE.jpg","",""
"explore-choice","109","317185","0.0-109.0","p466195","AE4FRGGT254D3","3P888QFVX40Z2B7BK75OWKP045JQOK","386CSBG1O1SC0PZ1ADOV44YY2IT6Q8","model","match","uniform","","","","","","","4363.299999952316","313546.5","317909.7999999523","[""stimuli/HM07_HE.jpg"",""stimuli/BF05_DO.jpg"",""stimuli/BM16_SUR.jpg"",""stimuli/AF11_FO.jpg""]","stimuli/HM07_HE.jpg","stimuli/BF05_DO.jpg","stimuli/BM16_SUR.jpg","stimuli/AF11_FO.jpg","pos2","stimuli/BF05_DO.jpg","DO","BF05","1","4","8","6","stimuli/stars_8.png","127.5","[""HE"",""DO"",""SUR"",""FO""]","[""HM07"",""BF05"",""BM16"",""AF11""]","[2,8,7,5]","[2,6,8,4]","","",""
"show-reward","110","319193","0.0-110.0","p466195","AE4FRGGT254D3","3P888QFVX40Z2B7BK75OWKP045JQOK","386CSBG1O1SC0PZ1ADOV44YY2IT6Q8","model","match","uniform","","","","","","","","318423","320431","","","","","","","","","","","","8","","stimuli/stars_8.png","127.5","","","","","stimuli/BF05_DO.jpg","",""
"explore-choice","111","321313","0.0-111.0","p466195","AE4FRGGT254D3","3P888QFVX40Z2B7BK75OWKP045JQOK","386CSBG1O1SC0PZ1ADOV44YY2IT6Q8","model","match","uniform","","","","","","","1617.7999999523163","320431.7000000477","322049.5","[""stimuli/BM16_HE.jpg"",""stimuli/HM07_SUR.jpg"",""stimuli/BF05_DO.jpg"",""stimuli/AF11_FO.jpg""]","stimuli/BM16_HE.jpg","stimuli/HM07_SUR.jpg","stimuli/BF05_DO.jpg","stimuli/AF11_FO.jpg","pos1","stimuli/BM16_HE.jpg","HE","BM16","0","3","6","8","stimuli/stars_6.png","130.5","[""HE"",""SUR"",""DO"",""FO""]","[""BM16"",""HM07"",""BF05"",""AF11""]","[6,2,5,2]","[8,2,6,4]","","",""
"show-reward","112","323315","0.0-112.0","p466195","AE4FRGGT254D3","3P888QFVX40Z2B7BK75OWKP045JQOK","386CSBG1O1SC0PZ1ADOV44YY2IT6Q8","model","match","uniform","","","","","","","","322551.59999990463","324552.90000009537","","","","","","","","","","","","6","","stimuli/stars_6.png","130.5","","","","","stimuli/BM16_HE.jpg","",""
"explore-choice","113","324957","0.0-113.0","p466195","AE4FRGGT254D3","3P888QFVX40Z2B7BK75OWKP045JQOK","386CSBG1O1SC0PZ1ADOV44YY2IT6Q8","model","match","uniform","","","","","","","1140.1999998092651","324553.90000009537","325694.09999990463","[""stimuli/BF05_FO.jpg"",""stimuli/BM16_SUR.jpg"",""stimuli/AF11_HE.jpg"",""stimuli/HM07_DO.jpg""]","stimuli/BF05_FO.jpg","stimuli/BM16_SUR.jpg","stimuli/AF11_HE.jpg","stimuli/HM07_DO.jpg","pos1","stimuli/BF05_FO.jpg","FO","BF05","0","2.5","5","6","stimuli/stars_5.png","133","[""FO"",""SUR"",""HE"",""DO""]","[""BF05"",""BM16"",""AF11"",""HM07""]","[5,10,2,0]","[6,8,4,2]","","",""
"show-reward","114","326959","0.0-114.0","p466195","AE4FRGGT254D3","3P888QFVX40Z2B7BK75OWKP045JQOK","386CSBG1O1SC0PZ1ADOV44YY2IT6Q8","model","match","uniform","","","","","","","","326195.2000000477","328196.59999990463","","","","","","","","","","","","5","","stimuli/stars_5.png","133","","","","","stimuli/BF05_FO.jpg","",""
"explore-choice","115","329129","0.0-115.0","p466195","AE4FRGGT254D3","3P888QFVX40Z2B7BK75OWKP045JQOK","386CSBG1O1SC0PZ1ADOV44YY2IT6Q8","model","match","uniform","","","","","","","1659.3999998569489","328197.2000000477","329856.59999990463","[""stimuli/BF05_DO.jpg"",""stimuli/BM16_SUR.jpg"",""stimuli/AF11_HE.jpg"",""stimuli/HM07_FO.jpg""]","stimuli/BF05_DO.jpg","stimuli/BM16_SUR.jpg","stimuli/AF11_HE.jpg","stimuli/HM07_FO.jpg","pos1","stimuli/BF05_DO.jpg","DO","BF05","0","3","6","6","stimuli/stars_6.png","136","[""DO"",""SUR"",""HE"",""FO""]","[""BF05"",""BM16"",""AF11"",""HM07""]","[6,7,5,3]","[6,8,4,2]","","",""
"show-reward","116","331130","0.0-116.0","p466195","AE4FRGGT254D3","3P888QFVX40Z2B7BK75OWKP045JQOK","386CSBG1O1SC0PZ1ADOV44YY2IT6Q8","model","match","uniform","","","","","","","","330367.09999990463","332368.09999990463","","","","","","","","","","","","6","","stimuli/stars_6.png","136","","","","","stimuli/BF05_DO.jpg","",""
"explore-choice","117","333054","0.0-117.0","p466195","AE4FRGGT254D3","3P888QFVX40Z2B7BK75OWKP045JQOK","386CSBG1O1SC0PZ1ADOV44YY2IT6Q8","model","match","uniform","","","","","","","1410.5","332368.5","333779","[""stimuli/BF05_FO.jpg"",""stimuli/AF11_DO.jpg"",""stimuli/BM16_HE.jpg"",""stimuli/HM07_SUR.jpg""]","stimuli/BF05_FO.jpg","stimuli/AF11_DO.jpg","stimuli/BM16_HE.jpg","stimuli/HM07_SUR.jpg","pos1","stimuli/BF05_FO.jpg","FO","BF05","0","3","6","6","stimuli/stars_6.png","139","[""FO"",""DO"",""HE"",""SUR""]","[""BF05"",""AF11"",""BM16"",""HM07""]","[6,6,6,2]","[6,4,8,2]","","",""
"show-reward","118","335055","0.0-118.0","p466195","AE4FRGGT254D3","3P888QFVX40Z2B7BK75OWKP045JQOK","386CSBG1O1SC0PZ1ADOV44YY2IT6Q8","model","match","uniform","","","","","","","","334291.7999999523","336292.7999999523","","","","","","","","","","","","6","","stimuli/stars_6.png","139","","","","","stimuli/BF05_FO.jpg","",""
"explore-choice","119","337670","0.0-119.0","p466195","AE4FRGGT254D3","3P888QFVX40Z2B7BK75OWKP045JQOK","386CSBG1O1SC0PZ1ADOV44YY2IT6Q8","model","match","uniform","","","","","","","2113","336293.5","338406.5","[""stimuli/BM16_DO.jpg"",""stimuli/BF05_SUR.jpg"",""stimuli/AF11_HE.jpg"",""stimuli/HM07_FO.jpg""]","stimuli/BM16_DO.jpg","stimuli/BF05_SUR.jpg","stimuli/AF11_HE.jpg","stimuli/HM07_FO.jpg","pos3","stimuli/AF11_HE.jpg","HE","AF11","2","2","4","4","stimuli/stars_4.png","141","[""DO"",""SUR"",""HE"",""FO""]","[""BM16"",""BF05"",""AF11"",""HM07""]","[9,8,4,4]","[8,6,4,2]","","",""
"show-reward","120","339679","0.0-120.0","p466195","AE4FRGGT254D3","3P888QFVX40Z2B7BK75OWKP045JQOK","386CSBG1O1SC0PZ1ADOV44YY2IT6Q8","model","match","uniform","","","","","","","","338908.5","340916.09999990463","","","","","","","","","","","","4","","stimuli/stars_4.png","141","","","","","stimuli/AF11_HE.jpg","",""
"explore-choice","121","342627","0.0-121.0","p466195","AE4FRGGT254D3","3P888QFVX40Z2B7BK75OWKP045JQOK","386CSBG1O1SC0PZ1ADOV44YY2IT6Q8","model","match","uniform","","","","","","","2447.4000000953674","340916.7999999523","343364.2000000477","[""stimuli/BF05_SUR.jpg"",""stimuli/AF11_DO.jpg"",""stimuli/BM16_FO.jpg"",""stimuli/HM07_HE.jpg""]","stimuli/BF05_SUR.jpg","stimuli/AF11_DO.jpg","stimuli/BM16_FO.jpg","stimuli/HM07_HE.jpg","pos4","stimuli/HM07_HE.jpg","HE","HM07","3","0","0","2","stimuli/stars_0.png","141","[""SUR"",""DO"",""FO"",""HE""]","[""BF05"",""AF11"",""BM16"",""HM07""]","[7,2,8,0]","[6,4,8,2]","","",""
"show-reward","122","344629","0.0-122.0","p466195","AE4FRGGT254D3","3P888QFVX40Z2B7BK75OWKP045JQOK","386CSBG1O1SC0PZ1ADOV44YY2IT6Q8","model","match","uniform","","","","","","","","343865.2999999523","345866.2000000477","","","","","","","","","","","","0","","stimuli/stars_0.png","141","","","","","stimuli/HM07_HE.jpg","",""
"explore-choice","123","347790","0.0-123.0","p466195","AE4FRGGT254D3","3P888QFVX40Z2B7BK75OWKP045JQOK","386CSBG1O1SC0PZ1ADOV44YY2IT6Q8","model","match","uniform","","","","","","","2657","345866.7000000477","348523.7000000477","[""stimuli/AF11_SUR.jpg"",""stimuli/BM16_DO.jpg"",""stimuli/HM07_HE.jpg"",""stimuli/BF05_FO.jpg""]","stimuli/AF11_SUR.jpg","stimuli/BM16_DO.jpg","stimuli/HM07_HE.jpg","stimuli/BF05_FO.jpg","pos3","stimuli/HM07_HE.jpg","HE","HM07","2","0.5","1","2","stimuli/stars_1.png","141.5","[""SUR"",""DO"",""HE"",""FO""]","[""AF11"",""BM16"",""HM07"",""BF05""]","[2,7,1,6]","[4,8,2,6]","","",""
"show-reward","124","349793","0.0-124.0","p466195","AE4FRGGT254D3","3P888QFVX40Z2B7BK75OWKP045JQOK","386CSBG1O1SC0PZ1ADOV44YY2IT6Q8","model","match","uniform","","","","","","","","349028.5","351030.40000009537","","","","","","","","","","","","1","","stimuli/stars_1.png","141.5","","","","","stimuli/HM07_HE.jpg","",""
"explore-choice","125","351708","0.0-125.0","p466195","AE4FRGGT254D3","3P888QFVX40Z2B7BK75OWKP045JQOK","386CSBG1O1SC0PZ1ADOV44YY2IT6Q8","model","match","uniform","","","","","","","1400.5999999046326","351030.90000009537","352431.5","[""stimuli/BM16_DO.jpg"",""stimuli/HM07_SUR.jpg"",""stimuli/BF05_HE.jpg"",""stimuli/AF11_FO.jpg""]","stimuli/BM16_DO.jpg","stimuli/HM07_SUR.jpg","stimuli/BF05_HE.jpg","stimuli/AF11_FO.jpg","pos3","stimuli/BF05_HE.jpg","HE","BF05","2","3","6","6","stimuli/stars_6.png","144.5","[""DO"",""SUR"",""HE"",""FO""]","[""BM16"",""HM07"",""BF05"",""AF11""]","[6,3,6,3]","[8,2,6,4]","","",""
"show-reward","126","353721","0.0-126.0","p466195","AE4FRGGT254D3","3P888QFVX40Z2B7BK75OWKP045JQOK","386CSBG1O1SC0PZ1ADOV44YY2IT6Q8","model","match","uniform","","","","","","","","352946","354958.5","","","","","","","","","","","","6","","stimuli/stars_6.png","144.5","","","","","stimuli/BF05_HE.jpg","",""
"explore-choice","127","356120","0.0-127.0","p466195","AE4FRGGT254D3","3P888QFVX40Z2B7BK75OWKP045JQOK","386CSBG1O1SC0PZ1ADOV44YY2IT6Q8","model","match","uniform","","","","","","","1889.7000000476837","354959.2000000477","356848.90000009537","[""stimuli/BF05_DO.jpg"",""stimuli/HM07_HE.jpg"",""stimuli/BM16_FO.jpg"",""stimuli/AF11_SUR.jpg""]","stimuli/BF05_DO.jpg","stimuli/HM07_HE.jpg","stimuli/BM16_FO.jpg","stimuli/AF11_SUR.jpg","pos1","stimuli/BF05_DO.jpg","DO","BF05","0","3","6","6","stimuli/stars_6.png","147.5","[""DO"",""HE"",""FO"",""SUR""]","[""BF05"",""HM07"",""BM16"",""AF11""]","[6,3,6,5]","[6,2,8,4]","","",""
"show-reward","128","358123","0.0-128.0","p466195","AE4FRGGT254D3","3P888QFVX40Z2B7BK75OWKP045JQOK","386CSBG1O1SC0PZ1ADOV44YY2IT6Q8","model","match","uniform","","","","","","","","357358.5","359360.2000000477","","","","","","","","","","","","6","","stimuli/stars_6.png","147.5","","","","","stimuli/BF05_DO.jpg","",""
"explore-choice","129","359870","0.0-129.0","p466195","AE4FRGGT254D3","3P888QFVX40Z2B7BK75OWKP045JQOK","386CSBG1O1SC0PZ1ADOV44YY2IT6Q8","model","match","uniform","","","","","","","1238.2999999523163","359360.7999999523","360599.09999990463","[""stimuli/BF05_HE.jpg"",""stimuli/BM16_FO.jpg"",""stimuli/AF11_SUR.jpg"",""stimuli/HM07_DO.jpg""]","stimuli/BF05_HE.jpg","stimuli/BM16_FO.jpg","stimuli/AF11_SUR.jpg","stimuli/HM07_DO.jpg","pos1","stimuli/BF05_HE.jpg","HE","BF05","0","4","8","6","stimuli/stars_8.png","151.5","[""HE"",""FO"",""SUR"",""DO""]","[""BF05"",""BM16"",""AF11"",""HM07""]","[8,10,3,1]","[6,8,4,2]","","",""
"show-reward","130","361873","0.0-130.0","p466195","AE4FRGGT254D3","3P888QFVX40Z2B7BK75OWKP045JQOK","386CSBG1O1SC0PZ1ADOV44YY2IT6Q8","model","match","uniform","","","","","","","","361107.90000009537","363109.90000009537","","","","","","","","","","","","8","","stimuli/stars_8.png","151.5","","","","","stimuli/BF05_HE.jpg","",""
"explore-choice","131","364604","0.0-131.0","p466195","AE4FRGGT254D3","3P888QFVX40Z2B7BK75OWKP045JQOK","386CSBG1O1SC0PZ1ADOV44YY2IT6Q8","model","match","uniform","","","","","","","2220.9000000953674","363110.59999990463","365331.5","[""stimuli/BM16_FO.jpg"",""stimuli/AF11_HE.jpg"",""stimuli/BF05_DO.jpg"",""stimuli/HM07_SUR.jpg""]","stimuli/BM16_FO.jpg","stimuli/AF11_HE.jpg","stimuli/BF05_DO.jpg","stimuli/HM07_SUR.jpg","pos3","stimuli/BF05_DO.jpg","DO","BF05","2","3","6","6","stimuli/stars_6.png","154.5","[""FO"",""HE"",""DO"",""SUR""]","[""BM16"",""AF11"",""BF05"",""HM07""]","[9,6,6,2]","[8,4,6,2]","","",""
"show-reward","132","366614","0.0-132.0","p466195","AE4FRGGT254D3","3P888QFVX40Z2B7BK75OWKP045JQOK","386CSBG1O1SC0PZ1ADOV44YY2IT6Q8","model","match","uniform","","","","","","","","365841.59999990463","367851","","","","","","","","","","","","6","","stimuli/stars_6.png","154.5","","","","","stimuli/BF05_DO.jpg","",""
"explore-choice","133","368390","0.0-133.0","p466195","AE4FRGGT254D3","3P888QFVX40Z2B7BK75OWKP045JQOK","386CSBG1O1SC0PZ1ADOV44YY2IT6Q8","model","match","uniform","","","","","","","1274.4000000953674","367851.7999999523","369126.2000000477","[""stimuli/AF11_DO.jpg"",""stimuli/BM16_HE.jpg"",""stimuli/HM07_FO.jpg"",""stimuli/BF05_SUR.jpg""]","stimuli/AF11_DO.jpg","stimuli/BM16_HE.jpg","stimuli/HM07_FO.jpg","stimuli/BF05_SUR.jpg","pos2","stimuli/BM16_HE.jpg","HE","BM16","1","5","10","8","stimuli/stars_10.png","159.5","[""DO"",""HE"",""FO"",""SUR""]","[""AF11"",""BM16"",""HM07"",""BF05""]","[2,10,0,6]","[4,8,2,6]","","",""
"show-reward","134","370391","0.0-134.0","p466195","AE4FRGGT254D3","3P888QFVX40Z2B7BK75OWKP045JQOK","386CSBG1O1SC0PZ1ADOV44YY2IT6Q8","model","match","uniform","","","","","","","","369628","371628.7999999523","","","","","","","","","","","","10","","stimuli/stars_10.png","159.5","","","","","stimuli/BM16_HE.jpg","",""
"explore-choice","135","373902","0.0-135.0","p466195","AE4FRGGT254D3","3P888QFVX40Z2B7BK75OWKP045JQOK","386CSBG1O1SC0PZ1ADOV44YY2IT6Q8","model","match","uniform","","","","","","","2994.4000000953674","371629.5","374623.90000009537","[""stimuli/HM07_HE.jpg"",""stimuli/BM16_DO.jpg"",""stimuli/AF11_FO.jpg"",""stimuli/BF05_SUR.jpg""]","stimuli/HM07_HE.jpg","stimuli/BM16_DO.jpg","stimuli/AF11_FO.jpg","stimuli/BF05_SUR.jpg","pos2","stimuli/BM16_DO.jpg","DO","BM16","1","3.5","7","8","stimuli/stars_7.png","163","[""HE"",""DO"",""FO"",""SUR""]","[""HM07"",""BM16"",""AF11"",""BF05""]","[2,7,6,8]","[2,8,4,6]","","",""
"show-reward","136","375905","0.0-136.0","p466195","AE4FRGGT254D3","3P888QFVX40Z2B7BK75OWKP045JQOK","386CSBG1O1SC0PZ1ADOV44YY2IT6Q8","model","match","uniform","","","","","","","","375139.7000000477","377142.09999990463","","","","","","","","","","","","7","","stimuli/stars_7.png","163","","","","","stimuli/BM16_DO.jpg","",""
"explore-choice","137","377779","0.0-137.0","p466195","AE4FRGGT254D3","3P888QFVX40Z2B7BK75OWKP045JQOK","386CSBG1O1SC0PZ1ADOV44YY2IT6Q8","model","match","uniform","","","","","","","1365.5999999046326","377142.90000009537","378508.5","[""stimuli/BM16_HE.jpg"",""stimuli/HM07_DO.jpg"",""stimuli/BF05_FO.jpg"",""stimuli/AF11_SUR.jpg""]","stimuli/BM16_HE.jpg","stimuli/HM07_DO.jpg","stimuli/BF05_FO.jpg","stimuli/AF11_SUR.jpg","pos1","stimuli/BM16_HE.jpg","HE","BM16","0","4","8","8","stimuli/stars_8.png","167","[""HE"",""DO"",""FO"",""SUR""]","[""BM16"",""HM07"",""BF05"",""AF11""]","[8,3,8,6]","[8,2,6,4]","","",""
"show-reward","138","379782","0.0-138.0","p466195","AE4FRGGT254D3","3P888QFVX40Z2B7BK75OWKP045JQOK","386CSBG1O1SC0PZ1ADOV44YY2IT6Q8","model","match","uniform","","","","","","","","379017","381019.2999999523","","","","","","","","","","","","8","","stimuli/stars_8.png","167","","","","","stimuli/BM16_HE.jpg","",""
"explore-choice","139","383652","0.0-139.0","p466195","AE4FRGGT254D3","3P888QFVX40Z2B7BK75OWKP045JQOK","386CSBG1O1SC0PZ1ADOV44YY2IT6Q8","model","match","uniform","","","","","","","3368.7999999523163","381019.90000009537","384388.7000000477","[""stimuli/BF05_FO.jpg"",""stimuli/AF11_DO.jpg"",""stimuli/HM07_HE.jpg"",""stimuli/BM16_SUR.jpg""]","stimuli/BF05_FO.jpg","stimuli/AF11_DO.jpg","stimuli/HM07_HE.jpg","stimuli/BM16_SUR.jpg","pos1","stimuli/BF05_FO.jpg","FO","BF05","0","3.5","7","6","stimuli/stars_7.png","170.5","[""FO"",""DO"",""HE"",""SUR""]","[""BF05"",""AF11"",""HM07"",""BM16""]","[7,4,1,10]","[6,4,2,8]","","",""
"show-reward","140","385654","0.0-140.0","p466195","AE4FRGGT254D3","3P888QFVX40Z2B7BK75OWKP045JQOK","386CSBG1O1SC0PZ1ADOV44YY2IT6Q8","model","match","uniform","","","","","","","","384890.2999999523","386891.40000009537","","","","","","","","","","","","7","","stimuli/stars_7.png","170.5","","","","","stimuli/BF05_FO.jpg","",""
"explore-choice","141","388362","0.0-141.0","p466195","AE4FRGGT254D3","3P888QFVX40Z2B7BK75OWKP045JQOK","386CSBG1O1SC0PZ1ADOV44YY2IT6Q8","model","match","uniform","","","","","","","2206.2999999523163","386892.5","389098.7999999523","[""stimuli/BM16_DO.jpg"",""stimuli/HM07_FO.jpg"",""stimuli/AF11_SUR.jpg"",""stimuli/BF05_HE.jpg""]","stimuli/BM16_DO.jpg","stimuli/HM07_FO.jpg","stimuli/AF11_SUR.jpg","stimuli/BF05_HE.jpg","pos4","stimuli/BF05_HE.jpg","HE","BF05","3","3","6","6","stimuli/stars_6.png","173.5","[""DO"",""FO"",""SUR"",""HE""]","[""BM16"",""HM07"",""AF11"",""BF05""]","[7,4,5,6]","[8,2,4,6]","","",""
"show-reward","142","390375","0.0-142.0","p466195","AE4FRGGT254D3","3P888QFVX40Z2B7BK75OWKP045JQOK","386CSBG1O1SC0PZ1ADOV44YY2IT6Q8","model","match","uniform","","","","","","","","389600.2000000477","391611.90000009537","","","","","","","","","","","","6","","stimuli/stars_6.png","173.5","","","","","stimuli/BF05_HE.jpg","",""
"explore-choice","143","393242","0.0-143.0","p466195","AE4FRGGT254D3","3P888QFVX40Z2B7BK75OWKP045JQOK","386CSBG1O1SC0PZ1ADOV44YY2IT6Q8","model","match","uniform","","","","","","","2361.2999999523163","391613.40000009537","393974.7000000477","[""stimuli/HM07_SUR.jpg"",""stimuli/BF05_HE.jpg"",""stimuli/BM16_FO.jpg"",""stimuli/AF11_DO.jpg""]","stimuli/HM07_SUR.jpg","stimuli/BF05_HE.jpg","stimuli/BM16_FO.jpg","stimuli/AF11_DO.jpg","pos2","stimuli/BF05_HE.jpg","HE","BF05","1","4","8","6","stimuli/stars_8.png","177.5","[""SUR"",""HE"",""FO"",""DO""]","[""HM07"",""BF05"",""BM16"",""AF11""]","[2,8,6,2]","[2,6,8,4]","","",""
"show-reward","144","395244","0.0-144.0","p466195","AE4FRGGT254D3","3P888QFVX40Z2B7BK75OWKP045JQOK","386CSBG1O1SC0PZ1ADOV44YY2IT6Q8","model","match","uniform","","","","","","","","394480.5","396481.90000009537","","","","","","","","","","","","8","","stimuli/stars_8.png","177.5","","","","","stimuli/BF05_HE.jpg","",""
"explore-choice","145","398003","0.0-145.0","p466195","AE4FRGGT254D3","3P888QFVX40Z2B7BK75OWKP045JQOK","386CSBG1O1SC0PZ1ADOV44YY2IT6Q8","model","match","uniform","","","","","","","2253.5","396482.7000000477","398736.2000000477","[""stimuli/BF05_SUR.jpg"",""stimuli/HM07_DO.jpg"",""stimuli/BM16_HE.jpg"",""stimuli/AF11_FO.jpg""]","stimuli/BF05_SUR.jpg","stimuli/HM07_DO.jpg","stimuli/BM16_HE.jpg","stimuli/AF11_FO.jpg","pos3","stimuli/BM16_HE.jpg","HE","BM16","2","5","10","8","stimuli/stars_10.png","182.5","[""SUR"",""DO"",""HE"",""FO""]","[""BF05"",""HM07"",""BM16"",""AF11""]","[6,0,10,3]","[6,2,8,4]","","",""
"show-reward","146","400004","0.0-146.0","p466195","AE4FRGGT254D3","3P888QFVX40Z2B7BK75OWKP045JQOK","386CSBG1O1SC0PZ1ADOV44YY2IT6Q8","model","match","uniform","","","","","","","","399240.7000000477","401241.5","","","","","","","","","","","","10","","stimuli/stars_10.png","182.5","","","","","stimuli/BM16_HE.jpg","",""
"explore-choice","147","402446","0.0-147.0","p466195","AE4FRGGT254D3","3P888QFVX40Z2B7BK75OWKP045JQOK","386CSBG1O1SC0PZ1ADOV44YY2IT6Q8","model","match","uniform","","","","","","","1926.2999999523163","401242.2000000477","403168.5","[""stimuli/HM07_FO.jpg"",""stimuli/BM16_HE.jpg"",""stimuli/AF11_SUR.jpg"",""stimuli/BF05_DO.jpg""]","stimuli/HM07_FO.jpg","stimuli/BM16_HE.jpg","stimuli/AF11_SUR.jpg","stimuli/BF05_DO.jpg","pos2","stimuli/BM16_HE.jpg","HE","BM16","1","4.5","9","8","stimuli/stars_9.png","187","[""FO"",""HE"",""SUR"",""DO""]","[""HM07"",""BM16"",""AF11"",""BF05""]","[3,9,5,7]","[2,8,4,6]","","",""
"show-reward","148","404453","0.0-148.0","p466195","AE4FRGGT254D3","3P888QFVX40Z2B7BK75OWKP045JQOK","386CSBG1O1SC0PZ1ADOV44YY2IT6Q8","model","match","uniform","","","","","","","","403683.59999990463","405690.5","","","","","","","","","","","","9","","stimuli/stars_9.png","187","","","","","stimuli/BM16_HE.jpg","",""
"explore-choice","149","408553","0.0-149.0","p466195","AE4FRGGT254D3","3P888QFVX40Z2B7BK75OWKP045JQOK","386CSBG1O1SC0PZ1ADOV44YY2IT6Q8","model","match","uniform","","","","","","","3590.100000143051","405691.09999990463","409281.2000000477","[""stimuli/AF11_HE.jpg"",""stimuli/BM16_FO.jpg"",""stimuli/HM07_DO.jpg"",""stimuli/BF05_SUR.jpg""]","stimuli/AF11_HE.jpg","stimuli/BM16_FO.jpg","stimuli/HM07_DO.jpg","stimuli/BF05_SUR.jpg","pos1","stimuli/AF11_HE.jpg","HE","AF11","0","2","4","4","stimuli/stars_4.png","189","[""HE"",""FO"",""DO"",""SUR""]","[""AF11"",""BM16"",""HM07"",""BF05""]","[4,9,1,6]","[4,8,2,6]","","",""
"show-reward","150","410568","0.0-150.0","p466195","AE4FRGGT254D3","3P888QFVX40Z2B7BK75OWKP045JQOK","386CSBG1O1SC0PZ1ADOV44YY2IT6Q8","model","match","uniform","","","","","","","","409790.7999999523","411805.90000009537","","","","","","","","","","","","4","","stimuli/stars_4.png","189","","","","","stimuli/AF11_HE.jpg","",""
"explore-choice","151","412455","0.0-151.0","p466195","AE4FRGGT254D3","3P888QFVX40Z2B7BK75OWKP045JQOK","386CSBG1O1SC0PZ1ADOV44YY2IT6Q8","model","match","uniform","","","","","","","1374.4000000953674","411806.59999990463","413181","[""stimuli/BF05_HE.jpg"",""stimuli/BM16_DO.jpg"",""stimuli/AF11_SUR.jpg"",""stimuli/HM07_FO.jpg""]","stimuli/BF05_HE.jpg","stimuli/BM16_DO.jpg","stimuli/AF11_SUR.jpg","stimuli/HM07_FO.jpg","pos1","stimuli/BF05_HE.jpg","HE","BF05","0","3","6","6","stimuli/stars_6.png","192","[""HE"",""DO"",""SUR"",""FO""]","[""BF05"",""BM16"",""AF11"",""HM07""]","[6,7,5,4]","[6,8,4,2]","","",""
"show-reward","152","414457","0.0-152.0","p466195","AE4FRGGT254D3","3P888QFVX40Z2B7BK75OWKP045JQOK","386CSBG1O1SC0PZ1ADOV44YY2IT6Q8","model","match","uniform","","","","","","","","413692.90000009537","415694.59999990463","","","","","","","","","","","","6","","stimuli/stars_6.png","192","","","","","stimuli/BF05_HE.jpg","",""
"explore-choice","153","417612","0.0-153.0","p466195","AE4FRGGT254D3","3P888QFVX40Z2B7BK75OWKP045JQOK","386CSBG1O1SC0PZ1ADOV44YY2IT6Q8","model","match","uniform","","","","","","","2653.800000190735","415695.09999990463","418348.90000009537","[""stimuli/BF05_DO.jpg"",""stimuli/AF11_SUR.jpg"",""stimuli/BM16_FO.jpg"",""stimuli/HM07_HE.jpg""]","stimuli/BF05_DO.jpg","stimuli/AF11_SUR.jpg","stimuli/BM16_FO.jpg","stimuli/HM07_HE.jpg","pos4","stimuli/HM07_HE.jpg","HE","HM07","3","1.5","3","2","stimuli/stars_3.png","193.5","[""DO"",""SUR"",""FO"",""HE""]","[""BF05"",""AF11"",""BM16"",""HM07""]","[6,5,6,3]","[6,4,8,2]","","",""
"show-reward","154","419615","0.0-154.0","p466195","AE4FRGGT254D3","3P888QFVX40Z2B7BK75OWKP045JQOK","386CSBG1O1SC0PZ1ADOV44YY2IT6Q8","model","match","uniform","","","","","","","","418850.59999990463","420852.2999999523","","","","","","","","","","","","3","","stimuli/stars_3.png","193.5","","","","","stimuli/HM07_HE.jpg","",""
"explore-choice","155","421361","0.0-155.0","p466195","AE4FRGGT254D3","3P888QFVX40Z2B7BK75OWKP045JQOK","386CSBG1O1SC0PZ1ADOV44YY2IT6Q8","model","match","uniform","","","","","","","1238.0999999046326","420853","422091.09999990463","[""stimuli/BM16_SUR.jpg"",""stimuli/AF11_HE.jpg"",""stimuli/HM07_FO.jpg"",""stimuli/BF05_DO.jpg""]","stimuli/BM16_SUR.jpg","stimuli/AF11_HE.jpg","stimuli/HM07_FO.jpg","stimuli/BF05_DO.jpg","pos2","stimuli/AF11_HE.jpg","HE","AF11","1","2.5","5","4","stimuli/stars_5.png","196","[""SUR"",""HE"",""FO"",""DO""]","[""BM16"",""AF11"",""HM07"",""BF05""]","[7,5,3,6]","[8,4,2,6]","","",""
"show-reward","156","423365","0.0-156.0","p466195","AE4FRGGT254D3","3P888QFVX40Z2B7BK75OWKP045JQOK","386CSBG1O1SC0PZ1ADOV44YY2IT6Q8","model","match","uniform","","","","","","","","422598.7999999523","424602.90000009537","","","","","","","","","","","","5","","stimuli/stars_5.png","196","","","","","stimuli/AF11_HE.jpg","",""
"explore-choice","157","426162","0.0-157.0","p466195","AE4FRGGT254D3","3P888QFVX40Z2B7BK75OWKP045JQOK","386CSBG1O1SC0PZ1ADOV44YY2IT6Q8","model","match","uniform","","","","","","","2294.9000000953674","424603.59999990463","426898.5","[""stimuli/AF11_HE.jpg"",""stimuli/BM16_FO.jpg"",""stimuli/BF05_SUR.jpg"",""stimuli/HM07_DO.jpg""]","stimuli/AF11_HE.jpg","stimuli/BM16_FO.jpg","stimuli/BF05_SUR.jpg","stimuli/HM07_DO.jpg","pos1","stimuli/AF11_HE.jpg","HE","AF11","0","2","4","4","stimuli/stars_4.png","198","[""HE"",""FO"",""SUR"",""DO""]","[""AF11"",""BM16"",""BF05"",""HM07""]","[4,9,6,1]","[4,8,6,2]","","",""
"show-reward","158","428163","0.0-158.0","p466195","AE4FRGGT254D3","3P888QFVX40Z2B7BK75OWKP045JQOK","386CSBG1O1SC0PZ1ADOV44YY2IT6Q8","model","match","uniform","","","","","","","","427399.7999999523","429400.7000000477","","","","","","","","","","","","4","","stimuli/stars_4.png","198","","","","","stimuli/AF11_HE.jpg","",""
"explore-choice","159","430074","0.0-159.0","p466195","AE4FRGGT254D3","3P888QFVX40Z2B7BK75OWKP045JQOK","386CSBG1O1SC0PZ1ADOV44YY2IT6Q8","model","match","uniform","","","","","","","1397.0999999046326","429401.2000000477","430798.2999999523","[""stimuli/BF05_FO.jpg"",""stimuli/BM16_SUR.jpg"",""stimuli/AF11_HE.jpg"",""stimuli/HM07_DO.jpg""]","stimuli/BF05_FO.jpg","stimuli/BM16_SUR.jpg","stimuli/AF11_HE.jpg","stimuli/HM07_DO.jpg","pos1","stimuli/BF05_FO.jpg","FO","BF05","0","2.5","5","6","stimuli/stars_5.png","200.5","[""FO"",""SUR"",""HE"",""DO""]","[""BF05"",""BM16"",""AF11"",""HM07""]","[5,10,2,0]","[6,8,4,2]","","",""
"show-reward","160","432090","0.0-160.0","p466195","AE4FRGGT254D3","3P888QFVX40Z2B7BK75OWKP045JQOK","386CSBG1O1SC0PZ1ADOV44YY2IT6Q8","model","match","uniform","","","","","","","","431312.2999999523","433327.5","","","","","","","","","","","","5","","stimuli/stars_5.png","200.5","","","","","stimuli/BF05_FO.jpg","",""
"explore-choice","161","433998","0.0-161.0","p466195","AE4FRGGT254D3","3P888QFVX40Z2B7BK75OWKP045JQOK","386CSBG1O1SC0PZ1ADOV44YY2IT6Q8","model","match","uniform","","","","","","","1393.1000001430511","433328.09999990463","434721.2000000477","[""stimuli/AF11_DO.jpg"",""stimuli/BM16_HE.jpg"",""stimuli/BF05_SUR.jpg"",""stimuli/HM07_FO.jpg""]","stimuli/AF11_DO.jpg","stimuli/BM16_HE.jpg","stimuli/BF05_SUR.jpg","stimuli/HM07_FO.jpg","pos2","stimuli/BM16_HE.jpg","HE","BM16","1","5","10","8","stimuli/stars_10.png","205.5","[""DO"",""HE"",""SUR"",""FO""]","[""AF11"",""BM16"",""BF05"",""HM07""]","[2,10,6,0]","[4,8,6,2]","","",""
"show-reward","162","436000","0.0-162.0","p466195","AE4FRGGT254D3","3P888QFVX40Z2B7BK75OWKP045JQOK","386CSBG1O1SC0PZ1ADOV44YY2IT6Q8","model","match","uniform","","","","","","","","435236","437237.2000000477","","","","","","","","","","","","10","","stimuli/stars_10.png","205.5","","","","","stimuli/BM16_HE.jpg","",""
"explore-choice","163","437817","0.0-163.0","p466195","AE4FRGGT254D3","3P888QFVX40Z2B7BK75OWKP045JQOK","386CSBG1O1SC0PZ1ADOV44YY2IT6Q8","model","match","uniform","","","","","","","1308.2999999523163","437237.7000000477","438546","[""stimuli/AF11_FO.jpg"",""stimuli/BM16_HE.jpg"",""stimuli/HM07_DO.jpg"",""stimuli/BF05_SUR.jpg""]","stimuli/AF11_FO.jpg","stimuli/BM16_HE.jpg","stimuli/HM07_DO.jpg","stimuli/BF05_SUR.jpg","pos2","stimuli/BM16_HE.jpg","HE","BM16","1","5","10","8","stimuli/stars_10.png","210.5","[""FO"",""HE"",""DO"",""SUR""]","[""AF11"",""BM16"",""HM07"",""BF05""]","[3,10,0,6]","[4,8,2,6]","","",""
"show-reward","164","439830","0.0-164.0","p466195","AE4FRGGT254D3","3P888QFVX40Z2B7BK75OWKP045JQOK","386CSBG1O1SC0PZ1ADOV44YY2IT6Q8","model","match","uniform","","","","","","","","439055.2999999523","441067.40000009537","","","","","","","","","","","","10","","stimuli/stars_10.png","210.5","","","","","stimuli/BM16_HE.jpg","",""
"explore-choice","165","442170","0.0-165.0","p466195","AE4FRGGT254D3","3P888QFVX40Z2B7BK75OWKP045JQOK","386CSBG1O1SC0PZ1ADOV44YY2IT6Q8","model","match","uniform","","","","","","","1827.7999999523163","441068.2999999523","442896.09999990463","[""stimuli/AF11_SUR.jpg"",""stimuli/HM07_FO.jpg"",""stimuli/BF05_DO.jpg"",""stimuli/BM16_HE.jpg""]","stimuli/AF11_SUR.jpg","stimuli/HM07_FO.jpg","stimuli/BF05_DO.jpg","stimuli/BM16_HE.jpg","pos4","stimuli/BM16_HE.jpg","HE","BM16","3","4.5","9","8","stimuli/stars_9.png","215","[""SUR"",""FO"",""DO"",""HE""]","[""AF11"",""HM07"",""BF05"",""BM16""]","[5,3,7,9]","[4,2,6,8]","","",""
"show-reward","166","444178","0.0-166.0","p466195","AE4FRGGT254D3","3P888QFVX40Z2B7BK75OWKP045JQOK","386CSBG1O1SC0PZ1ADOV44YY2IT6Q8","model","match","uniform","","","","","","","","443408.09999990463","445415.2999999523","","","","","","","","","","","","9","","stimuli/stars_9.png","215","","","","","stimuli/BM16_HE.jpg","",""
"explore-choice","167","447222","0.0-167.0","p466195","AE4FRGGT254D3","3P888QFVX40Z2B7BK75OWKP045JQOK","386CSBG1O1SC0PZ1ADOV44YY2IT6Q8","model","match","uniform","","","","","","","2542.0999999046326","445416","447958.09999990463","[""stimuli/BM16_DO.jpg"",""stimuli/AF11_HE.jpg"",""stimuli/BF05_FO.jpg"",""stimuli/HM07_SUR.jpg""]","stimuli/BM16_DO.jpg","stimuli/AF11_HE.jpg","stimuli/BF05_FO.jpg","stimuli/HM07_SUR.jpg","pos3","stimuli/BF05_FO.jpg","FO","BF05","2","2","4","6","stimuli/stars_4.png","217","[""DO"",""HE"",""FO"",""SUR""]","[""BM16"",""AF11"",""BF05"",""HM07""]","[7,3,4,1]","[8,4,6,2]","","",""
"show-reward","168","449236","0.0-168.0","p466195","AE4FRGGT254D3","3P888QFVX40Z2B7BK75OWKP045JQOK","386CSBG1O1SC0PZ1ADOV44YY2IT6Q8","model","match","uniform","","","","","","","","448459.59999990463","450473.5","","","","","","","","","","","","4","","stimuli/stars_4.png","217","","","","","stimuli/BF05_FO.jpg","",""
"explore-choice","169","453196","0.0-169.0","p466195","AE4FRGGT254D3","3P888QFVX40Z2B7BK75OWKP045JQOK","386CSBG1O1SC0PZ1ADOV44YY2IT6Q8","model","match","uniform","","","","","","","3443.0999999046326","450474.2000000477","453917.2999999523","[""stimuli/HM07_HE.jpg"",""stimuli/BF05_SUR.jpg"",""stimuli/BM16_DO.jpg"",""stimuli/AF11_FO.jpg""]","stimuli/HM07_HE.jpg","stimuli/BF05_SUR.jpg","stimuli/BM16_DO.jpg","stimuli/AF11_FO.jpg","pos1","stimuli/HM07_HE.jpg","HE","HM07","0","1","2","2","stimuli/stars_2.png","218","[""HE"",""SUR"",""DO"",""FO""]","[""HM07"",""BF05"",""BM16"",""AF11""]","[2,8,7,6]","[2,6,8,4]","","",""
"show-reward","170","455198","0.0-170.0","p466195","AE4FRGGT254D3","3P888QFVX40Z2B7BK75OWKP045JQOK","386CSBG1O1SC0PZ1ADOV44YY2IT6Q8","model","match","uniform","","","","","","","","454434.40000009537","456435.2999999523","","","","","","","","","","","","2","","stimuli/stars_2.png","218","","","","","stimuli/HM07_HE.jpg","",""
"explore-choice","171","457144","0.0-171.0","p466195","AE4FRGGT254D3","3P888QFVX40Z2B7BK75OWKP045JQOK","386CSBG1O1SC0PZ1ADOV44YY2IT6Q8","model","match","uniform","","","","","","","1437.5999999046326","456435.90000009537","457873.5","[""stimuli/AF11_SUR.jpg"",""stimuli/BF05_FO.jpg"",""stimuli/BM16_DO.jpg"",""stimuli/HM07_HE.jpg""]","stimuli/AF11_SUR.jpg","stimuli/BF05_FO.jpg","stimuli/BM16_DO.jpg","stimuli/HM07_HE.jpg","pos2","stimuli/BF05_FO.jpg","FO","BF05","1","3","6","6","stimuli/stars_6.png","221","[""SUR"",""FO"",""DO"",""HE""]","[""AF11"",""BF05"",""BM16"",""HM07""]","[2,6,7,1]","[4,6,8,2]","","",""
"show-reward","172","459147","0.0-172.0","p466195","AE4FRGGT254D3","3P888QFVX40Z2B7BK75OWKP045JQOK","386CSBG1O1SC0PZ1ADOV44YY2IT6Q8","model","match","uniform","","","","","","","","458382.09999990463","460384.2999999523","","","","","","","","","","","","6","","stimuli/stars_6.png","221","","","","","stimuli/BF05_FO.jpg","",""
"explore-choice","173","460901","0.0-173.0","p466195","AE4FRGGT254D3","3P888QFVX40Z2B7BK75OWKP045JQOK","386CSBG1O1SC0PZ1ADOV44YY2IT6Q8","model","match","uniform","","","","","","","1253.0999999046326","460384.90000009537","461638","[""stimuli/BF05_FO.jpg"",""stimuli/HM07_HE.jpg"",""stimuli/AF11_DO.jpg"",""stimuli/BM16_SUR.jpg""]","stimuli/BF05_FO.jpg","stimuli/HM07_HE.jpg","stimuli/AF11_DO.jpg","stimuli/BM16_SUR.jpg","pos1","stimuli/BF05_FO.jpg","FO","BF05","0","3.5","7","6","stimuli/stars_7.png","224.5","[""FO"",""HE"",""DO"",""SUR""]","[""BF05"",""HM07"",""AF11"",""BM16""]","[7,1,4,10]","[6,2,4,8]","","",""
"show-reward","174","462904","0.0-174.0","p466195","AE4FRGGT254D3","3P888QFVX40Z2B7BK75OWKP045JQOK","386CSBG1O1SC0PZ1ADOV44YY2IT6Q8","model","match","uniform","","","","","","","","462139.2000000477","464141.59999990463","","","","","","","","","","","","7","","stimuli/stars_7.png","224.5","","","","","stimuli/BF05_FO.jpg","",""
"explore-choice","175","467179","0.0-175.0","p466195","AE4FRGGT254D3","3P888QFVX40Z2B7BK75OWKP045JQOK","386CSBG1O1SC0PZ1ADOV44YY2IT6Q8","model","match","uniform","","","","","","","3773.5","464142.09999990463","467915.59999990463","[""stimuli/AF11_DO.jpg"",""stimuli/BF05_SUR.jpg"",""stimuli/HM07_HE.jpg"",""stimuli/BM16_FO.jpg""]","stimuli/AF11_DO.jpg","stimuli/BF05_SUR.jpg","stimuli/HM07_HE.jpg","stimuli/BM16_FO.jpg","pos3","stimuli/HM07_HE.jpg","HE","HM07","2","0","0","2","stimuli/stars_0.png","224.5","[""DO"",""SUR"",""HE"",""FO""]","[""AF11"",""BF05"",""HM07"",""BM16""]","[2,7,0,8]","[4,6,2,8]","","",""
"show-reward","176","469194","0.0-176.0","p466195","AE4FRGGT254D3","3P888QFVX40Z2B7BK75OWKP045JQOK","386CSBG1O1SC0PZ1ADOV44YY2IT6Q8","model","match","uniform","","","","","","","","468417.2000000477","470431.2000000477","","","","","","","","","","","","0","","stimuli/stars_0.png","224.5","","","","","stimuli/HM07_HE.jpg","",""
"explore-choice","177","471381","0.0-177.0","p466195","AE4FRGGT254D3","3P888QFVX40Z2B7BK75OWKP045JQOK","386CSBG1O1SC0PZ1ADOV44YY2IT6Q8","model","match","uniform","","","","","","","1683.6000001430511","470431.7999999523","472115.40000009537","[""stimuli/BM16_SUR.jpg"",""stimuli/BF05_DO.jpg"",""stimuli/AF11_FO.jpg"",""stimuli/HM07_HE.jpg""]","stimuli/BM16_SUR.jpg","stimuli/BF05_DO.jpg","stimuli/AF11_FO.jpg","stimuli/HM07_HE.jpg","pos2","stimuli/BF05_DO.jpg","DO","BF05","1","4","8","6","stimuli/stars_8.png","228.5","[""SUR"",""DO"",""FO"",""HE""]","[""BM16"",""BF05"",""AF11"",""HM07""]","[7,8,5,2]","[8,6,4,2]","","",""
"show-reward","178","473383","0.0-178.0","p466195","AE4FRGGT254D3","3P888QFVX40Z2B7BK75OWKP045JQOK","386CSBG1O1SC0PZ1ADOV44YY2IT6Q8","model","match","uniform","","","","","","","","472619.2000000477","474620.09999990463","","","","","","","","","","","","8","","stimuli/stars_8.png","228.5","","","","","stimuli/BF05_DO.jpg","",""
"explore-choice","179","475624","0.0-179.0","p466195","AE4FRGGT254D3","3P888QFVX40Z2B7BK75OWKP045JQOK","386CSBG1O1SC0PZ1ADOV44YY2IT6Q8","model","match","uniform","","","","","","","1732.5","474620.59999990463","476353.09999990463","[""stimuli/AF11_SUR.jpg"",""stimuli/BF05_FO.jpg"",""stimuli/HM07_DO.jpg"",""stimuli/BM16_HE.jpg""]","stimuli/AF11_SUR.jpg","stimuli/BF05_FO.jpg","stimuli/HM07_DO.jpg","stimuli/BM16_HE.jpg","pos2","stimuli/BF05_FO.jpg","FO","BF05","1","4","8","6","stimuli/stars_8.png","232.5","[""SUR"",""FO"",""DO"",""HE""]","[""AF11"",""BF05"",""HM07"",""BM16""]","[6,8,3,8]","[4,6,2,8]","","",""
"show-reward","180","477627","0.0-180.0","p466195","AE4FRGGT254D3","3P888QFVX40Z2B7BK75OWKP045JQOK","386CSBG1O1SC0PZ1ADOV44YY2IT6Q8","model","match","uniform","","","","","","","","476862.59999990463","478864.59999990463","","","","","","","","","","","","8","","stimuli/stars_8.png","232.5","","","","","stimuli/BF05_FO.jpg","",""
"explore-choice","181","480919","0.0-181.0","p466195","AE4FRGGT254D3","3P888QFVX40Z2B7BK75OWKP045JQOK","386CSBG1O1SC0PZ1ADOV44YY2IT6Q8","model","match","uniform","","","","","","","2789.9000000953674","478865.09999990463","481655","[""stimuli/AF11_HE.jpg"",""stimuli/HM07_SUR.jpg"",""stimuli/BF05_DO.jpg"",""stimuli/BM16_FO.jpg""]","stimuli/AF11_HE.jpg","stimuli/HM07_SUR.jpg","stimuli/BF05_DO.jpg","stimuli/BM16_FO.jpg","pos3","stimuli/BF05_DO.jpg","DO","BF05","2","3","6","6","stimuli/stars_6.png","235.5","[""HE"",""SUR"",""DO"",""FO""]","[""AF11"",""HM07"",""BF05"",""BM16""]","[6,2,6,9]","[4,2,6,8]","","",""
"show-reward","182","482931","0.0-182.0","p466195","AE4FRGGT254D3","3P888QFVX40Z2B7BK75OWKP045JQOK","386CSBG1O1SC0PZ1ADOV44YY2IT6Q8","model","match","uniform","","","","","","","","482156.59999990463","484167.90000009537","","","","","","","","","","","","6","","stimuli/stars_6.png","235.5","","","","","stimuli/BF05_DO.jpg","",""
"explore-choice","183","486738","0.0-183.0","p466195","AE4FRGGT254D3","3P888QFVX40Z2B7BK75OWKP045JQOK","386CSBG1O1SC0PZ1ADOV44YY2IT6Q8","model","match","uniform","","","","","","","3306.800000190735","484168.59999990463","487475.40000009537","[""stimuli/BM16_DO.jpg"",""stimuli/AF11_HE.jpg"",""stimuli/HM07_FO.jpg"",""stimuli/BF05_SUR.jpg""]","stimuli/BM16_DO.jpg","stimuli/AF11_HE.jpg","stimuli/HM07_FO.jpg","stimuli/BF05_SUR.jpg","pos2","stimuli/AF11_HE.jpg","HE","AF11","1","2","4","4","stimuli/stars_4.png","237.5","[""DO"",""HE"",""FO"",""SUR""]","[""BM16"",""AF11"",""HM07"",""BF05""]","[9,4,4,8]","[8,4,2,6]","","",""
"show-reward","184","488740","0.0-184.0","p466195","AE4FRGGT254D3","3P888QFVX40Z2B7BK75OWKP045JQOK","386CSBG1O1SC0PZ1ADOV44YY2IT6Q8","model","match","uniform","","","","","","","","487976.09999990463","489977","","","","","","","","","","","","4","","stimuli/stars_4.png","237.5","","","","","stimuli/AF11_HE.jpg","",""
"explore-choice","185","490526","0.0-185.0","p466195","AE4FRGGT254D3","3P888QFVX40Z2B7BK75OWKP045JQOK","386CSBG1O1SC0PZ1ADOV44YY2IT6Q8","model","match","uniform","","","","","","","1285.8999998569489","489977.40000009537","491263.2999999523","[""stimuli/BF05_HE.jpg"",""stimuli/BM16_FO.jpg"",""stimuli/HM07_SUR.jpg"",""stimuli/AF11_DO.jpg""]","stimuli/BF05_HE.jpg","stimuli/BM16_FO.jpg","stimuli/HM07_SUR.jpg","stimuli/AF11_DO.jpg","pos1","stimuli/BF05_HE.jpg","HE","BF05","0","4","8","6","stimuli/stars_8.png","241.5","[""HE"",""FO"",""SUR"",""DO""]","[""BF05"",""BM16"",""HM07"",""AF11""]","[8,6,2,2]","[6,8,2,4]","","",""
"show-reward","186","492531","0.0-186.0","p466195","AE4FRGGT254D3","3P888QFVX40Z2B7BK75OWKP045JQOK","386CSBG1O1SC0PZ1ADOV44YY2IT6Q8","model","match","uniform","","","","","","","","491764.09999990463","493768.2000000477","","","","","","","","","","","","8","","stimuli/stars_8.png","241.5","","","","","stimuli/BF05_HE.jpg","",""
"explore-choice","187","494328","0.0-187.0","p466195","AE4FRGGT254D3","3P888QFVX40Z2B7BK75OWKP045JQOK","386CSBG1O1SC0PZ1ADOV44YY2IT6Q8","model","match","uniform","","","","","","","1296.2999999523163","493769","495065.2999999523","[""stimuli/BF05_HE.jpg"",""stimuli/AF11_SUR.jpg"",""stimuli/HM07_DO.jpg"",""stimuli/BM16_FO.jpg""]","stimuli/BF05_HE.jpg","stimuli/AF11_SUR.jpg","stimuli/HM07_DO.jpg","stimuli/BM16_FO.jpg","pos1","stimuli/BF05_HE.jpg","HE","BF05","0","4","8","6","stimuli/stars_8.png","245.5","[""HE"",""SUR"",""DO"",""FO""]","[""BF05"",""AF11"",""HM07"",""BM16""]","[8,3,1,10]","[6,4,2,8]","","",""
"show-reward","188","496333","0.0-188.0","p466195","AE4FRGGT254D3","3P888QFVX40Z2B7BK75OWKP045JQOK","386CSBG1O1SC0PZ1ADOV44YY2IT6Q8","model","match","uniform","","","","","","","","495566.2999999523","497570.2000000477","","","","","","","","","","","","8","","stimuli/stars_8.png","245.5","","","","","stimuli/BF05_HE.jpg","",""
"explore-choice","189","498008","0.0-189.0","p466195","AE4FRGGT254D3","3P888QFVX40Z2B7BK75OWKP045JQOK","386CSBG1O1SC0PZ1ADOV44YY2IT6Q8","model","match","uniform","","","","","","","1168.9000000953674","497571.09999990463","498740","[""stimuli/AF11_DO.jpg"",""stimuli/BM16_HE.jpg"",""stimuli/BF05_FO.jpg"",""stimuli/HM07_SUR.jpg""]","stimuli/AF11_DO.jpg","stimuli/BM16_HE.jpg","stimuli/BF05_FO.jpg","stimuli/HM07_SUR.jpg","pos2","stimuli/BM16_HE.jpg","HE","BM16","1","3","6","8","stimuli/stars_6.png","248.5","[""DO"",""HE"",""FO"",""SUR""]","[""AF11"",""BM16"",""BF05"",""HM07""]","[6,6,6,2]","[4,8,6,2]","","",""
"show-reward","190","500011","0.0-190.0","p466195","AE4FRGGT254D3","3P888QFVX40Z2B7BK75OWKP045JQOK","386CSBG1O1SC0PZ1ADOV44YY2IT6Q8","model","match","uniform","","","","","","","","499246.2000000477","501248.2999999523","","","","","","","","","","","","6","","stimuli/stars_6.png","248.5","","","","","stimuli/BM16_HE.jpg","",""
"explore-choice","191","501478","0.0-191.0","p466195","AE4FRGGT254D3","3P888QFVX40Z2B7BK75OWKP045JQOK","386CSBG1O1SC0PZ1ADOV44YY2IT6Q8","model","match","uniform","","","","","","","963.7999999523163","501249.2000000477","502213","[""stimuli/BM16_SUR.jpg"",""stimuli/BF05_HE.jpg"",""stimuli/AF11_FO.jpg"",""stimuli/HM07_DO.jpg""]","stimuli/BM16_SUR.jpg","stimuli/BF05_HE.jpg","stimuli/AF11_FO.jpg","stimuli/HM07_DO.jpg","pos2","stimuli/BF05_HE.jpg","HE","BF05","1","3.5","7","6","stimuli/stars_7.png","252","[""SUR"",""HE"",""FO"",""DO""]","[""BM16"",""BF05"",""AF11"",""HM07""]","[7,7,2,4]","[8,6,4,2]","","",""
"show-reward","192","503490","0.0-192.0","p466195","AE4FRGGT254D3","3P888QFVX40Z2B7BK75OWKP045JQOK","386CSBG1O1SC0PZ1ADOV44YY2IT6Q8","model","match","uniform","","","","","","","","502715.7000000477","504727.2999999523","","","","","","","","","","","","7","","stimuli/stars_7.png","252","","","","","stimuli/BF05_HE.jpg","",""
"explore-choice","193","506342","0.0-193.0","p466195","AE4FRGGT254D3","3P888QFVX40Z2B7BK75OWKP045JQOK","386CSBG1O1SC0PZ1ADOV44YY2IT6Q8","model","match","uniform","","","","","","","2337.2999999523163","504728","507065.2999999523","[""stimuli/BM16_DO.jpg"",""stimuli/AF11_FO.jpg"",""stimuli/BF05_HE.jpg"",""stimuli/HM07_SUR.jpg""]","stimuli/BM16_DO.jpg","stimuli/AF11_FO.jpg","stimuli/BF05_HE.jpg","stimuli/HM07_SUR.jpg","pos3","stimuli/BF05_HE.jpg","HE","BF05","2","3","6","6","stimuli/stars_6.png","255","[""DO"",""FO"",""HE"",""SUR""]","[""BM16"",""AF11"",""BF05"",""HM07""]","[6,3,6,3]","[8,4,6,2]","","",""
"show-reward","194","508344","0.0-194.0","p466195","AE4FRGGT254D3","3P888QFVX40Z2B7BK75OWKP045JQOK","386CSBG1O1SC0PZ1ADOV44YY2IT6Q8","model","match","uniform","","","","","","","","507580","509581.7999999523","","","","","","","","","","","","6","","stimuli/stars_6.png","255","","","","","stimuli/BF05_HE.jpg","",""
"explore-choice","195","510519","0.0-195.0","p466195","AE4FRGGT254D3","3P888QFVX40Z2B7BK75OWKP045JQOK","386CSBG1O1SC0PZ1ADOV44YY2IT6Q8","model","match","uniform","","","","","","","1662","509582.2999999523","511244.2999999523","[""stimuli/AF11_FO.jpg"",""stimuli/HM07_SUR.jpg"",""stimuli/BF05_DO.jpg"",""stimuli/BM16_HE.jpg""]","stimuli/AF11_FO.jpg","stimuli/HM07_SUR.jpg","stimuli/BF05_DO.jpg","stimuli/BM16_HE.jpg","pos4","stimuli/BM16_HE.jpg","HE","BM16","3","3","6","8","stimuli/stars_6.png","258","[""FO"",""SUR"",""DO"",""HE""]","[""AF11"",""HM07"",""BF05"",""BM16""]","[2,2,5,6]","[4,2,6,8]","","",""
"show-reward","196","512526","0.0-196.0","p466195","AE4FRGGT254D3","3P888QFVX40Z2B7BK75OWKP045JQOK","386CSBG1O1SC0PZ1ADOV44YY2IT6Q8","model","match","uniform","","","","","","","","511757.09999990463","513763","","","","","","","","","","","","6","","stimuli/stars_6.png","258","","","","","stimuli/BM16_HE.jpg","",""
"explore-choice","197","514687","0.0-197.0","p466195","AE4FRGGT254D3","3P888QFVX40Z2B7BK75OWKP045JQOK","386CSBG1O1SC0PZ1ADOV44YY2IT6Q8","model","match","uniform","","","","","","","1656.4000000953674","513763.59999990463","515420","[""stimuli/BM16_SUR.jpg"",""stimuli/BF05_HE.jpg"",""stimuli/HM07_FO.jpg"",""stimuli/AF11_DO.jpg""]","stimuli/BM16_SUR.jpg","stimuli/BF05_HE.jpg","stimuli/HM07_FO.jpg","stimuli/AF11_DO.jpg","pos2","stimuli/BF05_HE.jpg","HE","BF05","1","4","8","6","stimuli/stars_8.png","262","[""SUR"",""HE"",""FO"",""DO""]","[""BM16"",""BF05"",""HM07"",""AF11""]","[8,8,1,3]","[8,6,2,4]","","",""
"show-reward","198","516690","0.0-198.0","p466195","AE4FRGGT254D3","3P888QFVX40Z2B7BK75OWKP045JQOK","386CSBG1O1SC0PZ1ADOV44YY2IT6Q8","model","match","uniform","","","","","","","","515925.40000009537","517926.90000009537","","","","","","","","","","","","8","","stimuli/stars_8.png","262","","","","","stimuli/BF05_HE.jpg","",""
"instructions","199","520566","0.0-199.0","p466195","AE4FRGGT254D3","3P888QFVX40Z2B7BK75OWKP045JQOK","386CSBG1O1SC0PZ1ADOV44YY2IT6Q8","model","match","uniform","","","","","","[{""page_index"":0,""viewing_time"":3874.2000000476837}]","3874.9000000953674","","","","","","","","","","","","","","","","","","","","","","","",""
"survey-text","200","526491","0.0-200.0-0.0","p466195","AE4FRGGT254D3","3P888QFVX40Z2B7BK75OWKP045JQOK","386CSBG1O1SC0PZ1ADOV44YY2IT6Q8","model","match","uniform","","","","","","","5922.799999952316","","","","","","","","","","","","","","","","","","","","","","","{""age"":""56""}",""
"survey-text","201","530450","0.0-200.0-1.0","p466195","AE4FRGGT254D3","3P888QFVX40Z2B7BK75OWKP045JQOK","386CSBG1O1SC0PZ1ADOV44YY2IT6Q8","model","match","uniform","","","","","","","3958.0999999046326","","","","","","","","","","","","","","","","","","","","","","","{""gender"":""Male""}",""
"survey-text","202","539600","0.0-200.0-2.0","p466195","AE4FRGGT254D3","3P888QFVX40Z2B7BK75OWKP045JQOK","386CSBG1O1SC0PZ1ADOV44YY2IT6Q8","model","match","uniform","","","","","","","9148.299999952316","","","","","","","","","","","","","","","","","","","","","","","{""country"":""United States""}",""
"survey-text","203","548257","0.0-200.0-3.0","p466195","AE4FRGGT254D3","3P888QFVX40Z2B7BK75OWKP045JQOK","386CSBG1O1SC0PZ1ADOV44YY2IT6Q8","model","match","uniform","","","","","","","8655.099999904633","","","","","","","","","","","","","","","","","","","","","","","{""language"":""English"",""other_languages"":""""}",""
"survey-multi-select","204","552598","0.0-201.0","p466195","AE4FRGGT254D3","3P888QFVX40Z2B7BK75OWKP045JQOK","386CSBG1O1SC0PZ1ADOV44YY2IT6Q8","model","match","uniform","","","","","","","4337.900000095367","","","","","","","","","","","","","","","","","","","","","","","{""race"":[""White""]}","[0]"
"survey-multi-choice","205","555868","0.0-202.0","p466195","AE4FRGGT254D3","3P888QFVX40Z2B7BK75OWKP045JQOK","386CSBG1O1SC0PZ1ADOV44YY2IT6Q8","model","match","uniform","","","","","","","3265.9000000953674","","","","","","","","","","","","","","","","","","","","","","","{""education"":""Bachelor's degree""}","[0]"
"survey-text","206","599069","0.0-203.0","p466195","AE4FRGGT254D3","3P888QFVX40Z2B7BK75OWKP045JQOK","386CSBG1O1SC0PZ1ADOV44YY2IT6Q8","model","match","uniform","","","","","","","43196.299999952316","","","","","","","","","","","","","","","","","","","","","","","{""patterns"":""I notices it was either who showed the most teeth or who smiled the best."",""strategy"":""I picked the one who smiled the most"",""comments"":""no""}",""
