"trial_type","trial_index","time_elapsed","internal_node_id","subject","workerId","hitId","assignmentId","structure_condition","match_condition","noise_type","success","timeout","failed_images","failed_audio","failed_video","view_history","rt","start_time","end_time","stimuli","image1","image2","image3","image4","choiceLocation","choiceImage","choiceEmotion","choiceModel","choice_index","reward_score","reward","reward_score_unadjusted","reward_image","score_after_trial","emotions","models","rewards","rewards_unadjusted","stimulus","response","question_order"
"pavlovia","0","22","0.0-0.0","p298720","AOOLS8280CL0Z","336OE47KI3QZCSCUXSQ8J11UOZXVWV","3FIJLY1B6WANJ6RXBTCAY5L1QKZPFQ","model","match","uniform","","","","","","","","","","","","","","","","","","","","","","","","","","","","","","",""
"preload","1","4288","0.0-1.0","p298720","AOOLS8280CL0Z","336OE47KI3QZCSCUXSQ8J11UOZXVWV","3FIJLY1B6WANJ6RXBTCAY5L1QKZPFQ","model","match","uniform","true","false","[]","[]","[]","","","","","","","","","","","","","","","","","","","","","","","","","",""
"fullscreen","2","8190","0.0-2.0","p298720","AOOLS8280CL0Z","336OE47KI3QZCSCUXSQ8J11UOZXVWV","3FIJLY1B6WANJ6RXBTCAY5L1QKZPFQ","model","match","uniform","true","","","","","","","","","","","","","","","","","","","","","","","","","","","","","",""
"instructions","3","16162","0.0-3.0","p298720","AOOLS8280CL0Z","336OE47KI3QZCSCUXSQ8J11UOZXVWV","3FIJLY1B6WANJ6RXBTCAY5L1QKZPFQ","model","match","uniform","","","","","","[{""page_index"":0,""viewing_time"":7964}]","7968.099999904633","","","","","","","","","","","","","","","","","","","","","","","",""
"explore-choice","4","21592","0.0-4.0","p298720","AOOLS8280CL0Z","336OE47KI3QZCSCUXSQ8J11UOZXVWV","3FIJLY1B6WANJ6RXBTCAY5L1QKZPFQ","model","match","uniform","","","","","","","4922.599999904633","19648.299999952316","24570.89999985695","[""stimuli/sheep.jpg"",""stimuli/hammer.jpg"",""stimuli/basketball.jpg"",""stimuli/horse.jpg""]","stimuli/sheep.jpg","stimuli/hammer.jpg","stimuli/basketball.jpg","stimuli/horse.jpg","pos4","stimuli/horse.jpg","","","3","64","64","64","stimuli/stars_8.png","65","","","","","","",""
"explore-choice","5","24665","0.0-5.0","p298720","AOOLS8280CL0Z","336OE47KI3QZCSCUXSQ8J11UOZXVWV","3FIJLY1B6WANJ6RXBTCAY5L1QKZPFQ","model","match","uniform","","","","","","","2549.0999999046326","25075.299999952316","27624.39999985695","[""stimuli/hammer.jpg"",""stimuli/basketball.jpg"",""stimuli/horse.jpg"",""stimuli/sheep.jpg""]","stimuli/hammer.jpg","stimuli/basketball.jpg","stimuli/horse.jpg","stimuli/sheep.jpg","pos1","stimuli/hammer.jpg","","","0","8","8","8","stimuli/stars_2.png","9","","","","","","",""
"instructions","6","39140","0.0-6.0","p298720","AOOLS8280CL0Z","336OE47KI3QZCSCUXSQ8J11UOZXVWV","3FIJLY1B6WANJ6RXBTCAY5L1QKZPFQ","model","match","uniform","","","","","","[{""page_index"":0,""viewing_time"":14473.5}]","14474.200000047684","","","","","","","","","","","","","","","","","","","","","","","",""
"explore-choice","7","42999","0.0-7.0","p298720","AOOLS8280CL0Z","336OE47KI3QZCSCUXSQ8J11UOZXVWV","3FIJLY1B6WANJ6RXBTCAY5L1QKZPFQ","model","match","uniform","","","","","","","3346.2999999523163","42627.200000047684","45973.5","[""stimuli/AM06_HO.jpg"",""stimuli/WM13_CC.jpg"",""stimuli/HM02_SC.jpg"",""stimuli/BF06_SUR.jpg""]","stimuli/AM06_HO.jpg","stimuli/WM13_CC.jpg","stimuli/HM02_SC.jpg","stimuli/BF06_SUR.jpg","pos2","stimuli/WM13_CC.jpg","CC","WM13","1","4.5","9","8","stimuli/stars_9.png","5.5","[""HO"",""CC"",""SC"",""SUR""]","[""AM06"",""WM13"",""HM02"",""BF06""]","[2,9,1,7]","[4,8,2,6]","","",""
"show-reward","8","45011","0.0-8.0","p298720","AOOLS8280CL0Z","336OE47KI3QZCSCUXSQ8J11UOZXVWV","3FIJLY1B6WANJ6RXBTCAY5L1QKZPFQ","model","match","uniform","","","","","","","","46484.200000047684","48491.89999985695","","","","","","","","","","","","9","","stimuli/stars_9.png","5.5","","","","","stimuli/WM13_CC.jpg","",""
"explore-choice","9","48051","0.0-9.0","p298720","AOOLS8280CL0Z","336OE47KI3QZCSCUXSQ8J11UOZXVWV","3FIJLY1B6WANJ6RXBTCAY5L1QKZPFQ","model","match","uniform","","","","","","","2530.2999999523163","48494.5","51024.799999952316","[""stimuli/AM06_SC.jpg"",""stimuli/BF06_CC.jpg"",""stimuli/WM13_HO.jpg"",""stimuli/HM02_SUR.jpg""]","stimuli/AM06_SC.jpg","stimuli/BF06_CC.jpg","stimuli/WM13_HO.jpg","stimuli/HM02_SUR.jpg","pos3","stimuli/WM13_HO.jpg","HO","WM13","2","3.5","7","8","stimuli/stars_7.png","9","[""SC"",""CC"",""HO"",""SUR""]","[""AM06"",""BF06"",""WM13"",""HM02""]","[5,8,7,1]","[4,6,8,2]","","",""
"show-reward","10","50071","0.0-10.0","p298720","AOOLS8280CL0Z","336OE47KI3QZCSCUXSQ8J11UOZXVWV","3FIJLY1B6WANJ6RXBTCAY5L1QKZPFQ","model","match","uniform","","","","","","","","51535.5","53552.09999990463","","","","","","","","","","","","7","","stimuli/stars_7.png","9","","","","","stimuli/WM13_HO.jpg","",""
"explore-choice","11","54070","0.0-11.0","p298720","AOOLS8280CL0Z","336OE47KI3QZCSCUXSQ8J11UOZXVWV","3FIJLY1B6WANJ6RXBTCAY5L1QKZPFQ","model","match","uniform","","","","","","","3481.9000000953674","53555.09999990463","57037","[""stimuli/BF06_HO.jpg"",""stimuli/AM06_CC.jpg"",""stimuli/HM02_SUR.jpg"",""stimuli/WM13_SC.jpg""]","stimuli/BF06_HO.jpg","stimuli/AM06_CC.jpg","stimuli/HM02_SUR.jpg","stimuli/WM13_SC.jpg","pos4","stimuli/WM13_SC.jpg","SC","WM13","3","3.5","7","8","stimuli/stars_7.png","12.5","[""HO"",""CC"",""SUR"",""SC""]","[""BF06"",""AM06"",""HM02"",""WM13""]","[4,4,0,7]","[6,4,2,8]","","",""
"show-reward","12","56085","0.0-12.0","p298720","AOOLS8280CL0Z","336OE47KI3QZCSCUXSQ8J11UOZXVWV","3FIJLY1B6WANJ6RXBTCAY5L1QKZPFQ","model","match","uniform","","","","","","","","57554.799999952316","59565.59999990463","","","","","","","","","","","","7","","stimuli/stars_7.png","12.5","","","","","stimuli/WM13_SC.jpg","",""
"explore-choice","13","59908","0.0-13.0","p298720","AOOLS8280CL0Z","336OE47KI3QZCSCUXSQ8J11UOZXVWV","3FIJLY1B6WANJ6RXBTCAY5L1QKZPFQ","model","match","uniform","","","","","","","3324.7999999523163","59568.700000047684","62893.5","[""stimuli/AM06_SUR.jpg"",""stimuli/BF06_HO.jpg"",""stimuli/HM02_SC.jpg"",""stimuli/WM13_CC.jpg""]","stimuli/AM06_SUR.jpg","stimuli/BF06_HO.jpg","stimuli/HM02_SC.jpg","stimuli/WM13_CC.jpg","pos3","stimuli/HM02_SC.jpg","SC","HM02","2","0.5","1","2","stimuli/stars_1.png","13","[""SUR"",""HO"",""SC"",""CC""]","[""AM06"",""BF06"",""HM02"",""WM13""]","[4,6,1,6]","[4,6,2,8]","","",""
"show-reward","14","61923","0.0-14.0","p298720","AOOLS8280CL0Z","336OE47KI3QZCSCUXSQ8J11UOZXVWV","3FIJLY1B6WANJ6RXBTCAY5L1QKZPFQ","model","match","uniform","","","","","","","","63397.799999952316","65409.200000047684","","","","","","","","","","","","1","","stimuli/stars_1.png","13","","","","","stimuli/HM02_SC.jpg","",""
"explore-choice","15","64308","0.0-15.0","p298720","AOOLS8280CL0Z","336OE47KI3QZCSCUXSQ8J11UOZXVWV","3FIJLY1B6WANJ6RXBTCAY5L1QKZPFQ","model","match","uniform","","","","","","","1864","65412.700000047684","67276.70000004768","[""stimuli/HM02_SC.jpg"",""stimuli/WM13_HO.jpg"",""stimuli/BF06_CC.jpg"",""stimuli/AM06_SUR.jpg""]","stimuli/HM02_SC.jpg","stimuli/WM13_HO.jpg","stimuli/BF06_CC.jpg","stimuli/AM06_SUR.jpg","pos2","stimuli/WM13_HO.jpg","HO","WM13","1","4","8","8","stimuli/stars_8.png","17","[""SC"",""HO"",""CC"",""SUR""]","[""HM02"",""WM13"",""BF06"",""AM06""]","[3,8,4,2]","[2,8,6,4]","","",""
"show-reward","16","66331","0.0-16.0","p298720","AOOLS8280CL0Z","336OE47KI3QZCSCUXSQ8J11UOZXVWV","3FIJLY1B6WANJ6RXBTCAY5L1QKZPFQ","model","match","uniform","","","","","","","","67797.20000004768","69818.20000004768","","","","","","","","","","","","8","","stimuli/stars_8.png","17","","","","","stimuli/WM13_HO.jpg","",""
"explore-choice","17","68648","0.0-17.0","p298720","AOOLS8280CL0Z","336OE47KI3QZCSCUXSQ8J11UOZXVWV","3FIJLY1B6WANJ6RXBTCAY5L1QKZPFQ","model","match","uniform","","","","","","","1807.5999999046326","69820.79999995232","71628.39999985695","[""stimuli/BF06_SC.jpg"",""stimuli/WM13_SUR.jpg"",""stimuli/HM02_CC.jpg"",""stimuli/AM06_HO.jpg""]","stimuli/BF06_SC.jpg","stimuli/WM13_SUR.jpg","stimuli/HM02_CC.jpg","stimuli/AM06_HO.jpg","pos1","stimuli/BF06_SC.jpg","SC","BF06","0","3","6","6","stimuli/stars_6.png","20","[""SC"",""SUR"",""CC"",""HO""]","[""BF06"",""WM13"",""HM02"",""AM06""]","[6,8,0,2]","[6,8,2,4]","","",""
"show-reward","18","70672","0.0-18.0","p298720","AOOLS8280CL0Z","336OE47KI3QZCSCUXSQ8J11UOZXVWV","3FIJLY1B6WANJ6RXBTCAY5L1QKZPFQ","model","match","uniform","","","","","","","","72139","74158.39999985695","","","","","","","","","","","","6","","stimuli/stars_6.png","20","","","","","stimuli/BF06_SC.jpg","",""
"explore-choice","19","74680","0.0-19.0","p298720","AOOLS8280CL0Z","336OE47KI3QZCSCUXSQ8J11UOZXVWV","3FIJLY1B6WANJ6RXBTCAY5L1QKZPFQ","model","match","uniform","","","","","","","3500.2000000476837","74162.09999990463","77662.29999995232","[""stimuli/WM13_SC.jpg"",""stimuli/HM02_HO.jpg"",""stimuli/AM06_SUR.jpg"",""stimuli/BF06_CC.jpg""]","stimuli/WM13_SC.jpg","stimuli/HM02_HO.jpg","stimuli/AM06_SUR.jpg","stimuli/BF06_CC.jpg","pos4","stimuli/BF06_CC.jpg","CC","BF06","3","2","4","6","stimuli/stars_4.png","22","[""SC"",""HO"",""SUR"",""CC""]","[""WM13"",""HM02"",""AM06"",""BF06""]","[10,3,2,4]","[8,2,4,6]","","",""
"show-reward","20","76686","0.0-20.0","p298720","AOOLS8280CL0Z","336OE47KI3QZCSCUXSQ8J11UOZXVWV","3FIJLY1B6WANJ6RXBTCAY5L1QKZPFQ","model","match","uniform","","","","","","","","78168.79999995232","80172.89999985695","","","","","","","","","","","","4","","stimuli/stars_4.png","22","","","","","stimuli/BF06_CC.jpg","",""
"explore-choice","21","78719","0.0-21.0","p298720","AOOLS8280CL0Z","336OE47KI3QZCSCUXSQ8J11UOZXVWV","3FIJLY1B6WANJ6RXBTCAY5L1QKZPFQ","model","match","uniform","","","","","","","1513.7999999523163","80175.79999995232","81689.59999990463","[""stimuli/WM13_SUR.jpg"",""stimuli/AM06_CC.jpg"",""stimuli/HM02_SC.jpg"",""stimuli/BF06_HO.jpg""]","stimuli/WM13_SUR.jpg","stimuli/AM06_CC.jpg","stimuli/HM02_SC.jpg","stimuli/BF06_HO.jpg","pos1","stimuli/WM13_SUR.jpg","SUR","WM13","0","5","10","8","stimuli/stars_10.png","27","[""SUR"",""CC"",""SC"",""HO""]","[""WM13"",""AM06"",""HM02"",""BF06""]","[10,6,2,4]","[8,4,2,6]","","",""
"show-reward","22","80731","0.0-22.0","p298720","AOOLS8280CL0Z","336OE47KI3QZCSCUXSQ8J11UOZXVWV","3FIJLY1B6WANJ6RXBTCAY5L1QKZPFQ","model","match","uniform","","","","","","","","82208.09999990463","84216.89999985695","","","","","","","","","","","","10","","stimuli/stars_10.png","27","","","","","stimuli/WM13_SUR.jpg","",""
"explore-choice","23","82769","0.0-23.0","p298720","AOOLS8280CL0Z","336OE47KI3QZCSCUXSQ8J11UOZXVWV","3FIJLY1B6WANJ6RXBTCAY5L1QKZPFQ","model","match","uniform","","","","","","","1527.8999998569489","84220","85747.89999985695","[""stimuli/BF06_SC.jpg"",""stimuli/WM13_HO.jpg"",""stimuli/HM02_SUR.jpg"",""stimuli/AM06_CC.jpg""]","stimuli/BF06_SC.jpg","stimuli/WM13_HO.jpg","stimuli/HM02_SUR.jpg","stimuli/AM06_CC.jpg","pos2","stimuli/WM13_HO.jpg","HO","WM13","1","4","8","8","stimuli/stars_8.png","31","[""SC"",""HO"",""SUR"",""CC""]","[""BF06"",""WM13"",""HM02"",""AM06""]","[7,8,0,5]","[6,8,2,4]","","",""
"show-reward","24","84783","0.0-24.0","p298720","AOOLS8280CL0Z","336OE47KI3QZCSCUXSQ8J11UOZXVWV","3FIJLY1B6WANJ6RXBTCAY5L1QKZPFQ","model","match","uniform","","","","","","","","86257.89999985695","88268.89999985695","","","","","","","","","","","","8","","stimuli/stars_8.png","31","","","","","stimuli/WM13_HO.jpg","",""
"explore-choice","25","86949","0.0-25.0","p298720","AOOLS8280CL0Z","336OE47KI3QZCSCUXSQ8J11UOZXVWV","3FIJLY1B6WANJ6RXBTCAY5L1QKZPFQ","model","match","uniform","","","","","","","1657.7000000476837","88272.39999985695","89930.09999990463","[""stimuli/HM02_CC.jpg"",""stimuli/AM06_SUR.jpg"",""stimuli/WM13_HO.jpg"",""stimuli/BF06_SC.jpg""]","stimuli/HM02_CC.jpg","stimuli/AM06_SUR.jpg","stimuli/WM13_HO.jpg","stimuli/BF06_SC.jpg","pos3","stimuli/WM13_HO.jpg","HO","WM13","2","4","8","8","stimuli/stars_8.png","35","[""CC"",""SUR"",""HO"",""SC""]","[""HM02"",""AM06"",""WM13"",""BF06""]","[4,2,8,6]","[2,4,8,6]","","",""
"show-reward","26","88963","0.0-26.0","p298720","AOOLS8280CL0Z","336OE47KI3QZCSCUXSQ8J11UOZXVWV","3FIJLY1B6WANJ6RXBTCAY5L1QKZPFQ","model","match","uniform","","","","","","","","90439","92449","","","","","","","","","","","","8","","stimuli/stars_8.png","35","","","","","stimuli/WM13_HO.jpg","",""
"explore-choice","27","92008","0.0-27.0","p298720","AOOLS8280CL0Z","336OE47KI3QZCSCUXSQ8J11UOZXVWV","3FIJLY1B6WANJ6RXBTCAY5L1QKZPFQ","model","match","uniform","","","","","","","2530.9000000953674","92452.29999995232","94983.20000004768","[""stimuli/HM02_HO.jpg"",""stimuli/WM13_SUR.jpg"",""stimuli/AM06_CC.jpg"",""stimuli/BF06_SC.jpg""]","stimuli/HM02_HO.jpg","stimuli/WM13_SUR.jpg","stimuli/AM06_CC.jpg","stimuli/BF06_SC.jpg","pos2","stimuli/WM13_SUR.jpg","SUR","WM13","1","3.5","7","8","stimuli/stars_7.png","38.5","[""HO"",""SUR"",""CC"",""SC""]","[""HM02"",""WM13"",""AM06"",""BF06""]","[0,7,4,7]","[2,8,4,6]","","",""
"show-reward","28","94024","0.0-28.0","p298720","AOOLS8280CL0Z","336OE47KI3QZCSCUXSQ8J11UOZXVWV","3FIJLY1B6WANJ6RXBTCAY5L1QKZPFQ","model","match","uniform","","","","","","","","95497.79999995232","97510.39999985695","","","","","","","","","","","","7","","stimuli/stars_7.png","38.5","","","","","stimuli/WM13_SUR.jpg","",""
"explore-choice","29","98182","0.0-29.0","p298720","AOOLS8280CL0Z","336OE47KI3QZCSCUXSQ8J11UOZXVWV","3FIJLY1B6WANJ6RXBTCAY5L1QKZPFQ","model","match","uniform","","","","","","","3654.5","97513","101167.5","[""stimuli/AM06_HO.jpg"",""stimuli/BF06_SC.jpg"",""stimuli/WM13_CC.jpg"",""stimuli/HM02_SUR.jpg""]","stimuli/AM06_HO.jpg","stimuli/BF06_SC.jpg","stimuli/WM13_CC.jpg","stimuli/HM02_SUR.jpg","pos1","stimuli/AM06_HO.jpg","HO","AM06","0","2.5","5","4","stimuli/stars_5.png","41","[""HO"",""SC"",""CC"",""SUR""]","[""AM06"",""BF06"",""WM13"",""HM02""]","[5,5,8,3]","[4,6,8,2]","","",""
"show-reward","30","100193","0.0-30.0","p298720","AOOLS8280CL0Z","336OE47KI3QZCSCUXSQ8J11UOZXVWV","3FIJLY1B6WANJ6RXBTCAY5L1QKZPFQ","model","match","uniform","","","","","","","","101671.79999995232","103680.20000004768","","","","","","","","","","","","5","","stimuli/stars_5.png","41","","","","","stimuli/AM06_HO.jpg","",""
"explore-choice","31","104879","0.0-31.0","p298720","AOOLS8280CL0Z","336OE47KI3QZCSCUXSQ8J11UOZXVWV","3FIJLY1B6WANJ6RXBTCAY5L1QKZPFQ","model","match","uniform","","","","","","","4164.299999952316","103683","107847.29999995232","[""stimuli/WM13_SC.jpg"",""stimuli/HM02_SUR.jpg"",""stimuli/BF06_CC.jpg"",""stimuli/AM06_HO.jpg""]","stimuli/WM13_SC.jpg","stimuli/HM02_SUR.jpg","stimuli/BF06_CC.jpg","stimuli/AM06_HO.jpg","pos4","stimuli/AM06_HO.jpg","HO","AM06","3","1","2","4","stimuli/stars_2.png","42","[""SC"",""SUR"",""CC"",""HO""]","[""WM13"",""HM02"",""BF06"",""AM06""]","[7,0,4,2]","[8,2,6,4]","","",""
"show-reward","32","106898","0.0-32.0","p298720","AOOLS8280CL0Z","336OE47KI3QZCSCUXSQ8J11UOZXVWV","3FIJLY1B6WANJ6RXBTCAY5L1QKZPFQ","model","match","uniform","","","","","","","","108371.29999995232","110385.70000004768","","","","","","","","","","","","2","","stimuli/stars_2.png","42","","","","","stimuli/AM06_HO.jpg","",""
"explore-choice","33","108642","0.0-33.0","p298720","AOOLS8280CL0Z","336OE47KI3QZCSCUXSQ8J11UOZXVWV","3FIJLY1B6WANJ6RXBTCAY5L1QKZPFQ","model","match","uniform","","","","","","","1232.7999999523163","110387","111619.79999995232","[""stimuli/WM13_CC.jpg"",""stimuli/BF06_SUR.jpg"",""stimuli/HM02_HO.jpg"",""stimuli/AM06_SC.jpg""]","stimuli/WM13_CC.jpg","stimuli/BF06_SUR.jpg","stimuli/HM02_HO.jpg","stimuli/AM06_SC.jpg","pos1","stimuli/WM13_CC.jpg","CC","WM13","0","5","10","8","stimuli/stars_10.png","47","[""CC"",""SUR"",""HO"",""SC""]","[""WM13"",""BF06"",""HM02"",""AM06""]","[10,7,4,5]","[8,6,2,4]","","",""
"show-reward","34","110659","0.0-34.0","p298720","AOOLS8280CL0Z","336OE47KI3QZCSCUXSQ8J11UOZXVWV","3FIJLY1B6WANJ6RXBTCAY5L1QKZPFQ","model","match","uniform","","","","","","","","112132","114145.89999985695","","","","","","","","","","","","10","","stimuli/stars_10.png","47","","","","","stimuli/WM13_CC.jpg","",""
"explore-choice","35","112152","0.0-35.0","p298720","AOOLS8280CL0Z","336OE47KI3QZCSCUXSQ8J11UOZXVWV","3FIJLY1B6WANJ6RXBTCAY5L1QKZPFQ","model","match","uniform","","","","","","","982.5","114148.39999985695","115130.89999985695","[""stimuli/WM13_HO.jpg"",""stimuli/HM02_SC.jpg"",""stimuli/BF06_SUR.jpg"",""stimuli/AM06_CC.jpg""]","stimuli/WM13_HO.jpg","stimuli/HM02_SC.jpg","stimuli/BF06_SUR.jpg","stimuli/AM06_CC.jpg","pos1","stimuli/WM13_HO.jpg","HO","WM13","0","4","8","8","stimuli/stars_8.png","51","[""HO"",""SC"",""SUR"",""CC""]","[""WM13"",""HM02"",""BF06"",""AM06""]","[8,3,6,4]","[8,2,6,4]","","",""
"show-reward","36","114174","0.0-36.0","p298720","AOOLS8280CL0Z","336OE47KI3QZCSCUXSQ8J11UOZXVWV","3FIJLY1B6WANJ6RXBTCAY5L1QKZPFQ","model","match","uniform","","","","","","","","115641.20000004768","117661.29999995232","","","","","","","","","","","","8","","stimuli/stars_8.png","51","","","","","stimuli/WM13_HO.jpg","",""
"explore-choice","37","116174","0.0-37.0","p298720","AOOLS8280CL0Z","336OE47KI3QZCSCUXSQ8J11UOZXVWV","3FIJLY1B6WANJ6RXBTCAY5L1QKZPFQ","model","match","uniform","","","","","","","1487","117663.09999990463","119150.09999990463","[""stimuli/AM06_SC.jpg"",""stimuli/BF06_HO.jpg"",""stimuli/WM13_SUR.jpg"",""stimuli/HM02_CC.jpg""]","stimuli/AM06_SC.jpg","stimuli/BF06_HO.jpg","stimuli/WM13_SUR.jpg","stimuli/HM02_CC.jpg","pos3","stimuli/WM13_SUR.jpg","SUR","WM13","2","5","10","8","stimuli/stars_10.png","56","[""SC"",""HO"",""SUR"",""CC""]","[""AM06"",""BF06"",""WM13"",""HM02""]","[3,6,10,0]","[4,6,8,2]","","",""
"show-reward","38","118195","0.0-38.0","p298720","AOOLS8280CL0Z","336OE47KI3QZCSCUXSQ8J11UOZXVWV","3FIJLY1B6WANJ6RXBTCAY5L1QKZPFQ","model","match","uniform","","","","","","","","119663.5","121675.79999995232","","","","","","","","","","","","10","","stimuli/stars_10.png","56","","","","","stimuli/WM13_SUR.jpg","",""
"explore-choice","39","119980","0.0-39.0","p298720","AOOLS8280CL0Z","336OE47KI3QZCSCUXSQ8J11UOZXVWV","3FIJLY1B6WANJ6RXBTCAY5L1QKZPFQ","model","match","uniform","","","","","","","1269","121678.59999990463","122947.59999990463","[""stimuli/BF06_SUR.jpg"",""stimuli/HM02_CC.jpg"",""stimuli/WM13_SC.jpg"",""stimuli/AM06_HO.jpg""]","stimuli/BF06_SUR.jpg","stimuli/HM02_CC.jpg","stimuli/WM13_SC.jpg","stimuli/AM06_HO.jpg","pos3","stimuli/WM13_SC.jpg","SC","WM13","2","3","6","8","stimuli/stars_6.png","59","[""SUR"",""CC"",""SC"",""HO""]","[""BF06"",""HM02"",""WM13"",""AM06""]","[5,4,6,2]","[6,2,8,4]","","",""
"show-reward","40","121993","0.0-40.0","p298720","AOOLS8280CL0Z","336OE47KI3QZCSCUXSQ8J11UOZXVWV","3FIJLY1B6WANJ6RXBTCAY5L1QKZPFQ","model","match","uniform","","","","","","","","123462.79999995232","125473.79999995232","","","","","","","","","","","","6","","stimuli/stars_6.png","59","","","","","stimuli/WM13_SC.jpg","",""
"explore-choice","41","124348","0.0-41.0","p298720","AOOLS8280CL0Z","336OE47KI3QZCSCUXSQ8J11UOZXVWV","3FIJLY1B6WANJ6RXBTCAY5L1QKZPFQ","model","match","uniform","","","","","","","1839.7999999523163","125475.09999990463","127314.89999985695","[""stimuli/AM06_SC.jpg"",""stimuli/HM02_CC.jpg"",""stimuli/BF06_SUR.jpg"",""stimuli/WM13_HO.jpg""]","stimuli/AM06_SC.jpg","stimuli/HM02_CC.jpg","stimuli/BF06_SUR.jpg","stimuli/WM13_HO.jpg","pos4","stimuli/WM13_HO.jpg","HO","WM13","3","3.5","7","8","stimuli/stars_7.png","62.5","[""SC"",""CC"",""SUR"",""HO""]","[""AM06"",""HM02"",""BF06"",""WM13""]","[5,2,5,7]","[4,2,6,8]","","",""
"show-reward","42","126366","0.0-42.0","p298720","AOOLS8280CL0Z","336OE47KI3QZCSCUXSQ8J11UOZXVWV","3FIJLY1B6WANJ6RXBTCAY5L1QKZPFQ","model","match","uniform","","","","","","","","127831.09999990463","129845.79999995232","","","","","","","","","","","","7","","stimuli/stars_7.png","62.5","","","","","stimuli/WM13_HO.jpg","",""
"explore-choice","43","128525","0.0-43.0","p298720","AOOLS8280CL0Z","336OE47KI3QZCSCUXSQ8J11UOZXVWV","3FIJLY1B6WANJ6RXBTCAY5L1QKZPFQ","model","match","uniform","","","","","","","1640.4000000953674","129848.79999995232","131489.20000004768","[""stimuli/HM02_HO.jpg"",""stimuli/AM06_SC.jpg"",""stimuli/WM13_SUR.jpg"",""stimuli/BF06_CC.jpg""]","stimuli/HM02_HO.jpg","stimuli/AM06_SC.jpg","stimuli/WM13_SUR.jpg","stimuli/BF06_CC.jpg","pos3","stimuli/WM13_SUR.jpg","SUR","WM13","2","3","6","8","stimuli/stars_6.png","65.5","[""HO"",""SC"",""SUR"",""CC""]","[""HM02"",""AM06"",""WM13"",""BF06""]","[0,5,6,4]","[2,4,8,6]","","",""
"show-reward","44","130538","0.0-44.0","p298720","AOOLS8280CL0Z","336OE47KI3QZCSCUXSQ8J11UOZXVWV","3FIJLY1B6WANJ6RXBTCAY5L1QKZPFQ","model","match","uniform","","","","","","","","132007.89999985695","134018.39999985695","","","","","","","","","","","","6","","stimuli/stars_6.png","65.5","","","","","stimuli/WM13_SUR.jpg","",""
"explore-choice","45","132792","0.0-45.0","p298720","AOOLS8280CL0Z","336OE47KI3QZCSCUXSQ8J11UOZXVWV","3FIJLY1B6WANJ6RXBTCAY5L1QKZPFQ","model","match","uniform","","","","","","","1734.0999999046326","134021.5","135755.59999990463","[""stimuli/WM13_CC.jpg"",""stimuli/AM06_SC.jpg"",""stimuli/HM02_SUR.jpg"",""stimuli/BF06_HO.jpg""]","stimuli/WM13_CC.jpg","stimuli/AM06_SC.jpg","stimuli/HM02_SUR.jpg","stimuli/BF06_HO.jpg","pos1","stimuli/WM13_CC.jpg","CC","WM13","0","4.5","9","8","stimuli/stars_9.png","70","[""CC"",""SC"",""SUR"",""HO""]","[""WM13"",""AM06"",""HM02"",""BF06""]","[9,4,0,6]","[8,4,2,6]","","",""
"show-reward","46","134799","0.0-46.0","p298720","AOOLS8280CL0Z","336OE47KI3QZCSCUXSQ8J11UOZXVWV","3FIJLY1B6WANJ6RXBTCAY5L1QKZPFQ","model","match","uniform","","","","","","","","136274.09999990463","138278.79999995232","","","","","","","","","","","","9","","stimuli/stars_9.png","70","","","","","stimuli/WM13_CC.jpg","",""
"explore-choice","47","137110","0.0-47.0","p298720","AOOLS8280CL0Z","336OE47KI3QZCSCUXSQ8J11UOZXVWV","3FIJLY1B6WANJ6RXBTCAY5L1QKZPFQ","model","match","uniform","","","","","","","1805.8999998569489","138282.20000004768","140088.09999990463","[""stimuli/HM02_HO.jpg"",""stimuli/BF06_SUR.jpg"",""stimuli/AM06_CC.jpg"",""stimuli/WM13_SC.jpg""]","stimuli/HM02_HO.jpg","stimuli/BF06_SUR.jpg","stimuli/AM06_CC.jpg","stimuli/WM13_SC.jpg","pos4","stimuli/WM13_SC.jpg","SC","WM13","3","4.5","9","8","stimuli/stars_9.png","74.5","[""HO"",""SUR"",""CC"",""SC""]","[""HM02"",""BF06"",""AM06"",""WM13""]","[2,6,6,9]","[2,6,4,8]","","",""
"show-reward","48","139134","0.0-48.0","p298720","AOOLS8280CL0Z","336OE47KI3QZCSCUXSQ8J11UOZXVWV","3FIJLY1B6WANJ6RXBTCAY5L1QKZPFQ","model","match","uniform","","","","","","","","140593.29999995232","142614.09999990463","","","","","","","","","","","","9","","stimuli/stars_9.png","74.5","","","","","stimuli/WM13_SC.jpg","",""
"explore-choice","49","141156","0.0-49.0","p298720","AOOLS8280CL0Z","336OE47KI3QZCSCUXSQ8J11UOZXVWV","3FIJLY1B6WANJ6RXBTCAY5L1QKZPFQ","model","match","uniform","","","","","","","1511.2999999523163","142617","144128.29999995232","[""stimuli/WM13_CC.jpg"",""stimuli/AM06_SUR.jpg"",""stimuli/HM02_HO.jpg"",""stimuli/BF06_SC.jpg""]","stimuli/WM13_CC.jpg","stimuli/AM06_SUR.jpg","stimuli/HM02_HO.jpg","stimuli/BF06_SC.jpg","pos1","stimuli/WM13_CC.jpg","CC","WM13","0","5","10","8","stimuli/stars_10.png","79.5","[""CC"",""SUR"",""HO"",""SC""]","[""WM13"",""AM06"",""HM02"",""BF06""]","[10,6,2,5]","[8,4,2,6]","","",""
"show-reward","50","143180","0.0-50.0","p298720","AOOLS8280CL0Z","336OE47KI3QZCSCUXSQ8J11UOZXVWV","3FIJLY1B6WANJ6RXBTCAY5L1QKZPFQ","model","match","uniform","","","","","","","","144639.59999990463","146660","","","","","","","","","","","","10","","stimuli/stars_10.png","79.5","","","","","stimuli/WM13_CC.jpg","",""
"explore-choice","51","145841","0.0-51.0","p298720","AOOLS8280CL0Z","336OE47KI3QZCSCUXSQ8J11UOZXVWV","3FIJLY1B6WANJ6RXBTCAY5L1QKZPFQ","model","match","uniform","","","","","","","2136.5","146663","148799.5","[""stimuli/HM02_SC.jpg"",""stimuli/WM13_SUR.jpg"",""stimuli/BF06_CC.jpg"",""stimuli/AM06_HO.jpg""]","stimuli/HM02_SC.jpg","stimuli/WM13_SUR.jpg","stimuli/BF06_CC.jpg","stimuli/AM06_HO.jpg","pos2","stimuli/WM13_SUR.jpg","SUR","WM13","1","4","8","8","stimuli/stars_8.png","83.5","[""SC"",""SUR"",""CC"",""HO""]","[""HM02"",""WM13"",""BF06"",""AM06""]","[3,8,4,5]","[2,8,6,4]","","",""
"show-reward","52","147861","0.0-52.0","p298720","AOOLS8280CL0Z","336OE47KI3QZCSCUXSQ8J11UOZXVWV","3FIJLY1B6WANJ6RXBTCAY5L1QKZPFQ","model","match","uniform","","","","","","","","149327.59999990463","151341.09999990463","","","","","","","","","","","","8","","stimuli/stars_8.png","83.5","","","","","stimuli/WM13_SUR.jpg","",""
"explore-choice","53","149954","0.0-53.0","p298720","AOOLS8280CL0Z","336OE47KI3QZCSCUXSQ8J11UOZXVWV","3FIJLY1B6WANJ6RXBTCAY5L1QKZPFQ","model","match","uniform","","","","","","","1589.8000001907349","151343.89999985695","152933.70000004768","[""stimuli/BF06_HO.jpg"",""stimuli/WM13_SC.jpg"",""stimuli/AM06_SUR.jpg"",""stimuli/HM02_CC.jpg""]","stimuli/BF06_HO.jpg","stimuli/WM13_SC.jpg","stimuli/AM06_SUR.jpg","stimuli/HM02_CC.jpg","pos2","stimuli/WM13_SC.jpg","SC","WM13","1","3","6","8","stimuli/stars_6.png","86.5","[""HO"",""SC"",""SUR"",""CC""]","[""BF06"",""WM13"",""AM06"",""HM02""]","[5,6,6,1]","[6,8,4,2]","","",""
"show-reward","54","151971","0.0-54.0","p298720","AOOLS8280CL0Z","336OE47KI3QZCSCUXSQ8J11UOZXVWV","3FIJLY1B6WANJ6RXBTCAY5L1QKZPFQ","model","match","uniform","","","","","","","","153437.70000004768","155451.79999995232","","","","","","","","","","","","6","","stimuli/stars_6.png","86.5","","","","","stimuli/WM13_SC.jpg","",""
"explore-choice","55","154170","0.0-55.0","p298720","AOOLS8280CL0Z","336OE47KI3QZCSCUXSQ8J11UOZXVWV","3FIJLY1B6WANJ6RXBTCAY5L1QKZPFQ","model","match","uniform","","","","","","","1691","155454.5","157145.5","[""stimuli/BF06_SC.jpg"",""stimuli/AM06_CC.jpg"",""stimuli/WM13_SUR.jpg"",""stimuli/HM02_HO.jpg""]","stimuli/BF06_SC.jpg","stimuli/AM06_CC.jpg","stimuli/WM13_SUR.jpg","stimuli/HM02_HO.jpg","pos3","stimuli/WM13_SUR.jpg","SUR","WM13","2","3.5","7","8","stimuli/stars_7.png","90","[""SC"",""CC"",""SUR"",""HO""]","[""BF06"",""AM06"",""WM13"",""HM02""]","[7,4,7,0]","[6,4,8,2]","","",""
"show-reward","56","156187","0.0-56.0","p298720","AOOLS8280CL0Z","336OE47KI3QZCSCUXSQ8J11UOZXVWV","3FIJLY1B6WANJ6RXBTCAY5L1QKZPFQ","model","match","uniform","","","","","","","","157653.59999990463","159667.29999995232","","","","","","","","","","","","7","","stimuli/stars_7.png","90","","","","","stimuli/WM13_SUR.jpg","",""
"explore-choice","57","158262","0.0-57.0","p298720","AOOLS8280CL0Z","336OE47KI3QZCSCUXSQ8J11UOZXVWV","3FIJLY1B6WANJ6RXBTCAY5L1QKZPFQ","model","match","uniform","","","","","","","1557.4000000953674","159669.39999985695","161226.79999995232","[""stimuli/AM06_HO.jpg"",""stimuli/BF06_SC.jpg"",""stimuli/HM02_SUR.jpg"",""stimuli/WM13_CC.jpg""]","stimuli/AM06_HO.jpg","stimuli/BF06_SC.jpg","stimuli/HM02_SUR.jpg","stimuli/WM13_CC.jpg","pos4","stimuli/WM13_CC.jpg","CC","WM13","3","4","8","8","stimuli/stars_8.png","94","[""HO"",""SC"",""SUR"",""CC""]","[""AM06"",""BF06"",""HM02"",""WM13""]","[5,5,3,8]","[4,6,2,8]","","",""
"show-reward","58","160280","0.0-58.0","p298720","AOOLS8280CL0Z","336OE47KI3QZCSCUXSQ8J11UOZXVWV","3FIJLY1B6WANJ6RXBTCAY5L1QKZPFQ","model","match","uniform","","","","","","","","161744.89999985695","163760.39999985695","","","","","","","","","","","","8","","stimuli/stars_8.png","94","","","","","stimuli/WM13_CC.jpg","",""
"explore-choice","59","162268","0.0-59.0","p298720","AOOLS8280CL0Z","336OE47KI3QZCSCUXSQ8J11UOZXVWV","3FIJLY1B6WANJ6RXBTCAY5L1QKZPFQ","model","match","uniform","","","","","","","1477.9000000953674","163763.59999990463","165241.5","[""stimuli/WM13_CC.jpg"",""stimuli/AM06_HO.jpg"",""stimuli/BF06_SUR.jpg"",""stimuli/HM02_SC.jpg""]","stimuli/WM13_CC.jpg","stimuli/AM06_HO.jpg","stimuli/BF06_SUR.jpg","stimuli/HM02_SC.jpg","pos1","stimuli/WM13_CC.jpg","CC","WM13","0","4.5","9","8","stimuli/stars_9.png","98.5","[""CC"",""HO"",""SUR"",""SC""]","[""WM13"",""AM06"",""BF06"",""HM02""]","[9,2,7,1]","[8,4,6,2]","","",""
"show-reward","60","164294","0.0-60.0","p298720","AOOLS8280CL0Z","336OE47KI3QZCSCUXSQ8J11UOZXVWV","3FIJLY1B6WANJ6RXBTCAY5L1QKZPFQ","model","match","uniform","","","","","","","","165750.89999985695","167774.09999990463","","","","","","","","","","","","9","","stimuli/stars_9.png","98.5","","","","","stimuli/WM13_CC.jpg","",""
"explore-choice","61","166570","0.0-61.0","p298720","AOOLS8280CL0Z","336OE47KI3QZCSCUXSQ8J11UOZXVWV","3FIJLY1B6WANJ6RXBTCAY5L1QKZPFQ","model","match","uniform","","","","","","","1770.3000001907349","167776.89999985695","169547.20000004768","[""stimuli/AM06_SC.jpg"",""stimuli/WM13_SUR.jpg"",""stimuli/BF06_CC.jpg"",""stimuli/HM02_HO.jpg""]","stimuli/AM06_SC.jpg","stimuli/WM13_SUR.jpg","stimuli/BF06_CC.jpg","stimuli/HM02_HO.jpg","pos2","stimuli/WM13_SUR.jpg","SUR","WM13","1","3","6","8","stimuli/stars_6.png","101.5","[""SC"",""SUR"",""CC"",""HO""]","[""AM06"",""WM13"",""BF06"",""HM02""]","[5,6,4,0]","[4,8,6,2]","","",""
"show-reward","62","168583","0.0-62.0","p298720","AOOLS8280CL0Z","336OE47KI3QZCSCUXSQ8J11UOZXVWV","3FIJLY1B6WANJ6RXBTCAY5L1QKZPFQ","model","match","uniform","","","","","","","","170052.70000004768","172063.20000004768","","","","","","","","","","","","6","","stimuli/stars_6.png","101.5","","","","","stimuli/WM13_SUR.jpg","",""
"explore-choice","63","170533","0.0-63.0","p298720","AOOLS8280CL0Z","336OE47KI3QZCSCUXSQ8J11UOZXVWV","3FIJLY1B6WANJ6RXBTCAY5L1QKZPFQ","model","match","uniform","","","","","","","1444.2000000476837","172066.39999985695","173510.59999990463","[""stimuli/WM13_HO.jpg"",""stimuli/HM02_SUR.jpg"",""stimuli/AM06_CC.jpg"",""stimuli/BF06_SC.jpg""]","stimuli/WM13_HO.jpg","stimuli/HM02_SUR.jpg","stimuli/AM06_CC.jpg","stimuli/BF06_SC.jpg","pos1","stimuli/WM13_HO.jpg","HO","WM13","0","4","8","8","stimuli/stars_8.png","105.5","[""HO"",""SUR"",""CC"",""SC""]","[""WM13"",""HM02"",""AM06"",""BF06""]","[8,0,5,7]","[8,2,4,6]","","",""
"show-reward","64","172546","0.0-64.0","p298720","AOOLS8280CL0Z","336OE47KI3QZCSCUXSQ8J11UOZXVWV","3FIJLY1B6WANJ6RXBTCAY5L1QKZPFQ","model","match","uniform","","","","","","","","174016.70000004768","176026.39999985695","","","","","","","","","","","","8","","stimuli/stars_8.png","105.5","","","","","stimuli/WM13_HO.jpg","",""
"explore-choice","65","174635","0.0-65.0","p298720","AOOLS8280CL0Z","336OE47KI3QZCSCUXSQ8J11UOZXVWV","3FIJLY1B6WANJ6RXBTCAY5L1QKZPFQ","model","match","uniform","","","","","","","1582.1000001430511","176029.39999985695","177611.5","[""stimuli/HM02_SC.jpg"",""stimuli/AM06_SUR.jpg"",""stimuli/BF06_CC.jpg"",""stimuli/WM13_HO.jpg""]","stimuli/HM02_SC.jpg","stimuli/AM06_SUR.jpg","stimuli/BF06_CC.jpg","stimuli/WM13_HO.jpg","pos4","stimuli/WM13_HO.jpg","HO","WM13","3","4","8","8","stimuli/stars_8.png","109.5","[""SC"",""SUR"",""CC"",""HO""]","[""HM02"",""AM06"",""BF06"",""WM13""]","[3,2,4,8]","[2,4,6,8]","","",""
"show-reward","66","176653","0.0-66.0","p298720","AOOLS8280CL0Z","336OE47KI3QZCSCUXSQ8J11UOZXVWV","3FIJLY1B6WANJ6RXBTCAY5L1QKZPFQ","model","match","uniform","","","","","","","","178117.89999985695","180133.70000004768","","","","","","","","","","","","8","","stimuli/stars_8.png","109.5","","","","","stimuli/WM13_HO.jpg","",""
"explore-choice","67","179805","0.0-67.0","p298720","AOOLS8280CL0Z","336OE47KI3QZCSCUXSQ8J11UOZXVWV","3FIJLY1B6WANJ6RXBTCAY5L1QKZPFQ","model","match","uniform","","","","","","","2643.2000000476837","180136.5","182779.70000004768","[""stimuli/AM06_HO.jpg"",""stimuli/WM13_SUR.jpg"",""stimuli/HM02_CC.jpg"",""stimuli/BF06_SC.jpg""]","stimuli/AM06_HO.jpg","stimuli/WM13_SUR.jpg","stimuli/HM02_CC.jpg","stimuli/BF06_SC.jpg","pos2","stimuli/WM13_SUR.jpg","SUR","WM13","1","4","8","8","stimuli/stars_8.png","113.5","[""HO"",""SUR"",""CC"",""SC""]","[""AM06"",""WM13"",""HM02"",""BF06""]","[2,8,0,6]","[4,8,2,6]","","",""
"show-reward","68","181819","0.0-68.0","p298720","AOOLS8280CL0Z","336OE47KI3QZCSCUXSQ8J11UOZXVWV","3FIJLY1B6WANJ6RXBTCAY5L1QKZPFQ","model","match","uniform","","","","","","","","183289.39999985695","185300.39999985695","","","","","","","","","","","","8","","stimuli/stars_8.png","113.5","","","","","stimuli/WM13_SUR.jpg","",""
"explore-choice","69","184178","0.0-69.0","p298720","AOOLS8280CL0Z","336OE47KI3QZCSCUXSQ8J11UOZXVWV","3FIJLY1B6WANJ6RXBTCAY5L1QKZPFQ","model","match","uniform","","","","","","","1849.7000000476837","185304.09999990463","187153.79999995232","[""stimuli/HM02_SC.jpg"",""stimuli/BF06_HO.jpg"",""stimuli/WM13_SUR.jpg"",""stimuli/AM06_CC.jpg""]","stimuli/HM02_SC.jpg","stimuli/BF06_HO.jpg","stimuli/WM13_SUR.jpg","stimuli/AM06_CC.jpg","pos3","stimuli/WM13_SUR.jpg","SUR","WM13","2","5","10","8","stimuli/stars_10.png","118.5","[""SC"",""HO"",""SUR"",""CC""]","[""HM02"",""BF06"",""WM13"",""AM06""]","[2,4,10,6]","[2,6,8,4]","","",""
"show-reward","70","186196","0.0-70.0","p298720","AOOLS8280CL0Z","336OE47KI3QZCSCUXSQ8J11UOZXVWV","3FIJLY1B6WANJ6RXBTCAY5L1QKZPFQ","model","match","uniform","","","","","","","","187662.29999995232","189676.5","","","","","","","","","","","","10","","stimuli/stars_10.png","118.5","","","","","stimuli/WM13_SUR.jpg","",""
"explore-choice","71","188663","0.0-71.0","p298720","AOOLS8280CL0Z","336OE47KI3QZCSCUXSQ8J11UOZXVWV","3FIJLY1B6WANJ6RXBTCAY5L1QKZPFQ","model","match","uniform","","","","","","","1956.5999999046326","189679.29999995232","191635.89999985695","[""stimuli/WM13_SUR.jpg"",""stimuli/AM06_SC.jpg"",""stimuli/BF06_HO.jpg"",""stimuli/HM02_CC.jpg""]","stimuli/WM13_SUR.jpg","stimuli/AM06_SC.jpg","stimuli/BF06_HO.jpg","stimuli/HM02_CC.jpg","pos1","stimuli/WM13_SUR.jpg","SUR","WM13","0","5","10","8","stimuli/stars_10.png","123.5","[""SUR"",""SC"",""HO"",""CC""]","[""WM13"",""AM06"",""BF06"",""HM02""]","[10,3,6,0]","[8,4,6,2]","","",""
"show-reward","72","190686","0.0-72.0","p298720","AOOLS8280CL0Z","336OE47KI3QZCSCUXSQ8J11UOZXVWV","3FIJLY1B6WANJ6RXBTCAY5L1QKZPFQ","model","match","uniform","","","","","","","","192146.59999990463","194167","","","","","","","","","","","","10","","stimuli/stars_10.png","123.5","","","","","stimuli/WM13_SUR.jpg","",""
"explore-choice","73","195207","0.0-73.0","p298720","AOOLS8280CL0Z","336OE47KI3QZCSCUXSQ8J11UOZXVWV","3FIJLY1B6WANJ6RXBTCAY5L1QKZPFQ","model","match","uniform","","","","","","","4007.2000000476837","194173","198180.20000004768","[""stimuli/WM13_HO.jpg"",""stimuli/AM06_SUR.jpg"",""stimuli/HM02_CC.jpg"",""stimuli/BF06_SC.jpg""]","stimuli/WM13_HO.jpg","stimuli/AM06_SUR.jpg","stimuli/HM02_CC.jpg","stimuli/BF06_SC.jpg","pos1","stimuli/WM13_HO.jpg","HO","WM13","0","4","8","8","stimuli/stars_8.png","127.5","[""HO"",""SUR"",""CC"",""SC""]","[""WM13"",""AM06"",""HM02"",""BF06""]","[8,2,4,6]","[8,4,2,6]","","",""
"show-reward","74","197223","0.0-74.0","p298720","AOOLS8280CL0Z","336OE47KI3QZCSCUXSQ8J11UOZXVWV","3FIJLY1B6WANJ6RXBTCAY5L1QKZPFQ","model","match","uniform","","","","","","","","198690.20000004768","200703.89999985695","","","","","","","","","","","","8","","stimuli/stars_8.png","127.5","","","","","stimuli/WM13_HO.jpg","",""
"explore-choice","75","199645","0.0-75.0","p298720","AOOLS8280CL0Z","336OE47KI3QZCSCUXSQ8J11UOZXVWV","3FIJLY1B6WANJ6RXBTCAY5L1QKZPFQ","model","match","uniform","","","","","","","1913.2000000476837","200706.09999990463","202619.29999995232","[""stimuli/BF06_SUR.jpg"",""stimuli/WM13_SC.jpg"",""stimuli/HM02_CC.jpg"",""stimuli/AM06_HO.jpg""]","stimuli/BF06_SUR.jpg","stimuli/WM13_SC.jpg","stimuli/HM02_CC.jpg","stimuli/AM06_HO.jpg","pos2","stimuli/WM13_SC.jpg","SC","WM13","1","3","6","8","stimuli/stars_6.png","130.5","[""SUR"",""SC"",""CC"",""HO""]","[""BF06"",""WM13"",""HM02"",""AM06""]","[5,6,4,2]","[6,8,2,4]","","",""
"show-reward","76","201659","0.0-76.0","p298720","AOOLS8280CL0Z","336OE47KI3QZCSCUXSQ8J11UOZXVWV","3FIJLY1B6WANJ6RXBTCAY5L1QKZPFQ","model","match","uniform","","","","","","","","203128.39999985695","205140","","","","","","","","","","","","6","","stimuli/stars_6.png","130.5","","","","","stimuli/WM13_SC.jpg","",""
"explore-choice","77","204242","0.0-77.0","p298720","AOOLS8280CL0Z","336OE47KI3QZCSCUXSQ8J11UOZXVWV","3FIJLY1B6WANJ6RXBTCAY5L1QKZPFQ","model","match","uniform","","","","","","","2073.899999856949","205142.70000004768","207216.59999990463","[""stimuli/HM02_HO.jpg"",""stimuli/BF06_SUR.jpg"",""stimuli/AM06_CC.jpg"",""stimuli/WM13_SC.jpg""]","stimuli/HM02_HO.jpg","stimuli/BF06_SUR.jpg","stimuli/AM06_CC.jpg","stimuli/WM13_SC.jpg","pos4","stimuli/WM13_SC.jpg","SC","WM13","3","4.5","9","8","stimuli/stars_9.png","135","[""HO"",""SUR"",""CC"",""SC""]","[""HM02"",""BF06"",""AM06"",""WM13""]","[2,6,6,9]","[2,6,4,8]","","",""
"show-reward","78","206251","0.0-78.0","p298720","AOOLS8280CL0Z","336OE47KI3QZCSCUXSQ8J11UOZXVWV","3FIJLY1B6WANJ6RXBTCAY5L1QKZPFQ","model","match","uniform","","","","","","","","207725.5","209732.89999985695","","","","","","","","","","","","9","","stimuli/stars_9.png","135","","","","","stimuli/WM13_SC.jpg","",""
"explore-choice","79","207937","0.0-79.0","p298720","AOOLS8280CL0Z","336OE47KI3QZCSCUXSQ8J11UOZXVWV","3FIJLY1B6WANJ6RXBTCAY5L1QKZPFQ","model","match","uniform","","","","","","","1180.2999999523163","209734.70000004768","210915","[""stimuli/BF06_SC.jpg"",""stimuli/AM06_SUR.jpg"",""stimuli/HM02_HO.jpg"",""stimuli/WM13_CC.jpg""]","stimuli/BF06_SC.jpg","stimuli/AM06_SUR.jpg","stimuli/HM02_HO.jpg","stimuli/WM13_CC.jpg","pos4","stimuli/WM13_CC.jpg","CC","WM13","3","5","10","8","stimuli/stars_10.png","140","[""SC"",""SUR"",""HO"",""CC""]","[""BF06"",""AM06"",""HM02"",""WM13""]","[5,6,2,10]","[6,4,2,8]","","",""
"show-reward","80","209951","0.0-80.0","p298720","AOOLS8280CL0Z","336OE47KI3QZCSCUXSQ8J11UOZXVWV","3FIJLY1B6WANJ6RXBTCAY5L1QKZPFQ","model","match","uniform","","","","","","","","211420.09999990463","213431.89999985695","","","","","","","","","","","","10","","stimuli/stars_10.png","140","","","","","stimuli/WM13_CC.jpg","",""
"explore-choice","81","212204","0.0-81.0","p298720","AOOLS8280CL0Z","336OE47KI3QZCSCUXSQ8J11UOZXVWV","3FIJLY1B6WANJ6RXBTCAY5L1QKZPFQ","model","match","uniform","","","","","","","1737.0999999046326","213434.70000004768","215171.79999995232","[""stimuli/WM13_SC.jpg"",""stimuli/HM02_HO.jpg"",""stimuli/BF06_CC.jpg"",""stimuli/AM06_SUR.jpg""]","stimuli/WM13_SC.jpg","stimuli/HM02_HO.jpg","stimuli/BF06_CC.jpg","stimuli/AM06_SUR.jpg","pos1","stimuli/WM13_SC.jpg","SC","WM13","0","5","10","8","stimuli/stars_10.png","145","[""SC"",""HO"",""CC"",""SUR""]","[""WM13"",""HM02"",""BF06"",""AM06""]","[10,3,4,2]","[8,2,6,4]","","",""
"show-reward","82","214220","0.0-82.0","p298720","AOOLS8280CL0Z","336OE47KI3QZCSCUXSQ8J11UOZXVWV","3FIJLY1B6WANJ6RXBTCAY5L1QKZPFQ","model","match","uniform","","","","","","","","215686.39999985695","217700.39999985695","","","","","","","","","","","","10","","stimuli/stars_10.png","145","","","","","stimuli/WM13_SC.jpg","",""
"explore-choice","83","216288","0.0-83.0","p298720","AOOLS8280CL0Z","336OE47KI3QZCSCUXSQ8J11UOZXVWV","3FIJLY1B6WANJ6RXBTCAY5L1QKZPFQ","model","match","uniform","","","","","","","1559.1000001430511","217703.39999985695","219262.5","[""stimuli/AM06_SC.jpg"",""stimuli/WM13_CC.jpg"",""stimuli/HM02_SUR.jpg"",""stimuli/BF06_HO.jpg""]","stimuli/AM06_SC.jpg","stimuli/WM13_CC.jpg","stimuli/HM02_SUR.jpg","stimuli/BF06_HO.jpg","pos2","stimuli/WM13_CC.jpg","CC","WM13","1","4.5","9","8","stimuli/stars_9.png","149.5","[""SC"",""CC"",""SUR"",""HO""]","[""AM06"",""WM13"",""HM02"",""BF06""]","[4,9,0,6]","[4,8,2,6]","","",""
"show-reward","84","218298","0.0-84.0","p298720","AOOLS8280CL0Z","336OE47KI3QZCSCUXSQ8J11UOZXVWV","3FIJLY1B6WANJ6RXBTCAY5L1QKZPFQ","model","match","uniform","","","","","","","","219771.59999990463","221778.89999985695","","","","","","","","","","","","9","","stimuli/stars_9.png","149.5","","","","","stimuli/WM13_CC.jpg","",""
"explore-choice","85","220353","0.0-85.0","p298720","AOOLS8280CL0Z","336OE47KI3QZCSCUXSQ8J11UOZXVWV","3FIJLY1B6WANJ6RXBTCAY5L1QKZPFQ","model","match","uniform","","","","","","","1540.1999998092651","221781.20000004768","223321.39999985695","[""stimuli/AM06_HO.jpg"",""stimuli/HM02_SC.jpg"",""stimuli/WM13_SUR.jpg"",""stimuli/BF06_CC.jpg""]","stimuli/AM06_HO.jpg","stimuli/HM02_SC.jpg","stimuli/WM13_SUR.jpg","stimuli/BF06_CC.jpg","pos3","stimuli/WM13_SUR.jpg","SUR","WM13","2","4","8","8","stimuli/stars_8.png","153.5","[""HO"",""SC"",""SUR"",""CC""]","[""AM06"",""HM02"",""WM13"",""BF06""]","[5,3,8,4]","[4,2,8,6]","","",""
"show-reward","86","222372","0.0-86.0","p298720","AOOLS8280CL0Z","336OE47KI3QZCSCUXSQ8J11UOZXVWV","3FIJLY1B6WANJ6RXBTCAY5L1QKZPFQ","model","match","uniform","","","","","","","","223835.5","225853","","","","","","","","","","","","8","","stimuli/stars_8.png","153.5","","","","","stimuli/WM13_SUR.jpg","",""
"explore-choice","87","224358","0.0-87.0","p298720","AOOLS8280CL0Z","336OE47KI3QZCSCUXSQ8J11UOZXVWV","3FIJLY1B6WANJ6RXBTCAY5L1QKZPFQ","model","match","uniform","","","","","","","1471.5","225855.79999995232","227327.29999995232","[""stimuli/WM13_SC.jpg"",""stimuli/BF06_HO.jpg"",""stimuli/AM06_CC.jpg"",""stimuli/HM02_SUR.jpg""]","stimuli/WM13_SC.jpg","stimuli/BF06_HO.jpg","stimuli/AM06_CC.jpg","stimuli/HM02_SUR.jpg","pos1","stimuli/WM13_SC.jpg","SC","WM13","0","3.5","7","8","stimuli/stars_7.png","157","[""SC"",""HO"",""CC"",""SUR""]","[""WM13"",""BF06"",""AM06"",""HM02""]","[7,4,4,0]","[8,6,4,2]","","",""
"show-reward","88","226376","0.0-88.0","p298720","AOOLS8280CL0Z","336OE47KI3QZCSCUXSQ8J11UOZXVWV","3FIJLY1B6WANJ6RXBTCAY5L1QKZPFQ","model","match","uniform","","","","","","","","227840.70000004768","229857.29999995232","","","","","","","","","","","","7","","stimuli/stars_7.png","157","","","","","stimuli/WM13_SC.jpg","",""
"explore-choice","89","228892","0.0-89.0","p298720","AOOLS8280CL0Z","336OE47KI3QZCSCUXSQ8J11UOZXVWV","3FIJLY1B6WANJ6RXBTCAY5L1QKZPFQ","model","match","uniform","","","","","","","2013.3999998569489","229859","231872.39999985695","[""stimuli/BF06_HO.jpg"",""stimuli/HM02_CC.jpg"",""stimuli/AM06_SUR.jpg"",""stimuli/WM13_SC.jpg""]","stimuli/BF06_HO.jpg","stimuli/HM02_CC.jpg","stimuli/AM06_SUR.jpg","stimuli/WM13_SC.jpg","pos4","stimuli/WM13_SC.jpg","SC","WM13","3","3","6","8","stimuli/stars_6.png","160","[""HO"",""CC"",""SUR"",""SC""]","[""BF06"",""HM02"",""AM06"",""WM13""]","[5,1,6,6]","[6,2,4,8]","","",""
"show-reward","90","230901","0.0-90.0","p298720","AOOLS8280CL0Z","336OE47KI3QZCSCUXSQ8J11UOZXVWV","3FIJLY1B6WANJ6RXBTCAY5L1QKZPFQ","model","match","uniform","","","","","","","","232376","234382.79999995232","","","","","","","","","","","","6","","stimuli/stars_6.png","160","","","","","stimuli/WM13_SC.jpg","",""
"explore-choice","91","233383","0.0-91.0","p298720","AOOLS8280CL0Z","336OE47KI3QZCSCUXSQ8J11UOZXVWV","3FIJLY1B6WANJ6RXBTCAY5L1QKZPFQ","model","match","uniform","","","","","","","1971.5","234384.20000004768","236355.70000004768","[""stimuli/AM06_SC.jpg"",""stimuli/WM13_HO.jpg"",""stimuli/BF06_CC.jpg"",""stimuli/HM02_SUR.jpg""]","stimuli/AM06_SC.jpg","stimuli/WM13_HO.jpg","stimuli/BF06_CC.jpg","stimuli/HM02_SUR.jpg","pos2","stimuli/WM13_HO.jpg","HO","WM13","1","3.5","7","8","stimuli/stars_7.png","163.5","[""SC"",""HO"",""CC"",""SUR""]","[""AM06"",""WM13"",""BF06"",""HM02""]","[5,7,8,1]","[4,8,6,2]","","",""
"show-reward","92","235451","0.0-92.0","p298720","AOOLS8280CL0Z","336OE47KI3QZCSCUXSQ8J11UOZXVWV","3FIJLY1B6WANJ6RXBTCAY5L1QKZPFQ","model","match","uniform","","","","","","","","236867","238931.89999985695","","","","","","","","","","","","7","","stimuli/stars_7.png","163.5","","","","","stimuli/WM13_HO.jpg","",""
"explore-choice","93","237051","0.0-93.0","p298720","AOOLS8280CL0Z","336OE47KI3QZCSCUXSQ8J11UOZXVWV","3FIJLY1B6WANJ6RXBTCAY5L1QKZPFQ","model","match","uniform","","","","","","","1098.0999999046326","238933.70000004768","240031.79999995232","[""stimuli/AM06_SUR.jpg"",""stimuli/WM13_CC.jpg"",""stimuli/BF06_HO.jpg"",""stimuli/HM02_SC.jpg""]","stimuli/AM06_SUR.jpg","stimuli/WM13_CC.jpg","stimuli/BF06_HO.jpg","stimuli/HM02_SC.jpg","pos2","stimuli/WM13_CC.jpg","CC","WM13","1","3","6","8","stimuli/stars_6.png","166.5","[""SUR"",""CC"",""HO"",""SC""]","[""AM06"",""WM13"",""BF06"",""HM02""]","[4,6,6,1]","[4,8,6,2]","","",""
"show-reward","94","239057","0.0-94.0","p298720","AOOLS8280CL0Z","336OE47KI3QZCSCUXSQ8J11UOZXVWV","3FIJLY1B6WANJ6RXBTCAY5L1QKZPFQ","model","match","uniform","","","","","","","","240533.59999990463","242538.59999990463","","","","","","","","","","","","6","","stimuli/stars_6.png","166.5","","","","","stimuli/WM13_CC.jpg","",""
"explore-choice","95","241213","0.0-95.0","p298720","AOOLS8280CL0Z","336OE47KI3QZCSCUXSQ8J11UOZXVWV","3FIJLY1B6WANJ6RXBTCAY5L1QKZPFQ","model","match","uniform","","","","","","","1646.5","242541.09999990463","244187.59999990463","[""stimuli/BF06_CC.jpg"",""stimuli/AM06_HO.jpg"",""stimuli/HM02_SUR.jpg"",""stimuli/WM13_SC.jpg""]","stimuli/BF06_CC.jpg","stimuli/AM06_HO.jpg","stimuli/HM02_SUR.jpg","stimuli/WM13_SC.jpg","pos4","stimuli/WM13_SC.jpg","SC","WM13","3","3.5","7","8","stimuli/stars_7.png","170","[""CC"",""HO"",""SUR"",""SC""]","[""BF06"",""AM06"",""HM02"",""WM13""]","[4,2,0,7]","[6,4,2,8]","","",""
"show-reward","96","243226","0.0-96.0","p298720","AOOLS8280CL0Z","336OE47KI3QZCSCUXSQ8J11UOZXVWV","3FIJLY1B6WANJ6RXBTCAY5L1QKZPFQ","model","match","uniform","","","","","","","","244697.39999985695","246707.39999985695","","","","","","","","","","","","7","","stimuli/stars_7.png","170","","","","","stimuli/WM13_SC.jpg","",""
"explore-choice","97","244828","0.0-97.0","p298720","AOOLS8280CL0Z","336OE47KI3QZCSCUXSQ8J11UOZXVWV","3FIJLY1B6WANJ6RXBTCAY5L1QKZPFQ","model","match","uniform","","","","","","","1090.7999999523163","246710.09999990463","247800.89999985695","[""stimuli/BF06_SUR.jpg"",""stimuli/AM06_SC.jpg"",""stimuli/HM02_HO.jpg"",""stimuli/WM13_CC.jpg""]","stimuli/BF06_SUR.jpg","stimuli/AM06_SC.jpg","stimuli/HM02_HO.jpg","stimuli/WM13_CC.jpg","pos4","stimuli/WM13_CC.jpg","CC","WM13","3","5","10","8","stimuli/stars_10.png","175","[""SUR"",""SC"",""HO"",""CC""]","[""BF06"",""AM06"",""HM02"",""WM13""]","[7,5,4,10]","[6,4,2,8]","","",""
"show-reward","98","246839","0.0-98.0","p298720","AOOLS8280CL0Z","336OE47KI3QZCSCUXSQ8J11UOZXVWV","3FIJLY1B6WANJ6RXBTCAY5L1QKZPFQ","model","match","uniform","","","","","","","","248311.5","250320.59999990463","","","","","","","","","","","","10","","stimuli/stars_10.png","175","","","","","stimuli/WM13_CC.jpg","",""
"explore-choice","99","248461","0.0-99.0","p298720","AOOLS8280CL0Z","336OE47KI3QZCSCUXSQ8J11UOZXVWV","3FIJLY1B6WANJ6RXBTCAY5L1QKZPFQ","model","match","uniform","","","","","","","1106.1000001430511","250322.59999990463","251428.70000004768","[""stimuli/AM06_CC.jpg"",""stimuli/BF06_SUR.jpg"",""stimuli/HM02_SC.jpg"",""stimuli/WM13_HO.jpg""]","stimuli/AM06_CC.jpg","stimuli/BF06_SUR.jpg","stimuli/HM02_SC.jpg","stimuli/WM13_HO.jpg","pos4","stimuli/WM13_HO.jpg","HO","WM13","3","4","8","8","stimuli/stars_8.png","179","[""CC"",""SUR"",""SC"",""HO""]","[""AM06"",""BF06"",""HM02"",""WM13""]","[4,6,3,8]","[4,6,2,8]","","",""
"show-reward","100","250474","0.0-100.0","p298720","AOOLS8280CL0Z","336OE47KI3QZCSCUXSQ8J11UOZXVWV","3FIJLY1B6WANJ6RXBTCAY5L1QKZPFQ","model","match","uniform","","","","","","","","251945.5","253955.20000004768","","","","","","","","","","","","8","","stimuli/stars_8.png","179","","","","","stimuli/WM13_HO.jpg","",""
"explore-choice","101","252831","0.0-101.0","p298720","AOOLS8280CL0Z","336OE47KI3QZCSCUXSQ8J11UOZXVWV","3FIJLY1B6WANJ6RXBTCAY5L1QKZPFQ","model","match","uniform","","","","","","","1853.2000000476837","253958","255811.20000004768","[""stimuli/WM13_HO.jpg"",""stimuli/AM06_SC.jpg"",""stimuli/BF06_SUR.jpg"",""stimuli/HM02_CC.jpg""]","stimuli/WM13_HO.jpg","stimuli/AM06_SC.jpg","stimuli/BF06_SUR.jpg","stimuli/HM02_CC.jpg","pos1","stimuli/WM13_HO.jpg","HO","WM13","0","3.5","7","8","stimuli/stars_7.png","182.5","[""HO"",""SC"",""SUR"",""CC""]","[""WM13"",""AM06"",""BF06"",""HM02""]","[7,5,5,2]","[8,4,6,2]","","",""
"show-reward","102","254849","0.0-102.0","p298720","AOOLS8280CL0Z","336OE47KI3QZCSCUXSQ8J11UOZXVWV","3FIJLY1B6WANJ6RXBTCAY5L1QKZPFQ","model","match","uniform","","","","","","","","256314.29999995232","258330.39999985695","","","","","","","","","","","","7","","stimuli/stars_7.png","182.5","","","","","stimuli/WM13_HO.jpg","",""
"explore-choice","103","262542","0.0-103.0","p298720","AOOLS8280CL0Z","336OE47KI3QZCSCUXSQ8J11UOZXVWV","3FIJLY1B6WANJ6RXBTCAY5L1QKZPFQ","model","match","uniform","","","","","","","7184.899999856949","258333","265517.89999985695","[""stimuli/AF11_AO.jpg"",""stimuli/BM03_FO.jpg"",""stimuli/WM09_DO.jpg"",""stimuli/HF10_HE.jpg""]","stimuli/AF11_AO.jpg","stimuli/BM03_FO.jpg","stimuli/WM09_DO.jpg","stimuli/HF10_HE.jpg","pos3","stimuli/WM09_DO.jpg","DO","WM09","2","2.5","5","6","stimuli/stars_5.png","185","[""AO"",""FO"",""DO"",""HE""]","[""AF11"",""BM03"",""WM09"",""HF10""]","[2,3,5,9]","[2,4,6,8]","","",""
"show-reward","104","264566","0.0-104.0","p298720","AOOLS8280CL0Z","336OE47KI3QZCSCUXSQ8J11UOZXVWV","3FIJLY1B6WANJ6RXBTCAY5L1QKZPFQ","model","match","uniform","","","","","","","","266026.7000000477","268047.59999990463","","","","","","","","","","","","5","","stimuli/stars_5.png","185","","","","","stimuli/WM09_DO.jpg","",""
"explore-choice","105","266990","0.0-105.0","p298720","AOOLS8280CL0Z","336OE47KI3QZCSCUXSQ8J11UOZXVWV","3FIJLY1B6WANJ6RXBTCAY5L1QKZPFQ","model","match","uniform","","","","","","","1921.3999998569489","268049","269970.39999985695","[""stimuli/WM09_AO.jpg"",""stimuli/BM03_HE.jpg"",""stimuli/HF10_DO.jpg"",""stimuli/AF11_FO.jpg""]","stimuli/WM09_AO.jpg","stimuli/BM03_HE.jpg","stimuli/HF10_DO.jpg","stimuli/AF11_FO.jpg","pos4","stimuli/AF11_FO.jpg","FO","AF11","3","0.5","1","2","stimuli/stars_1.png","185.5","[""AO"",""HE"",""DO"",""FO""]","[""WM09"",""BM03"",""HF10"",""AF11""]","[5,5,10,1]","[6,4,8,2]","","",""
"show-reward","106","269001","0.0-106.0","p298720","AOOLS8280CL0Z","336OE47KI3QZCSCUXSQ8J11UOZXVWV","3FIJLY1B6WANJ6RXBTCAY5L1QKZPFQ","model","match","uniform","","","","","","","","270474.59999990463","272482.39999985695","","","","","","","","","","","","1","","stimuli/stars_1.png","185.5","","","","","stimuli/AF11_FO.jpg","",""
"explore-choice","107","273027","0.0-107.0","p298720","AOOLS8280CL0Z","336OE47KI3QZCSCUXSQ8J11UOZXVWV","3FIJLY1B6WANJ6RXBTCAY5L1QKZPFQ","model","match","uniform","","","","","","","3504.7000000476837","272485.39999985695","275990.09999990463","[""stimuli/HF10_AO.jpg"",""stimuli/AF11_DO.jpg"",""stimuli/WM09_FO.jpg"",""stimuli/BM03_HE.jpg""]","stimuli/HF10_AO.jpg","stimuli/AF11_DO.jpg","stimuli/WM09_FO.jpg","stimuli/BM03_HE.jpg","pos1","stimuli/HF10_AO.jpg","AO","HF10","0","4.5","9","8","stimuli/stars_9.png","190","[""AO"",""DO"",""FO"",""HE""]","[""HF10"",""AF11"",""WM09"",""BM03""]","[9,1,6,6]","[8,2,6,4]","","",""
"show-reward","108","275046","0.0-108.0","p298720","AOOLS8280CL0Z","336OE47KI3QZCSCUXSQ8J11UOZXVWV","3FIJLY1B6WANJ6RXBTCAY5L1QKZPFQ","model","match","uniform","","","","","","","","276511.7999999523","278527.59999990463","","","","","","","","","","","","9","","stimuli/stars_9.png","190","","","","","stimuli/HF10_AO.jpg","",""
"explore-choice","109","277570","0.0-109.0","p298720","AOOLS8280CL0Z","336OE47KI3QZCSCUXSQ8J11UOZXVWV","3FIJLY1B6WANJ6RXBTCAY5L1QKZPFQ","model","match","uniform","","","","","","","2014.6999998092651","278530.2000000477","280544.89999985695","[""stimuli/AF11_HE.jpg"",""stimuli/BM03_AO.jpg"",""stimuli/WM09_FO.jpg"",""stimuli/HF10_DO.jpg""]","stimuli/AF11_HE.jpg","stimuli/BM03_AO.jpg","stimuli/WM09_FO.jpg","stimuli/HF10_DO.jpg","pos4","stimuli/HF10_DO.jpg","DO","HF10","3","3.5","7","8","stimuli/stars_7.png","193.5","[""HE"",""AO"",""FO"",""DO""]","[""AF11"",""BM03"",""WM09"",""HF10""]","[4,6,7,7]","[2,4,6,8]","","",""
"show-reward","110","279592","0.0-110.0","p298720","AOOLS8280CL0Z","336OE47KI3QZCSCUXSQ8J11UOZXVWV","3FIJLY1B6WANJ6RXBTCAY5L1QKZPFQ","model","match","uniform","","","","","","","","281054","283073.7999999523","","","","","","","","","","","","7","","stimuli/stars_7.png","193.5","","","","","stimuli/HF10_DO.jpg","",""
"explore-choice","111","281733","0.0-111.0","p298720","AOOLS8280CL0Z","336OE47KI3QZCSCUXSQ8J11UOZXVWV","3FIJLY1B6WANJ6RXBTCAY5L1QKZPFQ","model","match","uniform","","","","","","","1634.8999998569489","283076.7000000477","284711.59999990463","[""stimuli/AF11_AO.jpg"",""stimuli/HF10_DO.jpg"",""stimuli/WM09_HE.jpg"",""stimuli/BM03_FO.jpg""]","stimuli/AF11_AO.jpg","stimuli/HF10_DO.jpg","stimuli/WM09_HE.jpg","stimuli/BM03_FO.jpg","pos2","stimuli/HF10_DO.jpg","DO","HF10","1","4","8","8","stimuli/stars_8.png","197.5","[""AO"",""DO"",""HE"",""FO""]","[""AF11"",""HF10"",""WM09"",""BM03""]","[3,8,7,3]","[2,8,6,4]","","",""
"show-reward","112","283750","0.0-112.0","p298720","AOOLS8280CL0Z","336OE47KI3QZCSCUXSQ8J11UOZXVWV","3FIJLY1B6WANJ6RXBTCAY5L1QKZPFQ","model","match","uniform","","","","","","","","285219","287232.09999990463","","","","","","","","","","","","8","","stimuli/stars_8.png","197.5","","","","","stimuli/HF10_DO.jpg","",""
"explore-choice","113","285452","0.0-113.0","p298720","AOOLS8280CL0Z","336OE47KI3QZCSCUXSQ8J11UOZXVWV","3FIJLY1B6WANJ6RXBTCAY5L1QKZPFQ","model","match","uniform","","","","","","","1189.2999999523163","287234.09999990463","288423.39999985695","[""stimuli/BM03_HE.jpg"",""stimuli/HF10_DO.jpg"",""stimuli/AF11_AO.jpg"",""stimuli/WM09_FO.jpg""]","stimuli/BM03_HE.jpg","stimuli/HF10_DO.jpg","stimuli/AF11_AO.jpg","stimuli/WM09_FO.jpg","pos2","stimuli/HF10_DO.jpg","DO","HF10","1","3","6","8","stimuli/stars_6.png","200.5","[""HE"",""DO"",""AO"",""FO""]","[""BM03"",""HF10"",""AF11"",""WM09""]","[3,6,2,8]","[4,8,2,6]","","",""
"show-reward","114","287466","0.0-114.0","p298720","AOOLS8280CL0Z","336OE47KI3QZCSCUXSQ8J11UOZXVWV","3FIJLY1B6WANJ6RXBTCAY5L1QKZPFQ","model","match","uniform","","","","","","","","288936.59999990463","290947.2999999523","","","","","","","","","","","","6","","stimuli/stars_6.png","200.5","","","","","stimuli/HF10_DO.jpg","",""
"explore-choice","115","290370","0.0-115.0","p298720","AOOLS8280CL0Z","336OE47KI3QZCSCUXSQ8J11UOZXVWV","3FIJLY1B6WANJ6RXBTCAY5L1QKZPFQ","model","match","uniform","","","","","","","2398.100000143051","290950.89999985695","293349","[""stimuli/BM03_DO.jpg"",""stimuli/WM09_AO.jpg"",""stimuli/HF10_HE.jpg"",""stimuli/AF11_FO.jpg""]","stimuli/BM03_DO.jpg","stimuli/WM09_AO.jpg","stimuli/HF10_HE.jpg","stimuli/AF11_FO.jpg","pos3","stimuli/HF10_HE.jpg","HE","HF10","2","4","8","8","stimuli/stars_8.png","204.5","[""DO"",""AO"",""HE"",""FO""]","[""BM03"",""WM09"",""HF10"",""AF11""]","[2,6,8,4]","[4,6,8,2]","","",""
"show-reward","116","292387","0.0-116.0","p298720","AOOLS8280CL0Z","336OE47KI3QZCSCUXSQ8J11UOZXVWV","3FIJLY1B6WANJ6RXBTCAY5L1QKZPFQ","model","match","uniform","","","","","","","","293855","295867.39999985695","","","","","","","","","","","","8","","stimuli/stars_8.png","204.5","","","","","stimuli/HF10_HE.jpg","",""
"explore-choice","117","294749","0.0-117.0","p298720","AOOLS8280CL0Z","336OE47KI3QZCSCUXSQ8J11UOZXVWV","3FIJLY1B6WANJ6RXBTCAY5L1QKZPFQ","model","match","uniform","","","","","","","1850.7999999523163","295871.7000000477","297722.5","[""stimuli/WM09_HE.jpg"",""stimuli/HF10_FO.jpg"",""stimuli/AF11_AO.jpg"",""stimuli/BM03_DO.jpg""]","stimuli/WM09_HE.jpg","stimuli/HF10_FO.jpg","stimuli/AF11_AO.jpg","stimuli/BM03_DO.jpg","pos2","stimuli/HF10_FO.jpg","FO","HF10","1","5","10","8","stimuli/stars_10.png","209.5","[""HE"",""FO"",""AO"",""DO""]","[""WM09"",""HF10"",""AF11"",""BM03""]","[7,10,1,6]","[6,8,2,4]","","",""
"show-reward","118","296760","0.0-118.0","p298720","AOOLS8280CL0Z","336OE47KI3QZCSCUXSQ8J11UOZXVWV","3FIJLY1B6WANJ6RXBTCAY5L1QKZPFQ","model","match","uniform","","","","","","","","298233.09999990463","300241.39999985695","","","","","","","","","","","","10","","stimuli/stars_10.png","209.5","","","","","stimuli/HF10_FO.jpg","",""
"explore-choice","119","299367","0.0-119.0","p298720","AOOLS8280CL0Z","336OE47KI3QZCSCUXSQ8J11UOZXVWV","3FIJLY1B6WANJ6RXBTCAY5L1QKZPFQ","model","match","uniform","","","","","","","2094.5999999046326","300244.5","302339.09999990463","[""stimuli/WM09_HE.jpg"",""stimuli/HF10_AO.jpg"",""stimuli/AF11_DO.jpg"",""stimuli/BM03_FO.jpg""]","stimuli/WM09_HE.jpg","stimuli/HF10_AO.jpg","stimuli/AF11_DO.jpg","stimuli/BM03_FO.jpg","pos2","stimuli/HF10_AO.jpg","AO","HF10","1","3","6","8","stimuli/stars_6.png","212.5","[""HE"",""AO"",""DO"",""FO""]","[""WM09"",""HF10"",""AF11"",""BM03""]","[7,6,0,2]","[6,8,2,4]","","",""
"show-reward","120","301393","0.0-120.0","p298720","AOOLS8280CL0Z","336OE47KI3QZCSCUXSQ8J11UOZXVWV","3FIJLY1B6WANJ6RXBTCAY5L1QKZPFQ","model","match","uniform","","","","","","","","302851.2000000477","304873.39999985695","","","","","","","","","","","","6","","stimuli/stars_6.png","212.5","","","","","stimuli/HF10_AO.jpg","",""
"explore-choice","121","303347","0.0-121.0","p298720","AOOLS8280CL0Z","336OE47KI3QZCSCUXSQ8J11UOZXVWV","3FIJLY1B6WANJ6RXBTCAY5L1QKZPFQ","model","match","uniform","","","","","","","1435.2999999523163","304878.09999990463","306313.39999985695","[""stimuli/HF10_DO.jpg"",""stimuli/BM03_AO.jpg"",""stimuli/AF11_FO.jpg"",""stimuli/WM09_HE.jpg""]","stimuli/HF10_DO.jpg","stimuli/BM03_AO.jpg","stimuli/AF11_FO.jpg","stimuli/WM09_HE.jpg","pos1","stimuli/HF10_DO.jpg","DO","HF10","0","3.5","7","8","stimuli/stars_7.png","216","[""DO"",""AO"",""FO"",""HE""]","[""HF10"",""BM03"",""AF11"",""WM09""]","[7,5,3,7]","[8,4,2,6]","","",""
"show-reward","122","305369","0.0-122.0","p298720","AOOLS8280CL0Z","336OE47KI3QZCSCUXSQ8J11UOZXVWV","3FIJLY1B6WANJ6RXBTCAY5L1QKZPFQ","model","match","uniform","","","","","","","","306830.59999990463","308849.39999985695","","","","","","","","","","","","7","","stimuli/stars_7.png","216","","","","","stimuli/HF10_DO.jpg","",""
"explore-choice","123","307566","0.0-123.0","p298720","AOOLS8280CL0Z","336OE47KI3QZCSCUXSQ8J11UOZXVWV","3FIJLY1B6WANJ6RXBTCAY5L1QKZPFQ","model","match","uniform","","","","","","","1689.8999998569489","308852.2000000477","310542.09999990463","[""stimuli/WM09_FO.jpg"",""stimuli/AF11_AO.jpg"",""stimuli/HF10_HE.jpg"",""stimuli/BM03_DO.jpg""]","stimuli/WM09_FO.jpg","stimuli/AF11_AO.jpg","stimuli/HF10_HE.jpg","stimuli/BM03_DO.jpg","pos3","stimuli/HF10_HE.jpg","HE","HF10","2","4.5","9","8","stimuli/stars_9.png","220.5","[""FO"",""AO"",""HE"",""DO""]","[""WM09"",""AF11"",""HF10"",""BM03""]","[8,4,9,2]","[6,2,8,4]","","",""
"show-reward","124","309588","0.0-124.0","p298720","AOOLS8280CL0Z","336OE47KI3QZCSCUXSQ8J11UOZXVWV","3FIJLY1B6WANJ6RXBTCAY5L1QKZPFQ","model","match","uniform","","","","","","","","311049.59999990463","313068.2999999523","","","","","","","","","","","","9","","stimuli/stars_9.png","220.5","","","","","stimuli/HF10_HE.jpg","",""
"explore-choice","125","311835","0.0-125.0","p298720","AOOLS8280CL0Z","336OE47KI3QZCSCUXSQ8J11UOZXVWV","3FIJLY1B6WANJ6RXBTCAY5L1QKZPFQ","model","match","uniform","","","","","","","1739.0999999046326","313071.2000000477","314810.2999999523","[""stimuli/BM03_DO.jpg"",""stimuli/WM09_FO.jpg"",""stimuli/AF11_HE.jpg"",""stimuli/HF10_AO.jpg""]","stimuli/BM03_DO.jpg","stimuli/WM09_FO.jpg","stimuli/AF11_HE.jpg","stimuli/HF10_AO.jpg","pos4","stimuli/HF10_AO.jpg","AO","HF10","3","5","10","8","stimuli/stars_10.png","225.5","[""DO"",""FO"",""HE"",""AO""]","[""BM03"",""WM09"",""AF11"",""HF10""]","[5,8,1,10]","[4,6,2,8]","","",""
"show-reward","126","313849","0.0-126.0","p298720","AOOLS8280CL0Z","336OE47KI3QZCSCUXSQ8J11UOZXVWV","3FIJLY1B6WANJ6RXBTCAY5L1QKZPFQ","model","match","uniform","","","","","","","","315318","317328.89999985695","","","","","","","","","","","","10","","stimuli/stars_10.png","225.5","","","","","stimuli/HF10_AO.jpg","",""
"explore-choice","127","315543","0.0-127.0","p298720","AOOLS8280CL0Z","336OE47KI3QZCSCUXSQ8J11UOZXVWV","3FIJLY1B6WANJ6RXBTCAY5L1QKZPFQ","model","match","uniform","","","","","","","1178.5","317331.7999999523","318510.2999999523","[""stimuli/BM03_AO.jpg"",""stimuli/AF11_FO.jpg"",""stimuli/WM09_DO.jpg"",""stimuli/HF10_HE.jpg""]","stimuli/BM03_AO.jpg","stimuli/AF11_FO.jpg","stimuli/WM09_DO.jpg","stimuli/HF10_HE.jpg","pos4","stimuli/HF10_HE.jpg","HE","HF10","3","3","6","8","stimuli/stars_6.png","228.5","[""AO"",""FO"",""DO"",""HE""]","[""BM03"",""AF11"",""WM09"",""HF10""]","[2,0,5,6]","[4,2,6,8]","","",""
"show-reward","128","317553","0.0-128.0","p298720","AOOLS8280CL0Z","336OE47KI3QZCSCUXSQ8J11UOZXVWV","3FIJLY1B6WANJ6RXBTCAY5L1QKZPFQ","model","match","uniform","","","","","","","","319025.7000000477","321033.09999990463","","","","","","","","","","","","6","","stimuli/stars_6.png","228.5","","","","","stimuli/HF10_HE.jpg","",""
"explore-choice","129","319093","0.0-129.0","p298720","AOOLS8280CL0Z","336OE47KI3QZCSCUXSQ8J11UOZXVWV","3FIJLY1B6WANJ6RXBTCAY5L1QKZPFQ","model","match","uniform","","","","","","","1023.2000000476837","321035.89999985695","322059.09999990463","[""stimuli/WM09_DO.jpg"",""stimuli/BM03_HE.jpg"",""stimuli/AF11_FO.jpg"",""stimuli/HF10_AO.jpg""]","stimuli/WM09_DO.jpg","stimuli/BM03_HE.jpg","stimuli/AF11_FO.jpg","stimuli/HF10_AO.jpg","pos4","stimuli/HF10_AO.jpg","AO","HF10","3","4.5","9","8","stimuli/stars_9.png","233","[""DO"",""HE"",""FO"",""AO""]","[""WM09"",""BM03"",""AF11"",""HF10""]","[5,3,1,9]","[6,4,2,8]","","",""
"show-reward","130","321111","0.0-130.0","p298720","AOOLS8280CL0Z","336OE47KI3QZCSCUXSQ8J11UOZXVWV","3FIJLY1B6WANJ6RXBTCAY5L1QKZPFQ","model","match","uniform","","","","","","","","322575.5","324591.39999985695","","","","","","","","","","","","9","","stimuli/stars_9.png","233","","","","","stimuli/HF10_AO.jpg","",""
"explore-choice","131","323739","0.0-131.0","p298720","AOOLS8280CL0Z","336OE47KI3QZCSCUXSQ8J11UOZXVWV","3FIJLY1B6WANJ6RXBTCAY5L1QKZPFQ","model","match","uniform","","","","","","","2125","324593","326718","[""stimuli/AF11_DO.jpg"",""stimuli/HF10_FO.jpg"",""stimuli/WM09_AO.jpg"",""stimuli/BM03_HE.jpg""]","stimuli/AF11_DO.jpg","stimuli/HF10_FO.jpg","stimuli/WM09_AO.jpg","stimuli/BM03_HE.jpg","pos2","stimuli/HF10_FO.jpg","FO","HF10","1","4.5","9","8","stimuli/stars_9.png","237.5","[""DO"",""FO"",""AO"",""HE""]","[""AF11"",""HF10"",""WM09"",""BM03""]","[4,9,8,5]","[2,8,6,4]","","",""
"show-reward","132","325765","0.0-132.0","p298720","AOOLS8280CL0Z","336OE47KI3QZCSCUXSQ8J11UOZXVWV","3FIJLY1B6WANJ6RXBTCAY5L1QKZPFQ","model","match","uniform","","","","","","","","327221.2999999523","329245.39999985695","","","","","","","","","","","","9","","stimuli/stars_9.png","237.5","","","","","stimuli/HF10_FO.jpg","",""
"explore-choice","133","328018","0.0-133.0","p298720","AOOLS8280CL0Z","336OE47KI3QZCSCUXSQ8J11UOZXVWV","3FIJLY1B6WANJ6RXBTCAY5L1QKZPFQ","model","match","uniform","","","","","","","1745","329249.09999990463","330994.09999990463","[""stimuli/AF11_HE.jpg"",""stimuli/BM03_FO.jpg"",""stimuli/HF10_DO.jpg"",""stimuli/WM09_AO.jpg""]","stimuli/AF11_HE.jpg","stimuli/BM03_FO.jpg","stimuli/HF10_DO.jpg","stimuli/WM09_AO.jpg","pos3","stimuli/HF10_DO.jpg","DO","HF10","2","3","6","8","stimuli/stars_6.png","240.5","[""HE"",""FO"",""DO"",""AO""]","[""AF11"",""BM03"",""HF10"",""WM09""]","[2,6,6,6]","[2,4,8,6]","","",""
"show-reward","134","330036","0.0-134.0","p298720","AOOLS8280CL0Z","336OE47KI3QZCSCUXSQ8J11UOZXVWV","3FIJLY1B6WANJ6RXBTCAY5L1QKZPFQ","model","match","uniform","","","","","","","","331500.39999985695","333516.59999990463","","","","","","","","","","","","6","","stimuli/stars_6.png","240.5","","","","","stimuli/HF10_DO.jpg","",""
"explore-choice","135","331756","0.0-135.0","p298720","AOOLS8280CL0Z","336OE47KI3QZCSCUXSQ8J11UOZXVWV","3FIJLY1B6WANJ6RXBTCAY5L1QKZPFQ","model","match","uniform","","","","","","","1208.0999999046326","333519.7000000477","334727.7999999523","[""stimuli/AF11_AO.jpg"",""stimuli/WM09_DO.jpg"",""stimuli/HF10_FO.jpg"",""stimuli/BM03_HE.jpg""]","stimuli/AF11_AO.jpg","stimuli/WM09_DO.jpg","stimuli/HF10_FO.jpg","stimuli/BM03_HE.jpg","pos3","stimuli/HF10_FO.jpg","FO","HF10","2","4","8","8","stimuli/stars_8.png","244.5","[""AO"",""DO"",""FO"",""HE""]","[""AF11"",""WM09"",""HF10"",""BM03""]","[1,4,8,2]","[2,6,8,4]","","",""
"show-reward","136","333769","0.0-136.0","p298720","AOOLS8280CL0Z","336OE47KI3QZCSCUXSQ8J11UOZXVWV","3FIJLY1B6WANJ6RXBTCAY5L1QKZPFQ","model","match","uniform","","","","","","","","335238.09999990463","337249.2999999523","","","","","","","","","","","","8","","stimuli/stars_8.png","244.5","","","","","stimuli/HF10_FO.jpg","",""
"explore-choice","137","335878","0.0-137.0","p298720","AOOLS8280CL0Z","336OE47KI3QZCSCUXSQ8J11UOZXVWV","3FIJLY1B6WANJ6RXBTCAY5L1QKZPFQ","model","match","uniform","","","","","","","1598","337251.09999990463","338849.09999990463","[""stimuli/BM03_FO.jpg"",""stimuli/WM09_DO.jpg"",""stimuli/AF11_HE.jpg"",""stimuli/HF10_AO.jpg""]","stimuli/BM03_FO.jpg","stimuli/WM09_DO.jpg","stimuli/AF11_HE.jpg","stimuli/HF10_AO.jpg","pos4","stimuli/HF10_AO.jpg","AO","HF10","3","4.5","9","8","stimuli/stars_9.png","249","[""FO"",""DO"",""HE"",""AO""]","[""BM03"",""WM09"",""AF11"",""HF10""]","[4,8,4,9]","[4,6,2,8]","","",""
"show-reward","138","337892","0.0-138.0","p298720","AOOLS8280CL0Z","336OE47KI3QZCSCUXSQ8J11UOZXVWV","3FIJLY1B6WANJ6RXBTCAY5L1QKZPFQ","model","match","uniform","","","","","","","","339361.2999999523","341372.39999985695","","","","","","","","","","","","9","","stimuli/stars_9.png","249","","","","","stimuli/HF10_AO.jpg","",""
"explore-choice","139","340687","0.0-139.0","p298720","AOOLS8280CL0Z","336OE47KI3QZCSCUXSQ8J11UOZXVWV","3FIJLY1B6WANJ6RXBTCAY5L1QKZPFQ","model","match","uniform","","","","","","","2281.7999999523163","341375","343656.7999999523","[""stimuli/BM03_DO.jpg"",""stimuli/HF10_FO.jpg"",""stimuli/WM09_AO.jpg"",""stimuli/AF11_HE.jpg""]","stimuli/BM03_DO.jpg","stimuli/HF10_FO.jpg","stimuli/WM09_AO.jpg","stimuli/AF11_HE.jpg","pos2","stimuli/HF10_FO.jpg","FO","HF10","1","4.5","9","8","stimuli/stars_9.png","253.5","[""DO"",""FO"",""AO"",""HE""]","[""BM03"",""HF10"",""WM09"",""AF11""]","[6,9,7,4]","[4,8,6,2]","","",""
"show-reward","140","342703","0.0-140.0","p298720","AOOLS8280CL0Z","336OE47KI3QZCSCUXSQ8J11UOZXVWV","3FIJLY1B6WANJ6RXBTCAY5L1QKZPFQ","model","match","uniform","","","","","","","","344169.2000000477","346183.2000000477","","","","","","","","","","","","9","","stimuli/stars_9.png","253.5","","","","","stimuli/HF10_FO.jpg","",""
"explore-choice","141","344821","0.0-141.0","p298720","AOOLS8280CL0Z","336OE47KI3QZCSCUXSQ8J11UOZXVWV","3FIJLY1B6WANJ6RXBTCAY5L1QKZPFQ","model","match","uniform","","","","","","","1614.8999998569489","346186","347800.89999985695","[""stimuli/HF10_FO.jpg"",""stimuli/AF11_DO.jpg"",""stimuli/BM03_AO.jpg"",""stimuli/WM09_HE.jpg""]","stimuli/HF10_FO.jpg","stimuli/AF11_DO.jpg","stimuli/BM03_AO.jpg","stimuli/WM09_HE.jpg","pos1","stimuli/HF10_FO.jpg","FO","HF10","0","3","6","8","stimuli/stars_6.png","256.5","[""FO"",""DO"",""AO"",""HE""]","[""HF10"",""AF11"",""BM03"",""WM09""]","[6,1,2,5]","[8,2,4,6]","","",""
"show-reward","142","346836","0.0-142.0","p298720","AOOLS8280CL0Z","336OE47KI3QZCSCUXSQ8J11UOZXVWV","3FIJLY1B6WANJ6RXBTCAY5L1QKZPFQ","model","match","uniform","","","","","","","","348304.39999985695","350312.7999999523","","","","","","","","","","","","6","","stimuli/stars_6.png","256.5","","","","","stimuli/HF10_FO.jpg","",""
"explore-choice","143","348773","0.0-143.0","p298720","AOOLS8280CL0Z","336OE47KI3QZCSCUXSQ8J11UOZXVWV","3FIJLY1B6WANJ6RXBTCAY5L1QKZPFQ","model","match","uniform","","","","","","","1424.4000000953674","350320.2999999523","351744.7000000477","[""stimuli/HF10_HE.jpg"",""stimuli/AF11_DO.jpg"",""stimuli/BM03_AO.jpg"",""stimuli/WM09_FO.jpg""]","stimuli/HF10_HE.jpg","stimuli/AF11_DO.jpg","stimuli/BM03_AO.jpg","stimuli/WM09_FO.jpg","pos1","stimuli/HF10_HE.jpg","HE","HF10","0","3","6","8","stimuli/stars_6.png","259.5","[""HE"",""DO"",""AO"",""FO""]","[""HF10"",""AF11"",""BM03"",""WM09""]","[6,1,6,7]","[8,2,4,6]","","",""
"show-reward","144","350786","0.0-144.0","p298720","AOOLS8280CL0Z","336OE47KI3QZCSCUXSQ8J11UOZXVWV","3FIJLY1B6WANJ6RXBTCAY5L1QKZPFQ","model","match","uniform","","","","","","","","352255.7999999523","354266.5","","","","","","","","","","","","6","","stimuli/stars_6.png","259.5","","","","","stimuli/HF10_HE.jpg","",""
"explore-choice","145","352372","0.0-145.0","p298720","AOOLS8280CL0Z","336OE47KI3QZCSCUXSQ8J11UOZXVWV","3FIJLY1B6WANJ6RXBTCAY5L1QKZPFQ","model","match","uniform","","","","","","","1074","354269.2000000477","355343.2000000477","[""stimuli/HF10_HE.jpg"",""stimuli/BM03_FO.jpg"",""stimuli/WM09_AO.jpg"",""stimuli/AF11_DO.jpg""]","stimuli/HF10_HE.jpg","stimuli/BM03_FO.jpg","stimuli/WM09_AO.jpg","stimuli/AF11_DO.jpg","pos1","stimuli/HF10_HE.jpg","HE","HF10","0","4.5","9","8","stimuli/stars_9.png","264","[""HE"",""FO"",""AO"",""DO""]","[""HF10"",""BM03"",""WM09"",""AF11""]","[9,5,5,3]","[8,4,6,2]","","",""
"show-reward","146","354388","0.0-146.0","p298720","AOOLS8280CL0Z","336OE47KI3QZCSCUXSQ8J11UOZXVWV","3FIJLY1B6WANJ6RXBTCAY5L1QKZPFQ","model","match","uniform","","","","","","","","355856","357868.09999990463","","","","","","","","","","","","9","","stimuli/stars_9.png","264","","","","","stimuli/HF10_HE.jpg","",""
"explore-choice","147","356386","0.0-147.0","p298720","AOOLS8280CL0Z","336OE47KI3QZCSCUXSQ8J11UOZXVWV","3FIJLY1B6WANJ6RXBTCAY5L1QKZPFQ","model","match","uniform","","","","","","","1492.5999999046326","357870.7999999523","359363.39999985695","[""stimuli/WM09_HE.jpg"",""stimuli/HF10_AO.jpg"",""stimuli/AF11_FO.jpg"",""stimuli/BM03_DO.jpg""]","stimuli/WM09_HE.jpg","stimuli/HF10_AO.jpg","stimuli/AF11_FO.jpg","stimuli/BM03_DO.jpg","pos2","stimuli/HF10_AO.jpg","AO","HF10","1","3.5","7","8","stimuli/stars_7.png","267.5","[""HE"",""AO"",""FO"",""DO""]","[""WM09"",""HF10"",""AF11"",""BM03""]","[8,7,4,2]","[6,8,2,4]","","",""
"show-reward","148","358402","0.0-148.0","p298720","AOOLS8280CL0Z","336OE47KI3QZCSCUXSQ8J11UOZXVWV","3FIJLY1B6WANJ6RXBTCAY5L1QKZPFQ","model","match","uniform","","","","","","","","359869.09999990463","361882.2999999523","","","","","","","","","","","","7","","stimuli/stars_7.png","267.5","","","","","stimuli/HF10_AO.jpg","",""
"explore-choice","149","360640","0.0-149.0","p298720","AOOLS8280CL0Z","336OE47KI3QZCSCUXSQ8J11UOZXVWV","3FIJLY1B6WANJ6RXBTCAY5L1QKZPFQ","model","match","uniform","","","","","","","1730.5","361885.7000000477","363616.2000000477","[""stimuli/HF10_FO.jpg"",""stimuli/AF11_HE.jpg"",""stimuli/WM09_DO.jpg"",""stimuli/BM03_AO.jpg""]","stimuli/HF10_FO.jpg","stimuli/AF11_HE.jpg","stimuli/WM09_DO.jpg","stimuli/BM03_AO.jpg","pos1","stimuli/HF10_FO.jpg","FO","HF10","0","4","8","8","stimuli/stars_8.png","271.5","[""FO"",""HE"",""DO"",""AO""]","[""HF10"",""AF11"",""WM09"",""BM03""]","[8,1,5,6]","[8,2,6,4]","","",""
"show-reward","150","362667","0.0-150.0","p298720","AOOLS8280CL0Z","336OE47KI3QZCSCUXSQ8J11UOZXVWV","3FIJLY1B6WANJ6RXBTCAY5L1QKZPFQ","model","match","uniform","","","","","","","","364124.89999985695","366147.09999990463","","","","","","","","","","","","8","","stimuli/stars_8.png","271.5","","","","","stimuli/HF10_FO.jpg","",""
"explore-choice","151","366315","0.0-151.0","p298720","AOOLS8280CL0Z","336OE47KI3QZCSCUXSQ8J11UOZXVWV","3FIJLY1B6WANJ6RXBTCAY5L1QKZPFQ","model","match","uniform","","","","","","","3130.5999999046326","366150","369280.59999990463","[""stimuli/WM09_FO.jpg"",""stimuli/HF10_HE.jpg"",""stimuli/BM03_AO.jpg"",""stimuli/AF11_DO.jpg""]","stimuli/WM09_FO.jpg","stimuli/HF10_HE.jpg","stimuli/BM03_AO.jpg","stimuli/AF11_DO.jpg","pos2","stimuli/HF10_HE.jpg","HE","HF10","1","3","6","8","stimuli/stars_6.png","274.5","[""FO"",""HE"",""AO"",""DO""]","[""WM09"",""HF10"",""BM03"",""AF11""]","[7,6,6,1]","[6,8,4,2]","","",""
"show-reward","152","368337","0.0-152.0","p298720","AOOLS8280CL0Z","336OE47KI3QZCSCUXSQ8J11UOZXVWV","3FIJLY1B6WANJ6RXBTCAY5L1QKZPFQ","model","match","uniform","","","","","","","","369799.39999985695","371817","","","","","","","","","","","","6","","stimuli/stars_6.png","274.5","","","","","stimuli/HF10_HE.jpg","",""
"explore-choice","153","370725","0.0-153.0","p298720","AOOLS8280CL0Z","336OE47KI3QZCSCUXSQ8J11UOZXVWV","3FIJLY1B6WANJ6RXBTCAY5L1QKZPFQ","model","match","uniform","","","","","","","1866","371820.89999985695","373686.89999985695","[""stimuli/WM09_AO.jpg"",""stimuli/AF11_FO.jpg"",""stimuli/HF10_HE.jpg"",""stimuli/BM03_DO.jpg""]","stimuli/WM09_AO.jpg","stimuli/AF11_FO.jpg","stimuli/HF10_HE.jpg","stimuli/BM03_DO.jpg","pos3","stimuli/HF10_HE.jpg","HE","HF10","2","4","8","8","stimuli/stars_8.png","278.5","[""AO"",""FO"",""HE"",""DO""]","[""WM09"",""AF11"",""HF10"",""BM03""]","[6,4,8,2]","[6,2,8,4]","","",""
"show-reward","154","372746","0.0-154.0","p298720","AOOLS8280CL0Z","336OE47KI3QZCSCUXSQ8J11UOZXVWV","3FIJLY1B6WANJ6RXBTCAY5L1QKZPFQ","model","match","uniform","","","","","","","","374208.09999990463","376227","","","","","","","","","","","","8","","stimuli/stars_8.png","278.5","","","","","stimuli/HF10_HE.jpg","",""
"explore-choice","155","375029","0.0-155.0","p298720","AOOLS8280CL0Z","336OE47KI3QZCSCUXSQ8J11UOZXVWV","3FIJLY1B6WANJ6RXBTCAY5L1QKZPFQ","model","match","uniform","","","","","","","1770.2999999523163","376229.7000000477","378000","[""stimuli/WM09_AO.jpg"",""stimuli/HF10_HE.jpg"",""stimuli/BM03_FO.jpg"",""stimuli/AF11_DO.jpg""]","stimuli/WM09_AO.jpg","stimuli/HF10_HE.jpg","stimuli/BM03_FO.jpg","stimuli/AF11_DO.jpg","pos2","stimuli/HF10_HE.jpg","HE","HF10","1","4.5","9","8","stimuli/stars_9.png","283","[""AO"",""HE"",""FO"",""DO""]","[""WM09"",""HF10"",""BM03"",""AF11""]","[5,9,5,3]","[6,8,4,2]","","",""
"show-reward","156","377050","0.0-156.0","p298720","AOOLS8280CL0Z","336OE47KI3QZCSCUXSQ8J11UOZXVWV","3FIJLY1B6WANJ6RXBTCAY5L1QKZPFQ","model","match","uniform","","","","","","","","378512","380530.09999990463","","","","","","","","","","","","9","","stimuli/stars_9.png","283","","","","","stimuli/HF10_HE.jpg","",""
"explore-choice","157","379514","0.0-157.0","p298720","AOOLS8280CL0Z","336OE47KI3QZCSCUXSQ8J11UOZXVWV","3FIJLY1B6WANJ6RXBTCAY5L1QKZPFQ","model","match","uniform","","","","","","","1959.4000000953674","380533.2999999523","382492.7000000477","[""stimuli/BM03_AO.jpg"",""stimuli/AF11_HE.jpg"",""stimuli/HF10_DO.jpg"",""stimuli/WM09_FO.jpg""]","stimuli/BM03_AO.jpg","stimuli/AF11_HE.jpg","stimuli/HF10_DO.jpg","stimuli/WM09_FO.jpg","pos3","stimuli/HF10_DO.jpg","DO","HF10","2","3.5","7","8","stimuli/stars_7.png","286.5","[""AO"",""HE"",""DO"",""FO""]","[""BM03"",""AF11"",""HF10"",""WM09""]","[6,4,7,7]","[4,2,8,6]","","",""
"show-reward","158","381521","0.0-158.0","p298720","AOOLS8280CL0Z","336OE47KI3QZCSCUXSQ8J11UOZXVWV","3FIJLY1B6WANJ6RXBTCAY5L1QKZPFQ","model","match","uniform","","","","","","","","382996.7999999523","385001.7999999523","","","","","","","","","","","","7","","stimuli/stars_7.png","286.5","","","","","stimuli/HF10_DO.jpg","",""
"explore-choice","159","383708","0.0-159.0","p298720","AOOLS8280CL0Z","336OE47KI3QZCSCUXSQ8J11UOZXVWV","3FIJLY1B6WANJ6RXBTCAY5L1QKZPFQ","model","match","uniform","","","","","","","1681.6999998092651","385003.2000000477","386684.89999985695","[""stimuli/BM03_FO.jpg"",""stimuli/AF11_AO.jpg"",""stimuli/WM09_HE.jpg"",""stimuli/HF10_DO.jpg""]","stimuli/BM03_FO.jpg","stimuli/AF11_AO.jpg","stimuli/WM09_HE.jpg","stimuli/HF10_DO.jpg","pos4","stimuli/HF10_DO.jpg","DO","HF10","3","4","8","8","stimuli/stars_8.png","290.5","[""FO"",""AO"",""HE"",""DO""]","[""BM03"",""AF11"",""WM09"",""HF10""]","[3,3,7,8]","[4,2,6,8]","","",""
"show-reward","160","385723","0.0-160.0","p298720","AOOLS8280CL0Z","336OE47KI3QZCSCUXSQ8J11UOZXVWV","3FIJLY1B6WANJ6RXBTCAY5L1QKZPFQ","model","match","uniform","","","","","","","","387191.2999999523","389203.89999985695","","","","","","","","","","","","8","","stimuli/stars_8.png","290.5","","","","","stimuli/HF10_DO.jpg","",""
"explore-choice","161","388300","0.0-161.0","p298720","AOOLS8280CL0Z","336OE47KI3QZCSCUXSQ8J11UOZXVWV","3FIJLY1B6WANJ6RXBTCAY5L1QKZPFQ","model","match","uniform","","","","","","","2071.800000190735","389205.39999985695","391277.2000000477","[""stimuli/BM03_HE.jpg"",""stimuli/HF10_AO.jpg"",""stimuli/AF11_FO.jpg"",""stimuli/WM09_DO.jpg""]","stimuli/BM03_HE.jpg","stimuli/HF10_AO.jpg","stimuli/AF11_FO.jpg","stimuli/WM09_DO.jpg","pos2","stimuli/HF10_AO.jpg","AO","HF10","1","4.5","9","8","stimuli/stars_9.png","295","[""HE"",""AO"",""FO"",""DO""]","[""BM03"",""HF10"",""AF11"",""WM09""]","[3,9,1,5]","[4,8,2,6]","","",""
"show-reward","162","390317","0.0-162.0","p298720","AOOLS8280CL0Z","336OE47KI3QZCSCUXSQ8J11UOZXVWV","3FIJLY1B6WANJ6RXBTCAY5L1QKZPFQ","model","match","uniform","","","","","","","","391783.7000000477","393797.5","","","","","","","","","","","","9","","stimuli/stars_9.png","295","","","","","stimuli/HF10_AO.jpg","",""
"explore-choice","163","392657","0.0-163.0","p298720","AOOLS8280CL0Z","336OE47KI3QZCSCUXSQ8J11UOZXVWV","3FIJLY1B6WANJ6RXBTCAY5L1QKZPFQ","model","match","uniform","","","","","","","1823.0999999046326","393800.2000000477","395623.2999999523","[""stimuli/BM03_HE.jpg"",""stimuli/AF11_DO.jpg"",""stimuli/HF10_FO.jpg"",""stimuli/WM09_AO.jpg""]","stimuli/BM03_HE.jpg","stimuli/AF11_DO.jpg","stimuli/HF10_FO.jpg","stimuli/WM09_AO.jpg","pos3","stimuli/HF10_FO.jpg","FO","HF10","2","4.5","9","8","stimuli/stars_9.png","299.5","[""HE"",""DO"",""FO"",""AO""]","[""BM03"",""AF11"",""HF10"",""WM09""]","[5,4,9,8]","[4,2,8,6]","","",""
"show-reward","164","394674","0.0-164.0","p298720","AOOLS8280CL0Z","336OE47KI3QZCSCUXSQ8J11UOZXVWV","3FIJLY1B6WANJ6RXBTCAY5L1QKZPFQ","model","match","uniform","","","","","","","","396139.59999990463","398154.89999985695","","","","","","","","","","","","9","","stimuli/stars_9.png","299.5","","","","","stimuli/HF10_FO.jpg","",""
"explore-choice","165","396508","0.0-165.0","p298720","AOOLS8280CL0Z","336OE47KI3QZCSCUXSQ8J11UOZXVWV","3FIJLY1B6WANJ6RXBTCAY5L1QKZPFQ","model","match","uniform","","","","","","","1315.8999998569489","398156.7000000477","399472.59999990463","[""stimuli/BM03_HE.jpg"",""stimuli/WM09_FO.jpg"",""stimuli/HF10_DO.jpg"",""stimuli/AF11_AO.jpg""]","stimuli/BM03_HE.jpg","stimuli/WM09_FO.jpg","stimuli/HF10_DO.jpg","stimuli/AF11_AO.jpg","pos3","stimuli/HF10_DO.jpg","DO","HF10","2","3","6","8","stimuli/stars_6.png","302.5","[""HE"",""FO"",""DO"",""AO""]","[""BM03"",""WM09"",""HF10"",""AF11""]","[3,8,6,2]","[4,6,8,2]","","",""
"show-reward","166","398529","0.0-166.0","p298720","AOOLS8280CL0Z","336OE47KI3QZCSCUXSQ8J11UOZXVWV","3FIJLY1B6WANJ6RXBTCAY5L1QKZPFQ","model","match","uniform","","","","","","","","399991.59999990463","402009.7999999523","","","","","","","","","","","","6","","stimuli/stars_6.png","302.5","","","","","stimuli/HF10_DO.jpg","",""
"explore-choice","167","400808","0.0-167.0","p298720","AOOLS8280CL0Z","336OE47KI3QZCSCUXSQ8J11UOZXVWV","3FIJLY1B6WANJ6RXBTCAY5L1QKZPFQ","model","match","uniform","","","","","","","1770.6000001430511","402012.59999990463","403783.2000000477","[""stimuli/WM09_HE.jpg"",""stimuli/BM03_AO.jpg"",""stimuli/AF11_DO.jpg"",""stimuli/HF10_FO.jpg""]","stimuli/WM09_HE.jpg","stimuli/BM03_AO.jpg","stimuli/AF11_DO.jpg","stimuli/HF10_FO.jpg","pos4","stimuli/HF10_FO.jpg","FO","HF10","3","3","6","8","stimuli/stars_6.png","305.5","[""HE"",""AO"",""DO"",""FO""]","[""WM09"",""BM03"",""AF11"",""HF10""]","[5,2,1,6]","[6,4,2,8]","","",""
"show-reward","168","402830","0.0-168.0","p298720","AOOLS8280CL0Z","336OE47KI3QZCSCUXSQ8J11UOZXVWV","3FIJLY1B6WANJ6RXBTCAY5L1QKZPFQ","model","match","uniform","","","","","","","","404291.39999985695","406310.7999999523","","","","","","","","","","","","6","","stimuli/stars_6.png","305.5","","","","","stimuli/HF10_FO.jpg","",""
"explore-choice","169","404973","0.0-169.0","p298720","AOOLS8280CL0Z","336OE47KI3QZCSCUXSQ8J11UOZXVWV","3FIJLY1B6WANJ6RXBTCAY5L1QKZPFQ","model","match","uniform","","","","","","","1634.7000000476837","406313.2999999523","407948","[""stimuli/AF11_HE.jpg"",""stimuli/BM03_AO.jpg"",""stimuli/WM09_DO.jpg"",""stimuli/HF10_FO.jpg""]","stimuli/AF11_HE.jpg","stimuli/BM03_AO.jpg","stimuli/WM09_DO.jpg","stimuli/HF10_FO.jpg","pos4","stimuli/HF10_FO.jpg","FO","HF10","3","4","8","8","stimuli/stars_8.png","309.5","[""HE"",""AO"",""DO"",""FO""]","[""AF11"",""BM03"",""WM09"",""HF10""]","[1,6,5,8]","[2,4,6,8]","","",""
"show-reward","170","406984","0.0-170.0","p298720","AOOLS8280CL0Z","336OE47KI3QZCSCUXSQ8J11UOZXVWV","3FIJLY1B6WANJ6RXBTCAY5L1QKZPFQ","model","match","uniform","","","","","","","","408455.59999990463","410465.2999999523","","","","","","","","","","","","8","","stimuli/stars_8.png","309.5","","","","","stimuli/HF10_FO.jpg","",""
"explore-choice","171","409303","0.0-171.0","p298720","AOOLS8280CL0Z","336OE47KI3QZCSCUXSQ8J11UOZXVWV","3FIJLY1B6WANJ6RXBTCAY5L1QKZPFQ","model","match","uniform","","","","","","","1803.2999999523163","410466.59999990463","412269.89999985695","[""stimuli/HF10_AO.jpg"",""stimuli/AF11_HE.jpg"",""stimuli/BM03_FO.jpg"",""stimuli/WM09_DO.jpg""]","stimuli/HF10_AO.jpg","stimuli/AF11_HE.jpg","stimuli/BM03_FO.jpg","stimuli/WM09_DO.jpg","pos1","stimuli/HF10_AO.jpg","AO","HF10","0","4.5","9","8","stimuli/stars_9.png","314","[""AO"",""HE"",""FO"",""DO""]","[""HF10"",""AF11"",""BM03"",""WM09""]","[9,4,4,8]","[8,2,4,6]","","",""
"show-reward","172","411327","0.0-172.0","p298720","AOOLS8280CL0Z","336OE47KI3QZCSCUXSQ8J11UOZXVWV","3FIJLY1B6WANJ6RXBTCAY5L1QKZPFQ","model","match","uniform","","","","","","","","412786.89999985695","414807.59999990463","","","","","","","","","","","","9","","stimuli/stars_9.png","314","","","","","stimuli/HF10_AO.jpg","",""
"explore-choice","173","413386","0.0-173.0","p298720","AOOLS8280CL0Z","336OE47KI3QZCSCUXSQ8J11UOZXVWV","3FIJLY1B6WANJ6RXBTCAY5L1QKZPFQ","model","match","uniform","","","","","","","1542.5999999046326","414810.7000000477","416353.2999999523","[""stimuli/WM09_HE.jpg"",""stimuli/BM03_DO.jpg"",""stimuli/AF11_FO.jpg"",""stimuli/HF10_AO.jpg""]","stimuli/WM09_HE.jpg","stimuli/BM03_DO.jpg","stimuli/AF11_FO.jpg","stimuli/HF10_AO.jpg","pos4","stimuli/HF10_AO.jpg","AO","HF10","3","3.5","7","8","stimuli/stars_7.png","317.5","[""HE"",""DO"",""FO"",""AO""]","[""WM09"",""BM03"",""AF11"",""HF10""]","[8,2,4,7]","[6,4,2,8]","","",""
"show-reward","174","415405","0.0-174.0","p298720","AOOLS8280CL0Z","336OE47KI3QZCSCUXSQ8J11UOZXVWV","3FIJLY1B6WANJ6RXBTCAY5L1QKZPFQ","model","match","uniform","","","","","","","","416869.39999985695","418884.7999999523","","","","","","","","","","","","7","","stimuli/stars_7.png","317.5","","","","","stimuli/HF10_AO.jpg","",""
"explore-choice","175","417201","0.0-175.0","p298720","AOOLS8280CL0Z","336OE47KI3QZCSCUXSQ8J11UOZXVWV","3FIJLY1B6WANJ6RXBTCAY5L1QKZPFQ","model","match","uniform","","","","","","","1281","418889.2000000477","420170.2000000477","[""stimuli/AF11_FO.jpg"",""stimuli/WM09_AO.jpg"",""stimuli/BM03_HE.jpg"",""stimuli/HF10_DO.jpg""]","stimuli/AF11_FO.jpg","stimuli/WM09_AO.jpg","stimuli/BM03_HE.jpg","stimuli/HF10_DO.jpg","pos4","stimuli/HF10_DO.jpg","DO","HF10","3","5","10","8","stimuli/stars_10.png","322.5","[""FO"",""AO"",""HE"",""DO""]","[""AF11"",""WM09"",""BM03"",""HF10""]","[1,5,5,10]","[2,6,4,8]","","",""
"show-reward","176","419218","0.0-176.0","p298720","AOOLS8280CL0Z","336OE47KI3QZCSCUXSQ8J11UOZXVWV","3FIJLY1B6WANJ6RXBTCAY5L1QKZPFQ","model","match","uniform","","","","","","","","420683.7000000477","422698.2999999523","","","","","","","","","","","","10","","stimuli/stars_10.png","322.5","","","","","stimuli/HF10_DO.jpg","",""
"explore-choice","177","421482","0.0-177.0","p298720","AOOLS8280CL0Z","336OE47KI3QZCSCUXSQ8J11UOZXVWV","3FIJLY1B6WANJ6RXBTCAY5L1QKZPFQ","model","match","uniform","","","","","","","1748.7000000476837","422701.09999990463","424449.7999999523","[""stimuli/WM09_AO.jpg"",""stimuli/AF11_HE.jpg"",""stimuli/HF10_DO.jpg"",""stimuli/BM03_FO.jpg""]","stimuli/WM09_AO.jpg","stimuli/AF11_HE.jpg","stimuli/HF10_DO.jpg","stimuli/BM03_FO.jpg","pos3","stimuli/HF10_DO.jpg","DO","HF10","2","3","6","8","stimuli/stars_6.png","325.5","[""AO"",""HE"",""DO"",""FO""]","[""WM09"",""AF11"",""HF10"",""BM03""]","[6,2,6,6]","[6,2,8,4]","","",""
"show-reward","178","423499","0.0-178.0","p298720","AOOLS8280CL0Z","336OE47KI3QZCSCUXSQ8J11UOZXVWV","3FIJLY1B6WANJ6RXBTCAY5L1QKZPFQ","model","match","uniform","","","","","","","","424966.09999990463","426980.7999999523","","","","","","","","","","","","6","","stimuli/stars_6.png","325.5","","","","","stimuli/HF10_DO.jpg","",""
"explore-choice","179","425085","0.0-179.0","p298720","AOOLS8280CL0Z","336OE47KI3QZCSCUXSQ8J11UOZXVWV","3FIJLY1B6WANJ6RXBTCAY5L1QKZPFQ","model","match","uniform","","","","","","","1080.3999998569489","426982.2000000477","428062.59999990463","[""stimuli/BM03_DO.jpg"",""stimuli/AF11_HE.jpg"",""stimuli/HF10_FO.jpg"",""stimuli/WM09_AO.jpg""]","stimuli/BM03_DO.jpg","stimuli/AF11_HE.jpg","stimuli/HF10_FO.jpg","stimuli/WM09_AO.jpg","pos3","stimuli/HF10_FO.jpg","FO","HF10","2","4.5","9","8","stimuli/stars_9.png","330","[""DO"",""HE"",""FO"",""AO""]","[""BM03"",""AF11"",""HF10"",""WM09""]","[6,4,9,7]","[4,2,8,6]","","",""
"show-reward","180","427104","0.0-180.0","p298720","AOOLS8280CL0Z","336OE47KI3QZCSCUXSQ8J11UOZXVWV","3FIJLY1B6WANJ6RXBTCAY5L1QKZPFQ","model","match","uniform","","","","","","","","428569.39999985695","430584.39999985695","","","","","","","","","","","","9","","stimuli/stars_9.png","330","","","","","stimuli/HF10_FO.jpg","",""
"explore-choice","181","429284","0.0-181.0","p298720","AOOLS8280CL0Z","336OE47KI3QZCSCUXSQ8J11UOZXVWV","3FIJLY1B6WANJ6RXBTCAY5L1QKZPFQ","model","match","uniform","","","","","","","1676.2000000476837","430588.5","432264.7000000477","[""stimuli/HF10_AO.jpg"",""stimuli/WM09_HE.jpg"",""stimuli/BM03_FO.jpg"",""stimuli/AF11_DO.jpg""]","stimuli/HF10_AO.jpg","stimuli/WM09_HE.jpg","stimuli/BM03_FO.jpg","stimuli/AF11_DO.jpg","pos1","stimuli/HF10_AO.jpg","AO","HF10","0","3","6","8","stimuli/stars_6.png","333","[""AO"",""HE"",""FO"",""DO""]","[""HF10"",""WM09"",""BM03"",""AF11""]","[6,7,2,0]","[8,6,4,2]","","",""
"show-reward","182","431306","0.0-182.0","p298720","AOOLS8280CL0Z","336OE47KI3QZCSCUXSQ8J11UOZXVWV","3FIJLY1B6WANJ6RXBTCAY5L1QKZPFQ","model","match","uniform","","","","","","","","432768.2999999523","434786.89999985695","","","","","","","","","","","","6","","stimuli/stars_6.png","333","","","","","stimuli/HF10_AO.jpg","",""
"explore-choice","183","433313","0.0-183.0","p298720","AOOLS8280CL0Z","336OE47KI3QZCSCUXSQ8J11UOZXVWV","3FIJLY1B6WANJ6RXBTCAY5L1QKZPFQ","model","match","uniform","","","","","","","1490.1999998092651","434789.7000000477","436279.89999985695","[""stimuli/BM03_AO.jpg"",""stimuli/HF10_DO.jpg"",""stimuli/AF11_FO.jpg"",""stimuli/WM09_HE.jpg""]","stimuli/BM03_AO.jpg","stimuli/HF10_DO.jpg","stimuli/AF11_FO.jpg","stimuli/WM09_HE.jpg","pos2","stimuli/HF10_DO.jpg","DO","HF10","1","3.5","7","8","stimuli/stars_7.png","336.5","[""AO"",""DO"",""FO"",""HE""]","[""BM03"",""HF10"",""AF11"",""WM09""]","[5,7,3,7]","[4,8,2,6]","","",""
"show-reward","184","435325","0.0-184.0","p298720","AOOLS8280CL0Z","336OE47KI3QZCSCUXSQ8J11UOZXVWV","3FIJLY1B6WANJ6RXBTCAY5L1QKZPFQ","model","match","uniform","","","","","","","","436797","438805.89999985695","","","","","","","","","","","","7","","stimuli/stars_7.png","336.5","","","","","stimuli/HF10_DO.jpg","",""
"explore-choice","185","437513","0.0-185.0","p298720","AOOLS8280CL0Z","336OE47KI3QZCSCUXSQ8J11UOZXVWV","3FIJLY1B6WANJ6RXBTCAY5L1QKZPFQ","model","match","uniform","","","","","","","1678.6999998092651","438809.2000000477","440487.89999985695","[""stimuli/WM09_DO.jpg"",""stimuli/BM03_AO.jpg"",""stimuli/AF11_FO.jpg"",""stimuli/HF10_HE.jpg""]","stimuli/WM09_DO.jpg","stimuli/BM03_AO.jpg","stimuli/AF11_FO.jpg","stimuli/HF10_HE.jpg","pos4","stimuli/HF10_HE.jpg","HE","HF10","3","3","6","8","stimuli/stars_6.png","339.5","[""DO"",""AO"",""FO"",""HE""]","[""WM09"",""BM03"",""AF11"",""HF10""]","[5,2,0,6]","[6,4,2,8]","","",""
"show-reward","186","439523","0.0-186.0","p298720","AOOLS8280CL0Z","336OE47KI3QZCSCUXSQ8J11UOZXVWV","3FIJLY1B6WANJ6RXBTCAY5L1QKZPFQ","model","match","uniform","","","","","","","","440995.89999985695","443002.89999985695","","","","","","","","","","","","6","","stimuli/stars_6.png","339.5","","","","","stimuli/HF10_HE.jpg","",""
"explore-choice","187","441370","0.0-187.0","p298720","AOOLS8280CL0Z","336OE47KI3QZCSCUXSQ8J11UOZXVWV","3FIJLY1B6WANJ6RXBTCAY5L1QKZPFQ","model","match","uniform","","","","","","","1338.9000000953674","443007.39999985695","444346.2999999523","[""stimuli/BM03_DO.jpg"",""stimuli/AF11_AO.jpg"",""stimuli/WM09_HE.jpg"",""stimuli/HF10_FO.jpg""]","stimuli/BM03_DO.jpg","stimuli/AF11_AO.jpg","stimuli/WM09_HE.jpg","stimuli/HF10_FO.jpg","pos4","stimuli/HF10_FO.jpg","FO","HF10","3","5","10","8","stimuli/stars_10.png","344.5","[""DO"",""AO"",""HE"",""FO""]","[""BM03"",""AF11"",""WM09"",""HF10""]","[6,1,7,10]","[4,2,6,8]","","",""
"show-reward","188","443389","0.0-188.0","p298720","AOOLS8280CL0Z","336OE47KI3QZCSCUXSQ8J11UOZXVWV","3FIJLY1B6WANJ6RXBTCAY5L1QKZPFQ","model","match","uniform","","","","","","","","444854.2000000477","446870.2000000477","","","","","","","","","","","","10","","stimuli/stars_10.png","344.5","","","","","stimuli/HF10_FO.jpg","",""
"explore-choice","189","445480","0.0-189.0","p298720","AOOLS8280CL0Z","336OE47KI3QZCSCUXSQ8J11UOZXVWV","3FIJLY1B6WANJ6RXBTCAY5L1QKZPFQ","model","match","uniform","","","","","","","1585.7000000476837","446873.2999999523","448459","[""stimuli/AF11_HE.jpg"",""stimuli/HF10_AO.jpg"",""stimuli/BM03_DO.jpg"",""stimuli/WM09_FO.jpg""]","stimuli/AF11_HE.jpg","stimuli/HF10_AO.jpg","stimuli/BM03_DO.jpg","stimuli/WM09_FO.jpg","pos2","stimuli/HF10_AO.jpg","AO","HF10","1","5","10","8","stimuli/stars_10.png","349.5","[""HE"",""AO"",""DO"",""FO""]","[""AF11"",""HF10"",""BM03"",""WM09""]","[1,10,5,8]","[2,8,4,6]","","",""
"show-reward","190","447493","0.0-190.0","p298720","AOOLS8280CL0Z","336OE47KI3QZCSCUXSQ8J11UOZXVWV","3FIJLY1B6WANJ6RXBTCAY5L1QKZPFQ","model","match","uniform","","","","","","","","448963.5","450973.5","","","","","","","","","","","","10","","stimuli/stars_10.png","349.5","","","","","stimuli/HF10_AO.jpg","",""
"explore-choice","191","449644","0.0-191.0","p298720","AOOLS8280CL0Z","336OE47KI3QZCSCUXSQ8J11UOZXVWV","3FIJLY1B6WANJ6RXBTCAY5L1QKZPFQ","model","match","uniform","","","","","","","1642","450976.89999985695","452618.89999985695","[""stimuli/HF10_HE.jpg"",""stimuli/AF11_AO.jpg"",""stimuli/BM03_DO.jpg"",""stimuli/WM09_FO.jpg""]","stimuli/HF10_HE.jpg","stimuli/AF11_AO.jpg","stimuli/BM03_DO.jpg","stimuli/WM09_FO.jpg","pos1","stimuli/HF10_HE.jpg","HE","HF10","0","4.5","9","8","stimuli/stars_9.png","354","[""HE"",""AO"",""DO"",""FO""]","[""HF10"",""AF11"",""BM03"",""WM09""]","[9,4,2,8]","[8,2,4,6]","","",""
"show-reward","192","451661","0.0-192.0","p298720","AOOLS8280CL0Z","336OE47KI3QZCSCUXSQ8J11UOZXVWV","3FIJLY1B6WANJ6RXBTCAY5L1QKZPFQ","model","match","uniform","","","","","","","","453127.2999999523","455142.39999985695","","","","","","","","","","","","9","","stimuli/stars_9.png","354","","","","","stimuli/HF10_HE.jpg","",""
"explore-choice","193","453753","0.0-193.0","p298720","AOOLS8280CL0Z","336OE47KI3QZCSCUXSQ8J11UOZXVWV","3FIJLY1B6WANJ6RXBTCAY5L1QKZPFQ","model","match","uniform","","","","","","","1587.5999999046326","455145.2000000477","456732.7999999523","[""stimuli/AF11_AO.jpg"",""stimuli/HF10_FO.jpg"",""stimuli/BM03_HE.jpg"",""stimuli/WM09_DO.jpg""]","stimuli/AF11_AO.jpg","stimuli/HF10_FO.jpg","stimuli/BM03_HE.jpg","stimuli/WM09_DO.jpg","pos2","stimuli/HF10_FO.jpg","FO","HF10","1","4","8","8","stimuli/stars_8.png","358","[""AO"",""FO"",""HE"",""DO""]","[""AF11"",""HF10"",""BM03"",""WM09""]","[1,8,2,4]","[2,8,4,6]","","",""
"show-reward","194","455767","0.0-194.0","p298720","AOOLS8280CL0Z","336OE47KI3QZCSCUXSQ8J11UOZXVWV","3FIJLY1B6WANJ6RXBTCAY5L1QKZPFQ","model","match","uniform","","","","","","","","457237.2999999523","459248.2999999523","","","","","","","","","","","","8","","stimuli/stars_8.png","358","","","","","stimuli/HF10_FO.jpg","",""
"explore-choice","195","457398","0.0-195.0","p298720","AOOLS8280CL0Z","336OE47KI3QZCSCUXSQ8J11UOZXVWV","3FIJLY1B6WANJ6RXBTCAY5L1QKZPFQ","model","match","uniform","","","","","","","1114.9000000953674","459250.89999985695","460365.7999999523","[""stimuli/AF11_DO.jpg"",""stimuli/HF10_AO.jpg"",""stimuli/BM03_HE.jpg"",""stimuli/WM09_FO.jpg""]","stimuli/AF11_DO.jpg","stimuli/HF10_AO.jpg","stimuli/BM03_HE.jpg","stimuli/WM09_FO.jpg","pos2","stimuli/HF10_AO.jpg","AO","HF10","1","4.5","9","8","stimuli/stars_9.png","362.5","[""DO"",""AO"",""HE"",""FO""]","[""AF11"",""HF10"",""BM03"",""WM09""]","[1,9,6,6]","[2,8,4,6]","","",""
"show-reward","196","459413","0.0-196.0","p298720","AOOLS8280CL0Z","336OE47KI3QZCSCUXSQ8J11UOZXVWV","3FIJLY1B6WANJ6RXBTCAY5L1QKZPFQ","model","match","uniform","","","","","","","","460881","462894.59999990463","","","","","","","","","","","","9","","stimuli/stars_9.png","362.5","","","","","stimuli/HF10_AO.jpg","",""
"explore-choice","197","460924","0.0-197.0","p298720","AOOLS8280CL0Z","336OE47KI3QZCSCUXSQ8J11UOZXVWV","3FIJLY1B6WANJ6RXBTCAY5L1QKZPFQ","model","match","uniform","","","","","","","1007.2000000476837","462896.59999990463","463903.7999999523","[""stimuli/AF11_AO.jpg"",""stimuli/HF10_HE.jpg"",""stimuli/WM09_DO.jpg"",""stimuli/BM03_FO.jpg""]","stimuli/AF11_AO.jpg","stimuli/HF10_HE.jpg","stimuli/WM09_DO.jpg","stimuli/BM03_FO.jpg","pos2","stimuli/HF10_HE.jpg","HE","HF10","1","4.5","9","8","stimuli/stars_9.png","367","[""AO"",""HE"",""DO"",""FO""]","[""AF11"",""HF10"",""WM09"",""BM03""]","[2,9,5,3]","[2,8,6,4]","","",""
"show-reward","198","462947","0.0-198.0","p298720","AOOLS8280CL0Z","336OE47KI3QZCSCUXSQ8J11UOZXVWV","3FIJLY1B6WANJ6RXBTCAY5L1QKZPFQ","model","match","uniform","","","","","","","","464407.09999990463","466427.89999985695","","","","","","","","","","","","9","","stimuli/stars_9.png","367","","","","","stimuli/HF10_HE.jpg","",""
"instructions","199","470617","0.0-199.0","p298720","AOOLS8280CL0Z","336OE47KI3QZCSCUXSQ8J11UOZXVWV","3FIJLY1B6WANJ6RXBTCAY5L1QKZPFQ","model","match","uniform","","","","","","[{""page_index"":0,""viewing_time"":7668.299999952316}]","7669.5","","","","","","","","","","","","","","","","","","","","","","","",""
"survey-text","200","476271","0.0-200.0-0.0","p298720","AOOLS8280CL0Z","336OE47KI3QZCSCUXSQ8J11UOZXVWV","3FIJLY1B6WANJ6RXBTCAY5L1QKZPFQ","model","match","uniform","","","","","","","5638.599999904633","","","","","","","","","","","","","","","","","","","","","","","{""age"":""70""}",""
"survey-text","201","482650","0.0-200.0-1.0","p298720","AOOLS8280CL0Z","336OE47KI3QZCSCUXSQ8J11UOZXVWV","3FIJLY1B6WANJ6RXBTCAY5L1QKZPFQ","model","match","uniform","","","","","","","6357.400000095367","","","","","","","","","","","","","","","","","","","","","","","{""gender"":""female""}",""
"survey-text","202","493500","0.0-200.0-2.0","p298720","AOOLS8280CL0Z","336OE47KI3QZCSCUXSQ8J11UOZXVWV","3FIJLY1B6WANJ6RXBTCAY5L1QKZPFQ","model","match","uniform","","","","","","","10831.200000047684","","","","","","","","","","","","","","","","","","","","","","","{""country"":""United States""}",""
"survey-text","203","506878","0.0-200.0-3.0","p298720","AOOLS8280CL0Z","336OE47KI3QZCSCUXSQ8J11UOZXVWV","3FIJLY1B6WANJ6RXBTCAY5L1QKZPFQ","model","match","uniform","","","","","","","13351.599999904633","","","","","","","","","","","","","","","","","","","","","","","{""language"":""english"",""other_languages"":""none""}",""
"survey-multi-select","204","510467","0.0-201.0","p298720","AOOLS8280CL0Z","336OE47KI3QZCSCUXSQ8J11UOZXVWV","3FIJLY1B6WANJ6RXBTCAY5L1QKZPFQ","model","match","uniform","","","","","","","3580.2000000476837","","","","","","","","","","","","","","","","","","","","","","","{""race"":[""White""]}","[0]"
"survey-multi-choice","205","513724","0.0-202.0","p298720","AOOLS8280CL0Z","336OE47KI3QZCSCUXSQ8J11UOZXVWV","3FIJLY1B6WANJ6RXBTCAY5L1QKZPFQ","model","match","uniform","","","","","","","3246.5999999046326","","","","","","","","","","","","","","","","","","","","","","","{""education"":""High school""}","[0]"
"survey-text","206","551701","0.0-203.0","p298720","AOOLS8280CL0Z","336OE47KI3QZCSCUXSQ8J11UOZXVWV","3FIJLY1B6WANJ6RXBTCAY5L1QKZPFQ","model","match","uniform","","","","","","","37897.09999990463","","","","","","","","","","","","","","","","","","","","","","","{""patterns"":""same person in each round seemed to have most stars"",""strategy"":""found the one with most stars, stuck with them"",""comments"":""""}",""
