"trial_type","trial_index","time_elapsed","internal_node_id","subject","workerId","hitId","assignmentId","structure_condition","match_condition","noise_type","success","timeout","failed_images","failed_audio","failed_video","view_history","rt","start_time","end_time","stimuli","image1","image2","image3","image4","choiceLocation","choiceImage","choiceEmotion","choiceModel","choice_index","reward_score","reward","reward_score_unadjusted","reward_image","score_after_trial","emotions","models","rewards","rewards_unadjusted","stimulus","response","question_order"
"pavlovia","0","9","0.0-0.0","p461825","AM65LGXJBTJ0I","3087LXLJ6NMH85PJ46SJUKP4Z1V0FD","3WS1NTTKE0IKVPNDU8XKJ4KTICO0FV","emotion","match","uniform","","","","","","","","","","","","","","","","","","","","","","","","","","","","","","",""
"preload","1","21497","0.0-1.0","p461825","AM65LGXJBTJ0I","3087LXLJ6NMH85PJ46SJUKP4Z1V0FD","3WS1NTTKE0IKVPNDU8XKJ4KTICO0FV","emotion","match","uniform","true","false","[]","[]","[]","","","","","","","","","","","","","","","","","","","","","","","","","",""
"fullscreen","2","27635","0.0-2.0","p461825","AM65LGXJBTJ0I","3087LXLJ6NMH85PJ46SJUKP4Z1V0FD","3WS1NTTKE0IKVPNDU8XKJ4KTICO0FV","emotion","match","uniform","true","","","","","","","","","","","","","","","","","","","","","","","","","","","","","",""
"instructions","3","33174","0.0-3.0","p461825","AM65LGXJBTJ0I","3087LXLJ6NMH85PJ46SJUKP4Z1V0FD","3WS1NTTKE0IKVPNDU8XKJ4KTICO0FV","emotion","match","uniform","","","","","","[{""page_index"":0,""viewing_time"":5538.599999904633}]","5539.099999904633","","","","","","","","","","","","","","","","","","","","","","","",""
"explore-choice","4","35895","0.0-4.0","p461825","AM65LGXJBTJ0I","3087LXLJ6NMH85PJ46SJUKP4Z1V0FD","3WS1NTTKE0IKVPNDU8XKJ4KTICO0FV","emotion","match","uniform","","","","","","","2212.100000023842","35034.10000002384","37246.200000047684","[""stimuli/sheep.jpg"",""stimuli/hammer.jpg"",""stimuli/basketball.jpg"",""stimuli/horse.jpg""]","stimuli/sheep.jpg","stimuli/hammer.jpg","stimuli/basketball.jpg","stimuli/horse.jpg","pos4","stimuli/horse.jpg","","","3","64","64","64","stimuli/stars_8.png","65","","","","","","",""
"explore-choice","5","37606","0.0-5.0","p461825","AM65LGXJBTJ0I","3087LXLJ6NMH85PJ46SJUKP4Z1V0FD","3WS1NTTKE0IKVPNDU8XKJ4KTICO0FV","emotion","match","uniform","","","","","","","1202.8999999761581","37755.300000071526","38958.200000047684","[""stimuli/hammer.jpg"",""stimuli/basketball.jpg"",""stimuli/horse.jpg"",""stimuli/sheep.jpg""]","stimuli/hammer.jpg","stimuli/basketball.jpg","stimuli/horse.jpg","stimuli/sheep.jpg","pos1","stimuli/hammer.jpg","","","0","8","8","8","stimuli/stars_2.png","9","","","","","","",""
"instructions","6","58623","0.0-6.0","p461825","AM65LGXJBTJ0I","3087LXLJ6NMH85PJ46SJUKP4Z1V0FD","3WS1NTTKE0IKVPNDU8XKJ4KTICO0FV","emotion","match","uniform","","","","","","[{""page_index"":0,""viewing_time"":21015.899999976158}]","21016","","","","","","","","","","","","","","","","","","","","","","","",""
"explore-choice","7","61631","0.0-7.0","p461825","AM65LGXJBTJ0I","3087LXLJ6NMH85PJ46SJUKP4Z1V0FD","3WS1NTTKE0IKVPNDU8XKJ4KTICO0FV","emotion","match","uniform","","","","","","","2492.0999999046326","60482.90000009537","62975","[""stimuli/WM11_DO.jpg"",""stimuli/HF09_HO.jpg"",""stimuli/BF06_AO.jpg"",""stimuli/WM13_HE.jpg""]","stimuli/WM11_DO.jpg","stimuli/HF09_HO.jpg","stimuli/BF06_AO.jpg","stimuli/WM13_HE.jpg","pos3","stimuli/BF06_AO.jpg","AO","BF06","2","3.5","7","8","stimuli/stars_7.png","4.5","[""DO"",""HO"",""AO"",""HE""]","[""WM11"",""HF09"",""BF06"",""WM13""]","[6,5,7,0]","[6,4,8,2]","","",""
"show-reward","8","63646","0.0-8.0","p461825","AM65LGXJBTJ0I","3087LXLJ6NMH85PJ46SJUKP4Z1V0FD","3WS1NTTKE0IKVPNDU8XKJ4KTICO0FV","emotion","match","uniform","","","","","","","","63491.10000002384","65502.60000002384","","","","","","","","","","","","7","","stimuli/stars_7.png","4.5","","","","","stimuli/BF06_AO.jpg","",""
"explore-choice","9","65652","0.0-9.0","p461825","AM65LGXJBTJ0I","3087LXLJ6NMH85PJ46SJUKP4Z1V0FD","3WS1NTTKE0IKVPNDU8XKJ4KTICO0FV","emotion","match","uniform","","","","","","","1493.4000000953674","65513.5","67006.90000009537","[""stimuli/WM11_HE.jpg"",""stimuli/BF06_DO.jpg"",""stimuli/WM13_HO.jpg"",""stimuli/HF09_AO.jpg""]","stimuli/WM11_HE.jpg","stimuli/BF06_DO.jpg","stimuli/WM13_HO.jpg","stimuli/HF09_AO.jpg","pos1","stimuli/WM11_HE.jpg","HE","WM11","0","1.5","3","2","stimuli/stars_3.png","6","[""HE"",""DO"",""HO"",""AO""]","[""WM11"",""BF06"",""WM13"",""HF09""]","[3,6,4,10]","[2,6,4,8]","","",""
"show-reward","10","67663","0.0-10.0","p461825","AM65LGXJBTJ0I","3087LXLJ6NMH85PJ46SJUKP4Z1V0FD","3WS1NTTKE0IKVPNDU8XKJ4KTICO0FV","emotion","match","uniform","","","","","","","","67511.60000002384","69521.40000009537","","","","","","","","","","","","3","","stimuli/stars_3.png","6","","","","","stimuli/WM11_HE.jpg","",""
"explore-choice","11","70311","0.0-11.0","p461825","AM65LGXJBTJ0I","3087LXLJ6NMH85PJ46SJUKP4Z1V0FD","3WS1NTTKE0IKVPNDU8XKJ4KTICO0FV","emotion","match","uniform","","","","","","","2137.8000000715256","69522.10000002384","71659.90000009537","[""stimuli/WM11_HE.jpg"",""stimuli/WM13_DO.jpg"",""stimuli/BF06_HO.jpg"",""stimuli/HF09_AO.jpg""]","stimuli/WM11_HE.jpg","stimuli/WM13_DO.jpg","stimuli/BF06_HO.jpg","stimuli/HF09_AO.jpg","pos4","stimuli/HF09_AO.jpg","AO","HF09","3","4.5","9","8","stimuli/stars_9.png","10.5","[""HE"",""DO"",""HO"",""AO""]","[""WM11"",""WM13"",""BF06"",""HF09""]","[2,7,5,9]","[2,6,4,8]","","",""
"show-reward","12","72314","0.0-12.0","p461825","AM65LGXJBTJ0I","3087LXLJ6NMH85PJ46SJUKP4Z1V0FD","3WS1NTTKE0IKVPNDU8XKJ4KTICO0FV","emotion","match","uniform","","","","","","","","72170.10000002384","74172.70000004768","","","","","","","","","","","","9","","stimuli/stars_9.png","10.5","","","","","stimuli/HF09_AO.jpg","",""
"explore-choice","13","75501","0.0-13.0","p461825","AM65LGXJBTJ0I","3087LXLJ6NMH85PJ46SJUKP4Z1V0FD","3WS1NTTKE0IKVPNDU8XKJ4KTICO0FV","emotion","match","uniform","","","","","","","2679.899999976158","74173.30000007153","76853.20000004768","[""stimuli/BF06_AO.jpg"",""stimuli/WM11_HE.jpg"",""stimuli/HF09_DO.jpg"",""stimuli/WM13_HO.jpg""]","stimuli/BF06_AO.jpg","stimuli/WM11_HE.jpg","stimuli/HF09_DO.jpg","stimuli/WM13_HO.jpg","pos4","stimuli/WM13_HO.jpg","HO","WM13","3","3","6","4","stimuli/stars_6.png","13.5","[""AO"",""HE"",""DO"",""HO""]","[""BF06"",""WM11"",""HF09"",""WM13""]","[6,3,5,6]","[8,2,6,4]","","",""
"show-reward","14","77514","0.0-14.0","p461825","AM65LGXJBTJ0I","3087LXLJ6NMH85PJ46SJUKP4Z1V0FD","3WS1NTTKE0IKVPNDU8XKJ4KTICO0FV","emotion","match","uniform","","","","","","","","77359.90000009537","79372.90000009537","","","","","","","","","","","","6","","stimuli/stars_6.png","13.5","","","","","stimuli/WM13_HO.jpg","",""
"explore-choice","15","80739","0.0-15.0","p461825","AM65LGXJBTJ0I","3087LXLJ6NMH85PJ46SJUKP4Z1V0FD","3WS1NTTKE0IKVPNDU8XKJ4KTICO0FV","emotion","match","uniform","","","","","","","2721.600000023842","79373.60000002384","82095.20000004768","[""stimuli/HF09_AO.jpg"",""stimuli/WM13_DO.jpg"",""stimuli/BF06_HE.jpg"",""stimuli/WM11_HO.jpg""]","stimuli/HF09_AO.jpg","stimuli/WM13_DO.jpg","stimuli/BF06_HE.jpg","stimuli/WM11_HO.jpg","pos1","stimuli/HF09_AO.jpg","AO","HF09","0","4.5","9","8","stimuli/stars_9.png","18","[""AO"",""DO"",""HE"",""HO""]","[""HF09"",""WM13"",""BF06"",""WM11""]","[9,7,1,5]","[8,6,2,4]","","",""
"show-reward","16","82741","0.0-16.0","p461825","AM65LGXJBTJ0I","3087LXLJ6NMH85PJ46SJUKP4Z1V0FD","3WS1NTTKE0IKVPNDU8XKJ4KTICO0FV","emotion","match","uniform","","","","","","","","82598.80000007153","84600.10000002384","","","","","","","","","","","","9","","stimuli/stars_9.png","18","","","","","stimuli/HF09_AO.jpg","",""
"explore-choice","17","84463","0.0-17.0","p461825","AM65LGXJBTJ0I","3087LXLJ6NMH85PJ46SJUKP4Z1V0FD","3WS1NTTKE0IKVPNDU8XKJ4KTICO0FV","emotion","match","uniform","","","","","","","1218.3000000715256","84600.60000002384","85818.90000009537","[""stimuli/HF09_HE.jpg"",""stimuli/BF06_AO.jpg"",""stimuli/WM13_DO.jpg"",""stimuli/WM11_HO.jpg""]","stimuli/HF09_HE.jpg","stimuli/BF06_AO.jpg","stimuli/WM13_DO.jpg","stimuli/WM11_HO.jpg","pos2","stimuli/BF06_AO.jpg","AO","BF06","1","4","8","8","stimuli/stars_8.png","22","[""HE"",""AO"",""DO"",""HO""]","[""HF09"",""BF06"",""WM13"",""WM11""]","[1,8,8,4]","[2,8,6,4]","","",""
"show-reward","18","86469","0.0-18.0","p461825","AM65LGXJBTJ0I","3087LXLJ6NMH85PJ46SJUKP4Z1V0FD","3WS1NTTKE0IKVPNDU8XKJ4KTICO0FV","emotion","match","uniform","","","","","","","","86322","88327.70000004768","","","","","","","","","","","","8","","stimuli/stars_8.png","22","","","","","stimuli/BF06_AO.jpg","",""
"explore-choice","19","89443","0.0-19.0","p461825","AM65LGXJBTJ0I","3087LXLJ6NMH85PJ46SJUKP4Z1V0FD","3WS1NTTKE0IKVPNDU8XKJ4KTICO0FV","emotion","match","uniform","","","","","","","2472.7999999523163","88328.20000004768","90801","[""stimuli/HF09_AO.jpg"",""stimuli/WM11_HO.jpg"",""stimuli/WM13_HE.jpg"",""stimuli/BF06_DO.jpg""]","stimuli/HF09_AO.jpg","stimuli/WM11_HO.jpg","stimuli/WM13_HE.jpg","stimuli/BF06_DO.jpg","pos4","stimuli/BF06_DO.jpg","DO","BF06","3","2","4","6","stimuli/stars_4.png","24","[""AO"",""HO"",""HE"",""DO""]","[""HF09"",""WM11"",""WM13"",""BF06""]","[8,2,4,4]","[8,4,2,6]","","",""
"show-reward","20","91456","0.0-20.0","p461825","AM65LGXJBTJ0I","3087LXLJ6NMH85PJ46SJUKP4Z1V0FD","3WS1NTTKE0IKVPNDU8XKJ4KTICO0FV","emotion","match","uniform","","","","","","","","91302.90000009537","93314.70000004768","","","","","","","","","","","","4","","stimuli/stars_4.png","24","","","","","stimuli/BF06_DO.jpg","",""
"explore-choice","21","94655","0.0-21.0","p461825","AM65LGXJBTJ0I","3087LXLJ6NMH85PJ46SJUKP4Z1V0FD","3WS1NTTKE0IKVPNDU8XKJ4KTICO0FV","emotion","match","uniform","","","","","","","2698.100000023842","93315.20000004768","96013.30000007153","[""stimuli/WM13_HE.jpg"",""stimuli/BF06_HO.jpg"",""stimuli/WM11_AO.jpg"",""stimuli/HF09_DO.jpg""]","stimuli/WM13_HE.jpg","stimuli/BF06_HO.jpg","stimuli/WM11_AO.jpg","stimuli/HF09_DO.jpg","pos3","stimuli/WM11_AO.jpg","AO","WM11","2","3.5","7","8","stimuli/stars_7.png","27.5","[""HE"",""HO"",""AO"",""DO""]","[""WM13"",""BF06"",""WM11"",""HF09""]","[4,4,7,7]","[2,4,8,6]","","",""
"show-reward","22","96664","0.0-22.0","p461825","AM65LGXJBTJ0I","3087LXLJ6NMH85PJ46SJUKP4Z1V0FD","3WS1NTTKE0IKVPNDU8XKJ4KTICO0FV","emotion","match","uniform","","","","","","","","96514.30000007153","98522.40000009537","","","","","","","","","","","","7","","stimuli/stars_7.png","27.5","","","","","stimuli/WM11_AO.jpg","",""
"explore-choice","23","100779","0.0-23.0","p461825","AM65LGXJBTJ0I","3087LXLJ6NMH85PJ46SJUKP4Z1V0FD","3WS1NTTKE0IKVPNDU8XKJ4KTICO0FV","emotion","match","uniform","","","","","","","3614.3000000715256","98523","102137.30000007153","[""stimuli/WM11_DO.jpg"",""stimuli/BF06_AO.jpg"",""stimuli/WM13_HO.jpg"",""stimuli/HF09_HE.jpg""]","stimuli/WM11_DO.jpg","stimuli/BF06_AO.jpg","stimuli/WM13_HO.jpg","stimuli/HF09_HE.jpg","pos2","stimuli/BF06_AO.jpg","AO","BF06","1","4","8","8","stimuli/stars_8.png","31.5","[""DO"",""AO"",""HO"",""HE""]","[""WM11"",""BF06"",""WM13"",""HF09""]","[6,8,3,1]","[6,8,4,2]","","",""
"show-reward","24","102784","0.0-24.0","p461825","AM65LGXJBTJ0I","3087LXLJ6NMH85PJ46SJUKP4Z1V0FD","3WS1NTTKE0IKVPNDU8XKJ4KTICO0FV","emotion","match","uniform","","","","","","","","102638.90000009537","104643.20000004768","","","","","","","","","","","","8","","stimuli/stars_8.png","31.5","","","","","stimuli/BF06_AO.jpg","",""
"explore-choice","25","106363","0.0-25.0","p461825","AM65LGXJBTJ0I","3087LXLJ6NMH85PJ46SJUKP4Z1V0FD","3WS1NTTKE0IKVPNDU8XKJ4KTICO0FV","emotion","match","uniform","","","","","","","3076.2999999523163","104643.80000007153","107720.10000002384","[""stimuli/BF06_HE.jpg"",""stimuli/HF09_DO.jpg"",""stimuli/WM13_HO.jpg"",""stimuli/WM11_AO.jpg""]","stimuli/BF06_HE.jpg","stimuli/HF09_DO.jpg","stimuli/WM13_HO.jpg","stimuli/WM11_AO.jpg","pos2","stimuli/HF09_DO.jpg","DO","HF09","1","3.5","7","6","stimuli/stars_7.png","35","[""HE"",""DO"",""HO"",""AO""]","[""BF06"",""HF09"",""WM13"",""WM11""]","[2,7,5,10]","[2,6,4,8]","","",""
"show-reward","26","108371","0.0-26.0","p461825","AM65LGXJBTJ0I","3087LXLJ6NMH85PJ46SJUKP4Z1V0FD","3WS1NTTKE0IKVPNDU8XKJ4KTICO0FV","emotion","match","uniform","","","","","","","","108221.90000009537","110229.5","","","","","","","","","","","","7","","stimuli/stars_7.png","35","","","","","stimuli/HF09_DO.jpg","",""
"explore-choice","27","111864","0.0-27.0","p461825","AM65LGXJBTJ0I","3087LXLJ6NMH85PJ46SJUKP4Z1V0FD","3WS1NTTKE0IKVPNDU8XKJ4KTICO0FV","emotion","match","uniform","","","","","","","2992.100000023842","110230.20000004768","113222.30000007153","[""stimuli/BF06_DO.jpg"",""stimuli/WM11_AO.jpg"",""stimuli/HF09_HO.jpg"",""stimuli/WM13_HE.jpg""]","stimuli/BF06_DO.jpg","stimuli/WM11_AO.jpg","stimuli/HF09_HO.jpg","stimuli/WM13_HE.jpg","pos2","stimuli/WM11_AO.jpg","AO","WM11","1","5","10","8","stimuli/stars_10.png","40","[""DO"",""AO"",""HO"",""HE""]","[""BF06"",""WM11"",""HF09"",""WM13""]","[8,10,6,4]","[6,8,4,2]","","",""
"show-reward","28","113877","0.0-28.0","p461825","AM65LGXJBTJ0I","3087LXLJ6NMH85PJ46SJUKP4Z1V0FD","3WS1NTTKE0IKVPNDU8XKJ4KTICO0FV","emotion","match","uniform","","","","","","","","113723.30000007153","115735.90000009537","","","","","","","","","","","","10","","stimuli/stars_10.png","40","","","","","stimuli/WM11_AO.jpg","",""
"explore-choice","29","116497","0.0-29.0","p461825","AM65LGXJBTJ0I","3087LXLJ6NMH85PJ46SJUKP4Z1V0FD","3WS1NTTKE0IKVPNDU8XKJ4KTICO0FV","emotion","match","uniform","","","","","","","2118.6999999284744","115736.30000007153","117855","[""stimuli/WM13_AO.jpg"",""stimuli/HF09_HE.jpg"",""stimuli/WM11_DO.jpg"",""stimuli/BF06_HO.jpg""]","stimuli/WM13_AO.jpg","stimuli/HF09_HE.jpg","stimuli/WM11_DO.jpg","stimuli/BF06_HO.jpg","pos1","stimuli/WM13_AO.jpg","AO","WM13","0","4.5","9","8","stimuli/stars_9.png","44.5","[""AO"",""HE"",""DO"",""HO""]","[""WM13"",""HF09"",""WM11"",""BF06""]","[9,2,4,5]","[8,2,6,4]","","",""
"show-reward","30","118511","0.0-30.0","p461825","AM65LGXJBTJ0I","3087LXLJ6NMH85PJ46SJUKP4Z1V0FD","3WS1NTTKE0IKVPNDU8XKJ4KTICO0FV","emotion","match","uniform","","","","","","","","118356.30000007153","120370","","","","","","","","","","","","9","","stimuli/stars_9.png","44.5","","","","","stimuli/WM13_AO.jpg","",""
"explore-choice","31","120621","0.0-31.0","p461825","AM65LGXJBTJ0I","3087LXLJ6NMH85PJ46SJUKP4Z1V0FD","3WS1NTTKE0IKVPNDU8XKJ4KTICO0FV","emotion","match","uniform","","","","","","","1596.4000000953674","120370.5","121966.90000009537","[""stimuli/WM13_AO.jpg"",""stimuli/BF06_DO.jpg"",""stimuli/WM11_HO.jpg"",""stimuli/HF09_HE.jpg""]","stimuli/WM13_AO.jpg","stimuli/BF06_DO.jpg","stimuli/WM11_HO.jpg","stimuli/HF09_HE.jpg","pos1","stimuli/WM13_AO.jpg","AO","WM13","0","3","6","8","stimuli/stars_6.png","47.5","[""AO"",""DO"",""HO"",""HE""]","[""WM13"",""BF06"",""WM11"",""HF09""]","[6,8,6,3]","[8,6,4,2]","","",""
"show-reward","32","122634","0.0-32.0","p461825","AM65LGXJBTJ0I","3087LXLJ6NMH85PJ46SJUKP4Z1V0FD","3WS1NTTKE0IKVPNDU8XKJ4KTICO0FV","emotion","match","uniform","","","","","","","","122480.30000007153","124492.70000004768","","","","","","","","","","","","6","","stimuli/stars_6.png","47.5","","","","","stimuli/WM13_AO.jpg","",""
"explore-choice","33","125083","0.0-33.0","p461825","AM65LGXJBTJ0I","3087LXLJ6NMH85PJ46SJUKP4Z1V0FD","3WS1NTTKE0IKVPNDU8XKJ4KTICO0FV","emotion","match","uniform","","","","","","","1946.7999999523163","124493.20000004768","126440","[""stimuli/HF09_DO.jpg"",""stimuli/WM11_HO.jpg"",""stimuli/BF06_HE.jpg"",""stimuli/WM13_AO.jpg""]","stimuli/HF09_DO.jpg","stimuli/WM11_HO.jpg","stimuli/BF06_HE.jpg","stimuli/WM13_AO.jpg","pos4","stimuli/WM13_AO.jpg","AO","WM13","3","4","8","8","stimuli/stars_8.png","51.5","[""DO"",""HO"",""HE"",""AO""]","[""HF09"",""WM11"",""BF06"",""WM13""]","[7,2,3,8]","[6,4,2,8]","","",""
"show-reward","34","127086","0.0-34.0","p461825","AM65LGXJBTJ0I","3087LXLJ6NMH85PJ46SJUKP4Z1V0FD","3WS1NTTKE0IKVPNDU8XKJ4KTICO0FV","emotion","match","uniform","","","","","","","","126941.70000004768","128944.70000004768","","","","","","","","","","","","8","","stimuli/stars_8.png","51.5","","","","","stimuli/WM13_AO.jpg","",""
"explore-choice","35","129505","0.0-35.0","p461825","AM65LGXJBTJ0I","3087LXLJ6NMH85PJ46SJUKP4Z1V0FD","3WS1NTTKE0IKVPNDU8XKJ4KTICO0FV","emotion","match","uniform","","","","","","","1918","128945.10000002384","130863.10000002384","[""stimuli/WM11_HO.jpg"",""stimuli/BF06_AO.jpg"",""stimuli/HF09_DO.jpg"",""stimuli/WM13_HE.jpg""]","stimuli/WM11_HO.jpg","stimuli/BF06_AO.jpg","stimuli/HF09_DO.jpg","stimuli/WM13_HE.jpg","pos2","stimuli/BF06_AO.jpg","AO","BF06","1","5","10","8","stimuli/stars_10.png","56.5","[""HO"",""AO"",""DO"",""HE""]","[""WM11"",""BF06"",""HF09"",""WM13""]","[2,10,8,4]","[4,8,6,2]","","",""
"show-reward","36","131510","0.0-36.0","p461825","AM65LGXJBTJ0I","3087LXLJ6NMH85PJ46SJUKP4Z1V0FD","3WS1NTTKE0IKVPNDU8XKJ4KTICO0FV","emotion","match","uniform","","","","","","","","131364.5","133368.40000009537","","","","","","","","","","","","10","","stimuli/stars_10.png","56.5","","","","","stimuli/BF06_AO.jpg","",""
"explore-choice","37","135139","0.0-37.0","p461825","AM65LGXJBTJ0I","3087LXLJ6NMH85PJ46SJUKP4Z1V0FD","3WS1NTTKE0IKVPNDU8XKJ4KTICO0FV","emotion","match","uniform","","","","","","","3127.100000023842","133369","136496.10000002384","[""stimuli/WM13_HO.jpg"",""stimuli/WM11_AO.jpg"",""stimuli/HF09_HE.jpg"",""stimuli/BF06_DO.jpg""]","stimuli/WM13_HO.jpg","stimuli/WM11_AO.jpg","stimuli/HF09_HE.jpg","stimuli/BF06_DO.jpg","pos2","stimuli/WM11_AO.jpg","AO","WM11","1","3","6","8","stimuli/stars_6.png","59.5","[""HO"",""AO"",""HE"",""DO""]","[""WM13"",""WM11"",""HF09"",""BF06""]","[2,6,1,5]","[4,8,2,6]","","",""
"show-reward","38","137152","0.0-38.0","p461825","AM65LGXJBTJ0I","3087LXLJ6NMH85PJ46SJUKP4Z1V0FD","3WS1NTTKE0IKVPNDU8XKJ4KTICO0FV","emotion","match","uniform","","","","","","","","136998","139011","","","","","","","","","","","","6","","stimuli/stars_6.png","59.5","","","","","stimuli/WM11_AO.jpg","",""
"explore-choice","39","140610","0.0-39.0","p461825","AM65LGXJBTJ0I","3087LXLJ6NMH85PJ46SJUKP4Z1V0FD","3WS1NTTKE0IKVPNDU8XKJ4KTICO0FV","emotion","match","uniform","","","","","","","2956.600000023842","139011.60000002384","141968.20000004768","[""stimuli/WM13_HO.jpg"",""stimuli/HF09_AO.jpg"",""stimuli/WM11_DO.jpg"",""stimuli/BF06_HE.jpg""]","stimuli/WM13_HO.jpg","stimuli/HF09_AO.jpg","stimuli/WM11_DO.jpg","stimuli/BF06_HE.jpg","pos2","stimuli/HF09_AO.jpg","AO","HF09","1","4.5","9","8","stimuli/stars_9.png","64","[""HO"",""AO"",""DO"",""HE""]","[""WM13"",""HF09"",""WM11"",""BF06""]","[2,9,8,2]","[4,8,6,2]","","",""
"show-reward","40","142627","0.0-40.0","p461825","AM65LGXJBTJ0I","3087LXLJ6NMH85PJ46SJUKP4Z1V0FD","3WS1NTTKE0IKVPNDU8XKJ4KTICO0FV","emotion","match","uniform","","","","","","","","142469.40000009537","144485.60000002384","","","","","","","","","","","","9","","stimuli/stars_9.png","64","","","","","stimuli/HF09_AO.jpg","",""
"explore-choice","41","145523","0.0-41.0","p461825","AM65LGXJBTJ0I","3087LXLJ6NMH85PJ46SJUKP4Z1V0FD","3WS1NTTKE0IKVPNDU8XKJ4KTICO0FV","emotion","match","uniform","","","","","","","2395","144486.20000004768","146881.20000004768","[""stimuli/WM13_AO.jpg"",""stimuli/BF06_DO.jpg"",""stimuli/WM11_HE.jpg"",""stimuli/HF09_HO.jpg""]","stimuli/WM13_AO.jpg","stimuli/BF06_DO.jpg","stimuli/WM11_HE.jpg","stimuli/HF09_HO.jpg","pos1","stimuli/WM13_AO.jpg","AO","WM13","0","3","6","8","stimuli/stars_6.png","67","[""AO"",""DO"",""HE"",""HO""]","[""WM13"",""BF06"",""WM11"",""HF09""]","[6,5,1,5]","[8,6,2,4]","","",""
"show-reward","42","147534","0.0-42.0","p461825","AM65LGXJBTJ0I","3087LXLJ6NMH85PJ46SJUKP4Z1V0FD","3WS1NTTKE0IKVPNDU8XKJ4KTICO0FV","emotion","match","uniform","","","","","","","","147382.30000007153","149392.80000007153","","","","","","","","","","","","6","","stimuli/stars_6.png","67","","","","","stimuli/WM13_AO.jpg","",""
"explore-choice","43","150440","0.0-43.0","p461825","AM65LGXJBTJ0I","3087LXLJ6NMH85PJ46SJUKP4Z1V0FD","3WS1NTTKE0IKVPNDU8XKJ4KTICO0FV","emotion","match","uniform","","","","","","","2390.7999999523163","149393.30000007153","151784.10000002384","[""stimuli/BF06_HO.jpg"",""stimuli/HF09_DO.jpg"",""stimuli/WM13_AO.jpg"",""stimuli/WM11_HE.jpg""]","stimuli/BF06_HO.jpg","stimuli/HF09_DO.jpg","stimuli/WM13_AO.jpg","stimuli/WM11_HE.jpg","pos3","stimuli/WM13_AO.jpg","AO","WM13","2","4","8","8","stimuli/stars_8.png","71","[""HO"",""DO"",""AO"",""HE""]","[""BF06"",""HF09"",""WM13"",""WM11""]","[2,8,8,1]","[4,6,8,2]","","",""
"show-reward","44","152443","0.0-44.0","p461825","AM65LGXJBTJ0I","3087LXLJ6NMH85PJ46SJUKP4Z1V0FD","3WS1NTTKE0IKVPNDU8XKJ4KTICO0FV","emotion","match","uniform","","","","","","","","152299.70000004768","154301.60000002384","","","","","","","","","","","","8","","stimuli/stars_8.png","71","","","","","stimuli/WM13_AO.jpg","",""
"explore-choice","45","156029","0.0-45.0","p461825","AM65LGXJBTJ0I","3087LXLJ6NMH85PJ46SJUKP4Z1V0FD","3WS1NTTKE0IKVPNDU8XKJ4KTICO0FV","emotion","match","uniform","","","","","","","3084.7999999523163","154302.20000004768","157387","[""stimuli/BF06_HE.jpg"",""stimuli/WM11_AO.jpg"",""stimuli/HF09_HO.jpg"",""stimuli/WM13_DO.jpg""]","stimuli/BF06_HE.jpg","stimuli/WM11_AO.jpg","stimuli/HF09_HO.jpg","stimuli/WM13_DO.jpg","pos2","stimuli/WM11_AO.jpg","AO","WM11","1","5","10","8","stimuli/stars_10.png","76","[""HE"",""AO"",""HO"",""DO""]","[""BF06"",""WM11"",""HF09"",""WM13""]","[4,10,6,7]","[2,8,4,6]","","",""
"show-reward","46","158044","0.0-46.0","p461825","AM65LGXJBTJ0I","3087LXLJ6NMH85PJ46SJUKP4Z1V0FD","3WS1NTTKE0IKVPNDU8XKJ4KTICO0FV","emotion","match","uniform","","","","","","","","157888.10000002384","159902.70000004768","","","","","","","","","","","","10","","stimuli/stars_10.png","76","","","","","stimuli/WM11_AO.jpg","",""
"explore-choice","47","161802","0.0-47.0","p461825","AM65LGXJBTJ0I","3087LXLJ6NMH85PJ46SJUKP4Z1V0FD","3WS1NTTKE0IKVPNDU8XKJ4KTICO0FV","emotion","match","uniform","","","","","","","3255.899999976158","159903.30000007153","163159.20000004768","[""stimuli/HF09_HO.jpg"",""stimuli/WM11_DO.jpg"",""stimuli/BF06_HE.jpg"",""stimuli/WM13_AO.jpg""]","stimuli/HF09_HO.jpg","stimuli/WM11_DO.jpg","stimuli/BF06_HE.jpg","stimuli/WM13_AO.jpg","pos4","stimuli/WM13_AO.jpg","AO","WM13","3","5","10","8","stimuli/stars_10.png","81","[""HO"",""DO"",""HE"",""AO""]","[""HF09"",""WM11"",""BF06"",""WM13""]","[4,7,3,10]","[4,6,2,8]","","",""
"show-reward","48","163805","0.0-48.0","p461825","AM65LGXJBTJ0I","3087LXLJ6NMH85PJ46SJUKP4Z1V0FD","3WS1NTTKE0IKVPNDU8XKJ4KTICO0FV","emotion","match","uniform","","","","","","","","163661","165663.70000004768","","","","","","","","","","","","10","","stimuli/stars_10.png","81","","","","","stimuli/WM13_AO.jpg","",""
"explore-choice","49","167095","0.0-49.0","p461825","AM65LGXJBTJ0I","3087LXLJ6NMH85PJ46SJUKP4Z1V0FD","3WS1NTTKE0IKVPNDU8XKJ4KTICO0FV","emotion","match","uniform","","","","","","","2787.7000000476837","165664.5","168452.20000004768","[""stimuli/BF06_HO.jpg"",""stimuli/WM13_HE.jpg"",""stimuli/HF09_AO.jpg"",""stimuli/WM11_DO.jpg""]","stimuli/BF06_HO.jpg","stimuli/WM13_HE.jpg","stimuli/HF09_AO.jpg","stimuli/WM11_DO.jpg","pos4","stimuli/WM11_DO.jpg","DO","WM11","3","2.5","5","6","stimuli/stars_5.png","83.5","[""HO"",""HE"",""AO"",""DO""]","[""BF06"",""WM13"",""HF09"",""WM11""]","[2,0,8,5]","[4,2,8,6]","","",""
"show-reward","50","169104","0.0-50.0","p461825","AM65LGXJBTJ0I","3087LXLJ6NMH85PJ46SJUKP4Z1V0FD","3WS1NTTKE0IKVPNDU8XKJ4KTICO0FV","emotion","match","uniform","","","","","","","","168954.30000007153","170962.5","","","","","","","","","","","","5","","stimuli/stars_5.png","83.5","","","","","stimuli/WM11_DO.jpg","",""
"explore-choice","51","173438","0.0-51.0","p461825","AM65LGXJBTJ0I","3087LXLJ6NMH85PJ46SJUKP4Z1V0FD","3WS1NTTKE0IKVPNDU8XKJ4KTICO0FV","emotion","match","uniform","","","","","","","3832.100000023842","170963.20000004768","174795.30000007153","[""stimuli/HF09_HE.jpg"",""stimuli/WM11_AO.jpg"",""stimuli/BF06_HO.jpg"",""stimuli/WM13_DO.jpg""]","stimuli/HF09_HE.jpg","stimuli/WM11_AO.jpg","stimuli/BF06_HO.jpg","stimuli/WM13_DO.jpg","pos2","stimuli/WM11_AO.jpg","AO","WM11","1","3","6","8","stimuli/stars_6.png","86.5","[""HE"",""AO"",""HO"",""DO""]","[""HF09"",""WM11"",""BF06"",""WM13""]","[2,6,6,7]","[2,8,4,6]","","",""
"show-reward","52","175445","0.0-52.0","p461825","AM65LGXJBTJ0I","3087LXLJ6NMH85PJ46SJUKP4Z1V0FD","3WS1NTTKE0IKVPNDU8XKJ4KTICO0FV","emotion","match","uniform","","","","","","","","175297.20000004768","177303.5","","","","","","","","","","","","6","","stimuli/stars_6.png","86.5","","","","","stimuli/WM11_AO.jpg","",""
"explore-choice","53","178399","0.0-53.0","p461825","AM65LGXJBTJ0I","3087LXLJ6NMH85PJ46SJUKP4Z1V0FD","3WS1NTTKE0IKVPNDU8XKJ4KTICO0FV","emotion","match","uniform","","","","","","","2453.100000023842","177304","179757.10000002384","[""stimuli/HF09_HO.jpg"",""stimuli/WM11_HE.jpg"",""stimuli/WM13_DO.jpg"",""stimuli/BF06_AO.jpg""]","stimuli/HF09_HO.jpg","stimuli/WM11_HE.jpg","stimuli/WM13_DO.jpg","stimuli/BF06_AO.jpg","pos4","stimuli/BF06_AO.jpg","AO","BF06","3","3.5","7","8","stimuli/stars_7.png","90","[""HO"",""HE"",""DO"",""AO""]","[""HF09"",""WM11"",""WM13"",""BF06""]","[3,2,6,7]","[4,2,6,8]","","",""
"show-reward","54","180415","0.0-54.0","p461825","AM65LGXJBTJ0I","3087LXLJ6NMH85PJ46SJUKP4Z1V0FD","3WS1NTTKE0IKVPNDU8XKJ4KTICO0FV","emotion","match","uniform","","","","","","","","180257.60000002384","182273.70000004768","","","","","","","","","","","","7","","stimuli/stars_7.png","90","","","","","stimuli/BF06_AO.jpg","",""
"explore-choice","55","182913","0.0-55.0","p461825","AM65LGXJBTJ0I","3087LXLJ6NMH85PJ46SJUKP4Z1V0FD","3WS1NTTKE0IKVPNDU8XKJ4KTICO0FV","emotion","match","uniform","","","","","","","1995.7999999523163","182274.30000007153","184270.10000002384","[""stimuli/WM11_HO.jpg"",""stimuli/HF09_DO.jpg"",""stimuli/BF06_AO.jpg"",""stimuli/WM13_HE.jpg""]","stimuli/WM11_HO.jpg","stimuli/HF09_DO.jpg","stimuli/BF06_AO.jpg","stimuli/WM13_HE.jpg","pos3","stimuli/BF06_AO.jpg","AO","BF06","2","5","10","8","stimuli/stars_10.png","95","[""HO"",""DO"",""AO"",""HE""]","[""WM11"",""HF09"",""BF06"",""WM13""]","[2,8,10,4]","[4,6,8,2]","","",""
"show-reward","56","184920","0.0-56.0","p461825","AM65LGXJBTJ0I","3087LXLJ6NMH85PJ46SJUKP4Z1V0FD","3WS1NTTKE0IKVPNDU8XKJ4KTICO0FV","emotion","match","uniform","","","","","","","","184771.70000004768","186778.70000004768","","","","","","","","","","","","10","","stimuli/stars_10.png","95","","","","","stimuli/BF06_AO.jpg","",""
"explore-choice","57","193986","0.0-57.0","p461825","AM65LGXJBTJ0I","3087LXLJ6NMH85PJ46SJUKP4Z1V0FD","3WS1NTTKE0IKVPNDU8XKJ4KTICO0FV","emotion","match","uniform","","","","","","","8563.800000071526","186779.60000002384","195343.40000009537","[""stimuli/WM11_HE.jpg"",""stimuli/BF06_DO.jpg"",""stimuli/HF09_AO.jpg"",""stimuli/WM13_HO.jpg""]","stimuli/WM11_HE.jpg","stimuli/BF06_DO.jpg","stimuli/HF09_AO.jpg","stimuli/WM13_HO.jpg","pos2","stimuli/BF06_DO.jpg","DO","BF06","1","3","6","6","stimuli/stars_6.png","98","[""HE"",""DO"",""AO"",""HO""]","[""WM11"",""BF06"",""HF09"",""WM13""]","[3,6,10,4]","[2,6,8,4]","","",""
"show-reward","58","195989","0.0-58.0","p461825","AM65LGXJBTJ0I","3087LXLJ6NMH85PJ46SJUKP4Z1V0FD","3WS1NTTKE0IKVPNDU8XKJ4KTICO0FV","emotion","match","uniform","","","","","","","","195845.60000002384","197847.90000009537","","","","","","","","","","","","6","","stimuli/stars_6.png","98","","","","","stimuli/BF06_DO.jpg","",""
"explore-choice","59","200399","0.0-59.0","p461825","AM65LGXJBTJ0I","3087LXLJ6NMH85PJ46SJUKP4Z1V0FD","3WS1NTTKE0IKVPNDU8XKJ4KTICO0FV","emotion","match","uniform","","","","","","","3907.600000023842","197848.70000004768","201756.30000007153","[""stimuli/BF06_AO.jpg"",""stimuli/WM11_HE.jpg"",""stimuli/HF09_HO.jpg"",""stimuli/WM13_DO.jpg""]","stimuli/BF06_AO.jpg","stimuli/WM11_HE.jpg","stimuli/HF09_HO.jpg","stimuli/WM13_DO.jpg","pos1","stimuli/BF06_AO.jpg","AO","BF06","0","3.5","7","8","stimuli/stars_7.png","101.5","[""AO"",""HE"",""HO"",""DO""]","[""BF06"",""WM11"",""HF09"",""WM13""]","[7,2,3,6]","[8,2,4,6]","","",""
"show-reward","60","202409","0.0-60.0","p461825","AM65LGXJBTJ0I","3087LXLJ6NMH85PJ46SJUKP4Z1V0FD","3WS1NTTKE0IKVPNDU8XKJ4KTICO0FV","emotion","match","uniform","","","","","","","","202257.80000007153","204267.30000007153","","","","","","","","","","","","7","","stimuli/stars_7.png","101.5","","","","","stimuli/BF06_AO.jpg","",""
"explore-choice","61","205824","0.0-61.0","p461825","AM65LGXJBTJ0I","3087LXLJ6NMH85PJ46SJUKP4Z1V0FD","3WS1NTTKE0IKVPNDU8XKJ4KTICO0FV","emotion","match","uniform","","","","","","","2901.5","204267.80000007153","207169.30000007153","[""stimuli/WM11_HE.jpg"",""stimuli/WM13_DO.jpg"",""stimuli/HF09_AO.jpg"",""stimuli/BF06_HO.jpg""]","stimuli/WM11_HE.jpg","stimuli/WM13_DO.jpg","stimuli/HF09_AO.jpg","stimuli/BF06_HO.jpg","pos2","stimuli/WM13_DO.jpg","DO","WM13","1","3.5","7","6","stimuli/stars_7.png","105","[""HE"",""DO"",""AO"",""HO""]","[""WM11"",""WM13"",""HF09"",""BF06""]","[2,7,9,5]","[2,6,8,4]","","",""
"show-reward","62","207838","0.0-62.0","p461825","AM65LGXJBTJ0I","3087LXLJ6NMH85PJ46SJUKP4Z1V0FD","3WS1NTTKE0IKVPNDU8XKJ4KTICO0FV","emotion","match","uniform","","","","","","","","207682.80000007153","209697","","","","","","","","","","","","7","","stimuli/stars_7.png","105","","","","","stimuli/WM13_DO.jpg","",""
"explore-choice","63","211484","0.0-63.0","p461825","AM65LGXJBTJ0I","3087LXLJ6NMH85PJ46SJUKP4Z1V0FD","3WS1NTTKE0IKVPNDU8XKJ4KTICO0FV","emotion","match","uniform","","","","","","","3144.600000023842","209697.5","212842.10000002384","[""stimuli/WM13_DO.jpg"",""stimuli/WM11_AO.jpg"",""stimuli/HF09_HO.jpg"",""stimuli/BF06_HE.jpg""]","stimuli/WM13_DO.jpg","stimuli/WM11_AO.jpg","stimuli/HF09_HO.jpg","stimuli/BF06_HE.jpg","pos2","stimuli/WM11_AO.jpg","AO","WM11","1","5","10","8","stimuli/stars_10.png","110","[""DO"",""AO"",""HO"",""HE""]","[""WM13"",""WM11"",""HF09"",""BF06""]","[7,10,6,4]","[6,8,4,2]","","",""
"show-reward","64","213486","0.0-64.0","p461825","AM65LGXJBTJ0I","3087LXLJ6NMH85PJ46SJUKP4Z1V0FD","3WS1NTTKE0IKVPNDU8XKJ4KTICO0FV","emotion","match","uniform","","","","","","","","213342.70000004768","215344.60000002384","","","","","","","","","","","","10","","stimuli/stars_10.png","110","","","","","stimuli/WM11_AO.jpg","",""
"explore-choice","65","220378","0.0-65.0","p461825","AM65LGXJBTJ0I","3087LXLJ6NMH85PJ46SJUKP4Z1V0FD","3WS1NTTKE0IKVPNDU8XKJ4KTICO0FV","emotion","match","uniform","","","","","","","6389.799999952316","215345.20000004768","221735","[""stimuli/HF09_AO.jpg"",""stimuli/WM11_HO.jpg"",""stimuli/BF06_DO.jpg"",""stimuli/WM13_HE.jpg""]","stimuli/HF09_AO.jpg","stimuli/WM11_HO.jpg","stimuli/BF06_DO.jpg","stimuli/WM13_HE.jpg","pos1","stimuli/HF09_AO.jpg","AO","HF09","0","4","8","8","stimuli/stars_8.png","114","[""AO"",""HO"",""DO"",""HE""]","[""HF09"",""WM11"",""BF06"",""WM13""]","[8,2,4,4]","[8,4,6,2]","","",""
"show-reward","66","222391","0.0-66.0","p461825","AM65LGXJBTJ0I","3087LXLJ6NMH85PJ46SJUKP4Z1V0FD","3WS1NTTKE0IKVPNDU8XKJ4KTICO0FV","emotion","match","uniform","","","","","","","","222237.30000007153","224249.60000002384","","","","","","","","","","","","8","","stimuli/stars_8.png","114","","","","","stimuli/HF09_AO.jpg","",""
"explore-choice","67","226065","0.0-67.0","p461825","AM65LGXJBTJ0I","3087LXLJ6NMH85PJ46SJUKP4Z1V0FD","3WS1NTTKE0IKVPNDU8XKJ4KTICO0FV","emotion","match","uniform","","","","","","","3158.7999999523163","224250.30000007153","227409.10000002384","[""stimuli/WM13_AO.jpg"",""stimuli/WM11_HE.jpg"",""stimuli/BF06_DO.jpg"",""stimuli/HF09_HO.jpg""]","stimuli/WM13_AO.jpg","stimuli/WM11_HE.jpg","stimuli/BF06_DO.jpg","stimuli/HF09_HO.jpg","pos1","stimuli/WM13_AO.jpg","AO","WM13","0","3","6","8","stimuli/stars_6.png","117","[""AO"",""HE"",""DO"",""HO""]","[""WM13"",""WM11"",""BF06"",""HF09""]","[6,1,5,5]","[8,2,6,4]","","",""
"show-reward","68","228074","0.0-68.0","p461825","AM65LGXJBTJ0I","3087LXLJ6NMH85PJ46SJUKP4Z1V0FD","3WS1NTTKE0IKVPNDU8XKJ4KTICO0FV","emotion","match","uniform","","","","","","","","227923.90000009537","229932.80000007153","","","","","","","","","","","","6","","stimuli/stars_6.png","117","","","","","stimuli/WM13_AO.jpg","",""
"explore-choice","69","230508","0.0-69.0","p461825","AM65LGXJBTJ0I","3087LXLJ6NMH85PJ46SJUKP4Z1V0FD","3WS1NTTKE0IKVPNDU8XKJ4KTICO0FV","emotion","match","uniform","","","","","","","1918.7999999523163","229933.30000007153","231852.10000002384","[""stimuli/WM11_DO.jpg"",""stimuli/BF06_AO.jpg"",""stimuli/HF09_HE.jpg"",""stimuli/WM13_HO.jpg""]","stimuli/WM11_DO.jpg","stimuli/BF06_AO.jpg","stimuli/HF09_HE.jpg","stimuli/WM13_HO.jpg","pos2","stimuli/BF06_AO.jpg","AO","BF06","1","4","8","8","stimuli/stars_8.png","121","[""DO"",""AO"",""HE"",""HO""]","[""WM11"",""BF06"",""HF09"",""WM13""]","[6,8,1,3]","[6,8,2,4]","","",""
"show-reward","70","232524","0.0-70.0","p461825","AM65LGXJBTJ0I","3087LXLJ6NMH85PJ46SJUKP4Z1V0FD","3WS1NTTKE0IKVPNDU8XKJ4KTICO0FV","emotion","match","uniform","","","","","","","","232367.70000004768","234382.20000004768","","","","","","","","","","","","8","","stimuli/stars_8.png","121","","","","","stimuli/BF06_AO.jpg","",""
"explore-choice","71","235306","0.0-71.0","p461825","AM65LGXJBTJ0I","3087LXLJ6NMH85PJ46SJUKP4Z1V0FD","3WS1NTTKE0IKVPNDU8XKJ4KTICO0FV","emotion","match","uniform","","","","","","","2281.399999976158","234382.70000004768","236664.10000002384","[""stimuli/HF09_AO.jpg"",""stimuli/BF06_HE.jpg"",""stimuli/WM13_HO.jpg"",""stimuli/WM11_DO.jpg""]","stimuli/HF09_AO.jpg","stimuli/BF06_HE.jpg","stimuli/WM13_HO.jpg","stimuli/WM11_DO.jpg","pos4","stimuli/WM11_DO.jpg","DO","WM11","3","4","8","6","stimuli/stars_8.png","125","[""AO"",""HE"",""HO"",""DO""]","[""HF09"",""BF06"",""WM13"",""WM11""]","[9,2,2,8]","[8,2,4,6]","","",""
"show-reward","72","237312","0.0-72.0","p461825","AM65LGXJBTJ0I","3087LXLJ6NMH85PJ46SJUKP4Z1V0FD","3WS1NTTKE0IKVPNDU8XKJ4KTICO0FV","emotion","match","uniform","","","","","","","","237165.60000002384","239170.10000002384","","","","","","","","","","","","8","","stimuli/stars_8.png","125","","","","","stimuli/WM11_DO.jpg","",""
"explore-choice","73","240788","0.0-73.0","p461825","AM65LGXJBTJ0I","3087LXLJ6NMH85PJ46SJUKP4Z1V0FD","3WS1NTTKE0IKVPNDU8XKJ4KTICO0FV","emotion","match","uniform","","","","","","","2975.2999999523163","239170.70000004768","242146","[""stimuli/BF06_HO.jpg"",""stimuli/WM11_AO.jpg"",""stimuli/WM13_HE.jpg"",""stimuli/HF09_DO.jpg""]","stimuli/BF06_HO.jpg","stimuli/WM11_AO.jpg","stimuli/WM13_HE.jpg","stimuli/HF09_DO.jpg","pos2","stimuli/WM11_AO.jpg","AO","WM11","1","3.5","7","8","stimuli/stars_7.png","128.5","[""HO"",""AO"",""HE"",""DO""]","[""BF06"",""WM11"",""WM13"",""HF09""]","[4,7,4,7]","[4,8,2,6]","","",""
"show-reward","74","242802","0.0-74.0","p461825","AM65LGXJBTJ0I","3087LXLJ6NMH85PJ46SJUKP4Z1V0FD","3WS1NTTKE0IKVPNDU8XKJ4KTICO0FV","emotion","match","uniform","","","","","","","","242647.60000002384","244661.10000002384","","","","","","","","","","","","7","","stimuli/stars_7.png","128.5","","","","","stimuli/WM11_AO.jpg","",""
"explore-choice","75","245950","0.0-75.0","p461825","AM65LGXJBTJ0I","3087LXLJ6NMH85PJ46SJUKP4Z1V0FD","3WS1NTTKE0IKVPNDU8XKJ4KTICO0FV","emotion","match","uniform","","","","","","","2646.2999999523163","244661.80000007153","247308.10000002384","[""stimuli/HF09_AO.jpg"",""stimuli/BF06_HO.jpg"",""stimuli/WM11_DO.jpg"",""stimuli/WM13_HE.jpg""]","stimuli/HF09_AO.jpg","stimuli/BF06_HO.jpg","stimuli/WM11_DO.jpg","stimuli/WM13_HE.jpg","pos1","stimuli/HF09_AO.jpg","AO","HF09","0","4","8","8","stimuli/stars_8.png","132.5","[""AO"",""HO"",""DO"",""HE""]","[""HF09"",""BF06"",""WM11"",""WM13""]","[8,2,5,0]","[8,4,6,2]","","",""
"show-reward","76","247952","0.0-76.0","p461825","AM65LGXJBTJ0I","3087LXLJ6NMH85PJ46SJUKP4Z1V0FD","3WS1NTTKE0IKVPNDU8XKJ4KTICO0FV","emotion","match","uniform","","","","","","","","247809.30000007153","249810.90000009537","","","","","","","","","","","","8","","stimuli/stars_8.png","132.5","","","","","stimuli/HF09_AO.jpg","",""
"explore-choice","77","250385","0.0-77.0","p461825","AM65LGXJBTJ0I","3087LXLJ6NMH85PJ46SJUKP4Z1V0FD","3WS1NTTKE0IKVPNDU8XKJ4KTICO0FV","emotion","match","uniform","","","","","","","1919.7999999523163","249811.40000009537","251731.20000004768","[""stimuli/HF09_DO.jpg"",""stimuli/WM13_HO.jpg"",""stimuli/BF06_AO.jpg"",""stimuli/WM11_HE.jpg""]","stimuli/HF09_DO.jpg","stimuli/WM13_HO.jpg","stimuli/BF06_AO.jpg","stimuli/WM11_HE.jpg","pos3","stimuli/BF06_AO.jpg","AO","BF06","2","3","6","8","stimuli/stars_6.png","135.5","[""DO"",""HO"",""AO"",""HE""]","[""HF09"",""WM13"",""BF06"",""WM11""]","[5,6,6,3]","[6,4,8,2]","","",""
"show-reward","78","252400","0.0-78.0","p461825","AM65LGXJBTJ0I","3087LXLJ6NMH85PJ46SJUKP4Z1V0FD","3WS1NTTKE0IKVPNDU8XKJ4KTICO0FV","emotion","match","uniform","","","","","","","","252245.10000002384","254258.80000007153","","","","","","","","","","","","6","","stimuli/stars_6.png","135.5","","","","","stimuli/BF06_AO.jpg","",""
"explore-choice","79","255297","0.0-79.0","p461825","AM65LGXJBTJ0I","3087LXLJ6NMH85PJ46SJUKP4Z1V0FD","3WS1NTTKE0IKVPNDU8XKJ4KTICO0FV","emotion","match","uniform","","","","","","","2395.6999999284744","254259.40000009537","256655.10000002384","[""stimuli/WM13_DO.jpg"",""stimuli/HF09_HE.jpg"",""stimuli/BF06_AO.jpg"",""stimuli/WM11_HO.jpg""]","stimuli/WM13_DO.jpg","stimuli/HF09_HE.jpg","stimuli/BF06_AO.jpg","stimuli/WM11_HO.jpg","pos3","stimuli/BF06_AO.jpg","AO","BF06","2","4","8","8","stimuli/stars_8.png","139.5","[""DO"",""HE"",""AO"",""HO""]","[""WM13"",""HF09"",""BF06"",""WM11""]","[8,1,8,4]","[6,2,8,4]","","",""
"show-reward","80","257302","0.0-80.0","p461825","AM65LGXJBTJ0I","3087LXLJ6NMH85PJ46SJUKP4Z1V0FD","3WS1NTTKE0IKVPNDU8XKJ4KTICO0FV","emotion","match","uniform","","","","","","","","257156.40000009537","259161.30000007153","","","","","","","","","","","","8","","stimuli/stars_8.png","139.5","","","","","stimuli/BF06_AO.jpg","",""
"explore-choice","81","260242","0.0-81.0","p461825","AM65LGXJBTJ0I","3087LXLJ6NMH85PJ46SJUKP4Z1V0FD","3WS1NTTKE0IKVPNDU8XKJ4KTICO0FV","emotion","match","uniform","","","","","","","2425.2999999523163","259161.80000007153","261587.10000002384","[""stimuli/WM13_DO.jpg"",""stimuli/HF09_HE.jpg"",""stimuli/WM11_AO.jpg"",""stimuli/BF06_HO.jpg""]","stimuli/WM13_DO.jpg","stimuli/HF09_HE.jpg","stimuli/WM11_AO.jpg","stimuli/BF06_HO.jpg","pos3","stimuli/WM11_AO.jpg","AO","WM11","2","3","6","8","stimuli/stars_6.png","142.5","[""DO"",""HE"",""AO"",""HO""]","[""WM13"",""HF09"",""WM11"",""BF06""]","[7,2,6,6]","[6,2,8,4]","","",""
"show-reward","82","262258","0.0-82.0","p461825","AM65LGXJBTJ0I","3087LXLJ6NMH85PJ46SJUKP4Z1V0FD","3WS1NTTKE0IKVPNDU8XKJ4KTICO0FV","emotion","match","uniform","","","","","","","","262101.60000002384","264117.60000002384","","","","","","","","","","","","6","","stimuli/stars_6.png","142.5","","","","","stimuli/WM11_AO.jpg","",""
"explore-choice","83","266593","0.0-83.0","p461825","AM65LGXJBTJ0I","3087LXLJ6NMH85PJ46SJUKP4Z1V0FD","3WS1NTTKE0IKVPNDU8XKJ4KTICO0FV","emotion","match","uniform","","","","","","","3832","264118","267950","[""stimuli/WM11_HO.jpg"",""stimuli/WM13_DO.jpg"",""stimuli/BF06_HE.jpg"",""stimuli/HF09_AO.jpg""]","stimuli/WM11_HO.jpg","stimuli/WM13_DO.jpg","stimuli/BF06_HE.jpg","stimuli/HF09_AO.jpg","pos4","stimuli/HF09_AO.jpg","AO","HF09","3","4.5","9","8","stimuli/stars_9.png","147","[""HO"",""DO"",""HE"",""AO""]","[""WM11"",""WM13"",""BF06"",""HF09""]","[5,7,1,9]","[4,6,2,8]","","",""
"show-reward","84","268607","0.0-84.0","p461825","AM65LGXJBTJ0I","3087LXLJ6NMH85PJ46SJUKP4Z1V0FD","3WS1NTTKE0IKVPNDU8XKJ4KTICO0FV","emotion","match","uniform","","","","","","","","268452.2000000477","270466.2000000477","","","","","","","","","","","","9","","stimuli/stars_9.png","147","","","","","stimuli/HF09_AO.jpg","",""
"explore-choice","85","270878","0.0-85.0","p461825","AM65LGXJBTJ0I","3087LXLJ6NMH85PJ46SJUKP4Z1V0FD","3WS1NTTKE0IKVPNDU8XKJ4KTICO0FV","emotion","match","uniform","","","","","","","1767.2999999523163","270466.90000009537","272234.2000000477","[""stimuli/WM13_HO.jpg"",""stimuli/HF09_DO.jpg"",""stimuli/BF06_HE.jpg"",""stimuli/WM11_AO.jpg""]","stimuli/WM13_HO.jpg","stimuli/HF09_DO.jpg","stimuli/BF06_HE.jpg","stimuli/WM11_AO.jpg","pos4","stimuli/WM11_AO.jpg","AO","WM11","3","5","10","8","stimuli/stars_10.png","152","[""HO"",""DO"",""HE"",""AO""]","[""WM13"",""HF09"",""BF06"",""WM11""]","[5,7,2,10]","[4,6,2,8]","","",""
"show-reward","86","272893","0.0-86.0","p461825","AM65LGXJBTJ0I","3087LXLJ6NMH85PJ46SJUKP4Z1V0FD","3WS1NTTKE0IKVPNDU8XKJ4KTICO0FV","emotion","match","uniform","","","","","","","","272737","274751.60000002384","","","","","","","","","","","","10","","stimuli/stars_10.png","152","","","","","stimuli/WM11_AO.jpg","",""
"explore-choice","87","275439","0.0-87.0","p461825","AM65LGXJBTJ0I","3087LXLJ6NMH85PJ46SJUKP4Z1V0FD","3WS1NTTKE0IKVPNDU8XKJ4KTICO0FV","emotion","match","uniform","","","","","","","2044","274752.2000000477","276796.2000000477","[""stimuli/HF09_HE.jpg"",""stimuli/WM13_HO.jpg"",""stimuli/WM11_AO.jpg"",""stimuli/BF06_DO.jpg""]","stimuli/HF09_HE.jpg","stimuli/WM13_HO.jpg","stimuli/WM11_AO.jpg","stimuli/BF06_DO.jpg","pos3","stimuli/WM11_AO.jpg","AO","WM11","2","3","6","8","stimuli/stars_6.png","155","[""HE"",""HO"",""AO"",""DO""]","[""HF09"",""WM13"",""WM11"",""BF06""]","[1,2,6,5]","[2,4,8,6]","","",""
"show-reward","88","277452","0.0-88.0","p461825","AM65LGXJBTJ0I","3087LXLJ6NMH85PJ46SJUKP4Z1V0FD","3WS1NTTKE0IKVPNDU8XKJ4KTICO0FV","emotion","match","uniform","","","","","","","","277298.2000000477","279310.8000000715","","","","","","","","","","","","6","","stimuli/stars_6.png","155","","","","","stimuli/WM11_AO.jpg","",""
"explore-choice","89","280681","0.0-89.0","p461825","AM65LGXJBTJ0I","3087LXLJ6NMH85PJ46SJUKP4Z1V0FD","3WS1NTTKE0IKVPNDU8XKJ4KTICO0FV","emotion","match","uniform","","","","","","","2727.8000000715256","279311.60000002384","282039.40000009537","[""stimuli/WM11_DO.jpg"",""stimuli/BF06_HE.jpg"",""stimuli/WM13_AO.jpg"",""stimuli/HF09_HO.jpg""]","stimuli/WM11_DO.jpg","stimuli/BF06_HE.jpg","stimuli/WM13_AO.jpg","stimuli/HF09_HO.jpg","pos1","stimuli/WM11_DO.jpg","DO","WM11","0","3.5","7","6","stimuli/stars_7.png","158.5","[""DO"",""HE"",""AO"",""HO""]","[""WM11"",""BF06"",""WM13"",""HF09""]","[7,3,10,4]","[6,2,8,4]","","",""
"show-reward","90","282697","0.0-90.0","p461825","AM65LGXJBTJ0I","3087LXLJ6NMH85PJ46SJUKP4Z1V0FD","3WS1NTTKE0IKVPNDU8XKJ4KTICO0FV","emotion","match","uniform","","","","","","","","282540.2000000477","284555.7000000477","","","","","","","","","","","","7","","stimuli/stars_7.png","158.5","","","","","stimuli/WM11_DO.jpg","",""
"explore-choice","91","285203","0.0-91.0","p461825","AM65LGXJBTJ0I","3087LXLJ6NMH85PJ46SJUKP4Z1V0FD","3WS1NTTKE0IKVPNDU8XKJ4KTICO0FV","emotion","match","uniform","","","","","","","2005","284556.3000000715","286561.3000000715","[""stimuli/WM13_AO.jpg"",""stimuli/WM11_DO.jpg"",""stimuli/BF06_HO.jpg"",""stimuli/HF09_HE.jpg""]","stimuli/WM13_AO.jpg","stimuli/WM11_DO.jpg","stimuli/BF06_HO.jpg","stimuli/HF09_HE.jpg","pos2","stimuli/WM11_DO.jpg","DO","WM11","1","2","4","6","stimuli/stars_4.png","160.5","[""AO"",""DO"",""HO"",""HE""]","[""WM13"",""WM11"",""BF06"",""HF09""]","[9,4,5,2]","[8,6,4,2]","","",""
"show-reward","92","287207","0.0-92.0","p461825","AM65LGXJBTJ0I","3087LXLJ6NMH85PJ46SJUKP4Z1V0FD","3WS1NTTKE0IKVPNDU8XKJ4KTICO0FV","emotion","match","uniform","","","","","","","","287062.10000002384","289065.7000000477","","","","","","","","","","","","4","","stimuli/stars_4.png","160.5","","","","","stimuli/WM11_DO.jpg","",""
"explore-choice","93","289758","0.0-93.0","p461825","AM65LGXJBTJ0I","3087LXLJ6NMH85PJ46SJUKP4Z1V0FD","3WS1NTTKE0IKVPNDU8XKJ4KTICO0FV","emotion","match","uniform","","","","","","","2038.8999999761581","289066.3000000715","291105.2000000477","[""stimuli/BF06_AO.jpg"",""stimuli/WM13_HE.jpg"",""stimuli/HF09_HO.jpg"",""stimuli/WM11_DO.jpg""]","stimuli/BF06_AO.jpg","stimuli/WM13_HE.jpg","stimuli/HF09_HO.jpg","stimuli/WM11_DO.jpg","pos1","stimuli/BF06_AO.jpg","AO","BF06","0","3.5","7","8","stimuli/stars_7.png","164","[""AO"",""HE"",""HO"",""DO""]","[""BF06"",""WM13"",""HF09"",""WM11""]","[7,0,5,6]","[8,2,4,6]","","",""
"show-reward","94","291773","0.0-94.0","p461825","AM65LGXJBTJ0I","3087LXLJ6NMH85PJ46SJUKP4Z1V0FD","3WS1NTTKE0IKVPNDU8XKJ4KTICO0FV","emotion","match","uniform","","","","","","","","291617.7000000477","293631.60000002384","","","","","","","","","","","","7","","stimuli/stars_7.png","164","","","","","stimuli/BF06_AO.jpg","",""
"explore-choice","95","294040","0.0-95.0","p461825","AM65LGXJBTJ0I","3087LXLJ6NMH85PJ46SJUKP4Z1V0FD","3WS1NTTKE0IKVPNDU8XKJ4KTICO0FV","emotion","match","uniform","","","","","","","1765.8999999761581","293632.10000002384","295398","[""stimuli/WM11_HO.jpg"",""stimuli/BF06_HE.jpg"",""stimuli/WM13_AO.jpg"",""stimuli/HF09_DO.jpg""]","stimuli/WM11_HO.jpg","stimuli/BF06_HE.jpg","stimuli/WM13_AO.jpg","stimuli/HF09_DO.jpg","pos3","stimuli/WM13_AO.jpg","AO","WM13","2","4","8","8","stimuli/stars_8.png","168","[""HO"",""HE"",""AO"",""DO""]","[""WM11"",""BF06"",""WM13"",""HF09""]","[2,3,8,7]","[4,2,8,6]","","",""
"show-reward","96","296046","0.0-96.0","p461825","AM65LGXJBTJ0I","3087LXLJ6NMH85PJ46SJUKP4Z1V0FD","3WS1NTTKE0IKVPNDU8XKJ4KTICO0FV","emotion","match","uniform","","","","","","","","295899.7000000477","297904.90000009537","","","","","","","","","","","","8","","stimuli/stars_8.png","168","","","","","stimuli/WM13_AO.jpg","",""
"explore-choice","97","299643","0.0-97.0","p461825","AM65LGXJBTJ0I","3087LXLJ6NMH85PJ46SJUKP4Z1V0FD","3WS1NTTKE0IKVPNDU8XKJ4KTICO0FV","emotion","match","uniform","","","","","","","3095.6999999284744","297905.3000000715","301001","[""stimuli/WM13_AO.jpg"",""stimuli/WM11_HO.jpg"",""stimuli/BF06_DO.jpg"",""stimuli/HF09_HE.jpg""]","stimuli/WM13_AO.jpg","stimuli/WM11_HO.jpg","stimuli/BF06_DO.jpg","stimuli/HF09_HE.jpg","pos1","stimuli/WM13_AO.jpg","AO","WM13","0","3","6","8","stimuli/stars_6.png","171","[""AO"",""HO"",""DO"",""HE""]","[""WM13"",""WM11"",""BF06"",""HF09""]","[6,6,8,3]","[8,4,6,2]","","",""
"show-reward","98","301654","0.0-98.0","p461825","AM65LGXJBTJ0I","3087LXLJ6NMH85PJ46SJUKP4Z1V0FD","3WS1NTTKE0IKVPNDU8XKJ4KTICO0FV","emotion","match","uniform","","","","","","","","301503","303513","","","","","","","","","","","","6","","stimuli/stars_6.png","171","","","","","stimuli/WM13_AO.jpg","",""
"explore-choice","99","305716","0.0-99.0","p461825","AM65LGXJBTJ0I","3087LXLJ6NMH85PJ46SJUKP4Z1V0FD","3WS1NTTKE0IKVPNDU8XKJ4KTICO0FV","emotion","match","uniform","","","","","","","3560.600000023842","303513.60000002384","307074.2000000477","[""stimuli/WM11_AO.jpg"",""stimuli/BF06_DO.jpg"",""stimuli/WM13_HE.jpg"",""stimuli/HF09_HO.jpg""]","stimuli/WM11_AO.jpg","stimuli/BF06_DO.jpg","stimuli/WM13_HE.jpg","stimuli/HF09_HO.jpg","pos1","stimuli/WM11_AO.jpg","AO","WM11","0","5","10","8","stimuli/stars_10.png","176","[""AO"",""DO"",""HE"",""HO""]","[""WM11"",""BF06"",""WM13"",""HF09""]","[10,8,4,6]","[8,6,2,4]","","",""
"show-reward","100","307719","0.0-100.0","p461825","AM65LGXJBTJ0I","3087LXLJ6NMH85PJ46SJUKP4Z1V0FD","3WS1NTTKE0IKVPNDU8XKJ4KTICO0FV","emotion","match","uniform","","","","","","","","307575.10000002384","309577.60000002384","","","","","","","","","","","","10","","stimuli/stars_10.png","176","","","","","stimuli/WM11_AO.jpg","",""
"explore-choice","101","310869","0.0-101.0","p461825","AM65LGXJBTJ0I","3087LXLJ6NMH85PJ46SJUKP4Z1V0FD","3WS1NTTKE0IKVPNDU8XKJ4KTICO0FV","emotion","match","uniform","","","","","","","2649.2000000476837","309578.10000002384","312227.3000000715","[""stimuli/WM13_AO.jpg"",""stimuli/WM11_HE.jpg"",""stimuli/BF06_HO.jpg"",""stimuli/HF09_DO.jpg""]","stimuli/WM13_AO.jpg","stimuli/WM11_HE.jpg","stimuli/BF06_HO.jpg","stimuli/HF09_DO.jpg","pos1","stimuli/WM13_AO.jpg","AO","WM13","0","4","8","8","stimuli/stars_8.png","180","[""AO"",""HE"",""HO"",""DO""]","[""WM13"",""WM11"",""BF06"",""HF09""]","[8,1,2,8]","[8,2,4,6]","","",""
"show-reward","102","312876","0.0-102.0","p461825","AM65LGXJBTJ0I","3087LXLJ6NMH85PJ46SJUKP4Z1V0FD","3WS1NTTKE0IKVPNDU8XKJ4KTICO0FV","emotion","match","uniform","","","","","","","","312728.60000002384","314735","","","","","","","","","","","","8","","stimuli/stars_8.png","180","","","","","stimuli/WM13_AO.jpg","",""
"explore-choice","103","315922","0.0-103.0","p461825","AM65LGXJBTJ0I","3087LXLJ6NMH85PJ46SJUKP4Z1V0FD","3WS1NTTKE0IKVPNDU8XKJ4KTICO0FV","emotion","match","uniform","","","","","","","2543.5","314735.60000002384","317279.10000002384","[""stimuli/WF11_FO.jpg"",""stimuli/HM10_SC.jpg"",""stimuli/AF09_CC.jpg"",""stimuli/AM06_SUR.jpg""]","stimuli/WF11_FO.jpg","stimuli/HM10_SC.jpg","stimuli/AF09_CC.jpg","stimuli/AM06_SUR.jpg","pos1","stimuli/WF11_FO.jpg","FO","WF11","0","1.5","3","4","stimuli/stars_3.png","181.5","[""FO"",""SC"",""CC"",""SUR""]","[""WF11"",""HM10"",""AF09"",""AM06""]","[3,10,4,6]","[4,8,2,6]","","",""
"show-reward","104","317924","0.0-104.0","p461825","AM65LGXJBTJ0I","3087LXLJ6NMH85PJ46SJUKP4Z1V0FD","3WS1NTTKE0IKVPNDU8XKJ4KTICO0FV","emotion","match","uniform","","","","","","","","317781.10000002384","319782.60000002384","","","","","","","","","","","","3","","stimuli/stars_3.png","181.5","","","","","stimuli/WF11_FO.jpg","",""
"explore-choice","105","324335","0.0-105.0","p461825","AM65LGXJBTJ0I","3087LXLJ6NMH85PJ46SJUKP4Z1V0FD","3WS1NTTKE0IKVPNDU8XKJ4KTICO0FV","emotion","match","uniform","","","","","","","5908.599999904633","319783.40000009537","325692","[""stimuli/WF11_SC.jpg"",""stimuli/AM06_FO.jpg"",""stimuli/AF09_CC.jpg"",""stimuli/HM10_SUR.jpg""]","stimuli/WF11_SC.jpg","stimuli/AM06_FO.jpg","stimuli/AF09_CC.jpg","stimuli/HM10_SUR.jpg","pos4","stimuli/HM10_SUR.jpg","SUR","HM10","3","4","8","6","stimuli/stars_8.png","185.5","[""SC"",""FO"",""CC"",""SUR""]","[""WF11"",""AM06"",""AF09"",""HM10""]","[9,2,4,8]","[8,4,2,6]","","",""
"show-reward","106","326338","0.0-106.0","p461825","AM65LGXJBTJ0I","3087LXLJ6NMH85PJ46SJUKP4Z1V0FD","3WS1NTTKE0IKVPNDU8XKJ4KTICO0FV","emotion","match","uniform","","","","","","","","326194.10000002384","328196.40000009537","","","","","","","","","","","","8","","stimuli/stars_8.png","185.5","","","","","stimuli/HM10_SUR.jpg","",""
"explore-choice","107","329187","0.0-107.0","p461825","AM65LGXJBTJ0I","3087LXLJ6NMH85PJ46SJUKP4Z1V0FD","3WS1NTTKE0IKVPNDU8XKJ4KTICO0FV","emotion","match","uniform","","","","","","","2348","328197","330545","[""stimuli/HM10_SC.jpg"",""stimuli/WF11_SUR.jpg"",""stimuli/AM06_CC.jpg"",""stimuli/AF09_FO.jpg""]","stimuli/HM10_SC.jpg","stimuli/WF11_SUR.jpg","stimuli/AM06_CC.jpg","stimuli/AF09_FO.jpg","pos4","stimuli/AF09_FO.jpg","FO","AF09","3","1.5","3","4","stimuli/stars_3.png","187","[""SC"",""SUR"",""CC"",""FO""]","[""HM10"",""WF11"",""AM06"",""AF09""]","[10,6,1,3]","[8,6,2,4]","","",""
"show-reward","108","331196","0.0-108.0","p461825","AM65LGXJBTJ0I","3087LXLJ6NMH85PJ46SJUKP4Z1V0FD","3WS1NTTKE0IKVPNDU8XKJ4KTICO0FV","emotion","match","uniform","","","","","","","","331046.2000000477","333054.7000000477","","","","","","","","","","","","3","","stimuli/stars_3.png","187","","","","","stimuli/AF09_FO.jpg","",""
"explore-choice","109","333450","0.0-109.0","p461825","AM65LGXJBTJ0I","3087LXLJ6NMH85PJ46SJUKP4Z1V0FD","3WS1NTTKE0IKVPNDU8XKJ4KTICO0FV","emotion","match","uniform","","","","","","","1752.8000000715256","333055.10000002384","334807.90000009537","[""stimuli/AM06_FO.jpg"",""stimuli/AF09_SUR.jpg"",""stimuli/HM10_CC.jpg"",""stimuli/WF11_SC.jpg""]","stimuli/AM06_FO.jpg","stimuli/AF09_SUR.jpg","stimuli/HM10_CC.jpg","stimuli/WF11_SC.jpg","pos2","stimuli/AF09_SUR.jpg","SUR","AF09","1","2.5","5","6","stimuli/stars_5.png","189.5","[""FO"",""SUR"",""CC"",""SC""]","[""AM06"",""AF09"",""HM10"",""WF11""]","[6,5,0,6]","[4,6,2,8]","","",""
"show-reward","110","335467","0.0-110.0","p461825","AM65LGXJBTJ0I","3087LXLJ6NMH85PJ46SJUKP4Z1V0FD","3WS1NTTKE0IKVPNDU8XKJ4KTICO0FV","emotion","match","uniform","","","","","","","","335309.10000002384","337325.5","","","","","","","","","","","","5","","stimuli/stars_5.png","189.5","","","","","stimuli/AF09_SUR.jpg","",""
"explore-choice","111","338703","0.0-111.0","p461825","AM65LGXJBTJ0I","3087LXLJ6NMH85PJ46SJUKP4Z1V0FD","3WS1NTTKE0IKVPNDU8XKJ4KTICO0FV","emotion","match","uniform","","","","","","","2735.2000000476837","337326","340061.2000000477","[""stimuli/AM06_FO.jpg"",""stimuli/HM10_SC.jpg"",""stimuli/WF11_SUR.jpg"",""stimuli/AF09_CC.jpg""]","stimuli/AM06_FO.jpg","stimuli/HM10_SC.jpg","stimuli/WF11_SUR.jpg","stimuli/AF09_CC.jpg","pos1","stimuli/AM06_FO.jpg","FO","AM06","0","1","2","4","stimuli/stars_2.png","190.5","[""FO"",""SC"",""SUR"",""CC""]","[""AM06"",""HM10"",""WF11"",""AF09""]","[2,6,5,3]","[4,8,6,2]","","",""
"show-reward","112","340716","0.0-112.0","p461825","AM65LGXJBTJ0I","3087LXLJ6NMH85PJ46SJUKP4Z1V0FD","3WS1NTTKE0IKVPNDU8XKJ4KTICO0FV","emotion","match","uniform","","","","","","","","340561.90000009537","342574.8000000715","","","","","","","","","","","","2","","stimuli/stars_2.png","190.5","","","","","stimuli/AM06_FO.jpg","",""
"explore-choice","113","343416","0.0-113.0","p461825","AM65LGXJBTJ0I","3087LXLJ6NMH85PJ46SJUKP4Z1V0FD","3WS1NTTKE0IKVPNDU8XKJ4KTICO0FV","emotion","match","uniform","","","","","","","2198.899999976158","342575.3000000715","344774.2000000477","[""stimuli/AF09_CC.jpg"",""stimuli/HM10_SUR.jpg"",""stimuli/WF11_FO.jpg"",""stimuli/AM06_SC.jpg""]","stimuli/AF09_CC.jpg","stimuli/HM10_SUR.jpg","stimuli/WF11_FO.jpg","stimuli/AM06_SC.jpg","pos4","stimuli/AM06_SC.jpg","SC","AM06","3","3","6","8","stimuli/stars_6.png","193.5","[""CC"",""SUR"",""FO"",""SC""]","[""AF09"",""HM10"",""WF11"",""AM06""]","[3,6,5,6]","[2,6,4,8]","","",""
"show-reward","114","345429","0.0-114.0","p461825","AM65LGXJBTJ0I","3087LXLJ6NMH85PJ46SJUKP4Z1V0FD","3WS1NTTKE0IKVPNDU8XKJ4KTICO0FV","emotion","match","uniform","","","","","","","","345275.60000002384","347287.8000000715","","","","","","","","","","","","6","","stimuli/stars_6.png","193.5","","","","","stimuli/AM06_SC.jpg","",""
"explore-choice","115","347380","0.0-115.0","p461825","AM65LGXJBTJ0I","3087LXLJ6NMH85PJ46SJUKP4Z1V0FD","3WS1NTTKE0IKVPNDU8XKJ4KTICO0FV","emotion","match","uniform","","","","","","","1448.6999999284744","347288.3000000715","348737","[""stimuli/AF09_FO.jpg"",""stimuli/AM06_SUR.jpg"",""stimuli/WF11_CC.jpg"",""stimuli/HM10_SC.jpg""]","stimuli/AF09_FO.jpg","stimuli/AM06_SUR.jpg","stimuli/WF11_CC.jpg","stimuli/HM10_SC.jpg","pos3","stimuli/WF11_CC.jpg","CC","WF11","2","2","4","2","stimuli/stars_4.png","195.5","[""FO"",""SUR"",""CC"",""SC""]","[""AF09"",""AM06"",""WF11"",""HM10""]","[4,5,4,7]","[4,6,2,8]","","",""
"show-reward","116","349394","0.0-116.0","p461825","AM65LGXJBTJ0I","3087LXLJ6NMH85PJ46SJUKP4Z1V0FD","3WS1NTTKE0IKVPNDU8XKJ4KTICO0FV","emotion","match","uniform","","","","","","","","349238.7000000477","351253.10000002384","","","","","","","","","","","","4","","stimuli/stars_4.png","195.5","","","","","stimuli/WF11_CC.jpg","",""
"explore-choice","117","352097","0.0-117.0","p461825","AM65LGXJBTJ0I","3087LXLJ6NMH85PJ46SJUKP4Z1V0FD","3WS1NTTKE0IKVPNDU8XKJ4KTICO0FV","emotion","match","uniform","","","","","","","2195.5","351253.60000002384","353449.10000002384","[""stimuli/AM06_CC.jpg"",""stimuli/AF09_SUR.jpg"",""stimuli/WF11_SC.jpg"",""stimuli/HM10_FO.jpg""]","stimuli/AM06_CC.jpg","stimuli/AF09_SUR.jpg","stimuli/WF11_SC.jpg","stimuli/HM10_FO.jpg","pos1","stimuli/AM06_CC.jpg","CC","AM06","0","0.5","1","2","stimuli/stars_1.png","196","[""CC"",""SUR"",""SC"",""FO""]","[""AM06"",""AF09"",""WF11"",""HM10""]","[1,7,8,5]","[2,6,8,4]","","",""
"show-reward","118","354110","0.0-118.0","p461825","AM65LGXJBTJ0I","3087LXLJ6NMH85PJ46SJUKP4Z1V0FD","3WS1NTTKE0IKVPNDU8XKJ4KTICO0FV","emotion","match","uniform","","","","","","","","353956.60000002384","355968.3000000715","","","","","","","","","","","","1","","stimuli/stars_1.png","196","","","","","stimuli/AM06_CC.jpg","",""
"explore-choice","119","356756","0.0-119.0","p461825","AM65LGXJBTJ0I","3087LXLJ6NMH85PJ46SJUKP4Z1V0FD","3WS1NTTKE0IKVPNDU8XKJ4KTICO0FV","emotion","match","uniform","","","","","","","2145.399999976158","355968.8000000715","358114.2000000477","[""stimuli/HM10_CC.jpg"",""stimuli/AF09_SC.jpg"",""stimuli/WF11_FO.jpg"",""stimuli/AM06_SUR.jpg""]","stimuli/HM10_CC.jpg","stimuli/AF09_SC.jpg","stimuli/WF11_FO.jpg","stimuli/AM06_SUR.jpg","pos2","stimuli/AF09_SC.jpg","SC","AF09","1","3.5","7","8","stimuli/stars_7.png","199.5","[""CC"",""SC"",""FO"",""SUR""]","[""HM10"",""AF09"",""WF11"",""AM06""]","[3,7,3,7]","[2,8,4,6]","","",""
"show-reward","120","358770","0.0-120.0","p461825","AM65LGXJBTJ0I","3087LXLJ6NMH85PJ46SJUKP4Z1V0FD","3WS1NTTKE0IKVPNDU8XKJ4KTICO0FV","emotion","match","uniform","","","","","","","","358615.40000009537","360628.60000002384","","","","","","","","","","","","7","","stimuli/stars_7.png","199.5","","","","","stimuli/AF09_SC.jpg","",""
"explore-choice","121","361579","0.0-121.0","p461825","AM65LGXJBTJ0I","3087LXLJ6NMH85PJ46SJUKP4Z1V0FD","3WS1NTTKE0IKVPNDU8XKJ4KTICO0FV","emotion","match","uniform","","","","","","","2307","360629.2000000477","362936.2000000477","[""stimuli/AM06_SUR.jpg"",""stimuli/WF11_CC.jpg"",""stimuli/AF09_SC.jpg"",""stimuli/HM10_FO.jpg""]","stimuli/AM06_SUR.jpg","stimuli/WF11_CC.jpg","stimuli/AF09_SC.jpg","stimuli/HM10_FO.jpg","pos3","stimuli/AF09_SC.jpg","SC","AF09","2","4.5","9","8","stimuli/stars_9.png","204","[""SUR"",""CC"",""SC"",""FO""]","[""AM06"",""WF11"",""AF09"",""HM10""]","[8,4,9,5]","[6,2,8,4]","","",""
"show-reward","122","363594","0.0-122.0","p461825","AM65LGXJBTJ0I","3087LXLJ6NMH85PJ46SJUKP4Z1V0FD","3WS1NTTKE0IKVPNDU8XKJ4KTICO0FV","emotion","match","uniform","","","","","","","","363438","365453","","","","","","","","","","","","9","","stimuli/stars_9.png","204","","","","","stimuli/AF09_SC.jpg","",""
"explore-choice","123","366121","0.0-123.0","p461825","AM65LGXJBTJ0I","3087LXLJ6NMH85PJ46SJUKP4Z1V0FD","3WS1NTTKE0IKVPNDU8XKJ4KTICO0FV","emotion","match","uniform","","","","","","","2025.2999999523163","365453.7000000477","367479","[""stimuli/AM06_CC.jpg"",""stimuli/HM10_FO.jpg"",""stimuli/AF09_SC.jpg"",""stimuli/WF11_SUR.jpg""]","stimuli/AM06_CC.jpg","stimuli/HM10_FO.jpg","stimuli/AF09_SC.jpg","stimuli/WF11_SUR.jpg","pos3","stimuli/AF09_SC.jpg","SC","AF09","2","3","6","8","stimuli/stars_6.png","207","[""CC"",""FO"",""SC"",""SUR""]","[""AM06"",""HM10"",""AF09"",""WF11""]","[0,4,6,5]","[2,4,8,6]","","",""
"show-reward","124","368128","0.0-124.0","p461825","AM65LGXJBTJ0I","3087LXLJ6NMH85PJ46SJUKP4Z1V0FD","3WS1NTTKE0IKVPNDU8XKJ4KTICO0FV","emotion","match","uniform","","","","","","","","367980","369986.8000000715","","","","","","","","","","","","6","","stimuli/stars_6.png","207","","","","","stimuli/AF09_SC.jpg","",""
"explore-choice","125","370983","0.0-125.0","p461825","AM65LGXJBTJ0I","3087LXLJ6NMH85PJ46SJUKP4Z1V0FD","3WS1NTTKE0IKVPNDU8XKJ4KTICO0FV","emotion","match","uniform","","","","","","","2353.5999999046326","369987.40000009537","372341","[""stimuli/AM06_FO.jpg"",""stimuli/WF11_CC.jpg"",""stimuli/HM10_SC.jpg"",""stimuli/AF09_SUR.jpg""]","stimuli/AM06_FO.jpg","stimuli/WF11_CC.jpg","stimuli/HM10_SC.jpg","stimuli/AF09_SUR.jpg","pos4","stimuli/AF09_SUR.jpg","SUR","AF09","3","4","8","6","stimuli/stars_8.png","211","[""FO"",""CC"",""SC"",""SUR""]","[""AM06"",""WF11"",""HM10"",""AF09""]","[4,1,7,8]","[4,2,8,6]","","",""
"show-reward","126","372986","0.0-126.0","p461825","AM65LGXJBTJ0I","3087LXLJ6NMH85PJ46SJUKP4Z1V0FD","3WS1NTTKE0IKVPNDU8XKJ4KTICO0FV","emotion","match","uniform","","","","","","","","372842.10000002384","374844.2000000477","","","","","","","","","","","","8","","stimuli/stars_8.png","211","","","","","stimuli/AF09_SUR.jpg","",""
"explore-choice","127","374796","0.0-127.0","p461825","AM65LGXJBTJ0I","3087LXLJ6NMH85PJ46SJUKP4Z1V0FD","3WS1NTTKE0IKVPNDU8XKJ4KTICO0FV","emotion","match","uniform","","","","","","","1308.1999999284744","374844.90000009537","376153.10000002384","[""stimuli/WF11_CC.jpg"",""stimuli/AF09_SC.jpg"",""stimuli/HM10_SUR.jpg"",""stimuli/AM06_FO.jpg""]","stimuli/WF11_CC.jpg","stimuli/AF09_SC.jpg","stimuli/HM10_SUR.jpg","stimuli/AM06_FO.jpg","pos2","stimuli/AF09_SC.jpg","SC","AF09","1","5","10","8","stimuli/stars_10.png","216","[""CC"",""SC"",""SUR"",""FO""]","[""WF11"",""AF09"",""HM10"",""AM06""]","[0,10,4,3]","[2,8,6,4]","","",""
"show-reward","128","376803","0.0-128.0","p461825","AM65LGXJBTJ0I","3087LXLJ6NMH85PJ46SJUKP4Z1V0FD","3WS1NTTKE0IKVPNDU8XKJ4KTICO0FV","emotion","match","uniform","","","","","","","","376655.10000002384","378661.40000009537","","","","","","","","","","","","10","","stimuli/stars_10.png","216","","","","","stimuli/AF09_SC.jpg","",""
"explore-choice","129","380698","0.0-129.0","p461825","AM65LGXJBTJ0I","3087LXLJ6NMH85PJ46SJUKP4Z1V0FD","3WS1NTTKE0IKVPNDU8XKJ4KTICO0FV","emotion","match","uniform","","","","","","","3384.100000023842","378662","382046.10000002384","[""stimuli/WF11_FO.jpg"",""stimuli/AF09_SUR.jpg"",""stimuli/AM06_CC.jpg"",""stimuli/HM10_SC.jpg""]","stimuli/WF11_FO.jpg","stimuli/AF09_SUR.jpg","stimuli/AM06_CC.jpg","stimuli/HM10_SC.jpg","pos2","stimuli/AF09_SUR.jpg","SUR","AF09","1","3.5","7","6","stimuli/stars_7.png","219.5","[""FO"",""SUR"",""CC"",""SC""]","[""WF11"",""AF09"",""AM06"",""HM10""]","[2,7,3,8]","[4,6,2,8]","","",""
"show-reward","130","382701","0.0-130.0","p461825","AM65LGXJBTJ0I","3087LXLJ6NMH85PJ46SJUKP4Z1V0FD","3WS1NTTKE0IKVPNDU8XKJ4KTICO0FV","emotion","match","uniform","","","","","","","","382557.40000009537","384559.8000000715","","","","","","","","","","","","7","","stimuli/stars_7.png","219.5","","","","","stimuli/AF09_SUR.jpg","",""
"explore-choice","131","385224","0.0-131.0","p461825","AM65LGXJBTJ0I","3087LXLJ6NMH85PJ46SJUKP4Z1V0FD","3WS1NTTKE0IKVPNDU8XKJ4KTICO0FV","emotion","match","uniform","","","","","","","2007.7999999523163","384560.3000000715","386568.10000002384","[""stimuli/HM10_FO.jpg"",""stimuli/AM06_SUR.jpg"",""stimuli/WF11_SC.jpg"",""stimuli/AF09_CC.jpg""]","stimuli/HM10_FO.jpg","stimuli/AM06_SUR.jpg","stimuli/WF11_SC.jpg","stimuli/AF09_CC.jpg","pos3","stimuli/WF11_SC.jpg","SC","WF11","2","4","8","8","stimuli/stars_8.png","223.5","[""FO"",""SUR"",""SC"",""CC""]","[""HM10"",""AM06"",""WF11"",""AF09""]","[5,6,8,0]","[4,6,8,2]","","",""
"show-reward","132","387239","0.0-132.0","p461825","AM65LGXJBTJ0I","3087LXLJ6NMH85PJ46SJUKP4Z1V0FD","3WS1NTTKE0IKVPNDU8XKJ4KTICO0FV","emotion","match","uniform","","","","","","","","387083.3000000715","389097.8000000715","","","","","","","","","","","","8","","stimuli/stars_8.png","223.5","","","","","stimuli/WF11_SC.jpg","",""
"explore-choice","133","389781","0.0-133.0","p461825","AM65LGXJBTJ0I","3087LXLJ6NMH85PJ46SJUKP4Z1V0FD","3WS1NTTKE0IKVPNDU8XKJ4KTICO0FV","emotion","match","uniform","","","","","","","2032.5","389098.5","391131","[""stimuli/WF11_CC.jpg"",""stimuli/AF09_FO.jpg"",""stimuli/AM06_SC.jpg"",""stimuli/HM10_SUR.jpg""]","stimuli/WF11_CC.jpg","stimuli/AF09_FO.jpg","stimuli/AM06_SC.jpg","stimuli/HM10_SUR.jpg","pos2","stimuli/AF09_FO.jpg","FO","AF09","1","1.5","3","4","stimuli/stars_3.png","225","[""CC"",""FO"",""SC"",""SUR""]","[""WF11"",""AF09"",""AM06"",""HM10""]","[1,3,9,6]","[2,4,8,6]","","",""
"show-reward","134","391786","0.0-134.0","p461825","AM65LGXJBTJ0I","3087LXLJ6NMH85PJ46SJUKP4Z1V0FD","3WS1NTTKE0IKVPNDU8XKJ4KTICO0FV","emotion","match","uniform","","","","","","","","391640.7000000477","393644.40000009537","","","","","","","","","","","","3","","stimuli/stars_3.png","225","","","","","stimuli/AF09_FO.jpg","",""
"explore-choice","135","394137","0.0-135.0","p461825","AM65LGXJBTJ0I","3087LXLJ6NMH85PJ46SJUKP4Z1V0FD","3WS1NTTKE0IKVPNDU8XKJ4KTICO0FV","emotion","match","uniform","","","","","","","1849.8999999761581","393645.10000002384","395495","[""stimuli/WF11_SUR.jpg"",""stimuli/AF09_FO.jpg"",""stimuli/HM10_CC.jpg"",""stimuli/AM06_SC.jpg""]","stimuli/WF11_SUR.jpg","stimuli/AF09_FO.jpg","stimuli/HM10_CC.jpg","stimuli/AM06_SC.jpg","pos4","stimuli/AM06_SC.jpg","SC","AM06","3","3.5","7","8","stimuli/stars_7.png","228.5","[""SUR"",""FO"",""CC"",""SC""]","[""WF11"",""AF09"",""HM10"",""AM06""]","[6,4,3,7]","[6,4,2,8]","","",""
"show-reward","136","396152","0.0-136.0","p461825","AM65LGXJBTJ0I","3087LXLJ6NMH85PJ46SJUKP4Z1V0FD","3WS1NTTKE0IKVPNDU8XKJ4KTICO0FV","emotion","match","uniform","","","","","","","","395996.40000009537","398010.90000009537","","","","","","","","","","","","7","","stimuli/stars_7.png","228.5","","","","","stimuli/AM06_SC.jpg","",""
"explore-choice","137","398662","0.0-137.0","p461825","AM65LGXJBTJ0I","3087LXLJ6NMH85PJ46SJUKP4Z1V0FD","3WS1NTTKE0IKVPNDU8XKJ4KTICO0FV","emotion","match","uniform","","","","","","","2005.8000000715256","398011.60000002384","400017.40000009537","[""stimuli/HM10_SUR.jpg"",""stimuli/AM06_CC.jpg"",""stimuli/AF09_FO.jpg"",""stimuli/WF11_SC.jpg""]","stimuli/HM10_SUR.jpg","stimuli/AM06_CC.jpg","stimuli/AF09_FO.jpg","stimuli/WF11_SC.jpg","pos2","stimuli/AM06_CC.jpg","CC","AM06","1","0.5","1","2","stimuli/stars_1.png","229","[""SUR"",""CC"",""FO"",""SC""]","[""HM10"",""AM06"",""AF09"",""WF11""]","[8,1,5,8]","[6,2,4,8]","","",""
"show-reward","138","400680","0.0-138.0","p461825","AM65LGXJBTJ0I","3087LXLJ6NMH85PJ46SJUKP4Z1V0FD","3WS1NTTKE0IKVPNDU8XKJ4KTICO0FV","emotion","match","uniform","","","","","","","","400521.60000002384","402538.40000009537","","","","","","","","","","","","1","","stimuli/stars_1.png","229","","","","","stimuli/AM06_CC.jpg","",""
"explore-choice","139","403760","0.0-139.0","p461825","AM65LGXJBTJ0I","3087LXLJ6NMH85PJ46SJUKP4Z1V0FD","3WS1NTTKE0IKVPNDU8XKJ4KTICO0FV","emotion","match","uniform","","","","","","","2570.100000023842","402539.10000002384","405109.2000000477","[""stimuli/HM10_FO.jpg"",""stimuli/AF09_CC.jpg"",""stimuli/AM06_SC.jpg"",""stimuli/WF11_SUR.jpg""]","stimuli/HM10_FO.jpg","stimuli/AF09_CC.jpg","stimuli/AM06_SC.jpg","stimuli/WF11_SUR.jpg","pos1","stimuli/HM10_FO.jpg","FO","HM10","0","1.5","3","4","stimuli/stars_3.png","230.5","[""FO"",""CC"",""SC"",""SUR""]","[""HM10"",""AF09"",""AM06"",""WF11""]","[3,3,6,5]","[4,2,8,6]","","",""
"show-reward","140","405773","0.0-140.0","p461825","AM65LGXJBTJ0I","3087LXLJ6NMH85PJ46SJUKP4Z1V0FD","3WS1NTTKE0IKVPNDU8XKJ4KTICO0FV","emotion","match","uniform","","","","","","","","405619.60000002384","407632.2000000477","","","","","","","","","","","","3","","stimuli/stars_3.png","230.5","","","","","stimuli/HM10_FO.jpg","",""
"explore-choice","141","410794","0.0-141.0","p461825","AM65LGXJBTJ0I","3087LXLJ6NMH85PJ46SJUKP4Z1V0FD","3WS1NTTKE0IKVPNDU8XKJ4KTICO0FV","emotion","match","uniform","","","","","","","4519.199999928474","407632.8000000715","412152","[""stimuli/AF09_FO.jpg"",""stimuli/WF11_SC.jpg"",""stimuli/HM10_CC.jpg"",""stimuli/AM06_SUR.jpg""]","stimuli/AF09_FO.jpg","stimuli/WF11_SC.jpg","stimuli/HM10_CC.jpg","stimuli/AM06_SUR.jpg","pos1","stimuli/AF09_FO.jpg","FO","AF09","0","1.5","3","4","stimuli/stars_3.png","232","[""FO"",""SC"",""CC"",""SUR""]","[""AF09"",""WF11"",""HM10"",""AM06""]","[3,10,1,5]","[4,8,2,6]","","",""
"show-reward","142","412804","0.0-142.0","p461825","AM65LGXJBTJ0I","3087LXLJ6NMH85PJ46SJUKP4Z1V0FD","3WS1NTTKE0IKVPNDU8XKJ4KTICO0FV","emotion","match","uniform","","","","","","","","412653.60000002384","414662.2000000477","","","","","","","","","","","","3","","stimuli/stars_3.png","232","","","","","stimuli/AF09_FO.jpg","",""
"explore-choice","143","416572","0.0-143.0","p461825","AM65LGXJBTJ0I","3087LXLJ6NMH85PJ46SJUKP4Z1V0FD","3WS1NTTKE0IKVPNDU8XKJ4KTICO0FV","emotion","match","uniform","","","","","","","3261.5","414662.7000000477","417924.2000000477","[""stimuli/AF09_SUR.jpg"",""stimuli/AM06_SC.jpg"",""stimuli/HM10_CC.jpg"",""stimuli/WF11_FO.jpg""]","stimuli/AF09_SUR.jpg","stimuli/AM06_SC.jpg","stimuli/HM10_CC.jpg","stimuli/WF11_FO.jpg","pos2","stimuli/AM06_SC.jpg","SC","AM06","1","3.5","7","8","stimuli/stars_7.png","235.5","[""SUR"",""SC"",""CC"",""FO""]","[""AF09"",""AM06"",""HM10"",""WF11""]","[5,7,0,6]","[6,8,2,4]","","",""
"show-reward","144","418574","0.0-144.0","p461825","AM65LGXJBTJ0I","3087LXLJ6NMH85PJ46SJUKP4Z1V0FD","3WS1NTTKE0IKVPNDU8XKJ4KTICO0FV","emotion","match","uniform","","","","","","","","418431.60000002384","420432.7000000477","","","","","","","","","","","","7","","stimuli/stars_7.png","235.5","","","","","stimuli/AM06_SC.jpg","",""
"explore-choice","145","427110","0.0-145.0","p461825","AM65LGXJBTJ0I","3087LXLJ6NMH85PJ46SJUKP4Z1V0FD","3WS1NTTKE0IKVPNDU8XKJ4KTICO0FV","emotion","match","uniform","","","","","","","8034.200000047684","420433.5","428467.7000000477","[""stimuli/AM06_FO.jpg"",""stimuli/WF11_SUR.jpg"",""stimuli/AF09_SC.jpg"",""stimuli/HM10_CC.jpg""]","stimuli/AM06_FO.jpg","stimuli/WF11_SUR.jpg","stimuli/AF09_SC.jpg","stimuli/HM10_CC.jpg","pos3","stimuli/AF09_SC.jpg","SC","AF09","2","3","6","8","stimuli/stars_6.png","238.5","[""FO"",""SUR"",""SC"",""CC""]","[""AM06"",""WF11"",""AF09"",""HM10""]","[5,6,6,3]","[4,6,8,2]","","",""
"show-reward","146","429113","0.0-146.0","p461825","AM65LGXJBTJ0I","3087LXLJ6NMH85PJ46SJUKP4Z1V0FD","3WS1NTTKE0IKVPNDU8XKJ4KTICO0FV","emotion","match","uniform","","","","","","","","428969.2000000477","430971.5","","","","","","","","","","","","6","","stimuli/stars_6.png","238.5","","","","","stimuli/AF09_SC.jpg","",""
"explore-choice","147","431952","0.0-147.0","p461825","AM65LGXJBTJ0I","3087LXLJ6NMH85PJ46SJUKP4Z1V0FD","3WS1NTTKE0IKVPNDU8XKJ4KTICO0FV","emotion","match","uniform","","","","","","","2337.100000023842","430972","433309.10000002384","[""stimuli/AM06_CC.jpg"",""stimuli/WF11_FO.jpg"",""stimuli/AF09_SC.jpg"",""stimuli/HM10_SUR.jpg""]","stimuli/AM06_CC.jpg","stimuli/WF11_FO.jpg","stimuli/AF09_SC.jpg","stimuli/HM10_SUR.jpg","pos3","stimuli/AF09_SC.jpg","SC","AF09","2","4.5","9","8","stimuli/stars_9.png","243","[""CC"",""FO"",""SC"",""SUR""]","[""AM06"",""WF11"",""AF09"",""HM10""]","[4,3,9,6]","[2,4,8,6]","","",""
"show-reward","148","433966","0.0-148.0","p461825","AM65LGXJBTJ0I","3087LXLJ6NMH85PJ46SJUKP4Z1V0FD","3WS1NTTKE0IKVPNDU8XKJ4KTICO0FV","emotion","match","uniform","","","","","","","","433811.3000000715","435824.7000000477","","","","","","","","","","","","9","","stimuli/stars_9.png","243","","","","","stimuli/AF09_SC.jpg","",""
"explore-choice","149","437589","0.0-149.0","p461825","AM65LGXJBTJ0I","3087LXLJ6NMH85PJ46SJUKP4Z1V0FD","3WS1NTTKE0IKVPNDU8XKJ4KTICO0FV","emotion","match","uniform","","","","","","","3106.600000023842","435825.5","438932.10000002384","[""stimuli/HM10_FO.jpg"",""stimuli/WF11_CC.jpg"",""stimuli/AM06_SC.jpg"",""stimuli/AF09_SUR.jpg""]","stimuli/HM10_FO.jpg","stimuli/WF11_CC.jpg","stimuli/AM06_SC.jpg","stimuli/AF09_SUR.jpg","pos4","stimuli/AF09_SUR.jpg","SUR","AF09","3","2.5","5","6","stimuli/stars_5.png","245.5","[""FO"",""CC"",""SC"",""SUR""]","[""HM10"",""WF11"",""AM06"",""AF09""]","[4,4,6,5]","[4,2,8,6]","","",""
"show-reward","150","439594","0.0-150.0","p461825","AM65LGXJBTJ0I","3087LXLJ6NMH85PJ46SJUKP4Z1V0FD","3WS1NTTKE0IKVPNDU8XKJ4KTICO0FV","emotion","match","uniform","","","","","","","","439448.7000000477","441452.40000009537","","","","","","","","","","","","5","","stimuli/stars_5.png","245.5","","","","","stimuli/AF09_SUR.jpg","",""
"explore-choice","151","444214","0.0-151.0","p461825","AM65LGXJBTJ0I","3087LXLJ6NMH85PJ46SJUKP4Z1V0FD","3WS1NTTKE0IKVPNDU8XKJ4KTICO0FV","emotion","match","uniform","","","","","","","4111.400000095367","441453","445564.40000009537","[""stimuli/WF11_SUR.jpg"",""stimuli/AF09_FO.jpg"",""stimuli/AM06_CC.jpg"",""stimuli/HM10_SC.jpg""]","stimuli/WF11_SUR.jpg","stimuli/AF09_FO.jpg","stimuli/AM06_CC.jpg","stimuli/HM10_SC.jpg","pos2","stimuli/AF09_FO.jpg","FO","AF09","1","1.5","3","4","stimuli/stars_3.png","247","[""SUR"",""FO"",""CC"",""SC""]","[""WF11"",""AF09"",""AM06"",""HM10""]","[6,3,1,10]","[6,4,2,8]","","",""
"show-reward","152","446219","0.0-152.0","p461825","AM65LGXJBTJ0I","3087LXLJ6NMH85PJ46SJUKP4Z1V0FD","3WS1NTTKE0IKVPNDU8XKJ4KTICO0FV","emotion","match","uniform","","","","","","","","446073.8000000715","448078","","","","","","","","","","","","3","","stimuli/stars_3.png","247","","","","","stimuli/AF09_FO.jpg","",""
"explore-choice","153","449928","0.0-153.0","p461825","AM65LGXJBTJ0I","3087LXLJ6NMH85PJ46SJUKP4Z1V0FD","3WS1NTTKE0IKVPNDU8XKJ4KTICO0FV","emotion","match","uniform","","","","","","","3207.399999976158","448078.60000002384","451286","[""stimuli/HM10_SUR.jpg"",""stimuli/AF09_CC.jpg"",""stimuli/AM06_FO.jpg"",""stimuli/WF11_SC.jpg""]","stimuli/HM10_SUR.jpg","stimuli/AF09_CC.jpg","stimuli/AM06_FO.jpg","stimuli/WF11_SC.jpg","pos4","stimuli/WF11_SC.jpg","SC","WF11","3","4.5","9","8","stimuli/stars_9.png","251.5","[""SUR"",""CC"",""FO"",""SC""]","[""HM10"",""AF09"",""AM06"",""WF11""]","[8,4,2,9]","[6,2,4,8]","","",""
"show-reward","154","451936","0.0-154.0","p461825","AM65LGXJBTJ0I","3087LXLJ6NMH85PJ46SJUKP4Z1V0FD","3WS1NTTKE0IKVPNDU8XKJ4KTICO0FV","emotion","match","uniform","","","","","","","","451787.40000009537","453794.40000009537","","","","","","","","","","","","9","","stimuli/stars_9.png","251.5","","","","","stimuli/WF11_SC.jpg","",""
"explore-choice","155","453428","0.0-155.0","p461825","AM65LGXJBTJ0I","3087LXLJ6NMH85PJ46SJUKP4Z1V0FD","3WS1NTTKE0IKVPNDU8XKJ4KTICO0FV","emotion","match","uniform","","","","","","","983.1000000238419","453795","454778.10000002384","[""stimuli/AM06_SUR.jpg"",""stimuli/AF09_CC.jpg"",""stimuli/HM10_FO.jpg"",""stimuli/WF11_SC.jpg""]","stimuli/AM06_SUR.jpg","stimuli/AF09_CC.jpg","stimuli/HM10_FO.jpg","stimuli/WF11_SC.jpg","pos4","stimuli/WF11_SC.jpg","SC","WF11","3","4","8","8","stimuli/stars_8.png","255.5","[""SUR"",""CC"",""FO"",""SC""]","[""AM06"",""AF09"",""HM10"",""WF11""]","[6,0,5,8]","[6,2,4,8]","","",""
"show-reward","156","455433","0.0-156.0","p461825","AM65LGXJBTJ0I","3087LXLJ6NMH85PJ46SJUKP4Z1V0FD","3WS1NTTKE0IKVPNDU8XKJ4KTICO0FV","emotion","match","uniform","","","","","","","","455287.2000000477","457292.2000000477","","","","","","","","","","","","8","","stimuli/stars_8.png","255.5","","","","","stimuli/WF11_SC.jpg","",""
"explore-choice","157","458592","0.0-157.0","p461825","AM65LGXJBTJ0I","3087LXLJ6NMH85PJ46SJUKP4Z1V0FD","3WS1NTTKE0IKVPNDU8XKJ4KTICO0FV","emotion","match","uniform","","","","","","","2657.399999976158","457292.7000000477","459950.10000002384","[""stimuli/AM06_SC.jpg"",""stimuli/HM10_CC.jpg"",""stimuli/AF09_FO.jpg"",""stimuli/WF11_SUR.jpg""]","stimuli/AM06_SC.jpg","stimuli/HM10_CC.jpg","stimuli/AF09_FO.jpg","stimuli/WF11_SUR.jpg","pos3","stimuli/AF09_FO.jpg","FO","AF09","2","2","4","4","stimuli/stars_4.png","257.5","[""SC"",""CC"",""FO"",""SUR""]","[""AM06"",""HM10"",""AF09"",""WF11""]","[7,3,4,6]","[8,2,4,6]","","",""
"show-reward","158","460595","0.0-158.0","p461825","AM65LGXJBTJ0I","3087LXLJ6NMH85PJ46SJUKP4Z1V0FD","3WS1NTTKE0IKVPNDU8XKJ4KTICO0FV","emotion","match","uniform","","","","","","","","460451.2000000477","462454.3000000715","","","","","","","","","","","","4","","stimuli/stars_4.png","257.5","","","","","stimuli/AF09_FO.jpg","",""
"explore-choice","159","463554","0.0-159.0","p461825","AM65LGXJBTJ0I","3087LXLJ6NMH85PJ46SJUKP4Z1V0FD","3WS1NTTKE0IKVPNDU8XKJ4KTICO0FV","emotion","match","uniform","","","","","","","2457.2999999523163","462454.90000009537","464912.2000000477","[""stimuli/AM06_SC.jpg"",""stimuli/AF09_FO.jpg"",""stimuli/WF11_CC.jpg"",""stimuli/HM10_SUR.jpg""]","stimuli/AM06_SC.jpg","stimuli/AF09_FO.jpg","stimuli/WF11_CC.jpg","stimuli/HM10_SUR.jpg","pos2","stimuli/AF09_FO.jpg","FO","AF09","1","1.5","3","4","stimuli/stars_3.png","259","[""SC"",""FO"",""CC"",""SUR""]","[""AM06"",""AF09"",""WF11"",""HM10""]","[9,3,1,6]","[8,4,2,6]","","",""
"show-reward","160","465557","0.0-160.0","p461825","AM65LGXJBTJ0I","3087LXLJ6NMH85PJ46SJUKP4Z1V0FD","3WS1NTTKE0IKVPNDU8XKJ4KTICO0FV","emotion","match","uniform","","","","","","","","465413.60000002384","467415.7000000477","","","","","","","","","","","","3","","stimuli/stars_3.png","259","","","","","stimuli/AF09_FO.jpg","",""
"explore-choice","161","473915","0.0-161.0","p461825","AM65LGXJBTJ0I","3087LXLJ6NMH85PJ46SJUKP4Z1V0FD","3WS1NTTKE0IKVPNDU8XKJ4KTICO0FV","emotion","match","uniform","","","","","","","7857.799999952316","467416.3000000715","475274.10000002384","[""stimuli/AM06_SC.jpg"",""stimuli/WF11_FO.jpg"",""stimuli/HM10_SUR.jpg"",""stimuli/AF09_CC.jpg""]","stimuli/AM06_SC.jpg","stimuli/WF11_FO.jpg","stimuli/HM10_SUR.jpg","stimuli/AF09_CC.jpg","pos1","stimuli/AM06_SC.jpg","SC","AM06","0","3","6","8","stimuli/stars_6.png","262","[""SC"",""FO"",""SUR"",""CC""]","[""AM06"",""WF11"",""HM10"",""AF09""]","[6,5,6,3]","[8,4,6,2]","","",""
"show-reward","162","475923","0.0-162.0","p461825","AM65LGXJBTJ0I","3087LXLJ6NMH85PJ46SJUKP4Z1V0FD","3WS1NTTKE0IKVPNDU8XKJ4KTICO0FV","emotion","match","uniform","","","","","","","","475775.2000000477","477782.10000002384","","","","","","","","","","","","6","","stimuli/stars_6.png","262","","","","","stimuli/AM06_SC.jpg","",""
"explore-choice","163","478214","0.0-163.0","p461825","AM65LGXJBTJ0I","3087LXLJ6NMH85PJ46SJUKP4Z1V0FD","3WS1NTTKE0IKVPNDU8XKJ4KTICO0FV","emotion","match","uniform","","","","","","","1775","477782.60000002384","479557.60000002384","[""stimuli/AM06_SUR.jpg"",""stimuli/HM10_FO.jpg"",""stimuli/WF11_CC.jpg"",""stimuli/AF09_SC.jpg""]","stimuli/AM06_SUR.jpg","stimuli/HM10_FO.jpg","stimuli/WF11_CC.jpg","stimuli/AF09_SC.jpg","pos4","stimuli/AF09_SC.jpg","SC","AF09","3","4.5","9","8","stimuli/stars_9.png","266.5","[""SUR"",""FO"",""CC"",""SC""]","[""AM06"",""HM10"",""WF11"",""AF09""]","[8,5,4,9]","[6,4,2,8]","","",""
"show-reward","164","480229","0.0-164.0","p461825","AM65LGXJBTJ0I","3087LXLJ6NMH85PJ46SJUKP4Z1V0FD","3WS1NTTKE0IKVPNDU8XKJ4KTICO0FV","emotion","match","uniform","","","","","","","","480073.3000000715","482087.60000002384","","","","","","","","","","","","9","","stimuli/stars_9.png","266.5","","","","","stimuli/AF09_SC.jpg","",""
"explore-choice","165","482375","0.0-165.0","p461825","AM65LGXJBTJ0I","3087LXLJ6NMH85PJ46SJUKP4Z1V0FD","3WS1NTTKE0IKVPNDU8XKJ4KTICO0FV","emotion","match","uniform","","","","","","","1641","482088.2000000477","483729.2000000477","[""stimuli/WF11_FO.jpg"",""stimuli/AM06_CC.jpg"",""stimuli/HM10_SUR.jpg"",""stimuli/AF09_SC.jpg""]","stimuli/WF11_FO.jpg","stimuli/AM06_CC.jpg","stimuli/HM10_SUR.jpg","stimuli/AF09_SC.jpg","pos4","stimuli/AF09_SC.jpg","SC","AF09","3","4.5","9","8","stimuli/stars_9.png","271","[""FO"",""CC"",""SUR"",""SC""]","[""WF11"",""AM06"",""HM10"",""AF09""]","[3,4,6,9]","[4,2,6,8]","","",""
"show-reward","166","484380","0.0-166.0","p461825","AM65LGXJBTJ0I","3087LXLJ6NMH85PJ46SJUKP4Z1V0FD","3WS1NTTKE0IKVPNDU8XKJ4KTICO0FV","emotion","match","uniform","","","","","","","","484234.3000000715","486238.7000000477","","","","","","","","","","","","9","","stimuli/stars_9.png","271","","","","","stimuli/AF09_SC.jpg","",""
"explore-choice","167","488934","0.0-167.0","p461825","AM65LGXJBTJ0I","3087LXLJ6NMH85PJ46SJUKP4Z1V0FD","3WS1NTTKE0IKVPNDU8XKJ4KTICO0FV","emotion","match","uniform","","","","","","","4052.1999999284744","486239.3000000715","490291.5","[""stimuli/AF09_FO.jpg"",""stimuli/WF11_CC.jpg"",""stimuli/AM06_SUR.jpg"",""stimuli/HM10_SC.jpg""]","stimuli/AF09_FO.jpg","stimuli/WF11_CC.jpg","stimuli/AM06_SUR.jpg","stimuli/HM10_SC.jpg","pos1","stimuli/AF09_FO.jpg","FO","AF09","0","2","4","4","stimuli/stars_4.png","273","[""FO"",""CC"",""SUR"",""SC""]","[""AF09"",""WF11"",""AM06"",""HM10""]","[4,4,5,7]","[4,2,6,8]","","",""
"show-reward","168","490943","0.0-168.0","p461825","AM65LGXJBTJ0I","3087LXLJ6NMH85PJ46SJUKP4Z1V0FD","3WS1NTTKE0IKVPNDU8XKJ4KTICO0FV","emotion","match","uniform","","","","","","","","490793","492801.90000009537","","","","","","","","","","","","4","","stimuli/stars_4.png","273","","","","","stimuli/AF09_FO.jpg","",""
"explore-choice","169","495439","0.0-169.0","p461825","AM65LGXJBTJ0I","3087LXLJ6NMH85PJ46SJUKP4Z1V0FD","3WS1NTTKE0IKVPNDU8XKJ4KTICO0FV","emotion","match","uniform","","","","","","","3980.7000000476837","492802.5","496783.2000000477","[""stimuli/WF11_SUR.jpg"",""stimuli/HM10_SC.jpg"",""stimuli/AM06_FO.jpg"",""stimuli/AF09_CC.jpg""]","stimuli/WF11_SUR.jpg","stimuli/HM10_SC.jpg","stimuli/AM06_FO.jpg","stimuli/AF09_CC.jpg","pos2","stimuli/HM10_SC.jpg","SC","HM10","1","3","6","8","stimuli/stars_6.png","276","[""SUR"",""SC"",""FO"",""CC""]","[""WF11"",""HM10"",""AM06"",""AF09""]","[5,6,2,3]","[6,8,4,2]","","",""
"show-reward","170","497455","0.0-170.0","p461825","AM65LGXJBTJ0I","3087LXLJ6NMH85PJ46SJUKP4Z1V0FD","3WS1NTTKE0IKVPNDU8XKJ4KTICO0FV","emotion","match","uniform","","","","","","","","497297.60000002384","499313.90000009537","","","","","","","","","","","","6","","stimuli/stars_6.png","276","","","","","stimuli/HM10_SC.jpg","",""
"explore-choice","171","501411","0.0-171.0","p461825","AM65LGXJBTJ0I","3087LXLJ6NMH85PJ46SJUKP4Z1V0FD","3WS1NTTKE0IKVPNDU8XKJ4KTICO0FV","emotion","match","uniform","","","","","","","3440.5999999046326","499314.40000009537","502755","[""stimuli/HM10_SC.jpg"",""stimuli/AF09_CC.jpg"",""stimuli/AM06_SUR.jpg"",""stimuli/WF11_FO.jpg""]","stimuli/HM10_SC.jpg","stimuli/AF09_CC.jpg","stimuli/AM06_SUR.jpg","stimuli/WF11_FO.jpg","pos4","stimuli/WF11_FO.jpg","FO","WF11","3","1.5","3","4","stimuli/stars_3.png","277.5","[""SC"",""CC"",""SUR"",""FO""]","[""HM10"",""AF09"",""AM06"",""WF11""]","[10,4,6,3]","[8,2,6,4]","","",""
"show-reward","172","503424","0.0-172.0","p461825","AM65LGXJBTJ0I","3087LXLJ6NMH85PJ46SJUKP4Z1V0FD","3WS1NTTKE0IKVPNDU8XKJ4KTICO0FV","emotion","match","uniform","","","","","","","","503269.8000000715","505282.7000000477","","","","","","","","","","","","3","","stimuli/stars_3.png","277.5","","","","","stimuli/WF11_FO.jpg","",""
"explore-choice","173","510268","0.0-173.0","p461825","AM65LGXJBTJ0I","3087LXLJ6NMH85PJ46SJUKP4Z1V0FD","3WS1NTTKE0IKVPNDU8XKJ4KTICO0FV","emotion","match","uniform","","","","","","","6333.899999976158","505283.3000000715","511617.2000000477","[""stimuli/AM06_FO.jpg"",""stimuli/HM10_SC.jpg"",""stimuli/AF09_SUR.jpg"",""stimuli/WF11_CC.jpg""]","stimuli/AM06_FO.jpg","stimuli/HM10_SC.jpg","stimuli/AF09_SUR.jpg","stimuli/WF11_CC.jpg","pos3","stimuli/AF09_SUR.jpg","SUR","AF09","2","4","8","6","stimuli/stars_8.png","281.5","[""FO"",""SC"",""SUR"",""CC""]","[""AM06"",""HM10"",""AF09"",""WF11""]","[4,7,8,1]","[4,8,6,2]","","",""
"show-reward","174","512271","0.0-174.0","p461825","AM65LGXJBTJ0I","3087LXLJ6NMH85PJ46SJUKP4Z1V0FD","3WS1NTTKE0IKVPNDU8XKJ4KTICO0FV","emotion","match","uniform","","","","","","","","512127.2000000477","514129.5","","","","","","","","","","","","8","","stimuli/stars_8.png","281.5","","","","","stimuli/AF09_SUR.jpg","",""
"explore-choice","175","518462","0.0-175.0","p461825","AM65LGXJBTJ0I","3087LXLJ6NMH85PJ46SJUKP4Z1V0FD","3WS1NTTKE0IKVPNDU8XKJ4KTICO0FV","emotion","match","uniform","","","","","","","5688.899999976158","514130.2000000477","519819.10000002384","[""stimuli/AM06_SC.jpg"",""stimuli/AF09_SUR.jpg"",""stimuli/WF11_FO.jpg"",""stimuli/HM10_CC.jpg""]","stimuli/AM06_SC.jpg","stimuli/AF09_SUR.jpg","stimuli/WF11_FO.jpg","stimuli/HM10_CC.jpg","pos3","stimuli/WF11_FO.jpg","FO","WF11","2","3","6","4","stimuli/stars_6.png","284.5","[""SC"",""SUR"",""FO"",""CC""]","[""AM06"",""AF09"",""WF11"",""HM10""]","[7,5,6,0]","[8,6,4,2]","","",""
"show-reward","176","520464","0.0-176.0","p461825","AM65LGXJBTJ0I","3087LXLJ6NMH85PJ46SJUKP4Z1V0FD","3WS1NTTKE0IKVPNDU8XKJ4KTICO0FV","emotion","match","uniform","","","","","","","","520321.3000000715","522322.90000009537","","","","","","","","","","","","6","","stimuli/stars_6.png","284.5","","","","","stimuli/WF11_FO.jpg","",""
"explore-choice","177","522934","0.0-177.0","p461825","AM65LGXJBTJ0I","3087LXLJ6NMH85PJ46SJUKP4Z1V0FD","3WS1NTTKE0IKVPNDU8XKJ4KTICO0FV","emotion","match","uniform","","","","","","","1967.7000000476837","522323.5","524291.2000000477","[""stimuli/AF09_SC.jpg"",""stimuli/HM10_FO.jpg"",""stimuli/AM06_CC.jpg"",""stimuli/WF11_SUR.jpg""]","stimuli/AF09_SC.jpg","stimuli/HM10_FO.jpg","stimuli/AM06_CC.jpg","stimuli/WF11_SUR.jpg","pos1","stimuli/AF09_SC.jpg","SC","AF09","0","3","6","8","stimuli/stars_6.png","287.5","[""SC"",""FO"",""CC"",""SUR""]","[""AF09"",""HM10"",""AM06"",""WF11""]","[6,4,0,5]","[8,4,2,6]","","",""
"show-reward","178","524950","0.0-178.0","p461825","AM65LGXJBTJ0I","3087LXLJ6NMH85PJ46SJUKP4Z1V0FD","3WS1NTTKE0IKVPNDU8XKJ4KTICO0FV","emotion","match","uniform","","","","","","","","524793.1000000238","526808.4000000954","","","","","","","","","","","","6","","stimuli/stars_6.png","287.5","","","","","stimuli/AF09_SC.jpg","",""
"explore-choice","179","527796","0.0-179.0","p461825","AM65LGXJBTJ0I","3087LXLJ6NMH85PJ46SJUKP4Z1V0FD","3WS1NTTKE0IKVPNDU8XKJ4KTICO0FV","emotion","match","uniform","","","","","","","2344.2999999523163","526808.8000000715","529153.1000000238","[""stimuli/AM06_SC.jpg"",""stimuli/AF09_SUR.jpg"",""stimuli/HM10_FO.jpg"",""stimuli/WF11_CC.jpg""]","stimuli/AM06_SC.jpg","stimuli/AF09_SUR.jpg","stimuli/HM10_FO.jpg","stimuli/WF11_CC.jpg","pos4","stimuli/WF11_CC.jpg","CC","WF11","3","2","4","2","stimuli/stars_4.png","289.5","[""SC"",""SUR"",""FO"",""CC""]","[""AM06"",""AF09"",""HM10"",""WF11""]","[6,5,4,4]","[8,6,4,2]","","",""
"show-reward","180","529812","0.0-180.0","p461825","AM65LGXJBTJ0I","3087LXLJ6NMH85PJ46SJUKP4Z1V0FD","3WS1NTTKE0IKVPNDU8XKJ4KTICO0FV","emotion","match","uniform","","","","","","","","529654.8000000715","531670.5","","","","","","","","","","","","4","","stimuli/stars_4.png","289.5","","","","","stimuli/WF11_CC.jpg","",""
"explore-choice","181","536739","0.0-181.0","p461825","AM65LGXJBTJ0I","3087LXLJ6NMH85PJ46SJUKP4Z1V0FD","3WS1NTTKE0IKVPNDU8XKJ4KTICO0FV","emotion","match","uniform","","","","","","","6426.100000023842","531671","538097.1000000238","[""stimuli/AM06_SC.jpg"",""stimuli/AF09_CC.jpg"",""stimuli/HM10_FO.jpg"",""stimuli/WF11_SUR.jpg""]","stimuli/AM06_SC.jpg","stimuli/AF09_CC.jpg","stimuli/HM10_FO.jpg","stimuli/WF11_SUR.jpg","pos1","stimuli/AM06_SC.jpg","SC","AM06","0","3","6","8","stimuli/stars_6.png","292.5","[""SC"",""CC"",""FO"",""SUR""]","[""AM06"",""AF09"",""HM10"",""WF11""]","[6,3,3,5]","[8,2,4,6]","","",""
"show-reward","182","538756","0.0-182.0","p461825","AM65LGXJBTJ0I","3087LXLJ6NMH85PJ46SJUKP4Z1V0FD","3WS1NTTKE0IKVPNDU8XKJ4KTICO0FV","emotion","match","uniform","","","","","","","","538597.8000000715","540614.1000000238","","","","","","","","","","","","6","","stimuli/stars_6.png","292.5","","","","","stimuli/AM06_SC.jpg","",""
"explore-choice","183","542057","0.0-183.0","p461825","AM65LGXJBTJ0I","3087LXLJ6NMH85PJ46SJUKP4Z1V0FD","3WS1NTTKE0IKVPNDU8XKJ4KTICO0FV","emotion","match","uniform","","","","","","","2785.5","540614.6000000238","543400.1000000238","[""stimuli/HM10_CC.jpg"",""stimuli/AM06_FO.jpg"",""stimuli/WF11_SUR.jpg"",""stimuli/AF09_SC.jpg""]","stimuli/HM10_CC.jpg","stimuli/AM06_FO.jpg","stimuli/WF11_SUR.jpg","stimuli/AF09_SC.jpg","pos4","stimuli/AF09_SC.jpg","SC","AF09","3","3","6","8","stimuli/stars_6.png","295.5","[""CC"",""FO"",""SUR"",""SC""]","[""HM10"",""AM06"",""WF11"",""AF09""]","[3,5,6,6]","[2,4,6,8]","","",""
"show-reward","184","544060","0.0-184.0","p461825","AM65LGXJBTJ0I","3087LXLJ6NMH85PJ46SJUKP4Z1V0FD","3WS1NTTKE0IKVPNDU8XKJ4KTICO0FV","emotion","match","uniform","","","","","","","","543916","545918.6000000238","","","","","","","","","","","","6","","stimuli/stars_6.png","295.5","","","","","stimuli/AF09_SC.jpg","",""
"explore-choice","185","547394","0.0-185.0","p461825","AM65LGXJBTJ0I","3087LXLJ6NMH85PJ46SJUKP4Z1V0FD","3WS1NTTKE0IKVPNDU8XKJ4KTICO0FV","emotion","match","uniform","","","","","","","2832.899999976158","545919.1000000238","548752","[""stimuli/WF11_SC.jpg"",""stimuli/AM06_CC.jpg"",""stimuli/AF09_FO.jpg"",""stimuli/HM10_SUR.jpg""]","stimuli/WF11_SC.jpg","stimuli/AM06_CC.jpg","stimuli/AF09_FO.jpg","stimuli/HM10_SUR.jpg","pos1","stimuli/WF11_SC.jpg","SC","WF11","0","4","8","8","stimuli/stars_8.png","299.5","[""SC"",""CC"",""FO"",""SUR""]","[""WF11"",""AM06"",""AF09"",""HM10""]","[8,1,5,8]","[8,2,4,6]","","",""
"show-reward","186","549397","0.0-186.0","p461825","AM65LGXJBTJ0I","3087LXLJ6NMH85PJ46SJUKP4Z1V0FD","3WS1NTTKE0IKVPNDU8XKJ4KTICO0FV","emotion","match","uniform","","","","","","","","549253.7000000477","551256.3000000715","","","","","","","","","","","","8","","stimuli/stars_8.png","299.5","","","","","stimuli/WF11_SC.jpg","",""
"explore-choice","187","551734","0.0-187.0","p461825","AM65LGXJBTJ0I","3087LXLJ6NMH85PJ46SJUKP4Z1V0FD","3WS1NTTKE0IKVPNDU8XKJ4KTICO0FV","emotion","match","uniform","","","","","","","1829.3999999761581","551256.9000000954","553086.3000000715","[""stimuli/AM06_SUR.jpg"",""stimuli/HM10_CC.jpg"",""stimuli/WF11_FO.jpg"",""stimuli/AF09_SC.jpg""]","stimuli/AM06_SUR.jpg","stimuli/HM10_CC.jpg","stimuli/WF11_FO.jpg","stimuli/AF09_SC.jpg","pos4","stimuli/AF09_SC.jpg","SC","AF09","3","3.5","7","8","stimuli/stars_7.png","303","[""SUR"",""CC"",""FO"",""SC""]","[""AM06"",""HM10"",""WF11"",""AF09""]","[7,3,3,7]","[6,2,4,8]","","",""
"show-reward","188","553751","0.0-188.0","p461825","AM65LGXJBTJ0I","3087LXLJ6NMH85PJ46SJUKP4Z1V0FD","3WS1NTTKE0IKVPNDU8XKJ4KTICO0FV","emotion","match","uniform","","","","","","","","553593.3000000715","555609.8000000715","","","","","","","","","","","","7","","stimuli/stars_7.png","303","","","","","stimuli/AF09_SC.jpg","",""
"explore-choice","189","555704","0.0-189.0","p461825","AM65LGXJBTJ0I","3087LXLJ6NMH85PJ46SJUKP4Z1V0FD","3WS1NTTKE0IKVPNDU8XKJ4KTICO0FV","emotion","match","uniform","","","","","","","1437.6999999284744","555610.4000000954","557048.1000000238","[""stimuli/WF11_CC.jpg"",""stimuli/AM06_FO.jpg"",""stimuli/HM10_SUR.jpg"",""stimuli/AF09_SC.jpg""]","stimuli/WF11_CC.jpg","stimuli/AM06_FO.jpg","stimuli/HM10_SUR.jpg","stimuli/AF09_SC.jpg","pos4","stimuli/AF09_SC.jpg","SC","AF09","3","5","10","8","stimuli/stars_10.png","308","[""CC"",""FO"",""SUR"",""SC""]","[""WF11"",""AM06"",""HM10"",""AF09""]","[0,3,4,10]","[2,4,6,8]","","",""
"show-reward","190","557716","0.0-190.0","p461825","AM65LGXJBTJ0I","3087LXLJ6NMH85PJ46SJUKP4Z1V0FD","3WS1NTTKE0IKVPNDU8XKJ4KTICO0FV","emotion","match","uniform","","","","","","","","557563.3000000715","559575","","","","","","","","","","","","10","","stimuli/stars_10.png","308","","","","","stimuli/AF09_SC.jpg","",""
"explore-choice","191","559963","0.0-191.0","p461825","AM65LGXJBTJ0I","3087LXLJ6NMH85PJ46SJUKP4Z1V0FD","3WS1NTTKE0IKVPNDU8XKJ4KTICO0FV","emotion","match","uniform","","","","","","","1745.7999999523163","559575.4000000954","561321.2000000477","[""stimuli/WF11_SC.jpg"",""stimuli/AM06_SUR.jpg"",""stimuli/HM10_CC.jpg"",""stimuli/AF09_FO.jpg""]","stimuli/WF11_SC.jpg","stimuli/AM06_SUR.jpg","stimuli/HM10_CC.jpg","stimuli/AF09_FO.jpg","pos1","stimuli/WF11_SC.jpg","SC","WF11","0","5","10","8","stimuli/stars_10.png","313","[""SC"",""SUR"",""CC"",""FO""]","[""WF11"",""AM06"",""HM10"",""AF09""]","[10,5,1,3]","[8,6,2,4]","","",""
"show-reward","192","561966","0.0-192.0","p461825","AM65LGXJBTJ0I","3087LXLJ6NMH85PJ46SJUKP4Z1V0FD","3WS1NTTKE0IKVPNDU8XKJ4KTICO0FV","emotion","match","uniform","","","","","","","","561822.5","563825.2000000477","","","","","","","","","","","","10","","stimuli/stars_10.png","313","","","","","stimuli/WF11_SC.jpg","",""
"explore-choice","193","565088","0.0-193.0","p461825","AM65LGXJBTJ0I","3087LXLJ6NMH85PJ46SJUKP4Z1V0FD","3WS1NTTKE0IKVPNDU8XKJ4KTICO0FV","emotion","match","uniform","","","","","","","2619.399999976158","563825.7000000477","566445.1000000238","[""stimuli/AF09_SUR.jpg"",""stimuli/WF11_FO.jpg"",""stimuli/HM10_SC.jpg"",""stimuli/AM06_CC.jpg""]","stimuli/AF09_SUR.jpg","stimuli/WF11_FO.jpg","stimuli/HM10_SC.jpg","stimuli/AM06_CC.jpg","pos1","stimuli/AF09_SUR.jpg","SUR","AF09","0","3.5","7","6","stimuli/stars_7.png","316.5","[""SUR"",""FO"",""SC"",""CC""]","[""AF09"",""WF11"",""HM10"",""AM06""]","[7,2,8,3]","[6,4,8,2]","","",""
"show-reward","194","567092","0.0-194.0","p461825","AM65LGXJBTJ0I","3087LXLJ6NMH85PJ46SJUKP4Z1V0FD","3WS1NTTKE0IKVPNDU8XKJ4KTICO0FV","emotion","match","uniform","","","","","","","","566947.4000000954","568950.7000000477","","","","","","","","","","","","7","","stimuli/stars_7.png","316.5","","","","","stimuli/AF09_SUR.jpg","",""
"explore-choice","195","570412","0.0-195.0","p461825","AM65LGXJBTJ0I","3087LXLJ6NMH85PJ46SJUKP4Z1V0FD","3WS1NTTKE0IKVPNDU8XKJ4KTICO0FV","emotion","match","uniform","","","","","","","2818.899999976158","568951.3000000715","571770.2000000477","[""stimuli/WF11_SC.jpg"",""stimuli/AF09_SUR.jpg"",""stimuli/HM10_FO.jpg"",""stimuli/AM06_CC.jpg""]","stimuli/WF11_SC.jpg","stimuli/AF09_SUR.jpg","stimuli/HM10_FO.jpg","stimuli/AM06_CC.jpg","pos2","stimuli/AF09_SUR.jpg","SUR","AF09","1","3.5","7","6","stimuli/stars_7.png","320","[""SC"",""SUR"",""FO"",""CC""]","[""WF11"",""AF09"",""HM10"",""AM06""]","[8,7,5,1]","[8,6,4,2]","","",""
"show-reward","196","572424","0.0-196.0","p461825","AM65LGXJBTJ0I","3087LXLJ6NMH85PJ46SJUKP4Z1V0FD","3WS1NTTKE0IKVPNDU8XKJ4KTICO0FV","emotion","match","uniform","","","","","","","","572271.6000000238","574282.5","","","","","","","","","","","","7","","stimuli/stars_7.png","320","","","","","stimuli/AF09_SUR.jpg","",""
"explore-choice","197","573944","0.0-197.0","p461825","AM65LGXJBTJ0I","3087LXLJ6NMH85PJ46SJUKP4Z1V0FD","3WS1NTTKE0IKVPNDU8XKJ4KTICO0FV","emotion","match","uniform","","","","","","","1019.2000000476837","574283.1000000238","575302.3000000715","[""stimuli/AF09_SUR.jpg"",""stimuli/WF11_SC.jpg"",""stimuli/HM10_CC.jpg"",""stimuli/AM06_FO.jpg""]","stimuli/AF09_SUR.jpg","stimuli/WF11_SC.jpg","stimuli/HM10_CC.jpg","stimuli/AM06_FO.jpg","pos1","stimuli/AF09_SUR.jpg","SUR","AF09","0","2.5","5","6","stimuli/stars_5.png","322.5","[""SUR"",""SC"",""CC"",""FO""]","[""AF09"",""WF11"",""HM10"",""AM06""]","[5,6,0,6]","[6,8,2,4]","","",""
"show-reward","198","575947","0.0-198.0","p461825","AM65LGXJBTJ0I","3087LXLJ6NMH85PJ46SJUKP4Z1V0FD","3WS1NTTKE0IKVPNDU8XKJ4KTICO0FV","emotion","match","uniform","","","","","","","","575803.4000000954","577805.6000000238","","","","","","","","","","","","5","","stimuli/stars_5.png","322.5","","","","","stimuli/AF09_SUR.jpg","",""
"instructions","199","580116","0.0-199.0","p461825","AM65LGXJBTJ0I","3087LXLJ6NMH85PJ46SJUKP4Z1V0FD","3WS1NTTKE0IKVPNDU8XKJ4KTICO0FV","emotion","match","uniform","","","","","","[{""page_index"":0,""viewing_time"":4167.699999928474}]","4168.199999928474","","","","","","","","","","","","","","","","","","","","","","","",""
"survey-text","200","583827","0.0-200.0-0.0","p461825","AM65LGXJBTJ0I","3087LXLJ6NMH85PJ46SJUKP4Z1V0FD","3WS1NTTKE0IKVPNDU8XKJ4KTICO0FV","emotion","match","uniform","","","","","","","3709.100000023842","","","","","","","","","","","","","","","","","","","","","","","{""age"":""33""}",""
"survey-text","201","586509","0.0-200.0-1.0","p461825","AM65LGXJBTJ0I","3087LXLJ6NMH85PJ46SJUKP4Z1V0FD","3WS1NTTKE0IKVPNDU8XKJ4KTICO0FV","emotion","match","uniform","","","","","","","2680.600000023842","","","","","","","","","","","","","","","","","","","","","","","{""gender"":""male""}",""
"survey-text","202","589723","0.0-200.0-2.0","p461825","AM65LGXJBTJ0I","3087LXLJ6NMH85PJ46SJUKP4Z1V0FD","3WS1NTTKE0IKVPNDU8XKJ4KTICO0FV","emotion","match","uniform","","","","","","","3212.100000023842","","","","","","","","","","","","","","","","","","","","","","","{""country"":""United States""}",""
"survey-text","203","594806","0.0-200.0-3.0","p461825","AM65LGXJBTJ0I","3087LXLJ6NMH85PJ46SJUKP4Z1V0FD","3WS1NTTKE0IKVPNDU8XKJ4KTICO0FV","emotion","match","uniform","","","","","","","5080.599999904633","","","","","","","","","","","","","","","","","","","","","","","{""language"":""English"",""other_languages"":""None""}",""
"survey-multi-select","204","596939","0.0-201.0","p461825","AM65LGXJBTJ0I","3087LXLJ6NMH85PJ46SJUKP4Z1V0FD","3WS1NTTKE0IKVPNDU8XKJ4KTICO0FV","emotion","match","uniform","","","","","","","2130.2000000476837","","","","","","","","","","","","","","","","","","","","","","","{""race"":[""White""]}","[0]"
"survey-multi-choice","205","599164","0.0-202.0","p461825","AM65LGXJBTJ0I","3087LXLJ6NMH85PJ46SJUKP4Z1V0FD","3WS1NTTKE0IKVPNDU8XKJ4KTICO0FV","emotion","match","uniform","","","","","","","2223","","","","","","","","","","","","","","","","","","","","","","","{""education"":""Some college/ university""}","[0]"
"survey-text","206","687356","0.0-203.0","p461825","AM65LGXJBTJ0I","3087LXLJ6NMH85PJ46SJUKP4Z1V0FD","3WS1NTTKE0IKVPNDU8XKJ4KTICO0FV","emotion","match","uniform","","","","","","","88188.30000007153","","","","","","","","","","","","","","","","","","","","","","","{""patterns"":""Yes, it seemed like at the beginning, clicking on faces that looked more angry gave more stars. Then the set of faces switched later in the experiment and it seemed this pattern became more random or non-existent."",""strategy"":""Yes, I tried to click on angry faces at the beginning and toward the end I kind of just tried to click faces that looked similar to faces that previously gave a lot of stars."",""comments"":""All was good, thank you!""}",""
