"trial_type","trial_index","time_elapsed","internal_node_id","subject","workerId","hitId","assignmentId","structure_condition","match_condition","noise_type","success","timeout","failed_images","failed_audio","failed_video","view_history","rt","start_time","end_time","stimuli","image1","image2","image3","image4","choiceLocation","choiceImage","choiceEmotion","choiceModel","choice_index","reward_score","reward","reward_score_unadjusted","reward_image","score_after_trial","emotions","models","rewards","rewards_unadjusted","stimulus","response","question_order"
"pavlovia","0","6","0.0-0.0","p192278","A1V2H0UF94ATWY","3UUIU9GZC6BQMHTLWW3KSJ0W7IE5TB","34T446B1C2KDSD33367JBYZQLZW0CK","model","match","uniform","","","","","","","","","","","","","","","","","","","","","","","","","","","","","","",""
"preload","1","3961","0.0-1.0","p192278","A1V2H0UF94ATWY","3UUIU9GZC6BQMHTLWW3KSJ0W7IE5TB","34T446B1C2KDSD33367JBYZQLZW0CK","model","match","uniform","true","false","[]","[]","[]","","","","","","","","","","","","","","","","","","","","","","","","","",""
"fullscreen","2","7548","0.0-2.0","p192278","A1V2H0UF94ATWY","3UUIU9GZC6BQMHTLWW3KSJ0W7IE5TB","34T446B1C2KDSD33367JBYZQLZW0CK","model","match","uniform","true","","","","","","","","","","","","","","","","","","","","","","","","","","","","","",""
"instructions","3","11779","0.0-3.0","p192278","A1V2H0UF94ATWY","3UUIU9GZC6BQMHTLWW3KSJ0W7IE5TB","34T446B1C2KDSD33367JBYZQLZW0CK","model","match","uniform","","","","","","[{""page_index"":0,""viewing_time"":4229.199999999255}]","4229.5","","","","","","","","","","","","","","","","","","","","","","","",""
"explore-choice","4","14299","0.0-4.0","p192278","A1V2H0UF94ATWY","3UUIU9GZC6BQMHTLWW3KSJ0W7IE5TB","34T446B1C2KDSD33367JBYZQLZW0CK","model","match","uniform","","","","","","","2007.2000000001863","13148.900000000373","15156.100000000559","[""stimuli/sheep.jpg"",""stimuli/hammer.jpg"",""stimuli/basketball.jpg"",""stimuli/horse.jpg""]","stimuli/sheep.jpg","stimuli/hammer.jpg","stimuli/basketball.jpg","stimuli/horse.jpg","pos4","stimuli/horse.jpg","","","3","64","64","64","stimuli/stars_8.png","65","","","","","","",""
"explore-choice","5","16097","0.0-5.0","p192278","A1V2H0UF94ATWY","3UUIU9GZC6BQMHTLWW3KSJ0W7IE5TB","34T446B1C2KDSD33367JBYZQLZW0CK","model","match","uniform","","","","","","","1286.8999999994412","15669.100000000559","16956","[""stimuli/hammer.jpg"",""stimuli/basketball.jpg"",""stimuli/horse.jpg"",""stimuli/sheep.jpg""]","stimuli/hammer.jpg","stimuli/basketball.jpg","stimuli/horse.jpg","stimuli/sheep.jpg","pos1","stimuli/hammer.jpg","","","0","8","8","8","stimuli/stars_2.png","9","","","","","","",""
"instructions","6","24428","0.0-6.0","p192278","A1V2H0UF94ATWY","3UUIU9GZC6BQMHTLWW3KSJ0W7IE5TB","34T446B1C2KDSD33367JBYZQLZW0CK","model","match","uniform","","","","","","[{""page_index"":0,""viewing_time"":8329.099999999627}]","8329.299999999814","","","","","","","","","","","","","","","","","","","","","","","",""
"explore-choice","7","25912","0.0-7.0","p192278","A1V2H0UF94ATWY","3UUIU9GZC6BQMHTLWW3KSJ0W7IE5TB","34T446B1C2KDSD33367JBYZQLZW0CK","model","match","uniform","","","","","","","982.2999999998137","25797.800000000745","26780.10000000056","[""stimuli/WM13_AO.jpg"",""stimuli/BM03_SC.jpg"",""stimuli/AM09_FO.jpg"",""stimuli/WM11_DO.jpg""]","stimuli/WM13_AO.jpg","stimuli/BM03_SC.jpg","stimuli/AM09_FO.jpg","stimuli/WM11_DO.jpg","pos2","stimuli/BM03_SC.jpg","SC","BM03","1","1.5","3","2","stimuli/stars_3.png","2.5","[""AO"",""SC"",""FO"",""DO""]","[""WM13"",""BM03"",""AM09"",""WM11""]","[9,3,4,8]","[8,2,4,6]","","",""
"show-reward","8","27916","0.0-8.0","p192278","A1V2H0UF94ATWY","3UUIU9GZC6BQMHTLWW3KSJ0W7IE5TB","34T446B1C2KDSD33367JBYZQLZW0CK","model","match","uniform","","","","","","","","27281.60000000056","29284.5","","","","","","","","","","","","3","","stimuli/stars_3.png","2.5","","","","","stimuli/BM03_SC.jpg","",""
"explore-choice","9","31200","0.0-9.0","p192278","A1V2H0UF94ATWY","3UUIU9GZC6BQMHTLWW3KSJ0W7IE5TB","34T446B1C2KDSD33367JBYZQLZW0CK","model","match","uniform","","","","","","","2782.899999999441","29285.10000000056","32068","[""stimuli/WM13_DO.jpg"",""stimuli/AM09_SC.jpg"",""stimuli/WM11_FO.jpg"",""stimuli/BM03_AO.jpg""]","stimuli/WM13_DO.jpg","stimuli/AM09_SC.jpg","stimuli/WM11_FO.jpg","stimuli/BM03_AO.jpg","pos1","stimuli/WM13_DO.jpg","DO","WM13","0","3.5","7","8","stimuli/stars_7.png","6","[""DO"",""SC"",""FO"",""AO""]","[""WM13"",""AM09"",""WM11"",""BM03""]","[7,6,7,1]","[8,4,6,2]","","",""
"show-reward","10","33212","0.0-10.0","p192278","A1V2H0UF94ATWY","3UUIU9GZC6BQMHTLWW3KSJ0W7IE5TB","34T446B1C2KDSD33367JBYZQLZW0CK","model","match","uniform","","","","","","","","32570","34580.200000000186","","","","","","","","","","","","7","","stimuli/stars_7.png","6","","","","","stimuli/WM13_DO.jpg","",""
"explore-choice","11","36479","0.0-11.0","p192278","A1V2H0UF94ATWY","3UUIU9GZC6BQMHTLWW3KSJ0W7IE5TB","34T446B1C2KDSD33367JBYZQLZW0CK","model","match","uniform","","","","","","","2759.4000000003725","34581.200000000186","37340.60000000056","[""stimuli/BM03_SC.jpg"",""stimuli/WM13_AO.jpg"",""stimuli/WM11_FO.jpg"",""stimuli/AM09_DO.jpg""]","stimuli/BM03_SC.jpg","stimuli/WM13_AO.jpg","stimuli/WM11_FO.jpg","stimuli/AM09_DO.jpg","pos4","stimuli/AM09_DO.jpg","DO","AM09","3","2","4","4","stimuli/stars_4.png","8","[""SC"",""AO"",""FO"",""DO""]","[""BM03"",""WM13"",""WM11"",""AM09""]","[1,9,4,4]","[2,8,6,4]","","",""
"show-reward","12","38483","0.0-12.0","p192278","A1V2H0UF94ATWY","3UUIU9GZC6BQMHTLWW3KSJ0W7IE5TB","34T446B1C2KDSD33367JBYZQLZW0CK","model","match","uniform","","","","","","","","37848.40000000037","39851.10000000056","","","","","","","","","","","","4","","stimuli/stars_4.png","8","","","","","stimuli/AM09_DO.jpg","",""
"explore-choice","13","40104","0.0-13.0","p192278","A1V2H0UF94ATWY","3UUIU9GZC6BQMHTLWW3KSJ0W7IE5TB","34T446B1C2KDSD33367JBYZQLZW0CK","model","match","uniform","","","","","","","1119.7000000001863","39852.40000000037","40972.10000000056","[""stimuli/AM09_AO.jpg"",""stimuli/WM13_FO.jpg"",""stimuli/BM03_DO.jpg"",""stimuli/WM11_SC.jpg""]","stimuli/AM09_AO.jpg","stimuli/WM13_FO.jpg","stimuli/BM03_DO.jpg","stimuli/WM11_SC.jpg","pos2","stimuli/WM13_FO.jpg","FO","WM13","1","3.5","7","8","stimuli/stars_7.png","11.5","[""AO"",""FO"",""DO"",""SC""]","[""AM09"",""WM13"",""BM03"",""WM11""]","[5,7,4,6]","[4,8,2,6]","","",""
"show-reward","14","42119","0.0-14.0","p192278","A1V2H0UF94ATWY","3UUIU9GZC6BQMHTLWW3KSJ0W7IE5TB","34T446B1C2KDSD33367JBYZQLZW0CK","model","match","uniform","","","","","","","","41474","43487.700000000186","","","","","","","","","","","","7","","stimuli/stars_7.png","11.5","","","","","stimuli/WM13_FO.jpg","",""
"explore-choice","15","43998","0.0-15.0","p192278","A1V2H0UF94ATWY","3UUIU9GZC6BQMHTLWW3KSJ0W7IE5TB","34T446B1C2KDSD33367JBYZQLZW0CK","model","match","uniform","","","","","","","1369.6000000005588","43490.5","44860.10000000056","[""stimuli/WM13_AO.jpg"",""stimuli/AM09_DO.jpg"",""stimuli/WM11_SC.jpg"",""stimuli/BM03_FO.jpg""]","stimuli/WM13_AO.jpg","stimuli/AM09_DO.jpg","stimuli/WM11_SC.jpg","stimuli/BM03_FO.jpg","pos1","stimuli/WM13_AO.jpg","AO","WM13","0","3.5","7","8","stimuli/stars_7.png","15","[""AO"",""DO"",""SC"",""FO""]","[""WM13"",""AM09"",""WM11"",""BM03""]","[7,4,6,3]","[8,4,6,2]","","",""
"show-reward","16","46011","0.0-16.0","p192278","A1V2H0UF94ATWY","3UUIU9GZC6BQMHTLWW3KSJ0W7IE5TB","34T446B1C2KDSD33367JBYZQLZW0CK","model","match","uniform","","","","","","","","45367.10000000056","47380.10000000056","","","","","","","","","","","","7","","stimuli/stars_7.png","15","","","","","stimuli/WM13_AO.jpg","",""
"explore-choice","17","48953","0.0-17.0","p192278","A1V2H0UF94ATWY","3UUIU9GZC6BQMHTLWW3KSJ0W7IE5TB","34T446B1C2KDSD33367JBYZQLZW0CK","model","match","uniform","","","","","","","2438.7999999998137","47381.10000000056","49819.90000000037","[""stimuli/WM11_SC.jpg"",""stimuli/WM13_DO.jpg"",""stimuli/BM03_AO.jpg"",""stimuli/AM09_FO.jpg""]","stimuli/WM11_SC.jpg","stimuli/WM13_DO.jpg","stimuli/BM03_AO.jpg","stimuli/AM09_FO.jpg","pos1","stimuli/WM11_SC.jpg","SC","WM11","0","2","4","6","stimuli/stars_4.png","17","[""SC"",""DO"",""AO"",""FO""]","[""WM11"",""WM13"",""BM03"",""AM09""]","[4,9,2,6]","[6,8,2,4]","","",""
"show-reward","18","50966","0.0-18.0","p192278","A1V2H0UF94ATWY","3UUIU9GZC6BQMHTLWW3KSJ0W7IE5TB","34T446B1C2KDSD33367JBYZQLZW0CK","model","match","uniform","","","","","","","","50322.60000000056","52334.700000000186","","","","","","","","","","","","4","","stimuli/stars_4.png","17","","","","","stimuli/WM11_SC.jpg","",""
"explore-choice","19","52412","0.0-19.0","p192278","A1V2H0UF94ATWY","3UUIU9GZC6BQMHTLWW3KSJ0W7IE5TB","34T446B1C2KDSD33367JBYZQLZW0CK","model","match","uniform","","","","","","","933","52335.800000000745","53268.800000000745","[""stimuli/BM03_FO.jpg"",""stimuli/WM13_AO.jpg"",""stimuli/AM09_SC.jpg"",""stimuli/WM11_DO.jpg""]","stimuli/BM03_FO.jpg","stimuli/WM13_AO.jpg","stimuli/AM09_SC.jpg","stimuli/WM11_DO.jpg","pos2","stimuli/WM13_AO.jpg","AO","WM13","1","4.5","9","8","stimuli/stars_9.png","21.5","[""FO"",""AO"",""SC"",""DO""]","[""BM03"",""WM13"",""AM09"",""WM11""]","[4,9,4,4]","[2,8,4,6]","","",""
"show-reward","20","54420","0.0-20.0","p192278","A1V2H0UF94ATWY","3UUIU9GZC6BQMHTLWW3KSJ0W7IE5TB","34T446B1C2KDSD33367JBYZQLZW0CK","model","match","uniform","","","","","","","","53781.200000000186","55788.200000000186","","","","","","","","","","","","9","","stimuli/stars_9.png","21.5","","","","","stimuli/WM13_AO.jpg","",""
"explore-choice","21","57291","0.0-21.0","p192278","A1V2H0UF94ATWY","3UUIU9GZC6BQMHTLWW3KSJ0W7IE5TB","34T446B1C2KDSD33367JBYZQLZW0CK","model","match","uniform","","","","","","","2358.0999999996275","55789.90000000037","58148","[""stimuli/AM09_SC.jpg"",""stimuli/WM11_AO.jpg"",""stimuli/BM03_DO.jpg"",""stimuli/WM13_FO.jpg""]","stimuli/AM09_SC.jpg","stimuli/WM11_AO.jpg","stimuli/BM03_DO.jpg","stimuli/WM13_FO.jpg","pos4","stimuli/WM13_FO.jpg","FO","WM13","3","5","10","8","stimuli/stars_10.png","26.5","[""SC"",""AO"",""DO"",""FO""]","[""AM09"",""WM11"",""BM03"",""WM13""]","[4,7,1,10]","[4,6,2,8]","","",""
"show-reward","22","59308","0.0-22.0","p192278","A1V2H0UF94ATWY","3UUIU9GZC6BQMHTLWW3KSJ0W7IE5TB","34T446B1C2KDSD33367JBYZQLZW0CK","model","match","uniform","","","","","","","","58660.40000000037","60676.10000000056","","","","","","","","","","","","10","","stimuli/stars_10.png","26.5","","","","","stimuli/WM13_FO.jpg","",""
"explore-choice","23","61234","0.0-23.0","p192278","A1V2H0UF94ATWY","3UUIU9GZC6BQMHTLWW3KSJ0W7IE5TB","34T446B1C2KDSD33367JBYZQLZW0CK","model","match","uniform","","","","","","","1415","60677.200000000186","62092.200000000186","[""stimuli/BM03_DO.jpg"",""stimuli/WM13_SC.jpg"",""stimuli/WM11_FO.jpg"",""stimuli/AM09_AO.jpg""]","stimuli/BM03_DO.jpg","stimuli/WM13_SC.jpg","stimuli/WM11_FO.jpg","stimuli/AM09_AO.jpg","pos3","stimuli/WM11_FO.jpg","FO","WM11","2","2","4","6","stimuli/stars_4.png","28.5","[""DO"",""SC"",""FO"",""AO""]","[""BM03"",""WM13"",""WM11"",""AM09""]","[0,8,4,3]","[2,8,6,4]","","",""
"show-reward","24","63249","0.0-24.0","p192278","A1V2H0UF94ATWY","3UUIU9GZC6BQMHTLWW3KSJ0W7IE5TB","34T446B1C2KDSD33367JBYZQLZW0CK","model","match","uniform","","","","","","","","62602.5","64617","","","","","","","","","","","","4","","stimuli/stars_4.png","28.5","","","","","stimuli/WM11_FO.jpg","",""
"explore-choice","25","65619","0.0-25.0","p192278","A1V2H0UF94ATWY","3UUIU9GZC6BQMHTLWW3KSJ0W7IE5TB","34T446B1C2KDSD33367JBYZQLZW0CK","model","match","uniform","","","","","","","1859.2999999998137","64617.40000000037","66476.70000000019","[""stimuli/WM11_AO.jpg"",""stimuli/BM03_SC.jpg"",""stimuli/WM13_DO.jpg"",""stimuli/AM09_FO.jpg""]","stimuli/WM11_AO.jpg","stimuli/BM03_SC.jpg","stimuli/WM13_DO.jpg","stimuli/AM09_FO.jpg","pos3","stimuli/WM13_DO.jpg","DO","WM13","2","5","10","8","stimuli/stars_10.png","33.5","[""AO"",""SC"",""DO"",""FO""]","[""WM11"",""BM03"",""WM13"",""AM09""]","[5,0,10,3]","[6,2,8,4]","","",""
"show-reward","26","67634","0.0-26.0","p192278","A1V2H0UF94ATWY","3UUIU9GZC6BQMHTLWW3KSJ0W7IE5TB","34T446B1C2KDSD33367JBYZQLZW0CK","model","match","uniform","","","","","","","","66987.90000000037","69002.10000000056","","","","","","","","","","","","10","","stimuli/stars_10.png","33.5","","","","","stimuli/WM13_DO.jpg","",""
"explore-choice","27","69922","0.0-27.0","p192278","A1V2H0UF94ATWY","3UUIU9GZC6BQMHTLWW3KSJ0W7IE5TB","34T446B1C2KDSD33367JBYZQLZW0CK","model","match","uniform","","","","","","","1784.4000000003725","69003.70000000019","70788.10000000056","[""stimuli/WM11_FO.jpg"",""stimuli/AM09_SC.jpg"",""stimuli/BM03_DO.jpg"",""stimuli/WM13_AO.jpg""]","stimuli/WM11_FO.jpg","stimuli/AM09_SC.jpg","stimuli/BM03_DO.jpg","stimuli/WM13_AO.jpg","pos4","stimuli/WM13_AO.jpg","AO","WM13","3","4","8","8","stimuli/stars_8.png","37.5","[""FO"",""SC"",""DO"",""AO""]","[""WM11"",""AM09"",""BM03"",""WM13""]","[8,6,4,8]","[6,4,2,8]","","",""
"show-reward","28","71929","0.0-28.0","p192278","A1V2H0UF94ATWY","3UUIU9GZC6BQMHTLWW3KSJ0W7IE5TB","34T446B1C2KDSD33367JBYZQLZW0CK","model","match","uniform","","","","","","","","71290.90000000037","73297.10000000056","","","","","","","","","","","","8","","stimuli/stars_8.png","37.5","","","","","stimuli/WM13_AO.jpg","",""
"explore-choice","29","73730","0.0-29.0","p192278","A1V2H0UF94ATWY","3UUIU9GZC6BQMHTLWW3KSJ0W7IE5TB","34T446B1C2KDSD33367JBYZQLZW0CK","model","match","uniform","","","","","","","1297.7999999998137","73298.30000000075","74596.10000000056","[""stimuli/AM09_SC.jpg"",""stimuli/WM11_AO.jpg"",""stimuli/WM13_DO.jpg"",""stimuli/BM03_FO.jpg""]","stimuli/AM09_SC.jpg","stimuli/WM11_AO.jpg","stimuli/WM13_DO.jpg","stimuli/BM03_FO.jpg","pos3","stimuli/WM13_DO.jpg","DO","WM13","2","3.5","7","8","stimuli/stars_7.png","41","[""SC"",""AO"",""DO"",""FO""]","[""AM09"",""WM11"",""WM13"",""BM03""]","[5,4,7,2]","[4,6,8,2]","","",""
"show-reward","30","75747","0.0-30.0","p192278","A1V2H0UF94ATWY","3UUIU9GZC6BQMHTLWW3KSJ0W7IE5TB","34T446B1C2KDSD33367JBYZQLZW0CK","model","match","uniform","","","","","","","","75099.40000000037","77115.20000000019","","","","","","","","","","","","7","","stimuli/stars_7.png","41","","","","","stimuli/WM13_DO.jpg","",""
"explore-choice","31","77512","0.0-31.0","p192278","A1V2H0UF94ATWY","3UUIU9GZC6BQMHTLWW3KSJ0W7IE5TB","34T446B1C2KDSD33367JBYZQLZW0CK","model","match","uniform","","","","","","","1263.0999999996275","77116.90000000037","78380","[""stimuli/WM13_DO.jpg"",""stimuli/BM03_FO.jpg"",""stimuli/AM09_AO.jpg"",""stimuli/WM11_SC.jpg""]","stimuli/WM13_DO.jpg","stimuli/BM03_FO.jpg","stimuli/AM09_AO.jpg","stimuli/WM11_SC.jpg","pos2","stimuli/BM03_FO.jpg","FO","BM03","1","0.5","1","2","stimuli/stars_1.png","41.5","[""DO"",""FO"",""AO"",""SC""]","[""WM13"",""BM03"",""AM09"",""WM11""]","[8,1,3,8]","[8,2,4,6]","","",""
"show-reward","32","79530","0.0-32.0","p192278","A1V2H0UF94ATWY","3UUIU9GZC6BQMHTLWW3KSJ0W7IE5TB","34T446B1C2KDSD33367JBYZQLZW0CK","model","match","uniform","","","","","","","","78881.30000000075","80898.70000000019","","","","","","","","","","","","1","","stimuli/stars_1.png","41.5","","","","","stimuli/BM03_FO.jpg","",""
"explore-choice","33","80954","0.0-33.0","p192278","A1V2H0UF94ATWY","3UUIU9GZC6BQMHTLWW3KSJ0W7IE5TB","34T446B1C2KDSD33367JBYZQLZW0CK","model","match","uniform","","","","","","","912.1999999992549","80899.80000000075","81812","[""stimuli/AM09_DO.jpg"",""stimuli/WM13_SC.jpg"",""stimuli/WM11_FO.jpg"",""stimuli/BM03_AO.jpg""]","stimuli/AM09_DO.jpg","stimuli/WM13_SC.jpg","stimuli/WM11_FO.jpg","stimuli/BM03_AO.jpg","pos1","stimuli/AM09_DO.jpg","DO","AM09","0","1","2","4","stimuli/stars_2.png","42.5","[""DO"",""SC"",""FO"",""AO""]","[""AM09"",""WM13"",""WM11"",""BM03""]","[2,9,4,3]","[4,8,6,2]","","",""
"show-reward","34","82963","0.0-34.0","p192278","A1V2H0UF94ATWY","3UUIU9GZC6BQMHTLWW3KSJ0W7IE5TB","34T446B1C2KDSD33367JBYZQLZW0CK","model","match","uniform","","","","","","","","82323.60000000056","84330.70000000019","","","","","","","","","","","","2","","stimuli/stars_2.png","42.5","","","","","stimuli/AM09_DO.jpg","",""
"explore-choice","35","86977","0.0-35.0","p192278","A1V2H0UF94ATWY","3UUIU9GZC6BQMHTLWW3KSJ0W7IE5TB","34T446B1C2KDSD33367JBYZQLZW0CK","model","match","uniform","","","","","","","3511.899999999441","84332.10000000056","87844","[""stimuli/WM11_AO.jpg"",""stimuli/WM13_SC.jpg"",""stimuli/AM09_FO.jpg"",""stimuli/BM03_DO.jpg""]","stimuli/WM11_AO.jpg","stimuli/WM13_SC.jpg","stimuli/AM09_FO.jpg","stimuli/BM03_DO.jpg","pos2","stimuli/WM13_SC.jpg","SC","WM13","1","4.5","9","8","stimuli/stars_9.png","47","[""AO"",""SC"",""FO"",""DO""]","[""WM11"",""WM13"",""AM09"",""BM03""]","[7,9,3,4]","[6,8,4,2]","","",""
"show-reward","36","88984","0.0-36.0","p192278","A1V2H0UF94ATWY","3UUIU9GZC6BQMHTLWW3KSJ0W7IE5TB","34T446B1C2KDSD33367JBYZQLZW0CK","model","match","uniform","","","","","","","","88346.40000000037","90352.70000000019","","","","","","","","","","","","9","","stimuli/stars_9.png","47","","","","","stimuli/WM13_SC.jpg","",""
"explore-choice","37","90434","0.0-37.0","p192278","A1V2H0UF94ATWY","3UUIU9GZC6BQMHTLWW3KSJ0W7IE5TB","34T446B1C2KDSD33367JBYZQLZW0CK","model","match","uniform","","","","","","","938.2999999998137","90353.80000000075","91292.10000000056","[""stimuli/AM09_DO.jpg"",""stimuli/WM13_FO.jpg"",""stimuli/WM11_SC.jpg"",""stimuli/BM03_AO.jpg""]","stimuli/AM09_DO.jpg","stimuli/WM13_FO.jpg","stimuli/WM11_SC.jpg","stimuli/BM03_AO.jpg","pos2","stimuli/WM13_FO.jpg","FO","WM13","1","3.5","7","8","stimuli/stars_7.png","50.5","[""DO"",""FO"",""SC"",""AO""]","[""AM09"",""WM13"",""WM11"",""BM03""]","[2,7,6,1]","[4,8,6,2]","","",""
"show-reward","38","92437","0.0-38.0","p192278","A1V2H0UF94ATWY","3UUIU9GZC6BQMHTLWW3KSJ0W7IE5TB","34T446B1C2KDSD33367JBYZQLZW0CK","model","match","uniform","","","","","","","","91803.20000000019","93805.20000000019","","","","","","","","","","","","7","","stimuli/stars_7.png","50.5","","","","","stimuli/WM13_FO.jpg","",""
"explore-choice","39","94181","0.0-39.0","p192278","A1V2H0UF94ATWY","3UUIU9GZC6BQMHTLWW3KSJ0W7IE5TB","34T446B1C2KDSD33367JBYZQLZW0CK","model","match","uniform","","","","","","","1230","93806.20000000019","95036.20000000019","[""stimuli/WM13_SC.jpg"",""stimuli/WM11_AO.jpg"",""stimuli/AM09_DO.jpg"",""stimuli/BM03_FO.jpg""]","stimuli/WM13_SC.jpg","stimuli/WM11_AO.jpg","stimuli/AM09_DO.jpg","stimuli/BM03_FO.jpg","pos1","stimuli/WM13_SC.jpg","SC","WM13","0","3","6","8","stimuli/stars_6.png","53.5","[""SC"",""AO"",""DO"",""FO""]","[""WM13"",""WM11"",""AM09"",""BM03""]","[6,5,5,3]","[8,6,4,2]","","",""
"show-reward","40","96192","0.0-40.0","p192278","A1V2H0UF94ATWY","3UUIU9GZC6BQMHTLWW3KSJ0W7IE5TB","34T446B1C2KDSD33367JBYZQLZW0CK","model","match","uniform","","","","","","","","95550.90000000037","97559.90000000037","","","","","","","","","","","","6","","stimuli/stars_6.png","53.5","","","","","stimuli/WM13_SC.jpg","",""
"explore-choice","41","97886","0.0-41.0","p192278","A1V2H0UF94ATWY","3UUIU9GZC6BQMHTLWW3KSJ0W7IE5TB","34T446B1C2KDSD33367JBYZQLZW0CK","model","match","uniform","","","","","","","1187","97561.30000000075","98748.30000000075","[""stimuli/WM11_SC.jpg"",""stimuli/WM13_AO.jpg"",""stimuli/BM03_DO.jpg"",""stimuli/AM09_FO.jpg""]","stimuli/WM11_SC.jpg","stimuli/WM13_AO.jpg","stimuli/BM03_DO.jpg","stimuli/AM09_FO.jpg","pos2","stimuli/WM13_AO.jpg","AO","WM13","1","3.5","7","8","stimuli/stars_7.png","57","[""SC"",""AO"",""DO"",""FO""]","[""WM11"",""WM13"",""BM03"",""AM09""]","[4,7,3,2]","[6,8,2,4]","","",""
"show-reward","42","99896","0.0-42.0","p192278","A1V2H0UF94ATWY","3UUIU9GZC6BQMHTLWW3KSJ0W7IE5TB","34T446B1C2KDSD33367JBYZQLZW0CK","model","match","uniform","","","","","","","","99255.10000000056","101264.20000000019","","","","","","","","","","","","7","","stimuli/stars_7.png","57","","","","","stimuli/WM13_AO.jpg","",""
"explore-choice","43","101875","0.0-43.0","p192278","A1V2H0UF94ATWY","3UUIU9GZC6BQMHTLWW3KSJ0W7IE5TB","34T446B1C2KDSD33367JBYZQLZW0CK","model","match","uniform","","","","","","","1466.3999999994412","101265.80000000075","102732.20000000019","[""stimuli/BM03_SC.jpg"",""stimuli/WM11_FO.jpg"",""stimuli/AM09_AO.jpg"",""stimuli/WM13_DO.jpg""]","stimuli/BM03_SC.jpg","stimuli/WM11_FO.jpg","stimuli/AM09_AO.jpg","stimuli/WM13_DO.jpg","pos4","stimuli/WM13_DO.jpg","DO","WM13","3","3.5","7","8","stimuli/stars_7.png","60.5","[""SC"",""FO"",""AO"",""DO""]","[""BM03"",""WM11"",""AM09"",""WM13""]","[2,7,2,7]","[2,6,4,8]","","",""
"show-reward","44","103893","0.0-44.0","p192278","A1V2H0UF94ATWY","3UUIU9GZC6BQMHTLWW3KSJ0W7IE5TB","34T446B1C2KDSD33367JBYZQLZW0CK","model","match","uniform","","","","","","","","103244.40000000037","105260.90000000037","","","","","","","","","","","","7","","stimuli/stars_7.png","60.5","","","","","stimuli/WM13_DO.jpg","",""
"explore-choice","45","105397","0.0-45.0","p192278","A1V2H0UF94ATWY","3UUIU9GZC6BQMHTLWW3KSJ0W7IE5TB","34T446B1C2KDSD33367JBYZQLZW0CK","model","match","uniform","","","","","","","998.0999999996275","105261.90000000037","106260","[""stimuli/AM09_SC.jpg"",""stimuli/WM11_DO.jpg"",""stimuli/BM03_AO.jpg"",""stimuli/WM13_FO.jpg""]","stimuli/AM09_SC.jpg","stimuli/WM11_DO.jpg","stimuli/BM03_AO.jpg","stimuli/WM13_FO.jpg","pos4","stimuli/WM13_FO.jpg","FO","WM13","3","5","10","8","stimuli/stars_10.png","65.5","[""SC"",""DO"",""AO"",""FO""]","[""AM09"",""WM11"",""BM03"",""WM13""]","[6,4,0,10]","[4,6,2,8]","","",""
"show-reward","46","107406","0.0-46.0","p192278","A1V2H0UF94ATWY","3UUIU9GZC6BQMHTLWW3KSJ0W7IE5TB","34T446B1C2KDSD33367JBYZQLZW0CK","model","match","uniform","","","","","","","","106765.5","108774.80000000075","","","","","","","","","","","","10","","stimuli/stars_10.png","65.5","","","","","stimuli/WM13_FO.jpg","",""
"explore-choice","47","108894","0.0-47.0","p192278","A1V2H0UF94ATWY","3UUIU9GZC6BQMHTLWW3KSJ0W7IE5TB","34T446B1C2KDSD33367JBYZQLZW0CK","model","match","uniform","","","","","","","972.2999999998137","108775.60000000056","109747.90000000037","[""stimuli/WM11_AO.jpg"",""stimuli/AM09_DO.jpg"",""stimuli/BM03_SC.jpg"",""stimuli/WM13_FO.jpg""]","stimuli/WM11_AO.jpg","stimuli/AM09_DO.jpg","stimuli/BM03_SC.jpg","stimuli/WM13_FO.jpg","pos4","stimuli/WM13_FO.jpg","FO","WM13","3","3","6","8","stimuli/stars_6.png","68.5","[""AO"",""DO"",""SC"",""FO""]","[""WM11"",""AM09"",""BM03"",""WM13""]","[7,3,0,6]","[6,4,2,8]","","",""
"show-reward","48","110897","0.0-48.0","p192278","A1V2H0UF94ATWY","3UUIU9GZC6BQMHTLWW3KSJ0W7IE5TB","34T446B1C2KDSD33367JBYZQLZW0CK","model","match","uniform","","","","","","","","110262.70000000019","112265.40000000037","","","","","","","","","","","","6","","stimuli/stars_6.png","68.5","","","","","stimuli/WM13_FO.jpg","",""
"explore-choice","49","113077","0.0-49.0","p192278","A1V2H0UF94ATWY","3UUIU9GZC6BQMHTLWW3KSJ0W7IE5TB","34T446B1C2KDSD33367JBYZQLZW0CK","model","match","uniform","","","","","","","1673.4000000003725","112266.70000000019","113940.10000000056","[""stimuli/WM13_SC.jpg"",""stimuli/WM11_DO.jpg"",""stimuli/BM03_FO.jpg"",""stimuli/AM09_AO.jpg""]","stimuli/WM13_SC.jpg","stimuli/WM11_DO.jpg","stimuli/BM03_FO.jpg","stimuli/AM09_AO.jpg","pos1","stimuli/WM13_SC.jpg","SC","WM13","0","4.5","9","8","stimuli/stars_9.png","73","[""SC"",""DO"",""FO"",""AO""]","[""WM13"",""WM11"",""BM03"",""AM09""]","[9,6,2,6]","[8,6,2,4]","","",""
"show-reward","50","115095","0.0-50.0","p192278","A1V2H0UF94ATWY","3UUIU9GZC6BQMHTLWW3KSJ0W7IE5TB","34T446B1C2KDSD33367JBYZQLZW0CK","model","match","uniform","","","","","","","","114446.70000000019","116463.20000000019","","","","","","","","","","","","9","","stimuli/stars_9.png","73","","","","","stimuli/WM13_SC.jpg","",""
"explore-choice","51","117070","0.0-51.0","p192278","A1V2H0UF94ATWY","3UUIU9GZC6BQMHTLWW3KSJ0W7IE5TB","34T446B1C2KDSD33367JBYZQLZW0CK","model","match","uniform","","","","","","","1459.5999999996275","116464.30000000075","117923.90000000037","[""stimuli/WM11_DO.jpg"",""stimuli/AM09_FO.jpg"",""stimuli/BM03_AO.jpg"",""stimuli/WM13_SC.jpg""]","stimuli/WM11_DO.jpg","stimuli/AM09_FO.jpg","stimuli/BM03_AO.jpg","stimuli/WM13_SC.jpg","pos4","stimuli/WM13_SC.jpg","SC","WM13","3","4","8","8","stimuli/stars_8.png","77","[""DO"",""FO"",""AO"",""SC""]","[""WM11"",""AM09"",""BM03"",""WM13""]","[8,4,0,8]","[6,4,2,8]","","",""
"show-reward","52","119081","0.0-52.0","p192278","A1V2H0UF94ATWY","3UUIU9GZC6BQMHTLWW3KSJ0W7IE5TB","34T446B1C2KDSD33367JBYZQLZW0CK","model","match","uniform","","","","","","","","118438.90000000037","120448.80000000075","","","","","","","","","","","","8","","stimuli/stars_8.png","77","","","","","stimuli/WM13_SC.jpg","",""
"explore-choice","53","121466","0.0-53.0","p192278","A1V2H0UF94ATWY","3UUIU9GZC6BQMHTLWW3KSJ0W7IE5TB","34T446B1C2KDSD33367JBYZQLZW0CK","model","match","uniform","","","","","","","1874.2000000001863","120450","122324.20000000019","[""stimuli/AM09_AO.jpg"",""stimuli/WM13_FO.jpg"",""stimuli/BM03_SC.jpg"",""stimuli/WM11_DO.jpg""]","stimuli/AM09_AO.jpg","stimuli/WM13_FO.jpg","stimuli/BM03_SC.jpg","stimuli/WM11_DO.jpg","pos2","stimuli/WM13_FO.jpg","FO","WM13","1","5","10","8","stimuli/stars_10.png","82","[""AO"",""FO"",""SC"",""DO""]","[""AM09"",""WM13"",""BM03"",""WM11""]","[2,10,0,4]","[4,8,2,6]","","",""
"show-reward","54","123473","0.0-54.0","p192278","A1V2H0UF94ATWY","3UUIU9GZC6BQMHTLWW3KSJ0W7IE5TB","34T446B1C2KDSD33367JBYZQLZW0CK","model","match","uniform","","","","","","","","122834.70000000019","124841.40000000037","","","","","","","","","","","","10","","stimuli/stars_10.png","82","","","","","stimuli/WM13_FO.jpg","",""
"explore-choice","55","124980","0.0-55.0","p192278","A1V2H0UF94ATWY","3UUIU9GZC6BQMHTLWW3KSJ0W7IE5TB","34T446B1C2KDSD33367JBYZQLZW0CK","model","match","uniform","","","","","","","994","124841.90000000037","125835.90000000037","[""stimuli/WM13_FO.jpg"",""stimuli/WM11_SC.jpg"",""stimuli/AM09_AO.jpg"",""stimuli/BM03_DO.jpg""]","stimuli/WM13_FO.jpg","stimuli/WM11_SC.jpg","stimuli/AM09_AO.jpg","stimuli/BM03_DO.jpg","pos1","stimuli/WM13_FO.jpg","FO","WM13","0","3.5","7","8","stimuli/stars_7.png","85.5","[""FO"",""SC"",""AO"",""DO""]","[""WM13"",""WM11"",""AM09"",""BM03""]","[7,6,5,4]","[8,6,4,2]","","",""
"show-reward","56","126986","0.0-56.0","p192278","A1V2H0UF94ATWY","3UUIU9GZC6BQMHTLWW3KSJ0W7IE5TB","34T446B1C2KDSD33367JBYZQLZW0CK","model","match","uniform","","","","","","","","126348.80000000075","128354.60000000056","","","","","","","","","","","","7","","stimuli/stars_7.png","85.5","","","","","stimuli/WM13_FO.jpg","",""
"explore-choice","57","128620","0.0-57.0","p192278","A1V2H0UF94ATWY","3UUIU9GZC6BQMHTLWW3KSJ0W7IE5TB","34T446B1C2KDSD33367JBYZQLZW0CK","model","match","uniform","","","","","","","1120.7999999998137","128355.40000000037","129476.20000000019","[""stimuli/WM13_DO.jpg"",""stimuli/WM11_AO.jpg"",""stimuli/BM03_FO.jpg"",""stimuli/AM09_SC.jpg""]","stimuli/WM13_DO.jpg","stimuli/WM11_AO.jpg","stimuli/BM03_FO.jpg","stimuli/AM09_SC.jpg","pos1","stimuli/WM13_DO.jpg","DO","WM13","0","3.5","7","8","stimuli/stars_7.png","89","[""DO"",""AO"",""FO"",""SC""]","[""WM13"",""WM11"",""BM03"",""AM09""]","[7,4,2,5]","[8,6,2,4]","","",""
"show-reward","58","130632","0.0-58.0","p192278","A1V2H0UF94ATWY","3UUIU9GZC6BQMHTLWW3KSJ0W7IE5TB","34T446B1C2KDSD33367JBYZQLZW0CK","model","match","uniform","","","","","","","","129989.5","131999.60000000056","","","","","","","","","","","","7","","stimuli/stars_7.png","89","","","","","stimuli/WM13_DO.jpg","",""
"explore-choice","59","133172","0.0-59.0","p192278","A1V2H0UF94ATWY","3UUIU9GZC6BQMHTLWW3KSJ0W7IE5TB","34T446B1C2KDSD33367JBYZQLZW0CK","model","match","uniform","","","","","","","2035.0999999996275","132000.90000000037","134036","[""stimuli/WM11_FO.jpg"",""stimuli/AM09_DO.jpg"",""stimuli/WM13_AO.jpg"",""stimuli/BM03_SC.jpg""]","stimuli/WM11_FO.jpg","stimuli/AM09_DO.jpg","stimuli/WM13_AO.jpg","stimuli/BM03_SC.jpg","pos3","stimuli/WM13_AO.jpg","AO","WM13","2","4.5","9","8","stimuli/stars_9.png","93.5","[""FO"",""DO"",""AO"",""SC""]","[""WM11"",""AM09"",""WM13"",""BM03""]","[4,4,9,1]","[6,4,8,2]","","",""
"show-reward","60","135190","0.0-60.0","p192278","A1V2H0UF94ATWY","3UUIU9GZC6BQMHTLWW3KSJ0W7IE5TB","34T446B1C2KDSD33367JBYZQLZW0CK","model","match","uniform","","","","","","","","134541.10000000056","136557.60000000056","","","","","","","","","","","","9","","stimuli/stars_9.png","93.5","","","","","stimuli/WM13_AO.jpg","",""
"explore-choice","61","136886","0.0-61.0","p192278","A1V2H0UF94ATWY","3UUIU9GZC6BQMHTLWW3KSJ0W7IE5TB","34T446B1C2KDSD33367JBYZQLZW0CK","model","match","uniform","","","","","","","1181.1000000005588","136559","137740.10000000056","[""stimuli/AM09_SC.jpg"",""stimuli/WM11_AO.jpg"",""stimuli/BM03_DO.jpg"",""stimuli/WM13_FO.jpg""]","stimuli/AM09_SC.jpg","stimuli/WM11_AO.jpg","stimuli/BM03_DO.jpg","stimuli/WM13_FO.jpg","pos4","stimuli/WM13_FO.jpg","FO","WM13","3","5","10","8","stimuli/stars_10.png","98.5","[""SC"",""AO"",""DO"",""FO""]","[""AM09"",""WM11"",""BM03"",""WM13""]","[4,7,1,10]","[4,6,2,8]","","",""
"show-reward","62","138895","0.0-62.0","p192278","A1V2H0UF94ATWY","3UUIU9GZC6BQMHTLWW3KSJ0W7IE5TB","34T446B1C2KDSD33367JBYZQLZW0CK","model","match","uniform","","","","","","","","138255.7000000002","140262.80000000075","","","","","","","","","","","","10","","stimuli/stars_10.png","98.5","","","","","stimuli/WM13_FO.jpg","",""
"explore-choice","63","141140","0.0-63.0","p192278","A1V2H0UF94ATWY","3UUIU9GZC6BQMHTLWW3KSJ0W7IE5TB","34T446B1C2KDSD33367JBYZQLZW0CK","model","match","uniform","","","","","","","1739.7999999998137","140264.30000000075","142004.10000000056","[""stimuli/AM09_SC.jpg"",""stimuli/WM11_FO.jpg"",""stimuli/WM13_DO.jpg"",""stimuli/BM03_AO.jpg""]","stimuli/AM09_SC.jpg","stimuli/WM11_FO.jpg","stimuli/WM13_DO.jpg","stimuli/BM03_AO.jpg","pos3","stimuli/WM13_DO.jpg","DO","WM13","2","3.5","7","8","stimuli/stars_7.png","102","[""SC"",""FO"",""DO"",""AO""]","[""AM09"",""WM11"",""WM13"",""BM03""]","[6,7,7,1]","[4,6,8,2]","","",""
"show-reward","64","143150","0.0-64.0","p192278","A1V2H0UF94ATWY","3UUIU9GZC6BQMHTLWW3KSJ0W7IE5TB","34T446B1C2KDSD33367JBYZQLZW0CK","model","match","uniform","","","","","","","","142509.60000000056","144518.40000000037","","","","","","","","","","","","7","","stimuli/stars_7.png","102","","","","","stimuli/WM13_DO.jpg","",""
"explore-choice","65","144646","0.0-65.0","p192278","A1V2H0UF94ATWY","3UUIU9GZC6BQMHTLWW3KSJ0W7IE5TB","34T446B1C2KDSD33367JBYZQLZW0CK","model","match","uniform","","","","","","","988.5","144519.60000000056","145508.10000000056","[""stimuli/WM11_SC.jpg"",""stimuli/AM09_FO.jpg"",""stimuli/WM13_AO.jpg"",""stimuli/BM03_DO.jpg""]","stimuli/WM11_SC.jpg","stimuli/AM09_FO.jpg","stimuli/WM13_AO.jpg","stimuli/BM03_DO.jpg","pos3","stimuli/WM13_AO.jpg","AO","WM13","2","3.5","7","8","stimuli/stars_7.png","105.5","[""SC"",""FO"",""AO"",""DO""]","[""WM11"",""AM09"",""WM13"",""BM03""]","[4,2,7,3]","[6,4,8,2]","","",""
"show-reward","66","146662","0.0-66.0","p192278","A1V2H0UF94ATWY","3UUIU9GZC6BQMHTLWW3KSJ0W7IE5TB","34T446B1C2KDSD33367JBYZQLZW0CK","model","match","uniform","","","","","","","","146015.2000000002","148030.7000000002","","","","","","","","","","","","7","","stimuli/stars_7.png","105.5","","","","","stimuli/WM13_AO.jpg","",""
"explore-choice","67","148197","0.0-67.0","p192278","A1V2H0UF94ATWY","3UUIU9GZC6BQMHTLWW3KSJ0W7IE5TB","34T446B1C2KDSD33367JBYZQLZW0CK","model","match","uniform","","","","","","","1020.5999999996275","148031.30000000075","149051.90000000037","[""stimuli/BM03_AO.jpg"",""stimuli/WM11_SC.jpg"",""stimuli/WM13_DO.jpg"",""stimuli/AM09_FO.jpg""]","stimuli/BM03_AO.jpg","stimuli/WM11_SC.jpg","stimuli/WM13_DO.jpg","stimuli/AM09_FO.jpg","pos3","stimuli/WM13_DO.jpg","DO","WM13","2","4.5","9","8","stimuli/stars_9.png","110","[""AO"",""SC"",""DO"",""FO""]","[""BM03"",""WM11"",""WM13"",""AM09""]","[2,4,9,6]","[2,6,8,4]","","",""
"show-reward","68","150206","0.0-68.0","p192278","A1V2H0UF94ATWY","3UUIU9GZC6BQMHTLWW3KSJ0W7IE5TB","34T446B1C2KDSD33367JBYZQLZW0CK","model","match","uniform","","","","","","","","149566.60000000056","151573.90000000037","","","","","","","","","","","","9","","stimuli/stars_9.png","110","","","","","stimuli/WM13_DO.jpg","",""
"explore-choice","69","152061","0.0-69.0","p192278","A1V2H0UF94ATWY","3UUIU9GZC6BQMHTLWW3KSJ0W7IE5TB","34T446B1C2KDSD33367JBYZQLZW0CK","model","match","uniform","","","","","","","1342","151575.2000000002","152917.2000000002","[""stimuli/WM11_FO.jpg"",""stimuli/AM09_SC.jpg"",""stimuli/BM03_DO.jpg"",""stimuli/WM13_AO.jpg""]","stimuli/WM11_FO.jpg","stimuli/AM09_SC.jpg","stimuli/BM03_DO.jpg","stimuli/WM13_AO.jpg","pos4","stimuli/WM13_AO.jpg","AO","WM13","3","4","8","8","stimuli/stars_8.png","114","[""FO"",""SC"",""DO"",""AO""]","[""WM11"",""AM09"",""BM03"",""WM13""]","[8,6,4,8]","[6,4,2,8]","","",""
"show-reward","70","154066","0.0-70.0","p192278","A1V2H0UF94ATWY","3UUIU9GZC6BQMHTLWW3KSJ0W7IE5TB","34T446B1C2KDSD33367JBYZQLZW0CK","model","match","uniform","","","","","","","","153430","155434.40000000037","","","","","","","","","","","","8","","stimuli/stars_8.png","114","","","","","stimuli/WM13_AO.jpg","",""
"explore-choice","71","155333","0.0-71.0","p192278","A1V2H0UF94ATWY","3UUIU9GZC6BQMHTLWW3KSJ0W7IE5TB","34T446B1C2KDSD33367JBYZQLZW0CK","model","match","uniform","","","","","","","760.5","155435.60000000056","156196.10000000056","[""stimuli/BM03_FO.jpg"",""stimuli/WM11_DO.jpg"",""stimuli/AM09_SC.jpg"",""stimuli/WM13_AO.jpg""]","stimuli/BM03_FO.jpg","stimuli/WM11_DO.jpg","stimuli/AM09_SC.jpg","stimuli/WM13_AO.jpg","pos4","stimuli/WM13_AO.jpg","AO","WM13","3","4.5","9","8","stimuli/stars_9.png","118.5","[""FO"",""DO"",""SC"",""AO""]","[""BM03"",""WM11"",""AM09"",""WM13""]","[4,4,4,9]","[2,6,4,8]","","",""
"show-reward","72","157350","0.0-72.0","p192278","A1V2H0UF94ATWY","3UUIU9GZC6BQMHTLWW3KSJ0W7IE5TB","34T446B1C2KDSD33367JBYZQLZW0CK","model","match","uniform","","","","","","","","156702.40000000037","158718.30000000075","","","","","","","","","","","","9","","stimuli/stars_9.png","118.5","","","","","stimuli/WM13_AO.jpg","",""
"explore-choice","73","159452","0.0-73.0","p192278","A1V2H0UF94ATWY","3UUIU9GZC6BQMHTLWW3KSJ0W7IE5TB","34T446B1C2KDSD33367JBYZQLZW0CK","model","match","uniform","","","","","","","1587.8999999994412","158720.10000000056","160308","[""stimuli/BM03_SC.jpg"",""stimuli/AM09_DO.jpg"",""stimuli/WM13_FO.jpg"",""stimuli/WM11_AO.jpg""]","stimuli/BM03_SC.jpg","stimuli/AM09_DO.jpg","stimuli/WM13_FO.jpg","stimuli/WM11_AO.jpg","pos3","stimuli/WM13_FO.jpg","FO","WM13","2","3","6","8","stimuli/stars_6.png","121.5","[""SC"",""DO"",""FO"",""AO""]","[""BM03"",""AM09"",""WM13"",""WM11""]","[0,3,6,7]","[2,4,8,6]","","",""
"show-reward","74","161460","0.0-74.0","p192278","A1V2H0UF94ATWY","3UUIU9GZC6BQMHTLWW3KSJ0W7IE5TB","34T446B1C2KDSD33367JBYZQLZW0CK","model","match","uniform","","","","","","","","160821.7000000002","162828.10000000056","","","","","","","","","","","","6","","stimuli/stars_6.png","121.5","","","","","stimuli/WM13_FO.jpg","",""
"explore-choice","75","163647","0.0-75.0","p192278","A1V2H0UF94ATWY","3UUIU9GZC6BQMHTLWW3KSJ0W7IE5TB","34T446B1C2KDSD33367JBYZQLZW0CK","model","match","uniform","","","","","","","1670.5999999996275","162829.60000000056","164500.2000000002","[""stimuli/AM09_DO.jpg"",""stimuli/WM13_AO.jpg"",""stimuli/WM11_SC.jpg"",""stimuli/BM03_FO.jpg""]","stimuli/AM09_DO.jpg","stimuli/WM13_AO.jpg","stimuli/WM11_SC.jpg","stimuli/BM03_FO.jpg","pos2","stimuli/WM13_AO.jpg","AO","WM13","1","3.5","7","8","stimuli/stars_7.png","125","[""DO"",""AO"",""SC"",""FO""]","[""AM09"",""WM13"",""WM11"",""BM03""]","[4,7,6,3]","[4,8,6,2]","","",""
"show-reward","76","165660","0.0-76.0","p192278","A1V2H0UF94ATWY","3UUIU9GZC6BQMHTLWW3KSJ0W7IE5TB","34T446B1C2KDSD33367JBYZQLZW0CK","model","match","uniform","","","","","","","","165016","167028.60000000056","","","","","","","","","","","","7","","stimuli/stars_7.png","125","","","","","stimuli/WM13_AO.jpg","",""
"explore-choice","77","167527","0.0-77.0","p192278","A1V2H0UF94ATWY","3UUIU9GZC6BQMHTLWW3KSJ0W7IE5TB","34T446B1C2KDSD33367JBYZQLZW0CK","model","match","uniform","","","","","","","1358.699999999255","167029.30000000075","168388","[""stimuli/BM03_AO.jpg"",""stimuli/WM13_FO.jpg"",""stimuli/WM11_DO.jpg"",""stimuli/AM09_SC.jpg""]","stimuli/BM03_AO.jpg","stimuli/WM13_FO.jpg","stimuli/WM11_DO.jpg","stimuli/AM09_SC.jpg","pos2","stimuli/WM13_FO.jpg","FO","WM13","1","5","10","8","stimuli/stars_10.png","130","[""AO"",""FO"",""DO"",""SC""]","[""BM03"",""WM13"",""WM11"",""AM09""]","[0,10,4,6]","[2,8,6,4]","","",""
"show-reward","78","169542","0.0-78.0","p192278","A1V2H0UF94ATWY","3UUIU9GZC6BQMHTLWW3KSJ0W7IE5TB","34T446B1C2KDSD33367JBYZQLZW0CK","model","match","uniform","","","","","","","","168896.2000000002","170909.7000000002","","","","","","","","","","","","10","","stimuli/stars_10.png","130","","","","","stimuli/WM13_FO.jpg","",""
"explore-choice","79","170806","0.0-79.0","p192278","A1V2H0UF94ATWY","3UUIU9GZC6BQMHTLWW3KSJ0W7IE5TB","34T446B1C2KDSD33367JBYZQLZW0CK","model","match","uniform","","","","","","","757.2999999998137","170910.7000000002","171668","[""stimuli/BM03_SC.jpg"",""stimuli/WM13_DO.jpg"",""stimuli/WM11_AO.jpg"",""stimuli/AM09_FO.jpg""]","stimuli/BM03_SC.jpg","stimuli/WM13_DO.jpg","stimuli/WM11_AO.jpg","stimuli/AM09_FO.jpg","pos2","stimuli/WM13_DO.jpg","DO","WM13","1","5","10","8","stimuli/stars_10.png","135","[""SC"",""DO"",""AO"",""FO""]","[""BM03"",""WM13"",""WM11"",""AM09""]","[0,10,5,3]","[2,8,6,4]","","",""
"show-reward","80","172811","0.0-80.0","p192278","A1V2H0UF94ATWY","3UUIU9GZC6BQMHTLWW3KSJ0W7IE5TB","34T446B1C2KDSD33367JBYZQLZW0CK","model","match","uniform","","","","","","","","172174.80000000075","174179.2000000002","","","","","","","","","","","","10","","stimuli/stars_10.png","135","","","","","stimuli/WM13_DO.jpg","",""
"explore-choice","81","174706","0.0-81.0","p192278","A1V2H0UF94ATWY","3UUIU9GZC6BQMHTLWW3KSJ0W7IE5TB","34T446B1C2KDSD33367JBYZQLZW0CK","model","match","uniform","","","","","","","1392.2999999998137","174179.7000000002","175572","[""stimuli/WM11_DO.jpg"",""stimuli/AM09_AO.jpg"",""stimuli/BM03_SC.jpg"",""stimuli/WM13_FO.jpg""]","stimuli/WM11_DO.jpg","stimuli/AM09_AO.jpg","stimuli/BM03_SC.jpg","stimuli/WM13_FO.jpg","pos4","stimuli/WM13_FO.jpg","FO","WM13","3","5","10","8","stimuli/stars_10.png","140","[""DO"",""AO"",""SC"",""FO""]","[""WM11"",""AM09"",""BM03"",""WM13""]","[4,2,0,10]","[6,4,2,8]","","",""
"show-reward","82","176713","0.0-82.0","p192278","A1V2H0UF94ATWY","3UUIU9GZC6BQMHTLWW3KSJ0W7IE5TB","34T446B1C2KDSD33367JBYZQLZW0CK","model","match","uniform","","","","","","","","176074.2000000002","178080.60000000056","","","","","","","","","","","","10","","stimuli/stars_10.png","140","","","","","stimuli/WM13_FO.jpg","",""
"explore-choice","83","178668","0.0-83.0","p192278","A1V2H0UF94ATWY","3UUIU9GZC6BQMHTLWW3KSJ0W7IE5TB","34T446B1C2KDSD33367JBYZQLZW0CK","model","match","uniform","","","","","","","1450.7999999998137","178081.30000000075","179532.10000000056","[""stimuli/WM13_DO.jpg"",""stimuli/AM09_AO.jpg"",""stimuli/BM03_FO.jpg"",""stimuli/WM11_SC.jpg""]","stimuli/WM13_DO.jpg","stimuli/AM09_AO.jpg","stimuli/BM03_FO.jpg","stimuli/WM11_SC.jpg","pos1","stimuli/WM13_DO.jpg","DO","WM13","0","4","8","8","stimuli/stars_8.png","144","[""DO"",""AO"",""FO"",""SC""]","[""WM13"",""AM09"",""BM03"",""WM11""]","[8,3,1,8]","[8,4,2,6]","","",""
"show-reward","84","180684","0.0-84.0","p192278","A1V2H0UF94ATWY","3UUIU9GZC6BQMHTLWW3KSJ0W7IE5TB","34T446B1C2KDSD33367JBYZQLZW0CK","model","match","uniform","","","","","","","","180036.5","182052.2000000002","","","","","","","","","","","","8","","stimuli/stars_8.png","144","","","","","stimuli/WM13_DO.jpg","",""
"explore-choice","85","183518","0.0-85.0","p192278","A1V2H0UF94ATWY","3UUIU9GZC6BQMHTLWW3KSJ0W7IE5TB","34T446B1C2KDSD33367JBYZQLZW0CK","model","match","uniform","","","","","","","2318.7000000001863","182053.5","184372.2000000002","[""stimuli/WM13_SC.jpg"",""stimuli/WM11_FO.jpg"",""stimuli/AM09_DO.jpg"",""stimuli/BM03_AO.jpg""]","stimuli/WM13_SC.jpg","stimuli/WM11_FO.jpg","stimuli/AM09_DO.jpg","stimuli/BM03_AO.jpg","pos1","stimuli/WM13_SC.jpg","SC","WM13","0","4.5","9","8","stimuli/stars_9.png","148.5","[""SC"",""FO"",""DO"",""AO""]","[""WM13"",""WM11"",""AM09"",""BM03""]","[9,4,2,3]","[8,6,4,2]","","",""
"show-reward","86","185534","0.0-86.0","p192278","A1V2H0UF94ATWY","3UUIU9GZC6BQMHTLWW3KSJ0W7IE5TB","34T446B1C2KDSD33367JBYZQLZW0CK","model","match","uniform","","","","","","","","184887.7000000002","186902.2000000002","","","","","","","","","","","","9","","stimuli/stars_9.png","148.5","","","","","stimuli/WM13_SC.jpg","",""
"explore-choice","87","187300","0.0-87.0","p192278","A1V2H0UF94ATWY","3UUIU9GZC6BQMHTLWW3KSJ0W7IE5TB","34T446B1C2KDSD33367JBYZQLZW0CK","model","match","uniform","","","","","","","1260.7000000001863","186903.60000000056","188164.30000000075","[""stimuli/WM11_DO.jpg"",""stimuli/AM09_FO.jpg"",""stimuli/WM13_SC.jpg"",""stimuli/BM03_AO.jpg""]","stimuli/WM11_DO.jpg","stimuli/AM09_FO.jpg","stimuli/WM13_SC.jpg","stimuli/BM03_AO.jpg","pos3","stimuli/WM13_SC.jpg","SC","WM13","2","4","8","8","stimuli/stars_8.png","152.5","[""DO"",""FO"",""SC"",""AO""]","[""WM11"",""AM09"",""WM13"",""BM03""]","[8,4,8,0]","[6,4,8,2]","","",""
"show-reward","88","189315","0.0-88.0","p192278","A1V2H0UF94ATWY","3UUIU9GZC6BQMHTLWW3KSJ0W7IE5TB","34T446B1C2KDSD33367JBYZQLZW0CK","model","match","uniform","","","","","","","","188668.2000000002","190683.2000000002","","","","","","","","","","","","8","","stimuli/stars_8.png","152.5","","","","","stimuli/WM13_SC.jpg","",""
"explore-choice","89","190774","0.0-89.0","p192278","A1V2H0UF94ATWY","3UUIU9GZC6BQMHTLWW3KSJ0W7IE5TB","34T446B1C2KDSD33367JBYZQLZW0CK","model","match","uniform","","","","","","","951.5","190684.60000000056","191636.10000000056","[""stimuli/WM11_DO.jpg"",""stimuli/BM03_FO.jpg"",""stimuli/WM13_SC.jpg"",""stimuli/AM09_AO.jpg""]","stimuli/WM11_DO.jpg","stimuli/BM03_FO.jpg","stimuli/WM13_SC.jpg","stimuli/AM09_AO.jpg","pos3","stimuli/WM13_SC.jpg","SC","WM13","2","4.5","9","8","stimuli/stars_9.png","157","[""DO"",""FO"",""SC"",""AO""]","[""WM11"",""BM03"",""WM13"",""AM09""]","[6,2,9,6]","[6,2,8,4]","","",""
"show-reward","90","192790","0.0-90.0","p192278","A1V2H0UF94ATWY","3UUIU9GZC6BQMHTLWW3KSJ0W7IE5TB","34T446B1C2KDSD33367JBYZQLZW0CK","model","match","uniform","","","","","","","","192143.40000000037","194158","","","","","","","","","","","","9","","stimuli/stars_9.png","157","","","","","stimuli/WM13_SC.jpg","",""
"explore-choice","91","194709","0.0-91.0","p192278","A1V2H0UF94ATWY","3UUIU9GZC6BQMHTLWW3KSJ0W7IE5TB","34T446B1C2KDSD33367JBYZQLZW0CK","model","match","uniform","","","","","","","1412.5999999996275","194159.40000000037","195572","[""stimuli/BM03_DO.jpg"",""stimuli/WM11_FO.jpg"",""stimuli/AM09_AO.jpg"",""stimuli/WM13_SC.jpg""]","stimuli/BM03_DO.jpg","stimuli/WM11_FO.jpg","stimuli/AM09_AO.jpg","stimuli/WM13_SC.jpg","pos4","stimuli/WM13_SC.jpg","SC","WM13","3","4","8","8","stimuli/stars_8.png","161","[""DO"",""FO"",""AO"",""SC""]","[""BM03"",""WM11"",""AM09"",""WM13""]","[0,4,3,8]","[2,6,4,8]","","",""
"show-reward","92","196726","0.0-92.0","p192278","A1V2H0UF94ATWY","3UUIU9GZC6BQMHTLWW3KSJ0W7IE5TB","34T446B1C2KDSD33367JBYZQLZW0CK","model","match","uniform","","","","","","","","196077.80000000075","198094.10000000056","","","","","","","","","","","","8","","stimuli/stars_8.png","161","","","","","stimuli/WM13_SC.jpg","",""
"explore-choice","93","198390","0.0-93.0","p192278","A1V2H0UF94ATWY","3UUIU9GZC6BQMHTLWW3KSJ0W7IE5TB","34T446B1C2KDSD33367JBYZQLZW0CK","model","match","uniform","","","","","","","1157.0999999996275","198095.10000000056","199252.2000000002","[""stimuli/AM09_DO.jpg"",""stimuli/BM03_AO.jpg"",""stimuli/WM13_FO.jpg"",""stimuli/WM11_SC.jpg""]","stimuli/AM09_DO.jpg","stimuli/BM03_AO.jpg","stimuli/WM13_FO.jpg","stimuli/WM11_SC.jpg","pos3","stimuli/WM13_FO.jpg","FO","WM13","2","3.5","7","8","stimuli/stars_7.png","164.5","[""DO"",""AO"",""FO"",""SC""]","[""AM09"",""BM03"",""WM13"",""WM11""]","[2,1,7,6]","[4,2,8,6]","","",""
"show-reward","94","200404","0.0-94.0","p192278","A1V2H0UF94ATWY","3UUIU9GZC6BQMHTLWW3KSJ0W7IE5TB","34T446B1C2KDSD33367JBYZQLZW0CK","model","match","uniform","","","","","","","","199758.90000000037","201771.5","","","","","","","","","","","","7","","stimuli/stars_7.png","164.5","","","","","stimuli/WM13_FO.jpg","",""
"explore-choice","95","202467","0.0-95.0","p192278","A1V2H0UF94ATWY","3UUIU9GZC6BQMHTLWW3KSJ0W7IE5TB","34T446B1C2KDSD33367JBYZQLZW0CK","model","match","uniform","","","","","","","1559.7000000001863","201772.5","203332.2000000002","[""stimuli/AM09_DO.jpg"",""stimuli/BM03_FO.jpg"",""stimuli/WM11_AO.jpg"",""stimuli/WM13_SC.jpg""]","stimuli/AM09_DO.jpg","stimuli/BM03_FO.jpg","stimuli/WM11_AO.jpg","stimuli/WM13_SC.jpg","pos4","stimuli/WM13_SC.jpg","SC","WM13","3","3","6","8","stimuli/stars_6.png","167.5","[""DO"",""FO"",""AO"",""SC""]","[""AM09"",""BM03"",""WM11"",""WM13""]","[5,3,5,6]","[4,2,6,8]","","",""
"show-reward","96","204473","0.0-96.0","p192278","A1V2H0UF94ATWY","3UUIU9GZC6BQMHTLWW3KSJ0W7IE5TB","34T446B1C2KDSD33367JBYZQLZW0CK","model","match","uniform","","","","","","","","203836","205840.90000000037","","","","","","","","","","","","6","","stimuli/stars_6.png","167.5","","","","","stimuli/WM13_SC.jpg","",""
"explore-choice","97","206719","0.0-97.0","p192278","A1V2H0UF94ATWY","3UUIU9GZC6BQMHTLWW3KSJ0W7IE5TB","34T446B1C2KDSD33367JBYZQLZW0CK","model","match","uniform","","","","","","","1730.1000000005588","205842","207572.10000000056","[""stimuli/AM09_AO.jpg"",""stimuli/WM13_DO.jpg"",""stimuli/WM11_FO.jpg"",""stimuli/BM03_SC.jpg""]","stimuli/AM09_AO.jpg","stimuli/WM13_DO.jpg","stimuli/WM11_FO.jpg","stimuli/BM03_SC.jpg","pos2","stimuli/WM13_DO.jpg","DO","WM13","1","3.5","7","8","stimuli/stars_7.png","171","[""AO"",""DO"",""FO"",""SC""]","[""AM09"",""WM13"",""WM11"",""BM03""]","[2,7,7,2]","[4,8,6,2]","","",""
"show-reward","98","208735","0.0-98.0","p192278","A1V2H0UF94ATWY","3UUIU9GZC6BQMHTLWW3KSJ0W7IE5TB","34T446B1C2KDSD33367JBYZQLZW0CK","model","match","uniform","","","","","","","","208088","210102.7000000002","","","","","","","","","","","","7","","stimuli/stars_7.png","171","","","","","stimuli/WM13_DO.jpg","",""
"explore-choice","99","210888","0.0-99.0","p192278","A1V2H0UF94ATWY","3UUIU9GZC6BQMHTLWW3KSJ0W7IE5TB","34T446B1C2KDSD33367JBYZQLZW0CK","model","match","uniform","","","","","","","1644.1000000005588","210104","211748.10000000056","[""stimuli/WM11_AO.jpg"",""stimuli/AM09_FO.jpg"",""stimuli/BM03_DO.jpg"",""stimuli/WM13_SC.jpg""]","stimuli/WM11_AO.jpg","stimuli/AM09_FO.jpg","stimuli/BM03_DO.jpg","stimuli/WM13_SC.jpg","pos4","stimuli/WM13_SC.jpg","SC","WM13","3","4.5","9","8","stimuli/stars_9.png","175.5","[""AO"",""FO"",""DO"",""SC""]","[""WM11"",""AM09"",""BM03"",""WM13""]","[7,3,4,9]","[6,4,2,8]","","",""
"show-reward","100","212897","0.0-100.0","p192278","A1V2H0UF94ATWY","3UUIU9GZC6BQMHTLWW3KSJ0W7IE5TB","34T446B1C2KDSD33367JBYZQLZW0CK","model","match","uniform","","","","","","","","212256.90000000037","214265.30000000075","","","","","","","","","","","","9","","stimuli/stars_9.png","175.5","","","","","stimuli/WM13_SC.jpg","",""
"explore-choice","101","214561","0.0-101.0","p192278","A1V2H0UF94ATWY","3UUIU9GZC6BQMHTLWW3KSJ0W7IE5TB","34T446B1C2KDSD33367JBYZQLZW0CK","model","match","uniform","","","","","","","1161.300000000745","214267","215428.30000000075","[""stimuli/AM09_FO.jpg"",""stimuli/WM11_DO.jpg"",""stimuli/WM13_AO.jpg"",""stimuli/BM03_SC.jpg""]","stimuli/AM09_FO.jpg","stimuli/WM11_DO.jpg","stimuli/WM13_AO.jpg","stimuli/BM03_SC.jpg","pos3","stimuli/WM13_AO.jpg","AO","WM13","2","4.5","9","8","stimuli/stars_9.png","180","[""FO"",""DO"",""AO"",""SC""]","[""AM09"",""WM11"",""WM13"",""BM03""]","[4,8,9,3]","[4,6,8,2]","","",""
"show-reward","102","216574","0.0-102.0","p192278","A1V2H0UF94ATWY","3UUIU9GZC6BQMHTLWW3KSJ0W7IE5TB","34T446B1C2KDSD33367JBYZQLZW0CK","model","match","uniform","","","","","","","","215930.2000000002","217942.30000000075","","","","","","","","","","","","9","","stimuli/stars_9.png","180","","","","","stimuli/WM13_AO.jpg","",""
"explore-choice","103","219729","0.0-103.0","p192278","A1V2H0UF94ATWY","3UUIU9GZC6BQMHTLWW3KSJ0W7IE5TB","34T446B1C2KDSD33367JBYZQLZW0CK","model","match","uniform","","","","","","","2653.2999999998137","217942.90000000037","220596.2000000002","[""stimuli/WF04_SUR.jpg"",""stimuli/BF04_CC.jpg"",""stimuli/WF06_HE.jpg"",""stimuli/HF10_HO.jpg""]","stimuli/WF04_SUR.jpg","stimuli/BF04_CC.jpg","stimuli/WF06_HE.jpg","stimuli/HF10_HO.jpg","pos1","stimuli/WF04_SUR.jpg","SUR","WF04","0","2.5","5","6","stimuli/stars_5.png","182.5","[""SUR"",""CC"",""HE"",""HO""]","[""WF04"",""BF04"",""WF06"",""HF10""]","[5,8,0,4]","[6,8,2,4]","","",""
"show-reward","104","221735","0.0-104.0","p192278","A1V2H0UF94ATWY","3UUIU9GZC6BQMHTLWW3KSJ0W7IE5TB","34T446B1C2KDSD33367JBYZQLZW0CK","model","match","uniform","","","","","","","","221098.80000000075","223103.2000000002","","","","","","","","","","","","5","","stimuli/stars_5.png","182.5","","","","","stimuli/WF04_SUR.jpg","",""
"explore-choice","105","224124","0.0-105.0","p192278","A1V2H0UF94ATWY","3UUIU9GZC6BQMHTLWW3KSJ0W7IE5TB","34T446B1C2KDSD33367JBYZQLZW0CK","model","match","uniform","","","","","","","1884","223104.10000000056","224988.10000000056","[""stimuli/WF04_HO.jpg"",""stimuli/BF04_HE.jpg"",""stimuli/HF10_SUR.jpg"",""stimuli/WF06_CC.jpg""]","stimuli/WF04_HO.jpg","stimuli/BF04_HE.jpg","stimuli/HF10_SUR.jpg","stimuli/WF06_CC.jpg","pos1","stimuli/WF04_HO.jpg","HO","WF04","0","4","8","6","stimuli/stars_8.png","186.5","[""HO"",""HE"",""SUR"",""CC""]","[""WF04"",""BF04"",""HF10"",""WF06""]","[8,7,3,2]","[6,8,4,2]","","",""
"show-reward","106","226126","0.0-106.0","p192278","A1V2H0UF94ATWY","3UUIU9GZC6BQMHTLWW3KSJ0W7IE5TB","34T446B1C2KDSD33367JBYZQLZW0CK","model","match","uniform","","","","","","","","225492.7000000002","227493.90000000037","","","","","","","","","","","","8","","stimuli/stars_8.png","186.5","","","","","stimuli/WF04_HO.jpg","",""
"explore-choice","107","227843","0.0-107.0","p192278","A1V2H0UF94ATWY","3UUIU9GZC6BQMHTLWW3KSJ0W7IE5TB","34T446B1C2KDSD33367JBYZQLZW0CK","model","match","uniform","","","","","","","1213.5","227494.5","228708","[""stimuli/HF10_HE.jpg"",""stimuli/BF04_HO.jpg"",""stimuli/WF04_SUR.jpg"",""stimuli/WF06_CC.jpg""]","stimuli/HF10_HE.jpg","stimuli/BF04_HO.jpg","stimuli/WF04_SUR.jpg","stimuli/WF06_CC.jpg","pos3","stimuli/WF04_SUR.jpg","SUR","WF04","2","3.5","7","6","stimuli/stars_7.png","190","[""HE"",""HO"",""SUR"",""CC""]","[""HF10"",""BF04"",""WF04"",""WF06""]","[2,6,7,1]","[4,8,6,2]","","",""
"show-reward","108","229847","0.0-108.0","p192278","A1V2H0UF94ATWY","3UUIU9GZC6BQMHTLWW3KSJ0W7IE5TB","34T446B1C2KDSD33367JBYZQLZW0CK","model","match","uniform","","","","","","","","229212.10000000056","231214.5","","","","","","","","","","","","7","","stimuli/stars_7.png","190","","","","","stimuli/WF04_SUR.jpg","",""
"explore-choice","109","232539","0.0-109.0","p192278","A1V2H0UF94ATWY","3UUIU9GZC6BQMHTLWW3KSJ0W7IE5TB","34T446B1C2KDSD33367JBYZQLZW0CK","model","match","uniform","","","","","","","2188.199999999255","231215.80000000075","233404","[""stimuli/WF06_HO.jpg"",""stimuli/WF04_SUR.jpg"",""stimuli/HF10_HE.jpg"",""stimuli/BF04_CC.jpg""]","stimuli/WF06_HO.jpg","stimuli/WF04_SUR.jpg","stimuli/HF10_HE.jpg","stimuli/BF04_CC.jpg","pos2","stimuli/WF04_SUR.jpg","SUR","WF04","1","4","8","6","stimuli/stars_8.png","194","[""HO"",""SUR"",""HE"",""CC""]","[""WF06"",""WF04"",""HF10"",""BF04""]","[1,8,6,10]","[2,6,4,8]","","",""
"show-reward","110","234552","0.0-110.0","p192278","A1V2H0UF94ATWY","3UUIU9GZC6BQMHTLWW3KSJ0W7IE5TB","34T446B1C2KDSD33367JBYZQLZW0CK","model","match","uniform","","","","","","","","233907.60000000056","235920.40000000037","","","","","","","","","","","","8","","stimuli/stars_8.png","194","","","","","stimuli/WF04_SUR.jpg","",""
"explore-choice","111","236608","0.0-111.0","p192278","A1V2H0UF94ATWY","3UUIU9GZC6BQMHTLWW3KSJ0W7IE5TB","34T446B1C2KDSD33367JBYZQLZW0CK","model","match","uniform","","","","","","","1546.7000000001863","235921.5","237468.2000000002","[""stimuli/HF10_HO.jpg"",""stimuli/BF04_HE.jpg"",""stimuli/WF06_SUR.jpg"",""stimuli/WF04_CC.jpg""]","stimuli/HF10_HO.jpg","stimuli/BF04_HE.jpg","stimuli/WF06_SUR.jpg","stimuli/WF04_CC.jpg","pos4","stimuli/WF04_CC.jpg","CC","WF04","3","3","6","6","stimuli/stars_6.png","197","[""HO"",""HE"",""SUR"",""CC""]","[""HF10"",""BF04"",""WF06"",""WF04""]","[4,9,4,6]","[4,8,2,6]","","",""
"show-reward","112","238622","0.0-112.0","p192278","A1V2H0UF94ATWY","3UUIU9GZC6BQMHTLWW3KSJ0W7IE5TB","34T446B1C2KDSD33367JBYZQLZW0CK","model","match","uniform","","","","","","","","237977.30000000075","239989.7000000002","","","","","","","","","","","","6","","stimuli/stars_6.png","197","","","","","stimuli/WF04_CC.jpg","",""
"explore-choice","113","240485","0.0-113.0","p192278","A1V2H0UF94ATWY","3UUIU9GZC6BQMHTLWW3KSJ0W7IE5TB","34T446B1C2KDSD33367JBYZQLZW0CK","model","match","uniform","","","","","","","1349.3999999994412","239990.80000000075","241340.2000000002","[""stimuli/WF06_HO.jpg"",""stimuli/HF10_CC.jpg"",""stimuli/WF04_HE.jpg"",""stimuli/BF04_SUR.jpg""]","stimuli/WF06_HO.jpg","stimuli/HF10_CC.jpg","stimuli/WF04_HE.jpg","stimuli/BF04_SUR.jpg","pos3","stimuli/WF04_HE.jpg","HE","WF04","2","2","4","6","stimuli/stars_4.png","199","[""HO"",""CC"",""HE"",""SUR""]","[""WF06"",""HF10"",""WF04"",""BF04""]","[3,5,4,8]","[2,4,6,8]","","",""
"show-reward","114","242497","0.0-114.0","p192278","A1V2H0UF94ATWY","3UUIU9GZC6BQMHTLWW3KSJ0W7IE5TB","34T446B1C2KDSD33367JBYZQLZW0CK","model","match","uniform","","","","","","","","241854.5","243864.80000000075","","","","","","","","","","","","4","","stimuli/stars_4.png","199","","","","","stimuli/WF04_HE.jpg","",""
"explore-choice","115","244597","0.0-115.0","p192278","A1V2H0UF94ATWY","3UUIU9GZC6BQMHTLWW3KSJ0W7IE5TB","34T446B1C2KDSD33367JBYZQLZW0CK","model","match","uniform","","","","","","","1594.4000000003725","243865.90000000037","245460.30000000075","[""stimuli/WF06_HO.jpg"",""stimuli/BF04_SUR.jpg"",""stimuli/HF10_HE.jpg"",""stimuli/WF04_CC.jpg""]","stimuli/WF06_HO.jpg","stimuli/BF04_SUR.jpg","stimuli/HF10_HE.jpg","stimuli/WF04_CC.jpg","pos4","stimuli/WF04_CC.jpg","CC","WF04","3","4","8","6","stimuli/stars_8.png","203","[""HO"",""SUR"",""HE"",""CC""]","[""WF06"",""BF04"",""HF10"",""WF04""]","[3,8,3,8]","[2,8,4,6]","","",""
"show-reward","116","246609","0.0-116.0","p192278","A1V2H0UF94ATWY","3UUIU9GZC6BQMHTLWW3KSJ0W7IE5TB","34T446B1C2KDSD33367JBYZQLZW0CK","model","match","uniform","","","","","","","","245965.90000000037","247977.5","","","","","","","","","","","","8","","stimuli/stars_8.png","203","","","","","stimuli/WF04_CC.jpg","",""
"explore-choice","117","249657","0.0-117.0","p192278","A1V2H0UF94ATWY","3UUIU9GZC6BQMHTLWW3KSJ0W7IE5TB","34T446B1C2KDSD33367JBYZQLZW0CK","model","match","uniform","","","","","","","2545.5","247978.80000000075","250524.30000000075","[""stimuli/WF04_HE.jpg"",""stimuli/WF06_CC.jpg"",""stimuli/BF04_SUR.jpg"",""stimuli/HF10_HO.jpg""]","stimuli/WF04_HE.jpg","stimuli/WF06_CC.jpg","stimuli/BF04_SUR.jpg","stimuli/HF10_HO.jpg","pos2","stimuli/WF06_CC.jpg","CC","WF06","1","2","4","2","stimuli/stars_4.png","205","[""HE"",""CC"",""SUR"",""HO""]","[""WF04"",""WF06"",""BF04"",""HF10""]","[7,4,9,6]","[6,2,8,4]","","",""
"show-reward","118","251666","0.0-118.0","p192278","A1V2H0UF94ATWY","3UUIU9GZC6BQMHTLWW3KSJ0W7IE5TB","34T446B1C2KDSD33367JBYZQLZW0CK","model","match","uniform","","","","","","","","251025.80000000075","253033.80000000075","","","","","","","","","","","","4","","stimuli/stars_4.png","205","","","","","stimuli/WF06_CC.jpg","",""
"explore-choice","119","253205","0.0-119.0","p192278","A1V2H0UF94ATWY","3UUIU9GZC6BQMHTLWW3KSJ0W7IE5TB","34T446B1C2KDSD33367JBYZQLZW0CK","model","match","uniform","","","","","","","1025","253035.10000000056","254060.10000000056","[""stimuli/WF04_SUR.jpg"",""stimuli/HF10_HO.jpg"",""stimuli/WF06_CC.jpg"",""stimuli/BF04_HE.jpg""]","stimuli/WF04_SUR.jpg","stimuli/HF10_HO.jpg","stimuli/WF06_CC.jpg","stimuli/BF04_HE.jpg","pos4","stimuli/BF04_HE.jpg","HE","BF04","3","3","6","8","stimuli/stars_6.png","208","[""SUR"",""HO"",""CC"",""HE""]","[""WF04"",""HF10"",""WF06"",""BF04""]","[4,4,4,6]","[6,4,2,8]","","",""
"show-reward","120","255211","0.0-120.0","p192278","A1V2H0UF94ATWY","3UUIU9GZC6BQMHTLWW3KSJ0W7IE5TB","34T446B1C2KDSD33367JBYZQLZW0CK","model","match","uniform","","","","","","","","254574.2000000002","256579.7000000002","","","","","","","","","","","","6","","stimuli/stars_6.png","208","","","","","stimuli/BF04_HE.jpg","",""
"explore-choice","121","256893","0.0-121.0","p192278","A1V2H0UF94ATWY","3UUIU9GZC6BQMHTLWW3KSJ0W7IE5TB","34T446B1C2KDSD33367JBYZQLZW0CK","model","match","uniform","","","","","","","1167.5999999996275","256580.40000000037","257748","[""stimuli/HF10_SUR.jpg"",""stimuli/WF04_CC.jpg"",""stimuli/BF04_HE.jpg"",""stimuli/WF06_HO.jpg""]","stimuli/HF10_SUR.jpg","stimuli/WF04_CC.jpg","stimuli/BF04_HE.jpg","stimuli/WF06_HO.jpg","pos3","stimuli/BF04_HE.jpg","HE","BF04","2","3","6","8","stimuli/stars_6.png","211","[""SUR"",""CC"",""HE"",""HO""]","[""HF10"",""WF04"",""BF04"",""WF06""]","[4,7,6,0]","[4,6,8,2]","","",""
"show-reward","122","258899","0.0-122.0","p192278","A1V2H0UF94ATWY","3UUIU9GZC6BQMHTLWW3KSJ0W7IE5TB","34T446B1C2KDSD33367JBYZQLZW0CK","model","match","uniform","","","","","","","","258262.7000000002","260267.30000000075","","","","","","","","","","","","6","","stimuli/stars_6.png","211","","","","","stimuli/BF04_HE.jpg","",""
"explore-choice","123","260655","0.0-123.0","p192278","A1V2H0UF94ATWY","3UUIU9GZC6BQMHTLWW3KSJ0W7IE5TB","34T446B1C2KDSD33367JBYZQLZW0CK","model","match","uniform","","","","","","","1247.5","260268.60000000056","261516.10000000056","[""stimuli/HF10_HE.jpg"",""stimuli/WF06_SUR.jpg"",""stimuli/WF04_HO.jpg"",""stimuli/BF04_CC.jpg""]","stimuli/HF10_HE.jpg","stimuli/WF06_SUR.jpg","stimuli/WF04_HO.jpg","stimuli/BF04_CC.jpg","pos1","stimuli/HF10_HE.jpg","HE","HF10","0","2.5","5","4","stimuli/stars_5.png","213.5","[""HE"",""SUR"",""HO"",""CC""]","[""HF10"",""WF06"",""WF04"",""BF04""]","[5,2,6,7]","[4,2,6,8]","","",""
"show-reward","124","262667","0.0-124.0","p192278","A1V2H0UF94ATWY","3UUIU9GZC6BQMHTLWW3KSJ0W7IE5TB","34T446B1C2KDSD33367JBYZQLZW0CK","model","match","uniform","","","","","","","","262023.7000000002","264035.7000000002","","","","","","","","","","","","5","","stimuli/stars_5.png","213.5","","","","","stimuli/HF10_HE.jpg","",""
"explore-choice","125","265579","0.0-125.0","p192278","A1V2H0UF94ATWY","3UUIU9GZC6BQMHTLWW3KSJ0W7IE5TB","34T446B1C2KDSD33367JBYZQLZW0CK","model","match","uniform","","","","","","","2407.600000000559","264036.5","266444.10000000056","[""stimuli/BF04_SUR.jpg"",""stimuli/WF06_HE.jpg"",""stimuli/WF04_HO.jpg"",""stimuli/HF10_CC.jpg""]","stimuli/BF04_SUR.jpg","stimuli/WF06_HE.jpg","stimuli/WF04_HO.jpg","stimuli/HF10_CC.jpg","pos3","stimuli/WF04_HO.jpg","HO","WF04","2","2","4","6","stimuli/stars_4.png","215.5","[""SUR"",""HE"",""HO"",""CC""]","[""BF04"",""WF06"",""WF04"",""HF10""]","[9,1,4,5]","[8,2,6,4]","","",""
"show-reward","126","267587","0.0-126.0","p192278","A1V2H0UF94ATWY","3UUIU9GZC6BQMHTLWW3KSJ0W7IE5TB","34T446B1C2KDSD33367JBYZQLZW0CK","model","match","uniform","","","","","","","","266948.30000000075","268955.10000000056","","","","","","","","","","","","4","","stimuli/stars_4.png","215.5","","","","","stimuli/WF04_HO.jpg","",""
"explore-choice","127","268928","0.0-127.0","p192278","A1V2H0UF94ATWY","3UUIU9GZC6BQMHTLWW3KSJ0W7IE5TB","34T446B1C2KDSD33367JBYZQLZW0CK","model","match","uniform","","","","","","","824.0999999996275","268956.30000000075","269780.4000000004","[""stimuli/BF04_HO.jpg"",""stimuli/HF10_CC.jpg"",""stimuli/WF04_SUR.jpg"",""stimuli/WF06_HE.jpg""]","stimuli/BF04_HO.jpg","stimuli/HF10_CC.jpg","stimuli/WF04_SUR.jpg","stimuli/WF06_HE.jpg","pos3","stimuli/WF04_SUR.jpg","SUR","WF04","2","4","8","6","stimuli/stars_8.png","219.5","[""HO"",""CC"",""SUR"",""HE""]","[""BF04"",""HF10"",""WF04"",""WF06""]","[7,6,8,3]","[8,4,6,2]","","",""
"show-reward","128","270934","0.0-128.0","p192278","A1V2H0UF94ATWY","3UUIU9GZC6BQMHTLWW3KSJ0W7IE5TB","34T446B1C2KDSD33367JBYZQLZW0CK","model","match","uniform","","","","","","","","270296.80000000075","272301.9000000004","","","","","","","","","","","","8","","stimuli/stars_8.png","219.5","","","","","stimuli/WF04_SUR.jpg","",""
"explore-choice","129","272645","0.0-129.0","p192278","A1V2H0UF94ATWY","3UUIU9GZC6BQMHTLWW3KSJ0W7IE5TB","34T446B1C2KDSD33367JBYZQLZW0CK","model","match","uniform","","","","","","","1195.5999999996275","272304.4000000004","273500","[""stimuli/WF04_CC.jpg"",""stimuli/HF10_HO.jpg"",""stimuli/BF04_SUR.jpg"",""stimuli/WF06_HE.jpg""]","stimuli/WF04_CC.jpg","stimuli/HF10_HO.jpg","stimuli/BF04_SUR.jpg","stimuli/WF06_HE.jpg","pos3","stimuli/BF04_SUR.jpg","SUR","BF04","2","3.5","7","8","stimuli/stars_7.png","223","[""CC"",""HO"",""SUR"",""HE""]","[""WF04"",""HF10"",""BF04"",""WF06""]","[8,4,7,3]","[6,4,8,2]","","",""
"show-reward","130","274662","0.0-130.0","p192278","A1V2H0UF94ATWY","3UUIU9GZC6BQMHTLWW3KSJ0W7IE5TB","34T446B1C2KDSD33367JBYZQLZW0CK","model","match","uniform","","","","","","","","274014.2000000002","276030.2000000002","","","","","","","","","","","","7","","stimuli/stars_7.png","223","","","","","stimuli/BF04_SUR.jpg","",""
"explore-choice","131","276671","0.0-131.0","p192278","A1V2H0UF94ATWY","3UUIU9GZC6BQMHTLWW3KSJ0W7IE5TB","34T446B1C2KDSD33367JBYZQLZW0CK","model","match","uniform","","","","","","","1493","276031.2000000002","277524.2000000002","[""stimuli/WF06_HE.jpg"",""stimuli/HF10_SUR.jpg"",""stimuli/BF04_HO.jpg"",""stimuli/WF04_CC.jpg""]","stimuli/WF06_HE.jpg","stimuli/HF10_SUR.jpg","stimuli/BF04_HO.jpg","stimuli/WF04_CC.jpg","pos1","stimuli/WF06_HE.jpg","HE","WF06","0","1.5","3","2","stimuli/stars_3.png","224.5","[""HE"",""SUR"",""HO"",""CC""]","[""WF06"",""HF10"",""BF04"",""WF04""]","[3,5,8,7]","[2,4,8,6]","","",""
"show-reward","132","278682","0.0-132.0","p192278","A1V2H0UF94ATWY","3UUIU9GZC6BQMHTLWW3KSJ0W7IE5TB","34T446B1C2KDSD33367JBYZQLZW0CK","model","match","uniform","","","","","","","","278040.10000000056","280050.4000000004","","","","","","","","","","","","3","","stimuli/stars_3.png","224.5","","","","","stimuli/WF06_HE.jpg","",""
"explore-choice","133","280341","0.0-133.0","p192278","A1V2H0UF94ATWY","3UUIU9GZC6BQMHTLWW3KSJ0W7IE5TB","34T446B1C2KDSD33367JBYZQLZW0CK","model","match","uniform","","","","","","","1144.7999999998137","280051.2000000002","281196","[""stimuli/HF10_SUR.jpg"",""stimuli/WF04_HO.jpg"",""stimuli/BF04_CC.jpg"",""stimuli/WF06_HE.jpg""]","stimuli/HF10_SUR.jpg","stimuli/WF04_HO.jpg","stimuli/BF04_CC.jpg","stimuli/WF06_HE.jpg","pos1","stimuli/HF10_SUR.jpg","SUR","HF10","0","2.5","5","4","stimuli/stars_5.png","227","[""SUR"",""HO"",""CC"",""HE""]","[""HF10"",""WF04"",""BF04"",""WF06""]","[5,4,7,0]","[4,6,8,2]","","",""
"show-reward","134","282358","0.0-134.0","p192278","A1V2H0UF94ATWY","3UUIU9GZC6BQMHTLWW3KSJ0W7IE5TB","34T446B1C2KDSD33367JBYZQLZW0CK","model","match","uniform","","","","","","","","281710","283726.4000000004","","","","","","","","","","","","5","","stimuli/stars_5.png","227","","","","","stimuli/HF10_SUR.jpg","",""
"explore-choice","135","285995","0.0-135.0","p192278","A1V2H0UF94ATWY","3UUIU9GZC6BQMHTLWW3KSJ0W7IE5TB","34T446B1C2KDSD33367JBYZQLZW0CK","model","match","uniform","","","","","","","3124.2999999998137","283727.9000000004","286852.2000000002","[""stimuli/HF10_HO.jpg"",""stimuli/WF04_HE.jpg"",""stimuli/WF06_SUR.jpg"",""stimuli/BF04_CC.jpg""]","stimuli/HF10_HO.jpg","stimuli/WF04_HE.jpg","stimuli/WF06_SUR.jpg","stimuli/BF04_CC.jpg","pos3","stimuli/WF06_SUR.jpg","SUR","WF06","2","0","0","2","stimuli/stars_0.png","227","[""HO"",""HE"",""SUR"",""CC""]","[""HF10"",""WF04"",""WF06"",""BF04""]","[6,4,0,9]","[4,6,2,8]","","",""
"show-reward","136","288015","0.0-136.0","p192278","A1V2H0UF94ATWY","3UUIU9GZC6BQMHTLWW3KSJ0W7IE5TB","34T446B1C2KDSD33367JBYZQLZW0CK","model","match","uniform","","","","","","","","287364.5","289382.60000000056","","","","","","","","","","","","0","","stimuli/stars_0.png","227","","","","","stimuli/WF06_SUR.jpg","",""
"explore-choice","137","291005","0.0-137.0","p192278","A1V2H0UF94ATWY","3UUIU9GZC6BQMHTLWW3KSJ0W7IE5TB","34T446B1C2KDSD33367JBYZQLZW0CK","model","match","uniform","","","","","","","2475.899999999441","289384.10000000056","291860","[""stimuli/WF06_SUR.jpg"",""stimuli/HF10_CC.jpg"",""stimuli/WF04_HO.jpg"",""stimuli/BF04_HE.jpg""]","stimuli/WF06_SUR.jpg","stimuli/HF10_CC.jpg","stimuli/WF04_HO.jpg","stimuli/BF04_HE.jpg","pos3","stimuli/WF04_HO.jpg","HO","WF04","2","2.5","5","6","stimuli/stars_5.png","229.5","[""SUR"",""CC"",""HO"",""HE""]","[""WF06"",""HF10"",""WF04"",""BF04""]","[1,3,5,6]","[2,4,6,8]","","",""
"show-reward","138","293017","0.0-138.0","p192278","A1V2H0UF94ATWY","3UUIU9GZC6BQMHTLWW3KSJ0W7IE5TB","34T446B1C2KDSD33367JBYZQLZW0CK","model","match","uniform","","","","","","","","292374.30000000075","294385.7000000002","","","","","","","","","","","","5","","stimuli/stars_5.png","229.5","","","","","stimuli/WF04_HO.jpg","",""
"explore-choice","139","295402","0.0-139.0","p192278","A1V2H0UF94ATWY","3UUIU9GZC6BQMHTLWW3KSJ0W7IE5TB","34T446B1C2KDSD33367JBYZQLZW0CK","model","match","uniform","","","","","","","1881.2999999998137","294386.80000000075","296268.10000000056","[""stimuli/HF10_HE.jpg"",""stimuli/WF06_SUR.jpg"",""stimuli/BF04_HO.jpg"",""stimuli/WF04_CC.jpg""]","stimuli/HF10_HE.jpg","stimuli/WF06_SUR.jpg","stimuli/BF04_HO.jpg","stimuli/WF04_CC.jpg","pos4","stimuli/WF04_CC.jpg","CC","WF04","3","2","4","6","stimuli/stars_4.png","231.5","[""HE"",""SUR"",""HO"",""CC""]","[""HF10"",""WF06"",""BF04"",""WF04""]","[2,1,6,4]","[4,2,8,6]","","",""
"show-reward","140","297420","0.0-140.0","p192278","A1V2H0UF94ATWY","3UUIU9GZC6BQMHTLWW3KSJ0W7IE5TB","34T446B1C2KDSD33367JBYZQLZW0CK","model","match","uniform","","","","","","","","296772.2000000002","298788.2000000002","","","","","","","","","","","","4","","stimuli/stars_4.png","231.5","","","","","stimuli/WF04_CC.jpg","",""
"explore-choice","141","299854","0.0-141.0","p192278","A1V2H0UF94ATWY","3UUIU9GZC6BQMHTLWW3KSJ0W7IE5TB","34T446B1C2KDSD33367JBYZQLZW0CK","model","match","uniform","","","","","","","1926.7999999998137","298789.2000000002","300716","[""stimuli/WF04_HE.jpg"",""stimuli/HF10_SUR.jpg"",""stimuli/BF04_CC.jpg"",""stimuli/WF06_HO.jpg""]","stimuli/WF04_HE.jpg","stimuli/HF10_SUR.jpg","stimuli/BF04_CC.jpg","stimuli/WF06_HO.jpg","pos1","stimuli/WF04_HE.jpg","HE","WF04","0","4","8","6","stimuli/stars_8.png","235.5","[""HE"",""SUR"",""CC"",""HO""]","[""WF04"",""HF10"",""BF04"",""WF06""]","[8,2,6,0]","[6,4,8,2]","","",""
"show-reward","142","301869","0.0-142.0","p192278","A1V2H0UF94ATWY","3UUIU9GZC6BQMHTLWW3KSJ0W7IE5TB","34T446B1C2KDSD33367JBYZQLZW0CK","model","match","uniform","","","","","","","","301223.4000000004","303237.4000000004","","","","","","","","","","","","8","","stimuli/stars_8.png","235.5","","","","","stimuli/WF04_HE.jpg","",""
"explore-choice","143","303502","0.0-143.0","p192278","A1V2H0UF94ATWY","3UUIU9GZC6BQMHTLWW3KSJ0W7IE5TB","34T446B1C2KDSD33367JBYZQLZW0CK","model","match","uniform","","","","","","","1125.6000000005588","303238.5","304364.10000000056","[""stimuli/HF10_SUR.jpg"",""stimuli/BF04_HO.jpg"",""stimuli/WF04_HE.jpg"",""stimuli/WF06_CC.jpg""]","stimuli/HF10_SUR.jpg","stimuli/BF04_HO.jpg","stimuli/WF04_HE.jpg","stimuli/WF06_CC.jpg","pos3","stimuli/WF04_HE.jpg","HE","WF04","2","3","6","6","stimuli/stars_6.png","238.5","[""SUR"",""HO"",""HE"",""CC""]","[""HF10"",""BF04"",""WF04"",""WF06""]","[6,9,6,2]","[4,8,6,2]","","",""
"show-reward","144","305519","0.0-144.0","p192278","A1V2H0UF94ATWY","3UUIU9GZC6BQMHTLWW3KSJ0W7IE5TB","34T446B1C2KDSD33367JBYZQLZW0CK","model","match","uniform","","","","","","","","304871.30000000075","306887.4000000004","","","","","","","","","","","","6","","stimuli/stars_6.png","238.5","","","","","stimuli/WF04_HE.jpg","",""
"explore-choice","145","307406","0.0-145.0","p192278","A1V2H0UF94ATWY","3UUIU9GZC6BQMHTLWW3KSJ0W7IE5TB","34T446B1C2KDSD33367JBYZQLZW0CK","model","match","uniform","","","","","","","1371.5","306888.5","308260","[""stimuli/HF10_HE.jpg"",""stimuli/WF04_HO.jpg"",""stimuli/WF06_CC.jpg"",""stimuli/BF04_SUR.jpg""]","stimuli/HF10_HE.jpg","stimuli/WF04_HO.jpg","stimuli/WF06_CC.jpg","stimuli/BF04_SUR.jpg","pos1","stimuli/HF10_HE.jpg","HE","HF10","0","3","6","4","stimuli/stars_6.png","241.5","[""HE"",""HO"",""CC"",""SUR""]","[""HF10"",""WF04"",""WF06"",""BF04""]","[6,8,2,10]","[4,6,2,8]","","",""
"show-reward","146","309424","0.0-146.0","p192278","A1V2H0UF94ATWY","3UUIU9GZC6BQMHTLWW3KSJ0W7IE5TB","34T446B1C2KDSD33367JBYZQLZW0CK","model","match","uniform","","","","","","","","308775.7000000002","310793.10000000056","","","","","","","","","","","","6","","stimuli/stars_6.png","241.5","","","","","stimuli/HF10_HE.jpg","",""
"explore-choice","147","312304","0.0-147.0","p192278","A1V2H0UF94ATWY","3UUIU9GZC6BQMHTLWW3KSJ0W7IE5TB","34T446B1C2KDSD33367JBYZQLZW0CK","model","match","uniform","","","","","","","2378.199999999255","310793.80000000075","313172","[""stimuli/HF10_CC.jpg"",""stimuli/WF04_HE.jpg"",""stimuli/BF04_HO.jpg"",""stimuli/WF06_SUR.jpg""]","stimuli/HF10_CC.jpg","stimuli/WF04_HE.jpg","stimuli/BF04_HO.jpg","stimuli/WF06_SUR.jpg","pos2","stimuli/WF04_HE.jpg","HE","WF04","1","3.5","7","6","stimuli/stars_7.png","245","[""CC"",""HE"",""HO"",""SUR""]","[""HF10"",""WF04"",""BF04"",""WF06""]","[2,7,10,2]","[4,6,8,2]","","",""
"show-reward","148","314313","0.0-148.0","p192278","A1V2H0UF94ATWY","3UUIU9GZC6BQMHTLWW3KSJ0W7IE5TB","34T446B1C2KDSD33367JBYZQLZW0CK","model","match","uniform","","","","","","","","313674.30000000075","315681.60000000056","","","","","","","","","","","","7","","stimuli/stars_7.png","245","","","","","stimuli/WF04_HE.jpg","",""
"explore-choice","149","316794","0.0-149.0","p192278","A1V2H0UF94ATWY","3UUIU9GZC6BQMHTLWW3KSJ0W7IE5TB","34T446B1C2KDSD33367JBYZQLZW0CK","model","match","uniform","","","","","","","1977.199999999255","315682.80000000075","317660","[""stimuli/BF04_HE.jpg"",""stimuli/WF06_HO.jpg"",""stimuli/HF10_CC.jpg"",""stimuli/WF04_SUR.jpg""]","stimuli/BF04_HE.jpg","stimuli/WF06_HO.jpg","stimuli/HF10_CC.jpg","stimuli/WF04_SUR.jpg","pos4","stimuli/WF04_SUR.jpg","SUR","WF04","3","2","4","6","stimuli/stars_4.png","247","[""HE"",""HO"",""CC"",""SUR""]","[""BF04"",""WF06"",""HF10"",""WF04""]","[10,2,2,4]","[8,2,4,6]","","",""
"show-reward","150","318809","0.0-150.0","p192278","A1V2H0UF94ATWY","3UUIU9GZC6BQMHTLWW3KSJ0W7IE5TB","34T446B1C2KDSD33367JBYZQLZW0CK","model","match","uniform","","","","","","","","318163","320178","","","","","","","","","","","","4","","stimuli/stars_4.png","247","","","","","stimuli/WF04_SUR.jpg","",""
"explore-choice","151","320513","0.0-151.0","p192278","A1V2H0UF94ATWY","3UUIU9GZC6BQMHTLWW3KSJ0W7IE5TB","34T446B1C2KDSD33367JBYZQLZW0CK","model","match","uniform","","","","","","","1193.2999999998137","320178.7000000002","321372","[""stimuli/BF04_HO.jpg"",""stimuli/WF06_CC.jpg"",""stimuli/HF10_SUR.jpg"",""stimuli/WF04_HE.jpg""]","stimuli/BF04_HO.jpg","stimuli/WF06_CC.jpg","stimuli/HF10_SUR.jpg","stimuli/WF04_HE.jpg","pos4","stimuli/WF04_HE.jpg","HE","WF04","3","3","6","6","stimuli/stars_6.png","250","[""HO"",""CC"",""SUR"",""HE""]","[""BF04"",""WF06"",""HF10"",""WF04""]","[9,2,6,6]","[8,2,4,6]","","",""
"show-reward","152","322533","0.0-152.0","p192278","A1V2H0UF94ATWY","3UUIU9GZC6BQMHTLWW3KSJ0W7IE5TB","34T446B1C2KDSD33367JBYZQLZW0CK","model","match","uniform","","","","","","","","321882.7000000002","323901.2000000002","","","","","","","","","","","","6","","stimuli/stars_6.png","250","","","","","stimuli/WF04_HE.jpg","",""
"explore-choice","153","324642","0.0-153.0","p192278","A1V2H0UF94ATWY","3UUIU9GZC6BQMHTLWW3KSJ0W7IE5TB","34T446B1C2KDSD33367JBYZQLZW0CK","model","match","uniform","","","","","","","1605.5","323902.60000000056","325508.10000000056","[""stimuli/WF06_HE.jpg"",""stimuli/BF04_SUR.jpg"",""stimuli/HF10_CC.jpg"",""stimuli/WF04_HO.jpg""]","stimuli/WF06_HE.jpg","stimuli/BF04_SUR.jpg","stimuli/HF10_CC.jpg","stimuli/WF04_HO.jpg","pos4","stimuli/WF04_HO.jpg","HO","WF04","3","2","4","6","stimuli/stars_4.png","252","[""HE"",""SUR"",""CC"",""HO""]","[""WF06"",""BF04"",""HF10"",""WF04""]","[1,9,5,4]","[2,8,4,6]","","",""
"show-reward","154","326658","0.0-154.0","p192278","A1V2H0UF94ATWY","3UUIU9GZC6BQMHTLWW3KSJ0W7IE5TB","34T446B1C2KDSD33367JBYZQLZW0CK","model","match","uniform","","","","","","","","326011.80000000075","328026.9000000004","","","","","","","","","","","","4","","stimuli/stars_4.png","252","","","","","stimuli/WF04_HO.jpg","",""
"explore-choice","155","328915","0.0-155.0","p192278","A1V2H0UF94ATWY","3UUIU9GZC6BQMHTLWW3KSJ0W7IE5TB","34T446B1C2KDSD33367JBYZQLZW0CK","model","match","uniform","","","","","","","1752.2000000001863","328027.9000000004","329780.10000000056","[""stimuli/WF04_CC.jpg"",""stimuli/BF04_HO.jpg"",""stimuli/WF06_HE.jpg"",""stimuli/HF10_SUR.jpg""]","stimuli/WF04_CC.jpg","stimuli/BF04_HO.jpg","stimuli/WF06_HE.jpg","stimuli/HF10_SUR.jpg","pos4","stimuli/HF10_SUR.jpg","SUR","HF10","3","2.5","5","4","stimuli/stars_5.png","254.5","[""CC"",""HO"",""HE"",""SUR""]","[""WF04"",""BF04"",""WF06"",""HF10""]","[7,8,3,5]","[6,8,2,4]","","",""
"show-reward","156","330930","0.0-156.0","p192278","A1V2H0UF94ATWY","3UUIU9GZC6BQMHTLWW3KSJ0W7IE5TB","34T446B1C2KDSD33367JBYZQLZW0CK","model","match","uniform","","","","","","","","330285.10000000056","332298.9000000004","","","","","","","","","","","","5","","stimuli/stars_5.png","254.5","","","","","stimuli/HF10_SUR.jpg","",""
"explore-choice","157","332865","0.0-157.0","p192278","A1V2H0UF94ATWY","3UUIU9GZC6BQMHTLWW3KSJ0W7IE5TB","34T446B1C2KDSD33367JBYZQLZW0CK","model","match","uniform","","","","","","","1424.7000000001863","332299.4000000004","333724.10000000056","[""stimuli/HF10_HO.jpg"",""stimuli/WF06_HE.jpg"",""stimuli/WF04_SUR.jpg"",""stimuli/BF04_CC.jpg""]","stimuli/HF10_HO.jpg","stimuli/WF06_HE.jpg","stimuli/WF04_SUR.jpg","stimuli/BF04_CC.jpg","pos3","stimuli/WF04_SUR.jpg","SUR","WF04","2","2.5","5","6","stimuli/stars_5.png","257","[""HO"",""HE"",""SUR"",""CC""]","[""HF10"",""WF06"",""WF04"",""BF04""]","[4,0,5,8]","[4,2,6,8]","","",""
"show-reward","158","334878","0.0-158.0","p192278","A1V2H0UF94ATWY","3UUIU9GZC6BQMHTLWW3KSJ0W7IE5TB","34T446B1C2KDSD33367JBYZQLZW0CK","model","match","uniform","","","","","","","","334235.30000000075","336246.60000000056","","","","","","","","","","","","5","","stimuli/stars_5.png","257","","","","","stimuli/WF04_SUR.jpg","",""
"explore-choice","159","337822","0.0-159.0","p192278","A1V2H0UF94ATWY","3UUIU9GZC6BQMHTLWW3KSJ0W7IE5TB","34T446B1C2KDSD33367JBYZQLZW0CK","model","match","uniform","","","","","","","2435.399999999441","336248.80000000075","338684.2000000002","[""stimuli/WF06_SUR.jpg"",""stimuli/HF10_CC.jpg"",""stimuli/BF04_HO.jpg"",""stimuli/WF04_HE.jpg""]","stimuli/WF06_SUR.jpg","stimuli/HF10_CC.jpg","stimuli/BF04_HO.jpg","stimuli/WF04_HE.jpg","pos4","stimuli/WF04_HE.jpg","HE","WF04","3","3.5","7","6","stimuli/stars_7.png","260.5","[""SUR"",""CC"",""HO"",""HE""]","[""WF06"",""HF10"",""BF04"",""WF04""]","[2,2,10,7]","[2,4,8,6]","","",""
"show-reward","160","339829","0.0-160.0","p192278","A1V2H0UF94ATWY","3UUIU9GZC6BQMHTLWW3KSJ0W7IE5TB","34T446B1C2KDSD33367JBYZQLZW0CK","model","match","uniform","","","","","","","","339192","341197.80000000075","","","","","","","","","","","","7","","stimuli/stars_7.png","260.5","","","","","stimuli/WF04_HE.jpg","",""
"explore-choice","161","342445","0.0-161.0","p192278","A1V2H0UF94ATWY","3UUIU9GZC6BQMHTLWW3KSJ0W7IE5TB","34T446B1C2KDSD33367JBYZQLZW0CK","model","match","uniform","","","","","","","2109","341199.10000000056","343308.10000000056","[""stimuli/BF04_HO.jpg"",""stimuli/HF10_CC.jpg"",""stimuli/WF04_SUR.jpg"",""stimuli/WF06_HE.jpg""]","stimuli/BF04_HO.jpg","stimuli/HF10_CC.jpg","stimuli/WF04_SUR.jpg","stimuli/WF06_HE.jpg","pos3","stimuli/WF04_SUR.jpg","SUR","WF04","2","4","8","6","stimuli/stars_8.png","264.5","[""HO"",""CC"",""SUR"",""HE""]","[""BF04"",""HF10"",""WF04"",""WF06""]","[7,6,8,3]","[8,4,6,2]","","",""
"show-reward","162","344464","0.0-162.0","p192278","A1V2H0UF94ATWY","3UUIU9GZC6BQMHTLWW3KSJ0W7IE5TB","34T446B1C2KDSD33367JBYZQLZW0CK","model","match","uniform","","","","","","","","343814.60000000056","345832.5","","","","","","","","","","","","8","","stimuli/stars_8.png","264.5","","","","","stimuli/WF04_SUR.jpg","",""
"explore-choice","163","347554","0.0-163.0","p192278","A1V2H0UF94ATWY","3UUIU9GZC6BQMHTLWW3KSJ0W7IE5TB","34T446B1C2KDSD33367JBYZQLZW0CK","model","match","uniform","","","","","","","2586.7000000001863","345833.5","348420.2000000002","[""stimuli/BF04_HO.jpg"",""stimuli/WF04_CC.jpg"",""stimuli/HF10_HE.jpg"",""stimuli/WF06_SUR.jpg""]","stimuli/BF04_HO.jpg","stimuli/WF04_CC.jpg","stimuli/HF10_HE.jpg","stimuli/WF06_SUR.jpg","pos1","stimuli/BF04_HO.jpg","HO","BF04","0","3","6","8","stimuli/stars_6.png","267.5","[""HO"",""CC"",""HE"",""SUR""]","[""BF04"",""WF04"",""HF10"",""WF06""]","[6,4,2,1]","[8,6,4,2]","","",""
"show-reward","164","349571","0.0-164.0","p192278","A1V2H0UF94ATWY","3UUIU9GZC6BQMHTLWW3KSJ0W7IE5TB","34T446B1C2KDSD33367JBYZQLZW0CK","model","match","uniform","","","","","","","","348924.2000000002","350939.10000000056","","","","","","","","","","","","6","","stimuli/stars_6.png","267.5","","","","","stimuli/BF04_HO.jpg","",""
"explore-choice","165","351618","0.0-165.0","p192278","A1V2H0UF94ATWY","3UUIU9GZC6BQMHTLWW3KSJ0W7IE5TB","34T446B1C2KDSD33367JBYZQLZW0CK","model","match","uniform","","","","","","","1543.6000000005588","350940.5","352484.10000000056","[""stimuli/BF04_CC.jpg"",""stimuli/HF10_SUR.jpg"",""stimuli/WF04_HE.jpg"",""stimuli/WF06_HO.jpg""]","stimuli/BF04_CC.jpg","stimuli/HF10_SUR.jpg","stimuli/WF04_HE.jpg","stimuli/WF06_HO.jpg","pos3","stimuli/WF04_HE.jpg","HE","WF04","2","4","8","6","stimuli/stars_8.png","271.5","[""CC"",""SUR"",""HE"",""HO""]","[""BF04"",""HF10"",""WF04"",""WF06""]","[6,2,8,0]","[8,4,6,2]","","",""
"show-reward","166","353626","0.0-166.0","p192278","A1V2H0UF94ATWY","3UUIU9GZC6BQMHTLWW3KSJ0W7IE5TB","34T446B1C2KDSD33367JBYZQLZW0CK","model","match","uniform","","","","","","","","352987.7000000002","354994.4000000004","","","","","","","","","","","","8","","stimuli/stars_8.png","271.5","","","","","stimuli/WF04_HE.jpg","",""
"explore-choice","167","355564","0.0-167.0","p192278","A1V2H0UF94ATWY","3UUIU9GZC6BQMHTLWW3KSJ0W7IE5TB","34T446B1C2KDSD33367JBYZQLZW0CK","model","match","uniform","","","","","","","1424.5","354995.60000000056","356420.10000000056","[""stimuli/WF04_HE.jpg"",""stimuli/BF04_SUR.jpg"",""stimuli/HF10_HO.jpg"",""stimuli/WF06_CC.jpg""]","stimuli/WF04_HE.jpg","stimuli/BF04_SUR.jpg","stimuli/HF10_HO.jpg","stimuli/WF06_CC.jpg","pos1","stimuli/WF04_HE.jpg","HE","WF04","0","3.5","7","6","stimuli/stars_7.png","275","[""HE"",""SUR"",""HO"",""CC""]","[""WF04"",""BF04"",""HF10"",""WF06""]","[7,9,6,4]","[6,8,4,2]","","",""
"show-reward","168","357573","0.0-168.0","p192278","A1V2H0UF94ATWY","3UUIU9GZC6BQMHTLWW3KSJ0W7IE5TB","34T446B1C2KDSD33367JBYZQLZW0CK","model","match","uniform","","","","","","","","356933.4000000004","358940.9000000004","","","","","","","","","","","","7","","stimuli/stars_7.png","275","","","","","stimuli/WF04_HE.jpg","",""
"explore-choice","169","358943","0.0-169.0","p192278","A1V2H0UF94ATWY","3UUIU9GZC6BQMHTLWW3KSJ0W7IE5TB","34T446B1C2KDSD33367JBYZQLZW0CK","model","match","uniform","","","","","","","854.4000000003725","358941.9000000004","359796.30000000075","[""stimuli/BF04_SUR.jpg"",""stimuli/WF06_HO.jpg"",""stimuli/WF04_CC.jpg"",""stimuli/HF10_HE.jpg""]","stimuli/BF04_SUR.jpg","stimuli/WF06_HO.jpg","stimuli/WF04_CC.jpg","stimuli/HF10_HE.jpg","pos1","stimuli/BF04_SUR.jpg","SUR","BF04","0","4","8","8","stimuli/stars_8.png","279","[""SUR"",""HO"",""CC"",""HE""]","[""BF04"",""WF06"",""WF04"",""HF10""]","[8,3,8,3]","[8,2,6,4]","","",""
"show-reward","170","360956","0.0-170.0","p192278","A1V2H0UF94ATWY","3UUIU9GZC6BQMHTLWW3KSJ0W7IE5TB","34T446B1C2KDSD33367JBYZQLZW0CK","model","match","uniform","","","","","","","","360311.9000000004","362324.4000000004","","","","","","","","","","","","8","","stimuli/stars_8.png","279","","","","","stimuli/BF04_SUR.jpg","",""
"explore-choice","171","363557","0.0-171.0","p192278","A1V2H0UF94ATWY","3UUIU9GZC6BQMHTLWW3KSJ0W7IE5TB","34T446B1C2KDSD33367JBYZQLZW0CK","model","match","uniform","","","","","","","2086.699999999255","362325.30000000075","364412","[""stimuli/HF10_HE.jpg"",""stimuli/WF06_CC.jpg"",""stimuli/BF04_HO.jpg"",""stimuli/WF04_SUR.jpg""]","stimuli/HF10_HE.jpg","stimuli/WF06_CC.jpg","stimuli/BF04_HO.jpg","stimuli/WF04_SUR.jpg","pos4","stimuli/WF04_SUR.jpg","SUR","WF04","3","3.5","7","6","stimuli/stars_7.png","282.5","[""HE"",""CC"",""HO"",""SUR""]","[""HF10"",""WF06"",""BF04"",""WF04""]","[2,1,6,7]","[4,2,8,6]","","",""
"show-reward","172","365563","0.0-172.0","p192278","A1V2H0UF94ATWY","3UUIU9GZC6BQMHTLWW3KSJ0W7IE5TB","34T446B1C2KDSD33367JBYZQLZW0CK","model","match","uniform","","","","","","","","364926.10000000056","366931.2000000002","","","","","","","","","","","","7","","stimuli/stars_7.png","282.5","","","","","stimuli/WF04_SUR.jpg","",""
"explore-choice","173","368382","0.0-173.0","p192278","A1V2H0UF94ATWY","3UUIU9GZC6BQMHTLWW3KSJ0W7IE5TB","34T446B1C2KDSD33367JBYZQLZW0CK","model","match","uniform","","","","","","","2304","366932","369236","[""stimuli/BF04_CC.jpg"",""stimuli/WF06_HE.jpg"",""stimuli/WF04_HO.jpg"",""stimuli/HF10_SUR.jpg""]","stimuli/BF04_CC.jpg","stimuli/WF06_HE.jpg","stimuli/WF04_HO.jpg","stimuli/HF10_SUR.jpg","pos3","stimuli/WF04_HO.jpg","HO","WF04","2","2","4","6","stimuli/stars_4.png","284.5","[""CC"",""HE"",""HO"",""SUR""]","[""BF04"",""WF06"",""WF04"",""HF10""]","[7,0,4,5]","[8,2,6,4]","","",""
"show-reward","174","370390","0.0-174.0","p192278","A1V2H0UF94ATWY","3UUIU9GZC6BQMHTLWW3KSJ0W7IE5TB","34T446B1C2KDSD33367JBYZQLZW0CK","model","match","uniform","","","","","","","","369751.2000000002","371758.10000000056","","","","","","","","","","","","4","","stimuli/stars_4.png","284.5","","","","","stimuli/WF04_HO.jpg","",""
"explore-choice","175","373337","0.0-175.0","p192278","A1V2H0UF94ATWY","3UUIU9GZC6BQMHTLWW3KSJ0W7IE5TB","34T446B1C2KDSD33367JBYZQLZW0CK","model","match","uniform","","","","","","","2445.2999999998137","371758.7000000002","374204","[""stimuli/WF06_HO.jpg"",""stimuli/WF04_SUR.jpg"",""stimuli/BF04_HE.jpg"",""stimuli/HF10_CC.jpg""]","stimuli/WF06_HO.jpg","stimuli/WF04_SUR.jpg","stimuli/BF04_HE.jpg","stimuli/HF10_CC.jpg","pos2","stimuli/WF04_SUR.jpg","SUR","WF04","1","2","4","6","stimuli/stars_4.png","286.5","[""HO"",""SUR"",""HE"",""CC""]","[""WF06"",""WF04"",""BF04"",""HF10""]","[2,4,10,2]","[2,6,8,4]","","",""
"show-reward","176","375342","0.0-176.0","p192278","A1V2H0UF94ATWY","3UUIU9GZC6BQMHTLWW3KSJ0W7IE5TB","34T446B1C2KDSD33367JBYZQLZW0CK","model","match","uniform","","","","","","","","374705.7000000002","376709.9000000004","","","","","","","","","","","","4","","stimuli/stars_4.png","286.5","","","","","stimuli/WF04_SUR.jpg","",""
"explore-choice","177","376975","0.0-177.0","p192278","A1V2H0UF94ATWY","3UUIU9GZC6BQMHTLWW3KSJ0W7IE5TB","34T446B1C2KDSD33367JBYZQLZW0CK","model","match","uniform","","","","","","","1125.9000000003725","376710.5","377836.4000000004","[""stimuli/BF04_HE.jpg"",""stimuli/HF10_HO.jpg"",""stimuli/WF06_CC.jpg"",""stimuli/WF04_SUR.jpg""]","stimuli/BF04_HE.jpg","stimuli/HF10_HO.jpg","stimuli/WF06_CC.jpg","stimuli/WF04_SUR.jpg","pos1","stimuli/BF04_HE.jpg","HE","BF04","0","3","6","8","stimuli/stars_6.png","289.5","[""HE"",""HO"",""CC"",""SUR""]","[""BF04"",""HF10"",""WF06"",""WF04""]","[6,4,4,4]","[8,4,2,6]","","",""
"show-reward","178","378985","0.0-178.0","p192278","A1V2H0UF94ATWY","3UUIU9GZC6BQMHTLWW3KSJ0W7IE5TB","34T446B1C2KDSD33367JBYZQLZW0CK","model","match","uniform","","","","","","","","378343.9000000004","380352.80000000075","","","","","","","","","","","","6","","stimuli/stars_6.png","289.5","","","","","stimuli/BF04_HE.jpg","",""
"explore-choice","179","380624","0.0-179.0","p192278","A1V2H0UF94ATWY","3UUIU9GZC6BQMHTLWW3KSJ0W7IE5TB","34T446B1C2KDSD33367JBYZQLZW0CK","model","match","uniform","","","","","","","1122","380354.10000000056","381476.10000000056","[""stimuli/HF10_CC.jpg"",""stimuli/WF04_HE.jpg"",""stimuli/BF04_SUR.jpg"",""stimuli/WF06_HO.jpg""]","stimuli/HF10_CC.jpg","stimuli/WF04_HE.jpg","stimuli/BF04_SUR.jpg","stimuli/WF06_HO.jpg","pos3","stimuli/BF04_SUR.jpg","SUR","BF04","2","4","8","8","stimuli/stars_8.png","293.5","[""CC"",""HE"",""SUR"",""HO""]","[""HF10"",""WF04"",""BF04"",""WF06""]","[5,4,8,3]","[4,6,8,2]","","",""
"show-reward","180","382633","0.0-180.0","p192278","A1V2H0UF94ATWY","3UUIU9GZC6BQMHTLWW3KSJ0W7IE5TB","34T446B1C2KDSD33367JBYZQLZW0CK","model","match","uniform","","","","","","","","381992.7000000002","384001.5","","","","","","","","","","","","8","","stimuli/stars_8.png","293.5","","","","","stimuli/BF04_SUR.jpg","",""
"explore-choice","181","384969","0.0-181.0","p192278","A1V2H0UF94ATWY","3UUIU9GZC6BQMHTLWW3KSJ0W7IE5TB","34T446B1C2KDSD33367JBYZQLZW0CK","model","match","uniform","","","","","","","1834","384002.2000000002","385836.2000000002","[""stimuli/WF06_HO.jpg"",""stimuli/WF04_CC.jpg"",""stimuli/BF04_HE.jpg"",""stimuli/HF10_SUR.jpg""]","stimuli/WF06_HO.jpg","stimuli/WF04_CC.jpg","stimuli/BF04_HE.jpg","stimuli/HF10_SUR.jpg","pos4","stimuli/HF10_SUR.jpg","SUR","HF10","3","2","4","4","stimuli/stars_4.png","295.5","[""HO"",""CC"",""HE"",""SUR""]","[""WF06"",""WF04"",""BF04"",""HF10""]","[0,7,6,4]","[2,6,8,4]","","",""
"show-reward","182","386981","0.0-182.0","p192278","A1V2H0UF94ATWY","3UUIU9GZC6BQMHTLWW3KSJ0W7IE5TB","34T446B1C2KDSD33367JBYZQLZW0CK","model","match","uniform","","","","","","","","386338.5","388349.10000000056","","","","","","","","","","","","4","","stimuli/stars_4.png","295.5","","","","","stimuli/HF10_SUR.jpg","",""
"explore-choice","183","389846","0.0-183.0","p192278","A1V2H0UF94ATWY","3UUIU9GZC6BQMHTLWW3KSJ0W7IE5TB","34T446B1C2KDSD33367JBYZQLZW0CK","model","match","uniform","","","","","","","2349.5999999996275","388350.4000000004","390700","[""stimuli/HF10_SUR.jpg"",""stimuli/WF06_CC.jpg"",""stimuli/BF04_HE.jpg"",""stimuli/WF04_HO.jpg""]","stimuli/HF10_SUR.jpg","stimuli/WF06_CC.jpg","stimuli/BF04_HE.jpg","stimuli/WF04_HO.jpg","pos3","stimuli/BF04_HE.jpg","HE","BF04","2","3.5","7","8","stimuli/stars_7.png","299","[""SUR"",""CC"",""HE"",""HO""]","[""HF10"",""WF06"",""BF04"",""WF04""]","[3,2,7,8]","[4,2,8,6]","","",""
"show-reward","184","391861","0.0-184.0","p192278","A1V2H0UF94ATWY","3UUIU9GZC6BQMHTLWW3KSJ0W7IE5TB","34T446B1C2KDSD33367JBYZQLZW0CK","model","match","uniform","","","","","","","","391215.60000000056","393228.5","","","","","","","","","","","","7","","stimuli/stars_7.png","299","","","","","stimuli/BF04_HE.jpg","",""
"explore-choice","185","394202","0.0-185.0","p192278","A1V2H0UF94ATWY","3UUIU9GZC6BQMHTLWW3KSJ0W7IE5TB","34T446B1C2KDSD33367JBYZQLZW0CK","model","match","uniform","","","","","","","1830.0999999996275","393229.9000000004","395060","[""stimuli/BF04_HE.jpg"",""stimuli/HF10_CC.jpg"",""stimuli/WF04_HO.jpg"",""stimuli/WF06_SUR.jpg""]","stimuli/BF04_HE.jpg","stimuli/HF10_CC.jpg","stimuli/WF04_HO.jpg","stimuli/WF06_SUR.jpg","pos1","stimuli/BF04_HE.jpg","HE","BF04","0","3","6","8","stimuli/stars_6.png","302","[""HE"",""CC"",""HO"",""SUR""]","[""BF04"",""HF10"",""WF04"",""WF06""]","[6,3,5,1]","[8,4,6,2]","","",""
"show-reward","186","396210","0.0-186.0","p192278","A1V2H0UF94ATWY","3UUIU9GZC6BQMHTLWW3KSJ0W7IE5TB","34T446B1C2KDSD33367JBYZQLZW0CK","model","match","uniform","","","","","","","","395571","397578.10000000056","","","","","","","","","","","","6","","stimuli/stars_6.png","302","","","","","stimuli/BF04_HE.jpg","",""
"explore-choice","187","398523","0.0-187.0","p192278","A1V2H0UF94ATWY","3UUIU9GZC6BQMHTLWW3KSJ0W7IE5TB","34T446B1C2KDSD33367JBYZQLZW0CK","model","match","uniform","","","","","","","1800.199999999255","397579.80000000075","399380","[""stimuli/HF10_HE.jpg"",""stimuli/BF04_SUR.jpg"",""stimuli/WF06_CC.jpg"",""stimuli/WF04_HO.jpg""]","stimuli/HF10_HE.jpg","stimuli/BF04_SUR.jpg","stimuli/WF06_CC.jpg","stimuli/WF04_HO.jpg","pos4","stimuli/WF04_HO.jpg","HO","WF04","3","4","8","6","stimuli/stars_8.png","306","[""HE"",""SUR"",""CC"",""HO""]","[""HF10"",""BF04"",""WF06"",""WF04""]","[6,10,2,8]","[4,8,2,6]","","",""
"show-reward","188","400535","0.0-188.0","p192278","A1V2H0UF94ATWY","3UUIU9GZC6BQMHTLWW3KSJ0W7IE5TB","34T446B1C2KDSD33367JBYZQLZW0CK","model","match","uniform","","","","","","","","399892.5","401902.7000000002","","","","","","","","","","","","8","","stimuli/stars_8.png","306","","","","","stimuli/WF04_HO.jpg","",""
"explore-choice","189","404440","0.0-189.0","p192278","A1V2H0UF94ATWY","3UUIU9GZC6BQMHTLWW3KSJ0W7IE5TB","34T446B1C2KDSD33367JBYZQLZW0CK","model","match","uniform","","","","","","","3396","401904.10000000056","405300.10000000056","[""stimuli/BF04_CC.jpg"",""stimuli/WF06_HO.jpg"",""stimuli/HF10_HE.jpg"",""stimuli/WF04_SUR.jpg""]","stimuli/BF04_CC.jpg","stimuli/WF06_HO.jpg","stimuli/HF10_HE.jpg","stimuli/WF04_SUR.jpg","pos1","stimuli/BF04_CC.jpg","CC","BF04","0","5","10","8","stimuli/stars_10.png","311","[""CC"",""HO"",""HE"",""SUR""]","[""BF04"",""WF06"",""HF10"",""WF04""]","[10,1,6,8]","[8,2,4,6]","","",""
"show-reward","190","406456","0.0-190.0","p192278","A1V2H0UF94ATWY","3UUIU9GZC6BQMHTLWW3KSJ0W7IE5TB","34T446B1C2KDSD33367JBYZQLZW0CK","model","match","uniform","","","","","","","","405808.9000000004","407824","","","","","","","","","","","","10","","stimuli/stars_10.png","311","","","","","stimuli/BF04_CC.jpg","",""
"explore-choice","191","408253","0.0-191.0","p192278","A1V2H0UF94ATWY","3UUIU9GZC6BQMHTLWW3KSJ0W7IE5TB","34T446B1C2KDSD33367JBYZQLZW0CK","model","match","uniform","","","","","","","1291","407825.4000000004","409116.4000000004","[""stimuli/HF10_HO.jpg"",""stimuli/WF06_SUR.jpg"",""stimuli/WF04_HE.jpg"",""stimuli/BF04_CC.jpg""]","stimuli/HF10_HO.jpg","stimuli/WF06_SUR.jpg","stimuli/WF04_HE.jpg","stimuli/BF04_CC.jpg","pos4","stimuli/BF04_CC.jpg","CC","BF04","3","4.5","9","8","stimuli/stars_9.png","315.5","[""HO"",""SUR"",""HE"",""CC""]","[""HF10"",""WF06"",""WF04"",""BF04""]","[6,0,4,9]","[4,2,6,8]","","",""
"show-reward","192","410269","0.0-192.0","p192278","A1V2H0UF94ATWY","3UUIU9GZC6BQMHTLWW3KSJ0W7IE5TB","34T446B1C2KDSD33367JBYZQLZW0CK","model","match","uniform","","","","","","","","409622","411637.2000000002","","","","","","","","","","","","9","","stimuli/stars_9.png","315.5","","","","","stimuli/BF04_CC.jpg","",""
"explore-choice","193","412453","0.0-193.0","p192278","A1V2H0UF94ATWY","3UUIU9GZC6BQMHTLWW3KSJ0W7IE5TB","34T446B1C2KDSD33367JBYZQLZW0CK","model","match","uniform","","","","","","","1669.7999999998137","411638.4000000004","413308.2000000002","[""stimuli/WF04_CC.jpg"",""stimuli/WF06_SUR.jpg"",""stimuli/BF04_HE.jpg"",""stimuli/HF10_HO.jpg""]","stimuli/WF04_CC.jpg","stimuli/WF06_SUR.jpg","stimuli/BF04_HE.jpg","stimuli/HF10_HO.jpg","pos3","stimuli/BF04_HE.jpg","HE","BF04","2","4.5","9","8","stimuli/stars_9.png","320","[""CC"",""SUR"",""HE"",""HO""]","[""WF04"",""WF06"",""BF04"",""HF10""]","[6,4,9,4]","[6,2,8,4]","","",""
"show-reward","194","414470","0.0-194.0","p192278","A1V2H0UF94ATWY","3UUIU9GZC6BQMHTLWW3KSJ0W7IE5TB","34T446B1C2KDSD33367JBYZQLZW0CK","model","match","uniform","","","","","","","","413821.80000000075","415837.7000000002","","","","","","","","","","","","9","","stimuli/stars_9.png","320","","","","","stimuli/BF04_HE.jpg","",""
"explore-choice","195","415831","0.0-195.0","p192278","A1V2H0UF94ATWY","3UUIU9GZC6BQMHTLWW3KSJ0W7IE5TB","34T446B1C2KDSD33367JBYZQLZW0CK","model","match","uniform","","","","","","","845.3999999994412","415838.60000000056","416684","[""stimuli/WF04_CC.jpg"",""stimuli/HF10_HO.jpg"",""stimuli/BF04_SUR.jpg"",""stimuli/WF06_HE.jpg""]","stimuli/WF04_CC.jpg","stimuli/HF10_HO.jpg","stimuli/BF04_SUR.jpg","stimuli/WF06_HE.jpg","pos3","stimuli/BF04_SUR.jpg","SUR","BF04","2","3.5","7","8","stimuli/stars_7.png","323.5","[""CC"",""HO"",""SUR"",""HE""]","[""WF04"",""HF10"",""BF04"",""WF06""]","[8,4,7,3]","[6,4,8,2]","","",""
"show-reward","196","417845","0.0-196.0","p192278","A1V2H0UF94ATWY","3UUIU9GZC6BQMHTLWW3KSJ0W7IE5TB","34T446B1C2KDSD33367JBYZQLZW0CK","model","match","uniform","","","","","","","","417199.80000000075","419213","","","","","","","","","","","","7","","stimuli/stars_7.png","323.5","","","","","stimuli/BF04_SUR.jpg","",""
"explore-choice","197","419075","0.0-197.0","p192278","A1V2H0UF94ATWY","3UUIU9GZC6BQMHTLWW3KSJ0W7IE5TB","34T446B1C2KDSD33367JBYZQLZW0CK","model","match","uniform","","","","","","","718.1000000005588","419214","419932.10000000056","[""stimuli/WF06_SUR.jpg"",""stimuli/WF04_HO.jpg"",""stimuli/BF04_CC.jpg"",""stimuli/HF10_HE.jpg""]","stimuli/WF06_SUR.jpg","stimuli/WF04_HO.jpg","stimuli/BF04_CC.jpg","stimuli/HF10_HE.jpg","pos3","stimuli/BF04_CC.jpg","CC","BF04","2","3.5","7","8","stimuli/stars_7.png","327","[""SUR"",""HO"",""CC"",""HE""]","[""WF06"",""WF04"",""BF04"",""HF10""]","[2,6,7,5]","[2,6,8,4]","","",""
"show-reward","198","421087","0.0-198.0","p192278","A1V2H0UF94ATWY","3UUIU9GZC6BQMHTLWW3KSJ0W7IE5TB","34T446B1C2KDSD33367JBYZQLZW0CK","model","match","uniform","","","","","","","","420445.4000000004","422454.60000000056","","","","","","","","","","","","7","","stimuli/stars_7.png","327","","","","","stimuli/BF04_CC.jpg","",""
"instructions","199","426404","0.0-199.0","p192278","A1V2H0UF94ATWY","3UUIU9GZC6BQMHTLWW3KSJ0W7IE5TB","34T446B1C2KDSD33367JBYZQLZW0CK","model","match","uniform","","","","","","[{""page_index"":0,""viewing_time"":5316.399999999441}]","5316.5","","","","","","","","","","","","","","","","","","","","","","","",""
"survey-text","200","430212","0.0-200.0-0.0","p192278","A1V2H0UF94ATWY","3UUIU9GZC6BQMHTLWW3KSJ0W7IE5TB","34T446B1C2KDSD33367JBYZQLZW0CK","model","match","uniform","","","","","","","3805.5","","","","","","","","","","","","","","","","","","","","","","","{""age"":""63""}",""
"survey-text","201","435652","0.0-200.0-1.0","p192278","A1V2H0UF94ATWY","3UUIU9GZC6BQMHTLWW3KSJ0W7IE5TB","34T446B1C2KDSD33367JBYZQLZW0CK","model","match","uniform","","","","","","","5438.200000000186","","","","","","","","","","","","","","","","","","","","","","","{""gender"":""MALE""}",""
"survey-text","202","444532","0.0-200.0-2.0","p192278","A1V2H0UF94ATWY","3UUIU9GZC6BQMHTLWW3KSJ0W7IE5TB","34T446B1C2KDSD33367JBYZQLZW0CK","model","match","uniform","","","","","","","8878.299999999814","","","","","","","","","","","","","","","","","","","","","","","{""country"":""United States""}",""
"survey-text","203","451276","0.0-200.0-3.0","p192278","A1V2H0UF94ATWY","3UUIU9GZC6BQMHTLWW3KSJ0W7IE5TB","34T446B1C2KDSD33367JBYZQLZW0CK","model","match","uniform","","","","","","","6742.200000000186","","","","","","","","","","","","","","","","","","","","","","","{""language"":""English"",""other_languages"":""na""}",""
"survey-multi-select","204","453957","0.0-201.0","p192278","A1V2H0UF94ATWY","3UUIU9GZC6BQMHTLWW3KSJ0W7IE5TB","34T446B1C2KDSD33367JBYZQLZW0CK","model","match","uniform","","","","","","","2677.699999999255","","","","","","","","","","","","","","","","","","","","","","","{""race"":[""White""]}","[0]"
"survey-multi-choice","205","456005","0.0-202.0","p192278","A1V2H0UF94ATWY","3UUIU9GZC6BQMHTLWW3KSJ0W7IE5TB","34T446B1C2KDSD33367JBYZQLZW0CK","model","match","uniform","","","","","","","2045.8999999994412","","","","","","","","","","","","","","","","","","","","","","","{""education"":""Some college/ university""}","[0]"
"survey-text","206","504436","0.0-203.0","p192278","A1V2H0UF94ATWY","3UUIU9GZC6BQMHTLWW3KSJ0W7IE5TB","34T446B1C2KDSD33367JBYZQLZW0CK","model","match","uniform","","","","","","","48429","","","","","","","","","","","","","","","","","","","","","","","{""patterns"":""Seemed like one individual was consistently better than the others"",""strategy"":""tried to find the best, consistent, individual"",""comments"":""no""}",""
