"trial_type","trial_index","time_elapsed","internal_node_id","subject","workerId","hitId","assignmentId","structure_condition","match_condition","noise_type","success","timeout","failed_images","failed_audio","failed_video","view_history","rt","start_time","end_time","stimuli","image1","image2","image3","image4","choiceLocation","choiceImage","choiceEmotion","choiceModel","choice_index","reward_score","reward","reward_score_unadjusted","reward_image","score_after_trial","emotions","models","rewards","rewards_unadjusted","stimulus","response","question_order"
"pavlovia","0","10","0.0-0.0","p796589","A3M97OV77U9I31","3S1L4CQSFYBD9IN1W8PCJQ1H8N7AFE","3X87C8JFV8HHNNXYHQRY59UQK6FSQ3","emotion","match","uniform","","","","","","","","","","","","","","","","","","","","","","","","","","","","","","",""
"preload","1","2829","0.0-1.0","p796589","A3M97OV77U9I31","3S1L4CQSFYBD9IN1W8PCJQ1H8N7AFE","3X87C8JFV8HHNNXYHQRY59UQK6FSQ3","emotion","match","uniform","true","false","[]","[]","[]","","","","","","","","","","","","","","","","","","","","","","","","","",""
"fullscreen","2","8902","0.0-2.0","p796589","A3M97OV77U9I31","3S1L4CQSFYBD9IN1W8PCJQ1H8N7AFE","3X87C8JFV8HHNNXYHQRY59UQK6FSQ3","emotion","match","uniform","true","","","","","","","","","","","","","","","","","","","","","","","","","","","","","",""
"instructions","3","25639","0.0-3.0","p796589","A3M97OV77U9I31","3S1L4CQSFYBD9IN1W8PCJQ1H8N7AFE","3X87C8JFV8HHNNXYHQRY59UQK6FSQ3","emotion","match","uniform","","","","","","[{""page_index"":0,""viewing_time"":16734}]","16734.600000023842","","","","","","","","","","","","","","","","","","","","","","","",""
"explore-choice","4","28094","0.0-4.0","p796589","A3M97OV77U9I31","3S1L4CQSFYBD9IN1W8PCJQ1H8N7AFE","3X87C8JFV8HHNNXYHQRY59UQK6FSQ3","emotion","match","uniform","","","","","","","1951.7000000476837","28516.399999976158","30468.100000023842","[""stimuli/sheep.jpg"",""stimuli/hammer.jpg"",""stimuli/basketball.jpg"",""stimuli/horse.jpg""]","stimuli/sheep.jpg","stimuli/hammer.jpg","stimuli/basketball.jpg","stimuli/horse.jpg","pos4","stimuli/horse.jpg","","","3","64","64","64","stimuli/stars_8.png","65","","","","","","",""
"explore-choice","5","29710","0.0-5.0","p796589","A3M97OV77U9I31","3S1L4CQSFYBD9IN1W8PCJQ1H8N7AFE","3X87C8JFV8HHNNXYHQRY59UQK6FSQ3","emotion","match","uniform","","","","","","","1109.6000000238419","30971.600000023842","32081.200000047684","[""stimuli/hammer.jpg"",""stimuli/basketball.jpg"",""stimuli/horse.jpg"",""stimuli/sheep.jpg""]","stimuli/hammer.jpg","stimuli/basketball.jpg","stimuli/horse.jpg","stimuli/sheep.jpg","pos1","stimuli/hammer.jpg","","","0","8","8","8","stimuli/stars_2.png","9","","","","","","",""
"instructions","6","33069","0.0-6.0","p796589","A3M97OV77U9I31","3S1L4CQSFYBD9IN1W8PCJQ1H8N7AFE","3X87C8JFV8HHNNXYHQRY59UQK6FSQ3","emotion","match","uniform","","","","","","[{""page_index"":0,""viewing_time"":3357.1999999284744}]","3357.6999999284744","","","","","","","","","","","","","","","","","","","","","","","",""
"explore-choice","7","36496","0.0-7.0","p796589","A3M97OV77U9I31","3S1L4CQSFYBD9IN1W8PCJQ1H8N7AFE","3X87C8JFV8HHNNXYHQRY59UQK6FSQ3","emotion","match","uniform","","","","","","","2923.399999976158","35948","38871.39999997616","[""stimuli/HM07_HO.jpg"",""stimuli/WF14_SC.jpg"",""stimuli/AM05_SUR.jpg"",""stimuli/HM09_DO.jpg""]","stimuli/HM07_HO.jpg","stimuli/WF14_SC.jpg","stimuli/AM05_SUR.jpg","stimuli/HM09_DO.jpg","pos4","stimuli/HM09_DO.jpg","DO","HM09","3","3","6","8","stimuli/stars_6.png","4","[""HO"",""SC"",""SUR"",""DO""]","[""HM07"",""WF14"",""AM05"",""HM09""]","[1,2,7,6]","[2,4,6,8]","","",""
"show-reward","8","38507","0.0-8.0","p796589","A3M97OV77U9I31","3S1L4CQSFYBD9IN1W8PCJQ1H8N7AFE","3X87C8JFV8HHNNXYHQRY59UQK6FSQ3","emotion","match","uniform","","","","","","","","39375.799999952316","41382.60000002384","","","","","","","","","","","","6","","stimuli/stars_6.png","4","","","","","stimuli/HM09_DO.jpg","",""
"explore-choice","9","40811","0.0-9.0","p796589","A3M97OV77U9I31","3S1L4CQSFYBD9IN1W8PCJQ1H8N7AFE","3X87C8JFV8HHNNXYHQRY59UQK6FSQ3","emotion","match","uniform","","","","","","","1797.3999999761581","41385","43182.39999997616","[""stimuli/AM05_HO.jpg"",""stimuli/HM07_SC.jpg"",""stimuli/HM09_SUR.jpg"",""stimuli/WF14_DO.jpg""]","stimuli/AM05_HO.jpg","stimuli/HM07_SC.jpg","stimuli/HM09_SUR.jpg","stimuli/WF14_DO.jpg","pos4","stimuli/WF14_DO.jpg","DO","WF14","3","5","10","8","stimuli/stars_10.png","9","[""HO"",""SC"",""SUR"",""DO""]","[""AM05"",""HM07"",""HM09"",""WF14""]","[2,5,5,10]","[2,4,6,8]","","",""
"show-reward","10","42818","0.0-10.0","p796589","A3M97OV77U9I31","3S1L4CQSFYBD9IN1W8PCJQ1H8N7AFE","3X87C8JFV8HHNNXYHQRY59UQK6FSQ3","emotion","match","uniform","","","","","","","","43689","45694.299999952316","","","","","","","","","","","","10","","stimuli/stars_10.png","9","","","","","stimuli/WF14_DO.jpg","",""
"explore-choice","11","44674","0.0-11.0","p796589","A3M97OV77U9I31","3S1L4CQSFYBD9IN1W8PCJQ1H8N7AFE","3X87C8JFV8HHNNXYHQRY59UQK6FSQ3","emotion","match","uniform","","","","","","","1340.6000000238419","45696.5","47037.10000002384","[""stimuli/AM05_DO.jpg"",""stimuli/HM09_HO.jpg"",""stimuli/WF14_SC.jpg"",""stimuli/HM07_SUR.jpg""]","stimuli/AM05_DO.jpg","stimuli/HM09_HO.jpg","stimuli/WF14_SC.jpg","stimuli/HM07_SUR.jpg","pos1","stimuli/AM05_DO.jpg","DO","AM05","0","4.5","9","8","stimuli/stars_9.png","13.5","[""DO"",""HO"",""SC"",""SUR""]","[""AM05"",""HM09"",""WF14"",""HM07""]","[9,1,6,6]","[8,2,4,6]","","",""
"show-reward","12","46685","0.0-12.0","p796589","A3M97OV77U9I31","3S1L4CQSFYBD9IN1W8PCJQ1H8N7AFE","3X87C8JFV8HHNNXYHQRY59UQK6FSQ3","emotion","match","uniform","","","","","","","","47552.10000002384","49560.799999952316","","","","","","","","","","","","9","","stimuli/stars_9.png","13.5","","","","","stimuli/AM05_DO.jpg","",""
"explore-choice","13","48444","0.0-13.0","p796589","A3M97OV77U9I31","3S1L4CQSFYBD9IN1W8PCJQ1H8N7AFE","3X87C8JFV8HHNNXYHQRY59UQK6FSQ3","emotion","match","uniform","","","","","","","1256.6999999284744","49562.700000047684","50819.39999997616","[""stimuli/AM05_HO.jpg"",""stimuli/WF14_SUR.jpg"",""stimuli/HM09_SC.jpg"",""stimuli/HM07_DO.jpg""]","stimuli/AM05_HO.jpg","stimuli/WF14_SUR.jpg","stimuli/HM09_SC.jpg","stimuli/HM07_DO.jpg","pos4","stimuli/HM07_DO.jpg","DO","HM07","3","5","10","8","stimuli/stars_10.png","18.5","[""HO"",""SUR"",""SC"",""DO""]","[""AM05"",""WF14"",""HM09"",""HM07""]","[0,7,4,10]","[2,6,4,8]","","",""
"show-reward","14","50446","0.0-14.0","p796589","A3M97OV77U9I31","3S1L4CQSFYBD9IN1W8PCJQ1H8N7AFE","3X87C8JFV8HHNNXYHQRY59UQK6FSQ3","emotion","match","uniform","","","","","","","","51320.799999952316","53322.39999997616","","","","","","","","","","","","10","","stimuli/stars_10.png","18.5","","","","","stimuli/HM07_DO.jpg","",""
"explore-choice","15","51982","0.0-15.0","p796589","A3M97OV77U9I31","3S1L4CQSFYBD9IN1W8PCJQ1H8N7AFE","3X87C8JFV8HHNNXYHQRY59UQK6FSQ3","emotion","match","uniform","","","","","","","1034.1000000238419","53323.10000002384","54357.200000047684","[""stimuli/AM05_HO.jpg"",""stimuli/HM09_DO.jpg"",""stimuli/WF14_SUR.jpg"",""stimuli/HM07_SC.jpg""]","stimuli/AM05_HO.jpg","stimuli/HM09_DO.jpg","stimuli/WF14_SUR.jpg","stimuli/HM07_SC.jpg","pos2","stimuli/HM09_DO.jpg","DO","HM09","1","4","8","8","stimuli/stars_8.png","22.5","[""HO"",""DO"",""SUR"",""SC""]","[""AM05"",""HM09"",""WF14"",""HM07""]","[2,8,6,4]","[2,8,6,4]","","",""
"show-reward","16","53988","0.0-16.0","p796589","A3M97OV77U9I31","3S1L4CQSFYBD9IN1W8PCJQ1H8N7AFE","3X87C8JFV8HHNNXYHQRY59UQK6FSQ3","emotion","match","uniform","","","","","","","","54859.799999952316","56863.799999952316","","","","","","","","","","","","8","","stimuli/stars_8.png","22.5","","","","","stimuli/HM09_DO.jpg","",""
"explore-choice","17","55899","0.0-17.0","p796589","A3M97OV77U9I31","3S1L4CQSFYBD9IN1W8PCJQ1H8N7AFE","3X87C8JFV8HHNNXYHQRY59UQK6FSQ3","emotion","match","uniform","","","","","","","1399.2000000476837","56865.799999952316","58265","[""stimuli/HM07_SC.jpg"",""stimuli/WF14_DO.jpg"",""stimuli/AM05_SUR.jpg"",""stimuli/HM09_HO.jpg""]","stimuli/HM07_SC.jpg","stimuli/WF14_DO.jpg","stimuli/AM05_SUR.jpg","stimuli/HM09_HO.jpg","pos2","stimuli/WF14_DO.jpg","DO","WF14","1","3.5","7","8","stimuli/stars_7.png","26","[""SC"",""DO"",""SUR"",""HO""]","[""HM07"",""WF14"",""AM05"",""HM09""]","[4,7,6,3]","[4,8,6,2]","","",""
"show-reward","18","57914","0.0-18.0","p796589","A3M97OV77U9I31","3S1L4CQSFYBD9IN1W8PCJQ1H8N7AFE","3X87C8JFV8HHNNXYHQRY59UQK6FSQ3","emotion","match","uniform","","","","","","","","58777","60790.10000002384","","","","","","","","","","","","7","","stimuli/stars_7.png","26","","","","","stimuli/WF14_DO.jpg","",""
"explore-choice","19","59391","0.0-19.0","p796589","A3M97OV77U9I31","3S1L4CQSFYBD9IN1W8PCJQ1H8N7AFE","3X87C8JFV8HHNNXYHQRY59UQK6FSQ3","emotion","match","uniform","","","","","","","962.7999999523163","60792.5","61755.299999952316","[""stimuli/HM09_SUR.jpg"",""stimuli/HM07_DO.jpg"",""stimuli/AM05_HO.jpg"",""stimuli/WF14_SC.jpg""]","stimuli/HM09_SUR.jpg","stimuli/HM07_DO.jpg","stimuli/AM05_HO.jpg","stimuli/WF14_SC.jpg","pos1","stimuli/HM09_SUR.jpg","SUR","HM09","0","4","8","6","stimuli/stars_8.png","30","[""SUR"",""DO"",""HO"",""SC""]","[""HM09"",""HM07"",""AM05"",""WF14""]","[8,7,3,3]","[6,8,2,4]","","",""
"show-reward","20","61394","0.0-20.0","p796589","A3M97OV77U9I31","3S1L4CQSFYBD9IN1W8PCJQ1H8N7AFE","3X87C8JFV8HHNNXYHQRY59UQK6FSQ3","emotion","match","uniform","","","","","","","","62269.39999997616","64270.39999997616","","","","","","","","","","","","8","","stimuli/stars_8.png","30","","","","","stimuli/HM09_SUR.jpg","",""
"explore-choice","21","64132","0.0-21.0","p796589","A3M97OV77U9I31","3S1L4CQSFYBD9IN1W8PCJQ1H8N7AFE","3X87C8JFV8HHNNXYHQRY59UQK6FSQ3","emotion","match","uniform","","","","","","","2235.1999999284744","64271.700000047684","66506.89999997616","[""stimuli/HM09_DO.jpg"",""stimuli/AM05_SC.jpg"",""stimuli/WF14_SUR.jpg"",""stimuli/HM07_HO.jpg""]","stimuli/HM09_DO.jpg","stimuli/AM05_SC.jpg","stimuli/WF14_SUR.jpg","stimuli/HM07_HO.jpg","pos1","stimuli/HM09_DO.jpg","DO","HM09","0","3","6","8","stimuli/stars_6.png","33","[""DO"",""SC"",""SUR"",""HO""]","[""HM09"",""AM05"",""WF14"",""HM07""]","[6,2,6,4]","[8,4,6,2]","","",""
"show-reward","22","66135","0.0-22.0","p796589","A3M97OV77U9I31","3S1L4CQSFYBD9IN1W8PCJQ1H8N7AFE","3X87C8JFV8HHNNXYHQRY59UQK6FSQ3","emotion","match","uniform","","","","","","","","67008.79999995232","69010.5","","","","","","","","","","","","6","","stimuli/stars_6.png","33","","","","","stimuli/HM09_DO.jpg","",""
"explore-choice","23","68355","0.0-23.0","p796589","A3M97OV77U9I31","3S1L4CQSFYBD9IN1W8PCJQ1H8N7AFE","3X87C8JFV8HHNNXYHQRY59UQK6FSQ3","emotion","match","uniform","","","","","","","1718.3000000715256","69011.89999997616","70730.20000004768","[""stimuli/AM05_SC.jpg"",""stimuli/WF14_DO.jpg"",""stimuli/HM07_SUR.jpg"",""stimuli/HM09_HO.jpg""]","stimuli/AM05_SC.jpg","stimuli/WF14_DO.jpg","stimuli/HM07_SUR.jpg","stimuli/HM09_HO.jpg","pos3","stimuli/HM07_SUR.jpg","SUR","HM07","2","3","6","6","stimuli/stars_6.png","36","[""SC"",""DO"",""SUR"",""HO""]","[""AM05"",""WF14"",""HM07"",""HM09""]","[5,6,6,0]","[4,8,6,2]","","",""
"show-reward","24","70358","0.0-24.0","p796589","A3M97OV77U9I31","3S1L4CQSFYBD9IN1W8PCJQ1H8N7AFE","3X87C8JFV8HHNNXYHQRY59UQK6FSQ3","emotion","match","uniform","","","","","","","","71232.20000004768","73233.70000004768","","","","","","","","","","","","6","","stimuli/stars_6.png","36","","","","","stimuli/HM07_SUR.jpg","",""
"explore-choice","25","72500","0.0-25.0","p796589","A3M97OV77U9I31","3S1L4CQSFYBD9IN1W8PCJQ1H8N7AFE","3X87C8JFV8HHNNXYHQRY59UQK6FSQ3","emotion","match","uniform","","","","","","","1628.1000000238419","73235.5","74863.60000002384","[""stimuli/WF14_SC.jpg"",""stimuli/AM05_HO.jpg"",""stimuli/HM09_DO.jpg"",""stimuli/HM07_SUR.jpg""]","stimuli/WF14_SC.jpg","stimuli/AM05_HO.jpg","stimuli/HM09_DO.jpg","stimuli/HM07_SUR.jpg","pos3","stimuli/HM09_DO.jpg","DO","HM09","2","4","8","8","stimuli/stars_8.png","40","[""SC"",""HO"",""DO"",""SUR""]","[""WF14"",""AM05"",""HM09"",""HM07""]","[2,2,8,8]","[4,2,8,6]","","",""
"show-reward","26","74511","0.0-26.0","p796589","A3M97OV77U9I31","3S1L4CQSFYBD9IN1W8PCJQ1H8N7AFE","3X87C8JFV8HHNNXYHQRY59UQK6FSQ3","emotion","match","uniform","","","","","","","","75376.60000002384","77387.29999995232","","","","","","","","","","","","8","","stimuli/stars_8.png","40","","","","","stimuli/HM09_DO.jpg","",""
"explore-choice","27","76101","0.0-27.0","p796589","A3M97OV77U9I31","3S1L4CQSFYBD9IN1W8PCJQ1H8N7AFE","3X87C8JFV8HHNNXYHQRY59UQK6FSQ3","emotion","match","uniform","","","","","","","1080.8000000715256","77389.29999995232","78470.10000002384","[""stimuli/HM07_DO.jpg"",""stimuli/AM05_SUR.jpg"",""stimuli/HM09_SC.jpg"",""stimuli/WF14_HO.jpg""]","stimuli/HM07_DO.jpg","stimuli/AM05_SUR.jpg","stimuli/HM09_SC.jpg","stimuli/WF14_HO.jpg","pos2","stimuli/AM05_SUR.jpg","SUR","AM05","1","3.5","7","6","stimuli/stars_7.png","43.5","[""DO"",""SUR"",""SC"",""HO""]","[""HM07"",""AM05"",""HM09"",""WF14""]","[7,7,3,1]","[8,6,4,2]","","",""
"show-reward","28","78106","0.0-28.0","p796589","A3M97OV77U9I31","3S1L4CQSFYBD9IN1W8PCJQ1H8N7AFE","3X87C8JFV8HHNNXYHQRY59UQK6FSQ3","emotion","match","uniform","","","","","","","","78978.89999997616","80982.10000002384","","","","","","","","","","","","7","","stimuli/stars_7.png","43.5","","","","","stimuli/AM05_SUR.jpg","",""
"explore-choice","29","80123","0.0-29.0","p796589","A3M97OV77U9I31","3S1L4CQSFYBD9IN1W8PCJQ1H8N7AFE","3X87C8JFV8HHNNXYHQRY59UQK6FSQ3","emotion","match","uniform","","","","","","","1506","80982.79999995232","82488.79999995232","[""stimuli/WF14_HO.jpg"",""stimuli/HM09_SC.jpg"",""stimuli/HM07_SUR.jpg"",""stimuli/AM05_DO.jpg""]","stimuli/WF14_HO.jpg","stimuli/HM09_SC.jpg","stimuli/HM07_SUR.jpg","stimuli/AM05_DO.jpg","pos1","stimuli/WF14_HO.jpg","HO","WF14","0","1.5","3","2","stimuli/stars_3.png","45","[""HO"",""SC"",""SUR"",""DO""]","[""WF14"",""HM09"",""HM07"",""AM05""]","[3,2,7,9]","[2,4,6,8]","","",""
"show-reward","30","82126","0.0-30.0","p796589","A3M97OV77U9I31","3S1L4CQSFYBD9IN1W8PCJQ1H8N7AFE","3X87C8JFV8HHNNXYHQRY59UQK6FSQ3","emotion","match","uniform","","","","","","","","83000.29999995232","85002.10000002384","","","","","","","","","","","","3","","stimuli/stars_3.png","45","","","","","stimuli/WF14_HO.jpg","",""
"explore-choice","31","84095","0.0-31.0","p796589","A3M97OV77U9I31","3S1L4CQSFYBD9IN1W8PCJQ1H8N7AFE","3X87C8JFV8HHNNXYHQRY59UQK6FSQ3","emotion","match","uniform","","","","","","","1466.2000000476837","85002.79999995232","86469","[""stimuli/HM07_HO.jpg"",""stimuli/WF14_DO.jpg"",""stimuli/AM05_SC.jpg"",""stimuli/HM09_SUR.jpg""]","stimuli/HM07_HO.jpg","stimuli/WF14_DO.jpg","stimuli/AM05_SC.jpg","stimuli/HM09_SUR.jpg","pos4","stimuli/HM09_SUR.jpg","SUR","HM09","3","2.5","5","6","stimuli/stars_5.png","47.5","[""HO"",""DO"",""SC"",""SUR""]","[""HM07"",""WF14"",""AM05"",""HM09""]","[2,7,3,5]","[2,8,4,6]","","",""
"show-reward","32","86101","0.0-32.0","p796589","A3M97OV77U9I31","3S1L4CQSFYBD9IN1W8PCJQ1H8N7AFE","3X87C8JFV8HHNNXYHQRY59UQK6FSQ3","emotion","match","uniform","","","","","","","","86972.60000002384","88976.79999995232","","","","","","","","","","","","5","","stimuli/stars_5.png","47.5","","","","","stimuli/HM09_SUR.jpg","",""
"explore-choice","33","87893","0.0-33.0","p796589","A3M97OV77U9I31","3S1L4CQSFYBD9IN1W8PCJQ1H8N7AFE","3X87C8JFV8HHNNXYHQRY59UQK6FSQ3","emotion","match","uniform","","","","","","","1284.6000000238419","88977.60000002384","90262.20000004768","[""stimuli/HM07_DO.jpg"",""stimuli/HM09_SUR.jpg"",""stimuli/WF14_HO.jpg"",""stimuli/AM05_SC.jpg""]","stimuli/HM07_DO.jpg","stimuli/HM09_SUR.jpg","stimuli/WF14_HO.jpg","stimuli/AM05_SC.jpg","pos4","stimuli/AM05_SC.jpg","SC","AM05","3","1","2","4","stimuli/stars_2.png","48.5","[""DO"",""SUR"",""HO"",""SC""]","[""HM07"",""HM09"",""WF14"",""AM05""]","[6,5,1,2]","[8,6,2,4]","","",""
"show-reward","34","89899","0.0-34.0","p796589","A3M97OV77U9I31","3S1L4CQSFYBD9IN1W8PCJQ1H8N7AFE","3X87C8JFV8HHNNXYHQRY59UQK6FSQ3","emotion","match","uniform","","","","","","","","90771","92775","","","","","","","","","","","","2","","stimuli/stars_2.png","48.5","","","","","stimuli/AM05_SC.jpg","",""
"explore-choice","35","91901","0.0-35.0","p796589","A3M97OV77U9I31","3S1L4CQSFYBD9IN1W8PCJQ1H8N7AFE","3X87C8JFV8HHNNXYHQRY59UQK6FSQ3","emotion","match","uniform","","","","","","","1490.8999999761581","92776.39999997616","94267.29999995232","[""stimuli/WF14_DO.jpg"",""stimuli/AM05_HO.jpg"",""stimuli/HM09_SC.jpg"",""stimuli/HM07_SUR.jpg""]","stimuli/WF14_DO.jpg","stimuli/AM05_HO.jpg","stimuli/HM09_SC.jpg","stimuli/HM07_SUR.jpg","pos1","stimuli/WF14_DO.jpg","DO","WF14","0","3","6","8","stimuli/stars_6.png","51.5","[""DO"",""HO"",""SC"",""SUR""]","[""WF14"",""AM05"",""HM09"",""HM07""]","[6,2,6,4]","[8,2,4,6]","","",""
"show-reward","36","93911","0.0-36.0","p796589","A3M97OV77U9I31","3S1L4CQSFYBD9IN1W8PCJQ1H8N7AFE","3X87C8JFV8HHNNXYHQRY59UQK6FSQ3","emotion","match","uniform","","","","","","","","94779.10000002384","96786.60000002384","","","","","","","","","","","","6","","stimuli/stars_6.png","51.5","","","","","stimuli/WF14_DO.jpg","",""
"explore-choice","37","95589","0.0-37.0","p796589","A3M97OV77U9I31","3S1L4CQSFYBD9IN1W8PCJQ1H8N7AFE","3X87C8JFV8HHNNXYHQRY59UQK6FSQ3","emotion","match","uniform","","","","","","","1175.5","96788.5","97964","[""stimuli/HM07_DO.jpg"",""stimuli/AM05_SUR.jpg"",""stimuli/WF14_SC.jpg"",""stimuli/HM09_HO.jpg""]","stimuli/HM07_DO.jpg","stimuli/AM05_SUR.jpg","stimuli/WF14_SC.jpg","stimuli/HM09_HO.jpg","pos1","stimuli/HM07_DO.jpg","DO","HM07","0","4.5","9","8","stimuli/stars_9.png","56","[""DO"",""SUR"",""SC"",""HO""]","[""HM07"",""AM05"",""WF14"",""HM09""]","[9,6,3,1]","[8,6,4,2]","","",""
"show-reward","38","97594","0.0-38.0","p796589","A3M97OV77U9I31","3S1L4CQSFYBD9IN1W8PCJQ1H8N7AFE","3X87C8JFV8HHNNXYHQRY59UQK6FSQ3","emotion","match","uniform","","","","","","","","98466.39999997616","100469.89999997616","","","","","","","","","","","","9","","stimuli/stars_9.png","56","","","","","stimuli/HM07_DO.jpg","",""
"explore-choice","39","101943","0.0-39.0","p796589","A3M97OV77U9I31","3S1L4CQSFYBD9IN1W8PCJQ1H8N7AFE","3X87C8JFV8HHNNXYHQRY59UQK6FSQ3","emotion","match","uniform","","","","","","","3845.899999976158","100471.39999997616","104317.29999995232","[""stimuli/HM09_DO.jpg"",""stimuli/WF14_HO.jpg"",""stimuli/HM07_SUR.jpg"",""stimuli/AM05_SC.jpg""]","stimuli/HM09_DO.jpg","stimuli/WF14_HO.jpg","stimuli/HM07_SUR.jpg","stimuli/AM05_SC.jpg","pos1","stimuli/HM09_DO.jpg","DO","HM09","0","3","6","8","stimuli/stars_6.png","59","[""DO"",""HO"",""SUR"",""SC""]","[""HM09"",""WF14"",""HM07"",""AM05""]","[6,3,7,5]","[8,2,6,4]","","",""
"show-reward","40","103948","0.0-40.0","p796589","A3M97OV77U9I31","3S1L4CQSFYBD9IN1W8PCJQ1H8N7AFE","3X87C8JFV8HHNNXYHQRY59UQK6FSQ3","emotion","match","uniform","","","","","","","","104820.70000004768","106823.89999997616","","","","","","","","","","","","6","","stimuli/stars_6.png","59","","","","","stimuli/HM09_DO.jpg","",""
"explore-choice","41","105973","0.0-41.0","p796589","A3M97OV77U9I31","3S1L4CQSFYBD9IN1W8PCJQ1H8N7AFE","3X87C8JFV8HHNNXYHQRY59UQK6FSQ3","emotion","match","uniform","","","","","","","1521.1999999284744","106825.60000002384","108346.79999995232","[""stimuli/AM05_SUR.jpg"",""stimuli/HM09_SC.jpg"",""stimuli/WF14_DO.jpg"",""stimuli/HM07_HO.jpg""]","stimuli/AM05_SUR.jpg","stimuli/HM09_SC.jpg","stimuli/WF14_DO.jpg","stimuli/HM07_HO.jpg","pos3","stimuli/WF14_DO.jpg","DO","WF14","2","3","6","8","stimuli/stars_6.png","62","[""SUR"",""SC"",""DO"",""HO""]","[""AM05"",""HM09"",""WF14"",""HM07""]","[5,6,6,4]","[6,4,8,2]","","",""
"show-reward","42","107979","0.0-42.0","p796589","A3M97OV77U9I31","3S1L4CQSFYBD9IN1W8PCJQ1H8N7AFE","3X87C8JFV8HHNNXYHQRY59UQK6FSQ3","emotion","match","uniform","","","","","","","","108850.39999997616","110854.89999997616","","","","","","","","","","","","6","","stimuli/stars_6.png","62","","","","","stimuli/WF14_DO.jpg","",""
"explore-choice","43","110094","0.0-43.0","p796589","A3M97OV77U9I31","3S1L4CQSFYBD9IN1W8PCJQ1H8N7AFE","3X87C8JFV8HHNNXYHQRY59UQK6FSQ3","emotion","match","uniform","","","","","","","1612.5","110856.5","112469","[""stimuli/HM09_DO.jpg"",""stimuli/WF14_HO.jpg"",""stimuli/AM05_SUR.jpg"",""stimuli/HM07_SC.jpg""]","stimuli/HM09_DO.jpg","stimuli/WF14_HO.jpg","stimuli/AM05_SUR.jpg","stimuli/HM07_SC.jpg","pos4","stimuli/HM07_SC.jpg","SC","HM07","3","2","4","4","stimuli/stars_4.png","64","[""DO"",""HO"",""SUR"",""SC""]","[""HM09"",""WF14"",""AM05"",""HM07""]","[10,1,5,4]","[8,2,6,4]","","",""
"show-reward","44","112099","0.0-44.0","p796589","A3M97OV77U9I31","3S1L4CQSFYBD9IN1W8PCJQ1H8N7AFE","3X87C8JFV8HHNNXYHQRY59UQK6FSQ3","emotion","match","uniform","","","","","","","","112971.79999995232","114975.70000004768","","","","","","","","","","","","4","","stimuli/stars_4.png","64","","","","","stimuli/HM07_SC.jpg","",""
"explore-choice","45","114371","0.0-45.0","p796589","A3M97OV77U9I31","3S1L4CQSFYBD9IN1W8PCJQ1H8N7AFE","3X87C8JFV8HHNNXYHQRY59UQK6FSQ3","emotion","match","uniform","","","","","","","1770.5","114976.29999995232","116746.79999995232","[""stimuli/WF14_SUR.jpg"",""stimuli/HM07_DO.jpg"",""stimuli/AM05_SC.jpg"",""stimuli/HM09_HO.jpg""]","stimuli/WF14_SUR.jpg","stimuli/HM07_DO.jpg","stimuli/AM05_SC.jpg","stimuli/HM09_HO.jpg","pos1","stimuli/WF14_SUR.jpg","SUR","WF14","0","4","8","6","stimuli/stars_8.png","68","[""SUR"",""DO"",""SC"",""HO""]","[""WF14"",""HM07"",""AM05"",""HM09""]","[8,6,3,4]","[6,8,4,2]","","",""
"show-reward","46","116374","0.0-46.0","p796589","A3M97OV77U9I31","3S1L4CQSFYBD9IN1W8PCJQ1H8N7AFE","3X87C8JFV8HHNNXYHQRY59UQK6FSQ3","emotion","match","uniform","","","","","","","","117248.20000004768","119249.79999995232","","","","","","","","","","","","8","","stimuli/stars_8.png","68","","","","","stimuli/WF14_SUR.jpg","",""
"explore-choice","47","118376","0.0-47.0","p796589","A3M97OV77U9I31","3S1L4CQSFYBD9IN1W8PCJQ1H8N7AFE","3X87C8JFV8HHNNXYHQRY59UQK6FSQ3","emotion","match","uniform","","","","","","","1499.1000000238419","119251.79999995232","120750.89999997616","[""stimuli/AM05_DO.jpg"",""stimuli/WF14_SC.jpg"",""stimuli/HM07_HO.jpg"",""stimuli/HM09_SUR.jpg""]","stimuli/AM05_DO.jpg","stimuli/WF14_SC.jpg","stimuli/HM07_HO.jpg","stimuli/HM09_SUR.jpg","pos4","stimuli/HM09_SUR.jpg","SUR","HM09","3","3","6","6","stimuli/stars_6.png","71","[""DO"",""SC"",""HO"",""SUR""]","[""AM05"",""WF14"",""HM07"",""HM09""]","[7,5,2,6]","[8,4,2,6]","","",""
"show-reward","48","120379","0.0-48.0","p796589","A3M97OV77U9I31","3S1L4CQSFYBD9IN1W8PCJQ1H8N7AFE","3X87C8JFV8HHNNXYHQRY59UQK6FSQ3","emotion","match","uniform","","","","","","","","121252.70000004768","123254.79999995232","","","","","","","","","","","","6","","stimuli/stars_6.png","71","","","","","stimuli/HM09_SUR.jpg","",""
"explore-choice","49","122789","0.0-49.0","p796589","A3M97OV77U9I31","3S1L4CQSFYBD9IN1W8PCJQ1H8N7AFE","3X87C8JFV8HHNNXYHQRY59UQK6FSQ3","emotion","match","uniform","","","","","","","1902.5","123256.70000004768","125159.20000004768","[""stimuli/AM05_DO.jpg"",""stimuli/HM07_SC.jpg"",""stimuli/WF14_SUR.jpg"",""stimuli/HM09_HO.jpg""]","stimuli/AM05_DO.jpg","stimuli/HM07_SC.jpg","stimuli/WF14_SUR.jpg","stimuli/HM09_HO.jpg","pos1","stimuli/AM05_DO.jpg","DO","AM05","0","4.5","9","8","stimuli/stars_9.png","75.5","[""DO"",""SC"",""SUR"",""HO""]","[""AM05"",""HM07"",""WF14"",""HM09""]","[9,2,4,0]","[8,4,6,2]","","",""
"show-reward","50","124795","0.0-50.0","p796589","A3M97OV77U9I31","3S1L4CQSFYBD9IN1W8PCJQ1H8N7AFE","3X87C8JFV8HHNNXYHQRY59UQK6FSQ3","emotion","match","uniform","","","","","","","","125666.89999997616","127671.39999997616","","","","","","","","","","","","9","","stimuli/stars_9.png","75.5","","","","","stimuli/AM05_DO.jpg","",""
"explore-choice","51","126574","0.0-51.0","p796589","A3M97OV77U9I31","3S1L4CQSFYBD9IN1W8PCJQ1H8N7AFE","3X87C8JFV8HHNNXYHQRY59UQK6FSQ3","emotion","match","uniform","","","","","","","1268.2999999523163","127672.20000004768","128940.5","[""stimuli/HM09_SUR.jpg"",""stimuli/WF14_HO.jpg"",""stimuli/HM07_SC.jpg"",""stimuli/AM05_DO.jpg""]","stimuli/HM09_SUR.jpg","stimuli/WF14_HO.jpg","stimuli/HM07_SC.jpg","stimuli/AM05_DO.jpg","pos4","stimuli/AM05_DO.jpg","DO","AM05","3","3.5","7","8","stimuli/stars_7.png","79","[""SUR"",""HO"",""SC"",""DO""]","[""HM09"",""WF14"",""HM07"",""AM05""]","[4,1,5,7]","[6,2,4,8]","","",""
"show-reward","52","128582","0.0-52.0","p796589","A3M97OV77U9I31","3S1L4CQSFYBD9IN1W8PCJQ1H8N7AFE","3X87C8JFV8HHNNXYHQRY59UQK6FSQ3","emotion","match","uniform","","","","","","","","129451.39999997616","131458.20000004768","","","","","","","","","","","","7","","stimuli/stars_7.png","79","","","","","stimuli/AM05_DO.jpg","",""
"explore-choice","53","130706","0.0-53.0","p796589","A3M97OV77U9I31","3S1L4CQSFYBD9IN1W8PCJQ1H8N7AFE","3X87C8JFV8HHNNXYHQRY59UQK6FSQ3","emotion","match","uniform","","","","","","","1617.6999999284744","131458.70000004768","133076.39999997616","[""stimuli/AM05_DO.jpg"",""stimuli/HM07_HO.jpg"",""stimuli/WF14_SUR.jpg"",""stimuli/HM09_SC.jpg""]","stimuli/AM05_DO.jpg","stimuli/HM07_HO.jpg","stimuli/WF14_SUR.jpg","stimuli/HM09_SC.jpg","pos1","stimuli/AM05_DO.jpg","DO","AM05","0","5","10","8","stimuli/stars_10.png","84","[""DO"",""HO"",""SUR"",""SC""]","[""AM05"",""HM07"",""WF14"",""HM09""]","[10,2,8,3]","[8,2,6,4]","","",""
"show-reward","54","132723","0.0-54.0","p796589","A3M97OV77U9I31","3S1L4CQSFYBD9IN1W8PCJQ1H8N7AFE","3X87C8JFV8HHNNXYHQRY59UQK6FSQ3","emotion","match","uniform","","","","","","","","133584.60000002384","135599.70000004768","","","","","","","","","","","","10","","stimuli/stars_10.png","84","","","","","stimuli/AM05_DO.jpg","",""
"explore-choice","55","138483","0.0-55.0","p796589","A3M97OV77U9I31","3S1L4CQSFYBD9IN1W8PCJQ1H8N7AFE","3X87C8JFV8HHNNXYHQRY59UQK6FSQ3","emotion","match","uniform","","","","","","","5255.700000047684","135601.5","140857.20000004768","[""stimuli/HM07_DO.jpg"",""stimuli/AM05_SUR.jpg"",""stimuli/HM09_SC.jpg"",""stimuli/WF14_HO.jpg""]","stimuli/HM07_DO.jpg","stimuli/AM05_SUR.jpg","stimuli/HM09_SC.jpg","stimuli/WF14_HO.jpg","pos2","stimuli/AM05_SUR.jpg","SUR","AM05","1","3.5","7","6","stimuli/stars_7.png","87.5","[""DO"",""SUR"",""SC"",""HO""]","[""HM07"",""AM05"",""HM09"",""WF14""]","[7,7,3,1]","[8,6,4,2]","","",""
"show-reward","56","140491","0.0-56.0","p796589","A3M97OV77U9I31","3S1L4CQSFYBD9IN1W8PCJQ1H8N7AFE","3X87C8JFV8HHNNXYHQRY59UQK6FSQ3","emotion","match","uniform","","","","","","","","141360.20000004768","143367.20000004768","","","","","","","","","","","","7","","stimuli/stars_7.png","87.5","","","","","stimuli/AM05_SUR.jpg","",""
"explore-choice","57","142272","0.0-57.0","p796589","A3M97OV77U9I31","3S1L4CQSFYBD9IN1W8PCJQ1H8N7AFE","3X87C8JFV8HHNNXYHQRY59UQK6FSQ3","emotion","match","uniform","","","","","","","1266.4000000953674","143368.29999995232","144634.70000004768","[""stimuli/WF14_SUR.jpg"",""stimuli/HM09_DO.jpg"",""stimuli/AM05_SC.jpg"",""stimuli/HM07_HO.jpg""]","stimuli/WF14_SUR.jpg","stimuli/HM09_DO.jpg","stimuli/AM05_SC.jpg","stimuli/HM07_HO.jpg","pos1","stimuli/WF14_SUR.jpg","SUR","WF14","0","3","6","6","stimuli/stars_6.png","90.5","[""SUR"",""DO"",""SC"",""HO""]","[""WF14"",""HM09"",""AM05"",""HM07""]","[6,6,2,4]","[6,8,4,2]","","",""
"show-reward","58","144286","0.0-58.0","p796589","A3M97OV77U9I31","3S1L4CQSFYBD9IN1W8PCJQ1H8N7AFE","3X87C8JFV8HHNNXYHQRY59UQK6FSQ3","emotion","match","uniform","","","","","","","","145149.79999995232","147162.60000002384","","","","","","","","","","","","6","","stimuli/stars_6.png","90.5","","","","","stimuli/WF14_SUR.jpg","",""
"explore-choice","59","146137","0.0-59.0","p796589","A3M97OV77U9I31","3S1L4CQSFYBD9IN1W8PCJQ1H8N7AFE","3X87C8JFV8HHNNXYHQRY59UQK6FSQ3","emotion","match","uniform","","","","","","","1348.2000000476837","147164.39999997616","148512.60000002384","[""stimuli/HM07_SC.jpg"",""stimuli/AM05_SUR.jpg"",""stimuli/WF14_HO.jpg"",""stimuli/HM09_DO.jpg""]","stimuli/HM07_SC.jpg","stimuli/AM05_SUR.jpg","stimuli/WF14_HO.jpg","stimuli/HM09_DO.jpg","pos4","stimuli/HM09_DO.jpg","DO","HM09","3","5","10","8","stimuli/stars_10.png","95.5","[""SC"",""SUR"",""HO"",""DO""]","[""HM07"",""AM05"",""WF14"",""HM09""]","[4,5,1,10]","[4,6,2,8]","","",""
"show-reward","60","148149","0.0-60.0","p796589","A3M97OV77U9I31","3S1L4CQSFYBD9IN1W8PCJQ1H8N7AFE","3X87C8JFV8HHNNXYHQRY59UQK6FSQ3","emotion","match","uniform","","","","","","","","149013.89999997616","151025","","","","","","","","","","","","10","","stimuli/stars_10.png","95.5","","","","","stimuli/HM09_DO.jpg","",""
"explore-choice","61","149773","0.0-61.0","p796589","A3M97OV77U9I31","3S1L4CQSFYBD9IN1W8PCJQ1H8N7AFE","3X87C8JFV8HHNNXYHQRY59UQK6FSQ3","emotion","match","uniform","","","","","","","1123.3000000715256","151025.89999997616","152149.20000004768","[""stimuli/HM09_HO.jpg"",""stimuli/AM05_DO.jpg"",""stimuli/HM07_SUR.jpg"",""stimuli/WF14_SC.jpg""]","stimuli/HM09_HO.jpg","stimuli/AM05_DO.jpg","stimuli/HM07_SUR.jpg","stimuli/WF14_SC.jpg","pos3","stimuli/HM07_SUR.jpg","SUR","HM07","2","3","6","6","stimuli/stars_6.png","98.5","[""HO"",""DO"",""SUR"",""SC""]","[""HM09"",""AM05"",""HM07"",""WF14""]","[1,9,6,6]","[2,8,6,4]","","",""
"show-reward","62","151787","0.0-62.0","p796589","A3M97OV77U9I31","3S1L4CQSFYBD9IN1W8PCJQ1H8N7AFE","3X87C8JFV8HHNNXYHQRY59UQK6FSQ3","emotion","match","uniform","","","","","","","","152650.5","154663.39999997616","","","","","","","","","","","","6","","stimuli/stars_6.png","98.5","","","","","stimuli/HM07_SUR.jpg","",""
"explore-choice","63","153551","0.0-63.0","p796589","A3M97OV77U9I31","3S1L4CQSFYBD9IN1W8PCJQ1H8N7AFE","3X87C8JFV8HHNNXYHQRY59UQK6FSQ3","emotion","match","uniform","","","","","","","1249.8000000715256","154664.29999995232","155914.10000002384","[""stimuli/WF14_HO.jpg"",""stimuli/HM09_SUR.jpg"",""stimuli/HM07_SC.jpg"",""stimuli/AM05_DO.jpg""]","stimuli/WF14_HO.jpg","stimuli/HM09_SUR.jpg","stimuli/HM07_SC.jpg","stimuli/AM05_DO.jpg","pos2","stimuli/HM09_SUR.jpg","SUR","HM09","1","2","4","6","stimuli/stars_4.png","100.5","[""HO"",""SUR"",""SC"",""DO""]","[""WF14"",""HM09"",""HM07"",""AM05""]","[1,4,5,7]","[2,6,4,8]","","",""
"show-reward","64","155556","0.0-64.0","p796589","A3M97OV77U9I31","3S1L4CQSFYBD9IN1W8PCJQ1H8N7AFE","3X87C8JFV8HHNNXYHQRY59UQK6FSQ3","emotion","match","uniform","","","","","","","","156429.5","158432.70000004768","","","","","","","","","","","","4","","stimuli/stars_4.png","100.5","","","","","stimuli/HM09_SUR.jpg","",""
"explore-choice","65","157299","0.0-65.0","p796589","A3M97OV77U9I31","3S1L4CQSFYBD9IN1W8PCJQ1H8N7AFE","3X87C8JFV8HHNNXYHQRY59UQK6FSQ3","emotion","match","uniform","","","","","","","1240.4000000953674","158433.79999995232","159674.20000004768","[""stimuli/WF14_SC.jpg"",""stimuli/HM09_SUR.jpg"",""stimuli/HM07_HO.jpg"",""stimuli/AM05_DO.jpg""]","stimuli/WF14_SC.jpg","stimuli/HM09_SUR.jpg","stimuli/HM07_HO.jpg","stimuli/AM05_DO.jpg","pos4","stimuli/AM05_DO.jpg","DO","AM05","3","3.5","7","8","stimuli/stars_7.png","104","[""SC"",""SUR"",""HO"",""DO""]","[""WF14"",""HM09"",""HM07"",""AM05""]","[5,6,2,7]","[4,6,2,8]","","",""
"show-reward","66","159303","0.0-66.0","p796589","A3M97OV77U9I31","3S1L4CQSFYBD9IN1W8PCJQ1H8N7AFE","3X87C8JFV8HHNNXYHQRY59UQK6FSQ3","emotion","match","uniform","","","","","","","","160177.60000002384","162179.29999995232","","","","","","","","","","","","7","","stimuli/stars_7.png","104","","","","","stimuli/AM05_DO.jpg","",""
"explore-choice","67","160825","0.0-67.0","p796589","A3M97OV77U9I31","3S1L4CQSFYBD9IN1W8PCJQ1H8N7AFE","3X87C8JFV8HHNNXYHQRY59UQK6FSQ3","emotion","match","uniform","","","","","","","1019.8999999761581","162181.20000004768","163201.10000002384","[""stimuli/HM07_HO.jpg"",""stimuli/WF14_SUR.jpg"",""stimuli/AM05_DO.jpg"",""stimuli/HM09_SC.jpg""]","stimuli/HM07_HO.jpg","stimuli/WF14_SUR.jpg","stimuli/AM05_DO.jpg","stimuli/HM09_SC.jpg","pos3","stimuli/AM05_DO.jpg","DO","AM05","2","5","10","8","stimuli/stars_10.png","109","[""HO"",""SUR"",""DO"",""SC""]","[""HM07"",""WF14"",""AM05"",""HM09""]","[2,8,10,3]","[2,6,8,4]","","",""
"show-reward","68","162842","0.0-68.0","p796589","A3M97OV77U9I31","3S1L4CQSFYBD9IN1W8PCJQ1H8N7AFE","3X87C8JFV8HHNNXYHQRY59UQK6FSQ3","emotion","match","uniform","","","","","","","","163703.20000004768","165717.70000004768","","","","","","","","","","","","10","","stimuli/stars_10.png","109","","","","","stimuli/AM05_DO.jpg","",""
"explore-choice","69","165047","0.0-69.0","p796589","A3M97OV77U9I31","3S1L4CQSFYBD9IN1W8PCJQ1H8N7AFE","3X87C8JFV8HHNNXYHQRY59UQK6FSQ3","emotion","match","uniform","","","","","","","1697.3000000715256","165719.79999995232","167417.10000002384","[""stimuli/HM09_HO.jpg"",""stimuli/HM07_DO.jpg"",""stimuli/AM05_SUR.jpg"",""stimuli/WF14_SC.jpg""]","stimuli/HM09_HO.jpg","stimuli/HM07_DO.jpg","stimuli/AM05_SUR.jpg","stimuli/WF14_SC.jpg","pos2","stimuli/HM07_DO.jpg","DO","HM07","1","4.5","9","8","stimuli/stars_9.png","113.5","[""HO"",""DO"",""SUR"",""SC""]","[""HM09"",""HM07"",""AM05"",""WF14""]","[1,9,6,3]","[2,8,6,4]","","",""
"show-reward","70","167061","0.0-70.0","p796589","A3M97OV77U9I31","3S1L4CQSFYBD9IN1W8PCJQ1H8N7AFE","3X87C8JFV8HHNNXYHQRY59UQK6FSQ3","emotion","match","uniform","","","","","","","","167924.60000002384","169937.5","","","","","","","","","","","","9","","stimuli/stars_9.png","113.5","","","","","stimuli/HM07_DO.jpg","",""
"explore-choice","71","171505","0.0-71.0","p796589","A3M97OV77U9I31","3S1L4CQSFYBD9IN1W8PCJQ1H8N7AFE","3X87C8JFV8HHNNXYHQRY59UQK6FSQ3","emotion","match","uniform","","","","","","","3939.399999976158","169938.39999997616","173877.79999995232","[""stimuli/WF14_DO.jpg"",""stimuli/AM05_HO.jpg"",""stimuli/HM07_SC.jpg"",""stimuli/HM09_SUR.jpg""]","stimuli/WF14_DO.jpg","stimuli/AM05_HO.jpg","stimuli/HM07_SC.jpg","stimuli/HM09_SUR.jpg","pos1","stimuli/WF14_DO.jpg","DO","WF14","0","5","10","8","stimuli/stars_10.png","118.5","[""DO"",""HO"",""SC"",""SUR""]","[""WF14"",""AM05"",""HM07"",""HM09""]","[10,2,5,5]","[8,2,4,6]","","",""
"show-reward","72","173519","0.0-72.0","p796589","A3M97OV77U9I31","3S1L4CQSFYBD9IN1W8PCJQ1H8N7AFE","3X87C8JFV8HHNNXYHQRY59UQK6FSQ3","emotion","match","uniform","","","","","","","","174383.60000002384","176394.70000004768","","","","","","","","","","","","10","","stimuli/stars_10.png","118.5","","","","","stimuli/WF14_DO.jpg","",""
"explore-choice","73","175886","0.0-73.0","p796589","A3M97OV77U9I31","3S1L4CQSFYBD9IN1W8PCJQ1H8N7AFE","3X87C8JFV8HHNNXYHQRY59UQK6FSQ3","emotion","match","uniform","","","","","","","1861.1000000238419","176396.60000002384","178257.70000004768","[""stimuli/HM09_SC.jpg"",""stimuli/HM07_SUR.jpg"",""stimuli/AM05_DO.jpg"",""stimuli/WF14_HO.jpg""]","stimuli/HM09_SC.jpg","stimuli/HM07_SUR.jpg","stimuli/AM05_DO.jpg","stimuli/WF14_HO.jpg","pos3","stimuli/AM05_DO.jpg","DO","AM05","2","4.5","9","8","stimuli/stars_9.png","123","[""SC"",""SUR"",""DO"",""HO""]","[""HM09"",""HM07"",""AM05"",""WF14""]","[2,7,9,3]","[4,6,8,2]","","",""
"show-reward","74","177907","0.0-74.0","p796589","A3M97OV77U9I31","3S1L4CQSFYBD9IN1W8PCJQ1H8N7AFE","3X87C8JFV8HHNNXYHQRY59UQK6FSQ3","emotion","match","uniform","","","","","","","","178764","180783.39999997616","","","","","","","","","","","","9","","stimuli/stars_9.png","123","","","","","stimuli/AM05_DO.jpg","",""
"explore-choice","75","180035","0.0-75.0","p796589","A3M97OV77U9I31","3S1L4CQSFYBD9IN1W8PCJQ1H8N7AFE","3X87C8JFV8HHNNXYHQRY59UQK6FSQ3","emotion","match","uniform","","","","","","","1624.9000000953674","180785.29999995232","182410.20000004768","[""stimuli/WF14_SUR.jpg"",""stimuli/AM05_SC.jpg"",""stimuli/HM09_HO.jpg"",""stimuli/HM07_DO.jpg""]","stimuli/WF14_SUR.jpg","stimuli/AM05_SC.jpg","stimuli/HM09_HO.jpg","stimuli/HM07_DO.jpg","pos4","stimuli/HM07_DO.jpg","DO","HM07","3","3","6","8","stimuli/stars_6.png","126","[""SUR"",""SC"",""HO"",""DO""]","[""WF14"",""AM05"",""HM09"",""HM07""]","[8,3,4,6]","[6,4,2,8]","","",""
"show-reward","76","182046","0.0-76.0","p796589","A3M97OV77U9I31","3S1L4CQSFYBD9IN1W8PCJQ1H8N7AFE","3X87C8JFV8HHNNXYHQRY59UQK6FSQ3","emotion","match","uniform","","","","","","","","182913.29999995232","184921.89999997616","","","","","","","","","","","","6","","stimuli/stars_6.png","126","","","","","stimuli/HM07_DO.jpg","",""
"explore-choice","77","183943","0.0-77.0","p796589","A3M97OV77U9I31","3S1L4CQSFYBD9IN1W8PCJQ1H8N7AFE","3X87C8JFV8HHNNXYHQRY59UQK6FSQ3","emotion","match","uniform","","","","","","","1394.5","184923.89999997616","186318.39999997616","[""stimuli/WF14_SC.jpg"",""stimuli/HM07_SUR.jpg"",""stimuli/HM09_DO.jpg"",""stimuli/AM05_HO.jpg""]","stimuli/WF14_SC.jpg","stimuli/HM07_SUR.jpg","stimuli/HM09_DO.jpg","stimuli/AM05_HO.jpg","pos3","stimuli/HM09_DO.jpg","DO","HM09","2","4","8","8","stimuli/stars_8.png","130","[""SC"",""SUR"",""DO"",""HO""]","[""WF14"",""HM07"",""HM09"",""AM05""]","[2,8,8,2]","[4,6,8,2]","","",""
"show-reward","78","185948","0.0-78.0","p796589","A3M97OV77U9I31","3S1L4CQSFYBD9IN1W8PCJQ1H8N7AFE","3X87C8JFV8HHNNXYHQRY59UQK6FSQ3","emotion","match","uniform","","","","","","","","186821.20000004768","188824.5","","","","","","","","","","","","8","","stimuli/stars_8.png","130","","","","","stimuli/HM09_DO.jpg","",""
"explore-choice","79","188387","0.0-79.0","p796589","A3M97OV77U9I31","3S1L4CQSFYBD9IN1W8PCJQ1H8N7AFE","3X87C8JFV8HHNNXYHQRY59UQK6FSQ3","emotion","match","uniform","","","","","","","1924.8999999761581","188826.20000004768","190751.10000002384","[""stimuli/HM09_DO.jpg"",""stimuli/WF14_HO.jpg"",""stimuli/AM05_SC.jpg"",""stimuli/HM07_SUR.jpg""]","stimuli/HM09_DO.jpg","stimuli/WF14_HO.jpg","stimuli/AM05_SC.jpg","stimuli/HM07_SUR.jpg","pos4","stimuli/HM07_SUR.jpg","SUR","HM07","3","3.5","7","6","stimuli/stars_7.png","133.5","[""DO"",""HO"",""SC"",""SUR""]","[""HM09"",""WF14"",""AM05"",""HM07""]","[6,3,5,7]","[8,2,4,6]","","",""
"show-reward","80","190393","0.0-80.0","p796589","A3M97OV77U9I31","3S1L4CQSFYBD9IN1W8PCJQ1H8N7AFE","3X87C8JFV8HHNNXYHQRY59UQK6FSQ3","emotion","match","uniform","","","","","","","","191264.60000002384","193268.79999995232","","","","","","","","","","","","7","","stimuli/stars_7.png","133.5","","","","","stimuli/HM07_SUR.jpg","",""
"explore-choice","81","192288","0.0-81.0","p796589","A3M97OV77U9I31","3S1L4CQSFYBD9IN1W8PCJQ1H8N7AFE","3X87C8JFV8HHNNXYHQRY59UQK6FSQ3","emotion","match","uniform","","","","","","","1385.6999999284744","193270.20000004768","194655.89999997616","[""stimuli/WF14_DO.jpg"",""stimuli/HM09_SC.jpg"",""stimuli/AM05_HO.jpg"",""stimuli/HM07_SUR.jpg""]","stimuli/WF14_DO.jpg","stimuli/HM09_SC.jpg","stimuli/AM05_HO.jpg","stimuli/HM07_SUR.jpg","pos1","stimuli/WF14_DO.jpg","DO","WF14","0","3","6","8","stimuli/stars_6.png","136.5","[""DO"",""SC"",""HO"",""SUR""]","[""WF14"",""HM09"",""AM05"",""HM07""]","[6,6,2,4]","[8,4,2,6]","","",""
"show-reward","82","194293","0.0-82.0","p796589","A3M97OV77U9I31","3S1L4CQSFYBD9IN1W8PCJQ1H8N7AFE","3X87C8JFV8HHNNXYHQRY59UQK6FSQ3","emotion","match","uniform","","","","","","","","195166","197169.60000002384","","","","","","","","","","","","6","","stimuli/stars_6.png","136.5","","","","","stimuli/WF14_DO.jpg","",""
"explore-choice","83","196675","0.0-83.0","p796589","A3M97OV77U9I31","3S1L4CQSFYBD9IN1W8PCJQ1H8N7AFE","3X87C8JFV8HHNNXYHQRY59UQK6FSQ3","emotion","match","uniform","","","","","","","1880.5","197170.70000004768","199051.20000004768","[""stimuli/WF14_DO.jpg"",""stimuli/HM09_HO.jpg"",""stimuli/AM05_SUR.jpg"",""stimuli/HM07_SC.jpg""]","stimuli/WF14_DO.jpg","stimuli/HM09_HO.jpg","stimuli/AM05_SUR.jpg","stimuli/HM07_SC.jpg","pos4","stimuli/HM07_SC.jpg","SC","HM07","3","2","4","4","stimuli/stars_4.png","138.5","[""DO"",""HO"",""SUR"",""SC""]","[""WF14"",""HM09"",""AM05"",""HM07""]","[7,3,6,4]","[8,2,6,4]","","",""
"show-reward","84","198679","0.0-84.0","p796589","A3M97OV77U9I31","3S1L4CQSFYBD9IN1W8PCJQ1H8N7AFE","3X87C8JFV8HHNNXYHQRY59UQK6FSQ3","emotion","match","uniform","","","","","","","","199552.5","201555.10000002384","","","","","","","","","","","","4","","stimuli/stars_4.png","138.5","","","","","stimuli/HM07_SC.jpg","",""
"explore-choice","85","201840","0.0-85.0","p796589","A3M97OV77U9I31","3S1L4CQSFYBD9IN1W8PCJQ1H8N7AFE","3X87C8JFV8HHNNXYHQRY59UQK6FSQ3","emotion","match","uniform","","","","","","","2657.600000023842","201556.60000002384","204214.20000004768","[""stimuli/HM07_HO.jpg"",""stimuli/AM05_SUR.jpg"",""stimuli/WF14_DO.jpg"",""stimuli/HM09_SC.jpg""]","stimuli/HM07_HO.jpg","stimuli/AM05_SUR.jpg","stimuli/WF14_DO.jpg","stimuli/HM09_SC.jpg","pos2","stimuli/AM05_SUR.jpg","SUR","AM05","1","2.5","5","6","stimuli/stars_5.png","141","[""HO"",""SUR"",""DO"",""SC""]","[""HM07"",""AM05"",""WF14"",""HM09""]","[4,5,6,6]","[2,6,8,4]","","",""
"show-reward","86","203842","0.0-86.0","p796589","A3M97OV77U9I31","3S1L4CQSFYBD9IN1W8PCJQ1H8N7AFE","3X87C8JFV8HHNNXYHQRY59UQK6FSQ3","emotion","match","uniform","","","","","","","","204716.60000002384","206718.29999995232","","","","","","","","","","","","5","","stimuli/stars_5.png","141","","","","","stimuli/AM05_SUR.jpg","",""
"explore-choice","87","205350","0.0-87.0","p796589","A3M97OV77U9I31","3S1L4CQSFYBD9IN1W8PCJQ1H8N7AFE","3X87C8JFV8HHNNXYHQRY59UQK6FSQ3","emotion","match","uniform","","","","","","","1002.3999999761581","206718.89999997616","207721.29999995232","[""stimuli/HM09_SC.jpg"",""stimuli/HM07_DO.jpg"",""stimuli/WF14_SUR.jpg"",""stimuli/AM05_HO.jpg""]","stimuli/HM09_SC.jpg","stimuli/HM07_DO.jpg","stimuli/WF14_SUR.jpg","stimuli/AM05_HO.jpg","pos3","stimuli/WF14_SUR.jpg","SUR","WF14","2","3.5","7","6","stimuli/stars_7.png","144.5","[""SC"",""DO"",""SUR"",""HO""]","[""HM09"",""HM07"",""WF14"",""AM05""]","[4,10,7,0]","[4,8,6,2]","","",""
"show-reward","88","207355","0.0-88.0","p796589","A3M97OV77U9I31","3S1L4CQSFYBD9IN1W8PCJQ1H8N7AFE","3X87C8JFV8HHNNXYHQRY59UQK6FSQ3","emotion","match","uniform","","","","","","","","208227.79999995232","210231.29999995232","","","","","","","","","","","","7","","stimuli/stars_7.png","144.5","","","","","stimuli/WF14_SUR.jpg","",""
"explore-choice","89","209305","0.0-89.0","p796589","A3M97OV77U9I31","3S1L4CQSFYBD9IN1W8PCJQ1H8N7AFE","3X87C8JFV8HHNNXYHQRY59UQK6FSQ3","emotion","match","uniform","","","","","","","1448.8000000715256","210232.39999997616","211681.20000004768","[""stimuli/AM05_HO.jpg"",""stimuli/WF14_SUR.jpg"",""stimuli/HM09_DO.jpg"",""stimuli/HM07_SC.jpg""]","stimuli/AM05_HO.jpg","stimuli/WF14_SUR.jpg","stimuli/HM09_DO.jpg","stimuli/HM07_SC.jpg","pos3","stimuli/HM09_DO.jpg","DO","HM09","2","4","8","8","stimuli/stars_8.png","148.5","[""HO"",""SUR"",""DO"",""SC""]","[""AM05"",""WF14"",""HM09"",""HM07""]","[2,6,8,4]","[2,6,8,4]","","",""
"show-reward","90","211311","0.0-90.0","p796589","A3M97OV77U9I31","3S1L4CQSFYBD9IN1W8PCJQ1H8N7AFE","3X87C8JFV8HHNNXYHQRY59UQK6FSQ3","emotion","match","uniform","","","","","","","","212183.39999997616","214187.20000004768","","","","","","","","","","","","8","","stimuli/stars_8.png","148.5","","","","","stimuli/HM09_DO.jpg","",""
"explore-choice","91","212834","0.0-91.0","p796589","A3M97OV77U9I31","3S1L4CQSFYBD9IN1W8PCJQ1H8N7AFE","3X87C8JFV8HHNNXYHQRY59UQK6FSQ3","emotion","match","uniform","","","","","","","1013.5","214189.29999995232","215202.79999995232","[""stimuli/HM07_HO.jpg"",""stimuli/AM05_SUR.jpg"",""stimuli/HM09_DO.jpg"",""stimuli/WF14_SC.jpg""]","stimuli/HM07_HO.jpg","stimuli/AM05_SUR.jpg","stimuli/HM09_DO.jpg","stimuli/WF14_SC.jpg","pos3","stimuli/HM09_DO.jpg","DO","HM09","2","3","6","8","stimuli/stars_6.png","151.5","[""HO"",""SUR"",""DO"",""SC""]","[""HM07"",""AM05"",""HM09"",""WF14""]","[1,7,6,2]","[2,6,8,4]","","",""
"show-reward","92","214838","0.0-92.0","p796589","A3M97OV77U9I31","3S1L4CQSFYBD9IN1W8PCJQ1H8N7AFE","3X87C8JFV8HHNNXYHQRY59UQK6FSQ3","emotion","match","uniform","","","","","","","","215712","217713.79999995232","","","","","","","","","","","","6","","stimuli/stars_6.png","151.5","","","","","stimuli/HM09_DO.jpg","",""
"explore-choice","93","216471","0.0-93.0","p796589","A3M97OV77U9I31","3S1L4CQSFYBD9IN1W8PCJQ1H8N7AFE","3X87C8JFV8HHNNXYHQRY59UQK6FSQ3","emotion","match","uniform","","","","","","","1123.5","217715.60000002384","218839.10000002384","[""stimuli/WF14_DO.jpg"",""stimuli/AM05_SC.jpg"",""stimuli/HM07_SUR.jpg"",""stimuli/HM09_HO.jpg""]","stimuli/WF14_DO.jpg","stimuli/AM05_SC.jpg","stimuli/HM07_SUR.jpg","stimuli/HM09_HO.jpg","pos3","stimuli/HM07_SUR.jpg","SUR","HM07","2","3","6","6","stimuli/stars_6.png","154.5","[""DO"",""SC"",""SUR"",""HO""]","[""WF14"",""AM05"",""HM07"",""HM09""]","[6,5,6,0]","[8,4,6,2]","","",""
"show-reward","94","218475","0.0-94.0","p796589","A3M97OV77U9I31","3S1L4CQSFYBD9IN1W8PCJQ1H8N7AFE","3X87C8JFV8HHNNXYHQRY59UQK6FSQ3","emotion","match","uniform","","","","","","","","219349.39999997616","221351.70000004768","","","","","","","","","","","","6","","stimuli/stars_6.png","154.5","","","","","stimuli/HM07_SUR.jpg","",""
"explore-choice","95","220164","0.0-95.0","p796589","A3M97OV77U9I31","3S1L4CQSFYBD9IN1W8PCJQ1H8N7AFE","3X87C8JFV8HHNNXYHQRY59UQK6FSQ3","emotion","match","uniform","","","","","","","1181.6000000238419","221353.10000002384","222534.70000004768","[""stimuli/WF14_HO.jpg"",""stimuli/AM05_SC.jpg"",""stimuli/HM09_SUR.jpg"",""stimuli/HM07_DO.jpg""]","stimuli/WF14_HO.jpg","stimuli/AM05_SC.jpg","stimuli/HM09_SUR.jpg","stimuli/HM07_DO.jpg","pos3","stimuli/HM09_SUR.jpg","SUR","HM09","2","2.5","5","6","stimuli/stars_5.png","157","[""HO"",""SC"",""SUR"",""DO""]","[""WF14"",""AM05"",""HM09"",""HM07""]","[1,2,5,6]","[2,4,6,8]","","",""
"show-reward","96","222168","0.0-96.0","p796589","A3M97OV77U9I31","3S1L4CQSFYBD9IN1W8PCJQ1H8N7AFE","3X87C8JFV8HHNNXYHQRY59UQK6FSQ3","emotion","match","uniform","","","","","","","","223040.79999995232","225044.29999995232","","","","","","","","","","","","5","","stimuli/stars_5.png","157","","","","","stimuli/HM09_SUR.jpg","",""
"explore-choice","97","224218","0.0-97.0","p796589","A3M97OV77U9I31","3S1L4CQSFYBD9IN1W8PCJQ1H8N7AFE","3X87C8JFV8HHNNXYHQRY59UQK6FSQ3","emotion","match","uniform","","","","","","","1547.6999999284744","225045.20000004768","226592.89999997616","[""stimuli/HM09_SUR.jpg"",""stimuli/WF14_SC.jpg"",""stimuli/AM05_HO.jpg"",""stimuli/HM07_DO.jpg""]","stimuli/HM09_SUR.jpg","stimuli/WF14_SC.jpg","stimuli/AM05_HO.jpg","stimuli/HM07_DO.jpg","pos4","stimuli/HM07_DO.jpg","DO","HM07","3","3.5","7","8","stimuli/stars_7.png","160.5","[""SUR"",""SC"",""HO"",""DO""]","[""HM09"",""WF14"",""AM05"",""HM07""]","[8,3,3,7]","[6,4,2,8]","","",""
"show-reward","98","226235","0.0-98.0","p796589","A3M97OV77U9I31","3S1L4CQSFYBD9IN1W8PCJQ1H8N7AFE","3X87C8JFV8HHNNXYHQRY59UQK6FSQ3","emotion","match","uniform","","","","","","","","227095.70000004768","229111.10000002384","","","","","","","","","","","","7","","stimuli/stars_7.png","160.5","","","","","stimuli/HM07_DO.jpg","",""
"explore-choice","99","228973","0.0-99.0","p796589","A3M97OV77U9I31","3S1L4CQSFYBD9IN1W8PCJQ1H8N7AFE","3X87C8JFV8HHNNXYHQRY59UQK6FSQ3","emotion","match","uniform","","","","","","","2233.600000023842","229113.10000002384","231346.70000004768","[""stimuli/HM09_HO.jpg"",""stimuli/WF14_SUR.jpg"",""stimuli/AM05_DO.jpg"",""stimuli/HM07_SC.jpg""]","stimuli/HM09_HO.jpg","stimuli/WF14_SUR.jpg","stimuli/AM05_DO.jpg","stimuli/HM07_SC.jpg","pos4","stimuli/HM07_SC.jpg","SC","HM07","3","1","2","4","stimuli/stars_2.png","161.5","[""HO"",""SUR"",""DO"",""SC""]","[""HM09"",""WF14"",""AM05"",""HM07""]","[0,4,9,2]","[2,6,8,4]","","",""
"show-reward","100","230992","0.0-100.0","p796589","A3M97OV77U9I31","3S1L4CQSFYBD9IN1W8PCJQ1H8N7AFE","3X87C8JFV8HHNNXYHQRY59UQK6FSQ3","emotion","match","uniform","","","","","","","","231851.39999997616","233868.29999995232","","","","","","","","","","","","2","","stimuli/stars_2.png","161.5","","","","","stimuli/HM07_SC.jpg","",""
"explore-choice","101","232850","0.0-101.0","p796589","A3M97OV77U9I31","3S1L4CQSFYBD9IN1W8PCJQ1H8N7AFE","3X87C8JFV8HHNNXYHQRY59UQK6FSQ3","emotion","match","uniform","","","","","","","1344.8999999761581","233871.89999997616","235216.79999995232","[""stimuli/HM09_SUR.jpg"",""stimuli/WF14_DO.jpg"",""stimuli/AM05_SC.jpg"",""stimuli/HM07_HO.jpg""]","stimuli/HM09_SUR.jpg","stimuli/WF14_DO.jpg","stimuli/AM05_SC.jpg","stimuli/HM07_HO.jpg","pos2","stimuli/WF14_DO.jpg","DO","WF14","1","3.5","7","8","stimuli/stars_7.png","165","[""SUR"",""DO"",""SC"",""HO""]","[""HM09"",""WF14"",""AM05"",""HM07""]","[5,7,3,2]","[6,8,4,2]","","",""
"show-reward","102","234864","0.0-102.0","p796589","A3M97OV77U9I31","3S1L4CQSFYBD9IN1W8PCJQ1H8N7AFE","3X87C8JFV8HHNNXYHQRY59UQK6FSQ3","emotion","match","uniform","","","","","","","","235727.29999995232","237740.5","","","","","","","","","","","","7","","stimuli/stars_7.png","165","","","","","stimuli/WF14_DO.jpg","",""
"explore-choice","103","236642","0.0-103.0","p796589","A3M97OV77U9I31","3S1L4CQSFYBD9IN1W8PCJQ1H8N7AFE","3X87C8JFV8HHNNXYHQRY59UQK6FSQ3","emotion","match","uniform","","","","","","","1267.7000000476837","237741.39999997616","239009.10000002384","[""stimuli/BM04_CC.jpg"",""stimuli/AM09_HE.jpg"",""stimuli/WM11_FO.jpg"",""stimuli/HM02_AO.jpg""]","stimuli/BM04_CC.jpg","stimuli/AM09_HE.jpg","stimuli/WM11_FO.jpg","stimuli/HM02_AO.jpg","pos3","stimuli/WM11_FO.jpg","FO","WM11","2","2","4","4","stimuli/stars_4.png","167","[""CC"",""HE"",""FO"",""AO""]","[""BM04"",""AM09"",""WM11"",""HM02""]","[3,9,4,6]","[2,8,4,6]","","",""
"show-reward","104","238646","0.0-104.0","p796589","A3M97OV77U9I31","3S1L4CQSFYBD9IN1W8PCJQ1H8N7AFE","3X87C8JFV8HHNNXYHQRY59UQK6FSQ3","emotion","match","uniform","","","","","","","","239519","241521.60000002384","","","","","","","","","","","","4","","stimuli/stars_4.png","167","","","","","stimuli/WM11_FO.jpg","",""
"explore-choice","105","240806","0.0-105.0","p796589","A3M97OV77U9I31","3S1L4CQSFYBD9IN1W8PCJQ1H8N7AFE","3X87C8JFV8HHNNXYHQRY59UQK6FSQ3","emotion","match","uniform","","","","","","","1658.8999999761581","241522.5","243181.39999997616","[""stimuli/WM11_HE.jpg"",""stimuli/BM04_FO.jpg"",""stimuli/AM09_CC.jpg"",""stimuli/HM02_AO.jpg""]","stimuli/WM11_HE.jpg","stimuli/BM04_FO.jpg","stimuli/AM09_CC.jpg","stimuli/HM02_AO.jpg","pos2","stimuli/BM04_FO.jpg","FO","BM04","1","2","4","4","stimuli/stars_4.png","169","[""HE"",""FO"",""CC"",""AO""]","[""WM11"",""BM04"",""AM09"",""HM02""]","[7,4,2,5]","[8,4,2,6]","","",""
"show-reward","106","242820","0.0-106.0","p796589","A3M97OV77U9I31","3S1L4CQSFYBD9IN1W8PCJQ1H8N7AFE","3X87C8JFV8HHNNXYHQRY59UQK6FSQ3","emotion","match","uniform","","","","","","","","243683","245696.29999995232","","","","","","","","","","","","4","","stimuli/stars_4.png","169","","","","","stimuli/BM04_FO.jpg","",""
"explore-choice","107","244637","0.0-107.0","p796589","A3M97OV77U9I31","3S1L4CQSFYBD9IN1W8PCJQ1H8N7AFE","3X87C8JFV8HHNNXYHQRY59UQK6FSQ3","emotion","match","uniform","","","","","","","1300.7000000476837","245697.29999995232","246998","[""stimuli/HM02_CC.jpg"",""stimuli/WM11_FO.jpg"",""stimuli/BM04_HE.jpg"",""stimuli/AM09_AO.jpg""]","stimuli/HM02_CC.jpg","stimuli/WM11_FO.jpg","stimuli/BM04_HE.jpg","stimuli/AM09_AO.jpg","pos3","stimuli/BM04_HE.jpg","HE","BM04","2","5","10","8","stimuli/stars_10.png","174","[""CC"",""FO"",""HE"",""AO""]","[""HM02"",""WM11"",""BM04"",""AM09""]","[2,2,10,8]","[2,4,8,6]","","",""
"show-reward","108","246640","0.0-108.0","p796589","A3M97OV77U9I31","3S1L4CQSFYBD9IN1W8PCJQ1H8N7AFE","3X87C8JFV8HHNNXYHQRY59UQK6FSQ3","emotion","match","uniform","","","","","","","","247513.5","249515.5","","","","","","","","","","","","10","","stimuli/stars_10.png","174","","","","","stimuli/BM04_HE.jpg","",""
"explore-choice","109","248685","0.0-109.0","p796589","A3M97OV77U9I31","3S1L4CQSFYBD9IN1W8PCJQ1H8N7AFE","3X87C8JFV8HHNNXYHQRY59UQK6FSQ3","emotion","match","uniform","","","","","","","1532","249517.20000004768","251049.20000004768","[""stimuli/HM02_AO.jpg"",""stimuli/WM11_CC.jpg"",""stimuli/AM09_FO.jpg"",""stimuli/BM04_HE.jpg""]","stimuli/HM02_AO.jpg","stimuli/WM11_CC.jpg","stimuli/AM09_FO.jpg","stimuli/BM04_HE.jpg","pos4","stimuli/BM04_HE.jpg","HE","BM04","3","3","6","8","stimuli/stars_6.png","177","[""AO"",""CC"",""FO"",""HE""]","[""HM02"",""WM11"",""AM09"",""BM04""]","[7,2,3,6]","[6,2,4,8]","","",""
"show-reward","110","250692","0.0-110.0","p796589","A3M97OV77U9I31","3S1L4CQSFYBD9IN1W8PCJQ1H8N7AFE","3X87C8JFV8HHNNXYHQRY59UQK6FSQ3","emotion","match","uniform","","","","","","","","251561.79999995232","253568.20000004768","","","","","","","","","","","","6","","stimuli/stars_6.png","177","","","","","stimuli/BM04_HE.jpg","",""
"explore-choice","111","252942","0.0-111.0","p796589","A3M97OV77U9I31","3S1L4CQSFYBD9IN1W8PCJQ1H8N7AFE","3X87C8JFV8HHNNXYHQRY59UQK6FSQ3","emotion","match","uniform","","","","","","","1735.8000000715256","253569.29999995232","255305.10000002384","[""stimuli/WM11_CC.jpg"",""stimuli/BM04_FO.jpg"",""stimuli/AM09_HE.jpg"",""stimuli/HM02_AO.jpg""]","stimuli/WM11_CC.jpg","stimuli/BM04_FO.jpg","stimuli/AM09_HE.jpg","stimuli/HM02_AO.jpg","pos2","stimuli/BM04_FO.jpg","FO","BM04","1","1.5","3","4","stimuli/stars_3.png","178.5","[""CC"",""FO"",""HE"",""AO""]","[""WM11"",""BM04"",""AM09"",""HM02""]","[3,3,9,5]","[2,4,8,6]","","",""
"show-reward","112","254956","0.0-112.0","p796589","A3M97OV77U9I31","3S1L4CQSFYBD9IN1W8PCJQ1H8N7AFE","3X87C8JFV8HHNNXYHQRY59UQK6FSQ3","emotion","match","uniform","","","","","","","","255818.70000004768","257831.70000004768","","","","","","","","","","","","3","","stimuli/stars_3.png","178.5","","","","","stimuli/BM04_FO.jpg","",""
"explore-choice","113","258114","0.0-113.0","p796589","A3M97OV77U9I31","3S1L4CQSFYBD9IN1W8PCJQ1H8N7AFE","3X87C8JFV8HHNNXYHQRY59UQK6FSQ3","emotion","match","uniform","","","","","","","2650.9000000953674","257833.79999995232","260484.70000004768","[""stimuli/AM09_CC.jpg"",""stimuli/HM02_FO.jpg"",""stimuli/WM11_AO.jpg"",""stimuli/BM04_HE.jpg""]","stimuli/AM09_CC.jpg","stimuli/HM02_FO.jpg","stimuli/WM11_AO.jpg","stimuli/BM04_HE.jpg","pos2","stimuli/HM02_FO.jpg","FO","HM02","1","2","4","4","stimuli/stars_4.png","180.5","[""CC"",""FO"",""AO"",""HE""]","[""AM09"",""HM02"",""WM11"",""BM04""]","[3,4,7,6]","[2,4,6,8]","","",""
"show-reward","114","260123","0.0-114.0","p796589","A3M97OV77U9I31","3S1L4CQSFYBD9IN1W8PCJQ1H8N7AFE","3X87C8JFV8HHNNXYHQRY59UQK6FSQ3","emotion","match","uniform","","","","","","","","260990.20000004768","262998.5","","","","","","","","","","","","4","","stimuli/stars_4.png","180.5","","","","","stimuli/HM02_FO.jpg","",""
"explore-choice","115","262544","0.0-115.0","p796589","A3M97OV77U9I31","3S1L4CQSFYBD9IN1W8PCJQ1H8N7AFE","3X87C8JFV8HHNNXYHQRY59UQK6FSQ3","emotion","match","uniform","","","","","","","1919.7000000476837","262999.39999997616","264919.10000002384","[""stimuli/BM04_CC.jpg"",""stimuli/WM11_FO.jpg"",""stimuli/HM02_HE.jpg"",""stimuli/AM09_AO.jpg""]","stimuli/BM04_CC.jpg","stimuli/WM11_FO.jpg","stimuli/HM02_HE.jpg","stimuli/AM09_AO.jpg","pos3","stimuli/HM02_HE.jpg","HE","HM02","2","4.5","9","8","stimuli/stars_9.png","185","[""CC"",""FO"",""HE"",""AO""]","[""BM04"",""WM11"",""HM02"",""AM09""]","[1,4,9,7]","[2,4,8,6]","","",""
"show-reward","116","264548","0.0-116.0","p796589","A3M97OV77U9I31","3S1L4CQSFYBD9IN1W8PCJQ1H8N7AFE","3X87C8JFV8HHNNXYHQRY59UQK6FSQ3","emotion","match","uniform","","","","","","","","265421.2999999523","267423.2999999523","","","","","","","","","","","","9","","stimuli/stars_9.png","185","","","","","stimuli/HM02_HE.jpg","",""
"explore-choice","117","266573","0.0-117.0","p796589","A3M97OV77U9I31","3S1L4CQSFYBD9IN1W8PCJQ1H8N7AFE","3X87C8JFV8HHNNXYHQRY59UQK6FSQ3","emotion","match","uniform","","","","","","","1519.8999999761581","267425.2000000477","268945.10000002384","[""stimuli/HM02_FO.jpg"",""stimuli/AM09_HE.jpg"",""stimuli/WM11_CC.jpg"",""stimuli/BM04_AO.jpg""]","stimuli/HM02_FO.jpg","stimuli/AM09_HE.jpg","stimuli/WM11_CC.jpg","stimuli/BM04_AO.jpg","pos2","stimuli/AM09_HE.jpg","HE","AM09","1","5","10","8","stimuli/stars_10.png","190","[""FO"",""HE"",""CC"",""AO""]","[""HM02"",""AM09"",""WM11"",""BM04""]","[5,10,1,4]","[4,8,2,6]","","",""
"show-reward","118","268592","0.0-118.0","p796589","A3M97OV77U9I31","3S1L4CQSFYBD9IN1W8PCJQ1H8N7AFE","3X87C8JFV8HHNNXYHQRY59UQK6FSQ3","emotion","match","uniform","","","","","","","","269450.60000002384","271468.2000000477","","","","","","","","","","","","10","","stimuli/stars_10.png","190","","","","","stimuli/AM09_HE.jpg","",""
"explore-choice","119","270178","0.0-119.0","p796589","A3M97OV77U9I31","3S1L4CQSFYBD9IN1W8PCJQ1H8N7AFE","3X87C8JFV8HHNNXYHQRY59UQK6FSQ3","emotion","match","uniform","","","","","","","1070.7999999523163","271470.10000002384","272540.89999997616","[""stimuli/HM02_CC.jpg"",""stimuli/WM11_FO.jpg"",""stimuli/AM09_HE.jpg"",""stimuli/BM04_AO.jpg""]","stimuli/HM02_CC.jpg","stimuli/WM11_FO.jpg","stimuli/AM09_HE.jpg","stimuli/BM04_AO.jpg","pos3","stimuli/AM09_HE.jpg","HE","AM09","2","5","10","8","stimuli/stars_10.png","195","[""CC"",""FO"",""HE"",""AO""]","[""HM02"",""WM11"",""AM09"",""BM04""]","[2,5,10,6]","[2,4,8,6]","","",""
"show-reward","120","272196","0.0-120.0","p796589","A3M97OV77U9I31","3S1L4CQSFYBD9IN1W8PCJQ1H8N7AFE","3X87C8JFV8HHNNXYHQRY59UQK6FSQ3","emotion","match","uniform","","","","","","","","273055.2999999523","275072.10000002384","","","","","","","","","","","","10","","stimuli/stars_10.png","195","","","","","stimuli/AM09_HE.jpg","",""
"explore-choice","121","274347","0.0-121.0","p796589","A3M97OV77U9I31","3S1L4CQSFYBD9IN1W8PCJQ1H8N7AFE","3X87C8JFV8HHNNXYHQRY59UQK6FSQ3","emotion","match","uniform","","","","","","","1647.7000000476837","275073","276720.7000000477","[""stimuli/BM04_HE.jpg"",""stimuli/WM11_CC.jpg"",""stimuli/HM02_FO.jpg"",""stimuli/AM09_AO.jpg""]","stimuli/BM04_HE.jpg","stimuli/WM11_CC.jpg","stimuli/HM02_FO.jpg","stimuli/AM09_AO.jpg","pos1","stimuli/BM04_HE.jpg","HE","BM04","0","4","8","8","stimuli/stars_8.png","199","[""HE"",""CC"",""FO"",""AO""]","[""BM04"",""WM11"",""HM02"",""AM09""]","[8,1,6,4]","[8,2,4,6]","","",""
"show-reward","122","276360","0.0-122.0","p796589","A3M97OV77U9I31","3S1L4CQSFYBD9IN1W8PCJQ1H8N7AFE","3X87C8JFV8HHNNXYHQRY59UQK6FSQ3","emotion","match","uniform","","","","","","","","277223.60000002384","279235.7999999523","","","","","","","","","","","","8","","stimuli/stars_8.png","199","","","","","stimuli/BM04_HE.jpg","",""
"explore-choice","123","278376","0.0-123.0","p796589","A3M97OV77U9I31","3S1L4CQSFYBD9IN1W8PCJQ1H8N7AFE","3X87C8JFV8HHNNXYHQRY59UQK6FSQ3","emotion","match","uniform","","","","","","","1505.2999999523163","279237.7000000477","280743","[""stimuli/BM04_AO.jpg"",""stimuli/HM02_HE.jpg"",""stimuli/AM09_CC.jpg"",""stimuli/WM11_FO.jpg""]","stimuli/BM04_AO.jpg","stimuli/HM02_HE.jpg","stimuli/AM09_CC.jpg","stimuli/WM11_FO.jpg","pos3","stimuli/AM09_CC.jpg","CC","AM09","2","0","0","2","stimuli/stars_0.png","199","[""AO"",""HE"",""CC"",""FO""]","[""BM04"",""HM02"",""AM09"",""WM11""]","[6,7,0,6]","[6,8,2,4]","","",""
"show-reward","124","280389","0.0-124.0","p796589","A3M97OV77U9I31","3S1L4CQSFYBD9IN1W8PCJQ1H8N7AFE","3X87C8JFV8HHNNXYHQRY59UQK6FSQ3","emotion","match","uniform","","","","","","","","281252.5","283265.10000002384","","","","","","","","","","","","0","","stimuli/stars_0.png","199","","","","","stimuli/AM09_CC.jpg","",""
"explore-choice","125","282693","0.0-125.0","p796589","A3M97OV77U9I31","3S1L4CQSFYBD9IN1W8PCJQ1H8N7AFE","3X87C8JFV8HHNNXYHQRY59UQK6FSQ3","emotion","match","uniform","","","","","","","1795.1999999284744","283265.7000000477","285060.89999997616","[""stimuli/BM04_AO.jpg"",""stimuli/AM09_CC.jpg"",""stimuli/HM02_FO.jpg"",""stimuli/WM11_HE.jpg""]","stimuli/BM04_AO.jpg","stimuli/AM09_CC.jpg","stimuli/HM02_FO.jpg","stimuli/WM11_HE.jpg","pos4","stimuli/WM11_HE.jpg","HE","WM11","3","5","10","8","stimuli/stars_10.png","204","[""AO"",""CC"",""FO"",""HE""]","[""BM04"",""AM09"",""HM02"",""WM11""]","[6,3,3,10]","[6,2,4,8]","","",""
"show-reward","126","284696","0.0-126.0","p796589","A3M97OV77U9I31","3S1L4CQSFYBD9IN1W8PCJQ1H8N7AFE","3X87C8JFV8HHNNXYHQRY59UQK6FSQ3","emotion","match","uniform","","","","","","","","285570.2000000477","287571.60000002384","","","","","","","","","","","","10","","stimuli/stars_10.png","204","","","","","stimuli/WM11_HE.jpg","",""
"explore-choice","127","286384","0.0-127.0","p796589","A3M97OV77U9I31","3S1L4CQSFYBD9IN1W8PCJQ1H8N7AFE","3X87C8JFV8HHNNXYHQRY59UQK6FSQ3","emotion","match","uniform","","","","","","","1185.1000000238419","287573.5","288758.60000002384","[""stimuli/AM09_CC.jpg"",""stimuli/WM11_FO.jpg"",""stimuli/HM02_AO.jpg"",""stimuli/BM04_HE.jpg""]","stimuli/AM09_CC.jpg","stimuli/WM11_FO.jpg","stimuli/HM02_AO.jpg","stimuli/BM04_HE.jpg","pos4","stimuli/BM04_HE.jpg","HE","BM04","3","4.5","9","8","stimuli/stars_9.png","208.5","[""CC"",""FO"",""AO"",""HE""]","[""AM09"",""WM11"",""HM02"",""BM04""]","[4,4,8,9]","[2,4,6,8]","","",""
"show-reward","128","288397","0.0-128.0","p796589","A3M97OV77U9I31","3S1L4CQSFYBD9IN1W8PCJQ1H8N7AFE","3X87C8JFV8HHNNXYHQRY59UQK6FSQ3","emotion","match","uniform","","","","","","","","289260.60000002384","291273.10000002384","","","","","","","","","","","","9","","stimuli/stars_9.png","208.5","","","","","stimuli/BM04_HE.jpg","",""
"explore-choice","129","290343","0.0-129.0","p796589","A3M97OV77U9I31","3S1L4CQSFYBD9IN1W8PCJQ1H8N7AFE","3X87C8JFV8HHNNXYHQRY59UQK6FSQ3","emotion","match","uniform","","","","","","","1443.6999999284744","291275.2000000477","292718.89999997616","[""stimuli/AM09_HE.jpg"",""stimuli/BM04_FO.jpg"",""stimuli/WM11_AO.jpg"",""stimuli/HM02_CC.jpg""]","stimuli/AM09_HE.jpg","stimuli/BM04_FO.jpg","stimuli/WM11_AO.jpg","stimuli/HM02_CC.jpg","pos2","stimuli/BM04_FO.jpg","FO","BM04","1","2.5","5","4","stimuli/stars_5.png","211","[""HE"",""FO"",""AO"",""CC""]","[""AM09"",""BM04"",""WM11"",""HM02""]","[10,5,8,2]","[8,4,6,2]","","",""
"show-reward","130","292349","0.0-130.0","p796589","A3M97OV77U9I31","3S1L4CQSFYBD9IN1W8PCJQ1H8N7AFE","3X87C8JFV8HHNNXYHQRY59UQK6FSQ3","emotion","match","uniform","","","","","","","","293220.7000000477","295225.2999999523","","","","","","","","","","","","5","","stimuli/stars_5.png","211","","","","","stimuli/BM04_FO.jpg","",""
"explore-choice","131","294894","0.0-131.0","p796589","A3M97OV77U9I31","3S1L4CQSFYBD9IN1W8PCJQ1H8N7AFE","3X87C8JFV8HHNNXYHQRY59UQK6FSQ3","emotion","match","uniform","","","","","","","2031.5","295227.2000000477","297258.7000000477","[""stimuli/AM09_FO.jpg"",""stimuli/WM11_CC.jpg"",""stimuli/BM04_AO.jpg"",""stimuli/HM02_HE.jpg""]","stimuli/AM09_FO.jpg","stimuli/WM11_CC.jpg","stimuli/BM04_AO.jpg","stimuli/HM02_HE.jpg","pos3","stimuli/BM04_AO.jpg","AO","BM04","2","3.5","7","6","stimuli/stars_7.png","214.5","[""FO"",""CC"",""AO"",""HE""]","[""AM09"",""WM11"",""BM04"",""HM02""]","[4,3,7,6]","[4,2,6,8]","","",""
"show-reward","132","296912","0.0-132.0","p796589","A3M97OV77U9I31","3S1L4CQSFYBD9IN1W8PCJQ1H8N7AFE","3X87C8JFV8HHNNXYHQRY59UQK6FSQ3","emotion","match","uniform","","","","","","","","297772.5","299787.89999997616","","","","","","","","","","","","7","","stimuli/stars_7.png","214.5","","","","","stimuli/BM04_AO.jpg","",""
"explore-choice","133","298433","0.0-133.0","p796589","A3M97OV77U9I31","3S1L4CQSFYBD9IN1W8PCJQ1H8N7AFE","3X87C8JFV8HHNNXYHQRY59UQK6FSQ3","emotion","match","uniform","","","","","","","1018.6000000238419","299790","300808.60000002384","[""stimuli/AM09_CC.jpg"",""stimuli/BM04_FO.jpg"",""stimuli/WM11_AO.jpg"",""stimuli/HM02_HE.jpg""]","stimuli/AM09_CC.jpg","stimuli/BM04_FO.jpg","stimuli/WM11_AO.jpg","stimuli/HM02_HE.jpg","pos4","stimuli/HM02_HE.jpg","HE","HM02","3","4","8","8","stimuli/stars_8.png","218.5","[""CC"",""FO"",""AO"",""HE""]","[""AM09"",""BM04"",""WM11"",""HM02""]","[3,2,8,8]","[2,4,6,8]","","",""
"show-reward","134","300436","0.0-134.0","p796589","A3M97OV77U9I31","3S1L4CQSFYBD9IN1W8PCJQ1H8N7AFE","3X87C8JFV8HHNNXYHQRY59UQK6FSQ3","emotion","match","uniform","","","","","","","","301309.60000002384","303312","","","","","","","","","","","","8","","stimuli/stars_8.png","218.5","","","","","stimuli/HM02_HE.jpg","",""
"explore-choice","135","302489","0.0-135.0","p796589","A3M97OV77U9I31","3S1L4CQSFYBD9IN1W8PCJQ1H8N7AFE","3X87C8JFV8HHNNXYHQRY59UQK6FSQ3","emotion","match","uniform","","","","","","","1551","303314","304865","[""stimuli/BM04_AO.jpg"",""stimuli/AM09_FO.jpg"",""stimuli/WM11_HE.jpg"",""stimuli/HM02_CC.jpg""]","stimuli/BM04_AO.jpg","stimuli/AM09_FO.jpg","stimuli/WM11_HE.jpg","stimuli/HM02_CC.jpg","pos2","stimuli/AM09_FO.jpg","FO","AM09","1","2","4","4","stimuli/stars_4.png","220.5","[""AO"",""FO"",""HE"",""CC""]","[""BM04"",""AM09"",""WM11"",""HM02""]","[8,4,10,1]","[6,4,8,2]","","",""
"show-reward","136","304496","0.0-136.0","p796589","A3M97OV77U9I31","3S1L4CQSFYBD9IN1W8PCJQ1H8N7AFE","3X87C8JFV8HHNNXYHQRY59UQK6FSQ3","emotion","match","uniform","","","","","","","","305367.5","307372.2999999523","","","","","","","","","","","","4","","stimuli/stars_4.png","220.5","","","","","stimuli/AM09_FO.jpg","",""
"explore-choice","137","308494","0.0-137.0","p796589","A3M97OV77U9I31","3S1L4CQSFYBD9IN1W8PCJQ1H8N7AFE","3X87C8JFV8HHNNXYHQRY59UQK6FSQ3","emotion","match","uniform","","","","","","","3486.0999999046326","307373.2000000477","310859.2999999523","[""stimuli/WM11_HE.jpg"",""stimuli/HM02_CC.jpg"",""stimuli/BM04_FO.jpg"",""stimuli/AM09_AO.jpg""]","stimuli/WM11_HE.jpg","stimuli/HM02_CC.jpg","stimuli/BM04_FO.jpg","stimuli/AM09_AO.jpg","pos3","stimuli/BM04_FO.jpg","FO","BM04","2","2","4","4","stimuli/stars_4.png","222.5","[""HE"",""CC"",""FO"",""AO""]","[""WM11"",""HM02"",""BM04"",""AM09""]","[9,3,4,4]","[8,2,4,6]","","",""
"show-reward","138","310508","0.0-138.0","p796589","A3M97OV77U9I31","3S1L4CQSFYBD9IN1W8PCJQ1H8N7AFE","3X87C8JFV8HHNNXYHQRY59UQK6FSQ3","emotion","match","uniform","","","","","","","","311372.39999997616","313383.7999999523","","","","","","","","","","","","4","","stimuli/stars_4.png","222.5","","","","","stimuli/BM04_FO.jpg","",""
"explore-choice","139","313282","0.0-139.0","p796589","A3M97OV77U9I31","3S1L4CQSFYBD9IN1W8PCJQ1H8N7AFE","3X87C8JFV8HHNNXYHQRY59UQK6FSQ3","emotion","match","uniform","","","","","","","2272.100000023842","313384.5","315656.60000002384","[""stimuli/HM02_FO.jpg"",""stimuli/BM04_CC.jpg"",""stimuli/WM11_AO.jpg"",""stimuli/AM09_HE.jpg""]","stimuli/HM02_FO.jpg","stimuli/BM04_CC.jpg","stimuli/WM11_AO.jpg","stimuli/AM09_HE.jpg","pos3","stimuli/WM11_AO.jpg","AO","WM11","2","4","8","6","stimuli/stars_8.png","226.5","[""FO"",""CC"",""AO"",""HE""]","[""HM02"",""BM04"",""WM11"",""AM09""]","[3,2,8,8]","[4,2,6,8]","","",""
"show-reward","140","315298","0.0-140.0","p796589","A3M97OV77U9I31","3S1L4CQSFYBD9IN1W8PCJQ1H8N7AFE","3X87C8JFV8HHNNXYHQRY59UQK6FSQ3","emotion","match","uniform","","","","","","","","316160.2000000477","318173.7999999523","","","","","","","","","","","","8","","stimuli/stars_8.png","226.5","","","","","stimuli/WM11_AO.jpg","",""
"explore-choice","141","320715","0.0-141.0","p796589","A3M97OV77U9I31","3S1L4CQSFYBD9IN1W8PCJQ1H8N7AFE","3X87C8JFV8HHNNXYHQRY59UQK6FSQ3","emotion","match","uniform","","","","","","","4907.700000047684","318174.89999997616","323082.60000002384","[""stimuli/AM09_AO.jpg"",""stimuli/HM02_HE.jpg"",""stimuli/WM11_CC.jpg"",""stimuli/BM04_FO.jpg""]","stimuli/AM09_AO.jpg","stimuli/HM02_HE.jpg","stimuli/WM11_CC.jpg","stimuli/BM04_FO.jpg","pos4","stimuli/BM04_FO.jpg","FO","BM04","3","1.5","3","4","stimuli/stars_3.png","228","[""AO"",""HE"",""CC"",""FO""]","[""AM09"",""HM02"",""WM11"",""BM04""]","[7,9,3,3]","[6,8,2,4]","","",""
"show-reward","142","322728","0.0-142.0","p796589","A3M97OV77U9I31","3S1L4CQSFYBD9IN1W8PCJQ1H8N7AFE","3X87C8JFV8HHNNXYHQRY59UQK6FSQ3","emotion","match","uniform","","","","","","","","323593.7000000477","325603.7000000477","","","","","","","","","","","","3","","stimuli/stars_3.png","228","","","","","stimuli/BM04_FO.jpg","",""
"explore-choice","143","325425","0.0-143.0","p796589","A3M97OV77U9I31","3S1L4CQSFYBD9IN1W8PCJQ1H8N7AFE","3X87C8JFV8HHNNXYHQRY59UQK6FSQ3","emotion","match","uniform","","","","","","","2194.6999999284744","325605.60000002384","327800.2999999523","[""stimuli/BM04_CC.jpg"",""stimuli/HM02_FO.jpg"",""stimuli/WM11_HE.jpg"",""stimuli/AM09_AO.jpg""]","stimuli/BM04_CC.jpg","stimuli/HM02_FO.jpg","stimuli/WM11_HE.jpg","stimuli/AM09_AO.jpg","pos2","stimuli/HM02_FO.jpg","FO","HM02","1","1.5","3","4","stimuli/stars_3.png","229.5","[""CC"",""FO"",""HE"",""AO""]","[""BM04"",""HM02"",""WM11"",""AM09""]","[2,3,9,6]","[2,4,8,6]","","",""
"show-reward","144","327431","0.0-144.0","p796589","A3M97OV77U9I31","3S1L4CQSFYBD9IN1W8PCJQ1H8N7AFE","3X87C8JFV8HHNNXYHQRY59UQK6FSQ3","emotion","match","uniform","","","","","","","","328302.39999997616","330307.2000000477","","","","","","","","","","","","3","","stimuli/stars_3.png","229.5","","","","","stimuli/HM02_FO.jpg","",""
"explore-choice","145","340381","0.0-145.0","p796589","A3M97OV77U9I31","3S1L4CQSFYBD9IN1W8PCJQ1H8N7AFE","3X87C8JFV8HHNNXYHQRY59UQK6FSQ3","emotion","match","uniform","","","","","","","12441","330308.2999999523","342749.2999999523","[""stimuli/HM02_CC.jpg"",""stimuli/AM09_FO.jpg"",""stimuli/BM04_HE.jpg"",""stimuli/WM11_AO.jpg""]","stimuli/HM02_CC.jpg","stimuli/AM09_FO.jpg","stimuli/BM04_HE.jpg","stimuli/WM11_AO.jpg","pos3","stimuli/BM04_HE.jpg","HE","BM04","2","5","10","8","stimuli/stars_10.png","234.5","[""CC"",""FO"",""HE"",""AO""]","[""HM02"",""AM09"",""BM04"",""WM11""]","[1,3,10,6]","[2,4,8,6]","","",""
"show-reward","146","342390","0.0-146.0","p796589","A3M97OV77U9I31","3S1L4CQSFYBD9IN1W8PCJQ1H8N7AFE","3X87C8JFV8HHNNXYHQRY59UQK6FSQ3","emotion","match","uniform","","","","","","","","343258.89999997616","345265.7999999523","","","","","","","","","","","","10","","stimuli/stars_10.png","234.5","","","","","stimuli/BM04_HE.jpg","",""
"explore-choice","147","344239","0.0-147.0","p796589","A3M97OV77U9I31","3S1L4CQSFYBD9IN1W8PCJQ1H8N7AFE","3X87C8JFV8HHNNXYHQRY59UQK6FSQ3","emotion","match","uniform","","","","","","","1346.0999999046326","345267.7000000477","346613.7999999523","[""stimuli/AM09_FO.jpg"",""stimuli/BM04_CC.jpg"",""stimuli/WM11_HE.jpg"",""stimuli/HM02_AO.jpg""]","stimuli/AM09_FO.jpg","stimuli/BM04_CC.jpg","stimuli/WM11_HE.jpg","stimuli/HM02_AO.jpg","pos3","stimuli/WM11_HE.jpg","HE","WM11","2","4","8","8","stimuli/stars_8.png","238.5","[""FO"",""CC"",""HE"",""AO""]","[""AM09"",""BM04"",""WM11"",""HM02""]","[2,2,8,6]","[4,2,8,6]","","",""
"show-reward","148","346255","0.0-148.0","p796589","A3M97OV77U9I31","3S1L4CQSFYBD9IN1W8PCJQ1H8N7AFE","3X87C8JFV8HHNNXYHQRY59UQK6FSQ3","emotion","match","uniform","","","","","","","","347116.89999997616","349130.7000000477","","","","","","","","","","","","8","","stimuli/stars_8.png","238.5","","","","","stimuli/WM11_HE.jpg","",""
"explore-choice","149","348855","0.0-149.0","p796589","A3M97OV77U9I31","3S1L4CQSFYBD9IN1W8PCJQ1H8N7AFE","3X87C8JFV8HHNNXYHQRY59UQK6FSQ3","emotion","match","uniform","","","","","","","2098","349132.60000002384","351230.60000002384","[""stimuli/HM02_HE.jpg"",""stimuli/BM04_CC.jpg"",""stimuli/AM09_FO.jpg"",""stimuli/WM11_AO.jpg""]","stimuli/HM02_HE.jpg","stimuli/BM04_CC.jpg","stimuli/AM09_FO.jpg","stimuli/WM11_AO.jpg","pos1","stimuli/HM02_HE.jpg","HE","HM02","0","3.5","7","8","stimuli/stars_7.png","242","[""HE"",""CC"",""FO"",""AO""]","[""HM02"",""BM04"",""AM09"",""WM11""]","[7,0,3,5]","[8,2,4,6]","","",""
"show-reward","150","350865","0.0-150.0","p796589","A3M97OV77U9I31","3S1L4CQSFYBD9IN1W8PCJQ1H8N7AFE","3X87C8JFV8HHNNXYHQRY59UQK6FSQ3","emotion","match","uniform","","","","","","","","351733.2999999523","353741","","","","","","","","","","","","7","","stimuli/stars_7.png","242","","","","","stimuli/HM02_HE.jpg","",""
"explore-choice","151","353445","0.0-151.0","p796589","A3M97OV77U9I31","3S1L4CQSFYBD9IN1W8PCJQ1H8N7AFE","3X87C8JFV8HHNNXYHQRY59UQK6FSQ3","emotion","match","uniform","","","","","","","2077.899999976158","353743","355820.89999997616","[""stimuli/WM11_HE.jpg"",""stimuli/BM04_AO.jpg"",""stimuli/HM02_CC.jpg"",""stimuli/AM09_FO.jpg""]","stimuli/WM11_HE.jpg","stimuli/BM04_AO.jpg","stimuli/HM02_CC.jpg","stimuli/AM09_FO.jpg","pos1","stimuli/WM11_HE.jpg","HE","WM11","0","5","10","8","stimuli/stars_10.png","247","[""HE"",""AO"",""CC"",""FO""]","[""WM11"",""BM04"",""HM02"",""AM09""]","[10,8,1,4]","[8,6,2,4]","","",""
"show-reward","152","355447","0.0-152.0","p796589","A3M97OV77U9I31","3S1L4CQSFYBD9IN1W8PCJQ1H8N7AFE","3X87C8JFV8HHNNXYHQRY59UQK6FSQ3","emotion","match","uniform","","","","","","","","356321.89999997616","358323","","","","","","","","","","","","10","","stimuli/stars_10.png","247","","","","","stimuli/WM11_HE.jpg","",""
"explore-choice","153","356970","0.0-153.0","p796589","A3M97OV77U9I31","3S1L4CQSFYBD9IN1W8PCJQ1H8N7AFE","3X87C8JFV8HHNNXYHQRY59UQK6FSQ3","emotion","match","uniform","","","","","","","1012.1000000238419","358324.39999997616","359336.5","[""stimuli/HM02_CC.jpg"",""stimuli/AM09_HE.jpg"",""stimuli/WM11_AO.jpg"",""stimuli/BM04_FO.jpg""]","stimuli/HM02_CC.jpg","stimuli/AM09_HE.jpg","stimuli/WM11_AO.jpg","stimuli/BM04_FO.jpg","pos2","stimuli/AM09_HE.jpg","HE","AM09","1","5","10","8","stimuli/stars_10.png","252","[""CC"",""HE"",""AO"",""FO""]","[""HM02"",""AM09"",""WM11"",""BM04""]","[2,10,8,5]","[2,8,6,4]","","",""
"show-reward","154","358989","0.0-154.0","p796589","A3M97OV77U9I31","3S1L4CQSFYBD9IN1W8PCJQ1H8N7AFE","3X87C8JFV8HHNNXYHQRY59UQK6FSQ3","emotion","match","uniform","","","","","","","","359848.2999999523","361864.89999997616","","","","","","","","","","","","10","","stimuli/stars_10.png","252","","","","","stimuli/AM09_HE.jpg","",""
"explore-choice","155","362561","0.0-155.0","p796589","A3M97OV77U9I31","3S1L4CQSFYBD9IN1W8PCJQ1H8N7AFE","3X87C8JFV8HHNNXYHQRY59UQK6FSQ3","emotion","match","uniform","","","","","","","3062.5","361866.7999999523","364929.2999999523","[""stimuli/HM02_FO.jpg"",""stimuli/BM04_AO.jpg"",""stimuli/AM09_HE.jpg"",""stimuli/WM11_CC.jpg""]","stimuli/HM02_FO.jpg","stimuli/BM04_AO.jpg","stimuli/AM09_HE.jpg","stimuli/WM11_CC.jpg","pos3","stimuli/AM09_HE.jpg","HE","AM09","2","5","10","8","stimuli/stars_10.png","257","[""FO"",""AO"",""HE"",""CC""]","[""HM02"",""BM04"",""AM09"",""WM11""]","[5,4,10,1]","[4,6,8,2]","","",""
"show-reward","156","364568","0.0-156.0","p796589","A3M97OV77U9I31","3S1L4CQSFYBD9IN1W8PCJQ1H8N7AFE","3X87C8JFV8HHNNXYHQRY59UQK6FSQ3","emotion","match","uniform","","","","","","","","365438.7000000477","367444.2000000477","","","","","","","","","","","","10","","stimuli/stars_10.png","257","","","","","stimuli/AM09_HE.jpg","",""
"explore-choice","157","367194","0.0-157.0","p796589","A3M97OV77U9I31","3S1L4CQSFYBD9IN1W8PCJQ1H8N7AFE","3X87C8JFV8HHNNXYHQRY59UQK6FSQ3","emotion","match","uniform","","","","","","","2123.100000023842","367446.10000002384","369569.2000000477","[""stimuli/AM09_CC.jpg"",""stimuli/WM11_FO.jpg"",""stimuli/BM04_HE.jpg"",""stimuli/HM02_AO.jpg""]","stimuli/AM09_CC.jpg","stimuli/WM11_FO.jpg","stimuli/BM04_HE.jpg","stimuli/HM02_AO.jpg","pos3","stimuli/BM04_HE.jpg","HE","BM04","2","4.5","9","8","stimuli/stars_9.png","261.5","[""CC"",""FO"",""HE"",""AO""]","[""AM09"",""WM11"",""BM04"",""HM02""]","[4,4,9,8]","[2,4,8,6]","","",""
"show-reward","158","369199","0.0-158.0","p796589","A3M97OV77U9I31","3S1L4CQSFYBD9IN1W8PCJQ1H8N7AFE","3X87C8JFV8HHNNXYHQRY59UQK6FSQ3","emotion","match","uniform","","","","","","","","370072.5","372075.60000002384","","","","","","","","","","","","9","","stimuli/stars_9.png","261.5","","","","","stimuli/BM04_HE.jpg","",""
"explore-choice","159","371419","0.0-159.0","p796589","A3M97OV77U9I31","3S1L4CQSFYBD9IN1W8PCJQ1H8N7AFE","3X87C8JFV8HHNNXYHQRY59UQK6FSQ3","emotion","match","uniform","","","","","","","1718.3000000715256","372076.39999997616","373794.7000000477","[""stimuli/AM09_HE.jpg"",""stimuli/WM11_FO.jpg"",""stimuli/BM04_AO.jpg"",""stimuli/HM02_CC.jpg""]","stimuli/AM09_HE.jpg","stimuli/WM11_FO.jpg","stimuli/BM04_AO.jpg","stimuli/HM02_CC.jpg","pos1","stimuli/AM09_HE.jpg","HE","AM09","0","5","10","8","stimuli/stars_10.png","266.5","[""HE"",""FO"",""AO"",""CC""]","[""AM09"",""WM11"",""BM04"",""HM02""]","[10,5,6,2]","[8,4,6,2]","","",""
"show-reward","160","373428","0.0-160.0","p796589","A3M97OV77U9I31","3S1L4CQSFYBD9IN1W8PCJQ1H8N7AFE","3X87C8JFV8HHNNXYHQRY59UQK6FSQ3","emotion","match","uniform","","","","","","","","374295.7000000477","376304","","","","","","","","","","","","10","","stimuli/stars_10.png","266.5","","","","","stimuli/AM09_HE.jpg","",""
"explore-choice","161","374766","0.0-161.0","p796589","A3M97OV77U9I31","3S1L4CQSFYBD9IN1W8PCJQ1H8N7AFE","3X87C8JFV8HHNNXYHQRY59UQK6FSQ3","emotion","match","uniform","","","","","","","823.6000000238419","376305","377128.60000002384","[""stimuli/WM11_FO.jpg"",""stimuli/HM02_HE.jpg"",""stimuli/AM09_AO.jpg"",""stimuli/BM04_CC.jpg""]","stimuli/WM11_FO.jpg","stimuli/HM02_HE.jpg","stimuli/AM09_AO.jpg","stimuli/BM04_CC.jpg","pos2","stimuli/HM02_HE.jpg","HE","HM02","1","4.5","9","8","stimuli/stars_9.png","271","[""FO"",""HE"",""AO"",""CC""]","[""WM11"",""HM02"",""AM09"",""BM04""]","[4,9,7,1]","[4,8,6,2]","","",""
"show-reward","162","376778","0.0-162.0","p796589","A3M97OV77U9I31","3S1L4CQSFYBD9IN1W8PCJQ1H8N7AFE","3X87C8JFV8HHNNXYHQRY59UQK6FSQ3","emotion","match","uniform","","","","","","","","377644.60000002384","379653.7000000477","","","","","","","","","","","","9","","stimuli/stars_9.png","271","","","","","stimuli/HM02_HE.jpg","",""
"explore-choice","163","378353","0.0-163.0","p796589","A3M97OV77U9I31","3S1L4CQSFYBD9IN1W8PCJQ1H8N7AFE","3X87C8JFV8HHNNXYHQRY59UQK6FSQ3","emotion","match","uniform","","","","","","","1067.1000000238419","379655.7999999523","380722.89999997616","[""stimuli/HM02_CC.jpg"",""stimuli/AM09_FO.jpg"",""stimuli/BM04_HE.jpg"",""stimuli/WM11_AO.jpg""]","stimuli/HM02_CC.jpg","stimuli/AM09_FO.jpg","stimuli/BM04_HE.jpg","stimuli/WM11_AO.jpg","pos3","stimuli/BM04_HE.jpg","HE","BM04","2","5","10","8","stimuli/stars_10.png","276","[""CC"",""FO"",""HE"",""AO""]","[""HM02"",""AM09"",""BM04"",""WM11""]","[1,3,10,6]","[2,4,8,6]","","",""
"show-reward","164","380361","0.0-164.0","p796589","A3M97OV77U9I31","3S1L4CQSFYBD9IN1W8PCJQ1H8N7AFE","3X87C8JFV8HHNNXYHQRY59UQK6FSQ3","emotion","match","uniform","","","","","","","","381230.60000002384","383236.7999999523","","","","","","","","","","","","10","","stimuli/stars_10.png","276","","","","","stimuli/BM04_HE.jpg","",""
"explore-choice","165","385496","0.0-165.0","p796589","A3M97OV77U9I31","3S1L4CQSFYBD9IN1W8PCJQ1H8N7AFE","3X87C8JFV8HHNNXYHQRY59UQK6FSQ3","emotion","match","uniform","","","","","","","4618.899999976158","383238.60000002384","387857.5","[""stimuli/BM04_FO.jpg"",""stimuli/HM02_CC.jpg"",""stimuli/AM09_AO.jpg"",""stimuli/WM11_HE.jpg""]","stimuli/BM04_FO.jpg","stimuli/HM02_CC.jpg","stimuli/AM09_AO.jpg","stimuli/WM11_HE.jpg","pos1","stimuli/BM04_FO.jpg","FO","BM04","0","2","4","4","stimuli/stars_4.png","278","[""FO"",""CC"",""AO"",""HE""]","[""BM04"",""HM02"",""AM09"",""WM11""]","[4,3,4,9]","[4,2,6,8]","","",""
"show-reward","166","387500","0.0-166.0","p796589","A3M97OV77U9I31","3S1L4CQSFYBD9IN1W8PCJQ1H8N7AFE","3X87C8JFV8HHNNXYHQRY59UQK6FSQ3","emotion","match","uniform","","","","","","","","388374.2000000477","390376.60000002384","","","","","","","","","","","","4","","stimuli/stars_4.png","278","","","","","stimuli/BM04_FO.jpg","",""
"explore-choice","167","388966","0.0-167.0","p796589","A3M97OV77U9I31","3S1L4CQSFYBD9IN1W8PCJQ1H8N7AFE","3X87C8JFV8HHNNXYHQRY59UQK6FSQ3","emotion","match","uniform","","","","","","","958.4000000953674","390377.7999999523","391336.2000000477","[""stimuli/HM02_FO.jpg"",""stimuli/BM04_HE.jpg"",""stimuli/WM11_AO.jpg"",""stimuli/AM09_CC.jpg""]","stimuli/HM02_FO.jpg","stimuli/BM04_HE.jpg","stimuli/WM11_AO.jpg","stimuli/AM09_CC.jpg","pos2","stimuli/BM04_HE.jpg","HE","BM04","1","3","6","8","stimuli/stars_6.png","281","[""FO"",""HE"",""AO"",""CC""]","[""HM02"",""BM04"",""WM11"",""AM09""]","[4,6,7,3]","[4,8,6,2]","","",""
"show-reward","168","390980","0.0-168.0","p796589","A3M97OV77U9I31","3S1L4CQSFYBD9IN1W8PCJQ1H8N7AFE","3X87C8JFV8HHNNXYHQRY59UQK6FSQ3","emotion","match","uniform","","","","","","","","391843","393856","","","","","","","","","","","","6","","stimuli/stars_6.png","281","","","","","stimuli/BM04_HE.jpg","",""
"explore-choice","169","392969","0.0-169.0","p796589","A3M97OV77U9I31","3S1L4CQSFYBD9IN1W8PCJQ1H8N7AFE","3X87C8JFV8HHNNXYHQRY59UQK6FSQ3","emotion","match","uniform","","","","","","","1486.5999999046326","393858.2000000477","395344.7999999523","[""stimuli/AM09_CC.jpg"",""stimuli/HM02_AO.jpg"",""stimuli/WM11_HE.jpg"",""stimuli/BM04_FO.jpg""]","stimuli/AM09_CC.jpg","stimuli/HM02_AO.jpg","stimuli/WM11_HE.jpg","stimuli/BM04_FO.jpg","pos3","stimuli/WM11_HE.jpg","HE","WM11","2","3.5","7","8","stimuli/stars_7.png","284.5","[""CC"",""AO"",""HE"",""FO""]","[""AM09"",""HM02"",""WM11"",""BM04""]","[2,5,7,4]","[2,6,8,4]","","",""
"show-reward","170","394973","0.0-170.0","p796589","A3M97OV77U9I31","3S1L4CQSFYBD9IN1W8PCJQ1H8N7AFE","3X87C8JFV8HHNNXYHQRY59UQK6FSQ3","emotion","match","uniform","","","","","","","","395847","397849.5","","","","","","","","","","","","7","","stimuli/stars_7.png","284.5","","","","","stimuli/WM11_HE.jpg","",""
"explore-choice","171","396929","0.0-171.0","p796589","A3M97OV77U9I31","3S1L4CQSFYBD9IN1W8PCJQ1H8N7AFE","3X87C8JFV8HHNNXYHQRY59UQK6FSQ3","emotion","match","uniform","","","","","","","1454.0999999046326","397850.2000000477","399304.2999999523","[""stimuli/BM04_CC.jpg"",""stimuli/WM11_FO.jpg"",""stimuli/HM02_AO.jpg"",""stimuli/AM09_HE.jpg""]","stimuli/BM04_CC.jpg","stimuli/WM11_FO.jpg","stimuli/HM02_AO.jpg","stimuli/AM09_HE.jpg","pos4","stimuli/AM09_HE.jpg","HE","AM09","3","4.5","9","8","stimuli/stars_9.png","289","[""CC"",""FO"",""AO"",""HE""]","[""BM04"",""WM11"",""HM02"",""AM09""]","[3,4,6,9]","[2,4,6,8]","","",""
"show-reward","172","398934","0.0-172.0","p796589","A3M97OV77U9I31","3S1L4CQSFYBD9IN1W8PCJQ1H8N7AFE","3X87C8JFV8HHNNXYHQRY59UQK6FSQ3","emotion","match","uniform","","","","","","","","399806.60000002384","401810.10000002384","","","","","","","","","","","","9","","stimuli/stars_9.png","289","","","","","stimuli/AM09_HE.jpg","",""
"explore-choice","173","400265","0.0-173.0","p796589","A3M97OV77U9I31","3S1L4CQSFYBD9IN1W8PCJQ1H8N7AFE","3X87C8JFV8HHNNXYHQRY59UQK6FSQ3","emotion","match","uniform","","","","","","","828.7999999523163","401812","402640.7999999523","[""stimuli/WM11_HE.jpg"",""stimuli/AM09_AO.jpg"",""stimuli/HM02_FO.jpg"",""stimuli/BM04_CC.jpg""]","stimuli/WM11_HE.jpg","stimuli/AM09_AO.jpg","stimuli/HM02_FO.jpg","stimuli/BM04_CC.jpg","pos1","stimuli/WM11_HE.jpg","HE","WM11","0","4.5","9","8","stimuli/stars_9.png","293.5","[""HE"",""AO"",""FO"",""CC""]","[""WM11"",""AM09"",""HM02"",""BM04""]","[9,6,3,2]","[8,6,4,2]","","",""
"show-reward","174","402267","0.0-174.0","p796589","A3M97OV77U9I31","3S1L4CQSFYBD9IN1W8PCJQ1H8N7AFE","3X87C8JFV8HHNNXYHQRY59UQK6FSQ3","emotion","match","uniform","","","","","","","","403142.10000002384","405143.5","","","","","","","","","","","","9","","stimuli/stars_9.png","293.5","","","","","stimuli/WM11_HE.jpg","",""
"explore-choice","175","404818","0.0-175.0","p796589","A3M97OV77U9I31","3S1L4CQSFYBD9IN1W8PCJQ1H8N7AFE","3X87C8JFV8HHNNXYHQRY59UQK6FSQ3","emotion","match","uniform","","","","","","","2036.2000000476837","405144.7999999523","407181","[""stimuli/BM04_HE.jpg"",""stimuli/HM02_FO.jpg"",""stimuli/WM11_CC.jpg"",""stimuli/AM09_AO.jpg""]","stimuli/BM04_HE.jpg","stimuli/HM02_FO.jpg","stimuli/WM11_CC.jpg","stimuli/AM09_AO.jpg","pos1","stimuli/BM04_HE.jpg","HE","BM04","0","4","8","8","stimuli/stars_8.png","297.5","[""HE"",""FO"",""CC"",""AO""]","[""BM04"",""HM02"",""WM11"",""AM09""]","[8,6,1,4]","[8,4,2,6]","","",""
"show-reward","176","406830","0.0-176.0","p796589","A3M97OV77U9I31","3S1L4CQSFYBD9IN1W8PCJQ1H8N7AFE","3X87C8JFV8HHNNXYHQRY59UQK6FSQ3","emotion","match","uniform","","","","","","","","407695.2000000477","409706.5","","","","","","","","","","","","8","","stimuli/stars_8.png","297.5","","","","","stimuli/BM04_HE.jpg","",""
"explore-choice","177","408027","0.0-177.0","p796589","A3M97OV77U9I31","3S1L4CQSFYBD9IN1W8PCJQ1H8N7AFE","3X87C8JFV8HHNNXYHQRY59UQK6FSQ3","emotion","match","uniform","","","","","","","681.1000000238419","409707.2999999523","410388.39999997616","[""stimuli/HM02_FO.jpg"",""stimuli/AM09_HE.jpg"",""stimuli/BM04_CC.jpg"",""stimuli/WM11_AO.jpg""]","stimuli/HM02_FO.jpg","stimuli/AM09_HE.jpg","stimuli/BM04_CC.jpg","stimuli/WM11_AO.jpg","pos2","stimuli/AM09_HE.jpg","HE","AM09","1","4","8","8","stimuli/stars_8.png","301.5","[""FO"",""HE"",""CC"",""AO""]","[""HM02"",""AM09"",""BM04"",""WM11""]","[3,8,2,8]","[4,8,2,6]","","",""
"show-reward","178","410032","0.0-178.0","p796589","A3M97OV77U9I31","3S1L4CQSFYBD9IN1W8PCJQ1H8N7AFE","3X87C8JFV8HHNNXYHQRY59UQK6FSQ3","emotion","match","uniform","","","","","","","","410905.10000002384","412908.2999999523","","","","","","","","","","","","8","","stimuli/stars_8.png","301.5","","","","","stimuli/AM09_HE.jpg","",""
"explore-choice","179","412228","0.0-179.0","p796589","A3M97OV77U9I31","3S1L4CQSFYBD9IN1W8PCJQ1H8N7AFE","3X87C8JFV8HHNNXYHQRY59UQK6FSQ3","emotion","match","uniform","","","","","","","1683.1999999284744","412909.60000002384","414592.7999999523","[""stimuli/WM11_HE.jpg"",""stimuli/HM02_AO.jpg"",""stimuli/BM04_CC.jpg"",""stimuli/AM09_FO.jpg""]","stimuli/WM11_HE.jpg","stimuli/HM02_AO.jpg","stimuli/BM04_CC.jpg","stimuli/AM09_FO.jpg","pos1","stimuli/WM11_HE.jpg","HE","WM11","0","4","8","8","stimuli/stars_8.png","305.5","[""HE"",""AO"",""CC"",""FO""]","[""WM11"",""HM02"",""BM04"",""AM09""]","[8,6,2,2]","[8,6,2,4]","","",""
"show-reward","180","414241","0.0-180.0","p796589","A3M97OV77U9I31","3S1L4CQSFYBD9IN1W8PCJQ1H8N7AFE","3X87C8JFV8HHNNXYHQRY59UQK6FSQ3","emotion","match","uniform","","","","","","","","415104.89999997616","417116.60000002384","","","","","","","","","","","","8","","stimuli/stars_8.png","305.5","","","","","stimuli/WM11_HE.jpg","",""
"explore-choice","181","416037","0.0-181.0","p796589","A3M97OV77U9I31","3S1L4CQSFYBD9IN1W8PCJQ1H8N7AFE","3X87C8JFV8HHNNXYHQRY59UQK6FSQ3","emotion","match","uniform","","","","","","","1293.7000000476837","417119","418412.7000000477","[""stimuli/WM11_CC.jpg"",""stimuli/AM09_AO.jpg"",""stimuli/BM04_FO.jpg"",""stimuli/HM02_HE.jpg""]","stimuli/WM11_CC.jpg","stimuli/AM09_AO.jpg","stimuli/BM04_FO.jpg","stimuli/HM02_HE.jpg","pos3","stimuli/BM04_FO.jpg","FO","BM04","2","1.5","3","4","stimuli/stars_3.png","307","[""CC"",""AO"",""FO"",""HE""]","[""WM11"",""AM09"",""BM04"",""HM02""]","[3,7,3,9]","[2,6,4,8]","","",""
"show-reward","182","418040","0.0-182.0","p796589","A3M97OV77U9I31","3S1L4CQSFYBD9IN1W8PCJQ1H8N7AFE","3X87C8JFV8HHNNXYHQRY59UQK6FSQ3","emotion","match","uniform","","","","","","","","418914.2000000477","420916.39999997616","","","","","","","","","","","","3","","stimuli/stars_3.png","307","","","","","stimuli/BM04_FO.jpg","",""
"explore-choice","183","419724","0.0-183.0","p796589","A3M97OV77U9I31","3S1L4CQSFYBD9IN1W8PCJQ1H8N7AFE","3X87C8JFV8HHNNXYHQRY59UQK6FSQ3","emotion","match","uniform","","","","","","","1180.5999999046326","420918.2000000477","422098.7999999523","[""stimuli/WM11_AO.jpg"",""stimuli/HM02_HE.jpg"",""stimuli/BM04_CC.jpg"",""stimuli/AM09_FO.jpg""]","stimuli/WM11_AO.jpg","stimuli/HM02_HE.jpg","stimuli/BM04_CC.jpg","stimuli/AM09_FO.jpg","pos2","stimuli/HM02_HE.jpg","HE","HM02","1","3.5","7","8","stimuli/stars_7.png","310.5","[""AO"",""HE"",""CC"",""FO""]","[""WM11"",""HM02"",""BM04"",""AM09""]","[5,7,0,3]","[6,8,2,4]","","",""
"show-reward","184","421727","0.0-184.0","p796589","A3M97OV77U9I31","3S1L4CQSFYBD9IN1W8PCJQ1H8N7AFE","3X87C8JFV8HHNNXYHQRY59UQK6FSQ3","emotion","match","uniform","","","","","","","","422601.5","424602.7999999523","","","","","","","","","","","","7","","stimuli/stars_7.png","310.5","","","","","stimuli/HM02_HE.jpg","",""
"explore-choice","185","423771","0.0-185.0","p796589","A3M97OV77U9I31","3S1L4CQSFYBD9IN1W8PCJQ1H8N7AFE","3X87C8JFV8HHNNXYHQRY59UQK6FSQ3","emotion","match","uniform","","","","","","","1542.3999999761581","424604.2000000477","426146.60000002384","[""stimuli/HM02_HE.jpg"",""stimuli/AM09_FO.jpg"",""stimuli/WM11_CC.jpg"",""stimuli/BM04_AO.jpg""]","stimuli/HM02_HE.jpg","stimuli/AM09_FO.jpg","stimuli/WM11_CC.jpg","stimuli/BM04_AO.jpg","pos1","stimuli/HM02_HE.jpg","HE","HM02","0","3","6","8","stimuli/stars_6.png","313.5","[""HE"",""FO"",""CC"",""AO""]","[""HM02"",""AM09"",""WM11"",""BM04""]","[6,4,3,7]","[8,4,2,6]","","",""
"show-reward","186","425776","0.0-186.0","p796589","A3M97OV77U9I31","3S1L4CQSFYBD9IN1W8PCJQ1H8N7AFE","3X87C8JFV8HHNNXYHQRY59UQK6FSQ3","emotion","match","uniform","","","","","","","","426648.7999999523","428652.39999997616","","","","","","","","","","","","6","","stimuli/stars_6.png","313.5","","","","","stimuli/HM02_HE.jpg","",""
"explore-choice","187","428438","0.0-187.0","p796589","A3M97OV77U9I31","3S1L4CQSFYBD9IN1W8PCJQ1H8N7AFE","3X87C8JFV8HHNNXYHQRY59UQK6FSQ3","emotion","match","uniform","","","","","","","2160.2999999523163","428654.10000002384","430814.39999997616","[""stimuli/WM11_CC.jpg"",""stimuli/BM04_FO.jpg"",""stimuli/AM09_HE.jpg"",""stimuli/HM02_AO.jpg""]","stimuli/WM11_CC.jpg","stimuli/BM04_FO.jpg","stimuli/AM09_HE.jpg","stimuli/HM02_AO.jpg","pos3","stimuli/AM09_HE.jpg","HE","AM09","2","4.5","9","8","stimuli/stars_9.png","318","[""CC"",""FO"",""HE"",""AO""]","[""WM11"",""BM04"",""AM09"",""HM02""]","[3,3,9,5]","[2,4,8,6]","","",""
"show-reward","188","430450","0.0-188.0","p796589","A3M97OV77U9I31","3S1L4CQSFYBD9IN1W8PCJQ1H8N7AFE","3X87C8JFV8HHNNXYHQRY59UQK6FSQ3","emotion","match","uniform","","","","","","","","431315.39999997616","433326.5","","","","","","","","","","","","9","","stimuli/stars_9.png","318","","","","","stimuli/AM09_HE.jpg","",""
"explore-choice","189","432211","0.0-189.0","p796589","A3M97OV77U9I31","3S1L4CQSFYBD9IN1W8PCJQ1H8N7AFE","3X87C8JFV8HHNNXYHQRY59UQK6FSQ3","emotion","match","uniform","","","","","","","1257.0999999046326","433327.7000000477","434584.7999999523","[""stimuli/HM02_FO.jpg"",""stimuli/AM09_CC.jpg"",""stimuli/WM11_HE.jpg"",""stimuli/BM04_AO.jpg""]","stimuli/HM02_FO.jpg","stimuli/AM09_CC.jpg","stimuli/WM11_HE.jpg","stimuli/BM04_AO.jpg","pos3","stimuli/WM11_HE.jpg","HE","WM11","2","5","10","8","stimuli/stars_10.png","323","[""FO"",""CC"",""HE"",""AO""]","[""HM02"",""AM09"",""WM11"",""BM04""]","[3,3,10,6]","[4,2,8,6]","","",""
"show-reward","190","434228","0.0-190.0","p796589","A3M97OV77U9I31","3S1L4CQSFYBD9IN1W8PCJQ1H8N7AFE","3X87C8JFV8HHNNXYHQRY59UQK6FSQ3","emotion","match","uniform","","","","","","","","435088.5","437104.60000002384","","","","","","","","","","","","10","","stimuli/stars_10.png","323","","","","","stimuli/WM11_HE.jpg","",""
"explore-choice","191","436067","0.0-191.0","p796589","A3M97OV77U9I31","3S1L4CQSFYBD9IN1W8PCJQ1H8N7AFE","3X87C8JFV8HHNNXYHQRY59UQK6FSQ3","emotion","match","uniform","","","","","","","1337.2000000476837","437105.5","438442.7000000477","[""stimuli/BM04_AO.jpg"",""stimuli/HM02_HE.jpg"",""stimuli/AM09_CC.jpg"",""stimuli/WM11_FO.jpg""]","stimuli/BM04_AO.jpg","stimuli/HM02_HE.jpg","stimuli/AM09_CC.jpg","stimuli/WM11_FO.jpg","pos2","stimuli/HM02_HE.jpg","HE","HM02","1","3.5","7","8","stimuli/stars_7.png","326.5","[""AO"",""HE"",""CC"",""FO""]","[""BM04"",""HM02"",""AM09"",""WM11""]","[6,7,0,6]","[6,8,2,4]","","",""
"show-reward","192","438079","0.0-192.0","p796589","A3M97OV77U9I31","3S1L4CQSFYBD9IN1W8PCJQ1H8N7AFE","3X87C8JFV8HHNNXYHQRY59UQK6FSQ3","emotion","match","uniform","","","","","","","","438944.89999997616","440955.2999999523","","","","","","","","","","","","7","","stimuli/stars_7.png","326.5","","","","","stimuli/HM02_HE.jpg","",""
"explore-choice","193","439635","0.0-193.0","p796589","A3M97OV77U9I31","3S1L4CQSFYBD9IN1W8PCJQ1H8N7AFE","3X87C8JFV8HHNNXYHQRY59UQK6FSQ3","emotion","match","uniform","","","","","","","1052.6000000238419","440957.39999997616","442010","[""stimuli/HM02_AO.jpg"",""stimuli/BM04_HE.jpg"",""stimuli/AM09_FO.jpg"",""stimuli/WM11_CC.jpg""]","stimuli/HM02_AO.jpg","stimuli/BM04_HE.jpg","stimuli/AM09_FO.jpg","stimuli/WM11_CC.jpg","pos2","stimuli/BM04_HE.jpg","HE","BM04","1","3","6","8","stimuli/stars_6.png","329.5","[""AO"",""HE"",""FO"",""CC""]","[""HM02"",""BM04"",""AM09"",""WM11""]","[7,6,3,2]","[6,8,4,2]","","",""
"show-reward","194","441639","0.0-194.0","p796589","A3M97OV77U9I31","3S1L4CQSFYBD9IN1W8PCJQ1H8N7AFE","3X87C8JFV8HHNNXYHQRY59UQK6FSQ3","emotion","match","uniform","","","","","","","","442512.89999997616","444515.2999999523","","","","","","","","","","","","6","","stimuli/stars_6.png","329.5","","","","","stimuli/BM04_HE.jpg","",""
"explore-choice","195","443812","0.0-195.0","p796589","A3M97OV77U9I31","3S1L4CQSFYBD9IN1W8PCJQ1H8N7AFE","3X87C8JFV8HHNNXYHQRY59UQK6FSQ3","emotion","match","uniform","","","","","","","1665.3999999761581","444516.7000000477","446182.10000002384","[""stimuli/WM11_FO.jpg"",""stimuli/BM04_HE.jpg"",""stimuli/HM02_CC.jpg"",""stimuli/AM09_AO.jpg""]","stimuli/WM11_FO.jpg","stimuli/BM04_HE.jpg","stimuli/HM02_CC.jpg","stimuli/AM09_AO.jpg","pos2","stimuli/BM04_HE.jpg","HE","BM04","1","5","10","8","stimuli/stars_10.png","334.5","[""FO"",""HE"",""CC"",""AO""]","[""WM11"",""BM04"",""HM02"",""AM09""]","[2,10,2,8]","[4,8,2,6]","","",""
"show-reward","196","445816","0.0-196.0","p796589","A3M97OV77U9I31","3S1L4CQSFYBD9IN1W8PCJQ1H8N7AFE","3X87C8JFV8HHNNXYHQRY59UQK6FSQ3","emotion","match","uniform","","","","","","","","446690.60000002384","448691.7000000477","","","","","","","","","","","","10","","stimuli/stars_10.png","334.5","","","","","stimuli/BM04_HE.jpg","",""
"explore-choice","197","447989","0.0-197.0","p796589","A3M97OV77U9I31","3S1L4CQSFYBD9IN1W8PCJQ1H8N7AFE","3X87C8JFV8HHNNXYHQRY59UQK6FSQ3","emotion","match","uniform","","","","","","","1668.6999999284744","448693.60000002384","450362.2999999523","[""stimuli/BM04_FO.jpg"",""stimuli/AM09_CC.jpg"",""stimuli/HM02_HE.jpg"",""stimuli/WM11_AO.jpg""]","stimuli/BM04_FO.jpg","stimuli/AM09_CC.jpg","stimuli/HM02_HE.jpg","stimuli/WM11_AO.jpg","pos3","stimuli/HM02_HE.jpg","HE","HM02","2","4","8","8","stimuli/stars_8.png","338.5","[""FO"",""CC"",""HE"",""AO""]","[""BM04"",""AM09"",""HM02"",""WM11""]","[2,3,8,8]","[4,2,8,6]","","",""
"show-reward","198","449994","0.0-198.0","p796589","A3M97OV77U9I31","3S1L4CQSFYBD9IN1W8PCJQ1H8N7AFE","3X87C8JFV8HHNNXYHQRY59UQK6FSQ3","emotion","match","uniform","","","","","","","","450866.7999999523","452870.2000000477","","","","","","","","","","","","8","","stimuli/stars_8.png","338.5","","","","","stimuli/HM02_HE.jpg","",""
"instructions","199","456062","0.0-199.0","p796589","A3M97OV77U9I31","3S1L4CQSFYBD9IN1W8PCJQ1H8N7AFE","3X87C8JFV8HHNNXYHQRY59UQK6FSQ3","emotion","match","uniform","","","","","","[{""page_index"":0,""viewing_time"":6065.5}]","6066","","","","","","","","","","","","","","","","","","","","","","","",""
"survey-text","200","458101","0.0-200.0-0.0","p796589","A3M97OV77U9I31","3S1L4CQSFYBD9IN1W8PCJQ1H8N7AFE","3X87C8JFV8HHNNXYHQRY59UQK6FSQ3","emotion","match","uniform","","","","","","","2035","","","","","","","","","","","","","","","","","","","","","","","{""age"":""21""}",""
"survey-text","201","459999","0.0-200.0-1.0","p796589","A3M97OV77U9I31","3S1L4CQSFYBD9IN1W8PCJQ1H8N7AFE","3X87C8JFV8HHNNXYHQRY59UQK6FSQ3","emotion","match","uniform","","","","","","","1894.7999999523163","","","","","","","","","","","","","","","","","","","","","","","{""gender"":""Male""}",""
"survey-text","202","464400","0.0-200.0-2.0","p796589","A3M97OV77U9I31","3S1L4CQSFYBD9IN1W8PCJQ1H8N7AFE","3X87C8JFV8HHNNXYHQRY59UQK6FSQ3","emotion","match","uniform","","","","","","","4399.200000047684","","","","","","","","","","","","","","","","","","","","","","","{""country"":""United States""}",""
"survey-text","203","468834","0.0-200.0-3.0","p796589","A3M97OV77U9I31","3S1L4CQSFYBD9IN1W8PCJQ1H8N7AFE","3X87C8JFV8HHNNXYHQRY59UQK6FSQ3","emotion","match","uniform","","","","","","","4430.700000047684","","","","","","","","","","","","","","","","","","","","","","","{""language"":""English"",""other_languages"":""none""}",""
"survey-multi-select","204","471483","0.0-201.0","p796589","A3M97OV77U9I31","3S1L4CQSFYBD9IN1W8PCJQ1H8N7AFE","3X87C8JFV8HHNNXYHQRY59UQK6FSQ3","emotion","match","uniform","","","","","","","2643.5999999046326","","","","","","","","","","","","","","","","","","","","","","","{""race"":[""White""]}","[0]"
"survey-multi-choice","205","473076","0.0-202.0","p796589","A3M97OV77U9I31","3S1L4CQSFYBD9IN1W8PCJQ1H8N7AFE","3X87C8JFV8HHNNXYHQRY59UQK6FSQ3","emotion","match","uniform","","","","","","","1587","","","","","","","","","","","","","","","","","","","","","","","{""education"":""Some college/ university""}","[0]"
"survey-text","206","518276","0.0-203.0","p796589","A3M97OV77U9I31","3S1L4CQSFYBD9IN1W8PCJQ1H8N7AFE","3X87C8JFV8HHNNXYHQRY59UQK6FSQ3","emotion","match","uniform","","","","","","","45192.5","","","","","","","","","","","","","","","","","","","","","","","{""patterns"":""In the first section, people with the most startled faces were worth the most. In the second, people who were the happiest were worth the most"",""strategy"":""Same as the pattern above"",""comments"":""""}",""
