"trial_type","trial_index","time_elapsed","internal_node_id","subject","workerId","hitId","assignmentId","structure_condition","match_condition","noise_type","success","timeout","failed_images","failed_audio","failed_video","view_history","rt","start_time","end_time","stimuli","image1","image2","image3","image4","choiceLocation","choiceImage","choiceEmotion","choiceModel","choice_index","reward_score","reward","reward_score_unadjusted","reward_image","score_after_trial","emotions","models","rewards","rewards_unadjusted","stimulus","response","question_order"
"pavlovia","0","29","0.0-0.0","p355149","A368366DSK3KW6","3WPCIUYH1BELQU8EB2L3QVOOKYBTD4","3TMSXRD2X86MD0UQGGBK1XP3I7K1WX","emotion","match","uniform","","","","","","","","","","","","","","","","","","","","","","","","","","","","","","",""
"preload","1","3022","0.0-1.0","p355149","A368366DSK3KW6","3WPCIUYH1BELQU8EB2L3QVOOKYBTD4","3TMSXRD2X86MD0UQGGBK1XP3I7K1WX","emotion","match","uniform","true","false","[]","[]","[]","","","","","","","","","","","","","","","","","","","","","","","","","",""
"fullscreen","2","6768","0.0-2.0","p355149","A368366DSK3KW6","3WPCIUYH1BELQU8EB2L3QVOOKYBTD4","3TMSXRD2X86MD0UQGGBK1XP3I7K1WX","emotion","match","uniform","true","","","","","","","","","","","","","","","","","","","","","","","","","","","","","",""
"instructions","3","13217","0.0-3.0","p355149","A368366DSK3KW6","3WPCIUYH1BELQU8EB2L3QVOOKYBTD4","3TMSXRD2X86MD0UQGGBK1XP3I7K1WX","emotion","match","uniform","","","","","","[{""page_index"":0,""viewing_time"":6446}]","6446","","","","","","","","","","","","","","","","","","","","","","","",""
"explore-choice","4","15807","0.0-4.0","p355149","A368366DSK3KW6","3WPCIUYH1BELQU8EB2L3QVOOKYBTD4","3TMSXRD2X86MD0UQGGBK1XP3I7K1WX","emotion","match","uniform","","","","","","","2069","14851","16920","[""stimuli/sheep.jpg"",""stimuli/hammer.jpg"",""stimuli/basketball.jpg"",""stimuli/horse.jpg""]","stimuli/sheep.jpg","stimuli/hammer.jpg","stimuli/basketball.jpg","stimuli/horse.jpg","pos4","stimuli/horse.jpg","","","3","64","64","64","stimuli/stars_8.png","65","","","","","","",""
"explore-choice","5","17685","0.0-5.0","p355149","A368366DSK3KW6","3WPCIUYH1BELQU8EB2L3QVOOKYBTD4","3TMSXRD2X86MD0UQGGBK1XP3I7K1WX","emotion","match","uniform","","","","","","","1366","17439","18805","[""stimuli/hammer.jpg"",""stimuli/basketball.jpg"",""stimuli/horse.jpg"",""stimuli/sheep.jpg""]","stimuli/hammer.jpg","stimuli/basketball.jpg","stimuli/horse.jpg","stimuli/sheep.jpg","pos1","stimuli/hammer.jpg","","","0","8","8","8","stimuli/stars_2.png","9","","","","","","",""
"instructions","6","38674","0.0-6.0","p355149","A368366DSK3KW6","3WPCIUYH1BELQU8EB2L3QVOOKYBTD4","3TMSXRD2X86MD0UQGGBK1XP3I7K1WX","emotion","match","uniform","","","","","","[{""page_index"":0,""viewing_time"":20986}]","20987","","","","","","","","","","","","","","","","","","","","","","","",""
"explore-choice","7","42318","0.0-7.0","p355149","A368366DSK3KW6","3WPCIUYH1BELQU8EB2L3QVOOKYBTD4","3TMSXRD2X86MD0UQGGBK1XP3I7K1WX","emotion","match","uniform","","","","","","","3133","40306","43439","[""stimuli/HM10_CC.jpg"",""stimuli/WF06_HE.jpg"",""stimuli/WM09_AO.jpg"",""stimuli/AF09_DO.jpg""]","stimuli/HM10_CC.jpg","stimuli/WF06_HE.jpg","stimuli/WM09_AO.jpg","stimuli/AF09_DO.jpg","pos2","stimuli/WF06_HE.jpg","HE","WF06","1","3","6","8","stimuli/stars_6.png","4","[""CC"",""HE"",""AO"",""DO""]","[""HM10"",""WF06"",""WM09"",""AF09""]","[2,6,8,0]","[4,8,6,2]","","",""
"show-reward","8","44340","0.0-8.0","p355149","A368366DSK3KW6","3WPCIUYH1BELQU8EB2L3QVOOKYBTD4","3TMSXRD2X86MD0UQGGBK1XP3I7K1WX","emotion","match","uniform","","","","","","","","43951","45970","","","","","","","","","","","","6","","stimuli/stars_6.png","4","","","","","stimuli/WF06_HE.jpg","",""
"explore-choice","9","47305","0.0-9.0","p355149","A368366DSK3KW6","3WPCIUYH1BELQU8EB2L3QVOOKYBTD4","3TMSXRD2X86MD0UQGGBK1XP3I7K1WX","emotion","match","uniform","","","","","","","2462","45972","48434","[""stimuli/AF09_HE.jpg"",""stimuli/WF06_CC.jpg"",""stimuli/WM09_DO.jpg"",""stimuli/HM10_AO.jpg""]","stimuli/AF09_HE.jpg","stimuli/WF06_CC.jpg","stimuli/WM09_DO.jpg","stimuli/HM10_AO.jpg","pos1","stimuli/AF09_HE.jpg","HE","AF09","0","3.5","7","8","stimuli/stars_7.png","7.5","[""HE"",""CC"",""DO"",""AO""]","[""AF09"",""WF06"",""WM09"",""HM10""]","[7,3,3,6]","[8,4,2,6]","","",""
"show-reward","10","49316","0.0-10.0","p355149","A368366DSK3KW6","3WPCIUYH1BELQU8EB2L3QVOOKYBTD4","3TMSXRD2X86MD0UQGGBK1XP3I7K1WX","emotion","match","uniform","","","","","","","","48937","50947","","","","","","","","","","","","7","","stimuli/stars_7.png","7.5","","","","","stimuli/AF09_HE.jpg","",""
"explore-choice","11","51666","0.0-11.0","p355149","A368366DSK3KW6","3WPCIUYH1BELQU8EB2L3QVOOKYBTD4","3TMSXRD2X86MD0UQGGBK1XP3I7K1WX","emotion","match","uniform","","","","","","","1841","50950","52791","[""stimuli/AF09_DO.jpg"",""stimuli/WM09_CC.jpg"",""stimuli/HM10_HE.jpg"",""stimuli/WF06_AO.jpg""]","stimuli/AF09_DO.jpg","stimuli/WM09_CC.jpg","stimuli/HM10_HE.jpg","stimuli/WF06_AO.jpg","pos4","stimuli/WF06_AO.jpg","AO","WF06","3","3.5","7","6","stimuli/stars_7.png","11","[""DO"",""CC"",""HE"",""AO""]","[""AF09"",""WM09"",""HM10"",""WF06""]","[4,2,7,7]","[2,4,8,6]","","",""
"show-reward","12","53671","0.0-12.0","p355149","A368366DSK3KW6","3WPCIUYH1BELQU8EB2L3QVOOKYBTD4","3TMSXRD2X86MD0UQGGBK1XP3I7K1WX","emotion","match","uniform","","","","","","","","53298","55301","","","","","","","","","","","","7","","stimuli/stars_7.png","11","","","","","stimuli/WF06_AO.jpg","",""
"explore-choice","13","56005","0.0-13.0","p355149","A368366DSK3KW6","3WPCIUYH1BELQU8EB2L3QVOOKYBTD4","3TMSXRD2X86MD0UQGGBK1XP3I7K1WX","emotion","match","uniform","","","","","","","1822","55302","57124","[""stimuli/WM09_DO.jpg"",""stimuli/HM10_CC.jpg"",""stimuli/WF06_AO.jpg"",""stimuli/AF09_HE.jpg""]","stimuli/WM09_DO.jpg","stimuli/HM10_CC.jpg","stimuli/WF06_AO.jpg","stimuli/AF09_HE.jpg","pos4","stimuli/AF09_HE.jpg","HE","AF09","3","5","10","8","stimuli/stars_10.png","16","[""DO"",""CC"",""AO"",""HE""]","[""WM09"",""HM10"",""WF06"",""AF09""]","[4,6,6,10]","[2,4,6,8]","","",""
"show-reward","14","58025","0.0-14.0","p355149","A368366DSK3KW6","3WPCIUYH1BELQU8EB2L3QVOOKYBTD4","3TMSXRD2X86MD0UQGGBK1XP3I7K1WX","emotion","match","uniform","","","","","","","","57637","59656","","","","","","","","","","","","10","","stimuli/stars_10.png","16","","","","","stimuli/AF09_HE.jpg","",""
"explore-choice","15","60245","0.0-15.0","p355149","A368366DSK3KW6","3WPCIUYH1BELQU8EB2L3QVOOKYBTD4","3TMSXRD2X86MD0UQGGBK1XP3I7K1WX","emotion","match","uniform","","","","","","","1714","59657","61371","[""stimuli/WF06_DO.jpg"",""stimuli/HM10_AO.jpg"",""stimuli/AF09_HE.jpg"",""stimuli/WM09_CC.jpg""]","stimuli/WF06_DO.jpg","stimuli/HM10_AO.jpg","stimuli/AF09_HE.jpg","stimuli/WM09_CC.jpg","pos3","stimuli/AF09_HE.jpg","HE","AF09","2","5","10","8","stimuli/stars_10.png","21","[""DO"",""AO"",""HE"",""CC""]","[""WF06"",""HM10"",""AF09"",""WM09""]","[1,7,10,3]","[2,6,8,4]","","",""
"show-reward","16","62264","0.0-16.0","p355149","A368366DSK3KW6","3WPCIUYH1BELQU8EB2L3QVOOKYBTD4","3TMSXRD2X86MD0UQGGBK1XP3I7K1WX","emotion","match","uniform","","","","","","","","61876","63894","","","","","","","","","","","","10","","stimuli/stars_10.png","21","","","","","stimuli/AF09_HE.jpg","",""
"explore-choice","17","65583","0.0-17.0","p355149","A368366DSK3KW6","3WPCIUYH1BELQU8EB2L3QVOOKYBTD4","3TMSXRD2X86MD0UQGGBK1XP3I7K1WX","emotion","match","uniform","","","","","","","2810","63896","66706","[""stimuli/AF09_HE.jpg"",""stimuli/HM10_DO.jpg"",""stimuli/WF06_CC.jpg"",""stimuli/WM09_AO.jpg""]","stimuli/AF09_HE.jpg","stimuli/HM10_DO.jpg","stimuli/WF06_CC.jpg","stimuli/WM09_AO.jpg","pos1","stimuli/AF09_HE.jpg","HE","AF09","0","4","8","8","stimuli/stars_8.png","25","[""HE"",""DO"",""CC"",""AO""]","[""AF09"",""HM10"",""WF06"",""WM09""]","[8,2,5,5]","[8,2,4,6]","","",""
"show-reward","18","67600","0.0-18.0","p355149","A368366DSK3KW6","3WPCIUYH1BELQU8EB2L3QVOOKYBTD4","3TMSXRD2X86MD0UQGGBK1XP3I7K1WX","emotion","match","uniform","","","","","","","","67214","69230","","","","","","","","","","","","8","","stimuli/stars_8.png","25","","","","","stimuli/AF09_HE.jpg","",""
"explore-choice","19","70101","0.0-19.0","p355149","A368366DSK3KW6","3WPCIUYH1BELQU8EB2L3QVOOKYBTD4","3TMSXRD2X86MD0UQGGBK1XP3I7K1WX","emotion","match","uniform","","","","","","","1987","69233","71220","[""stimuli/AF09_CC.jpg"",""stimuli/HM10_DO.jpg"",""stimuli/WM09_HE.jpg"",""stimuli/WF06_AO.jpg""]","stimuli/AF09_CC.jpg","stimuli/HM10_DO.jpg","stimuli/WM09_HE.jpg","stimuli/WF06_AO.jpg","pos4","stimuli/WF06_AO.jpg","AO","WF06","3","2.5","5","6","stimuli/stars_5.png","27.5","[""CC"",""DO"",""HE"",""AO""]","[""AF09"",""HM10"",""WM09"",""WF06""]","[4,0,8,5]","[4,2,8,6]","","",""
"show-reward","20","72118","0.0-20.0","p355149","A368366DSK3KW6","3WPCIUYH1BELQU8EB2L3QVOOKYBTD4","3TMSXRD2X86MD0UQGGBK1XP3I7K1WX","emotion","match","uniform","","","","","","","","71732","73746","","","","","","","","","","","","5","","stimuli/stars_5.png","27.5","","","","","stimuli/WF06_AO.jpg","",""
"explore-choice","21","74751","0.0-21.0","p355149","A368366DSK3KW6","3WPCIUYH1BELQU8EB2L3QVOOKYBTD4","3TMSXRD2X86MD0UQGGBK1XP3I7K1WX","emotion","match","uniform","","","","","","","2114","73754","75868","[""stimuli/AF09_CC.jpg"",""stimuli/HM10_HE.jpg"",""stimuli/WM09_AO.jpg"",""stimuli/WF06_DO.jpg""]","stimuli/AF09_CC.jpg","stimuli/HM10_HE.jpg","stimuli/WM09_AO.jpg","stimuli/WF06_DO.jpg","pos2","stimuli/HM10_HE.jpg","HE","HM10","1","3.5","7","8","stimuli/stars_7.png","31","[""CC"",""HE"",""AO"",""DO""]","[""AF09"",""HM10"",""WM09"",""WF06""]","[3,7,8,2]","[4,8,6,2]","","",""
"show-reward","22","76769","0.0-22.0","p355149","A368366DSK3KW6","3WPCIUYH1BELQU8EB2L3QVOOKYBTD4","3TMSXRD2X86MD0UQGGBK1XP3I7K1WX","emotion","match","uniform","","","","","","","","76383","78399","","","","","","","","","","","","7","","stimuli/stars_7.png","31","","","","","stimuli/HM10_HE.jpg","",""
"explore-choice","23","81237","0.0-23.0","p355149","A368366DSK3KW6","3WPCIUYH1BELQU8EB2L3QVOOKYBTD4","3TMSXRD2X86MD0UQGGBK1XP3I7K1WX","emotion","match","uniform","","","","","","","3959","78401","82360","[""stimuli/WF06_DO.jpg"",""stimuli/AF09_AO.jpg"",""stimuli/HM10_HE.jpg"",""stimuli/WM09_CC.jpg""]","stimuli/WF06_DO.jpg","stimuli/AF09_AO.jpg","stimuli/HM10_HE.jpg","stimuli/WM09_CC.jpg","pos4","stimuli/WM09_CC.jpg","CC","WM09","3","3","6","4","stimuli/stars_6.png","34","[""DO"",""AO"",""HE"",""CC""]","[""WF06"",""AF09"",""HM10"",""WM09""]","[1,7,6,6]","[2,6,8,4]","","",""
"show-reward","24","83251","0.0-24.0","p355149","A368366DSK3KW6","3WPCIUYH1BELQU8EB2L3QVOOKYBTD4","3TMSXRD2X86MD0UQGGBK1XP3I7K1WX","emotion","match","uniform","","","","","","","","82870","84881","","","","","","","","","","","","6","","stimuli/stars_6.png","34","","","","","stimuli/WM09_CC.jpg","",""
"explore-choice","25","86539","0.0-25.0","p355149","A368366DSK3KW6","3WPCIUYH1BELQU8EB2L3QVOOKYBTD4","3TMSXRD2X86MD0UQGGBK1XP3I7K1WX","emotion","match","uniform","","","","","","","2776","84882","87658","[""stimuli/HM10_HE.jpg"",""stimuli/AF09_AO.jpg"",""stimuli/WM09_DO.jpg"",""stimuli/WF06_CC.jpg""]","stimuli/HM10_HE.jpg","stimuli/AF09_AO.jpg","stimuli/WM09_DO.jpg","stimuli/WF06_CC.jpg","pos1","stimuli/HM10_HE.jpg","HE","HM10","0","3","6","8","stimuli/stars_6.png","37","[""HE"",""AO"",""DO"",""CC""]","[""HM10"",""AF09"",""WM09"",""WF06""]","[6,7,0,5]","[8,6,2,4]","","",""
"show-reward","26","88548","0.0-26.0","p355149","A368366DSK3KW6","3WPCIUYH1BELQU8EB2L3QVOOKYBTD4","3TMSXRD2X86MD0UQGGBK1XP3I7K1WX","emotion","match","uniform","","","","","","","","88171","90179","","","","","","","","","","","","6","","stimuli/stars_6.png","37","","","","","stimuli/HM10_HE.jpg","",""
"explore-choice","27","92129","0.0-27.0","p355149","A368366DSK3KW6","3WPCIUYH1BELQU8EB2L3QVOOKYBTD4","3TMSXRD2X86MD0UQGGBK1XP3I7K1WX","emotion","match","uniform","","","","","","","3071","90181","93252","[""stimuli/WM09_AO.jpg"",""stimuli/WF06_CC.jpg"",""stimuli/HM10_HE.jpg"",""stimuli/AF09_DO.jpg""]","stimuli/WM09_AO.jpg","stimuli/WF06_CC.jpg","stimuli/HM10_HE.jpg","stimuli/AF09_DO.jpg","pos4","stimuli/AF09_DO.jpg","DO","AF09","3","1.5","3","2","stimuli/stars_3.png","38.5","[""AO"",""CC"",""HE"",""DO""]","[""WM09"",""WF06"",""HM10"",""AF09""]","[5,3,8,3]","[6,4,8,2]","","",""
"show-reward","28","94145","0.0-28.0","p355149","A368366DSK3KW6","3WPCIUYH1BELQU8EB2L3QVOOKYBTD4","3TMSXRD2X86MD0UQGGBK1XP3I7K1WX","emotion","match","uniform","","","","","","","","93760","95775","","","","","","","","","","","","3","","stimuli/stars_3.png","38.5","","","","","stimuli/AF09_DO.jpg","",""
"explore-choice","29","95768","0.0-29.0","p355149","A368366DSK3KW6","3WPCIUYH1BELQU8EB2L3QVOOKYBTD4","3TMSXRD2X86MD0UQGGBK1XP3I7K1WX","emotion","match","uniform","","","","","","","1119","95778","96897","[""stimuli/HM10_HE.jpg"",""stimuli/AF09_CC.jpg"",""stimuli/WM09_DO.jpg"",""stimuli/WF06_AO.jpg""]","stimuli/HM10_HE.jpg","stimuli/AF09_CC.jpg","stimuli/WM09_DO.jpg","stimuli/WF06_AO.jpg","pos3","stimuli/WM09_DO.jpg","DO","WM09","2","0.5","1","2","stimuli/stars_1.png","39","[""HE"",""CC"",""DO"",""AO""]","[""HM10"",""AF09"",""WM09"",""WF06""]","[7,2,1,5]","[8,4,2,6]","","",""
"show-reward","30","97780","0.0-30.0","p355149","A368366DSK3KW6","3WPCIUYH1BELQU8EB2L3QVOOKYBTD4","3TMSXRD2X86MD0UQGGBK1XP3I7K1WX","emotion","match","uniform","","","","","","","","97400","99410","","","","","","","","","","","","1","","stimuli/stars_1.png","39","","","","","stimuli/WM09_DO.jpg","",""
"explore-choice","31","100492","0.0-31.0","p355149","A368366DSK3KW6","3WPCIUYH1BELQU8EB2L3QVOOKYBTD4","3TMSXRD2X86MD0UQGGBK1XP3I7K1WX","emotion","match","uniform","","","","","","","2195","99413","101608","[""stimuli/WF06_AO.jpg"",""stimuli/AF09_HE.jpg"",""stimuli/HM10_DO.jpg"",""stimuli/WM09_CC.jpg""]","stimuli/WF06_AO.jpg","stimuli/AF09_HE.jpg","stimuli/HM10_DO.jpg","stimuli/WM09_CC.jpg","pos2","stimuli/AF09_HE.jpg","HE","AF09","1","5","10","8","stimuli/stars_10.png","44","[""AO"",""HE"",""DO"",""CC""]","[""WF06"",""AF09"",""HM10"",""WM09""]","[5,10,0,4]","[6,8,2,4]","","",""
"show-reward","32","102510","0.0-32.0","p355149","A368366DSK3KW6","3WPCIUYH1BELQU8EB2L3QVOOKYBTD4","3TMSXRD2X86MD0UQGGBK1XP3I7K1WX","emotion","match","uniform","","","","","","","","102123","104141","","","","","","","","","","","","10","","stimuli/stars_10.png","44","","","","","stimuli/AF09_HE.jpg","",""
"explore-choice","33","106341","0.0-33.0","p355149","A368366DSK3KW6","3WPCIUYH1BELQU8EB2L3QVOOKYBTD4","3TMSXRD2X86MD0UQGGBK1XP3I7K1WX","emotion","match","uniform","","","","","","","3323","104141","107464","[""stimuli/WF06_CC.jpg"",""stimuli/WM09_HE.jpg"",""stimuli/HM10_DO.jpg"",""stimuli/AF09_AO.jpg""]","stimuli/WF06_CC.jpg","stimuli/WM09_HE.jpg","stimuli/HM10_DO.jpg","stimuli/AF09_AO.jpg","pos2","stimuli/WM09_HE.jpg","HE","WM09","1","4.5","9","8","stimuli/stars_9.png","48.5","[""CC"",""HE"",""DO"",""AO""]","[""WF06"",""WM09"",""HM10"",""AF09""]","[4,9,1,8]","[4,8,2,6]","","",""
"show-reward","34","108349","0.0-34.0","p355149","A368366DSK3KW6","3WPCIUYH1BELQU8EB2L3QVOOKYBTD4","3TMSXRD2X86MD0UQGGBK1XP3I7K1WX","emotion","match","uniform","","","","","","","","107972","109980","","","","","","","","","","","","9","","stimuli/stars_9.png","48.5","","","","","stimuli/WM09_HE.jpg","",""
"explore-choice","35","110388","0.0-35.0","p355149","A368366DSK3KW6","3WPCIUYH1BELQU8EB2L3QVOOKYBTD4","3TMSXRD2X86MD0UQGGBK1XP3I7K1WX","emotion","match","uniform","","","","","","","1525","109981","111506","[""stimuli/WF06_HE.jpg"",""stimuli/WM09_DO.jpg"",""stimuli/AF09_AO.jpg"",""stimuli/HM10_CC.jpg""]","stimuli/WF06_HE.jpg","stimuli/WM09_DO.jpg","stimuli/AF09_AO.jpg","stimuli/HM10_CC.jpg","pos1","stimuli/WF06_HE.jpg","HE","WF06","0","4.5","9","8","stimuli/stars_9.png","53","[""HE"",""DO"",""AO"",""CC""]","[""WF06"",""WM09"",""AF09"",""HM10""]","[9,1,8,6]","[8,2,6,4]","","",""
"show-reward","36","112394","0.0-36.0","p355149","A368366DSK3KW6","3WPCIUYH1BELQU8EB2L3QVOOKYBTD4","3TMSXRD2X86MD0UQGGBK1XP3I7K1WX","emotion","match","uniform","","","","","","","","112020","114024","","","","","","","","","","","","9","","stimuli/stars_9.png","53","","","","","stimuli/WF06_HE.jpg","",""
"explore-choice","37","114466","0.0-37.0","p355149","A368366DSK3KW6","3WPCIUYH1BELQU8EB2L3QVOOKYBTD4","3TMSXRD2X86MD0UQGGBK1XP3I7K1WX","emotion","match","uniform","","","","","","","1561","114027","115588","[""stimuli/WM09_AO.jpg"",""stimuli/WF06_DO.jpg"",""stimuli/AF09_HE.jpg"",""stimuli/HM10_CC.jpg""]","stimuli/WM09_AO.jpg","stimuli/WF06_DO.jpg","stimuli/AF09_HE.jpg","stimuli/HM10_CC.jpg","pos3","stimuli/AF09_HE.jpg","HE","AF09","2","3","6","8","stimuli/stars_6.png","56","[""AO"",""DO"",""HE"",""CC""]","[""WM09"",""WF06"",""AF09"",""HM10""]","[7,4,6,4]","[6,2,8,4]","","",""
"show-reward","38","116484","0.0-38.0","p355149","A368366DSK3KW6","3WPCIUYH1BELQU8EB2L3QVOOKYBTD4","3TMSXRD2X86MD0UQGGBK1XP3I7K1WX","emotion","match","uniform","","","","","","","","116097","118115","","","","","","","","","","","","6","","stimuli/stars_6.png","56","","","","","stimuli/AF09_HE.jpg","",""
"explore-choice","39","118491","0.0-39.0","p355149","A368366DSK3KW6","3WPCIUYH1BELQU8EB2L3QVOOKYBTD4","3TMSXRD2X86MD0UQGGBK1XP3I7K1WX","emotion","match","uniform","","","","","","","1491","118115","119606","[""stimuli/HM10_DO.jpg"",""stimuli/AF09_CC.jpg"",""stimuli/WM09_AO.jpg"",""stimuli/WF06_HE.jpg""]","stimuli/HM10_DO.jpg","stimuli/AF09_CC.jpg","stimuli/WM09_AO.jpg","stimuli/WF06_HE.jpg","pos4","stimuli/WF06_HE.jpg","HE","WF06","3","4.5","9","8","stimuli/stars_9.png","60.5","[""DO"",""CC"",""AO"",""HE""]","[""HM10"",""AF09"",""WM09"",""WF06""]","[2,3,5,9]","[2,4,6,8]","","",""
"show-reward","40","120501","0.0-40.0","p355149","A368366DSK3KW6","3WPCIUYH1BELQU8EB2L3QVOOKYBTD4","3TMSXRD2X86MD0UQGGBK1XP3I7K1WX","emotion","match","uniform","","","","","","","","120122","122131","","","","","","","","","","","","9","","stimuli/stars_9.png","60.5","","","","","stimuli/WF06_HE.jpg","",""
"explore-choice","41","124896","0.0-41.0","p355149","A368366DSK3KW6","3WPCIUYH1BELQU8EB2L3QVOOKYBTD4","3TMSXRD2X86MD0UQGGBK1XP3I7K1WX","emotion","match","uniform","","","","","","","3881","122132","126013","[""stimuli/WM09_DO.jpg"",""stimuli/HM10_AO.jpg"",""stimuli/AF09_CC.jpg"",""stimuli/WF06_HE.jpg""]","stimuli/WM09_DO.jpg","stimuli/HM10_AO.jpg","stimuli/AF09_CC.jpg","stimuli/WF06_HE.jpg","pos4","stimuli/WF06_HE.jpg","HE","WF06","3","4.5","9","8","stimuli/stars_9.png","65","[""DO"",""AO"",""CC"",""HE""]","[""WM09"",""HM10"",""AF09"",""WF06""]","[3,8,6,9]","[2,6,4,8]","","",""
"show-reward","42","126907","0.0-42.0","p355149","A368366DSK3KW6","3WPCIUYH1BELQU8EB2L3QVOOKYBTD4","3TMSXRD2X86MD0UQGGBK1XP3I7K1WX","emotion","match","uniform","","","","","","","","126526","128538","","","","","","","","","","","","9","","stimuli/stars_9.png","65","","","","","stimuli/WF06_HE.jpg","",""
"explore-choice","43","129268","0.0-43.0","p355149","A368366DSK3KW6","3WPCIUYH1BELQU8EB2L3QVOOKYBTD4","3TMSXRD2X86MD0UQGGBK1XP3I7K1WX","emotion","match","uniform","","","","","","","1850","128539","130389","[""stimuli/AF09_DO.jpg"",""stimuli/HM10_CC.jpg"",""stimuli/WF06_AO.jpg"",""stimuli/WM09_HE.jpg""]","stimuli/AF09_DO.jpg","stimuli/HM10_CC.jpg","stimuli/WF06_AO.jpg","stimuli/WM09_HE.jpg","pos4","stimuli/WM09_HE.jpg","HE","WM09","3","3","6","8","stimuli/stars_6.png","68","[""DO"",""CC"",""AO"",""HE""]","[""AF09"",""HM10"",""WF06"",""WM09""]","[3,6,7,6]","[2,4,6,8]","","",""
"show-reward","44","131286","0.0-44.0","p355149","A368366DSK3KW6","3WPCIUYH1BELQU8EB2L3QVOOKYBTD4","3TMSXRD2X86MD0UQGGBK1XP3I7K1WX","emotion","match","uniform","","","","","","","","130900","132916","","","","","","","","","","","","6","","stimuli/stars_6.png","68","","","","","stimuli/WM09_HE.jpg","",""
"explore-choice","45","133563","0.0-45.0","p355149","A368366DSK3KW6","3WPCIUYH1BELQU8EB2L3QVOOKYBTD4","3TMSXRD2X86MD0UQGGBK1XP3I7K1WX","emotion","match","uniform","","","","","","","1768","132918","134686","[""stimuli/WM09_HE.jpg"",""stimuli/AF09_AO.jpg"",""stimuli/WF06_DO.jpg"",""stimuli/HM10_CC.jpg""]","stimuli/WM09_HE.jpg","stimuli/AF09_AO.jpg","stimuli/WF06_DO.jpg","stimuli/HM10_CC.jpg","pos1","stimuli/WM09_HE.jpg","HE","WM09","0","4.5","9","8","stimuli/stars_9.png","72.5","[""HE"",""AO"",""DO"",""CC""]","[""WM09"",""AF09"",""WF06"",""HM10""]","[9,7,0,6]","[8,6,2,4]","","",""
"show-reward","46","135583","0.0-46.0","p355149","A368366DSK3KW6","3WPCIUYH1BELQU8EB2L3QVOOKYBTD4","3TMSXRD2X86MD0UQGGBK1XP3I7K1WX","emotion","match","uniform","","","","","","","","135196","137212","","","","","","","","","","","","9","","stimuli/stars_9.png","72.5","","","","","stimuli/WM09_HE.jpg","",""
"explore-choice","47","137558","0.0-47.0","p355149","A368366DSK3KW6","3WPCIUYH1BELQU8EB2L3QVOOKYBTD4","3TMSXRD2X86MD0UQGGBK1XP3I7K1WX","emotion","match","uniform","","","","","","","1457","137216","138673","[""stimuli/AF09_AO.jpg"",""stimuli/WM09_CC.jpg"",""stimuli/WF06_HE.jpg"",""stimuli/HM10_DO.jpg""]","stimuli/AF09_AO.jpg","stimuli/WM09_CC.jpg","stimuli/WF06_HE.jpg","stimuli/HM10_DO.jpg","pos3","stimuli/WF06_HE.jpg","HE","WF06","2","3.5","7","8","stimuli/stars_7.png","76","[""AO"",""CC"",""HE"",""DO""]","[""AF09"",""WM09"",""WF06"",""HM10""]","[7,2,7,0]","[6,4,8,2]","","",""
"show-reward","48","139577","0.0-48.0","p355149","A368366DSK3KW6","3WPCIUYH1BELQU8EB2L3QVOOKYBTD4","3TMSXRD2X86MD0UQGGBK1XP3I7K1WX","emotion","match","uniform","","","","","","","","139189","141207","","","","","","","","","","","","7","","stimuli/stars_7.png","76","","","","","stimuli/WF06_HE.jpg","",""
"explore-choice","49","141816","0.0-49.0","p355149","A368366DSK3KW6","3WPCIUYH1BELQU8EB2L3QVOOKYBTD4","3TMSXRD2X86MD0UQGGBK1XP3I7K1WX","emotion","match","uniform","","","","","","","1725","141208","142933","[""stimuli/WM09_HE.jpg"",""stimuli/WF06_CC.jpg"",""stimuli/HM10_AO.jpg"",""stimuli/AF09_DO.jpg""]","stimuli/WM09_HE.jpg","stimuli/WF06_CC.jpg","stimuli/HM10_AO.jpg","stimuli/AF09_DO.jpg","pos1","stimuli/WM09_HE.jpg","HE","WM09","0","4.5","9","8","stimuli/stars_9.png","80.5","[""HE"",""CC"",""AO"",""DO""]","[""WM09"",""WF06"",""HM10"",""AF09""]","[9,5,4,2]","[8,4,6,2]","","",""
"show-reward","50","143822","0.0-50.0","p355149","A368366DSK3KW6","3WPCIUYH1BELQU8EB2L3QVOOKYBTD4","3TMSXRD2X86MD0UQGGBK1XP3I7K1WX","emotion","match","uniform","","","","","","","","143448","145452","","","","","","","","","","","","9","","stimuli/stars_9.png","80.5","","","","","stimuli/WM09_HE.jpg","",""
"explore-choice","51","145615","0.0-51.0","p355149","A368366DSK3KW6","3WPCIUYH1BELQU8EB2L3QVOOKYBTD4","3TMSXRD2X86MD0UQGGBK1XP3I7K1WX","emotion","match","uniform","","","","","","","1282","145453","146735","[""stimuli/HM10_AO.jpg"",""stimuli/WM09_CC.jpg"",""stimuli/WF06_HE.jpg"",""stimuli/AF09_DO.jpg""]","stimuli/HM10_AO.jpg","stimuli/WM09_CC.jpg","stimuli/WF06_HE.jpg","stimuli/AF09_DO.jpg","pos3","stimuli/WF06_HE.jpg","HE","WF06","2","3","6","8","stimuli/stars_6.png","83.5","[""AO"",""CC"",""HE"",""DO""]","[""HM10"",""WM09"",""WF06"",""AF09""]","[5,5,6,1]","[6,4,8,2]","","",""
"show-reward","52","147622","0.0-52.0","p355149","A368366DSK3KW6","3WPCIUYH1BELQU8EB2L3QVOOKYBTD4","3TMSXRD2X86MD0UQGGBK1XP3I7K1WX","emotion","match","uniform","","","","","","","","147247","149252","","","","","","","","","","","","6","","stimuli/stars_6.png","83.5","","","","","stimuli/WF06_HE.jpg","",""
"explore-choice","53","151912","0.0-53.0","p355149","A368366DSK3KW6","3WPCIUYH1BELQU8EB2L3QVOOKYBTD4","3TMSXRD2X86MD0UQGGBK1XP3I7K1WX","emotion","match","uniform","","","","","","","3781","149254","153035","[""stimuli/WM09_HE.jpg"",""stimuli/AF09_CC.jpg"",""stimuli/WF06_DO.jpg"",""stimuli/HM10_AO.jpg""]","stimuli/WM09_HE.jpg","stimuli/AF09_CC.jpg","stimuli/WF06_DO.jpg","stimuli/HM10_AO.jpg","pos1","stimuli/WM09_HE.jpg","HE","WM09","0","3","6","8","stimuli/stars_6.png","86.5","[""HE"",""CC"",""DO"",""AO""]","[""WM09"",""AF09"",""WF06"",""HM10""]","[6,3,4,7]","[8,4,2,6]","","",""
"show-reward","54","153924","0.0-54.0","p355149","A368366DSK3KW6","3WPCIUYH1BELQU8EB2L3QVOOKYBTD4","3TMSXRD2X86MD0UQGGBK1XP3I7K1WX","emotion","match","uniform","","","","","","","","153544","155554","","","","","","","","","","","","6","","stimuli/stars_6.png","86.5","","","","","stimuli/WM09_HE.jpg","",""
"explore-choice","55","156317","0.0-55.0","p355149","A368366DSK3KW6","3WPCIUYH1BELQU8EB2L3QVOOKYBTD4","3TMSXRD2X86MD0UQGGBK1XP3I7K1WX","emotion","match","uniform","","","","","","","1891","155555","157446","[""stimuli/WM09_HE.jpg"",""stimuli/AF09_AO.jpg"",""stimuli/WF06_DO.jpg"",""stimuli/HM10_CC.jpg""]","stimuli/WM09_HE.jpg","stimuli/AF09_AO.jpg","stimuli/WF06_DO.jpg","stimuli/HM10_CC.jpg","pos1","stimuli/WM09_HE.jpg","HE","WM09","0","4.5","9","8","stimuli/stars_9.png","91","[""HE"",""AO"",""DO"",""CC""]","[""WM09"",""AF09"",""WF06"",""HM10""]","[9,7,0,6]","[8,6,2,4]","","",""
"show-reward","56","158327","0.0-56.0","p355149","A368366DSK3KW6","3WPCIUYH1BELQU8EB2L3QVOOKYBTD4","3TMSXRD2X86MD0UQGGBK1XP3I7K1WX","emotion","match","uniform","","","","","","","","157948","159957","","","","","","","","","","","","9","","stimuli/stars_9.png","91","","","","","stimuli/WM09_HE.jpg","",""
"explore-choice","57","161365","0.0-57.0","p355149","A368366DSK3KW6","3WPCIUYH1BELQU8EB2L3QVOOKYBTD4","3TMSXRD2X86MD0UQGGBK1XP3I7K1WX","emotion","match","uniform","","","","","","","2534","159959","162493","[""stimuli/HM10_DO.jpg"",""stimuli/WF06_CC.jpg"",""stimuli/AF09_HE.jpg"",""stimuli/WM09_AO.jpg""]","stimuli/HM10_DO.jpg","stimuli/WF06_CC.jpg","stimuli/AF09_HE.jpg","stimuli/WM09_AO.jpg","pos3","stimuli/AF09_HE.jpg","HE","AF09","2","4","8","8","stimuli/stars_8.png","95","[""DO"",""CC"",""HE"",""AO""]","[""HM10"",""WF06"",""AF09"",""WM09""]","[2,5,8,5]","[2,4,8,6]","","",""
"show-reward","58","163377","0.0-58.0","p355149","A368366DSK3KW6","3WPCIUYH1BELQU8EB2L3QVOOKYBTD4","3TMSXRD2X86MD0UQGGBK1XP3I7K1WX","emotion","match","uniform","","","","","","","","162996","165008","","","","","","","","","","","","8","","stimuli/stars_8.png","95","","","","","stimuli/AF09_HE.jpg","",""
"explore-choice","59","164998","0.0-59.0","p355149","A368366DSK3KW6","3WPCIUYH1BELQU8EB2L3QVOOKYBTD4","3TMSXRD2X86MD0UQGGBK1XP3I7K1WX","emotion","match","uniform","","","","","","","1114","165009","166123","[""stimuli/AF09_CC.jpg"",""stimuli/HM10_AO.jpg"",""stimuli/WM09_DO.jpg"",""stimuli/WF06_HE.jpg""]","stimuli/AF09_CC.jpg","stimuli/HM10_AO.jpg","stimuli/WM09_DO.jpg","stimuli/WF06_HE.jpg","pos4","stimuli/WF06_HE.jpg","HE","WF06","3","4.5","9","8","stimuli/stars_9.png","99.5","[""CC"",""AO"",""DO"",""HE""]","[""AF09"",""HM10"",""WM09"",""WF06""]","[6,8,3,9]","[4,6,2,8]","","",""
"show-reward","60","167005","0.0-60.0","p355149","A368366DSK3KW6","3WPCIUYH1BELQU8EB2L3QVOOKYBTD4","3TMSXRD2X86MD0UQGGBK1XP3I7K1WX","emotion","match","uniform","","","","","","","","166630","168636","","","","","","","","","","","","9","","stimuli/stars_9.png","99.5","","","","","stimuli/WF06_HE.jpg","",""
"explore-choice","61","169100","0.0-61.0","p355149","A368366DSK3KW6","3WPCIUYH1BELQU8EB2L3QVOOKYBTD4","3TMSXRD2X86MD0UQGGBK1XP3I7K1WX","emotion","match","uniform","","","","","","","1589","168636","170225","[""stimuli/WF06_CC.jpg"",""stimuli/HM10_AO.jpg"",""stimuli/AF09_DO.jpg"",""stimuli/WM09_HE.jpg""]","stimuli/WF06_CC.jpg","stimuli/HM10_AO.jpg","stimuli/AF09_DO.jpg","stimuli/WM09_HE.jpg","pos4","stimuli/WM09_HE.jpg","HE","WM09","3","4.5","9","8","stimuli/stars_9.png","104","[""CC"",""AO"",""DO"",""HE""]","[""WF06"",""HM10"",""AF09"",""WM09""]","[5,4,2,9]","[4,6,2,8]","","",""
"show-reward","62","171112","0.0-62.0","p355149","A368366DSK3KW6","3WPCIUYH1BELQU8EB2L3QVOOKYBTD4","3TMSXRD2X86MD0UQGGBK1XP3I7K1WX","emotion","match","uniform","","","","","","","","170731","172742","","","","","","","","","","","","9","","stimuli/stars_9.png","104","","","","","stimuli/WM09_HE.jpg","",""
"explore-choice","63","173414","0.0-63.0","p355149","A368366DSK3KW6","3WPCIUYH1BELQU8EB2L3QVOOKYBTD4","3TMSXRD2X86MD0UQGGBK1XP3I7K1WX","emotion","match","uniform","","","","","","","1795","172744","174539","[""stimuli/WM09_HE.jpg"",""stimuli/HM10_AO.jpg"",""stimuli/WF06_DO.jpg"",""stimuli/AF09_CC.jpg""]","stimuli/WM09_HE.jpg","stimuli/HM10_AO.jpg","stimuli/WF06_DO.jpg","stimuli/AF09_CC.jpg","pos1","stimuli/WM09_HE.jpg","HE","WM09","0","3","6","8","stimuli/stars_6.png","107","[""HE"",""AO"",""DO"",""CC""]","[""WM09"",""HM10"",""WF06"",""AF09""]","[6,7,4,3]","[8,6,2,4]","","",""
"show-reward","64","175427","0.0-64.0","p355149","A368366DSK3KW6","3WPCIUYH1BELQU8EB2L3QVOOKYBTD4","3TMSXRD2X86MD0UQGGBK1XP3I7K1WX","emotion","match","uniform","","","","","","","","175045","177056","","","","","","","","","","","","6","","stimuli/stars_6.png","107","","","","","stimuli/WM09_HE.jpg","",""
"explore-choice","65","177790","0.0-65.0","p355149","A368366DSK3KW6","3WPCIUYH1BELQU8EB2L3QVOOKYBTD4","3TMSXRD2X86MD0UQGGBK1XP3I7K1WX","emotion","match","uniform","","","","","","","1856","177059","178915","[""stimuli/HM10_CC.jpg"",""stimuli/AF09_HE.jpg"",""stimuli/WF06_DO.jpg"",""stimuli/WM09_AO.jpg""]","stimuli/HM10_CC.jpg","stimuli/AF09_HE.jpg","stimuli/WF06_DO.jpg","stimuli/WM09_AO.jpg","pos2","stimuli/AF09_HE.jpg","HE","AF09","1","3","6","8","stimuli/stars_6.png","110","[""CC"",""HE"",""DO"",""AO""]","[""HM10"",""AF09"",""WF06"",""WM09""]","[4,6,4,7]","[4,8,2,6]","","",""
"show-reward","66","179809","0.0-66.0","p355149","A368366DSK3KW6","3WPCIUYH1BELQU8EB2L3QVOOKYBTD4","3TMSXRD2X86MD0UQGGBK1XP3I7K1WX","emotion","match","uniform","","","","","","","","179421","181439","","","","","","","","","","","","6","","stimuli/stars_6.png","110","","","","","stimuli/AF09_HE.jpg","",""
"explore-choice","67","182149","0.0-67.0","p355149","A368366DSK3KW6","3WPCIUYH1BELQU8EB2L3QVOOKYBTD4","3TMSXRD2X86MD0UQGGBK1XP3I7K1WX","emotion","match","uniform","","","","","","","1827","181440","183267","[""stimuli/WF06_CC.jpg"",""stimuli/AF09_AO.jpg"",""stimuli/WM09_HE.jpg"",""stimuli/HM10_DO.jpg""]","stimuli/WF06_CC.jpg","stimuli/AF09_AO.jpg","stimuli/WM09_HE.jpg","stimuli/HM10_DO.jpg","pos3","stimuli/WM09_HE.jpg","HE","WM09","2","4.5","9","8","stimuli/stars_9.png","114.5","[""CC"",""AO"",""HE"",""DO""]","[""WF06"",""AF09"",""WM09"",""HM10""]","[4,8,9,1]","[4,6,8,2]","","",""
"show-reward","68","184158","0.0-68.0","p355149","A368366DSK3KW6","3WPCIUYH1BELQU8EB2L3QVOOKYBTD4","3TMSXRD2X86MD0UQGGBK1XP3I7K1WX","emotion","match","uniform","","","","","","","","183781","185788","","","","","","","","","","","","9","","stimuli/stars_9.png","114.5","","","","","stimuli/WM09_HE.jpg","",""
"explore-choice","69","188611","0.0-69.0","p355149","A368366DSK3KW6","3WPCIUYH1BELQU8EB2L3QVOOKYBTD4","3TMSXRD2X86MD0UQGGBK1XP3I7K1WX","emotion","match","uniform","","","","","","","3937","185791","189728","[""stimuli/WF06_DO.jpg"",""stimuli/WM09_CC.jpg"",""stimuli/AF09_AO.jpg"",""stimuli/HM10_HE.jpg""]","stimuli/WF06_DO.jpg","stimuli/WM09_CC.jpg","stimuli/AF09_AO.jpg","stimuli/HM10_HE.jpg","pos2","stimuli/WM09_CC.jpg","CC","WM09","1","3","6","4","stimuli/stars_6.png","117.5","[""DO"",""CC"",""AO"",""HE""]","[""WF06"",""WM09"",""AF09"",""HM10""]","[1,6,7,6]","[2,4,6,8]","","",""
"show-reward","70","190617","0.0-70.0","p355149","A368366DSK3KW6","3WPCIUYH1BELQU8EB2L3QVOOKYBTD4","3TMSXRD2X86MD0UQGGBK1XP3I7K1WX","emotion","match","uniform","","","","","","","","190243","192247","","","","","","","","","","","","6","","stimuli/stars_6.png","117.5","","","","","stimuli/WM09_CC.jpg","",""
"explore-choice","71","193870","0.0-71.0","p355149","A368366DSK3KW6","3WPCIUYH1BELQU8EB2L3QVOOKYBTD4","3TMSXRD2X86MD0UQGGBK1XP3I7K1WX","emotion","match","uniform","","","","","","","2740","192249","194989","[""stimuli/HM10_HE.jpg"",""stimuli/WM09_AO.jpg"",""stimuli/WF06_CC.jpg"",""stimuli/AF09_DO.jpg""]","stimuli/HM10_HE.jpg","stimuli/WM09_AO.jpg","stimuli/WF06_CC.jpg","stimuli/AF09_DO.jpg","pos3","stimuli/WF06_CC.jpg","CC","WF06","2","1.5","3","4","stimuli/stars_3.png","119","[""HE"",""AO"",""CC"",""DO""]","[""HM10"",""WM09"",""WF06"",""AF09""]","[8,5,3,3]","[8,6,4,2]","","",""
"show-reward","72","195877","0.0-72.0","p355149","A368366DSK3KW6","3WPCIUYH1BELQU8EB2L3QVOOKYBTD4","3TMSXRD2X86MD0UQGGBK1XP3I7K1WX","emotion","match","uniform","","","","","","","","195501","197508","","","","","","","","","","","","3","","stimuli/stars_3.png","119","","","","","stimuli/WF06_CC.jpg","",""
"explore-choice","73","198213","0.0-73.0","p355149","A368366DSK3KW6","3WPCIUYH1BELQU8EB2L3QVOOKYBTD4","3TMSXRD2X86MD0UQGGBK1XP3I7K1WX","emotion","match","uniform","","","","","","","1824","197509","199333","[""stimuli/AF09_CC.jpg"",""stimuli/HM10_DO.jpg"",""stimuli/WM09_AO.jpg"",""stimuli/WF06_HE.jpg""]","stimuli/AF09_CC.jpg","stimuli/HM10_DO.jpg","stimuli/WM09_AO.jpg","stimuli/WF06_HE.jpg","pos4","stimuli/WF06_HE.jpg","HE","WF06","3","4.5","9","8","stimuli/stars_9.png","123.5","[""CC"",""DO"",""AO"",""HE""]","[""AF09"",""HM10"",""WM09"",""WF06""]","[3,2,5,9]","[4,2,6,8]","","",""
"show-reward","74","200233","0.0-74.0","p355149","A368366DSK3KW6","3WPCIUYH1BELQU8EB2L3QVOOKYBTD4","3TMSXRD2X86MD0UQGGBK1XP3I7K1WX","emotion","match","uniform","","","","","","","","199845","201863","","","","","","","","","","","","9","","stimuli/stars_9.png","123.5","","","","","stimuli/WF06_HE.jpg","",""
"explore-choice","75","202738","0.0-75.0","p355149","A368366DSK3KW6","3WPCIUYH1BELQU8EB2L3QVOOKYBTD4","3TMSXRD2X86MD0UQGGBK1XP3I7K1WX","emotion","match","uniform","","","","","","","1992","201865","203857","[""stimuli/WF06_AO.jpg"",""stimuli/WM09_HE.jpg"",""stimuli/HM10_DO.jpg"",""stimuli/AF09_CC.jpg""]","stimuli/WF06_AO.jpg","stimuli/WM09_HE.jpg","stimuli/HM10_DO.jpg","stimuli/AF09_CC.jpg","pos2","stimuli/WM09_HE.jpg","HE","WM09","1","4","8","8","stimuli/stars_8.png","127.5","[""AO"",""HE"",""DO"",""CC""]","[""WF06"",""WM09"",""HM10"",""AF09""]","[5,8,0,4]","[6,8,2,4]","","",""
"show-reward","76","204744","0.0-76.0","p355149","A368366DSK3KW6","3WPCIUYH1BELQU8EB2L3QVOOKYBTD4","3TMSXRD2X86MD0UQGGBK1XP3I7K1WX","emotion","match","uniform","","","","","","","","204370","206375","","","","","","","","","","","","8","","stimuli/stars_8.png","127.5","","","","","stimuli/WM09_HE.jpg","",""
"explore-choice","77","208453","0.0-77.0","p355149","A368366DSK3KW6","3WPCIUYH1BELQU8EB2L3QVOOKYBTD4","3TMSXRD2X86MD0UQGGBK1XP3I7K1WX","emotion","match","uniform","","","","","","","3190","206376","209566","[""stimuli/WF06_DO.jpg"",""stimuli/WM09_CC.jpg"",""stimuli/HM10_AO.jpg"",""stimuli/AF09_HE.jpg""]","stimuli/WF06_DO.jpg","stimuli/WM09_CC.jpg","stimuli/HM10_AO.jpg","stimuli/AF09_HE.jpg","pos4","stimuli/AF09_HE.jpg","HE","AF09","3","5","10","8","stimuli/stars_10.png","132.5","[""DO"",""CC"",""AO"",""HE""]","[""WF06"",""WM09"",""HM10"",""AF09""]","[1,3,7,10]","[2,4,6,8]","","",""
"show-reward","78","210470","0.0-78.0","p355149","A368366DSK3KW6","3WPCIUYH1BELQU8EB2L3QVOOKYBTD4","3TMSXRD2X86MD0UQGGBK1XP3I7K1WX","emotion","match","uniform","","","","","","","","210085","212100","","","","","","","","","","","","10","","stimuli/stars_10.png","132.5","","","","","stimuli/AF09_HE.jpg","",""
"explore-choice","79","212986","0.0-79.0","p355149","A368366DSK3KW6","3WPCIUYH1BELQU8EB2L3QVOOKYBTD4","3TMSXRD2X86MD0UQGGBK1XP3I7K1WX","emotion","match","uniform","","","","","","","2011","212101","214112","[""stimuli/WF06_DO.jpg"",""stimuli/AF09_CC.jpg"",""stimuli/HM10_HE.jpg"",""stimuli/WM09_AO.jpg""]","stimuli/WF06_DO.jpg","stimuli/AF09_CC.jpg","stimuli/HM10_HE.jpg","stimuli/WM09_AO.jpg","pos3","stimuli/HM10_HE.jpg","HE","HM10","2","3.5","7","8","stimuli/stars_7.png","136","[""DO"",""CC"",""HE"",""AO""]","[""WF06"",""AF09"",""HM10"",""WM09""]","[2,3,7,8]","[2,4,8,6]","","",""
"show-reward","80","214993","0.0-80.0","p355149","A368366DSK3KW6","3WPCIUYH1BELQU8EB2L3QVOOKYBTD4","3TMSXRD2X86MD0UQGGBK1XP3I7K1WX","emotion","match","uniform","","","","","","","","214619","216624","","","","","","","","","","","","7","","stimuli/stars_7.png","136","","","","","stimuli/HM10_HE.jpg","",""
"explore-choice","81","216827","0.0-81.0","p355149","A368366DSK3KW6","3WPCIUYH1BELQU8EB2L3QVOOKYBTD4","3TMSXRD2X86MD0UQGGBK1XP3I7K1WX","emotion","match","uniform","","","","","","","1325","216625","217950","[""stimuli/WM09_CC.jpg"",""stimuli/HM10_DO.jpg"",""stimuli/WF06_AO.jpg"",""stimuli/AF09_HE.jpg""]","stimuli/WM09_CC.jpg","stimuli/HM10_DO.jpg","stimuli/WF06_AO.jpg","stimuli/AF09_HE.jpg","pos4","stimuli/AF09_HE.jpg","HE","AF09","3","5","10","8","stimuli/stars_10.png","141","[""CC"",""DO"",""AO"",""HE""]","[""WM09"",""HM10"",""WF06"",""AF09""]","[4,0,5,10]","[4,2,6,8]","","",""
"show-reward","82","218836","0.0-82.0","p355149","A368366DSK3KW6","3WPCIUYH1BELQU8EB2L3QVOOKYBTD4","3TMSXRD2X86MD0UQGGBK1XP3I7K1WX","emotion","match","uniform","","","","","","","","218459","220466","","","","","","","","","","","","10","","stimuli/stars_10.png","141","","","","","stimuli/AF09_HE.jpg","",""
"explore-choice","83","220661","0.0-83.0","p355149","A368366DSK3KW6","3WPCIUYH1BELQU8EB2L3QVOOKYBTD4","3TMSXRD2X86MD0UQGGBK1XP3I7K1WX","emotion","match","uniform","","","","","","","1318","220467","221785","[""stimuli/WF06_AO.jpg"",""stimuli/AF09_DO.jpg"",""stimuli/WM09_CC.jpg"",""stimuli/HM10_HE.jpg""]","stimuli/WF06_AO.jpg","stimuli/AF09_DO.jpg","stimuli/WM09_CC.jpg","stimuli/HM10_HE.jpg","pos4","stimuli/HM10_HE.jpg","HE","HM10","3","3.5","7","8","stimuli/stars_7.png","144.5","[""AO"",""DO"",""CC"",""HE""]","[""WF06"",""AF09"",""WM09"",""HM10""]","[7,4,2,7]","[6,2,4,8]","","",""
"show-reward","84","222669","0.0-84.0","p355149","A368366DSK3KW6","3WPCIUYH1BELQU8EB2L3QVOOKYBTD4","3TMSXRD2X86MD0UQGGBK1XP3I7K1WX","emotion","match","uniform","","","","","","","","222292","224300","","","","","","","","","","","","7","","stimuli/stars_7.png","144.5","","","","","stimuli/HM10_HE.jpg","",""
"explore-choice","85","224150","0.0-85.0","p355149","A368366DSK3KW6","3WPCIUYH1BELQU8EB2L3QVOOKYBTD4","3TMSXRD2X86MD0UQGGBK1XP3I7K1WX","emotion","match","uniform","","","","","","","967","224300","225267","[""stimuli/WF06_HE.jpg"",""stimuli/AF09_AO.jpg"",""stimuli/WM09_DO.jpg"",""stimuli/HM10_CC.jpg""]","stimuli/WF06_HE.jpg","stimuli/AF09_AO.jpg","stimuli/WM09_DO.jpg","stimuli/HM10_CC.jpg","pos1","stimuli/WF06_HE.jpg","HE","WF06","0","4.5","9","8","stimuli/stars_9.png","149","[""HE"",""AO"",""DO"",""CC""]","[""WF06"",""AF09"",""WM09"",""HM10""]","[9,8,1,6]","[8,6,2,4]","","",""
"show-reward","86","226170","0.0-86.0","p355149","A368366DSK3KW6","3WPCIUYH1BELQU8EB2L3QVOOKYBTD4","3TMSXRD2X86MD0UQGGBK1XP3I7K1WX","emotion","match","uniform","","","","","","","","225783","227800","","","","","","","","","","","","9","","stimuli/stars_9.png","149","","","","","stimuli/WF06_HE.jpg","",""
"explore-choice","87","227652","0.0-87.0","p355149","A368366DSK3KW6","3WPCIUYH1BELQU8EB2L3QVOOKYBTD4","3TMSXRD2X86MD0UQGGBK1XP3I7K1WX","emotion","match","uniform","","","","","","","972","227802","228774","[""stimuli/WM09_CC.jpg"",""stimuli/WF06_HE.jpg"",""stimuli/AF09_AO.jpg"",""stimuli/HM10_DO.jpg""]","stimuli/WM09_CC.jpg","stimuli/WF06_HE.jpg","stimuli/AF09_AO.jpg","stimuli/HM10_DO.jpg","pos2","stimuli/WF06_HE.jpg","HE","WF06","1","3.5","7","8","stimuli/stars_7.png","152.5","[""CC"",""HE"",""AO"",""DO""]","[""WM09"",""WF06"",""AF09"",""HM10""]","[2,7,7,0]","[4,8,6,2]","","",""
"show-reward","88","229660","0.0-88.0","p355149","A368366DSK3KW6","3WPCIUYH1BELQU8EB2L3QVOOKYBTD4","3TMSXRD2X86MD0UQGGBK1XP3I7K1WX","emotion","match","uniform","","","","","","","","229283","231291","","","","","","","","","","","","7","","stimuli/stars_7.png","152.5","","","","","stimuli/WF06_HE.jpg","",""
"explore-choice","89","231110","0.0-89.0","p355149","A368366DSK3KW6","3WPCIUYH1BELQU8EB2L3QVOOKYBTD4","3TMSXRD2X86MD0UQGGBK1XP3I7K1WX","emotion","match","uniform","","","","","","","942","231291","232233","[""stimuli/HM10_HE.jpg"",""stimuli/WM09_DO.jpg"",""stimuli/WF06_AO.jpg"",""stimuli/AF09_CC.jpg""]","stimuli/HM10_HE.jpg","stimuli/WM09_DO.jpg","stimuli/WF06_AO.jpg","stimuli/AF09_CC.jpg","pos1","stimuli/HM10_HE.jpg","HE","HM10","0","3.5","7","8","stimuli/stars_7.png","156","[""HE"",""DO"",""AO"",""CC""]","[""HM10"",""WM09"",""WF06"",""AF09""]","[7,1,5,2]","[8,2,6,4]","","",""
"show-reward","90","233129","0.0-90.0","p355149","A368366DSK3KW6","3WPCIUYH1BELQU8EB2L3QVOOKYBTD4","3TMSXRD2X86MD0UQGGBK1XP3I7K1WX","emotion","match","uniform","","","","","","","","232742","234759","","","","","","","","","","","","7","","stimuli/stars_7.png","156","","","","","stimuli/HM10_HE.jpg","",""
"explore-choice","91","234501","0.0-91.0","p355149","A368366DSK3KW6","3WPCIUYH1BELQU8EB2L3QVOOKYBTD4","3TMSXRD2X86MD0UQGGBK1XP3I7K1WX","emotion","match","uniform","","","","","","","871","234760","235631","[""stimuli/WM09_HE.jpg"",""stimuli/AF09_DO.jpg"",""stimuli/HM10_CC.jpg"",""stimuli/WF06_AO.jpg""]","stimuli/WM09_HE.jpg","stimuli/AF09_DO.jpg","stimuli/HM10_CC.jpg","stimuli/WF06_AO.jpg","pos1","stimuli/WM09_HE.jpg","HE","WM09","0","3","6","8","stimuli/stars_6.png","159","[""HE"",""DO"",""CC"",""AO""]","[""WM09"",""AF09"",""HM10"",""WF06""]","[6,3,6,7]","[8,2,4,6]","","",""
"show-reward","92","236520","0.0-92.0","p355149","A368366DSK3KW6","3WPCIUYH1BELQU8EB2L3QVOOKYBTD4","3TMSXRD2X86MD0UQGGBK1XP3I7K1WX","emotion","match","uniform","","","","","","","","236133","238150","","","","","","","","","","","","6","","stimuli/stars_6.png","159","","","","","stimuli/WM09_HE.jpg","",""
"explore-choice","93","237780","0.0-93.0","p355149","A368366DSK3KW6","3WPCIUYH1BELQU8EB2L3QVOOKYBTD4","3TMSXRD2X86MD0UQGGBK1XP3I7K1WX","emotion","match","uniform","","","","","","","746","238151","238897","[""stimuli/WF06_HE.jpg"",""stimuli/HM10_AO.jpg"",""stimuli/AF09_DO.jpg"",""stimuli/WM09_CC.jpg""]","stimuli/WF06_HE.jpg","stimuli/HM10_AO.jpg","stimuli/AF09_DO.jpg","stimuli/WM09_CC.jpg","pos1","stimuli/WF06_HE.jpg","HE","WF06","0","3","6","8","stimuli/stars_6.png","162","[""HE"",""AO"",""DO"",""CC""]","[""WF06"",""HM10"",""AF09"",""WM09""]","[6,5,1,5]","[8,6,2,4]","","",""
"show-reward","94","239787","0.0-94.0","p355149","A368366DSK3KW6","3WPCIUYH1BELQU8EB2L3QVOOKYBTD4","3TMSXRD2X86MD0UQGGBK1XP3I7K1WX","emotion","match","uniform","","","","","","","","239411","241416","","","","","","","","","","","","6","","stimuli/stars_6.png","162","","","","","stimuli/WF06_HE.jpg","",""
"explore-choice","95","243078","0.0-95.0","p355149","A368366DSK3KW6","3WPCIUYH1BELQU8EB2L3QVOOKYBTD4","3TMSXRD2X86MD0UQGGBK1XP3I7K1WX","emotion","match","uniform","","","","","","","2778","241418","244196","[""stimuli/WM09_DO.jpg"",""stimuli/HM10_AO.jpg"",""stimuli/AF09_HE.jpg"",""stimuli/WF06_CC.jpg""]","stimuli/WM09_DO.jpg","stimuli/HM10_AO.jpg","stimuli/AF09_HE.jpg","stimuli/WF06_CC.jpg","pos3","stimuli/AF09_HE.jpg","HE","AF09","2","3.5","7","8","stimuli/stars_7.png","165.5","[""DO"",""AO"",""HE"",""CC""]","[""WM09"",""HM10"",""AF09"",""WF06""]","[3,6,7,3]","[2,6,8,4]","","",""
"show-reward","96","245086","0.0-96.0","p355149","A368366DSK3KW6","3WPCIUYH1BELQU8EB2L3QVOOKYBTD4","3TMSXRD2X86MD0UQGGBK1XP3I7K1WX","emotion","match","uniform","","","","","","","","244709","246716","","","","","","","","","","","","7","","stimuli/stars_7.png","165.5","","","","","stimuli/AF09_HE.jpg","",""
"explore-choice","97","246849","0.0-97.0","p355149","A368366DSK3KW6","3WPCIUYH1BELQU8EB2L3QVOOKYBTD4","3TMSXRD2X86MD0UQGGBK1XP3I7K1WX","emotion","match","uniform","","","","","","","1257","246718","247975","[""stimuli/HM10_CC.jpg"",""stimuli/WM09_DO.jpg"",""stimuli/WF06_AO.jpg"",""stimuli/AF09_HE.jpg""]","stimuli/HM10_CC.jpg","stimuli/WM09_DO.jpg","stimuli/WF06_AO.jpg","stimuli/AF09_HE.jpg","pos4","stimuli/AF09_HE.jpg","HE","AF09","3","5","10","8","stimuli/stars_10.png","170.5","[""CC"",""DO"",""AO"",""HE""]","[""HM10"",""WM09"",""WF06"",""AF09""]","[6,4,6,10]","[4,2,6,8]","","",""
"show-reward","98","248861","0.0-98.0","p355149","A368366DSK3KW6","3WPCIUYH1BELQU8EB2L3QVOOKYBTD4","3TMSXRD2X86MD0UQGGBK1XP3I7K1WX","emotion","match","uniform","","","","","","","","248480","250491","","","","","","","","","","","","10","","stimuli/stars_10.png","170.5","","","","","stimuli/AF09_HE.jpg","",""
"explore-choice","99","250434","0.0-99.0","p355149","A368366DSK3KW6","3WPCIUYH1BELQU8EB2L3QVOOKYBTD4","3TMSXRD2X86MD0UQGGBK1XP3I7K1WX","emotion","match","uniform","","","","","","","1058","250492","251550","[""stimuli/WF06_HE.jpg"",""stimuli/HM10_CC.jpg"",""stimuli/AF09_DO.jpg"",""stimuli/WM09_AO.jpg""]","stimuli/WF06_HE.jpg","stimuli/HM10_CC.jpg","stimuli/AF09_DO.jpg","stimuli/WM09_AO.jpg","pos1","stimuli/WF06_HE.jpg","HE","WF06","0","3","6","8","stimuli/stars_6.png","173.5","[""HE"",""CC"",""DO"",""AO""]","[""WF06"",""HM10"",""AF09"",""WM09""]","[6,2,0,8]","[8,4,2,6]","","",""
"show-reward","100","252445","0.0-100.0","p355149","A368366DSK3KW6","3WPCIUYH1BELQU8EB2L3QVOOKYBTD4","3TMSXRD2X86MD0UQGGBK1XP3I7K1WX","emotion","match","uniform","","","","","","","","252066","254075","","","","","","","","","","","","6","","stimuli/stars_6.png","173.5","","","","","stimuli/WF06_HE.jpg","",""
"explore-choice","101","254555","0.0-101.0","p355149","A368366DSK3KW6","3WPCIUYH1BELQU8EB2L3QVOOKYBTD4","3TMSXRD2X86MD0UQGGBK1XP3I7K1WX","emotion","match","uniform","","","","","","","1593","254077","255670","[""stimuli/WM09_DO.jpg"",""stimuli/WF06_CC.jpg"",""stimuli/AF09_AO.jpg"",""stimuli/HM10_HE.jpg""]","stimuli/WM09_DO.jpg","stimuli/WF06_CC.jpg","stimuli/AF09_AO.jpg","stimuli/HM10_HE.jpg","pos4","stimuli/HM10_HE.jpg","HE","HM10","3","3","6","8","stimuli/stars_6.png","176.5","[""DO"",""CC"",""AO"",""HE""]","[""WM09"",""WF06"",""AF09"",""HM10""]","[0,5,7,6]","[2,4,6,8]","","",""
"show-reward","102","256564","0.0-102.0","p355149","A368366DSK3KW6","3WPCIUYH1BELQU8EB2L3QVOOKYBTD4","3TMSXRD2X86MD0UQGGBK1XP3I7K1WX","emotion","match","uniform","","","","","","","","256186","258195","","","","","","","","","","","","6","","stimuli/stars_6.png","176.5","","","","","stimuli/HM10_HE.jpg","",""
"explore-choice","103","259476","0.0-103.0","p355149","A368366DSK3KW6","3WPCIUYH1BELQU8EB2L3QVOOKYBTD4","3TMSXRD2X86MD0UQGGBK1XP3I7K1WX","emotion","match","uniform","","","","","","","2408","258196","260604","[""stimuli/AF11_HO.jpg"",""stimuli/BM16_FO.jpg"",""stimuli/WM11_SUR.jpg"",""stimuli/BF05_SC.jpg""]","stimuli/AF11_HO.jpg","stimuli/BM16_FO.jpg","stimuli/WM11_SUR.jpg","stimuli/BF05_SC.jpg","pos1","stimuli/AF11_HO.jpg","HO","AF11","0","4","8","8","stimuli/stars_8.png","180.5","[""HO"",""FO"",""SUR"",""SC""]","[""AF11"",""BM16"",""WM11"",""BF05""]","[8,3,5,8]","[8,2,4,6]","","",""
"show-reward","104","261480","0.0-104.0","p355149","A368366DSK3KW6","3WPCIUYH1BELQU8EB2L3QVOOKYBTD4","3TMSXRD2X86MD0UQGGBK1XP3I7K1WX","emotion","match","uniform","","","","","","","","261107","263111","","","","","","","","","","","","8","","stimuli/stars_8.png","180.5","","","","","stimuli/AF11_HO.jpg","",""
"explore-choice","105","263982","0.0-105.0","p355149","A368366DSK3KW6","3WPCIUYH1BELQU8EB2L3QVOOKYBTD4","3TMSXRD2X86MD0UQGGBK1XP3I7K1WX","emotion","match","uniform","","","","","","","1998","263112","265110","[""stimuli/WM11_FO.jpg"",""stimuli/BF05_SC.jpg"",""stimuli/BM16_HO.jpg"",""stimuli/AF11_SUR.jpg""]","stimuli/WM11_FO.jpg","stimuli/BF05_SC.jpg","stimuli/BM16_HO.jpg","stimuli/AF11_SUR.jpg","pos3","stimuli/BM16_HO.jpg","HO","BM16","2","4","8","8","stimuli/stars_8.png","184.5","[""FO"",""SC"",""HO"",""SUR""]","[""WM11"",""BF05"",""BM16"",""AF11""]","[1,7,8,2]","[2,6,8,4]","","",""
"show-reward","106","265991","0.0-106.0","p355149","A368366DSK3KW6","3WPCIUYH1BELQU8EB2L3QVOOKYBTD4","3TMSXRD2X86MD0UQGGBK1XP3I7K1WX","emotion","match","uniform","","","","","","","","265613","267621","","","","","","","","","","","","8","","stimuli/stars_8.png","184.5","","","","","stimuli/BM16_HO.jpg","",""
"explore-choice","107","268666","0.0-107.0","p355149","A368366DSK3KW6","3WPCIUYH1BELQU8EB2L3QVOOKYBTD4","3TMSXRD2X86MD0UQGGBK1XP3I7K1WX","emotion","match","uniform","","","","","","","2166","267623","269789","[""stimuli/BM16_SC.jpg"",""stimuli/BF05_SUR.jpg"",""stimuli/AF11_HO.jpg"",""stimuli/WM11_FO.jpg""]","stimuli/BM16_SC.jpg","stimuli/BF05_SUR.jpg","stimuli/AF11_HO.jpg","stimuli/WM11_FO.jpg","pos3","stimuli/AF11_HO.jpg","HO","AF11","2","4","8","8","stimuli/stars_8.png","188.5","[""SC"",""SUR"",""HO"",""FO""]","[""BM16"",""BF05"",""AF11"",""WM11""]","[6,4,8,2]","[6,4,8,2]","","",""
"show-reward","108","270670","0.0-108.0","p355149","A368366DSK3KW6","3WPCIUYH1BELQU8EB2L3QVOOKYBTD4","3TMSXRD2X86MD0UQGGBK1XP3I7K1WX","emotion","match","uniform","","","","","","","","270297","272300","","","","","","","","","","","","8","","stimuli/stars_8.png","188.5","","","","","stimuli/AF11_HO.jpg","",""
"explore-choice","109","272994","0.0-109.0","p355149","A368366DSK3KW6","3WPCIUYH1BELQU8EB2L3QVOOKYBTD4","3TMSXRD2X86MD0UQGGBK1XP3I7K1WX","emotion","match","uniform","","","","","","","1816","272302","274118","[""stimuli/BM16_SUR.jpg"",""stimuli/WM11_HO.jpg"",""stimuli/BF05_SC.jpg"",""stimuli/AF11_FO.jpg""]","stimuli/BM16_SUR.jpg","stimuli/WM11_HO.jpg","stimuli/BF05_SC.jpg","stimuli/AF11_FO.jpg","pos2","stimuli/WM11_HO.jpg","HO","WM11","1","3.5","7","8","stimuli/stars_7.png","192","[""SUR"",""HO"",""SC"",""FO""]","[""BM16"",""WM11"",""BF05"",""AF11""]","[3,7,4,2]","[4,8,6,2]","","",""
"show-reward","110","275004","0.0-110.0","p355149","A368366DSK3KW6","3WPCIUYH1BELQU8EB2L3QVOOKYBTD4","3TMSXRD2X86MD0UQGGBK1XP3I7K1WX","emotion","match","uniform","","","","","","","","274626","276635","","","","","","","","","","","","7","","stimuli/stars_7.png","192","","","","","stimuli/WM11_HO.jpg","",""
"explore-choice","111","276789","0.0-111.0","p355149","A368366DSK3KW6","3WPCIUYH1BELQU8EB2L3QVOOKYBTD4","3TMSXRD2X86MD0UQGGBK1XP3I7K1WX","emotion","match","uniform","","","","","","","1277","276635","277912","[""stimuli/BF05_FO.jpg"",""stimuli/BM16_SC.jpg"",""stimuli/WM11_SUR.jpg"",""stimuli/AF11_HO.jpg""]","stimuli/BF05_FO.jpg","stimuli/BM16_SC.jpg","stimuli/WM11_SUR.jpg","stimuli/AF11_HO.jpg","pos4","stimuli/AF11_HO.jpg","HO","AF11","3","4","8","8","stimuli/stars_8.png","196","[""FO"",""SC"",""SUR"",""HO""]","[""BF05"",""BM16"",""WM11"",""AF11""]","[3,5,6,8]","[2,6,4,8]","","",""
"show-reward","112","278807","0.0-112.0","p355149","A368366DSK3KW6","3WPCIUYH1BELQU8EB2L3QVOOKYBTD4","3TMSXRD2X86MD0UQGGBK1XP3I7K1WX","emotion","match","uniform","","","","","","","","278421","280437","","","","","","","","","","","","8","","stimuli/stars_8.png","196","","","","","stimuli/AF11_HO.jpg","",""
"explore-choice","113","280750","0.0-113.0","p355149","A368366DSK3KW6","3WPCIUYH1BELQU8EB2L3QVOOKYBTD4","3TMSXRD2X86MD0UQGGBK1XP3I7K1WX","emotion","match","uniform","","","","","","","1429","280439","281868","[""stimuli/BF05_SUR.jpg"",""stimuli/BM16_FO.jpg"",""stimuli/AF11_HO.jpg"",""stimuli/WM11_SC.jpg""]","stimuli/BF05_SUR.jpg","stimuli/BM16_FO.jpg","stimuli/AF11_HO.jpg","stimuli/WM11_SC.jpg","pos3","stimuli/AF11_HO.jpg","HO","AF11","2","4","8","8","stimuli/stars_8.png","200","[""SUR"",""FO"",""HO"",""SC""]","[""BF05"",""BM16"",""AF11"",""WM11""]","[3,0,8,6]","[4,2,8,6]","","",""
"show-reward","114","282771","0.0-114.0","p355149","A368366DSK3KW6","3WPCIUYH1BELQU8EB2L3QVOOKYBTD4","3TMSXRD2X86MD0UQGGBK1XP3I7K1WX","emotion","match","uniform","","","","","","","","282382","284402","","","","","","","","","","","","8","","stimuli/stars_8.png","200","","","","","stimuli/AF11_HO.jpg","",""
"explore-choice","115","284987","0.0-115.0","p355149","A368366DSK3KW6","3WPCIUYH1BELQU8EB2L3QVOOKYBTD4","3TMSXRD2X86MD0UQGGBK1XP3I7K1WX","emotion","match","uniform","","","","","","","1707","284403","286110","[""stimuli/WM11_HO.jpg"",""stimuli/AF11_SUR.jpg"",""stimuli/BF05_FO.jpg"",""stimuli/BM16_SC.jpg""]","stimuli/WM11_HO.jpg","stimuli/AF11_SUR.jpg","stimuli/BF05_FO.jpg","stimuli/BM16_SC.jpg","pos1","stimuli/WM11_HO.jpg","HO","WM11","0","4","8","8","stimuli/stars_8.png","204","[""HO"",""SUR"",""FO"",""SC""]","[""WM11"",""AF11"",""BF05"",""BM16""]","[8,5,2,8]","[8,4,2,6]","","",""
"show-reward","116","286997","0.0-116.0","p355149","A368366DSK3KW6","3WPCIUYH1BELQU8EB2L3QVOOKYBTD4","3TMSXRD2X86MD0UQGGBK1XP3I7K1WX","emotion","match","uniform","","","","","","","","286618","288626","","","","","","","","","","","","8","","stimuli/stars_8.png","204","","","","","stimuli/WM11_HO.jpg","",""
"explore-choice","117","289252","0.0-117.0","p355149","A368366DSK3KW6","3WPCIUYH1BELQU8EB2L3QVOOKYBTD4","3TMSXRD2X86MD0UQGGBK1XP3I7K1WX","emotion","match","uniform","","","","","","","1741","288629","290370","[""stimuli/WM11_SC.jpg"",""stimuli/BF05_HO.jpg"",""stimuli/BM16_SUR.jpg"",""stimuli/AF11_FO.jpg""]","stimuli/WM11_SC.jpg","stimuli/BF05_HO.jpg","stimuli/BM16_SUR.jpg","stimuli/AF11_FO.jpg","pos2","stimuli/BF05_HO.jpg","HO","BF05","1","4","8","8","stimuli/stars_8.png","208","[""SC"",""HO"",""SUR"",""FO""]","[""WM11"",""BF05"",""BM16"",""AF11""]","[8,8,3,4]","[6,8,4,2]","","",""
"show-reward","118","291257","0.0-118.0","p355149","A368366DSK3KW6","3WPCIUYH1BELQU8EB2L3QVOOKYBTD4","3TMSXRD2X86MD0UQGGBK1XP3I7K1WX","emotion","match","uniform","","","","","","","","290884","292887","","","","","","","","","","","","8","","stimuli/stars_8.png","208","","","","","stimuli/BF05_HO.jpg","",""
"explore-choice","119","293176","0.0-119.0","p355149","A368366DSK3KW6","3WPCIUYH1BELQU8EB2L3QVOOKYBTD4","3TMSXRD2X86MD0UQGGBK1XP3I7K1WX","emotion","match","uniform","","","","","","","1415","292888","294303","[""stimuli/BF05_SUR.jpg"",""stimuli/BM16_FO.jpg"",""stimuli/WM11_HO.jpg"",""stimuli/AF11_SC.jpg""]","stimuli/BF05_SUR.jpg","stimuli/BM16_FO.jpg","stimuli/WM11_HO.jpg","stimuli/AF11_SC.jpg","pos3","stimuli/WM11_HO.jpg","HO","WM11","2","4.5","9","8","stimuli/stars_9.png","212.5","[""SUR"",""FO"",""HO"",""SC""]","[""BF05"",""BM16"",""WM11"",""AF11""]","[4,1,9,7]","[4,2,8,6]","","",""
"show-reward","120","295195","0.0-120.0","p355149","A368366DSK3KW6","3WPCIUYH1BELQU8EB2L3QVOOKYBTD4","3TMSXRD2X86MD0UQGGBK1XP3I7K1WX","emotion","match","uniform","","","","","","","","294809","296826","","","","","","","","","","","","9","","stimuli/stars_9.png","212.5","","","","","stimuli/WM11_HO.jpg","",""
"explore-choice","121","296875","0.0-121.0","p355149","A368366DSK3KW6","3WPCIUYH1BELQU8EB2L3QVOOKYBTD4","3TMSXRD2X86MD0UQGGBK1XP3I7K1WX","emotion","match","uniform","","","","","","","1169","296826","297995","[""stimuli/BF05_SC.jpg"",""stimuli/WM11_SUR.jpg"",""stimuli/AF11_FO.jpg"",""stimuli/BM16_HO.jpg""]","stimuli/BF05_SC.jpg","stimuli/WM11_SUR.jpg","stimuli/AF11_FO.jpg","stimuli/BM16_HO.jpg","pos4","stimuli/BM16_HO.jpg","HO","BM16","3","4.5","9","8","stimuli/stars_9.png","217","[""SC"",""SUR"",""FO"",""HO""]","[""BF05"",""WM11"",""AF11"",""BM16""]","[5,2,2,9]","[6,4,2,8]","","",""
"show-reward","122","298887","0.0-122.0","p355149","A368366DSK3KW6","3WPCIUYH1BELQU8EB2L3QVOOKYBTD4","3TMSXRD2X86MD0UQGGBK1XP3I7K1WX","emotion","match","uniform","","","","","","","","298506","300517","","","","","","","","","","","","9","","stimuli/stars_9.png","217","","","","","stimuli/BM16_HO.jpg","",""
"explore-choice","123","300834","0.0-123.0","p355149","A368366DSK3KW6","3WPCIUYH1BELQU8EB2L3QVOOKYBTD4","3TMSXRD2X86MD0UQGGBK1XP3I7K1WX","emotion","match","uniform","","","","","","","1431","300519","301950","[""stimuli/BM16_FO.jpg"",""stimuli/BF05_HO.jpg"",""stimuli/WM11_SUR.jpg"",""stimuli/AF11_SC.jpg""]","stimuli/BM16_FO.jpg","stimuli/BF05_HO.jpg","stimuli/WM11_SUR.jpg","stimuli/AF11_SC.jpg","pos2","stimuli/BF05_HO.jpg","HO","BF05","1","5","10","8","stimuli/stars_10.png","222","[""FO"",""HO"",""SUR"",""SC""]","[""BM16"",""BF05"",""WM11"",""AF11""]","[4,10,5,8]","[2,8,4,6]","","",""
"show-reward","124","302840","0.0-124.0","p355149","A368366DSK3KW6","3WPCIUYH1BELQU8EB2L3QVOOKYBTD4","3TMSXRD2X86MD0UQGGBK1XP3I7K1WX","emotion","match","uniform","","","","","","","","302466","304470","","","","","","","","","","","","10","","stimuli/stars_10.png","222","","","","","stimuli/BF05_HO.jpg","",""
"explore-choice","125","304632","0.0-125.0","p355149","A368366DSK3KW6","3WPCIUYH1BELQU8EB2L3QVOOKYBTD4","3TMSXRD2X86MD0UQGGBK1XP3I7K1WX","emotion","match","uniform","","","","","","","1282","304470","305752","[""stimuli/AF11_FO.jpg"",""stimuli/BM16_SC.jpg"",""stimuli/WM11_SUR.jpg"",""stimuli/BF05_HO.jpg""]","stimuli/AF11_FO.jpg","stimuli/BM16_SC.jpg","stimuli/WM11_SUR.jpg","stimuli/BF05_HO.jpg","pos4","stimuli/BF05_HO.jpg","HO","BF05","3","3","6","8","stimuli/stars_6.png","225","[""FO"",""SC"",""SUR"",""HO""]","[""AF11"",""BM16"",""WM11"",""BF05""]","[4,6,3,6]","[2,6,4,8]","","",""
"show-reward","126","306645","0.0-126.0","p355149","A368366DSK3KW6","3WPCIUYH1BELQU8EB2L3QVOOKYBTD4","3TMSXRD2X86MD0UQGGBK1XP3I7K1WX","emotion","match","uniform","","","","","","","","306263","308276","","","","","","","","","","","","6","","stimuli/stars_6.png","225","","","","","stimuli/BF05_HO.jpg","",""
"explore-choice","127","308177","0.0-127.0","p355149","A368366DSK3KW6","3WPCIUYH1BELQU8EB2L3QVOOKYBTD4","3TMSXRD2X86MD0UQGGBK1XP3I7K1WX","emotion","match","uniform","","","","","","","1027","308277","309304","[""stimuli/BF05_SC.jpg"",""stimuli/WM11_FO.jpg"",""stimuli/BM16_SUR.jpg"",""stimuli/AF11_HO.jpg""]","stimuli/BF05_SC.jpg","stimuli/WM11_FO.jpg","stimuli/BM16_SUR.jpg","stimuli/AF11_HO.jpg","pos4","stimuli/AF11_HO.jpg","HO","AF11","3","4.5","9","8","stimuli/stars_9.png","229.5","[""SC"",""FO"",""SUR"",""HO""]","[""BF05"",""WM11"",""BM16"",""AF11""]","[7,0,4,9]","[6,2,4,8]","","",""
"show-reward","128","310185","0.0-128.0","p355149","A368366DSK3KW6","3WPCIUYH1BELQU8EB2L3QVOOKYBTD4","3TMSXRD2X86MD0UQGGBK1XP3I7K1WX","emotion","match","uniform","","","","","","","","309808","311814","","","","","","","","","","","","9","","stimuli/stars_9.png","229.5","","","","","stimuli/AF11_HO.jpg","",""
"explore-choice","129","311556","0.0-129.0","p355149","A368366DSK3KW6","3WPCIUYH1BELQU8EB2L3QVOOKYBTD4","3TMSXRD2X86MD0UQGGBK1XP3I7K1WX","emotion","match","uniform","","","","","","","855","311817","312672","[""stimuli/AF11_SC.jpg"",""stimuli/BF05_FO.jpg"",""stimuli/BM16_SUR.jpg"",""stimuli/WM11_HO.jpg""]","stimuli/AF11_SC.jpg","stimuli/BF05_FO.jpg","stimuli/BM16_SUR.jpg","stimuli/WM11_HO.jpg","pos4","stimuli/WM11_HO.jpg","HO","WM11","3","4.5","9","8","stimuli/stars_9.png","234","[""SC"",""FO"",""SUR"",""HO""]","[""AF11"",""BF05"",""BM16"",""WM11""]","[4,2,2,9]","[6,2,4,8]","","",""
"show-reward","130","313561","0.0-130.0","p355149","A368366DSK3KW6","3WPCIUYH1BELQU8EB2L3QVOOKYBTD4","3TMSXRD2X86MD0UQGGBK1XP3I7K1WX","emotion","match","uniform","","","","","","","","313188","315191","","","","","","","","","","","","9","","stimuli/stars_9.png","234","","","","","stimuli/WM11_HO.jpg","",""
"explore-choice","131","314878","0.0-131.0","p355149","A368366DSK3KW6","3WPCIUYH1BELQU8EB2L3QVOOKYBTD4","3TMSXRD2X86MD0UQGGBK1XP3I7K1WX","emotion","match","uniform","","","","","","","809","315192","316001","[""stimuli/BM16_SC.jpg"",""stimuli/BF05_SUR.jpg"",""stimuli/AF11_FO.jpg"",""stimuli/WM11_HO.jpg""]","stimuli/BM16_SC.jpg","stimuli/BF05_SUR.jpg","stimuli/AF11_FO.jpg","stimuli/WM11_HO.jpg","pos4","stimuli/WM11_HO.jpg","HO","WM11","3","5","10","8","stimuli/stars_10.png","239","[""SC"",""SUR"",""FO"",""HO""]","[""BM16"",""BF05"",""AF11"",""WM11""]","[8,6,4,10]","[6,4,2,8]","","",""
"show-reward","132","316884","0.0-132.0","p355149","A368366DSK3KW6","3WPCIUYH1BELQU8EB2L3QVOOKYBTD4","3TMSXRD2X86MD0UQGGBK1XP3I7K1WX","emotion","match","uniform","","","","","","","","316510","318514","","","","","","","","","","","","10","","stimuli/stars_10.png","239","","","","","stimuli/WM11_HO.jpg","",""
"explore-choice","133","318446","0.0-133.0","p355149","A368366DSK3KW6","3WPCIUYH1BELQU8EB2L3QVOOKYBTD4","3TMSXRD2X86MD0UQGGBK1XP3I7K1WX","emotion","match","uniform","","","","","","","1053","318515","319568","[""stimuli/WM11_HO.jpg"",""stimuli/AF11_SUR.jpg"",""stimuli/BF05_SC.jpg"",""stimuli/BM16_FO.jpg""]","stimuli/WM11_HO.jpg","stimuli/AF11_SUR.jpg","stimuli/BF05_SC.jpg","stimuli/BM16_FO.jpg","pos1","stimuli/WM11_HO.jpg","HO","WM11","0","4.5","9","8","stimuli/stars_9.png","243.5","[""HO"",""SUR"",""SC"",""FO""]","[""WM11"",""AF11"",""BF05"",""BM16""]","[9,4,7,0]","[8,4,6,2]","","",""
"show-reward","134","320460","0.0-134.0","p355149","A368366DSK3KW6","3WPCIUYH1BELQU8EB2L3QVOOKYBTD4","3TMSXRD2X86MD0UQGGBK1XP3I7K1WX","emotion","match","uniform","","","","","","","","320079","322090","","","","","","","","","","","","9","","stimuli/stars_9.png","243.5","","","","","stimuli/WM11_HO.jpg","",""
"explore-choice","135","322149","0.0-135.0","p355149","A368366DSK3KW6","3WPCIUYH1BELQU8EB2L3QVOOKYBTD4","3TMSXRD2X86MD0UQGGBK1XP3I7K1WX","emotion","match","uniform","","","","","","","1185","322091","323276","[""stimuli/BF05_SUR.jpg"",""stimuli/AF11_SC.jpg"",""stimuli/BM16_HO.jpg"",""stimuli/WM11_FO.jpg""]","stimuli/BF05_SUR.jpg","stimuli/AF11_SC.jpg","stimuli/BM16_HO.jpg","stimuli/WM11_FO.jpg","pos3","stimuli/BM16_HO.jpg","HO","BM16","2","5","10","8","stimuli/stars_10.png","248.5","[""SUR"",""SC"",""HO"",""FO""]","[""BF05"",""AF11"",""BM16"",""WM11""]","[5,7,10,3]","[4,6,8,2]","","",""
"show-reward","136","324161","0.0-136.0","p355149","A368366DSK3KW6","3WPCIUYH1BELQU8EB2L3QVOOKYBTD4","3TMSXRD2X86MD0UQGGBK1XP3I7K1WX","emotion","match","uniform","","","","","","","","323781","325792","","","","","","","","","","","","10","","stimuli/stars_10.png","248.5","","","","","stimuli/BM16_HO.jpg","",""
"explore-choice","137","326788","0.0-137.0","p355149","A368366DSK3KW6","3WPCIUYH1BELQU8EB2L3QVOOKYBTD4","3TMSXRD2X86MD0UQGGBK1XP3I7K1WX","emotion","match","uniform","","","","","","","2120","325793","327913","[""stimuli/BF05_HO.jpg"",""stimuli/BM16_SC.jpg"",""stimuli/AF11_SUR.jpg"",""stimuli/WM11_FO.jpg""]","stimuli/BF05_HO.jpg","stimuli/BM16_SC.jpg","stimuli/AF11_SUR.jpg","stimuli/WM11_FO.jpg","pos1","stimuli/BF05_HO.jpg","HO","BF05","0","4","8","8","stimuli/stars_8.png","252.5","[""HO"",""SC"",""SUR"",""FO""]","[""BF05"",""BM16"",""AF11"",""WM11""]","[8,5,6,4]","[8,6,4,2]","","",""
"show-reward","138","328798","0.0-138.0","p355149","A368366DSK3KW6","3WPCIUYH1BELQU8EB2L3QVOOKYBTD4","3TMSXRD2X86MD0UQGGBK1XP3I7K1WX","emotion","match","uniform","","","","","","","","328421","330428","","","","","","","","","","","","8","","stimuli/stars_8.png","252.5","","","","","stimuli/BF05_HO.jpg","",""
"explore-choice","139","331538","0.0-139.0","p355149","A368366DSK3KW6","3WPCIUYH1BELQU8EB2L3QVOOKYBTD4","3TMSXRD2X86MD0UQGGBK1XP3I7K1WX","emotion","match","uniform","","","","","","","2232","330430","332662","[""stimuli/AF11_HO.jpg"",""stimuli/BF05_FO.jpg"",""stimuli/BM16_SUR.jpg"",""stimuli/WM11_SC.jpg""]","stimuli/AF11_HO.jpg","stimuli/BF05_FO.jpg","stimuli/BM16_SUR.jpg","stimuli/WM11_SC.jpg","pos1","stimuli/AF11_HO.jpg","HO","AF11","0","5","10","8","stimuli/stars_10.png","257.5","[""HO"",""FO"",""SUR"",""SC""]","[""AF11"",""BF05"",""BM16"",""WM11""]","[10,3,4,5]","[8,2,4,6]","","",""
"show-reward","140","333549","0.0-140.0","p355149","A368366DSK3KW6","3WPCIUYH1BELQU8EB2L3QVOOKYBTD4","3TMSXRD2X86MD0UQGGBK1XP3I7K1WX","emotion","match","uniform","","","","","","","","333170","335179","","","","","","","","","","","","10","","stimuli/stars_10.png","257.5","","","","","stimuli/AF11_HO.jpg","",""
"explore-choice","141","335542","0.0-141.0","p355149","A368366DSK3KW6","3WPCIUYH1BELQU8EB2L3QVOOKYBTD4","3TMSXRD2X86MD0UQGGBK1XP3I7K1WX","emotion","match","uniform","","","","","","","1483","335181","336664","[""stimuli/WM11_SUR.jpg"",""stimuli/BF05_FO.jpg"",""stimuli/BM16_HO.jpg"",""stimuli/AF11_SC.jpg""]","stimuli/WM11_SUR.jpg","stimuli/BF05_FO.jpg","stimuli/BM16_HO.jpg","stimuli/AF11_SC.jpg","pos3","stimuli/BM16_HO.jpg","HO","BM16","2","4","8","8","stimuli/stars_8.png","261.5","[""SUR"",""FO"",""HO"",""SC""]","[""WM11"",""BF05"",""BM16"",""AF11""]","[3,2,8,7]","[4,2,8,6]","","",""
"show-reward","142","337546","0.0-142.0","p355149","A368366DSK3KW6","3WPCIUYH1BELQU8EB2L3QVOOKYBTD4","3TMSXRD2X86MD0UQGGBK1XP3I7K1WX","emotion","match","uniform","","","","","","","","337173","339176","","","","","","","","","","","","8","","stimuli/stars_8.png","261.5","","","","","stimuli/BM16_HO.jpg","",""
"explore-choice","143","339403","0.0-143.0","p355149","A368366DSK3KW6","3WPCIUYH1BELQU8EB2L3QVOOKYBTD4","3TMSXRD2X86MD0UQGGBK1XP3I7K1WX","emotion","match","uniform","","","","","","","1342","339177","340519","[""stimuli/AF11_SUR.jpg"",""stimuli/BF05_HO.jpg"",""stimuli/BM16_FO.jpg"",""stimuli/WM11_SC.jpg""]","stimuli/AF11_SUR.jpg","stimuli/BF05_HO.jpg","stimuli/BM16_FO.jpg","stimuli/WM11_SC.jpg","pos2","stimuli/BF05_HO.jpg","HO","BF05","1","4.5","9","8","stimuli/stars_9.png","266","[""SUR"",""HO"",""FO"",""SC""]","[""AF11"",""BF05"",""BM16"",""WM11""]","[4,9,3,4]","[4,8,2,6]","","",""
"show-reward","144","341412","0.0-144.0","p355149","A368366DSK3KW6","3WPCIUYH1BELQU8EB2L3QVOOKYBTD4","3TMSXRD2X86MD0UQGGBK1XP3I7K1WX","emotion","match","uniform","","","","","","","","341034","343042","","","","","","","","","","","","9","","stimuli/stars_9.png","266","","","","","stimuli/BF05_HO.jpg","",""
"explore-choice","145","343637","0.0-145.0","p355149","A368366DSK3KW6","3WPCIUYH1BELQU8EB2L3QVOOKYBTD4","3TMSXRD2X86MD0UQGGBK1XP3I7K1WX","emotion","match","uniform","","","","","","","1710","343043","344753","[""stimuli/BF05_FO.jpg"",""stimuli/AF11_SUR.jpg"",""stimuli/WM11_SC.jpg"",""stimuli/BM16_HO.jpg""]","stimuli/BF05_FO.jpg","stimuli/AF11_SUR.jpg","stimuli/WM11_SC.jpg","stimuli/BM16_HO.jpg","pos4","stimuli/BM16_HO.jpg","HO","BM16","3","3","6","8","stimuli/stars_6.png","269","[""FO"",""SUR"",""SC"",""HO""]","[""BF05"",""AF11"",""WM11"",""BM16""]","[3,3,7,6]","[2,4,6,8]","","",""
"show-reward","146","345657","0.0-146.0","p355149","A368366DSK3KW6","3WPCIUYH1BELQU8EB2L3QVOOKYBTD4","3TMSXRD2X86MD0UQGGBK1XP3I7K1WX","emotion","match","uniform","","","","","","","","345268","347287","","","","","","","","","","","","6","","stimuli/stars_6.png","269","","","","","stimuli/BM16_HO.jpg","",""
"explore-choice","147","349796","0.0-147.0","p355149","A368366DSK3KW6","3WPCIUYH1BELQU8EB2L3QVOOKYBTD4","3TMSXRD2X86MD0UQGGBK1XP3I7K1WX","emotion","match","uniform","","","","","","","3624","347290","350914","[""stimuli/AF11_SC.jpg"",""stimuli/BM16_SUR.jpg"",""stimuli/WM11_FO.jpg"",""stimuli/BF05_HO.jpg""]","stimuli/AF11_SC.jpg","stimuli/BM16_SUR.jpg","stimuli/WM11_FO.jpg","stimuli/BF05_HO.jpg","pos4","stimuli/BF05_HO.jpg","HO","BF05","3","5","10","8","stimuli/stars_10.png","274","[""SC"",""SUR"",""FO"",""HO""]","[""AF11"",""BM16"",""WM11"",""BF05""]","[8,3,0,10]","[6,4,2,8]","","",""
"show-reward","148","351810","0.0-148.0","p355149","A368366DSK3KW6","3WPCIUYH1BELQU8EB2L3QVOOKYBTD4","3TMSXRD2X86MD0UQGGBK1XP3I7K1WX","emotion","match","uniform","","","","","","","","351428","353441","","","","","","","","","","","","10","","stimuli/stars_10.png","274","","","","","stimuli/BF05_HO.jpg","",""
"explore-choice","149","354135","0.0-149.0","p355149","A368366DSK3KW6","3WPCIUYH1BELQU8EB2L3QVOOKYBTD4","3TMSXRD2X86MD0UQGGBK1XP3I7K1WX","emotion","match","uniform","","","","","","","1821","353442","355263","[""stimuli/BM16_HO.jpg"",""stimuli/WM11_SC.jpg"",""stimuli/AF11_FO.jpg"",""stimuli/BF05_SUR.jpg""]","stimuli/BM16_HO.jpg","stimuli/WM11_SC.jpg","stimuli/AF11_FO.jpg","stimuli/BF05_SUR.jpg","pos1","stimuli/BM16_HO.jpg","HO","BM16","0","5","10","8","stimuli/stars_10.png","279","[""HO"",""SC"",""FO"",""SUR""]","[""BM16"",""WM11"",""AF11"",""BF05""]","[10,7,0,3]","[8,6,2,4]","","",""
"show-reward","150","356139","0.0-150.0","p355149","A368366DSK3KW6","3WPCIUYH1BELQU8EB2L3QVOOKYBTD4","3TMSXRD2X86MD0UQGGBK1XP3I7K1WX","emotion","match","uniform","","","","","","","","355765","357770","","","","","","","","","","","","10","","stimuli/stars_10.png","279","","","","","stimuli/BM16_HO.jpg","",""
"explore-choice","151","358512","0.0-151.0","p355149","A368366DSK3KW6","3WPCIUYH1BELQU8EB2L3QVOOKYBTD4","3TMSXRD2X86MD0UQGGBK1XP3I7K1WX","emotion","match","uniform","","","","","","","1868","357771","359639","[""stimuli/BF05_SUR.jpg"",""stimuli/AF11_SC.jpg"",""stimuli/BM16_FO.jpg"",""stimuli/WM11_HO.jpg""]","stimuli/BF05_SUR.jpg","stimuli/AF11_SC.jpg","stimuli/BM16_FO.jpg","stimuli/WM11_HO.jpg","pos4","stimuli/WM11_HO.jpg","HO","WM11","3","4.5","9","8","stimuli/stars_9.png","283.5","[""SUR"",""SC"",""FO"",""HO""]","[""BF05"",""AF11"",""BM16"",""WM11""]","[4,7,1,9]","[4,6,2,8]","","",""
"show-reward","152","360531","0.0-152.0","p355149","A368366DSK3KW6","3WPCIUYH1BELQU8EB2L3QVOOKYBTD4","3TMSXRD2X86MD0UQGGBK1XP3I7K1WX","emotion","match","uniform","","","","","","","","360143","362160","","","","","","","","","","","","9","","stimuli/stars_9.png","283.5","","","","","stimuli/WM11_HO.jpg","",""
"explore-choice","153","362664","0.0-153.0","p355149","A368366DSK3KW6","3WPCIUYH1BELQU8EB2L3QVOOKYBTD4","3TMSXRD2X86MD0UQGGBK1XP3I7K1WX","emotion","match","uniform","","","","","","","1620","362163","363783","[""stimuli/WM11_SC.jpg"",""stimuli/BM16_SUR.jpg"",""stimuli/AF11_FO.jpg"",""stimuli/BF05_HO.jpg""]","stimuli/WM11_SC.jpg","stimuli/BM16_SUR.jpg","stimuli/AF11_FO.jpg","stimuli/BF05_HO.jpg","pos4","stimuli/BF05_HO.jpg","HO","BF05","3","4","8","8","stimuli/stars_8.png","287.5","[""SC"",""SUR"",""FO"",""HO""]","[""WM11"",""BM16"",""AF11"",""BF05""]","[8,3,4,8]","[6,4,2,8]","","",""
"show-reward","154","364671","0.0-154.0","p355149","A368366DSK3KW6","3WPCIUYH1BELQU8EB2L3QVOOKYBTD4","3TMSXRD2X86MD0UQGGBK1XP3I7K1WX","emotion","match","uniform","","","","","","","","364295","366301","","","","","","","","","","","","8","","stimuli/stars_8.png","287.5","","","","","stimuli/BF05_HO.jpg","",""
"explore-choice","155","367754","0.0-155.0","p355149","A368366DSK3KW6","3WPCIUYH1BELQU8EB2L3QVOOKYBTD4","3TMSXRD2X86MD0UQGGBK1XP3I7K1WX","emotion","match","uniform","","","","","","","2569","366302","368871","[""stimuli/BF05_HO.jpg"",""stimuli/AF11_SC.jpg"",""stimuli/BM16_FO.jpg"",""stimuli/WM11_SUR.jpg""]","stimuli/BF05_HO.jpg","stimuli/AF11_SC.jpg","stimuli/BM16_FO.jpg","stimuli/WM11_SUR.jpg","pos1","stimuli/BF05_HO.jpg","HO","BF05","0","5","10","8","stimuli/stars_10.png","292.5","[""HO"",""SC"",""FO"",""SUR""]","[""BF05"",""AF11"",""BM16"",""WM11""]","[10,8,4,5]","[8,6,2,4]","","",""
"show-reward","156","369763","0.0-156.0","p355149","A368366DSK3KW6","3WPCIUYH1BELQU8EB2L3QVOOKYBTD4","3TMSXRD2X86MD0UQGGBK1XP3I7K1WX","emotion","match","uniform","","","","","","","","369385","371393","","","","","","","","","","","","10","","stimuli/stars_10.png","292.5","","","","","stimuli/BF05_HO.jpg","",""
"explore-choice","157","372325","0.0-157.0","p355149","A368366DSK3KW6","3WPCIUYH1BELQU8EB2L3QVOOKYBTD4","3TMSXRD2X86MD0UQGGBK1XP3I7K1WX","emotion","match","uniform","","","","","","","2053","371394","373447","[""stimuli/AF11_SUR.jpg"",""stimuli/BF05_FO.jpg"",""stimuli/BM16_HO.jpg"",""stimuli/WM11_SC.jpg""]","stimuli/AF11_SUR.jpg","stimuli/BF05_FO.jpg","stimuli/BM16_HO.jpg","stimuli/WM11_SC.jpg","pos3","stimuli/BM16_HO.jpg","HO","BM16","2","3","6","8","stimuli/stars_6.png","295.5","[""SUR"",""FO"",""HO"",""SC""]","[""AF11"",""BF05"",""BM16"",""WM11""]","[3,3,6,7]","[4,2,8,6]","","",""
"show-reward","158","374340","0.0-158.0","p355149","A368366DSK3KW6","3WPCIUYH1BELQU8EB2L3QVOOKYBTD4","3TMSXRD2X86MD0UQGGBK1XP3I7K1WX","emotion","match","uniform","","","","","","","","373956","375971","","","","","","","","","","","","6","","stimuli/stars_6.png","295.5","","","","","stimuli/BM16_HO.jpg","",""
"explore-choice","159","375932","0.0-159.0","p355149","A368366DSK3KW6","3WPCIUYH1BELQU8EB2L3QVOOKYBTD4","3TMSXRD2X86MD0UQGGBK1XP3I7K1WX","emotion","match","uniform","","","","","","","1085","375971","377056","[""stimuli/WM11_SUR.jpg"",""stimuli/AF11_FO.jpg"",""stimuli/BF05_HO.jpg"",""stimuli/BM16_SC.jpg""]","stimuli/WM11_SUR.jpg","stimuli/AF11_FO.jpg","stimuli/BF05_HO.jpg","stimuli/BM16_SC.jpg","pos3","stimuli/BF05_HO.jpg","HO","BF05","2","3","6","8","stimuli/stars_6.png","298.5","[""SUR"",""FO"",""HO"",""SC""]","[""WM11"",""AF11"",""BF05"",""BM16""]","[3,4,6,6]","[4,2,8,6]","","",""
"show-reward","160","377938","0.0-160.0","p355149","A368366DSK3KW6","3WPCIUYH1BELQU8EB2L3QVOOKYBTD4","3TMSXRD2X86MD0UQGGBK1XP3I7K1WX","emotion","match","uniform","","","","","","","","377563","379569","","","","","","","","","","","","6","","stimuli/stars_6.png","298.5","","","","","stimuli/BF05_HO.jpg","",""
"explore-choice","161","380274","0.0-161.0","p355149","A368366DSK3KW6","3WPCIUYH1BELQU8EB2L3QVOOKYBTD4","3TMSXRD2X86MD0UQGGBK1XP3I7K1WX","emotion","match","uniform","","","","","","","1822","379569","381391","[""stimuli/BF05_SC.jpg"",""stimuli/WM11_HO.jpg"",""stimuli/BM16_SUR.jpg"",""stimuli/AF11_FO.jpg""]","stimuli/BF05_SC.jpg","stimuli/WM11_HO.jpg","stimuli/BM16_SUR.jpg","stimuli/AF11_FO.jpg","pos2","stimuli/WM11_HO.jpg","HO","WM11","1","3.5","7","8","stimuli/stars_7.png","302","[""SC"",""HO"",""SUR"",""FO""]","[""BF05"",""WM11"",""BM16"",""AF11""]","[4,7,3,2]","[6,8,4,2]","","",""
"show-reward","162","382286","0.0-162.0","p355149","A368366DSK3KW6","3WPCIUYH1BELQU8EB2L3QVOOKYBTD4","3TMSXRD2X86MD0UQGGBK1XP3I7K1WX","emotion","match","uniform","","","","","","","","381906","383916","","","","","","","","","","","","7","","stimuli/stars_7.png","302","","","","","stimuli/WM11_HO.jpg","",""
"explore-choice","163","384376","0.0-163.0","p355149","A368366DSK3KW6","3WPCIUYH1BELQU8EB2L3QVOOKYBTD4","3TMSXRD2X86MD0UQGGBK1XP3I7K1WX","emotion","match","uniform","","","","","","","1585","383918","385503","[""stimuli/AF11_SUR.jpg"",""stimuli/BF05_SC.jpg"",""stimuli/WM11_FO.jpg"",""stimuli/BM16_HO.jpg""]","stimuli/AF11_SUR.jpg","stimuli/BF05_SC.jpg","stimuli/WM11_FO.jpg","stimuli/BM16_HO.jpg","pos4","stimuli/BM16_HO.jpg","HO","BM16","3","4","8","8","stimuli/stars_8.png","306","[""SUR"",""SC"",""FO"",""HO""]","[""AF11"",""BF05"",""WM11"",""BM16""]","[2,7,1,8]","[4,6,2,8]","","",""
"show-reward","164","386385","0.0-164.0","p355149","A368366DSK3KW6","3WPCIUYH1BELQU8EB2L3QVOOKYBTD4","3TMSXRD2X86MD0UQGGBK1XP3I7K1WX","emotion","match","uniform","","","","","","","","386008","388015","","","","","","","","","","","","8","","stimuli/stars_8.png","306","","","","","stimuli/BM16_HO.jpg","",""
"explore-choice","165","387864","0.0-165.0","p355149","A368366DSK3KW6","3WPCIUYH1BELQU8EB2L3QVOOKYBTD4","3TMSXRD2X86MD0UQGGBK1XP3I7K1WX","emotion","match","uniform","","","","","","","969","388016","388985","[""stimuli/WM11_SUR.jpg"",""stimuli/AF11_HO.jpg"",""stimuli/BM16_FO.jpg"",""stimuli/BF05_SC.jpg""]","stimuli/WM11_SUR.jpg","stimuli/AF11_HO.jpg","stimuli/BM16_FO.jpg","stimuli/BF05_SC.jpg","pos2","stimuli/AF11_HO.jpg","HO","AF11","1","4","8","8","stimuli/stars_8.png","310","[""SUR"",""HO"",""FO"",""SC""]","[""WM11"",""AF11"",""BM16"",""BF05""]","[5,8,3,8]","[4,8,2,6]","","",""
"show-reward","166","389878","0.0-166.0","p355149","A368366DSK3KW6","3WPCIUYH1BELQU8EB2L3QVOOKYBTD4","3TMSXRD2X86MD0UQGGBK1XP3I7K1WX","emotion","match","uniform","","","","","","","","389496","391508","","","","","","","","","","","","8","","stimuli/stars_8.png","310","","","","","stimuli/AF11_HO.jpg","",""
"explore-choice","167","391950","0.0-167.0","p355149","A368366DSK3KW6","3WPCIUYH1BELQU8EB2L3QVOOKYBTD4","3TMSXRD2X86MD0UQGGBK1XP3I7K1WX","emotion","match","uniform","","","","","","","1563","391510","393073","[""stimuli/BM16_FO.jpg"",""stimuli/BF05_SUR.jpg"",""stimuli/WM11_SC.jpg"",""stimuli/AF11_HO.jpg""]","stimuli/BM16_FO.jpg","stimuli/BF05_SUR.jpg","stimuli/WM11_SC.jpg","stimuli/AF11_HO.jpg","pos4","stimuli/AF11_HO.jpg","HO","AF11","3","4","8","8","stimuli/stars_8.png","314","[""FO"",""SUR"",""SC"",""HO""]","[""BM16"",""BF05"",""WM11"",""AF11""]","[0,3,6,8]","[2,4,6,8]","","",""
"show-reward","168","393962","0.0-168.0","p355149","A368366DSK3KW6","3WPCIUYH1BELQU8EB2L3QVOOKYBTD4","3TMSXRD2X86MD0UQGGBK1XP3I7K1WX","emotion","match","uniform","","","","","","","","393582","395592","","","","","","","","","","","","8","","stimuli/stars_8.png","314","","","","","stimuli/AF11_HO.jpg","",""
"explore-choice","169","395398","0.0-169.0","p355149","A368366DSK3KW6","3WPCIUYH1BELQU8EB2L3QVOOKYBTD4","3TMSXRD2X86MD0UQGGBK1XP3I7K1WX","emotion","match","uniform","","","","","","","923","395594","396517","[""stimuli/BM16_HO.jpg"",""stimuli/WM11_SUR.jpg"",""stimuli/BF05_FO.jpg"",""stimuli/AF11_SC.jpg""]","stimuli/BM16_HO.jpg","stimuli/WM11_SUR.jpg","stimuli/BF05_FO.jpg","stimuli/AF11_SC.jpg","pos1","stimuli/BM16_HO.jpg","HO","BM16","0","4","8","8","stimuli/stars_8.png","318","[""HO"",""SUR"",""FO"",""SC""]","[""BM16"",""WM11"",""BF05"",""AF11""]","[8,3,2,7]","[8,4,2,6]","","",""
"show-reward","170","397413","0.0-170.0","p355149","A368366DSK3KW6","3WPCIUYH1BELQU8EB2L3QVOOKYBTD4","3TMSXRD2X86MD0UQGGBK1XP3I7K1WX","emotion","match","uniform","","","","","","","","397029","399043","","","","","","","","","","","","8","","stimuli/stars_8.png","318","","","","","stimuli/BM16_HO.jpg","",""
"explore-choice","171","402903","0.0-171.0","p355149","A368366DSK3KW6","3WPCIUYH1BELQU8EB2L3QVOOKYBTD4","3TMSXRD2X86MD0UQGGBK1XP3I7K1WX","emotion","match","uniform","","","","","","","4975","399044","404019","[""stimuli/WM11_FO.jpg"",""stimuli/BF05_HO.jpg"",""stimuli/AF11_SC.jpg"",""stimuli/BM16_SUR.jpg""]","stimuli/WM11_FO.jpg","stimuli/BF05_HO.jpg","stimuli/AF11_SC.jpg","stimuli/BM16_SUR.jpg","pos2","stimuli/BF05_HO.jpg","HO","BF05","1","5","10","8","stimuli/stars_10.png","323","[""FO"",""HO"",""SC"",""SUR""]","[""WM11"",""BF05"",""AF11"",""BM16""]","[0,10,8,3]","[2,8,6,4]","","",""
"show-reward","172","404920","0.0-172.0","p355149","A368366DSK3KW6","3WPCIUYH1BELQU8EB2L3QVOOKYBTD4","3TMSXRD2X86MD0UQGGBK1XP3I7K1WX","emotion","match","uniform","","","","","","","","404534","406550","","","","","","","","","","","","10","","stimuli/stars_10.png","323","","","","","stimuli/BF05_HO.jpg","",""
"explore-choice","173","407357","0.0-173.0","p355149","A368366DSK3KW6","3WPCIUYH1BELQU8EB2L3QVOOKYBTD4","3TMSXRD2X86MD0UQGGBK1XP3I7K1WX","emotion","match","uniform","","","","","","","1936","406551","408487","[""stimuli/WM11_SC.jpg"",""stimuli/BF05_FO.jpg"",""stimuli/BM16_SUR.jpg"",""stimuli/AF11_HO.jpg""]","stimuli/WM11_SC.jpg","stimuli/BF05_FO.jpg","stimuli/BM16_SUR.jpg","stimuli/AF11_HO.jpg","pos4","stimuli/AF11_HO.jpg","HO","AF11","3","5","10","8","stimuli/stars_10.png","328","[""SC"",""FO"",""SUR"",""HO""]","[""WM11"",""BF05"",""BM16"",""AF11""]","[5,3,4,10]","[6,2,4,8]","","",""
"show-reward","174","409362","0.0-174.0","p355149","A368366DSK3KW6","3WPCIUYH1BELQU8EB2L3QVOOKYBTD4","3TMSXRD2X86MD0UQGGBK1XP3I7K1WX","emotion","match","uniform","","","","","","","","408988","410992","","","","","","","","","","","","10","","stimuli/stars_10.png","328","","","","","stimuli/AF11_HO.jpg","",""
"explore-choice","175","411884","0.0-175.0","p355149","A368366DSK3KW6","3WPCIUYH1BELQU8EB2L3QVOOKYBTD4","3TMSXRD2X86MD0UQGGBK1XP3I7K1WX","emotion","match","uniform","","","","","","","2017","410993","413010","[""stimuli/BF05_SUR.jpg"",""stimuli/AF11_FO.jpg"",""stimuli/WM11_HO.jpg"",""stimuli/BM16_SC.jpg""]","stimuli/BF05_SUR.jpg","stimuli/AF11_FO.jpg","stimuli/WM11_HO.jpg","stimuli/BM16_SC.jpg","pos3","stimuli/WM11_HO.jpg","HO","WM11","2","5","10","8","stimuli/stars_10.png","333","[""SUR"",""FO"",""HO"",""SC""]","[""BF05"",""AF11"",""WM11"",""BM16""]","[6,4,10,8]","[4,2,8,6]","","",""
"show-reward","176","413898","0.0-176.0","p355149","A368366DSK3KW6","3WPCIUYH1BELQU8EB2L3QVOOKYBTD4","3TMSXRD2X86MD0UQGGBK1XP3I7K1WX","emotion","match","uniform","","","","","","","","413514","415528","","","","","","","","","","","","10","","stimuli/stars_10.png","333","","","","","stimuli/WM11_HO.jpg","",""
"explore-choice","177","416143","0.0-177.0","p355149","A368366DSK3KW6","3WPCIUYH1BELQU8EB2L3QVOOKYBTD4","3TMSXRD2X86MD0UQGGBK1XP3I7K1WX","emotion","match","uniform","","","","","","","1739","415530","417269","[""stimuli/WM11_FO.jpg"",""stimuli/BM16_SC.jpg"",""stimuli/BF05_HO.jpg"",""stimuli/AF11_SUR.jpg""]","stimuli/WM11_FO.jpg","stimuli/BM16_SC.jpg","stimuli/BF05_HO.jpg","stimuli/AF11_SUR.jpg","pos3","stimuli/BF05_HO.jpg","HO","BF05","2","4","8","8","stimuli/stars_8.png","337","[""FO"",""SC"",""HO"",""SUR""]","[""WM11"",""BM16"",""BF05"",""AF11""]","[4,5,8,6]","[2,6,8,4]","","",""
"show-reward","178","418154","0.0-178.0","p355149","A368366DSK3KW6","3WPCIUYH1BELQU8EB2L3QVOOKYBTD4","3TMSXRD2X86MD0UQGGBK1XP3I7K1WX","emotion","match","uniform","","","","","","","","417774","419784","","","","","","","","","","","","8","","stimuli/stars_8.png","337","","","","","stimuli/BF05_HO.jpg","",""
"explore-choice","179","420793","0.0-179.0","p355149","A368366DSK3KW6","3WPCIUYH1BELQU8EB2L3QVOOKYBTD4","3TMSXRD2X86MD0UQGGBK1XP3I7K1WX","emotion","match","uniform","","","","","","","2130","419785","421915","[""stimuli/WM11_SUR.jpg"",""stimuli/BF05_FO.jpg"",""stimuli/BM16_SC.jpg"",""stimuli/AF11_HO.jpg""]","stimuli/WM11_SUR.jpg","stimuli/BF05_FO.jpg","stimuli/BM16_SC.jpg","stimuli/AF11_HO.jpg","pos4","stimuli/AF11_HO.jpg","HO","AF11","3","4","8","8","stimuli/stars_8.png","341","[""SUR"",""FO"",""SC"",""HO""]","[""WM11"",""BF05"",""BM16"",""AF11""]","[6,3,5,8]","[4,2,6,8]","","",""
"show-reward","180","422809","0.0-180.0","p355149","A368366DSK3KW6","3WPCIUYH1BELQU8EB2L3QVOOKYBTD4","3TMSXRD2X86MD0UQGGBK1XP3I7K1WX","emotion","match","uniform","","","","","","","","422425","424440","","","","","","","","","","","","8","","stimuli/stars_8.png","341","","","","","stimuli/AF11_HO.jpg","",""
"explore-choice","181","424680","0.0-181.0","p355149","A368366DSK3KW6","3WPCIUYH1BELQU8EB2L3QVOOKYBTD4","3TMSXRD2X86MD0UQGGBK1XP3I7K1WX","emotion","match","uniform","","","","","","","1361","424441","425802","[""stimuli/AF11_SC.jpg"",""stimuli/BM16_HO.jpg"",""stimuli/WM11_FO.jpg"",""stimuli/BF05_SUR.jpg""]","stimuli/AF11_SC.jpg","stimuli/BM16_HO.jpg","stimuli/WM11_FO.jpg","stimuli/BF05_SUR.jpg","pos2","stimuli/BM16_HO.jpg","HO","BM16","1","5","10","8","stimuli/stars_10.png","346","[""SC"",""HO"",""FO"",""SUR""]","[""AF11"",""BM16"",""WM11"",""BF05""]","[7,10,3,5]","[6,8,2,4]","","",""
"show-reward","182","426690","0.0-182.0","p355149","A368366DSK3KW6","3WPCIUYH1BELQU8EB2L3QVOOKYBTD4","3TMSXRD2X86MD0UQGGBK1XP3I7K1WX","emotion","match","uniform","","","","","","","","426312","428320","","","","","","","","","","","","10","","stimuli/stars_10.png","346","","","","","stimuli/BM16_HO.jpg","",""
"explore-choice","183","428118","0.0-183.0","p355149","A368366DSK3KW6","3WPCIUYH1BELQU8EB2L3QVOOKYBTD4","3TMSXRD2X86MD0UQGGBK1XP3I7K1WX","emotion","match","uniform","","","","","","","926","428320","429246","[""stimuli/WM11_HO.jpg"",""stimuli/BF05_FO.jpg"",""stimuli/BM16_SUR.jpg"",""stimuli/AF11_SC.jpg""]","stimuli/WM11_HO.jpg","stimuli/BF05_FO.jpg","stimuli/BM16_SUR.jpg","stimuli/AF11_SC.jpg","pos2","stimuli/BF05_FO.jpg","FO","BF05","1","1","2","2","stimuli/stars_2.png","347","[""HO"",""FO"",""SUR"",""SC""]","[""WM11"",""BF05"",""BM16"",""AF11""]","[9,2,2,4]","[8,2,4,6]","","",""
"show-reward","184","430132","0.0-184.0","p355149","A368366DSK3KW6","3WPCIUYH1BELQU8EB2L3QVOOKYBTD4","3TMSXRD2X86MD0UQGGBK1XP3I7K1WX","emotion","match","uniform","","","","","","","","429749","431763","","","","","","","","","","","","2","","stimuli/stars_2.png","347","","","","","stimuli/BF05_FO.jpg","",""
"explore-choice","185","431827","0.0-185.0","p355149","A368366DSK3KW6","3WPCIUYH1BELQU8EB2L3QVOOKYBTD4","3TMSXRD2X86MD0UQGGBK1XP3I7K1WX","emotion","match","uniform","","","","","","","1191","431764","432955","[""stimuli/BM16_HO.jpg"",""stimuli/WM11_SUR.jpg"",""stimuli/AF11_FO.jpg"",""stimuli/BF05_SC.jpg""]","stimuli/BM16_HO.jpg","stimuli/WM11_SUR.jpg","stimuli/AF11_FO.jpg","stimuli/BF05_SC.jpg","pos1","stimuli/BM16_HO.jpg","HO","BM16","0","4.5","9","8","stimuli/stars_9.png","351.5","[""HO"",""SUR"",""FO"",""SC""]","[""BM16"",""WM11"",""AF11"",""BF05""]","[9,2,2,5]","[8,4,2,6]","","",""
"show-reward","186","433845","0.0-186.0","p355149","A368366DSK3KW6","3WPCIUYH1BELQU8EB2L3QVOOKYBTD4","3TMSXRD2X86MD0UQGGBK1XP3I7K1WX","emotion","match","uniform","","","","","","","","433459","435474","","","","","","","","","","","","9","","stimuli/stars_9.png","351.5","","","","","stimuli/BM16_HO.jpg","",""
"explore-choice","187","436752","0.0-187.0","p355149","A368366DSK3KW6","3WPCIUYH1BELQU8EB2L3QVOOKYBTD4","3TMSXRD2X86MD0UQGGBK1XP3I7K1WX","emotion","match","uniform","","","","","","","2402","435476","437878","[""stimuli/WM11_HO.jpg"",""stimuli/AF11_SUR.jpg"",""stimuli/BM16_FO.jpg"",""stimuli/BF05_SC.jpg""]","stimuli/WM11_HO.jpg","stimuli/AF11_SUR.jpg","stimuli/BM16_FO.jpg","stimuli/BF05_SC.jpg","pos1","stimuli/WM11_HO.jpg","HO","WM11","0","4.5","9","8","stimuli/stars_9.png","356","[""HO"",""SUR"",""FO"",""SC""]","[""WM11"",""AF11"",""BM16"",""BF05""]","[9,4,0,7]","[8,4,2,6]","","",""
"show-reward","188","438770","0.0-188.0","p355149","A368366DSK3KW6","3WPCIUYH1BELQU8EB2L3QVOOKYBTD4","3TMSXRD2X86MD0UQGGBK1XP3I7K1WX","emotion","match","uniform","","","","","","","","438384","440400","","","","","","","","","","","","9","","stimuli/stars_9.png","356","","","","","stimuli/WM11_HO.jpg","",""
"explore-choice","189","440590","0.0-189.0","p355149","A368366DSK3KW6","3WPCIUYH1BELQU8EB2L3QVOOKYBTD4","3TMSXRD2X86MD0UQGGBK1XP3I7K1WX","emotion","match","uniform","","","","","","","1318","440401","441719","[""stimuli/BM16_HO.jpg"",""stimuli/BF05_SUR.jpg"",""stimuli/AF11_FO.jpg"",""stimuli/WM11_SC.jpg""]","stimuli/BM16_HO.jpg","stimuli/BF05_SUR.jpg","stimuli/AF11_FO.jpg","stimuli/WM11_SC.jpg","pos1","stimuli/BM16_HO.jpg","HO","BM16","0","5","10","8","stimuli/stars_10.png","361","[""HO"",""SUR"",""FO"",""SC""]","[""BM16"",""BF05"",""AF11"",""WM11""]","[10,3,0,7]","[8,4,2,6]","","",""
"show-reward","190","442599","0.0-190.0","p355149","A368366DSK3KW6","3WPCIUYH1BELQU8EB2L3QVOOKYBTD4","3TMSXRD2X86MD0UQGGBK1XP3I7K1WX","emotion","match","uniform","","","","","","","","442222","444230","","","","","","","","","","","","10","","stimuli/stars_10.png","361","","","","","stimuli/BM16_HO.jpg","",""
"explore-choice","191","444192","0.0-191.0","p355149","A368366DSK3KW6","3WPCIUYH1BELQU8EB2L3QVOOKYBTD4","3TMSXRD2X86MD0UQGGBK1XP3I7K1WX","emotion","match","uniform","","","","","","","1088","444231","445319","[""stimuli/AF11_HO.jpg"",""stimuli/BF05_SUR.jpg"",""stimuli/WM11_FO.jpg"",""stimuli/BM16_SC.jpg""]","stimuli/AF11_HO.jpg","stimuli/BF05_SUR.jpg","stimuli/WM11_FO.jpg","stimuli/BM16_SC.jpg","pos1","stimuli/AF11_HO.jpg","HO","AF11","0","4","8","8","stimuli/stars_8.png","365","[""HO"",""SUR"",""FO"",""SC""]","[""AF11"",""BF05"",""WM11"",""BM16""]","[8,4,2,6]","[8,4,2,6]","","",""
"show-reward","192","446197","0.0-192.0","p355149","A368366DSK3KW6","3WPCIUYH1BELQU8EB2L3QVOOKYBTD4","3TMSXRD2X86MD0UQGGBK1XP3I7K1WX","emotion","match","uniform","","","","","","","","445823","447827","","","","","","","","","","","","8","","stimuli/stars_8.png","365","","","","","stimuli/AF11_HO.jpg","",""
"explore-choice","193","448569","0.0-193.0","p355149","A368366DSK3KW6","3WPCIUYH1BELQU8EB2L3QVOOKYBTD4","3TMSXRD2X86MD0UQGGBK1XP3I7K1WX","emotion","match","uniform","","","","","","","1867","447828","449695","[""stimuli/AF11_SUR.jpg"",""stimuli/WM11_SC.jpg"",""stimuli/BF05_HO.jpg"",""stimuli/BM16_FO.jpg""]","stimuli/AF11_SUR.jpg","stimuli/WM11_SC.jpg","stimuli/BF05_HO.jpg","stimuli/BM16_FO.jpg","pos3","stimuli/BF05_HO.jpg","HO","BF05","2","4.5","9","8","stimuli/stars_9.png","369.5","[""SUR"",""SC"",""HO"",""FO""]","[""AF11"",""WM11"",""BF05"",""BM16""]","[4,4,9,3]","[4,6,8,2]","","",""
"show-reward","194","450583","0.0-194.0","p355149","A368366DSK3KW6","3WPCIUYH1BELQU8EB2L3QVOOKYBTD4","3TMSXRD2X86MD0UQGGBK1XP3I7K1WX","emotion","match","uniform","","","","","","","","450201","452212","","","","","","","","","","","","9","","stimuli/stars_9.png","369.5","","","","","stimuli/BF05_HO.jpg","",""
"explore-choice","195","452753","0.0-195.0","p355149","A368366DSK3KW6","3WPCIUYH1BELQU8EB2L3QVOOKYBTD4","3TMSXRD2X86MD0UQGGBK1XP3I7K1WX","emotion","match","uniform","","","","","","","1651","452215","453866","[""stimuli/WM11_HO.jpg"",""stimuli/BM16_SC.jpg"",""stimuli/AF11_SUR.jpg"",""stimuli/BF05_FO.jpg""]","stimuli/WM11_HO.jpg","stimuli/BM16_SC.jpg","stimuli/AF11_SUR.jpg","stimuli/BF05_FO.jpg","pos1","stimuli/WM11_HO.jpg","HO","WM11","0","4","8","8","stimuli/stars_8.png","373.5","[""HO"",""SC"",""SUR"",""FO""]","[""WM11"",""BM16"",""AF11"",""BF05""]","[8,8,5,2]","[8,6,4,2]","","",""
"show-reward","196","454775","0.0-196.0","p355149","A368366DSK3KW6","3WPCIUYH1BELQU8EB2L3QVOOKYBTD4","3TMSXRD2X86MD0UQGGBK1XP3I7K1WX","emotion","match","uniform","","","","","","","","454384","456404","","","","","","","","","","","","8","","stimuli/stars_8.png","373.5","","","","","stimuli/WM11_HO.jpg","",""
"explore-choice","197","456350","0.0-197.0","p355149","A368366DSK3KW6","3WPCIUYH1BELQU8EB2L3QVOOKYBTD4","3TMSXRD2X86MD0UQGGBK1XP3I7K1WX","emotion","match","uniform","","","","","","","1060","456407","457467","[""stimuli/AF11_HO.jpg"",""stimuli/BF05_SC.jpg"",""stimuli/WM11_FO.jpg"",""stimuli/BM16_SUR.jpg""]","stimuli/AF11_HO.jpg","stimuli/BF05_SC.jpg","stimuli/WM11_FO.jpg","stimuli/BM16_SUR.jpg","pos1","stimuli/AF11_HO.jpg","HO","AF11","0","4.5","9","8","stimuli/stars_9.png","378","[""HO"",""SC"",""FO"",""SUR""]","[""AF11"",""BF05"",""WM11"",""BM16""]","[9,7,0,4]","[8,6,2,4]","","",""
"show-reward","198","458356","0.0-198.0","p355149","A368366DSK3KW6","3WPCIUYH1BELQU8EB2L3QVOOKYBTD4","3TMSXRD2X86MD0UQGGBK1XP3I7K1WX","emotion","match","uniform","","","","","","","","457981","459987","","","","","","","","","","","","9","","stimuli/stars_9.png","378","","","","","stimuli/AF11_HO.jpg","",""
"instructions","199","464221","0.0-199.0","p355149","A368366DSK3KW6","3WPCIUYH1BELQU8EB2L3QVOOKYBTD4","3TMSXRD2X86MD0UQGGBK1XP3I7K1WX","emotion","match","uniform","","","","","","[{""page_index"":0,""viewing_time"":5863}]","5863","","","","","","","","","","","","","","","","","","","","","","","",""
"survey-text","200","467638","0.0-200.0-0.0","p355149","A368366DSK3KW6","3WPCIUYH1BELQU8EB2L3QVOOKYBTD4","3TMSXRD2X86MD0UQGGBK1XP3I7K1WX","emotion","match","uniform","","","","","","","3411","","","","","","","","","","","","","","","","","","","","","","","{""age"":""43""}",""
"survey-text","201","472625","0.0-200.0-1.0","p355149","A368366DSK3KW6","3WPCIUYH1BELQU8EB2L3QVOOKYBTD4","3TMSXRD2X86MD0UQGGBK1XP3I7K1WX","emotion","match","uniform","","","","","","","4982","","","","","","","","","","","","","","","","","","","","","","","{""gender"":""female""}",""
"survey-text","202","479115","0.0-200.0-2.0","p355149","A368366DSK3KW6","3WPCIUYH1BELQU8EB2L3QVOOKYBTD4","3TMSXRD2X86MD0UQGGBK1XP3I7K1WX","emotion","match","uniform","","","","","","","6485","","","","","","","","","","","","","","","","","","","","","","","{""country"":""united states""}",""
"survey-text","203","484647","0.0-200.0-3.0","p355149","A368366DSK3KW6","3WPCIUYH1BELQU8EB2L3QVOOKYBTD4","3TMSXRD2X86MD0UQGGBK1XP3I7K1WX","emotion","match","uniform","","","","","","","5527","","","","","","","","","","","","","","","","","","","","","","","{""language"":""english"",""other_languages"":""""}",""
"survey-multi-select","204","486827","0.0-201.0","p355149","A368366DSK3KW6","3WPCIUYH1BELQU8EB2L3QVOOKYBTD4","3TMSXRD2X86MD0UQGGBK1XP3I7K1WX","emotion","match","uniform","","","","","","","2177","","","","","","","","","","","","","","","","","","","","","","","{""race"":[""White""]}","[0]"
"survey-multi-choice","205","490672","0.0-202.0","p355149","A368366DSK3KW6","3WPCIUYH1BELQU8EB2L3QVOOKYBTD4","3TMSXRD2X86MD0UQGGBK1XP3I7K1WX","emotion","match","uniform","","","","","","","3843","","","","","","","","","","","","","","","","","","","","","","","{""education"":""Some college/ university""}","[0]"
"survey-text","206","514134","0.0-203.0","p355149","A368366DSK3KW6","3WPCIUYH1BELQU8EB2L3QVOOKYBTD4","3TMSXRD2X86MD0UQGGBK1XP3I7K1WX","emotion","match","uniform","","","","","","","23453","","","","","","","","","","","","","","","","","","","","","","","{""patterns"":""It seemed like smiles gave you the most stars"",""strategy"":""smiles gave the most stars"",""comments"":""""}",""
