"trial_type","trial_index","time_elapsed","internal_node_id","subject","workerId","hitId","assignmentId","structure_condition","match_condition","noise_type","success","timeout","failed_images","failed_audio","failed_video","view_history","rt","start_time","end_time","stimuli","image1","image2","image3","image4","choiceLocation","choiceImage","choiceEmotion","choiceModel","choice_index","reward_score","reward","reward_score_unadjusted","reward_image","score_after_trial","emotions","models","rewards","rewards_unadjusted","stimulus","response","question_order"
"pavlovia","0","5","0.0-0.0","p454325","A1DZMZTXWOM9MR","3WRBLBQ2GSENM5LEFQY1C5PG0GV0GC","33IZTU6J8371WKYA34MQZHQJH92XS5","emotion","match","uniform","","","","","","","","","","","","","","","","","","","","","","","","","","","","","","",""
"preload","1","3578","0.0-1.0","p454325","A1DZMZTXWOM9MR","3WRBLBQ2GSENM5LEFQY1C5PG0GV0GC","33IZTU6J8371WKYA34MQZHQJH92XS5","emotion","match","uniform","true","false","[]","[]","[]","","","","","","","","","","","","","","","","","","","","","","","","","",""
"fullscreen","2","12388","0.0-2.0","p454325","A1DZMZTXWOM9MR","3WRBLBQ2GSENM5LEFQY1C5PG0GV0GC","33IZTU6J8371WKYA34MQZHQJH92XS5","emotion","match","uniform","true","","","","","","","","","","","","","","","","","","","","","","","","","","","","","",""
"instructions","3","22661","0.0-3.0","p454325","A1DZMZTXWOM9MR","3WRBLBQ2GSENM5LEFQY1C5PG0GV0GC","33IZTU6J8371WKYA34MQZHQJH92XS5","emotion","match","uniform","","","","","","[{""page_index"":0,""viewing_time"":10271.900000000373}]","10272.200000000186","","","","","","","","","","","","","","","","","","","","","","","",""
"explore-choice","4","26477","0.0-4.0","p454325","A1DZMZTXWOM9MR","3WRBLBQ2GSENM5LEFQY1C5PG0GV0GC","33IZTU6J8371WKYA34MQZHQJH92XS5","emotion","match","uniform","","","","","","","3313.9000000003725","24044.299999999814","27358.200000000186","[""stimuli/sheep.jpg"",""stimuli/hammer.jpg"",""stimuli/basketball.jpg"",""stimuli/horse.jpg""]","stimuli/sheep.jpg","stimuli/hammer.jpg","stimuli/basketball.jpg","stimuli/horse.jpg","pos4","stimuli/horse.jpg","","","3","64","64","64","stimuli/stars_8.png","65","","","","","","",""
"explore-choice","5","29506","0.0-5.0","p454325","A1DZMZTXWOM9MR","3WRBLBQ2GSENM5LEFQY1C5PG0GV0GC","33IZTU6J8371WKYA34MQZHQJH92XS5","emotion","match","uniform","","","","","","","2526.5","27861.599999999627","30388.099999999627","[""stimuli/hammer.jpg"",""stimuli/basketball.jpg"",""stimuli/horse.jpg"",""stimuli/sheep.jpg""]","stimuli/hammer.jpg","stimuli/basketball.jpg","stimuli/horse.jpg","stimuli/sheep.jpg","pos1","stimuli/hammer.jpg","","","0","8","8","8","stimuli/stars_2.png","9","","","","","","",""
"instructions","6","123283","0.0-6.0","p454325","A1DZMZTXWOM9MR","3WRBLBQ2GSENM5LEFQY1C5PG0GV0GC","33IZTU6J8371WKYA34MQZHQJH92XS5","emotion","match","uniform","","","","","","[{""page_index"":0,""viewing_time"":93774.90000000037}]","93775.10000000056","","","","","","","","","","","","","","","","","","","","","","","",""
"explore-choice","7","125044","0.0-7.0","p454325","A1DZMZTXWOM9MR","3WRBLBQ2GSENM5LEFQY1C5PG0GV0GC","33IZTU6J8371WKYA34MQZHQJH92XS5","emotion","match","uniform","","","","","","","1258.9000000003725","124666.59999999963","125925.5","[""stimuli/AF02_SC.jpg"",""stimuli/HM07_CC.jpg"",""stimuli/BF06_SUR.jpg"",""stimuli/BM04_HO.jpg""]","stimuli/AF02_SC.jpg","stimuli/HM07_CC.jpg","stimuli/BF06_SUR.jpg","stimuli/BM04_HO.jpg","pos1","stimuli/AF02_SC.jpg","SC","AF02","0","1.5","3","2","stimuli/stars_3.png","2.5","[""SC"",""CC"",""SUR"",""HO""]","[""AF02"",""HM07"",""BF06"",""BM04""]","[3,5,2,8]","[2,6,4,8]","","",""
"show-reward","8","127047","0.0-8.0","p454325","A1DZMZTXWOM9MR","3WRBLBQ2GSENM5LEFQY1C5PG0GV0GC","33IZTU6J8371WKYA34MQZHQJH92XS5","emotion","match","uniform","","","","","","","","126427.5","128429.29999999981","","","","","","","","","","","","3","","stimuli/stars_3.png","2.5","","","","","stimuli/AF02_SC.jpg","",""
"explore-choice","9","128921","0.0-9.0","p454325","A1DZMZTXWOM9MR","3WRBLBQ2GSENM5LEFQY1C5PG0GV0GC","33IZTU6J8371WKYA34MQZHQJH92XS5","emotion","match","uniform","","","","","","","1372.699999999255","128430.20000000019","129802.89999999944","[""stimuli/BF06_HO.jpg"",""stimuli/AF02_SC.jpg"",""stimuli/HM07_SUR.jpg"",""stimuli/BM04_CC.jpg""]","stimuli/BF06_HO.jpg","stimuli/AF02_SC.jpg","stimuli/HM07_SUR.jpg","stimuli/BM04_CC.jpg","pos1","stimuli/BF06_HO.jpg","HO","BF06","0","4","8","8","stimuli/stars_8.png","6.5","[""HO"",""SC"",""SUR"",""CC""]","[""BF06"",""AF02"",""HM07"",""BM04""]","[8,4,4,5]","[8,2,4,6]","","",""
"show-reward","10","130922","0.0-10.0","p454325","A1DZMZTXWOM9MR","3WRBLBQ2GSENM5LEFQY1C5PG0GV0GC","33IZTU6J8371WKYA34MQZHQJH92XS5","emotion","match","uniform","","","","","","","","130303.59999999963","132304.59999999963","","","","","","","","","","","","8","","stimuli/stars_8.png","6.5","","","","","stimuli/BF06_HO.jpg","",""
"explore-choice","11","133001","0.0-11.0","p454325","A1DZMZTXWOM9MR","3WRBLBQ2GSENM5LEFQY1C5PG0GV0GC","33IZTU6J8371WKYA34MQZHQJH92XS5","emotion","match","uniform","","","","","","","1577.6000000005588","132304.89999999944","133882.5","[""stimuli/BF06_CC.jpg"",""stimuli/BM04_SUR.jpg"",""stimuli/HM07_SC.jpg"",""stimuli/AF02_HO.jpg""]","stimuli/BF06_CC.jpg","stimuli/BM04_SUR.jpg","stimuli/HM07_SC.jpg","stimuli/AF02_HO.jpg","pos3","stimuli/HM07_SC.jpg","SC","HM07","2","0","0","2","stimuli/stars_0.png","6.5","[""CC"",""SUR"",""SC"",""HO""]","[""BF06"",""BM04"",""HM07"",""AF02""]","[4,5,0,10]","[6,4,2,8]","","",""
"show-reward","12","135008","0.0-12.0","p454325","A1DZMZTXWOM9MR","3WRBLBQ2GSENM5LEFQY1C5PG0GV0GC","33IZTU6J8371WKYA34MQZHQJH92XS5","emotion","match","uniform","","","","","","","","134385","136389.89999999944","","","","","","","","","","","","0","","stimuli/stars_0.png","6.5","","","","","stimuli/HM07_SC.jpg","",""
"explore-choice","13","137658","0.0-13.0","p454325","A1DZMZTXWOM9MR","3WRBLBQ2GSENM5LEFQY1C5PG0GV0GC","33IZTU6J8371WKYA34MQZHQJH92XS5","emotion","match","uniform","","","","","","","2148.800000000745","136390.89999999944","138539.7000000002","[""stimuli/BF06_SUR.jpg"",""stimuli/AF02_SC.jpg"",""stimuli/BM04_CC.jpg"",""stimuli/HM07_HO.jpg""]","stimuli/BF06_SUR.jpg","stimuli/AF02_SC.jpg","stimuli/BM04_CC.jpg","stimuli/HM07_HO.jpg","pos4","stimuli/HM07_HO.jpg","HO","HM07","3","3","6","8","stimuli/stars_6.png","9.5","[""SUR"",""SC"",""CC"",""HO""]","[""BF06"",""AF02"",""BM04"",""HM07""]","[4,1,6,6]","[4,2,6,8]","","",""
"show-reward","14","139660","0.0-14.0","p454325","A1DZMZTXWOM9MR","3WRBLBQ2GSENM5LEFQY1C5PG0GV0GC","33IZTU6J8371WKYA34MQZHQJH92XS5","emotion","match","uniform","","","","","","","","139040.89999999944","141042.2000000002","","","","","","","","","","","","6","","stimuli/stars_6.png","9.5","","","","","stimuli/HM07_HO.jpg","",""
"explore-choice","15","141716","0.0-15.0","p454325","A1DZMZTXWOM9MR","3WRBLBQ2GSENM5LEFQY1C5PG0GV0GC","33IZTU6J8371WKYA34MQZHQJH92XS5","emotion","match","uniform","","","","","","","1554.5","141042.89999999944","142597.39999999944","[""stimuli/BM04_HO.jpg"",""stimuli/AF02_CC.jpg"",""stimuli/HM07_SUR.jpg"",""stimuli/BF06_SC.jpg""]","stimuli/BM04_HO.jpg","stimuli/AF02_CC.jpg","stimuli/HM07_SUR.jpg","stimuli/BF06_SC.jpg","pos4","stimuli/BF06_SC.jpg","SC","BF06","3","1.5","3","2","stimuli/stars_3.png","11","[""HO"",""CC"",""SUR"",""SC""]","[""BM04"",""AF02"",""HM07"",""BF06""]","[9,5,2,3]","[8,6,4,2]","","",""
"show-reward","16","143725","0.0-16.0","p454325","A1DZMZTXWOM9MR","3WRBLBQ2GSENM5LEFQY1C5PG0GV0GC","33IZTU6J8371WKYA34MQZHQJH92XS5","emotion","match","uniform","","","","","","","","143099.89999999944","145107.39999999944","","","","","","","","","","","","3","","stimuli/stars_3.png","11","","","","","stimuli/BF06_SC.jpg","",""
"explore-choice","17","145848","0.0-17.0","p454325","A1DZMZTXWOM9MR","3WRBLBQ2GSENM5LEFQY1C5PG0GV0GC","33IZTU6J8371WKYA34MQZHQJH92XS5","emotion","match","uniform","","","","","","","1622","145108","146730","[""stimuli/AF02_CC.jpg"",""stimuli/BM04_HO.jpg"",""stimuli/BF06_SUR.jpg"",""stimuli/HM07_SC.jpg""]","stimuli/AF02_CC.jpg","stimuli/BM04_HO.jpg","stimuli/BF06_SUR.jpg","stimuli/HM07_SC.jpg","pos1","stimuli/AF02_CC.jpg","CC","AF02","0","3.5","7","6","stimuli/stars_7.png","14.5","[""CC"",""HO"",""SUR"",""SC""]","[""AF02"",""BM04"",""BF06"",""HM07""]","[7,8,6,2]","[6,8,4,2]","","",""
"show-reward","18","147854","0.0-18.0","p454325","A1DZMZTXWOM9MR","3WRBLBQ2GSENM5LEFQY1C5PG0GV0GC","33IZTU6J8371WKYA34MQZHQJH92XS5","emotion","match","uniform","","","","","","","","147230.59999999963","149235.5","","","","","","","","","","","","7","","stimuli/stars_7.png","14.5","","","","","stimuli/AF02_CC.jpg","",""
"explore-choice","19","149433","0.0-19.0","p454325","A1DZMZTXWOM9MR","3WRBLBQ2GSENM5LEFQY1C5PG0GV0GC","33IZTU6J8371WKYA34MQZHQJH92XS5","emotion","match","uniform","","","","","","","1077.7999999998137","149237.09999999963","150314.89999999944","[""stimuli/HM07_CC.jpg"",""stimuli/AF02_HO.jpg"",""stimuli/BM04_SC.jpg"",""stimuli/BF06_SUR.jpg""]","stimuli/HM07_CC.jpg","stimuli/AF02_HO.jpg","stimuli/BM04_SC.jpg","stimuli/BF06_SUR.jpg","pos2","stimuli/AF02_HO.jpg","HO","AF02","1","3","6","8","stimuli/stars_6.png","17.5","[""CC"",""HO"",""SC"",""SUR""]","[""HM07"",""AF02"",""BM04"",""BF06""]","[6,6,2,2]","[6,8,2,4]","","",""
"show-reward","20","151436","0.0-20.0","p454325","A1DZMZTXWOM9MR","3WRBLBQ2GSENM5LEFQY1C5PG0GV0GC","33IZTU6J8371WKYA34MQZHQJH92XS5","emotion","match","uniform","","","","","","","","150816.09999999963","152817.89999999944","","","","","","","","","","","","6","","stimuli/stars_6.png","17.5","","","","","stimuli/AF02_HO.jpg","",""
"explore-choice","21","153446","0.0-21.0","p454325","A1DZMZTXWOM9MR","3WRBLBQ2GSENM5LEFQY1C5PG0GV0GC","33IZTU6J8371WKYA34MQZHQJH92XS5","emotion","match","uniform","","","","","","","1508.800000000745","152818.39999999944","154327.2000000002","[""stimuli/BF06_CC.jpg"",""stimuli/AF02_SC.jpg"",""stimuli/HM07_SUR.jpg"",""stimuli/BM04_HO.jpg""]","stimuli/BF06_CC.jpg","stimuli/AF02_SC.jpg","stimuli/HM07_SUR.jpg","stimuli/BM04_HO.jpg","pos3","stimuli/HM07_SUR.jpg","SUR","HM07","2","2","4","4","stimuli/stars_4.png","19.5","[""CC"",""SC"",""SUR"",""HO""]","[""BF06"",""AF02"",""HM07"",""BM04""]","[7,0,4,7]","[6,2,4,8]","","",""
"show-reward","22","155448","0.0-22.0","p454325","A1DZMZTXWOM9MR","3WRBLBQ2GSENM5LEFQY1C5PG0GV0GC","33IZTU6J8371WKYA34MQZHQJH92XS5","emotion","match","uniform","","","","","","","","154828.39999999944","156830.5","","","","","","","","","","","","4","","stimuli/stars_4.png","19.5","","","","","stimuli/HM07_SUR.jpg","",""
"explore-choice","23","157183","0.0-23.0","p454325","A1DZMZTXWOM9MR","3WRBLBQ2GSENM5LEFQY1C5PG0GV0GC","33IZTU6J8371WKYA34MQZHQJH92XS5","emotion","match","uniform","","","","","","","1233.7000000001863","156830.89999999944","158064.59999999963","[""stimuli/BF06_SUR.jpg"",""stimuli/HM07_SC.jpg"",""stimuli/BM04_CC.jpg"",""stimuli/AF02_HO.jpg""]","stimuli/BF06_SUR.jpg","stimuli/HM07_SC.jpg","stimuli/BM04_CC.jpg","stimuli/AF02_HO.jpg","pos4","stimuli/AF02_HO.jpg","HO","AF02","3","3","6","8","stimuli/stars_6.png","22.5","[""SUR"",""SC"",""CC"",""HO""]","[""BF06"",""HM07"",""BM04"",""AF02""]","[4,4,7,6]","[4,2,6,8]","","",""
"show-reward","24","159185","0.0-24.0","p454325","A1DZMZTXWOM9MR","3WRBLBQ2GSENM5LEFQY1C5PG0GV0GC","33IZTU6J8371WKYA34MQZHQJH92XS5","emotion","match","uniform","","","","","","","","158565.59999999963","160567.39999999944","","","","","","","","","","","","6","","stimuli/stars_6.png","22.5","","","","","stimuli/AF02_HO.jpg","",""
"explore-choice","25","160955","0.0-25.0","p454325","A1DZMZTXWOM9MR","3WRBLBQ2GSENM5LEFQY1C5PG0GV0GC","33IZTU6J8371WKYA34MQZHQJH92XS5","emotion","match","uniform","","","","","","","1267.5999999996275","160568.7000000002","161836.2999999998","[""stimuli/AF02_SUR.jpg"",""stimuli/BF06_HO.jpg"",""stimuli/BM04_CC.jpg"",""stimuli/HM07_SC.jpg""]","stimuli/AF02_SUR.jpg","stimuli/BF06_HO.jpg","stimuli/BM04_CC.jpg","stimuli/HM07_SC.jpg","pos2","stimuli/BF06_HO.jpg","HO","BF06","1","3","6","8","stimuli/stars_6.png","25.5","[""SUR"",""HO"",""CC"",""SC""]","[""AF02"",""BF06"",""BM04"",""HM07""]","[3,6,5,3]","[4,8,6,2]","","",""
"show-reward","26","162957","0.0-26.0","p454325","A1DZMZTXWOM9MR","3WRBLBQ2GSENM5LEFQY1C5PG0GV0GC","33IZTU6J8371WKYA34MQZHQJH92XS5","emotion","match","uniform","","","","","","","","162337.2000000002","164339.09999999963","","","","","","","","","","","","6","","stimuli/stars_6.png","25.5","","","","","stimuli/BF06_HO.jpg","",""
"explore-choice","27","165073","0.0-27.0","p454325","A1DZMZTXWOM9MR","3WRBLBQ2GSENM5LEFQY1C5PG0GV0GC","33IZTU6J8371WKYA34MQZHQJH92XS5","emotion","match","uniform","","","","","","","1615.7000000001863","164339.5","165955.2000000002","[""stimuli/HM07_CC.jpg"",""stimuli/AF02_SUR.jpg"",""stimuli/BF06_HO.jpg"",""stimuli/BM04_SC.jpg""]","stimuli/HM07_CC.jpg","stimuli/AF02_SUR.jpg","stimuli/BF06_HO.jpg","stimuli/BM04_SC.jpg","pos3","stimuli/BF06_HO.jpg","HO","BF06","2","4.5","9","8","stimuli/stars_9.png","30","[""CC"",""SUR"",""HO"",""SC""]","[""HM07"",""AF02"",""BF06"",""BM04""]","[4,5,9,0]","[6,4,8,2]","","",""
"show-reward","28","167082","0.0-28.0","p454325","A1DZMZTXWOM9MR","3WRBLBQ2GSENM5LEFQY1C5PG0GV0GC","33IZTU6J8371WKYA34MQZHQJH92XS5","emotion","match","uniform","","","","","","","","166455.7999999998","168464.09999999963","","","","","","","","","","","","9","","stimuli/stars_9.png","30","","","","","stimuli/BF06_HO.jpg","",""
"explore-choice","29","169611","0.0-29.0","p454325","A1DZMZTXWOM9MR","3WRBLBQ2GSENM5LEFQY1C5PG0GV0GC","33IZTU6J8371WKYA34MQZHQJH92XS5","emotion","match","uniform","","","","","","","2028.0999999996275","168464.5","170492.59999999963","[""stimuli/BM04_SUR.jpg"",""stimuli/AF02_CC.jpg"",""stimuli/BF06_SC.jpg"",""stimuli/HM07_HO.jpg""]","stimuli/BM04_SUR.jpg","stimuli/AF02_CC.jpg","stimuli/BF06_SC.jpg","stimuli/HM07_HO.jpg","pos4","stimuli/HM07_HO.jpg","HO","HM07","3","5","10","8","stimuli/stars_10.png","35","[""SUR"",""CC"",""SC"",""HO""]","[""BM04"",""AF02"",""BF06"",""HM07""]","[4,4,0,10]","[4,6,2,8]","","",""
"show-reward","30","171628","0.0-30.0","p454325","A1DZMZTXWOM9MR","3WRBLBQ2GSENM5LEFQY1C5PG0GV0GC","33IZTU6J8371WKYA34MQZHQJH92XS5","emotion","match","uniform","","","","","","","","170993.39999999944","173010.2999999998","","","","","","","","","","","","10","","stimuli/stars_10.png","35","","","","","stimuli/HM07_HO.jpg","",""
"explore-choice","31","173698","0.0-31.0","p454325","A1DZMZTXWOM9MR","3WRBLBQ2GSENM5LEFQY1C5PG0GV0GC","33IZTU6J8371WKYA34MQZHQJH92XS5","emotion","match","uniform","","","","","","","1567.2000000001863","173012.2999999998","174579.5","[""stimuli/BM04_SUR.jpg"",""stimuli/HM07_HO.jpg"",""stimuli/AF02_SC.jpg"",""stimuli/BF06_CC.jpg""]","stimuli/BM04_SUR.jpg","stimuli/HM07_HO.jpg","stimuli/AF02_SC.jpg","stimuli/BF06_CC.jpg","pos2","stimuli/HM07_HO.jpg","HO","HM07","1","3.5","7","8","stimuli/stars_7.png","38.5","[""SUR"",""HO"",""SC"",""CC""]","[""BM04"",""HM07"",""AF02"",""BF06""]","[4,7,3,5]","[4,8,2,6]","","",""
"show-reward","32","175704","0.0-32.0","p454325","A1DZMZTXWOM9MR","3WRBLBQ2GSENM5LEFQY1C5PG0GV0GC","33IZTU6J8371WKYA34MQZHQJH92XS5","emotion","match","uniform","","","","","","","","175081","177085.89999999944","","","","","","","","","","","","7","","stimuli/stars_7.png","38.5","","","","","stimuli/HM07_HO.jpg","",""
"explore-choice","33","178927","0.0-33.0","p454325","A1DZMZTXWOM9MR","3WRBLBQ2GSENM5LEFQY1C5PG0GV0GC","33IZTU6J8371WKYA34MQZHQJH92XS5","emotion","match","uniform","","","","","","","2721.199999999255","177086.7000000002","179807.89999999944","[""stimuli/BM04_HO.jpg"",""stimuli/AF02_SUR.jpg"",""stimuli/HM07_CC.jpg"",""stimuli/BF06_SC.jpg""]","stimuli/BM04_HO.jpg","stimuli/AF02_SUR.jpg","stimuli/HM07_CC.jpg","stimuli/BF06_SC.jpg","pos1","stimuli/BM04_HO.jpg","HO","BM04","0","3.5","7","8","stimuli/stars_7.png","42","[""HO"",""SUR"",""CC"",""SC""]","[""BM04"",""AF02"",""HM07"",""BF06""]","[7,6,6,2]","[8,4,6,2]","","",""
"show-reward","34","180929","0.0-34.0","p454325","A1DZMZTXWOM9MR","3WRBLBQ2GSENM5LEFQY1C5PG0GV0GC","33IZTU6J8371WKYA34MQZHQJH92XS5","emotion","match","uniform","","","","","","","","180309.2999999998","182310.7999999998","","","","","","","","","","","","7","","stimuli/stars_7.png","42","","","","","stimuli/BM04_HO.jpg","",""
"explore-choice","35","183451","0.0-35.0","p454325","A1DZMZTXWOM9MR","3WRBLBQ2GSENM5LEFQY1C5PG0GV0GC","33IZTU6J8371WKYA34MQZHQJH92XS5","emotion","match","uniform","","","","","","","2021.7999999998137","182311.2000000002","184333","[""stimuli/BM04_SUR.jpg"",""stimuli/AF02_HO.jpg"",""stimuli/HM07_CC.jpg"",""stimuli/BF06_SC.jpg""]","stimuli/BM04_SUR.jpg","stimuli/AF02_HO.jpg","stimuli/HM07_CC.jpg","stimuli/BF06_SC.jpg","pos2","stimuli/AF02_HO.jpg","HO","AF02","1","4.5","9","8","stimuli/stars_9.png","46.5","[""SUR"",""HO"",""CC"",""SC""]","[""BM04"",""AF02"",""HM07"",""BF06""]","[2,9,7,4]","[4,8,6,2]","","",""
"show-reward","36","185467","0.0-36.0","p454325","A1DZMZTXWOM9MR","3WRBLBQ2GSENM5LEFQY1C5PG0GV0GC","33IZTU6J8371WKYA34MQZHQJH92XS5","emotion","match","uniform","","","","","","","","184833.5","186848.89999999944","","","","","","","","","","","","9","","stimuli/stars_9.png","46.5","","","","","stimuli/AF02_HO.jpg","",""
"explore-choice","37","187873","0.0-37.0","p454325","A1DZMZTXWOM9MR","3WRBLBQ2GSENM5LEFQY1C5PG0GV0GC","33IZTU6J8371WKYA34MQZHQJH92XS5","emotion","match","uniform","","","","","","","1904.7999999998137","186849.2999999998","188754.09999999963","[""stimuli/AF02_HO.jpg"",""stimuli/BF06_SC.jpg"",""stimuli/BM04_CC.jpg"",""stimuli/HM07_SUR.jpg""]","stimuli/AF02_HO.jpg","stimuli/BF06_SC.jpg","stimuli/BM04_CC.jpg","stimuli/HM07_SUR.jpg","pos1","stimuli/AF02_HO.jpg","HO","AF02","0","3.5","7","8","stimuli/stars_7.png","50","[""HO"",""SC"",""CC"",""SUR""]","[""AF02"",""BF06"",""BM04"",""HM07""]","[7,2,6,5]","[8,2,6,4]","","",""
"show-reward","38","189885","0.0-38.0","p454325","A1DZMZTXWOM9MR","3WRBLBQ2GSENM5LEFQY1C5PG0GV0GC","33IZTU6J8371WKYA34MQZHQJH92XS5","emotion","match","uniform","","","","","","","","189256.2999999998","191267.5","","","","","","","","","","","","7","","stimuli/stars_7.png","50","","","","","stimuli/AF02_HO.jpg","",""
"explore-choice","39","195629","0.0-39.0","p454325","A1DZMZTXWOM9MR","3WRBLBQ2GSENM5LEFQY1C5PG0GV0GC","33IZTU6J8371WKYA34MQZHQJH92XS5","emotion","match","uniform","","","","","","","5241.100000000559","191267.89999999944","196509","[""stimuli/AF02_SUR.jpg"",""stimuli/BF06_SC.jpg"",""stimuli/BM04_CC.jpg"",""stimuli/HM07_HO.jpg""]","stimuli/AF02_SUR.jpg","stimuli/BF06_SC.jpg","stimuli/BM04_CC.jpg","stimuli/HM07_HO.jpg","pos4","stimuli/HM07_HO.jpg","HO","HM07","3","4.5","9","8","stimuli/stars_9.png","54.5","[""SUR"",""SC"",""CC"",""HO""]","[""AF02"",""BF06"",""BM04"",""HM07""]","[3,3,4,9]","[4,2,6,8]","","",""
"show-reward","40","197642","0.0-40.0","p454325","A1DZMZTXWOM9MR","3WRBLBQ2GSENM5LEFQY1C5PG0GV0GC","33IZTU6J8371WKYA34MQZHQJH92XS5","emotion","match","uniform","","","","","","","","197011.59999999963","199024.7000000002","","","","","","","","","","","","9","","stimuli/stars_9.png","54.5","","","","","stimuli/HM07_HO.jpg","",""
"explore-choice","41","205205","0.0-41.0","p454325","A1DZMZTXWOM9MR","3WRBLBQ2GSENM5LEFQY1C5PG0GV0GC","33IZTU6J8371WKYA34MQZHQJH92XS5","emotion","match","uniform","","","","","","","7062.0999999996275","199025.2000000002","206087.2999999998","[""stimuli/HM07_HO.jpg"",""stimuli/AF02_SUR.jpg"",""stimuli/BM04_SC.jpg"",""stimuli/BF06_CC.jpg""]","stimuli/HM07_HO.jpg","stimuli/AF02_SUR.jpg","stimuli/BM04_SC.jpg","stimuli/BF06_CC.jpg","pos1","stimuli/HM07_HO.jpg","HO","HM07","0","4.5","9","8","stimuli/stars_9.png","59","[""HO"",""SUR"",""SC"",""CC""]","[""HM07"",""AF02"",""BM04"",""BF06""]","[9,3,0,4]","[8,4,2,6]","","",""
"show-reward","42","207207","0.0-42.0","p454325","A1DZMZTXWOM9MR","3WRBLBQ2GSENM5LEFQY1C5PG0GV0GC","33IZTU6J8371WKYA34MQZHQJH92XS5","emotion","match","uniform","","","","","","","","206588.2000000002","208589.39999999944","","","","","","","","","","","","9","","stimuli/stars_9.png","59","","","","","stimuli/HM07_HO.jpg","",""
"explore-choice","43","210139","0.0-43.0","p454325","A1DZMZTXWOM9MR","3WRBLBQ2GSENM5LEFQY1C5PG0GV0GC","33IZTU6J8371WKYA34MQZHQJH92XS5","emotion","match","uniform","","","","","","","2431.7000000001863","208589.7999999998","211021.5","[""stimuli/BF06_SUR.jpg"",""stimuli/AF02_CC.jpg"",""stimuli/BM04_SC.jpg"",""stimuli/HM07_HO.jpg""]","stimuli/BF06_SUR.jpg","stimuli/AF02_CC.jpg","stimuli/BM04_SC.jpg","stimuli/HM07_HO.jpg","pos4","stimuli/HM07_HO.jpg","HO","HM07","3","5","10","8","stimuli/stars_10.png","64","[""SUR"",""CC"",""SC"",""HO""]","[""BF06"",""AF02"",""BM04"",""HM07""]","[2,8,0,10]","[4,6,2,8]","","",""
"show-reward","44","212143","0.0-44.0","p454325","A1DZMZTXWOM9MR","3WRBLBQ2GSENM5LEFQY1C5PG0GV0GC","33IZTU6J8371WKYA34MQZHQJH92XS5","emotion","match","uniform","","","","","","","","211522.59999999963","213525.89999999944","","","","","","","","","","","","10","","stimuli/stars_10.png","64","","","","","stimuli/HM07_HO.jpg","",""
"explore-choice","45","213627","0.0-45.0","p454325","A1DZMZTXWOM9MR","3WRBLBQ2GSENM5LEFQY1C5PG0GV0GC","33IZTU6J8371WKYA34MQZHQJH92XS5","emotion","match","uniform","","","","","","","982.3999999994412","213526.5","214508.89999999944","[""stimuli/BF06_HO.jpg"",""stimuli/AF02_CC.jpg"",""stimuli/BM04_SC.jpg"",""stimuli/HM07_SUR.jpg""]","stimuli/BF06_HO.jpg","stimuli/AF02_CC.jpg","stimuli/BM04_SC.jpg","stimuli/HM07_SUR.jpg","pos1","stimuli/BF06_HO.jpg","HO","BF06","0","4.5","9","8","stimuli/stars_9.png","68.5","[""HO"",""CC"",""SC"",""SUR""]","[""BF06"",""AF02"",""BM04"",""HM07""]","[9,7,1,3]","[8,6,2,4]","","",""
"show-reward","46","215639","0.0-46.0","p454325","A1DZMZTXWOM9MR","3WRBLBQ2GSENM5LEFQY1C5PG0GV0GC","33IZTU6J8371WKYA34MQZHQJH92XS5","emotion","match","uniform","","","","","","","","215010","217022.09999999963","","","","","","","","","","","","9","","stimuli/stars_9.png","68.5","","","","","stimuli/BF06_HO.jpg","",""
"explore-choice","47","219102","0.0-47.0","p454325","A1DZMZTXWOM9MR","3WRBLBQ2GSENM5LEFQY1C5PG0GV0GC","33IZTU6J8371WKYA34MQZHQJH92XS5","emotion","match","uniform","","","","","","","2961.7999999998137","217022.5","219984.2999999998","[""stimuli/AF02_HO.jpg"",""stimuli/BF06_CC.jpg"",""stimuli/HM07_SUR.jpg"",""stimuli/BM04_SC.jpg""]","stimuli/AF02_HO.jpg","stimuli/BF06_CC.jpg","stimuli/HM07_SUR.jpg","stimuli/BM04_SC.jpg","pos1","stimuli/AF02_HO.jpg","HO","AF02","0","3.5","7","8","stimuli/stars_7.png","72","[""HO"",""CC"",""SUR"",""SC""]","[""AF02"",""BF06"",""HM07"",""BM04""]","[7,6,2,1]","[8,6,4,2]","","",""
"show-reward","48","221107","0.0-48.0","p454325","A1DZMZTXWOM9MR","3WRBLBQ2GSENM5LEFQY1C5PG0GV0GC","33IZTU6J8371WKYA34MQZHQJH92XS5","emotion","match","uniform","","","","","","","","220485.09999999963","222489.89999999944","","","","","","","","","","","","7","","stimuli/stars_7.png","72","","","","","stimuli/AF02_HO.jpg","",""
"explore-choice","49","226951","0.0-49.0","p454325","A1DZMZTXWOM9MR","3WRBLBQ2GSENM5LEFQY1C5PG0GV0GC","33IZTU6J8371WKYA34MQZHQJH92XS5","emotion","match","uniform","","","","","","","5329","222490.39999999944","227819.39999999944","[""stimuli/AF02_CC.jpg"",""stimuli/BF06_HO.jpg"",""stimuli/BM04_SUR.jpg"",""stimuli/HM07_SC.jpg""]","stimuli/AF02_CC.jpg","stimuli/BF06_HO.jpg","stimuli/BM04_SUR.jpg","stimuli/HM07_SC.jpg","pos2","stimuli/BF06_HO.jpg","HO","BF06","1","5","10","8","stimuli/stars_10.png","77","[""CC"",""HO"",""SUR"",""SC""]","[""AF02"",""BF06"",""BM04"",""HM07""]","[7,10,6,3]","[6,8,4,2]","","",""
"show-reward","50","228952","0.0-50.0","p454325","A1DZMZTXWOM9MR","3WRBLBQ2GSENM5LEFQY1C5PG0GV0GC","33IZTU6J8371WKYA34MQZHQJH92XS5","emotion","match","uniform","","","","","","","","228333.89999999944","230335","","","","","","","","","","","","10","","stimuli/stars_10.png","77","","","","","stimuli/BF06_HO.jpg","",""
"explore-choice","51","230759","0.0-51.0","p454325","A1DZMZTXWOM9MR","3WRBLBQ2GSENM5LEFQY1C5PG0GV0GC","33IZTU6J8371WKYA34MQZHQJH92XS5","emotion","match","uniform","","","","","","","1304.9000000003725","230335.39999999944","231640.2999999998","[""stimuli/BM04_HO.jpg"",""stimuli/HM07_SC.jpg"",""stimuli/BF06_CC.jpg"",""stimuli/AF02_SUR.jpg""]","stimuli/BM04_HO.jpg","stimuli/HM07_SC.jpg","stimuli/BF06_CC.jpg","stimuli/AF02_SUR.jpg","pos1","stimuli/BM04_HO.jpg","HO","BM04","0","3.5","7","8","stimuli/stars_7.png","80.5","[""HO"",""SC"",""CC"",""SUR""]","[""BM04"",""HM07"",""BF06"",""AF02""]","[7,3,6,4]","[8,2,6,4]","","",""
"show-reward","52","232760","0.0-52.0","p454325","A1DZMZTXWOM9MR","3WRBLBQ2GSENM5LEFQY1C5PG0GV0GC","33IZTU6J8371WKYA34MQZHQJH92XS5","emotion","match","uniform","","","","","","","","232141.7999999998","234143","","","","","","","","","","","","7","","stimuli/stars_7.png","80.5","","","","","stimuli/BM04_HO.jpg","",""
"explore-choice","53","235041","0.0-53.0","p454325","A1DZMZTXWOM9MR","3WRBLBQ2GSENM5LEFQY1C5PG0GV0GC","33IZTU6J8371WKYA34MQZHQJH92XS5","emotion","match","uniform","","","","","","","1779.5","234143.5","235923","[""stimuli/AF02_SC.jpg"",""stimuli/BM04_SUR.jpg"",""stimuli/HM07_CC.jpg"",""stimuli/BF06_HO.jpg""]","stimuli/AF02_SC.jpg","stimuli/BM04_SUR.jpg","stimuli/HM07_CC.jpg","stimuli/BF06_HO.jpg","pos4","stimuli/BF06_HO.jpg","HO","BF06","3","3","6","8","stimuli/stars_6.png","83.5","[""SC"",""SUR"",""CC"",""HO""]","[""AF02"",""BM04"",""HM07"",""BF06""]","[0,6,6,6]","[2,4,6,8]","","",""
"show-reward","54","237043","0.0-54.0","p454325","A1DZMZTXWOM9MR","3WRBLBQ2GSENM5LEFQY1C5PG0GV0GC","33IZTU6J8371WKYA34MQZHQJH92XS5","emotion","match","uniform","","","","","","","","236424.2999999998","238425.59999999963","","","","","","","","","","","","6","","stimuli/stars_6.png","83.5","","","","","stimuli/BF06_HO.jpg","",""
"explore-choice","55","238635","0.0-55.0","p454325","A1DZMZTXWOM9MR","3WRBLBQ2GSENM5LEFQY1C5PG0GV0GC","33IZTU6J8371WKYA34MQZHQJH92XS5","emotion","match","uniform","","","","","","","1089.6000000005588","238426.09999999963","239515.7000000002","[""stimuli/AF02_HO.jpg"",""stimuli/BM04_SC.jpg"",""stimuli/BF06_SUR.jpg"",""stimuli/HM07_CC.jpg""]","stimuli/AF02_HO.jpg","stimuli/BM04_SC.jpg","stimuli/BF06_SUR.jpg","stimuli/HM07_CC.jpg","pos1","stimuli/AF02_HO.jpg","HO","AF02","0","3","6","8","stimuli/stars_6.png","86.5","[""HO"",""SC"",""SUR"",""CC""]","[""AF02"",""BM04"",""BF06"",""HM07""]","[6,2,2,6]","[8,2,4,6]","","",""
"show-reward","56","240645","0.0-56.0","p454325","A1DZMZTXWOM9MR","3WRBLBQ2GSENM5LEFQY1C5PG0GV0GC","33IZTU6J8371WKYA34MQZHQJH92XS5","emotion","match","uniform","","","","","","","","240017.7999999998","242028","","","","","","","","","","","","6","","stimuli/stars_6.png","86.5","","","","","stimuli/AF02_HO.jpg","",""
"explore-choice","57","242250","0.0-57.0","p454325","A1DZMZTXWOM9MR","3WRBLBQ2GSENM5LEFQY1C5PG0GV0GC","33IZTU6J8371WKYA34MQZHQJH92XS5","emotion","match","uniform","","","","","","","1102.7000000001863","242028.5","243131.2000000002","[""stimuli/BF06_HO.jpg"",""stimuli/AF02_SC.jpg"",""stimuli/BM04_CC.jpg"",""stimuli/HM07_SUR.jpg""]","stimuli/BF06_HO.jpg","stimuli/AF02_SC.jpg","stimuli/BM04_CC.jpg","stimuli/HM07_SUR.jpg","pos1","stimuli/BF06_HO.jpg","HO","BF06","0","4","8","8","stimuli/stars_8.png","90.5","[""HO"",""SC"",""CC"",""SUR""]","[""BF06"",""AF02"",""BM04"",""HM07""]","[8,4,5,4]","[8,2,6,4]","","",""
"show-reward","58","244252","0.0-58.0","p454325","A1DZMZTXWOM9MR","3WRBLBQ2GSENM5LEFQY1C5PG0GV0GC","33IZTU6J8371WKYA34MQZHQJH92XS5","emotion","match","uniform","","","","","","","","243633","245635","","","","","","","","","","","","8","","stimuli/stars_8.png","90.5","","","","","stimuli/BF06_HO.jpg","",""
"explore-choice","59","246520","0.0-59.0","p454325","A1DZMZTXWOM9MR","3WRBLBQ2GSENM5LEFQY1C5PG0GV0GC","33IZTU6J8371WKYA34MQZHQJH92XS5","emotion","match","uniform","","","","","","","1766.7000000001863","245635.39999999944","247402.09999999963","[""stimuli/BM04_SC.jpg"",""stimuli/AF02_CC.jpg"",""stimuli/HM07_HO.jpg"",""stimuli/BF06_SUR.jpg""]","stimuli/BM04_SC.jpg","stimuli/AF02_CC.jpg","stimuli/HM07_HO.jpg","stimuli/BF06_SUR.jpg","pos3","stimuli/HM07_HO.jpg","HO","HM07","2","5","10","8","stimuli/stars_10.png","95.5","[""SC"",""CC"",""HO"",""SUR""]","[""BM04"",""AF02"",""HM07"",""BF06""]","[0,8,10,2]","[2,6,8,4]","","",""
"show-reward","60","248531","0.0-60.0","p454325","A1DZMZTXWOM9MR","3WRBLBQ2GSENM5LEFQY1C5PG0GV0GC","33IZTU6J8371WKYA34MQZHQJH92XS5","emotion","match","uniform","","","","","","","","247902.89999999944","249913.7000000002","","","","","","","","","","","","10","","stimuli/stars_10.png","95.5","","","","","stimuli/HM07_HO.jpg","",""
"explore-choice","61","250582","0.0-61.0","p454325","A1DZMZTXWOM9MR","3WRBLBQ2GSENM5LEFQY1C5PG0GV0GC","33IZTU6J8371WKYA34MQZHQJH92XS5","emotion","match","uniform","","","","","","","1549.0999999996275","249914.2000000002","251463.2999999998","[""stimuli/HM07_SUR.jpg"",""stimuli/BM04_HO.jpg"",""stimuli/AF02_CC.jpg"",""stimuli/BF06_SC.jpg""]","stimuli/HM07_SUR.jpg","stimuli/BM04_HO.jpg","stimuli/AF02_CC.jpg","stimuli/BF06_SC.jpg","pos2","stimuli/BM04_HO.jpg","HO","BM04","1","4.5","9","8","stimuli/stars_9.png","100","[""SUR"",""HO"",""CC"",""SC""]","[""HM07"",""BM04"",""AF02"",""BF06""]","[2,9,5,3]","[4,8,6,2]","","",""
"show-reward","62","252591","0.0-62.0","p454325","A1DZMZTXWOM9MR","3WRBLBQ2GSENM5LEFQY1C5PG0GV0GC","33IZTU6J8371WKYA34MQZHQJH92XS5","emotion","match","uniform","","","","","","","","251965.2000000002","253973.7999999998","","","","","","","","","","","","9","","stimuli/stars_9.png","100","","","","","stimuli/BM04_HO.jpg","",""
"explore-choice","63","254774","0.0-63.0","p454325","A1DZMZTXWOM9MR","3WRBLBQ2GSENM5LEFQY1C5PG0GV0GC","33IZTU6J8371WKYA34MQZHQJH92XS5","emotion","match","uniform","","","","","","","1681.699999999255","253974.2000000002","255655.89999999944","[""stimuli/AF02_SUR.jpg"",""stimuli/HM07_HO.jpg"",""stimuli/BM04_CC.jpg"",""stimuli/BF06_SC.jpg""]","stimuli/AF02_SUR.jpg","stimuli/HM07_HO.jpg","stimuli/BM04_CC.jpg","stimuli/BF06_SC.jpg","pos2","stimuli/HM07_HO.jpg","HO","HM07","1","4.5","9","8","stimuli/stars_9.png","104.5","[""SUR"",""HO"",""CC"",""SC""]","[""AF02"",""HM07"",""BM04"",""BF06""]","[3,9,4,3]","[4,8,6,2]","","",""
"show-reward","64","256782","0.0-64.0","p454325","A1DZMZTXWOM9MR","3WRBLBQ2GSENM5LEFQY1C5PG0GV0GC","33IZTU6J8371WKYA34MQZHQJH92XS5","emotion","match","uniform","","","","","","","","256156.7000000002","258165","","","","","","","","","","","","9","","stimuli/stars_9.png","104.5","","","","","stimuli/HM07_HO.jpg","",""
"explore-choice","65","259087","0.0-65.0","p454325","A1DZMZTXWOM9MR","3WRBLBQ2GSENM5LEFQY1C5PG0GV0GC","33IZTU6J8371WKYA34MQZHQJH92XS5","emotion","match","uniform","","","","","","","1802.7999999998137","258165.59999999963","259968.39999999944","[""stimuli/BF06_CC.jpg"",""stimuli/BM04_SC.jpg"",""stimuli/HM07_SUR.jpg"",""stimuli/AF02_HO.jpg""]","stimuli/BF06_CC.jpg","stimuli/BM04_SC.jpg","stimuli/HM07_SUR.jpg","stimuli/AF02_HO.jpg","pos4","stimuli/AF02_HO.jpg","HO","AF02","3","3.5","7","8","stimuli/stars_7.png","108","[""CC"",""SC"",""SUR"",""HO""]","[""BF06"",""BM04"",""HM07"",""AF02""]","[6,1,2,7]","[6,2,4,8]","","",""
"show-reward","66","261098","0.0-66.0","p454325","A1DZMZTXWOM9MR","3WRBLBQ2GSENM5LEFQY1C5PG0GV0GC","33IZTU6J8371WKYA34MQZHQJH92XS5","emotion","match","uniform","","","","","","","","260470","262480.2000000002","","","","","","","","","","","","7","","stimuli/stars_7.png","108","","","","","stimuli/AF02_HO.jpg","",""
"explore-choice","67","263273","0.0-67.0","p454325","A1DZMZTXWOM9MR","3WRBLBQ2GSENM5LEFQY1C5PG0GV0GC","33IZTU6J8371WKYA34MQZHQJH92XS5","emotion","match","uniform","","","","","","","1673.0999999996275","262481","264154.0999999996","[""stimuli/BF06_HO.jpg"",""stimuli/HM07_SUR.jpg"",""stimuli/AF02_CC.jpg"",""stimuli/BM04_SC.jpg""]","stimuli/BF06_HO.jpg","stimuli/HM07_SUR.jpg","stimuli/AF02_CC.jpg","stimuli/BM04_SC.jpg","pos1","stimuli/BF06_HO.jpg","HO","BF06","0","4.5","9","8","stimuli/stars_9.png","112.5","[""HO"",""SUR"",""CC"",""SC""]","[""BF06"",""HM07"",""AF02"",""BM04""]","[9,3,7,1]","[8,4,6,2]","","",""
"show-reward","68","265276","0.0-68.0","p454325","A1DZMZTXWOM9MR","3WRBLBQ2GSENM5LEFQY1C5PG0GV0GC","33IZTU6J8371WKYA34MQZHQJH92XS5","emotion","match","uniform","","","","","","","","264655.7999999998","266658.2000000002","","","","","","","","","","","","9","","stimuli/stars_9.png","112.5","","","","","stimuli/BF06_HO.jpg","",""
"explore-choice","69","268148","0.0-69.0","p454325","A1DZMZTXWOM9MR","3WRBLBQ2GSENM5LEFQY1C5PG0GV0GC","33IZTU6J8371WKYA34MQZHQJH92XS5","emotion","match","uniform","","","","","","","2369.2999999998137","266659.5","269028.7999999998","[""stimuli/BF06_SUR.jpg"",""stimuli/AF02_SC.jpg"",""stimuli/BM04_HO.jpg"",""stimuli/HM07_CC.jpg""]","stimuli/BF06_SUR.jpg","stimuli/AF02_SC.jpg","stimuli/BM04_HO.jpg","stimuli/HM07_CC.jpg","pos3","stimuli/BM04_HO.jpg","HO","BM04","2","4","8","8","stimuli/stars_8.png","116.5","[""SUR"",""SC"",""HO"",""CC""]","[""BF06"",""AF02"",""BM04"",""HM07""]","[2,3,8,5]","[4,2,8,6]","","",""
"show-reward","70","270149","0.0-70.0","p454325","A1DZMZTXWOM9MR","3WRBLBQ2GSENM5LEFQY1C5PG0GV0GC","33IZTU6J8371WKYA34MQZHQJH92XS5","emotion","match","uniform","","","","","","","","269531.0999999996","271531.89999999944","","","","","","","","","","","","8","","stimuli/stars_8.png","116.5","","","","","stimuli/BM04_HO.jpg","",""
"explore-choice","71","272107","0.0-71.0","p454325","A1DZMZTXWOM9MR","3WRBLBQ2GSENM5LEFQY1C5PG0GV0GC","33IZTU6J8371WKYA34MQZHQJH92XS5","emotion","match","uniform","","","","","","","1449","271532.2000000002","272981.2000000002","[""stimuli/HM07_HO.jpg"",""stimuli/BM04_SUR.jpg"",""stimuli/AF02_CC.jpg"",""stimuli/BF06_SC.jpg""]","stimuli/HM07_HO.jpg","stimuli/BM04_SUR.jpg","stimuli/AF02_CC.jpg","stimuli/BF06_SC.jpg","pos1","stimuli/HM07_HO.jpg","HO","HM07","0","5","10","8","stimuli/stars_10.png","121.5","[""HO"",""SUR"",""CC"",""SC""]","[""HM07"",""BM04"",""AF02"",""BF06""]","[10,4,4,0]","[8,4,6,2]","","",""
"show-reward","72","274111","0.0-72.0","p454325","A1DZMZTXWOM9MR","3WRBLBQ2GSENM5LEFQY1C5PG0GV0GC","33IZTU6J8371WKYA34MQZHQJH92XS5","emotion","match","uniform","","","","","","","","273489.39999999944","275492.89999999944","","","","","","","","","","","","10","","stimuli/stars_10.png","121.5","","","","","stimuli/HM07_HO.jpg","",""
"explore-choice","73","276750","0.0-73.0","p454325","A1DZMZTXWOM9MR","3WRBLBQ2GSENM5LEFQY1C5PG0GV0GC","33IZTU6J8371WKYA34MQZHQJH92XS5","emotion","match","uniform","","","","","","","2138.2999999998137","275494.2000000002","277632.5","[""stimuli/BM04_SUR.jpg"",""stimuli/HM07_HO.jpg"",""stimuli/BF06_CC.jpg"",""stimuli/AF02_SC.jpg""]","stimuli/BM04_SUR.jpg","stimuli/HM07_HO.jpg","stimuli/BF06_CC.jpg","stimuli/AF02_SC.jpg","pos2","stimuli/HM07_HO.jpg","HO","HM07","1","3.5","7","8","stimuli/stars_7.png","125","[""SUR"",""HO"",""CC"",""SC""]","[""BM04"",""HM07"",""BF06"",""AF02""]","[4,7,5,3]","[4,8,6,2]","","",""
"show-reward","74","278753","0.0-74.0","p454325","A1DZMZTXWOM9MR","3WRBLBQ2GSENM5LEFQY1C5PG0GV0GC","33IZTU6J8371WKYA34MQZHQJH92XS5","emotion","match","uniform","","","","","","","","278133.0999999996","280135.5999999996","","","","","","","","","","","","7","","stimuli/stars_7.png","125","","","","","stimuli/HM07_HO.jpg","",""
"explore-choice","75","281894","0.0-75.0","p454325","A1DZMZTXWOM9MR","3WRBLBQ2GSENM5LEFQY1C5PG0GV0GC","33IZTU6J8371WKYA34MQZHQJH92XS5","emotion","match","uniform","","","","","","","2639.2999999998137","280136.7999999998","282776.0999999996","[""stimuli/HM07_SUR.jpg"",""stimuli/BM04_CC.jpg"",""stimuli/AF02_HO.jpg"",""stimuli/BF06_SC.jpg""]","stimuli/HM07_SUR.jpg","stimuli/BM04_CC.jpg","stimuli/AF02_HO.jpg","stimuli/BF06_SC.jpg","pos3","stimuli/AF02_HO.jpg","HO","AF02","2","3.5","7","8","stimuli/stars_7.png","128.5","[""SUR"",""CC"",""HO"",""SC""]","[""HM07"",""BM04"",""AF02"",""BF06""]","[5,6,7,2]","[4,6,8,2]","","",""
"show-reward","76","283896","0.0-76.0","p454325","A1DZMZTXWOM9MR","3WRBLBQ2GSENM5LEFQY1C5PG0GV0GC","33IZTU6J8371WKYA34MQZHQJH92XS5","emotion","match","uniform","","","","","","","","283276.7000000002","285278.5999999996","","","","","","","","","","","","7","","stimuli/stars_7.png","128.5","","","","","stimuli/AF02_HO.jpg","",""
"explore-choice","77","286045","0.0-77.0","p454325","A1DZMZTXWOM9MR","3WRBLBQ2GSENM5LEFQY1C5PG0GV0GC","33IZTU6J8371WKYA34MQZHQJH92XS5","emotion","match","uniform","","","","","","","1644","285280","286924","[""stimuli/AF02_SUR.jpg"",""stimuli/BM04_CC.jpg"",""stimuli/HM07_SC.jpg"",""stimuli/BF06_HO.jpg""]","stimuli/AF02_SUR.jpg","stimuli/BM04_CC.jpg","stimuli/HM07_SC.jpg","stimuli/BF06_HO.jpg","pos4","stimuli/BF06_HO.jpg","HO","BF06","3","3","6","8","stimuli/stars_6.png","131.5","[""SUR"",""CC"",""SC"",""HO""]","[""AF02"",""BM04"",""HM07"",""BF06""]","[3,5,3,6]","[4,6,2,8]","","",""
"show-reward","78","288059","0.0-78.0","p454325","A1DZMZTXWOM9MR","3WRBLBQ2GSENM5LEFQY1C5PG0GV0GC","33IZTU6J8371WKYA34MQZHQJH92XS5","emotion","match","uniform","","","","","","","","287428.0999999996","289441.5999999996","","","","","","","","","","","","6","","stimuli/stars_6.png","131.5","","","","","stimuli/BF06_HO.jpg","",""
"explore-choice","79","290243","0.0-79.0","p454325","A1DZMZTXWOM9MR","3WRBLBQ2GSENM5LEFQY1C5PG0GV0GC","33IZTU6J8371WKYA34MQZHQJH92XS5","emotion","match","uniform","","","","","","","1682.7000000001863","289442","291124.7000000002","[""stimuli/BF06_SC.jpg"",""stimuli/BM04_SUR.jpg"",""stimuli/AF02_HO.jpg"",""stimuli/HM07_CC.jpg""]","stimuli/BF06_SC.jpg","stimuli/BM04_SUR.jpg","stimuli/AF02_HO.jpg","stimuli/HM07_CC.jpg","pos3","stimuli/AF02_HO.jpg","HO","AF02","2","4.5","9","8","stimuli/stars_9.png","136","[""SC"",""SUR"",""HO"",""CC""]","[""BF06"",""BM04"",""AF02"",""HM07""]","[4,2,9,7]","[2,4,8,6]","","",""
"show-reward","80","292252","0.0-80.0","p454325","A1DZMZTXWOM9MR","3WRBLBQ2GSENM5LEFQY1C5PG0GV0GC","33IZTU6J8371WKYA34MQZHQJH92XS5","emotion","match","uniform","","","","","","","","291626.0999999996","293634.89999999944","","","","","","","","","","","","9","","stimuli/stars_9.png","136","","","","","stimuli/AF02_HO.jpg","",""
"explore-choice","81","294347","0.0-81.0","p454325","A1DZMZTXWOM9MR","3WRBLBQ2GSENM5LEFQY1C5PG0GV0GC","33IZTU6J8371WKYA34MQZHQJH92XS5","emotion","match","uniform","","","","","","","1592.6000000005588","293635.39999999944","295228","[""stimuli/BM04_SUR.jpg"",""stimuli/AF02_SC.jpg"",""stimuli/BF06_HO.jpg"",""stimuli/HM07_CC.jpg""]","stimuli/BM04_SUR.jpg","stimuli/AF02_SC.jpg","stimuli/BF06_HO.jpg","stimuli/HM07_CC.jpg","pos3","stimuli/BF06_HO.jpg","HO","BF06","2","3","6","8","stimuli/stars_6.png","139","[""SUR"",""SC"",""HO"",""CC""]","[""BM04"",""AF02"",""BF06"",""HM07""]","[6,0,6,6]","[4,2,8,6]","","",""
"show-reward","82","296350","0.0-82.0","p454325","A1DZMZTXWOM9MR","3WRBLBQ2GSENM5LEFQY1C5PG0GV0GC","33IZTU6J8371WKYA34MQZHQJH92XS5","emotion","match","uniform","","","","","","","","295730","297732.5999999996","","","","","","","","","","","","6","","stimuli/stars_6.png","139","","","","","stimuli/BF06_HO.jpg","",""
"explore-choice","83","298740","0.0-83.0","p454325","A1DZMZTXWOM9MR","3WRBLBQ2GSENM5LEFQY1C5PG0GV0GC","33IZTU6J8371WKYA34MQZHQJH92XS5","emotion","match","uniform","","","","","","","1889.5","297733","299622.5","[""stimuli/HM07_SC.jpg"",""stimuli/BF06_HO.jpg"",""stimuli/AF02_CC.jpg"",""stimuli/BM04_SUR.jpg""]","stimuli/HM07_SC.jpg","stimuli/BF06_HO.jpg","stimuli/AF02_CC.jpg","stimuli/BM04_SUR.jpg","pos2","stimuli/BF06_HO.jpg","HO","BF06","1","5","10","8","stimuli/stars_10.png","144","[""SC"",""HO"",""CC"",""SUR""]","[""HM07"",""BF06"",""AF02"",""BM04""]","[3,10,7,6]","[2,8,6,4]","","",""
"show-reward","84","300749","0.0-84.0","p454325","A1DZMZTXWOM9MR","3WRBLBQ2GSENM5LEFQY1C5PG0GV0GC","33IZTU6J8371WKYA34MQZHQJH92XS5","emotion","match","uniform","","","","","","","","300123.2000000002","302131.89999999944","","","","","","","","","","","","10","","stimuli/stars_10.png","144","","","","","stimuli/BF06_HO.jpg","",""
"explore-choice","85","303279","0.0-85.0","p454325","A1DZMZTXWOM9MR","3WRBLBQ2GSENM5LEFQY1C5PG0GV0GC","33IZTU6J8371WKYA34MQZHQJH92XS5","emotion","match","uniform","","","","","","","2028.7999999998137","302132.5","304161.2999999998","[""stimuli/BM04_HO.jpg"",""stimuli/BF06_SC.jpg"",""stimuli/HM07_CC.jpg"",""stimuli/AF02_SUR.jpg""]","stimuli/BM04_HO.jpg","stimuli/BF06_SC.jpg","stimuli/HM07_CC.jpg","stimuli/AF02_SUR.jpg","pos1","stimuli/BM04_HO.jpg","HO","BM04","0","3.5","7","8","stimuli/stars_7.png","147.5","[""HO"",""SC"",""CC"",""SUR""]","[""BM04"",""BF06"",""HM07"",""AF02""]","[7,2,6,6]","[8,2,6,4]","","",""
"show-reward","86","305284","0.0-86.0","p454325","A1DZMZTXWOM9MR","3WRBLBQ2GSENM5LEFQY1C5PG0GV0GC","33IZTU6J8371WKYA34MQZHQJH92XS5","emotion","match","uniform","","","","","","","","304662.2999999998","306666.5","","","","","","","","","","","","7","","stimuli/stars_7.png","147.5","","","","","stimuli/BM04_HO.jpg","",""
"explore-choice","87","307171","0.0-87.0","p454325","A1DZMZTXWOM9MR","3WRBLBQ2GSENM5LEFQY1C5PG0GV0GC","33IZTU6J8371WKYA34MQZHQJH92XS5","emotion","match","uniform","","","","","","","1385.699999999255","306667.2000000002","308052.89999999944","[""stimuli/BM04_HO.jpg"",""stimuli/AF02_SUR.jpg"",""stimuli/HM07_SC.jpg"",""stimuli/BF06_CC.jpg""]","stimuli/BM04_HO.jpg","stimuli/AF02_SUR.jpg","stimuli/HM07_SC.jpg","stimuli/BF06_CC.jpg","pos1","stimuli/BM04_HO.jpg","HO","BM04","0","3.5","7","8","stimuli/stars_7.png","151","[""HO"",""SUR"",""SC"",""CC""]","[""BM04"",""AF02"",""HM07"",""BF06""]","[7,4,3,6]","[8,4,2,6]","","",""
"show-reward","88","309173","0.0-88.0","p454325","A1DZMZTXWOM9MR","3WRBLBQ2GSENM5LEFQY1C5PG0GV0GC","33IZTU6J8371WKYA34MQZHQJH92XS5","emotion","match","uniform","","","","","","","","308553.7000000002","310555.7000000002","","","","","","","","","","","","7","","stimuli/stars_7.png","151","","","","","stimuli/BM04_HO.jpg","",""
"explore-choice","89","311175","0.0-89.0","p454325","A1DZMZTXWOM9MR","3WRBLBQ2GSENM5LEFQY1C5PG0GV0GC","33IZTU6J8371WKYA34MQZHQJH92XS5","emotion","match","uniform","","","","","","","1501.3999999994412","310556","312057.39999999944","[""stimuli/HM07_SC.jpg"",""stimuli/BM04_CC.jpg"",""stimuli/BF06_SUR.jpg"",""stimuli/AF02_HO.jpg""]","stimuli/HM07_SC.jpg","stimuli/BM04_CC.jpg","stimuli/BF06_SUR.jpg","stimuli/AF02_HO.jpg","pos4","stimuli/AF02_HO.jpg","HO","AF02","3","3","6","8","stimuli/stars_6.png","154","[""SC"",""CC"",""SUR"",""HO""]","[""HM07"",""BM04"",""BF06"",""AF02""]","[4,7,4,6]","[2,6,4,8]","","",""
"show-reward","90","313177","0.0-90.0","p454325","A1DZMZTXWOM9MR","3WRBLBQ2GSENM5LEFQY1C5PG0GV0GC","33IZTU6J8371WKYA34MQZHQJH92XS5","emotion","match","uniform","","","","","","","","312558.2000000002","314559.89999999944","","","","","","","","","","","","6","","stimuli/stars_6.png","154","","","","","stimuli/AF02_HO.jpg","",""
"explore-choice","91","315257","0.0-91.0","p454325","A1DZMZTXWOM9MR","3WRBLBQ2GSENM5LEFQY1C5PG0GV0GC","33IZTU6J8371WKYA34MQZHQJH92XS5","emotion","match","uniform","","","","","","","1577","314560.7999999998","316137.7999999998","[""stimuli/HM07_HO.jpg"",""stimuli/AF02_SUR.jpg"",""stimuli/BF06_CC.jpg"",""stimuli/BM04_SC.jpg""]","stimuli/HM07_HO.jpg","stimuli/AF02_SUR.jpg","stimuli/BF06_CC.jpg","stimuli/BM04_SC.jpg","pos1","stimuli/HM07_HO.jpg","HO","HM07","0","4.5","9","8","stimuli/stars_9.png","158.5","[""HO"",""SUR"",""CC"",""SC""]","[""HM07"",""AF02"",""BF06"",""BM04""]","[9,3,4,0]","[8,4,6,2]","","",""
"show-reward","92","317259","0.0-92.0","p454325","A1DZMZTXWOM9MR","3WRBLBQ2GSENM5LEFQY1C5PG0GV0GC","33IZTU6J8371WKYA34MQZHQJH92XS5","emotion","match","uniform","","","","","","","","316640","318641.2000000002","","","","","","","","","","","","9","","stimuli/stars_9.png","158.5","","","","","stimuli/HM07_HO.jpg","",""
"explore-choice","93","319486","0.0-93.0","p454325","A1DZMZTXWOM9MR","3WRBLBQ2GSENM5LEFQY1C5PG0GV0GC","33IZTU6J8371WKYA34MQZHQJH92XS5","emotion","match","uniform","","","","","","","1726.1000000005588","318641.5999999996","320367.7000000002","[""stimuli/HM07_SC.jpg"",""stimuli/BM04_SUR.jpg"",""stimuli/BF06_CC.jpg"",""stimuli/AF02_HO.jpg""]","stimuli/HM07_SC.jpg","stimuli/BM04_SUR.jpg","stimuli/BF06_CC.jpg","stimuli/AF02_HO.jpg","pos4","stimuli/AF02_HO.jpg","HO","AF02","3","5","10","8","stimuli/stars_10.png","163.5","[""SC"",""SUR"",""CC"",""HO""]","[""HM07"",""BM04"",""BF06"",""AF02""]","[0,5,4,10]","[2,4,6,8]","","",""
"show-reward","94","321487","0.0-94.0","p454325","A1DZMZTXWOM9MR","3WRBLBQ2GSENM5LEFQY1C5PG0GV0GC","33IZTU6J8371WKYA34MQZHQJH92XS5","emotion","match","uniform","","","","","","","","320868.5","322869.2999999998","","","","","","","","","","","","10","","stimuli/stars_10.png","163.5","","","","","stimuli/AF02_HO.jpg","",""
"explore-choice","95","323762","0.0-95.0","p454325","A1DZMZTXWOM9MR","3WRBLBQ2GSENM5LEFQY1C5PG0GV0GC","33IZTU6J8371WKYA34MQZHQJH92XS5","emotion","match","uniform","","","","","","","1773.6000000005588","322869.5999999996","324643.2000000002","[""stimuli/BF06_CC.jpg"",""stimuli/HM07_SUR.jpg"",""stimuli/BM04_HO.jpg"",""stimuli/AF02_SC.jpg""]","stimuli/BF06_CC.jpg","stimuli/HM07_SUR.jpg","stimuli/BM04_HO.jpg","stimuli/AF02_SC.jpg","pos3","stimuli/BM04_HO.jpg","HO","BM04","2","3.5","7","8","stimuli/stars_7.png","167","[""CC"",""SUR"",""HO"",""SC""]","[""BF06"",""HM07"",""BM04"",""AF02""]","[7,4,7,0]","[6,4,8,2]","","",""
"show-reward","96","325766","0.0-96.0","p454325","A1DZMZTXWOM9MR","3WRBLBQ2GSENM5LEFQY1C5PG0GV0GC","33IZTU6J8371WKYA34MQZHQJH92XS5","emotion","match","uniform","","","","","","","","325145.5999999996","327148.7000000002","","","","","","","","","","","","7","","stimuli/stars_7.png","167","","","","","stimuli/BM04_HO.jpg","",""
"explore-choice","97","327234","0.0-97.0","p454325","A1DZMZTXWOM9MR","3WRBLBQ2GSENM5LEFQY1C5PG0GV0GC","33IZTU6J8371WKYA34MQZHQJH92XS5","emotion","match","uniform","","","","","","","966","327149.89999999944","328115.89999999944","[""stimuli/HM07_CC.jpg"",""stimuli/BF06_HO.jpg"",""stimuli/AF02_SUR.jpg"",""stimuli/BM04_SC.jpg""]","stimuli/HM07_CC.jpg","stimuli/BF06_HO.jpg","stimuli/AF02_SUR.jpg","stimuli/BM04_SC.jpg","pos2","stimuli/BF06_HO.jpg","HO","BF06","1","4.5","9","8","stimuli/stars_9.png","171.5","[""CC"",""HO"",""SUR"",""SC""]","[""HM07"",""BF06"",""AF02"",""BM04""]","[4,9,5,0]","[6,8,4,2]","","",""
"show-reward","98","329245","0.0-98.0","p454325","A1DZMZTXWOM9MR","3WRBLBQ2GSENM5LEFQY1C5PG0GV0GC","33IZTU6J8371WKYA34MQZHQJH92XS5","emotion","match","uniform","","","","","","","","328616.7999999998","330627.7000000002","","","","","","","","","","","","9","","stimuli/stars_9.png","171.5","","","","","stimuli/BF06_HO.jpg","",""
"explore-choice","99","332102","0.0-99.0","p454325","A1DZMZTXWOM9MR","3WRBLBQ2GSENM5LEFQY1C5PG0GV0GC","33IZTU6J8371WKYA34MQZHQJH92XS5","emotion","match","uniform","","","","","","","2356","330628.2000000002","332984.2000000002","[""stimuli/HM07_SC.jpg"",""stimuli/BF06_SUR.jpg"",""stimuli/AF02_CC.jpg"",""stimuli/BM04_HO.jpg""]","stimuli/HM07_SC.jpg","stimuli/BF06_SUR.jpg","stimuli/AF02_CC.jpg","stimuli/BM04_HO.jpg","pos4","stimuli/BM04_HO.jpg","HO","BM04","3","4","8","8","stimuli/stars_8.png","175.5","[""SC"",""SUR"",""CC"",""HO""]","[""HM07"",""BF06"",""AF02"",""BM04""]","[2,6,7,8]","[2,4,6,8]","","",""
"show-reward","100","334112","0.0-100.0","p454325","A1DZMZTXWOM9MR","3WRBLBQ2GSENM5LEFQY1C5PG0GV0GC","33IZTU6J8371WKYA34MQZHQJH92XS5","emotion","match","uniform","","","","","","","","333485.0999999996","335494.0999999996","","","","","","","","","","","","8","","stimuli/stars_8.png","175.5","","","","","stimuli/BM04_HO.jpg","",""
"explore-choice","101","336481","0.0-101.0","p454325","A1DZMZTXWOM9MR","3WRBLBQ2GSENM5LEFQY1C5PG0GV0GC","33IZTU6J8371WKYA34MQZHQJH92XS5","emotion","match","uniform","","","","","","","1868.7999999998137","335494.5999999996","337363.39999999944","[""stimuli/BF06_SUR.jpg"",""stimuli/BM04_CC.jpg"",""stimuli/HM07_HO.jpg"",""stimuli/AF02_SC.jpg""]","stimuli/BF06_SUR.jpg","stimuli/BM04_CC.jpg","stimuli/HM07_HO.jpg","stimuli/AF02_SC.jpg","pos3","stimuli/HM07_HO.jpg","HO","HM07","2","3","6","8","stimuli/stars_6.png","178.5","[""SUR"",""CC"",""HO"",""SC""]","[""BF06"",""BM04"",""HM07"",""AF02""]","[4,6,6,1]","[4,6,8,2]","","",""
"show-reward","102","338494","0.0-102.0","p454325","A1DZMZTXWOM9MR","3WRBLBQ2GSENM5LEFQY1C5PG0GV0GC","33IZTU6J8371WKYA34MQZHQJH92XS5","emotion","match","uniform","","","","","","","","337863.89999999944","339876.5","","","","","","","","","","","","6","","stimuli/stars_6.png","178.5","","","","","stimuli/HM07_HO.jpg","",""
"explore-choice","103","340488","0.0-103.0","p454325","A1DZMZTXWOM9MR","3WRBLBQ2GSENM5LEFQY1C5PG0GV0GC","33IZTU6J8371WKYA34MQZHQJH92XS5","emotion","match","uniform","","","","","","","1491.0999999996275","339877.7999999998","341368.89999999944","[""stimuli/BM16_HE.jpg"",""stimuli/BF05_DO.jpg"",""stimuli/BM07_AO.jpg"",""stimuli/HF10_FO.jpg""]","stimuli/BM16_HE.jpg","stimuli/BF05_DO.jpg","stimuli/BM07_AO.jpg","stimuli/HF10_FO.jpg","pos1","stimuli/BM16_HE.jpg","HE","BM16","0","1","2","4","stimuli/stars_2.png","179.5","[""HE"",""DO"",""AO"",""FO""]","[""BM16"",""BF05"",""BM07"",""HF10""]","[2,5,9,3]","[4,6,8,2]","","",""
"show-reward","104","342489","0.0-104.0","p454325","A1DZMZTXWOM9MR","3WRBLBQ2GSENM5LEFQY1C5PG0GV0GC","33IZTU6J8371WKYA34MQZHQJH92XS5","emotion","match","uniform","","","","","","","","341870.89999999944","343871.89999999944","","","","","","","","","","","","2","","stimuli/stars_2.png","179.5","","","","","stimuli/BM16_HE.jpg","",""
"explore-choice","105","345317","0.0-105.0","p454325","A1DZMZTXWOM9MR","3WRBLBQ2GSENM5LEFQY1C5PG0GV0GC","33IZTU6J8371WKYA34MQZHQJH92XS5","emotion","match","uniform","","","","","","","2326.2999999998137","343872.5999999996","346198.89999999944","[""stimuli/BF05_FO.jpg"",""stimuli/BM07_DO.jpg"",""stimuli/BM16_AO.jpg"",""stimuli/HF10_HE.jpg""]","stimuli/BF05_FO.jpg","stimuli/BM07_DO.jpg","stimuli/BM16_AO.jpg","stimuli/HF10_HE.jpg","pos4","stimuli/HF10_HE.jpg","HE","HF10","3","2","4","4","stimuli/stars_4.png","181.5","[""FO"",""DO"",""AO"",""HE""]","[""BF05"",""BM07"",""BM16"",""HF10""]","[3,5,7,4]","[2,6,8,4]","","",""
"show-reward","106","347320","0.0-106.0","p454325","A1DZMZTXWOM9MR","3WRBLBQ2GSENM5LEFQY1C5PG0GV0GC","33IZTU6J8371WKYA34MQZHQJH92XS5","emotion","match","uniform","","","","","","","","346700.5999999996","348702.5","","","","","","","","","","","","4","","stimuli/stars_4.png","181.5","","","","","stimuli/HF10_HE.jpg","",""
"explore-choice","107","349178","0.0-107.0","p454325","A1DZMZTXWOM9MR","3WRBLBQ2GSENM5LEFQY1C5PG0GV0GC","33IZTU6J8371WKYA34MQZHQJH92XS5","emotion","match","uniform","","","","","","","1357.4000000003725","348702.89999999944","350060.2999999998","[""stimuli/BM16_HE.jpg"",""stimuli/BM07_AO.jpg"",""stimuli/BF05_FO.jpg"",""stimuli/HF10_DO.jpg""]","stimuli/BM16_HE.jpg","stimuli/BM07_AO.jpg","stimuli/BF05_FO.jpg","stimuli/HF10_DO.jpg","pos1","stimuli/BM16_HE.jpg","HE","BM16","0","1.5","3","4","stimuli/stars_3.png","183","[""HE"",""AO"",""FO"",""DO""]","[""BM16"",""BM07"",""BF05"",""HF10""]","[3,8,0,8]","[4,8,2,6]","","",""
"show-reward","108","351181","0.0-108.0","p454325","A1DZMZTXWOM9MR","3WRBLBQ2GSENM5LEFQY1C5PG0GV0GC","33IZTU6J8371WKYA34MQZHQJH92XS5","emotion","match","uniform","","","","","","","","350561.2999999998","352563.2000000002","","","","","","","","","","","","3","","stimuli/stars_3.png","183","","","","","stimuli/BM16_HE.jpg","",""
"explore-choice","109","353576","0.0-109.0","p454325","A1DZMZTXWOM9MR","3WRBLBQ2GSENM5LEFQY1C5PG0GV0GC","33IZTU6J8371WKYA34MQZHQJH92XS5","emotion","match","uniform","","","","","","","1893.4000000003725","352563.5999999996","354457","[""stimuli/HF10_DO.jpg"",""stimuli/BM16_AO.jpg"",""stimuli/BF05_FO.jpg"",""stimuli/BM07_HE.jpg""]","stimuli/HF10_DO.jpg","stimuli/BM16_AO.jpg","stimuli/BF05_FO.jpg","stimuli/BM07_HE.jpg","pos1","stimuli/HF10_DO.jpg","DO","HF10","0","3.5","7","6","stimuli/stars_7.png","186.5","[""DO"",""AO"",""FO"",""HE""]","[""HF10"",""BM16"",""BF05"",""BM07""]","[7,10,4,4]","[6,8,2,4]","","",""
"show-reward","110","355580","0.0-110.0","p454325","A1DZMZTXWOM9MR","3WRBLBQ2GSENM5LEFQY1C5PG0GV0GC","33IZTU6J8371WKYA34MQZHQJH92XS5","emotion","match","uniform","","","","","","","","354959.0999999996","356961.89999999944","","","","","","","","","","","","7","","stimuli/stars_7.png","186.5","","","","","stimuli/HF10_DO.jpg","",""
"explore-choice","111","357431","0.0-111.0","p454325","A1DZMZTXWOM9MR","3WRBLBQ2GSENM5LEFQY1C5PG0GV0GC","33IZTU6J8371WKYA34MQZHQJH92XS5","emotion","match","uniform","","","","","","","1347.9000000003725","356964.7999999998","358312.7000000002","[""stimuli/HF10_AO.jpg"",""stimuli/BM16_HE.jpg"",""stimuli/BF05_FO.jpg"",""stimuli/BM07_DO.jpg""]","stimuli/HF10_AO.jpg","stimuli/BM16_HE.jpg","stimuli/BF05_FO.jpg","stimuli/BM07_DO.jpg","pos3","stimuli/BF05_FO.jpg","FO","BF05","2","1.5","3","2","stimuli/stars_3.png","188","[""AO"",""HE"",""FO"",""DO""]","[""HF10"",""BM16"",""BF05"",""BM07""]","[7,3,3,8]","[8,4,2,6]","","",""
"show-reward","112","359432","0.0-112.0","p454325","A1DZMZTXWOM9MR","3WRBLBQ2GSENM5LEFQY1C5PG0GV0GC","33IZTU6J8371WKYA34MQZHQJH92XS5","emotion","match","uniform","","","","","","","","358813.7999999998","360814.7999999998","","","","","","","","","","","","3","","stimuli/stars_3.png","188","","","","","stimuli/BF05_FO.jpg","",""
"explore-choice","113","361136","0.0-113.0","p454325","A1DZMZTXWOM9MR","3WRBLBQ2GSENM5LEFQY1C5PG0GV0GC","33IZTU6J8371WKYA34MQZHQJH92XS5","emotion","match","uniform","","","","","","","1201.699999999255","360815.7000000002","362017.39999999944","[""stimuli/HF10_DO.jpg"",""stimuli/BM07_FO.jpg"",""stimuli/BM16_HE.jpg"",""stimuli/BF05_AO.jpg""]","stimuli/HF10_DO.jpg","stimuli/BM07_FO.jpg","stimuli/BM16_HE.jpg","stimuli/BF05_AO.jpg","pos2","stimuli/BM07_FO.jpg","FO","BM07","1","2","4","2","stimuli/stars_4.png","190","[""DO"",""FO"",""HE"",""AO""]","[""HF10"",""BM07"",""BM16"",""BF05""]","[8,4,6,7]","[6,2,4,8]","","",""
"show-reward","114","363140","0.0-114.0","p454325","A1DZMZTXWOM9MR","3WRBLBQ2GSENM5LEFQY1C5PG0GV0GC","33IZTU6J8371WKYA34MQZHQJH92XS5","emotion","match","uniform","","","","","","","","362519.7000000002","364522.7999999998","","","","","","","","","","","","4","","stimuli/stars_4.png","190","","","","","stimuli/BM07_FO.jpg","",""
"explore-choice","115","366243","0.0-115.0","p454325","A1DZMZTXWOM9MR","3WRBLBQ2GSENM5LEFQY1C5PG0GV0GC","33IZTU6J8371WKYA34MQZHQJH92XS5","emotion","match","uniform","","","","","","","2601.2999999998137","364524.2000000002","367125.5","[""stimuli/BM16_HE.jpg"",""stimuli/BF05_DO.jpg"",""stimuli/BM07_FO.jpg"",""stimuli/HF10_AO.jpg""]","stimuli/BM16_HE.jpg","stimuli/BF05_DO.jpg","stimuli/BM07_FO.jpg","stimuli/HF10_AO.jpg","pos4","stimuli/HF10_AO.jpg","AO","HF10","3","5","10","8","stimuli/stars_10.png","195","[""HE"",""DO"",""FO"",""AO""]","[""BM16"",""BF05"",""BM07"",""HF10""]","[6,5,0,10]","[4,6,2,8]","","",""
"show-reward","116","368246","0.0-116.0","p454325","A1DZMZTXWOM9MR","3WRBLBQ2GSENM5LEFQY1C5PG0GV0GC","33IZTU6J8371WKYA34MQZHQJH92XS5","emotion","match","uniform","","","","","","","","367626.0999999996","369628.2000000002","","","","","","","","","","","","10","","stimuli/stars_10.png","195","","","","","stimuli/HF10_AO.jpg","",""
"explore-choice","117","371868","0.0-117.0","p454325","A1DZMZTXWOM9MR","3WRBLBQ2GSENM5LEFQY1C5PG0GV0GC","33IZTU6J8371WKYA34MQZHQJH92XS5","emotion","match","uniform","","","","","","","3120.9000000003725","369629.39999999944","372750.2999999998","[""stimuli/BF05_FO.jpg"",""stimuli/HF10_HE.jpg"",""stimuli/BM16_DO.jpg"",""stimuli/BM07_AO.jpg""]","stimuli/BF05_FO.jpg","stimuli/HF10_HE.jpg","stimuli/BM16_DO.jpg","stimuli/BM07_AO.jpg","pos3","stimuli/BM16_DO.jpg","DO","BM16","2","2.5","5","6","stimuli/stars_5.png","197.5","[""FO"",""HE"",""DO"",""AO""]","[""BF05"",""HF10"",""BM16"",""BM07""]","[1,5,5,8]","[2,4,6,8]","","",""
"show-reward","118","373871","0.0-118.0","p454325","A1DZMZTXWOM9MR","3WRBLBQ2GSENM5LEFQY1C5PG0GV0GC","33IZTU6J8371WKYA34MQZHQJH92XS5","emotion","match","uniform","","","","","","","","373251.0999999996","375253.7999999998","","","","","","","","","","","","5","","stimuli/stars_5.png","197.5","","","","","stimuli/BM16_DO.jpg","",""
"explore-choice","119","377156","0.0-119.0","p454325","A1DZMZTXWOM9MR","3WRBLBQ2GSENM5LEFQY1C5PG0GV0GC","33IZTU6J8371WKYA34MQZHQJH92XS5","emotion","match","uniform","","","","","","","2782.7000000001863","375254.89999999944","378037.5999999996","[""stimuli/HF10_DO.jpg"",""stimuli/BM16_FO.jpg"",""stimuli/BM07_AO.jpg"",""stimuli/BF05_HE.jpg""]","stimuli/HF10_DO.jpg","stimuli/BM16_FO.jpg","stimuli/BM07_AO.jpg","stimuli/BF05_HE.jpg","pos3","stimuli/BM07_AO.jpg","AO","BM07","2","5","10","8","stimuli/stars_10.png","202.5","[""DO"",""FO"",""AO"",""HE""]","[""HF10"",""BM16"",""BM07"",""BF05""]","[7,4,10,4]","[6,2,8,4]","","",""
"show-reward","120","379162","0.0-120.0","p454325","A1DZMZTXWOM9MR","3WRBLBQ2GSENM5LEFQY1C5PG0GV0GC","33IZTU6J8371WKYA34MQZHQJH92XS5","emotion","match","uniform","","","","","","","","378539","380544.2999999998","","","","","","","","","","","","10","","stimuli/stars_10.png","202.5","","","","","stimuli/BM07_AO.jpg","",""
"explore-choice","121","381672","0.0-121.0","p454325","A1DZMZTXWOM9MR","3WRBLBQ2GSENM5LEFQY1C5PG0GV0GC","33IZTU6J8371WKYA34MQZHQJH92XS5","emotion","match","uniform","","","","","","","2008.2999999998137","380544.5999999996","382552.89999999944","[""stimuli/HF10_HE.jpg"",""stimuli/BM07_FO.jpg"",""stimuli/BM16_DO.jpg"",""stimuli/BF05_AO.jpg""]","stimuli/HF10_HE.jpg","stimuli/BM07_FO.jpg","stimuli/BM16_DO.jpg","stimuli/BF05_AO.jpg","pos4","stimuli/BF05_AO.jpg","AO","BF05","3","4.5","9","8","stimuli/stars_9.png","207","[""HE"",""FO"",""DO"",""AO""]","[""HF10"",""BM07"",""BM16"",""BF05""]","[3,2,4,9]","[4,2,6,8]","","",""
"show-reward","122","383673","0.0-122.0","p454325","A1DZMZTXWOM9MR","3WRBLBQ2GSENM5LEFQY1C5PG0GV0GC","33IZTU6J8371WKYA34MQZHQJH92XS5","emotion","match","uniform","","","","","","","","383054.5","385055.7999999998","","","","","","","","","","","","9","","stimuli/stars_9.png","207","","","","","stimuli/BF05_AO.jpg","",""
"explore-choice","123","387858","0.0-123.0","p454325","A1DZMZTXWOM9MR","3WRBLBQ2GSENM5LEFQY1C5PG0GV0GC","33IZTU6J8371WKYA34MQZHQJH92XS5","emotion","match","uniform","","","","","","","3683.899999999441","385056.2000000002","388740.0999999996","[""stimuli/BM16_DO.jpg"",""stimuli/HF10_AO.jpg"",""stimuli/BF05_HE.jpg"",""stimuli/BM07_FO.jpg""]","stimuli/BM16_DO.jpg","stimuli/HF10_AO.jpg","stimuli/BF05_HE.jpg","stimuli/BM07_FO.jpg","pos2","stimuli/HF10_AO.jpg","AO","HF10","1","3","6","8","stimuli/stars_6.png","210","[""DO"",""AO"",""HE"",""FO""]","[""BM16"",""HF10"",""BF05"",""BM07""]","[5,6,3,2]","[6,8,4,2]","","",""
"show-reward","124","389863","0.0-124.0","p454325","A1DZMZTXWOM9MR","3WRBLBQ2GSENM5LEFQY1C5PG0GV0GC","33IZTU6J8371WKYA34MQZHQJH92XS5","emotion","match","uniform","","","","","","","","389240.5999999996","391245","","","","","","","","","","","","6","","stimuli/stars_6.png","210","","","","","stimuli/HF10_AO.jpg","",""
"explore-choice","125","392225","0.0-125.0","p454325","A1DZMZTXWOM9MR","3WRBLBQ2GSENM5LEFQY1C5PG0GV0GC","33IZTU6J8371WKYA34MQZHQJH92XS5","emotion","match","uniform","","","","","","","1860","391245.5","393105.5","[""stimuli/BF05_DO.jpg"",""stimuli/BM16_FO.jpg"",""stimuli/BM07_HE.jpg"",""stimuli/HF10_AO.jpg""]","stimuli/BF05_DO.jpg","stimuli/BM16_FO.jpg","stimuli/BM07_HE.jpg","stimuli/HF10_AO.jpg","pos1","stimuli/BF05_DO.jpg","DO","BF05","0","3","6","6","stimuli/stars_6.png","213","[""DO"",""FO"",""HE"",""AO""]","[""BF05"",""BM16"",""BM07"",""HF10""]","[6,3,5,10]","[6,2,4,8]","","",""
"show-reward","126","394233","0.0-126.0","p454325","A1DZMZTXWOM9MR","3WRBLBQ2GSENM5LEFQY1C5PG0GV0GC","33IZTU6J8371WKYA34MQZHQJH92XS5","emotion","match","uniform","","","","","","","","393607.7999999998","395615.2999999998","","","","","","","","","","","","6","","stimuli/stars_6.png","213","","","","","stimuli/BF05_DO.jpg","",""
"explore-choice","127","399906","0.0-127.0","p454325","A1DZMZTXWOM9MR","3WRBLBQ2GSENM5LEFQY1C5PG0GV0GC","33IZTU6J8371WKYA34MQZHQJH92XS5","emotion","match","uniform","","","","","","","5170.700000000186","395615.7999999998","400786.5","[""stimuli/HF10_FO.jpg"",""stimuli/BF05_HE.jpg"",""stimuli/BM16_AO.jpg"",""stimuli/BM07_DO.jpg""]","stimuli/HF10_FO.jpg","stimuli/BF05_HE.jpg","stimuli/BM16_AO.jpg","stimuli/BM07_DO.jpg","pos3","stimuli/BM16_AO.jpg","AO","BM16","2","3","6","8","stimuli/stars_6.png","216","[""FO"",""HE"",""AO"",""DO""]","[""HF10"",""BF05"",""BM16"",""BM07""]","[2,4,6,8]","[2,4,8,6]","","",""
"show-reward","128","401917","0.0-128.0","p454325","A1DZMZTXWOM9MR","3WRBLBQ2GSENM5LEFQY1C5PG0GV0GC","33IZTU6J8371WKYA34MQZHQJH92XS5","emotion","match","uniform","","","","","","","","401288.7999999998","403299.5999999996","","","","","","","","","","","","6","","stimuli/stars_6.png","216","","","","","stimuli/BM16_AO.jpg","",""
"explore-choice","129","404996","0.0-129.0","p454325","A1DZMZTXWOM9MR","3WRBLBQ2GSENM5LEFQY1C5PG0GV0GC","33IZTU6J8371WKYA34MQZHQJH92XS5","emotion","match","uniform","","","","","","","2578.2000000001863","403299.89999999944","405878.0999999996","[""stimuli/BM07_HE.jpg"",""stimuli/BM16_FO.jpg"",""stimuli/BF05_AO.jpg"",""stimuli/HF10_DO.jpg""]","stimuli/BM07_HE.jpg","stimuli/BM16_FO.jpg","stimuli/BF05_AO.jpg","stimuli/HF10_DO.jpg","pos3","stimuli/BF05_AO.jpg","AO","BF05","2","3.5","7","8","stimuli/stars_7.png","219.5","[""HE"",""FO"",""AO"",""DO""]","[""BM07"",""BM16"",""BF05"",""HF10""]","[2,0,7,5]","[4,2,8,6]","","",""
"show-reward","130","407012","0.0-130.0","p454325","A1DZMZTXWOM9MR","3WRBLBQ2GSENM5LEFQY1C5PG0GV0GC","33IZTU6J8371WKYA34MQZHQJH92XS5","emotion","match","uniform","","","","","","","","406379.5","408394.5","","","","","","","","","","","","7","","stimuli/stars_7.png","219.5","","","","","stimuli/BF05_AO.jpg","",""
"explore-choice","131","409700","0.0-131.0","p454325","A1DZMZTXWOM9MR","3WRBLBQ2GSENM5LEFQY1C5PG0GV0GC","33IZTU6J8371WKYA34MQZHQJH92XS5","emotion","match","uniform","","","","","","","2185.800000000745","408394.89999999944","410580.7000000002","[""stimuli/BM07_AO.jpg"",""stimuli/BM16_FO.jpg"",""stimuli/HF10_HE.jpg"",""stimuli/BF05_DO.jpg""]","stimuli/BM07_AO.jpg","stimuli/BM16_FO.jpg","stimuli/HF10_HE.jpg","stimuli/BF05_DO.jpg","pos1","stimuli/BM07_AO.jpg","AO","BM07","0","4","8","8","stimuli/stars_8.png","223.5","[""AO"",""FO"",""HE"",""DO""]","[""BM07"",""BM16"",""HF10"",""BF05""]","[8,3,4,6]","[8,2,4,6]","","",""
"show-reward","132","411702","0.0-132.0","p454325","A1DZMZTXWOM9MR","3WRBLBQ2GSENM5LEFQY1C5PG0GV0GC","33IZTU6J8371WKYA34MQZHQJH92XS5","emotion","match","uniform","","","","","","","","411082.89999999944","413084.5","","","","","","","","","","","","8","","stimuli/stars_8.png","223.5","","","","","stimuli/BM07_AO.jpg","",""
"explore-choice","133","415151","0.0-133.0","p454325","A1DZMZTXWOM9MR","3WRBLBQ2GSENM5LEFQY1C5PG0GV0GC","33IZTU6J8371WKYA34MQZHQJH92XS5","emotion","match","uniform","","","","","","","2940.0999999996275","413084.7999999998","416024.89999999944","[""stimuli/BM07_FO.jpg"",""stimuli/BM16_AO.jpg"",""stimuli/HF10_DO.jpg"",""stimuli/BF05_HE.jpg""]","stimuli/BM07_FO.jpg","stimuli/BM16_AO.jpg","stimuli/HF10_DO.jpg","stimuli/BF05_HE.jpg","pos2","stimuli/BM16_AO.jpg","AO","BM16","1","4.5","9","8","stimuli/stars_9.png","228","[""FO"",""AO"",""DO"",""HE""]","[""BM07"",""BM16"",""HF10"",""BF05""]","[3,9,7,5]","[2,8,6,4]","","",""
"show-reward","134","417163","0.0-134.0","p454325","A1DZMZTXWOM9MR","3WRBLBQ2GSENM5LEFQY1C5PG0GV0GC","33IZTU6J8371WKYA34MQZHQJH92XS5","emotion","match","uniform","","","","","","","","416535.2999999998","418545.7999999998","","","","","","","","","","","","9","","stimuli/stars_9.png","228","","","","","stimuli/BM16_AO.jpg","",""
"explore-choice","135","420259","0.0-135.0","p454325","A1DZMZTXWOM9MR","3WRBLBQ2GSENM5LEFQY1C5PG0GV0GC","33IZTU6J8371WKYA34MQZHQJH92XS5","emotion","match","uniform","","","","","","","2594.5","418546.2999999998","421140.7999999998","[""stimuli/BM16_FO.jpg"",""stimuli/HF10_HE.jpg"",""stimuli/BF05_AO.jpg"",""stimuli/BM07_DO.jpg""]","stimuli/BM16_FO.jpg","stimuli/HF10_HE.jpg","stimuli/BF05_AO.jpg","stimuli/BM07_DO.jpg","pos3","stimuli/BF05_AO.jpg","AO","BF05","2","4.5","9","8","stimuli/stars_9.png","232.5","[""FO"",""HE"",""AO"",""DO""]","[""BM16"",""HF10"",""BF05"",""BM07""]","[1,5,9,5]","[2,4,8,6]","","",""
"show-reward","136","422264","0.0-136.0","p454325","A1DZMZTXWOM9MR","3WRBLBQ2GSENM5LEFQY1C5PG0GV0GC","33IZTU6J8371WKYA34MQZHQJH92XS5","emotion","match","uniform","","","","","","","","421642.89999999944","423646.2000000002","","","","","","","","","","","","9","","stimuli/stars_9.png","232.5","","","","","stimuli/BF05_AO.jpg","",""
"explore-choice","137","424497","0.0-137.0","p454325","A1DZMZTXWOM9MR","3WRBLBQ2GSENM5LEFQY1C5PG0GV0GC","33IZTU6J8371WKYA34MQZHQJH92XS5","emotion","match","uniform","","","","","","","1717.0999999996275","423646.7000000002","425363.7999999998","[""stimuli/BM16_DO.jpg"",""stimuli/BF05_AO.jpg"",""stimuli/HF10_FO.jpg"",""stimuli/BM07_HE.jpg""]","stimuli/BM16_DO.jpg","stimuli/BF05_AO.jpg","stimuli/HF10_FO.jpg","stimuli/BM07_HE.jpg","pos2","stimuli/BF05_AO.jpg","AO","BF05","1","4","8","8","stimuli/stars_8.png","236.5","[""DO"",""AO"",""FO"",""HE""]","[""BM16"",""BF05"",""HF10"",""BM07""]","[8,8,4,2]","[6,8,2,4]","","",""
"show-reward","138","426510","0.0-138.0","p454325","A1DZMZTXWOM9MR","3WRBLBQ2GSENM5LEFQY1C5PG0GV0GC","33IZTU6J8371WKYA34MQZHQJH92XS5","emotion","match","uniform","","","","","","","","425879.5","427892.2999999998","","","","","","","","","","","","8","","stimuli/stars_8.png","236.5","","","","","stimuli/BF05_AO.jpg","",""
"explore-choice","139","430181","0.0-139.0","p454325","A1DZMZTXWOM9MR","3WRBLBQ2GSENM5LEFQY1C5PG0GV0GC","33IZTU6J8371WKYA34MQZHQJH92XS5","emotion","match","uniform","","","","","","","3170.300000000745","427892.89999999944","431063.2000000002","[""stimuli/HF10_AO.jpg"",""stimuli/BM16_FO.jpg"",""stimuli/BM07_DO.jpg"",""stimuli/BF05_HE.jpg""]","stimuli/HF10_AO.jpg","stimuli/BM16_FO.jpg","stimuli/BM07_DO.jpg","stimuli/BF05_HE.jpg","pos1","stimuli/HF10_AO.jpg","AO","HF10","0","4.5","9","8","stimuli/stars_9.png","241","[""AO"",""FO"",""DO"",""HE""]","[""HF10"",""BM16"",""BM07"",""BF05""]","[9,0,6,4]","[8,2,6,4]","","",""
"show-reward","140","432188","0.0-140.0","p454325","A1DZMZTXWOM9MR","3WRBLBQ2GSENM5LEFQY1C5PG0GV0GC","33IZTU6J8371WKYA34MQZHQJH92XS5","emotion","match","uniform","","","","","","","","431565.0999999996","433570","","","","","","","","","","","","9","","stimuli/stars_9.png","241","","","","","stimuli/HF10_AO.jpg","",""
"explore-choice","141","435822","0.0-141.0","p454325","A1DZMZTXWOM9MR","3WRBLBQ2GSENM5LEFQY1C5PG0GV0GC","33IZTU6J8371WKYA34MQZHQJH92XS5","emotion","match","uniform","","","","","","","3132.5","433571.5","436704","[""stimuli/BM16_DO.jpg"",""stimuli/BM07_HE.jpg"",""stimuli/BF05_FO.jpg"",""stimuli/HF10_AO.jpg""]","stimuli/BM16_DO.jpg","stimuli/BM07_HE.jpg","stimuli/BF05_FO.jpg","stimuli/HF10_AO.jpg","pos4","stimuli/HF10_AO.jpg","AO","HF10","3","3.5","7","8","stimuli/stars_7.png","244.5","[""DO"",""HE"",""FO"",""AO""]","[""BM16"",""BM07"",""BF05"",""HF10""]","[8,4,1,7]","[6,4,2,8]","","",""
"show-reward","142","437823","0.0-142.0","p454325","A1DZMZTXWOM9MR","3WRBLBQ2GSENM5LEFQY1C5PG0GV0GC","33IZTU6J8371WKYA34MQZHQJH92XS5","emotion","match","uniform","","","","","","","","437204.7000000002","439205.89999999944","","","","","","","","","","","","7","","stimuli/stars_7.png","244.5","","","","","stimuli/HF10_AO.jpg","",""
"explore-choice","143","442708","0.0-143.0","p454325","A1DZMZTXWOM9MR","3WRBLBQ2GSENM5LEFQY1C5PG0GV0GC","33IZTU6J8371WKYA34MQZHQJH92XS5","emotion","match","uniform","","","","","","","4382.800000000745","439206.89999999944","443589.7000000002","[""stimuli/BM16_AO.jpg"",""stimuli/BM07_HE.jpg"",""stimuli/HF10_FO.jpg"",""stimuli/BF05_DO.jpg""]","stimuli/BM16_AO.jpg","stimuli/BM07_HE.jpg","stimuli/HF10_FO.jpg","stimuli/BF05_DO.jpg","pos4","stimuli/BF05_DO.jpg","DO","BF05","3","2","4","6","stimuli/stars_4.png","246.5","[""AO"",""HE"",""FO"",""DO""]","[""BM16"",""BM07"",""HF10"",""BF05""]","[9,4,1,4]","[8,4,2,6]","","",""
"show-reward","144","444713","0.0-144.0","p454325","A1DZMZTXWOM9MR","3WRBLBQ2GSENM5LEFQY1C5PG0GV0GC","33IZTU6J8371WKYA34MQZHQJH92XS5","emotion","match","uniform","","","","","","","","444090.5999999996","446095.5","","","","","","","","","","","","4","","stimuli/stars_4.png","246.5","","","","","stimuli/BF05_DO.jpg","",""
"explore-choice","145","447477","0.0-145.0","p454325","A1DZMZTXWOM9MR","3WRBLBQ2GSENM5LEFQY1C5PG0GV0GC","33IZTU6J8371WKYA34MQZHQJH92XS5","emotion","match","uniform","","","","","","","2261.7999999998137","446096.7999999998","448358.5999999996","[""stimuli/BM07_DO.jpg"",""stimuli/HF10_FO.jpg"",""stimuli/BF05_AO.jpg"",""stimuli/BM16_HE.jpg""]","stimuli/BM07_DO.jpg","stimuli/HF10_FO.jpg","stimuli/BF05_AO.jpg","stimuli/BM16_HE.jpg","pos3","stimuli/BF05_AO.jpg","AO","BF05","2","4.5","9","8","stimuli/stars_9.png","251","[""DO"",""FO"",""AO"",""HE""]","[""BM07"",""HF10"",""BF05"",""BM16""]","[5,0,9,5]","[6,2,8,4]","","",""
"show-reward","146","449482","0.0-146.0","p454325","A1DZMZTXWOM9MR","3WRBLBQ2GSENM5LEFQY1C5PG0GV0GC","33IZTU6J8371WKYA34MQZHQJH92XS5","emotion","match","uniform","","","","","","","","448860.5999999996","450864.5","","","","","","","","","","","","9","","stimuli/stars_9.png","251","","","","","stimuli/BF05_AO.jpg","",""
"explore-choice","147","453103","0.0-147.0","p454325","A1DZMZTXWOM9MR","3WRBLBQ2GSENM5LEFQY1C5PG0GV0GC","33IZTU6J8371WKYA34MQZHQJH92XS5","emotion","match","uniform","","","","","","","3119.2000000001863","450864.89999999944","453984.0999999996","[""stimuli/HF10_HE.jpg"",""stimuli/BF05_DO.jpg"",""stimuli/BM07_FO.jpg"",""stimuli/BM16_AO.jpg""]","stimuli/HF10_HE.jpg","stimuli/BF05_DO.jpg","stimuli/BM07_FO.jpg","stimuli/BM16_AO.jpg","pos4","stimuli/BM16_AO.jpg","AO","BM16","3","5","10","8","stimuli/stars_10.png","256","[""HE"",""DO"",""FO"",""AO""]","[""HF10"",""BF05"",""BM07"",""BM16""]","[3,8,3,10]","[4,6,2,8]","","",""
"show-reward","148","455104","0.0-148.0","p454325","A1DZMZTXWOM9MR","3WRBLBQ2GSENM5LEFQY1C5PG0GV0GC","33IZTU6J8371WKYA34MQZHQJH92XS5","emotion","match","uniform","","","","","","","","454485.39999999944","456486.7000000002","","","","","","","","","","","","10","","stimuli/stars_10.png","256","","","","","stimuli/BM16_AO.jpg","",""
"explore-choice","149","458309","0.0-149.0","p454325","A1DZMZTXWOM9MR","3WRBLBQ2GSENM5LEFQY1C5PG0GV0GC","33IZTU6J8371WKYA34MQZHQJH92XS5","emotion","match","uniform","","","","","","","2703","456487","459190","[""stimuli/HF10_FO.jpg"",""stimuli/BM16_DO.jpg"",""stimuli/BF05_HE.jpg"",""stimuli/BM07_AO.jpg""]","stimuli/HF10_FO.jpg","stimuli/BM16_DO.jpg","stimuli/BF05_HE.jpg","stimuli/BM07_AO.jpg","pos4","stimuli/BM07_AO.jpg","AO","BM07","3","4","8","8","stimuli/stars_8.png","260","[""FO"",""DO"",""HE"",""AO""]","[""HF10"",""BM16"",""BF05"",""BM07""]","[4,5,6,8]","[2,6,4,8]","","",""
"show-reward","150","460323","0.0-150.0","p454325","A1DZMZTXWOM9MR","3WRBLBQ2GSENM5LEFQY1C5PG0GV0GC","33IZTU6J8371WKYA34MQZHQJH92XS5","emotion","match","uniform","","","","","","","","459691.2999999998","461705.2000000002","","","","","","","","","","","","8","","stimuli/stars_8.png","260","","","","","stimuli/BM07_AO.jpg","",""
"explore-choice","151","463544","0.0-151.0","p454325","A1DZMZTXWOM9MR","3WRBLBQ2GSENM5LEFQY1C5PG0GV0GC","33IZTU6J8371WKYA34MQZHQJH92XS5","emotion","match","uniform","","","","","","","2703.5","461706.5999999996","464410.0999999996","[""stimuli/BM16_HE.jpg"",""stimuli/BF05_AO.jpg"",""stimuli/BM07_DO.jpg"",""stimuli/HF10_FO.jpg""]","stimuli/BM16_HE.jpg","stimuli/BF05_AO.jpg","stimuli/BM07_DO.jpg","stimuli/HF10_FO.jpg","pos2","stimuli/BF05_AO.jpg","AO","BF05","1","4.5","9","8","stimuli/stars_9.png","264.5","[""HE"",""AO"",""DO"",""FO""]","[""BM16"",""BF05"",""BM07"",""HF10""]","[5,9,5,0]","[4,8,6,2]","","",""
"show-reward","152","465555","0.0-152.0","p454325","A1DZMZTXWOM9MR","3WRBLBQ2GSENM5LEFQY1C5PG0GV0GC","33IZTU6J8371WKYA34MQZHQJH92XS5","emotion","match","uniform","","","","","","","","464927.39999999944","466937","","","","","","","","","","","","9","","stimuli/stars_9.png","264.5","","","","","stimuli/BF05_AO.jpg","",""
"explore-choice","153","468238","0.0-153.0","p454325","A1DZMZTXWOM9MR","3WRBLBQ2GSENM5LEFQY1C5PG0GV0GC","33IZTU6J8371WKYA34MQZHQJH92XS5","emotion","match","uniform","","","","","","","2181.899999999441","466937.5","469119.39999999944","[""stimuli/HF10_HE.jpg"",""stimuli/BF05_FO.jpg"",""stimuli/BM16_DO.jpg"",""stimuli/BM07_AO.jpg""]","stimuli/HF10_HE.jpg","stimuli/BF05_FO.jpg","stimuli/BM16_DO.jpg","stimuli/BM07_AO.jpg","pos4","stimuli/BM07_AO.jpg","AO","BM07","3","4","8","8","stimuli/stars_8.png","268.5","[""HE"",""FO"",""DO"",""AO""]","[""HF10"",""BF05"",""BM16"",""BM07""]","[5,1,5,8]","[4,2,6,8]","","",""
"show-reward","154","470240","0.0-154.0","p454325","A1DZMZTXWOM9MR","3WRBLBQ2GSENM5LEFQY1C5PG0GV0GC","33IZTU6J8371WKYA34MQZHQJH92XS5","emotion","match","uniform","","","","","","","","469620.7999999998","471622.2999999998","","","","","","","","","","","","8","","stimuli/stars_8.png","268.5","","","","","stimuli/BM07_AO.jpg","",""
"explore-choice","155","472309","0.0-155.0","p454325","A1DZMZTXWOM9MR","3WRBLBQ2GSENM5LEFQY1C5PG0GV0GC","33IZTU6J8371WKYA34MQZHQJH92XS5","emotion","match","uniform","","","","","","","1567.5","471623.5","473191","[""stimuli/BF05_DO.jpg"",""stimuli/BM07_AO.jpg"",""stimuli/BM16_HE.jpg"",""stimuli/HF10_FO.jpg""]","stimuli/BF05_DO.jpg","stimuli/BM07_AO.jpg","stimuli/BM16_HE.jpg","stimuli/HF10_FO.jpg","pos2","stimuli/BM07_AO.jpg","AO","BM07","1","4.5","9","8","stimuli/stars_9.png","273","[""DO"",""AO"",""HE"",""FO""]","[""BF05"",""BM07"",""BM16"",""HF10""]","[5,9,2,3]","[6,8,4,2]","","",""
"show-reward","156","474313","0.0-156.0","p454325","A1DZMZTXWOM9MR","3WRBLBQ2GSENM5LEFQY1C5PG0GV0GC","33IZTU6J8371WKYA34MQZHQJH92XS5","emotion","match","uniform","","","","","","","","473691.89999999944","475694.7000000002","","","","","","","","","","","","9","","stimuli/stars_9.png","273","","","","","stimuli/BM07_AO.jpg","",""
"explore-choice","157","479565","0.0-157.0","p454325","A1DZMZTXWOM9MR","3WRBLBQ2GSENM5LEFQY1C5PG0GV0GC","33IZTU6J8371WKYA34MQZHQJH92XS5","emotion","match","uniform","","","","","","","4749.899999999441","475695","480444.89999999944","[""stimuli/BM07_FO.jpg"",""stimuli/BF05_AO.jpg"",""stimuli/HF10_DO.jpg"",""stimuli/BM16_HE.jpg""]","stimuli/BM07_FO.jpg","stimuli/BF05_AO.jpg","stimuli/HF10_DO.jpg","stimuli/BM16_HE.jpg","pos2","stimuli/BF05_AO.jpg","AO","BF05","1","3.5","7","8","stimuli/stars_7.png","276.5","[""FO"",""AO"",""DO"",""HE""]","[""BM07"",""BF05"",""HF10"",""BM16""]","[4,7,8,6]","[2,8,6,4]","","",""
"show-reward","158","481567","0.0-158.0","p454325","A1DZMZTXWOM9MR","3WRBLBQ2GSENM5LEFQY1C5PG0GV0GC","33IZTU6J8371WKYA34MQZHQJH92XS5","emotion","match","uniform","","","","","","","","480948.5","482949.5","","","","","","","","","","","","7","","stimuli/stars_7.png","276.5","","","","","stimuli/BF05_AO.jpg","",""
"explore-choice","159","485497","0.0-159.0","p454325","A1DZMZTXWOM9MR","3WRBLBQ2GSENM5LEFQY1C5PG0GV0GC","33IZTU6J8371WKYA34MQZHQJH92XS5","emotion","match","uniform","","","","","","","3427.100000000559","482949.89999999944","486377","[""stimuli/BM16_FO.jpg"",""stimuli/BF05_DO.jpg"",""stimuli/HF10_AO.jpg"",""stimuli/BM07_HE.jpg""]","stimuli/BM16_FO.jpg","stimuli/BF05_DO.jpg","stimuli/HF10_AO.jpg","stimuli/BM07_HE.jpg","pos3","stimuli/HF10_AO.jpg","AO","HF10","2","5","10","8","stimuli/stars_10.png","281.5","[""FO"",""DO"",""AO"",""HE""]","[""BM16"",""BF05"",""HF10"",""BM07""]","[3,6,10,5]","[2,6,8,4]","","",""
"show-reward","160","487507","0.0-160.0","p454325","A1DZMZTXWOM9MR","3WRBLBQ2GSENM5LEFQY1C5PG0GV0GC","33IZTU6J8371WKYA34MQZHQJH92XS5","emotion","match","uniform","","","","","","","","486879.2999999998","488889.0999999996","","","","","","","","","","","","10","","stimuli/stars_10.png","281.5","","","","","stimuli/HF10_AO.jpg","",""
"explore-choice","161","490702","0.0-161.0","p454325","A1DZMZTXWOM9MR","3WRBLBQ2GSENM5LEFQY1C5PG0GV0GC","33IZTU6J8371WKYA34MQZHQJH92XS5","emotion","match","uniform","","","","","","","2693","488889.5","491582.5","[""stimuli/BM07_FO.jpg"",""stimuli/BM16_DO.jpg"",""stimuli/HF10_HE.jpg"",""stimuli/BF05_AO.jpg""]","stimuli/BM07_FO.jpg","stimuli/BM16_DO.jpg","stimuli/HF10_HE.jpg","stimuli/BF05_AO.jpg","pos4","stimuli/BF05_AO.jpg","AO","BF05","3","4.5","9","8","stimuli/stars_9.png","286","[""FO"",""DO"",""HE"",""AO""]","[""BM07"",""BM16"",""HF10"",""BF05""]","[2,4,3,9]","[2,6,4,8]","","",""
"show-reward","162","492721","0.0-162.0","p454325","A1DZMZTXWOM9MR","3WRBLBQ2GSENM5LEFQY1C5PG0GV0GC","33IZTU6J8371WKYA34MQZHQJH92XS5","emotion","match","uniform","","","","","","","","492085.0999999996","494102.7999999998","","","","","","","","","","","","9","","stimuli/stars_9.png","286","","","","","stimuli/BF05_AO.jpg","",""
"explore-choice","163","496483","0.0-163.0","p454325","A1DZMZTXWOM9MR","3WRBLBQ2GSENM5LEFQY1C5PG0GV0GC","33IZTU6J8371WKYA34MQZHQJH92XS5","emotion","match","uniform","","","","","","","3260.800000000745","494103.89999999944","497364.7000000002","[""stimuli/HF10_AO.jpg"",""stimuli/BM16_DO.jpg"",""stimuli/BF05_FO.jpg"",""stimuli/BM07_HE.jpg""]","stimuli/HF10_AO.jpg","stimuli/BM16_DO.jpg","stimuli/BF05_FO.jpg","stimuli/BM07_HE.jpg","pos1","stimuli/HF10_AO.jpg","AO","HF10","0","3.5","7","8","stimuli/stars_7.png","289.5","[""AO"",""DO"",""FO"",""HE""]","[""HF10"",""BM16"",""BF05"",""BM07""]","[7,8,1,4]","[8,6,2,4]","","",""
"show-reward","164","498485","0.0-164.0","p454325","A1DZMZTXWOM9MR","3WRBLBQ2GSENM5LEFQY1C5PG0GV0GC","33IZTU6J8371WKYA34MQZHQJH92XS5","emotion","match","uniform","","","","","","","","497866","499867.5","","","","","","","","","","","","7","","stimuli/stars_7.png","289.5","","","","","stimuli/HF10_AO.jpg","",""
"explore-choice","165","500655","0.0-165.0","p454325","A1DZMZTXWOM9MR","3WRBLBQ2GSENM5LEFQY1C5PG0GV0GC","33IZTU6J8371WKYA34MQZHQJH92XS5","emotion","match","uniform","","","","","","","1669.1000000005588","499867.89999999944","501537","[""stimuli/BM07_AO.jpg"",""stimuli/BM16_HE.jpg"",""stimuli/HF10_DO.jpg"",""stimuli/BF05_FO.jpg""]","stimuli/BM07_AO.jpg","stimuli/BM16_HE.jpg","stimuli/HF10_DO.jpg","stimuli/BF05_FO.jpg","pos1","stimuli/BM07_AO.jpg","AO","BM07","0","4","8","8","stimuli/stars_8.png","293.5","[""AO"",""HE"",""DO"",""FO""]","[""BM07"",""BM16"",""HF10"",""BF05""]","[8,3,8,0]","[8,4,6,2]","","",""
"show-reward","166","502673","0.0-166.0","p454325","A1DZMZTXWOM9MR","3WRBLBQ2GSENM5LEFQY1C5PG0GV0GC","33IZTU6J8371WKYA34MQZHQJH92XS5","emotion","match","uniform","","","","","","","","502038.0999999996","504054.7000000002","","","","","","","","","","","","8","","stimuli/stars_8.png","293.5","","","","","stimuli/BM07_AO.jpg","",""
"explore-choice","167","504922","0.0-167.0","p454325","A1DZMZTXWOM9MR","3WRBLBQ2GSENM5LEFQY1C5PG0GV0GC","33IZTU6J8371WKYA34MQZHQJH92XS5","emotion","match","uniform","","","","","","","1748.1000000005588","504055.89999999944","505804","[""stimuli/BM07_AO.jpg"",""stimuli/HF10_HE.jpg"",""stimuli/BM16_FO.jpg"",""stimuli/BF05_DO.jpg""]","stimuli/BM07_AO.jpg","stimuli/HF10_HE.jpg","stimuli/BM16_FO.jpg","stimuli/BF05_DO.jpg","pos1","stimuli/BM07_AO.jpg","AO","BM07","0","4","8","8","stimuli/stars_8.png","297.5","[""AO"",""HE"",""FO"",""DO""]","[""BM07"",""HF10"",""BM16"",""BF05""]","[8,4,3,6]","[8,4,2,6]","","",""
"show-reward","168","506923","0.0-168.0","p454325","A1DZMZTXWOM9MR","3WRBLBQ2GSENM5LEFQY1C5PG0GV0GC","33IZTU6J8371WKYA34MQZHQJH92XS5","emotion","match","uniform","","","","","","","","506304.89999999944","508306.39999999944","","","","","","","","","","","","8","","stimuli/stars_8.png","297.5","","","","","stimuli/BM07_AO.jpg","",""
"explore-choice","169","510410","0.0-169.0","p454325","A1DZMZTXWOM9MR","3WRBLBQ2GSENM5LEFQY1C5PG0GV0GC","33IZTU6J8371WKYA34MQZHQJH92XS5","emotion","match","uniform","","","","","","","2986.5","508306.7999999998","511293.2999999998","[""stimuli/BF05_HE.jpg"",""stimuli/BM07_FO.jpg"",""stimuli/BM16_DO.jpg"",""stimuli/HF10_AO.jpg""]","stimuli/BF05_HE.jpg","stimuli/BM07_FO.jpg","stimuli/BM16_DO.jpg","stimuli/HF10_AO.jpg","pos4","stimuli/HF10_AO.jpg","AO","HF10","3","3","6","8","stimuli/stars_6.png","300.5","[""HE"",""FO"",""DO"",""AO""]","[""BF05"",""BM07"",""BM16"",""HF10""]","[3,2,5,6]","[4,2,6,8]","","",""
"show-reward","170","512421","0.0-170.0","p454325","A1DZMZTXWOM9MR","3WRBLBQ2GSENM5LEFQY1C5PG0GV0GC","33IZTU6J8371WKYA34MQZHQJH92XS5","emotion","match","uniform","","","","","","","","511793.89999999944","513804","","","","","","","","","","","","6","","stimuli/stars_6.png","300.5","","","","","stimuli/HF10_AO.jpg","",""
"explore-choice","171","514895","0.0-171.0","p454325","A1DZMZTXWOM9MR","3WRBLBQ2GSENM5LEFQY1C5PG0GV0GC","33IZTU6J8371WKYA34MQZHQJH92XS5","emotion","match","uniform","","","","","","","1973.4000000003725","513804.39999999944","515777.7999999998","[""stimuli/BF05_HE.jpg"",""stimuli/BM16_FO.jpg"",""stimuli/HF10_DO.jpg"",""stimuli/BM07_AO.jpg""]","stimuli/BF05_HE.jpg","stimuli/BM16_FO.jpg","stimuli/HF10_DO.jpg","stimuli/BM07_AO.jpg","pos4","stimuli/BM07_AO.jpg","AO","BM07","3","5","10","8","stimuli/stars_10.png","305.5","[""HE"",""FO"",""DO"",""AO""]","[""BF05"",""BM16"",""HF10"",""BM07""]","[4,4,7,10]","[4,2,6,8]","","",""
"show-reward","172","516909","0.0-172.0","p454325","A1DZMZTXWOM9MR","3WRBLBQ2GSENM5LEFQY1C5PG0GV0GC","33IZTU6J8371WKYA34MQZHQJH92XS5","emotion","match","uniform","","","","","","","","516278.2999999998","518291.7999999998","","","","","","","","","","","","10","","stimuli/stars_10.png","305.5","","","","","stimuli/BM07_AO.jpg","",""
"explore-choice","173","520409","0.0-173.0","p454325","A1DZMZTXWOM9MR","3WRBLBQ2GSENM5LEFQY1C5PG0GV0GC","33IZTU6J8371WKYA34MQZHQJH92XS5","emotion","match","uniform","","","","","","","2998.5","518292.2999999998","521290.7999999998","[""stimuli/BM16_AO.jpg"",""stimuli/BM07_DO.jpg"",""stimuli/BF05_FO.jpg"",""stimuli/HF10_HE.jpg""]","stimuli/BM16_AO.jpg","stimuli/BM07_DO.jpg","stimuli/BF05_FO.jpg","stimuli/HF10_HE.jpg","pos1","stimuli/BM16_AO.jpg","AO","BM16","0","3.5","7","8","stimuli/stars_7.png","309","[""AO"",""DO"",""FO"",""HE""]","[""BM16"",""BM07"",""BF05"",""HF10""]","[7,5,3,4]","[8,6,2,4]","","",""
"show-reward","174","522411","0.0-174.0","p454325","A1DZMZTXWOM9MR","3WRBLBQ2GSENM5LEFQY1C5PG0GV0GC","33IZTU6J8371WKYA34MQZHQJH92XS5","emotion","match","uniform","","","","","","","","521792.89999999944","523794.2999999998","","","","","","","","","","","","7","","stimuli/stars_7.png","309","","","","","stimuli/BM16_AO.jpg","",""
"explore-choice","175","525359","0.0-175.0","p454325","A1DZMZTXWOM9MR","3WRBLBQ2GSENM5LEFQY1C5PG0GV0GC","33IZTU6J8371WKYA34MQZHQJH92XS5","emotion","match","uniform","","","","","","","2446.600000000559","523794.5999999996","526241.2000000002","[""stimuli/BF05_DO.jpg"",""stimuli/BM16_AO.jpg"",""stimuli/BM07_HE.jpg"",""stimuli/HF10_FO.jpg""]","stimuli/BF05_DO.jpg","stimuli/BM16_AO.jpg","stimuli/BM07_HE.jpg","stimuli/HF10_FO.jpg","pos2","stimuli/BM16_AO.jpg","AO","BM16","1","4.5","9","8","stimuli/stars_9.png","313.5","[""DO"",""AO"",""HE"",""FO""]","[""BF05"",""BM16"",""BM07"",""HF10""]","[4,9,4,1]","[6,8,4,2]","","",""
"show-reward","176","527364","0.0-176.0","p454325","A1DZMZTXWOM9MR","3WRBLBQ2GSENM5LEFQY1C5PG0GV0GC","33IZTU6J8371WKYA34MQZHQJH92XS5","emotion","match","uniform","","","","","","","","526743.3999999994","528746.8999999994","","","","","","","","","","","","9","","stimuli/stars_9.png","313.5","","","","","stimuli/BM16_AO.jpg","",""
"explore-choice","177","530167","0.0-177.0","p454325","A1DZMZTXWOM9MR","3WRBLBQ2GSENM5LEFQY1C5PG0GV0GC","33IZTU6J8371WKYA34MQZHQJH92XS5","emotion","match","uniform","","","","","","","2301.100000000559","528747.0999999996","531048.2000000002","[""stimuli/BM16_HE.jpg"",""stimuli/BM07_FO.jpg"",""stimuli/HF10_AO.jpg"",""stimuli/BF05_DO.jpg""]","stimuli/BM16_HE.jpg","stimuli/BM07_FO.jpg","stimuli/HF10_AO.jpg","stimuli/BF05_DO.jpg","pos4","stimuli/BF05_DO.jpg","DO","BF05","3","2.5","5","6","stimuli/stars_5.png","316","[""HE"",""FO"",""AO"",""DO""]","[""BM16"",""BM07"",""HF10"",""BF05""]","[6,0,10,5]","[4,2,8,6]","","",""
"show-reward","178","532173","0.0-178.0","p454325","A1DZMZTXWOM9MR","3WRBLBQ2GSENM5LEFQY1C5PG0GV0GC","33IZTU6J8371WKYA34MQZHQJH92XS5","emotion","match","uniform","","","","","","","","531550.8999999994","533555.5999999996","","","","","","","","","","","","5","","stimuli/stars_5.png","316","","","","","stimuli/BF05_DO.jpg","",""
"explore-choice","179","534414","0.0-179.0","p454325","A1DZMZTXWOM9MR","3WRBLBQ2GSENM5LEFQY1C5PG0GV0GC","33IZTU6J8371WKYA34MQZHQJH92XS5","emotion","match","uniform","","","","","","","1739.6000000005588","533556.0999999996","535295.7000000002","[""stimuli/BM07_HE.jpg"",""stimuli/BF05_FO.jpg"",""stimuli/BM16_AO.jpg"",""stimuli/HF10_DO.jpg""]","stimuli/BM07_HE.jpg","stimuli/BF05_FO.jpg","stimuli/BM16_AO.jpg","stimuli/HF10_DO.jpg","pos3","stimuli/BM16_AO.jpg","AO","BM16","2","5","10","8","stimuli/stars_10.png","321","[""HE"",""FO"",""AO"",""DO""]","[""BM07"",""BF05"",""BM16"",""HF10""]","[4,4,10,7]","[4,2,8,6]","","",""
"show-reward","180","536415","0.0-180.0","p454325","A1DZMZTXWOM9MR","3WRBLBQ2GSENM5LEFQY1C5PG0GV0GC","33IZTU6J8371WKYA34MQZHQJH92XS5","emotion","match","uniform","","","","","","","","535797.2999999998","537797.8999999994","","","","","","","","","","","","10","","stimuli/stars_10.png","321","","","","","stimuli/BM16_AO.jpg","",""
"explore-choice","181","539163","0.0-181.0","p454325","A1DZMZTXWOM9MR","3WRBLBQ2GSENM5LEFQY1C5PG0GV0GC","33IZTU6J8371WKYA34MQZHQJH92XS5","emotion","match","uniform","","","","","","","2242.9000000003725","537798.2999999998","540041.2000000002","[""stimuli/HF10_FO.jpg"",""stimuli/BM16_AO.jpg"",""stimuli/BM07_DO.jpg"",""stimuli/BF05_HE.jpg""]","stimuli/HF10_FO.jpg","stimuli/BM16_AO.jpg","stimuli/BM07_DO.jpg","stimuli/BF05_HE.jpg","pos2","stimuli/BM16_AO.jpg","AO","BM16","1","3","6","8","stimuli/stars_6.png","324","[""FO"",""AO"",""DO"",""HE""]","[""HF10"",""BM16"",""BM07"",""BF05""]","[2,6,8,4]","[2,8,6,4]","","",""
"show-reward","182","541165","0.0-182.0","p454325","A1DZMZTXWOM9MR","3WRBLBQ2GSENM5LEFQY1C5PG0GV0GC","33IZTU6J8371WKYA34MQZHQJH92XS5","emotion","match","uniform","","","","","","","","540546.7000000002","542547.8999999994","","","","","","","","","","","","6","","stimuli/stars_6.png","324","","","","","stimuli/BM16_AO.jpg","",""
"explore-choice","183","544763","0.0-183.0","p454325","A1DZMZTXWOM9MR","3WRBLBQ2GSENM5LEFQY1C5PG0GV0GC","33IZTU6J8371WKYA34MQZHQJH92XS5","emotion","match","uniform","","","","","","","3096","542548.2999999998","545644.2999999998","[""stimuli/HF10_AO.jpg"",""stimuli/BF05_FO.jpg"",""stimuli/BM07_DO.jpg"",""stimuli/BM16_HE.jpg""]","stimuli/HF10_AO.jpg","stimuli/BF05_FO.jpg","stimuli/BM07_DO.jpg","stimuli/BM16_HE.jpg","pos1","stimuli/HF10_AO.jpg","AO","HF10","0","3.5","7","8","stimuli/stars_7.png","327.5","[""AO"",""FO"",""DO"",""HE""]","[""HF10"",""BF05"",""BM07"",""BM16""]","[7,3,8,3]","[8,2,6,4]","","",""
"show-reward","184","546767","0.0-184.0","p454325","A1DZMZTXWOM9MR","3WRBLBQ2GSENM5LEFQY1C5PG0GV0GC","33IZTU6J8371WKYA34MQZHQJH92XS5","emotion","match","uniform","","","","","","","","546147.2000000002","548150.0999999996","","","","","","","","","","","","7","","stimuli/stars_7.png","327.5","","","","","stimuli/HF10_AO.jpg","",""
"explore-choice","185","549262","0.0-185.0","p454325","A1DZMZTXWOM9MR","3WRBLBQ2GSENM5LEFQY1C5PG0GV0GC","33IZTU6J8371WKYA34MQZHQJH92XS5","emotion","match","uniform","","","","","","","1991.5999999996275","548151.5","550143.0999999996","[""stimuli/BM07_AO.jpg"",""stimuli/BM16_DO.jpg"",""stimuli/BF05_HE.jpg"",""stimuli/HF10_FO.jpg""]","stimuli/BM07_AO.jpg","stimuli/BM16_DO.jpg","stimuli/BF05_HE.jpg","stimuli/HF10_FO.jpg","pos1","stimuli/BM07_AO.jpg","AO","BM07","0","4","8","8","stimuli/stars_8.png","331.5","[""AO"",""DO"",""HE"",""FO""]","[""BM07"",""BM16"",""BF05"",""HF10""]","[8,5,6,4]","[8,6,4,2]","","",""
"show-reward","186","551263","0.0-186.0","p454325","A1DZMZTXWOM9MR","3WRBLBQ2GSENM5LEFQY1C5PG0GV0GC","33IZTU6J8371WKYA34MQZHQJH92XS5","emotion","match","uniform","","","","","","","","550645.2000000002","552646.2999999998","","","","","","","","","","","","8","","stimuli/stars_8.png","331.5","","","","","stimuli/BM07_AO.jpg","",""
"explore-choice","187","554520","0.0-187.0","p454325","A1DZMZTXWOM9MR","3WRBLBQ2GSENM5LEFQY1C5PG0GV0GC","33IZTU6J8371WKYA34MQZHQJH92XS5","emotion","match","uniform","","","","","","","2754.7000000001863","552647.5","555402.2000000002","[""stimuli/BM07_HE.jpg"",""stimuli/HF10_FO.jpg"",""stimuli/BM16_DO.jpg"",""stimuli/BF05_AO.jpg""]","stimuli/BM07_HE.jpg","stimuli/HF10_FO.jpg","stimuli/BM16_DO.jpg","stimuli/BF05_AO.jpg","pos3","stimuli/BM16_DO.jpg","DO","BM16","2","4","8","6","stimuli/stars_8.png","335.5","[""HE"",""FO"",""DO"",""AO""]","[""BM07"",""HF10"",""BM16"",""BF05""]","[2,4,8,8]","[4,2,6,8]","","",""
"show-reward","188","556535","0.0-188.0","p454325","A1DZMZTXWOM9MR","3WRBLBQ2GSENM5LEFQY1C5PG0GV0GC","33IZTU6J8371WKYA34MQZHQJH92XS5","emotion","match","uniform","","","","","","","","555903.3999999994","557918","","","","","","","","","","","","8","","stimuli/stars_8.png","335.5","","","","","stimuli/BM16_DO.jpg","",""
"explore-choice","189","559539","0.0-189.0","p454325","A1DZMZTXWOM9MR","3WRBLBQ2GSENM5LEFQY1C5PG0GV0GC","33IZTU6J8371WKYA34MQZHQJH92XS5","emotion","match","uniform","","","","","","","2501.600000000559","557918.5999999996","560420.2000000002","[""stimuli/BM16_FO.jpg"",""stimuli/BM07_HE.jpg"",""stimuli/BF05_AO.jpg"",""stimuli/HF10_DO.jpg""]","stimuli/BM16_FO.jpg","stimuli/BM07_HE.jpg","stimuli/BF05_AO.jpg","stimuli/HF10_DO.jpg","pos3","stimuli/BF05_AO.jpg","AO","BF05","2","3.5","7","8","stimuli/stars_7.png","339","[""FO"",""HE"",""AO"",""DO""]","[""BM16"",""BM07"",""BF05"",""HF10""]","[0,2,7,5]","[2,4,8,6]","","",""
"show-reward","190","561554","0.0-190.0","p454325","A1DZMZTXWOM9MR","3WRBLBQ2GSENM5LEFQY1C5PG0GV0GC","33IZTU6J8371WKYA34MQZHQJH92XS5","emotion","match","uniform","","","","","","","","560922.0999999996","562937","","","","","","","","","","","","7","","stimuli/stars_7.png","339","","","","","stimuli/BF05_AO.jpg","",""
"explore-choice","191","564307","0.0-191.0","p454325","A1DZMZTXWOM9MR","3WRBLBQ2GSENM5LEFQY1C5PG0GV0GC","33IZTU6J8371WKYA34MQZHQJH92XS5","emotion","match","uniform","","","","","","","2251.2000000001863","562937.7999999998","565189","[""stimuli/BM16_AO.jpg"",""stimuli/HF10_DO.jpg"",""stimuli/BM07_FO.jpg"",""stimuli/BF05_HE.jpg""]","stimuli/BM16_AO.jpg","stimuli/HF10_DO.jpg","stimuli/BM07_FO.jpg","stimuli/BF05_HE.jpg","pos1","stimuli/BM16_AO.jpg","AO","BM16","0","4.5","9","8","stimuli/stars_9.png","343.5","[""AO"",""DO"",""FO"",""HE""]","[""BM16"",""HF10"",""BM07"",""BF05""]","[9,7,3,5]","[8,6,2,4]","","",""
"show-reward","192","566317","0.0-192.0","p454325","A1DZMZTXWOM9MR","3WRBLBQ2GSENM5LEFQY1C5PG0GV0GC","33IZTU6J8371WKYA34MQZHQJH92XS5","emotion","match","uniform","","","","","","","","565691.7000000002","567699.0999999996","","","","","","","","","","","","9","","stimuli/stars_9.png","343.5","","","","","stimuli/BM16_AO.jpg","",""
"explore-choice","193","568942","0.0-193.0","p454325","A1DZMZTXWOM9MR","3WRBLBQ2GSENM5LEFQY1C5PG0GV0GC","33IZTU6J8371WKYA34MQZHQJH92XS5","emotion","match","uniform","","","","","","","2124.2999999998137","567700.2999999998","569824.5999999996","[""stimuli/BM16_AO.jpg"",""stimuli/BF05_DO.jpg"",""stimuli/BM07_FO.jpg"",""stimuli/HF10_HE.jpg""]","stimuli/BM16_AO.jpg","stimuli/BF05_DO.jpg","stimuli/BM07_FO.jpg","stimuli/HF10_HE.jpg","pos1","stimuli/BM16_AO.jpg","AO","BM16","0","5","10","8","stimuli/stars_10.png","348.5","[""AO"",""DO"",""FO"",""HE""]","[""BM16"",""BF05"",""BM07"",""HF10""]","[10,8,3,3]","[8,6,2,4]","","",""
"show-reward","194","570944","0.0-194.0","p454325","A1DZMZTXWOM9MR","3WRBLBQ2GSENM5LEFQY1C5PG0GV0GC","33IZTU6J8371WKYA34MQZHQJH92XS5","emotion","match","uniform","","","","","","","","570325.3999999994","572326.3999999994","","","","","","","","","","","","10","","stimuli/stars_10.png","348.5","","","","","stimuli/BM16_AO.jpg","",""
"explore-choice","195","573270","0.0-195.0","p454325","A1DZMZTXWOM9MR","3WRBLBQ2GSENM5LEFQY1C5PG0GV0GC","33IZTU6J8371WKYA34MQZHQJH92XS5","emotion","match","uniform","","","","","","","1825.3999999994412","572326.7000000002","574152.0999999996","[""stimuli/HF10_AO.jpg"",""stimuli/BM16_FO.jpg"",""stimuli/BM07_DO.jpg"",""stimuli/BF05_HE.jpg""]","stimuli/HF10_AO.jpg","stimuli/BM16_FO.jpg","stimuli/BM07_DO.jpg","stimuli/BF05_HE.jpg","pos1","stimuli/HF10_AO.jpg","AO","HF10","0","4.5","9","8","stimuli/stars_9.png","353","[""AO"",""FO"",""DO"",""HE""]","[""HF10"",""BM16"",""BM07"",""BF05""]","[9,0,6,4]","[8,2,6,4]","","",""
"show-reward","196","575290","0.0-196.0","p454325","A1DZMZTXWOM9MR","3WRBLBQ2GSENM5LEFQY1C5PG0GV0GC","33IZTU6J8371WKYA34MQZHQJH92XS5","emotion","match","uniform","","","","","","","","574654.0999999996","576672.7000000002","","","","","","","","","","","","9","","stimuli/stars_9.png","353","","","","","stimuli/HF10_AO.jpg","",""
"explore-choice","197","578049","0.0-197.0","p454325","A1DZMZTXWOM9MR","3WRBLBQ2GSENM5LEFQY1C5PG0GV0GC","33IZTU6J8371WKYA34MQZHQJH92XS5","emotion","match","uniform","","","","","","","2257","576673.2000000002","578930.2000000002","[""stimuli/BM07_DO.jpg"",""stimuli/HF10_HE.jpg"",""stimuli/BF05_AO.jpg"",""stimuli/BM16_FO.jpg""]","stimuli/BM07_DO.jpg","stimuli/HF10_HE.jpg","stimuli/BF05_AO.jpg","stimuli/BM16_FO.jpg","pos3","stimuli/BF05_AO.jpg","AO","BF05","2","4.5","9","8","stimuli/stars_9.png","357.5","[""DO"",""HE"",""AO"",""FO""]","[""BM07"",""HF10"",""BF05"",""BM16""]","[5,5,9,1]","[6,4,8,2]","","",""
"show-reward","198","580051","0.0-198.0","p454325","A1DZMZTXWOM9MR","3WRBLBQ2GSENM5LEFQY1C5PG0GV0GC","33IZTU6J8371WKYA34MQZHQJH92XS5","emotion","match","uniform","","","","","","","","579431.8999999994","581433.7000000002","","","","","","","","","","","","9","","stimuli/stars_9.png","357.5","","","","","stimuli/BF05_AO.jpg","",""
"instructions","199","587905","0.0-199.0","p454325","A1DZMZTXWOM9MR","3WRBLBQ2GSENM5LEFQY1C5PG0GV0GC","33IZTU6J8371WKYA34MQZHQJH92XS5","emotion","match","uniform","","","","","","[{""page_index"":0,""viewing_time"":7853.5}]","7853.899999999441","","","","","","","","","","","","","","","","","","","","","","","",""
"survey-text","200","593688","0.0-200.0-0.0","p454325","A1DZMZTXWOM9MR","3WRBLBQ2GSENM5LEFQY1C5PG0GV0GC","33IZTU6J8371WKYA34MQZHQJH92XS5","emotion","match","uniform","","","","","","","5780.5","","","","","","","","","","","","","","","","","","","","","","","{""age"":""40""}",""
"survey-text","201","600333","0.0-200.0-1.0","p454325","A1DZMZTXWOM9MR","3WRBLBQ2GSENM5LEFQY1C5PG0GV0GC","33IZTU6J8371WKYA34MQZHQJH92XS5","emotion","match","uniform","","","","","","","6643.899999999441","","","","","","","","","","","","","","","","","","","","","","","{""gender"":""male""}",""
"survey-text","202","609416","0.0-200.0-2.0","p454325","A1DZMZTXWOM9MR","3WRBLBQ2GSENM5LEFQY1C5PG0GV0GC","33IZTU6J8371WKYA34MQZHQJH92XS5","emotion","match","uniform","","","","","","","9081.900000000373","","","","","","","","","","","","","","","","","","","","","","","{""country"":""United States""}",""
"survey-text","203","625004","0.0-200.0-3.0","p454325","A1DZMZTXWOM9MR","3WRBLBQ2GSENM5LEFQY1C5PG0GV0GC","33IZTU6J8371WKYA34MQZHQJH92XS5","emotion","match","uniform","","","","","","","15585.599999999627","","","","","","","","","","","","","","","","","","","","","","","{""language"":""English"",""other_languages"":""none""}",""
"survey-multi-select","204","629351","0.0-201.0","p454325","A1DZMZTXWOM9MR","3WRBLBQ2GSENM5LEFQY1C5PG0GV0GC","33IZTU6J8371WKYA34MQZHQJH92XS5","emotion","match","uniform","","","","","","","4343.700000000186","","","","","","","","","","","","","","","","","","","","","","","{""race"":[""Black or African American""]}","[0]"
"survey-multi-choice","205","640737","0.0-202.0","p454325","A1DZMZTXWOM9MR","3WRBLBQ2GSENM5LEFQY1C5PG0GV0GC","33IZTU6J8371WKYA34MQZHQJH92XS5","emotion","match","uniform","","","","","","","11384.900000000373","","","","","","","","","","","","","","","","","","","","","","","{""education"":""High school""}","[0]"
"survey-text","206","767093","0.0-203.0","p454325","A1DZMZTXWOM9MR","3WRBLBQ2GSENM5LEFQY1C5PG0GV0GC","33IZTU6J8371WKYA34MQZHQJH92XS5","emotion","match","uniform","","","","","","","126353.29999999888","","","","","","","","","","","","","","","","","","","","","","","{""patterns"":""During the trials with the first group, those that were smiling gave the most points. During the trials with the second group, those that were angry gave the most points."",""strategy"":""I tested out each face type until I found the ones that gave the most points."",""comments"":""none""}",""
