"trial_type","trial_index","time_elapsed","internal_node_id","subject","workerId","hitId","assignmentId","structure_condition","match_condition","noise_type","success","timeout","failed_images","failed_audio","failed_video","view_history","rt","start_time","end_time","stimuli","image1","image2","image3","image4","choiceLocation","choiceImage","choiceEmotion","choiceModel","choice_index","reward_score","reward","reward_score_unadjusted","reward_image","score_after_trial","emotions","models","rewards","rewards_unadjusted","stimulus","response","question_order"
"pavlovia","0","7","0.0-0.0","p85146","A1TPGXT718D68E","3RZS0FBRWLGDTA9TUPH81F59AWHPC0","3RJSC4XJ120STSUOOWKBXSTGTJE50N","emotion","match","uniform","","","","","","","","","","","","","","","","","","","","","","","","","","","","","","",""
"preload","1","3672","0.0-1.0","p85146","A1TPGXT718D68E","3RZS0FBRWLGDTA9TUPH81F59AWHPC0","3RJSC4XJ120STSUOOWKBXSTGTJE50N","emotion","match","uniform","true","false","[]","[]","[]","","","","","","","","","","","","","","","","","","","","","","","","","",""
"fullscreen","2","6708","0.0-2.0","p85146","A1TPGXT718D68E","3RZS0FBRWLGDTA9TUPH81F59AWHPC0","3RJSC4XJ120STSUOOWKBXSTGTJE50N","emotion","match","uniform","true","","","","","","","","","","","","","","","","","","","","","","","","","","","","","",""
"instructions","3","13970","0.0-3.0","p85146","A1TPGXT718D68E","3RZS0FBRWLGDTA9TUPH81F59AWHPC0","3RJSC4XJ120STSUOOWKBXSTGTJE50N","emotion","match","uniform","","","","","","[{""page_index"":0,""viewing_time"":7260.200000047684}]","7260.899999976158","","","","","","","","","","","","","","","","","","","","","","","",""
"explore-choice","4","16928","0.0-4.0","p85146","A1TPGXT718D68E","3RZS0FBRWLGDTA9TUPH81F59AWHPC0","3RJSC4XJ120STSUOOWKBXSTGTJE50N","emotion","match","uniform","","","","","","","2449.5","15542.699999928474","17992.199999928474","[""stimuli/sheep.jpg"",""stimuli/hammer.jpg"",""stimuli/basketball.jpg"",""stimuli/horse.jpg""]","stimuli/sheep.jpg","stimuli/hammer.jpg","stimuli/basketball.jpg","stimuli/horse.jpg","pos4","stimuli/horse.jpg","","","3","64","64","64","stimuli/stars_8.png","65","","","","","","",""
"explore-choice","5","18894","0.0-5.0","p85146","A1TPGXT718D68E","3RZS0FBRWLGDTA9TUPH81F59AWHPC0","3RJSC4XJ120STSUOOWKBXSTGTJE50N","emotion","match","uniform","","","","","","","1453.6000000238419","18501.299999952316","19954.899999976158","[""stimuli/hammer.jpg"",""stimuli/basketball.jpg"",""stimuli/horse.jpg"",""stimuli/sheep.jpg""]","stimuli/hammer.jpg","stimuli/basketball.jpg","stimuli/horse.jpg","stimuli/sheep.jpg","pos1","stimuli/hammer.jpg","","","0","8","8","8","stimuli/stars_2.png","9","","","","","","",""
"instructions","6","61352","0.0-6.0","p85146","A1TPGXT718D68E","3RZS0FBRWLGDTA9TUPH81F59AWHPC0","3RJSC4XJ120STSUOOWKBXSTGTJE50N","emotion","match","uniform","","","","","","[{""page_index"":0,""viewing_time"":42456.5}]","42457.10000002384","","","","","","","","","","","","","","","","","","","","","","","",""
"explore-choice","7","63876","0.0-7.0","p85146","A1TPGXT718D68E","3RZS0FBRWLGDTA9TUPH81F59AWHPC0","3RJSC4XJ120STSUOOWKBXSTGTJE50N","emotion","match","uniform","","","","","","","2013.2999999523163","62926.799999952316","64940.09999990463","[""stimuli/HF04_FO.jpg"",""stimuli/WM07_SUR.jpg"",""stimuli/BF05_AO.jpg"",""stimuli/BM07_SC.jpg""]","stimuli/HF04_FO.jpg","stimuli/WM07_SUR.jpg","stimuli/BF05_AO.jpg","stimuli/BM07_SC.jpg","pos2","stimuli/WM07_SUR.jpg","SUR","WM07","1","4","8","8","stimuli/stars_8.png","5","[""FO"",""SUR"",""AO"",""SC""]","[""HF04"",""WM07"",""BF05"",""BM07""]","[4,8,3,8]","[2,8,4,6]","","",""
"show-reward","8","65899","0.0-8.0","p85146","A1TPGXT718D68E","3RZS0FBRWLGDTA9TUPH81F59AWHPC0","3RJSC4XJ120STSUOOWKBXSTGTJE50N","emotion","match","uniform","","","","","","","","65451.699999928474","67470.69999992847","","","","","","","","","","","","8","","stimuli/stars_8.png","5","","","","","stimuli/WM07_SUR.jpg","",""
"explore-choice","9","68027","0.0-9.0","p85146","A1TPGXT718D68E","3RZS0FBRWLGDTA9TUPH81F59AWHPC0","3RJSC4XJ120STSUOOWKBXSTGTJE50N","emotion","match","uniform","","","","","","","1626.3999999761581","67472.19999992847","69098.59999990463","[""stimuli/BF05_SC.jpg"",""stimuli/WM07_FO.jpg"",""stimuli/BM07_AO.jpg"",""stimuli/HF04_SUR.jpg""]","stimuli/BF05_SC.jpg","stimuli/WM07_FO.jpg","stimuli/BM07_AO.jpg","stimuli/HF04_SUR.jpg","pos1","stimuli/BF05_SC.jpg","SC","BF05","0","2.5","5","6","stimuli/stars_5.png","7.5","[""SC"",""FO"",""AO"",""SUR""]","[""BF05"",""WM07"",""BM07"",""HF04""]","[5,1,5,10]","[6,2,4,8]","","",""
"show-reward","10","70041","0.0-10.0","p85146","A1TPGXT718D68E","3RZS0FBRWLGDTA9TUPH81F59AWHPC0","3RJSC4XJ120STSUOOWKBXSTGTJE50N","emotion","match","uniform","","","","","","","","69600","71612.19999992847","","","","","","","","","","","","5","","stimuli/stars_5.png","7.5","","","","","stimuli/BF05_SC.jpg","",""
"explore-choice","11","72080","0.0-11.0","p85146","A1TPGXT718D68E","3RZS0FBRWLGDTA9TUPH81F59AWHPC0","3RJSC4XJ120STSUOOWKBXSTGTJE50N","emotion","match","uniform","","","","","","","1524.6000000238419","71613.89999997616","73138.5","[""stimuli/HF04_FO.jpg"",""stimuli/BF05_SUR.jpg"",""stimuli/WM07_SC.jpg"",""stimuli/BM07_AO.jpg""]","stimuli/HF04_FO.jpg","stimuli/BF05_SUR.jpg","stimuli/WM07_SC.jpg","stimuli/BM07_AO.jpg","pos3","stimuli/WM07_SC.jpg","SC","WM07","2","3.5","7","6","stimuli/stars_7.png","11","[""FO"",""SUR"",""SC"",""AO""]","[""HF04"",""BF05"",""WM07"",""BM07""]","[4,6,7,6]","[2,8,6,4]","","",""
"show-reward","12","74082","0.0-12.0","p85146","A1TPGXT718D68E","3RZS0FBRWLGDTA9TUPH81F59AWHPC0","3RJSC4XJ120STSUOOWKBXSTGTJE50N","emotion","match","uniform","","","","","","","","73652","75654.19999992847","","","","","","","","","","","","7","","stimuli/stars_7.png","11","","","","","stimuli/WM07_SC.jpg","",""
"explore-choice","13","75702","0.0-13.0","p85146","A1TPGXT718D68E","3RZS0FBRWLGDTA9TUPH81F59AWHPC0","3RJSC4XJ120STSUOOWKBXSTGTJE50N","emotion","match","uniform","","","","","","","1117.9000000953674","75655.09999990463","76773","[""stimuli/HF04_AO.jpg"",""stimuli/BF05_SUR.jpg"",""stimuli/BM07_FO.jpg"",""stimuli/WM07_SC.jpg""]","stimuli/HF04_AO.jpg","stimuli/BF05_SUR.jpg","stimuli/BM07_FO.jpg","stimuli/WM07_SC.jpg","pos3","stimuli/BM07_FO.jpg","FO","BM07","2","2","4","2","stimuli/stars_4.png","13","[""AO"",""SUR"",""FO"",""SC""]","[""HF04"",""BF05"",""BM07"",""WM07""]","[3,6,4,4]","[4,8,2,6]","","",""
"show-reward","14","77715","0.0-14.0","p85146","A1TPGXT718D68E","3RZS0FBRWLGDTA9TUPH81F59AWHPC0","3RJSC4XJ120STSUOOWKBXSTGTJE50N","emotion","match","uniform","","","","","","","","77274.79999995232","79286.5","","","","","","","","","","","","4","","stimuli/stars_4.png","13","","","","","stimuli/BM07_FO.jpg","",""
"explore-choice","15","79390","0.0-15.0","p85146","A1TPGXT718D68E","3RZS0FBRWLGDTA9TUPH81F59AWHPC0","3RJSC4XJ120STSUOOWKBXSTGTJE50N","emotion","match","uniform","","","","","","","1163.2000000476837","79287.29999995232","80450.5","[""stimuli/WM07_SC.jpg"",""stimuli/BF05_FO.jpg"",""stimuli/BM07_SUR.jpg"",""stimuli/HF04_AO.jpg""]","stimuli/WM07_SC.jpg","stimuli/BF05_FO.jpg","stimuli/BM07_SUR.jpg","stimuli/HF04_AO.jpg","pos1","stimuli/WM07_SC.jpg","SC","WM07","0","2","4","6","stimuli/stars_4.png","15","[""SC"",""FO"",""SUR"",""AO""]","[""WM07"",""BF05"",""BM07"",""HF04""]","[4,0,10,2]","[6,2,8,4]","","",""
"show-reward","16","81401","0.0-16.0","p85146","A1TPGXT718D68E","3RZS0FBRWLGDTA9TUPH81F59AWHPC0","3RJSC4XJ120STSUOOWKBXSTGTJE50N","emotion","match","uniform","","","","","","","","80963","82972.5","","","","","","","","","","","","4","","stimuli/stars_4.png","15","","","","","stimuli/WM07_SC.jpg","",""
"explore-choice","17","84999","0.0-17.0","p85146","A1TPGXT718D68E","3RZS0FBRWLGDTA9TUPH81F59AWHPC0","3RJSC4XJ120STSUOOWKBXSTGTJE50N","emotion","match","uniform","","","","","","","3077.100000023842","82973.09999990463","86050.19999992847","[""stimuli/BM07_SUR.jpg"",""stimuli/HF04_FO.jpg"",""stimuli/BF05_AO.jpg"",""stimuli/WM07_SC.jpg""]","stimuli/BM07_SUR.jpg","stimuli/HF04_FO.jpg","stimuli/BF05_AO.jpg","stimuli/WM07_SC.jpg","pos3","stimuli/BF05_AO.jpg","AO","BF05","2","3","6","4","stimuli/stars_6.png","18","[""SUR"",""FO"",""AO"",""SC""]","[""BM07"",""HF04"",""BF05"",""WM07""]","[8,4,6,6]","[8,2,4,6]","","",""
"show-reward","18","87019","0.0-18.0","p85146","A1TPGXT718D68E","3RZS0FBRWLGDTA9TUPH81F59AWHPC0","3RJSC4XJ120STSUOOWKBXSTGTJE50N","emotion","match","uniform","","","","","","","","86572.29999995232","88590.79999995232","","","","","","","","","","","","6","","stimuli/stars_6.png","18","","","","","stimuli/BF05_AO.jpg","",""
"explore-choice","19","88529","0.0-19.0","p85146","A1TPGXT718D68E","3RZS0FBRWLGDTA9TUPH81F59AWHPC0","3RJSC4XJ120STSUOOWKBXSTGTJE50N","emotion","match","uniform","","","","","","","993.6999999284744","88592.89999997616","89586.59999990463","[""stimuli/HF04_SUR.jpg"",""stimuli/WM07_FO.jpg"",""stimuli/BF05_AO.jpg"",""stimuli/BM07_SC.jpg""]","stimuli/HF04_SUR.jpg","stimuli/WM07_FO.jpg","stimuli/BF05_AO.jpg","stimuli/BM07_SC.jpg","pos2","stimuli/WM07_FO.jpg","FO","WM07","1","2","4","2","stimuli/stars_4.png","20","[""SUR"",""FO"",""AO"",""SC""]","[""HF04"",""WM07"",""BF05"",""BM07""]","[6,4,5,7]","[8,2,4,6]","","",""
"show-reward","20","90534","0.0-20.0","p85146","A1TPGXT718D68E","3RZS0FBRWLGDTA9TUPH81F59AWHPC0","3RJSC4XJ120STSUOOWKBXSTGTJE50N","emotion","match","uniform","","","","","","","","90101.5","92105.79999995232","","","","","","","","","","","","4","","stimuli/stars_4.png","20","","","","","stimuli/WM07_FO.jpg","",""
"explore-choice","21","91935","0.0-21.0","p85146","A1TPGXT718D68E","3RZS0FBRWLGDTA9TUPH81F59AWHPC0","3RJSC4XJ120STSUOOWKBXSTGTJE50N","emotion","match","uniform","","","","","","","892.2999999523163","92107","92999.29999995232","[""stimuli/BF05_SUR.jpg"",""stimuli/HF04_AO.jpg"",""stimuli/BM07_SC.jpg"",""stimuli/WM07_FO.jpg""]","stimuli/BF05_SUR.jpg","stimuli/HF04_AO.jpg","stimuli/BM07_SC.jpg","stimuli/WM07_FO.jpg","pos1","stimuli/BF05_SUR.jpg","SUR","BF05","0","4","8","8","stimuli/stars_8.png","24","[""SUR"",""AO"",""SC"",""FO""]","[""BF05"",""HF04"",""BM07"",""WM07""]","[8,2,5,0]","[8,4,6,2]","","",""
"show-reward","22","93940","0.0-22.0","p85146","A1TPGXT718D68E","3RZS0FBRWLGDTA9TUPH81F59AWHPC0","3RJSC4XJ120STSUOOWKBXSTGTJE50N","emotion","match","uniform","","","","","","","","93507.89999997616","95512","","","","","","","","","","","","8","","stimuli/stars_8.png","24","","","","","stimuli/BF05_SUR.jpg","",""
"explore-choice","23","95925","0.0-23.0","p85146","A1TPGXT718D68E","3RZS0FBRWLGDTA9TUPH81F59AWHPC0","3RJSC4XJ120STSUOOWKBXSTGTJE50N","emotion","match","uniform","","","","","","","1480.8000000715256","95513.69999992847","96994.5","[""stimuli/BF05_FO.jpg"",""stimuli/HF04_AO.jpg"",""stimuli/WM07_SUR.jpg"",""stimuli/BM07_SC.jpg""]","stimuli/BF05_FO.jpg","stimuli/HF04_AO.jpg","stimuli/WM07_SUR.jpg","stimuli/BM07_SC.jpg","pos2","stimuli/HF04_AO.jpg","AO","HF04","1","3","6","4","stimuli/stars_6.png","27","[""FO"",""AO"",""SUR"",""SC""]","[""BF05"",""HF04"",""WM07"",""BM07""]","[1,6,8,7]","[2,4,8,6]","","",""
"show-reward","24","97934","0.0-24.0","p85146","A1TPGXT718D68E","3RZS0FBRWLGDTA9TUPH81F59AWHPC0","3RJSC4XJ120STSUOOWKBXSTGTJE50N","emotion","match","uniform","","","","","","","","97498.29999995232","99505.89999997616","","","","","","","","","","","","6","","stimuli/stars_6.png","27","","","","","stimuli/HF04_AO.jpg","",""
"explore-choice","25","100289","0.0-25.0","p85146","A1TPGXT718D68E","3RZS0FBRWLGDTA9TUPH81F59AWHPC0","3RJSC4XJ120STSUOOWKBXSTGTJE50N","emotion","match","uniform","","","","","","","1846.2000000476837","99506.69999992847","101352.89999997616","[""stimuli/BM07_SUR.jpg"",""stimuli/WM07_AO.jpg"",""stimuli/HF04_FO.jpg"",""stimuli/BF05_SC.jpg""]","stimuli/BM07_SUR.jpg","stimuli/WM07_AO.jpg","stimuli/HF04_FO.jpg","stimuli/BF05_SC.jpg","pos3","stimuli/HF04_FO.jpg","FO","HF04","2","1.5","3","2","stimuli/stars_3.png","28.5","[""SUR"",""AO"",""FO"",""SC""]","[""BM07"",""WM07"",""HF04"",""BF05""]","[10,6,3,5]","[8,4,2,6]","","",""
"show-reward","26","102303","0.0-26.0","p85146","A1TPGXT718D68E","3RZS0FBRWLGDTA9TUPH81F59AWHPC0","3RJSC4XJ120STSUOOWKBXSTGTJE50N","emotion","match","uniform","","","","","","","","101861.09999990463","103875.09999990463","","","","","","","","","","","","3","","stimuli/stars_3.png","28.5","","","","","stimuli/HF04_FO.jpg","",""
"explore-choice","27","103710","0.0-27.0","p85146","A1TPGXT718D68E","3RZS0FBRWLGDTA9TUPH81F59AWHPC0","3RJSC4XJ120STSUOOWKBXSTGTJE50N","emotion","match","uniform","","","","","","","901.4000000953674","103875.59999990463","104777","[""stimuli/BM07_SUR.jpg"",""stimuli/WM07_FO.jpg"",""stimuli/HF04_SC.jpg"",""stimuli/BF05_AO.jpg""]","stimuli/BM07_SUR.jpg","stimuli/WM07_FO.jpg","stimuli/HF04_SC.jpg","stimuli/BF05_AO.jpg","pos4","stimuli/BF05_AO.jpg","AO","BF05","3","3","6","4","stimuli/stars_6.png","31.5","[""SUR"",""FO"",""SC"",""AO""]","[""BM07"",""WM07"",""HF04"",""BF05""]","[6,3,7,6]","[8,2,6,4]","","",""
"show-reward","28","105719","0.0-28.0","p85146","A1TPGXT718D68E","3RZS0FBRWLGDTA9TUPH81F59AWHPC0","3RJSC4XJ120STSUOOWKBXSTGTJE50N","emotion","match","uniform","","","","","","","","105282.89999997616","107290.79999995232","","","","","","","","","","","","6","","stimuli/stars_6.png","31.5","","","","","stimuli/BF05_AO.jpg","",""
"explore-choice","29","107423","0.0-29.0","p85146","A1TPGXT718D68E","3RZS0FBRWLGDTA9TUPH81F59AWHPC0","3RJSC4XJ120STSUOOWKBXSTGTJE50N","emotion","match","uniform","","","","","","","1194.8999999761581","107292.5","108487.39999997616","[""stimuli/BM07_AO.jpg"",""stimuli/HF04_FO.jpg"",""stimuli/BF05_SC.jpg"",""stimuli/WM07_SUR.jpg""]","stimuli/BM07_AO.jpg","stimuli/HF04_FO.jpg","stimuli/BF05_SC.jpg","stimuli/WM07_SUR.jpg","pos4","stimuli/WM07_SUR.jpg","SUR","WM07","3","3.5","7","8","stimuli/stars_7.png","35","[""AO"",""FO"",""SC"",""SUR""]","[""BM07"",""HF04"",""BF05"",""WM07""]","[3,4,7,7]","[4,2,6,8]","","",""
"show-reward","30","109429","0.0-30.0","p85146","A1TPGXT718D68E","3RZS0FBRWLGDTA9TUPH81F59AWHPC0","3RJSC4XJ120STSUOOWKBXSTGTJE50N","emotion","match","uniform","","","","","","","","108997.29999995232","111000.59999990463","","","","","","","","","","","","7","","stimuli/stars_7.png","35","","","","","stimuli/WM07_SUR.jpg","",""
"explore-choice","31","111229","0.0-31.0","p85146","A1TPGXT718D68E","3RZS0FBRWLGDTA9TUPH81F59AWHPC0","3RJSC4XJ120STSUOOWKBXSTGTJE50N","emotion","match","uniform","","","","","","","1287.9000000953674","111002.59999990463","112290.5","[""stimuli/WM07_FO.jpg"",""stimuli/HF04_SC.jpg"",""stimuli/BM07_AO.jpg"",""stimuli/BF05_SUR.jpg""]","stimuli/WM07_FO.jpg","stimuli/HF04_SC.jpg","stimuli/BM07_AO.jpg","stimuli/BF05_SUR.jpg","pos1","stimuli/WM07_FO.jpg","FO","WM07","0","0","0","2","stimuli/stars_0.png","35","[""FO"",""SC"",""AO"",""SUR""]","[""WM07"",""HF04"",""BM07"",""BF05""]","[0,6,5,8]","[2,6,4,8]","","",""
"show-reward","32","113239","0.0-32.0","p85146","A1TPGXT718D68E","3RZS0FBRWLGDTA9TUPH81F59AWHPC0","3RJSC4XJ120STSUOOWKBXSTGTJE50N","emotion","match","uniform","","","","","","","","112802.29999995232","114810.5","","","","","","","","","","","","0","","stimuli/stars_0.png","35","","","","","stimuli/WM07_FO.jpg","",""
"explore-choice","33","114859","0.0-33.0","p85146","A1TPGXT718D68E","3RZS0FBRWLGDTA9TUPH81F59AWHPC0","3RJSC4XJ120STSUOOWKBXSTGTJE50N","emotion","match","uniform","","","","","","","1117.6000000238419","114812.19999992847","115929.79999995232","[""stimuli/HF04_SUR.jpg"",""stimuli/BM07_AO.jpg"",""stimuli/BF05_FO.jpg"",""stimuli/WM07_SC.jpg""]","stimuli/HF04_SUR.jpg","stimuli/BM07_AO.jpg","stimuli/BF05_FO.jpg","stimuli/WM07_SC.jpg","pos3","stimuli/BF05_FO.jpg","FO","BF05","2","0.5","1","2","stimuli/stars_1.png","35.5","[""SUR"",""AO"",""FO"",""SC""]","[""HF04"",""BM07"",""BF05"",""WM07""]","[8,6,1,7]","[8,4,2,6]","","",""
"show-reward","34","116880","0.0-34.0","p85146","A1TPGXT718D68E","3RZS0FBRWLGDTA9TUPH81F59AWHPC0","3RJSC4XJ120STSUOOWKBXSTGTJE50N","emotion","match","uniform","","","","","","","","116432.79999995232","118451.79999995232","","","","","","","","","","","","1","","stimuli/stars_1.png","35.5","","","","","stimuli/BF05_FO.jpg","",""
"explore-choice","35","119167","0.0-35.0","p85146","A1TPGXT718D68E","3RZS0FBRWLGDTA9TUPH81F59AWHPC0","3RJSC4XJ120STSUOOWKBXSTGTJE50N","emotion","match","uniform","","","","","","","1773.8999999761581","118452.29999995232","120226.19999992847","[""stimuli/BM07_FO.jpg"",""stimuli/WM07_SC.jpg"",""stimuli/BF05_AO.jpg"",""stimuli/HF04_SUR.jpg""]","stimuli/BM07_FO.jpg","stimuli/WM07_SC.jpg","stimuli/BF05_AO.jpg","stimuli/HF04_SUR.jpg","pos1","stimuli/BM07_FO.jpg","FO","BM07","0","1.5","3","2","stimuli/stars_3.png","37","[""FO"",""SC"",""AO"",""SUR""]","[""BM07"",""WM07"",""BF05"",""HF04""]","[3,7,6,6]","[2,6,4,8]","","",""
"show-reward","36","121182","0.0-36.0","p85146","A1TPGXT718D68E","3RZS0FBRWLGDTA9TUPH81F59AWHPC0","3RJSC4XJ120STSUOOWKBXSTGTJE50N","emotion","match","uniform","","","","","","","","120739.59999990463","122754.39999997616","","","","","","","","","","","","3","","stimuli/stars_3.png","37","","","","","stimuli/BM07_FO.jpg","",""
"explore-choice","37","123499","0.0-37.0","p85146","A1TPGXT718D68E","3RZS0FBRWLGDTA9TUPH81F59AWHPC0","3RJSC4XJ120STSUOOWKBXSTGTJE50N","emotion","match","uniform","","","","","","","1798.0999999046326","122755","124553.09999990463","[""stimuli/HF04_AO.jpg"",""stimuli/WM07_FO.jpg"",""stimuli/BM07_SUR.jpg"",""stimuli/BF05_SC.jpg""]","stimuli/HF04_AO.jpg","stimuli/WM07_FO.jpg","stimuli/BM07_SUR.jpg","stimuli/BF05_SC.jpg","pos3","stimuli/BM07_SUR.jpg","SUR","BM07","2","5","10","8","stimuli/stars_10.png","42","[""AO"",""FO"",""SUR"",""SC""]","[""HF04"",""WM07"",""BM07"",""BF05""]","[6,4,10,6]","[4,2,8,6]","","",""
"show-reward","38","125519","0.0-38.0","p85146","A1TPGXT718D68E","3RZS0FBRWLGDTA9TUPH81F59AWHPC0","3RJSC4XJ120STSUOOWKBXSTGTJE50N","emotion","match","uniform","","","","","","","","125073.29999995232","127091.09999990463","","","","","","","","","","","","10","","stimuli/stars_10.png","42","","","","","stimuli/BM07_SUR.jpg","",""
"explore-choice","39","129029","0.0-39.0","p85146","A1TPGXT718D68E","3RZS0FBRWLGDTA9TUPH81F59AWHPC0","3RJSC4XJ120STSUOOWKBXSTGTJE50N","emotion","match","uniform","","","","","","","3003.399999976158","127092.79999995232","130096.19999992847","[""stimuli/WM07_AO.jpg"",""stimuli/BF05_SC.jpg"",""stimuli/BM07_FO.jpg"",""stimuli/HF04_SUR.jpg""]","stimuli/WM07_AO.jpg","stimuli/BF05_SC.jpg","stimuli/BM07_FO.jpg","stimuli/HF04_SUR.jpg","pos4","stimuli/HF04_SUR.jpg","SUR","HF04","3","3.5","7","8","stimuli/stars_7.png","45.5","[""AO"",""SC"",""FO"",""SUR""]","[""WM07"",""BF05"",""BM07"",""HF04""]","[6,5,0,7]","[4,6,2,8]","","",""
"show-reward","40","131045","0.0-40.0","p85146","A1TPGXT718D68E","3RZS0FBRWLGDTA9TUPH81F59AWHPC0","3RJSC4XJ120STSUOOWKBXSTGTJE50N","emotion","match","uniform","","","","","","","","130602.79999995232","132616.89999997616","","","","","","","","","","","","7","","stimuli/stars_7.png","45.5","","","","","stimuli/HF04_SUR.jpg","",""
"explore-choice","41","133670","0.0-41.0","p85146","A1TPGXT718D68E","3RZS0FBRWLGDTA9TUPH81F59AWHPC0","3RJSC4XJ120STSUOOWKBXSTGTJE50N","emotion","match","uniform","","","","","","","2114.100000023842","132617.69999992847","134731.79999995232","[""stimuli/HF04_AO.jpg"",""stimuli/WM07_SUR.jpg"",""stimuli/BM07_FO.jpg"",""stimuli/BF05_SC.jpg""]","stimuli/HF04_AO.jpg","stimuli/WM07_SUR.jpg","stimuli/BM07_FO.jpg","stimuli/BF05_SC.jpg","pos3","stimuli/BM07_FO.jpg","FO","BM07","2","2","4","2","stimuli/stars_4.png","47.5","[""AO"",""SUR"",""FO"",""SC""]","[""HF04"",""WM07"",""BM07"",""BF05""]","[6,6,4,7]","[4,8,2,6]","","",""
"show-reward","42","135686","0.0-42.0","p85146","A1TPGXT718D68E","3RZS0FBRWLGDTA9TUPH81F59AWHPC0","3RJSC4XJ120STSUOOWKBXSTGTJE50N","emotion","match","uniform","","","","","","","","135243.19999992847","137257.69999992847","","","","","","","","","","","","4","","stimuli/stars_4.png","47.5","","","","","stimuli/BM07_FO.jpg","",""
"explore-choice","43","137489","0.0-43.0","p85146","A1TPGXT718D68E","3RZS0FBRWLGDTA9TUPH81F59AWHPC0","3RJSC4XJ120STSUOOWKBXSTGTJE50N","emotion","match","uniform","","","","","","","1291.5","137259.5","138551","[""stimuli/BM07_FO.jpg"",""stimuli/BF05_SUR.jpg"",""stimuli/HF04_SC.jpg"",""stimuli/WM07_AO.jpg""]","stimuli/BM07_FO.jpg","stimuli/BF05_SUR.jpg","stimuli/HF04_SC.jpg","stimuli/WM07_AO.jpg","pos4","stimuli/WM07_AO.jpg","AO","WM07","3","1.5","3","4","stimuli/stars_3.png","49","[""FO"",""SUR"",""SC"",""AO""]","[""BM07"",""BF05"",""HF04"",""WM07""]","[0,10,6,3]","[2,8,6,4]","","",""
"show-reward","44","139497","0.0-44.0","p85146","A1TPGXT718D68E","3RZS0FBRWLGDTA9TUPH81F59AWHPC0","3RJSC4XJ120STSUOOWKBXSTGTJE50N","emotion","match","uniform","","","","","","","","139061.29999995232","141069.39999997616","","","","","","","","","","","","3","","stimuli/stars_3.png","49","","","","","stimuli/WM07_AO.jpg","",""
"explore-choice","45","141220","0.0-45.0","p85146","A1TPGXT718D68E","3RZS0FBRWLGDTA9TUPH81F59AWHPC0","3RJSC4XJ120STSUOOWKBXSTGTJE50N","emotion","match","uniform","","","","","","","1214.6999999284744","141070","142284.69999992847","[""stimuli/WM07_AO.jpg"",""stimuli/HF04_SUR.jpg"",""stimuli/BF05_FO.jpg"",""stimuli/BM07_SC.jpg""]","stimuli/WM07_AO.jpg","stimuli/HF04_SUR.jpg","stimuli/BF05_FO.jpg","stimuli/BM07_SC.jpg","pos3","stimuli/BF05_FO.jpg","FO","BF05","2","0.5","1","2","stimuli/stars_1.png","49.5","[""AO"",""SUR"",""FO"",""SC""]","[""WM07"",""HF04"",""BF05"",""BM07""]","[2,6,1,8]","[4,8,2,6]","","",""
"show-reward","46","143239","0.0-46.0","p85146","A1TPGXT718D68E","3RZS0FBRWLGDTA9TUPH81F59AWHPC0","3RJSC4XJ120STSUOOWKBXSTGTJE50N","emotion","match","uniform","","","","","","","","142793.59999990463","144811.39999997616","","","","","","","","","","","","1","","stimuli/stars_1.png","49.5","","","","","stimuli/BF05_FO.jpg","",""
"explore-choice","47","145500","0.0-47.0","p85146","A1TPGXT718D68E","3RZS0FBRWLGDTA9TUPH81F59AWHPC0","3RJSC4XJ120STSUOOWKBXSTGTJE50N","emotion","match","uniform","","","","","","","1753.3000000715256","144812.19999992847","146565.5","[""stimuli/HF04_SC.jpg"",""stimuli/BF05_FO.jpg"",""stimuli/BM07_AO.jpg"",""stimuli/WM07_SUR.jpg""]","stimuli/HF04_SC.jpg","stimuli/BF05_FO.jpg","stimuli/BM07_AO.jpg","stimuli/WM07_SUR.jpg","pos4","stimuli/WM07_SUR.jpg","SUR","WM07","3","3","6","8","stimuli/stars_6.png","52.5","[""SC"",""FO"",""AO"",""SUR""]","[""HF04"",""BF05"",""BM07"",""WM07""]","[6,4,6,6]","[6,2,4,8]","","",""
"show-reward","48","147517","0.0-48.0","p85146","A1TPGXT718D68E","3RZS0FBRWLGDTA9TUPH81F59AWHPC0","3RJSC4XJ120STSUOOWKBXSTGTJE50N","emotion","match","uniform","","","","","","","","147072.59999990463","149089.39999997616","","","","","","","","","","","","6","","stimuli/stars_6.png","52.5","","","","","stimuli/WM07_SUR.jpg","",""
"explore-choice","49","149810","0.0-49.0","p85146","A1TPGXT718D68E","3RZS0FBRWLGDTA9TUPH81F59AWHPC0","3RJSC4XJ120STSUOOWKBXSTGTJE50N","emotion","match","uniform","","","","","","","1782.1999999284744","149089.89999997616","150872.09999990463","[""stimuli/BF05_FO.jpg"",""stimuli/HF04_SC.jpg"",""stimuli/BM07_SUR.jpg"",""stimuli/WM07_AO.jpg""]","stimuli/BF05_FO.jpg","stimuli/HF04_SC.jpg","stimuli/BM07_SUR.jpg","stimuli/WM07_AO.jpg","pos3","stimuli/BM07_SUR.jpg","SUR","BM07","2","4","8","8","stimuli/stars_8.png","56.5","[""FO"",""SC"",""SUR"",""AO""]","[""BF05"",""HF04"",""BM07"",""WM07""]","[3,7,8,3]","[2,6,8,4]","","",""
"show-reward","50","151826","0.0-50.0","p85146","A1TPGXT718D68E","3RZS0FBRWLGDTA9TUPH81F59AWHPC0","3RJSC4XJ120STSUOOWKBXSTGTJE50N","emotion","match","uniform","","","","","","","","151383.69999992847","153398","","","","","","","","","","","","8","","stimuli/stars_8.png","56.5","","","","","stimuli/BM07_SUR.jpg","",""
"explore-choice","51","155179","0.0-51.0","p85146","A1TPGXT718D68E","3RZS0FBRWLGDTA9TUPH81F59AWHPC0","3RJSC4XJ120STSUOOWKBXSTGTJE50N","emotion","match","uniform","","","","","","","2837.8000000715256","153399.69999992847","156237.5","[""stimuli/BM07_FO.jpg"",""stimuli/WM07_SUR.jpg"",""stimuli/HF04_SC.jpg"",""stimuli/BF05_AO.jpg""]","stimuli/BM07_FO.jpg","stimuli/WM07_SUR.jpg","stimuli/HF04_SC.jpg","stimuli/BF05_AO.jpg","pos3","stimuli/HF04_SC.jpg","SC","HF04","2","2","4","6","stimuli/stars_4.png","58.5","[""FO"",""SUR"",""SC"",""AO""]","[""BM07"",""WM07"",""HF04"",""BF05""]","[0,8,4,3]","[2,8,6,4]","","",""
"show-reward","52","157191","0.0-52.0","p85146","A1TPGXT718D68E","3RZS0FBRWLGDTA9TUPH81F59AWHPC0","3RJSC4XJ120STSUOOWKBXSTGTJE50N","emotion","match","uniform","","","","","","","","156752.59999990463","158762.19999992847","","","","","","","","","","","","4","","stimuli/stars_4.png","58.5","","","","","stimuli/HF04_SC.jpg","",""
"explore-choice","53","159389","0.0-53.0","p85146","A1TPGXT718D68E","3RZS0FBRWLGDTA9TUPH81F59AWHPC0","3RJSC4XJ120STSUOOWKBXSTGTJE50N","emotion","match","uniform","","","","","","","1694.6000000238419","158763.79999995232","160458.39999997616","[""stimuli/HF04_FO.jpg"",""stimuli/WM07_AO.jpg"",""stimuli/BM07_SC.jpg"",""stimuli/BF05_SUR.jpg""]","stimuli/HF04_FO.jpg","stimuli/WM07_AO.jpg","stimuli/BM07_SC.jpg","stimuli/BF05_SUR.jpg","pos3","stimuli/BM07_SC.jpg","SC","BM07","2","3.5","7","6","stimuli/stars_7.png","62","[""FO"",""AO"",""SC"",""SUR""]","[""HF04"",""WM07"",""BM07"",""BF05""]","[0,2,7,6]","[2,4,6,8]","","",""
"show-reward","54","161399","0.0-54.0","p85146","A1TPGXT718D68E","3RZS0FBRWLGDTA9TUPH81F59AWHPC0","3RJSC4XJ120STSUOOWKBXSTGTJE50N","emotion","match","uniform","","","","","","","","160961.19999992847","162970.5","","","","","","","","","","","","7","","stimuli/stars_7.png","62","","","","","stimuli/BM07_SC.jpg","",""
"explore-choice","55","163760","0.0-55.0","p85146","A1TPGXT718D68E","3RZS0FBRWLGDTA9TUPH81F59AWHPC0","3RJSC4XJ120STSUOOWKBXSTGTJE50N","emotion","match","uniform","","","","","","","1838.2999999523163","162971.79999995232","164810.09999990463","[""stimuli/BF05_FO.jpg"",""stimuli/BM07_SC.jpg"",""stimuli/HF04_AO.jpg"",""stimuli/WM07_SUR.jpg""]","stimuli/BF05_FO.jpg","stimuli/BM07_SC.jpg","stimuli/HF04_AO.jpg","stimuli/WM07_SUR.jpg","pos2","stimuli/BM07_SC.jpg","SC","BM07","1","3.5","7","6","stimuli/stars_7.png","65.5","[""FO"",""SC"",""AO"",""SUR""]","[""BF05"",""BM07"",""HF04"",""WM07""]","[1,7,6,8]","[2,6,4,8]","","",""
"show-reward","56","165779","0.0-56.0","p85146","A1TPGXT718D68E","3RZS0FBRWLGDTA9TUPH81F59AWHPC0","3RJSC4XJ120STSUOOWKBXSTGTJE50N","emotion","match","uniform","","","","","","","","165333.89999997616","167351.09999990463","","","","","","","","","","","","7","","stimuli/stars_7.png","65.5","","","","","stimuli/BM07_SC.jpg","",""
"explore-choice","57","168149","0.0-57.0","p85146","A1TPGXT718D68E","3RZS0FBRWLGDTA9TUPH81F59AWHPC0","3RJSC4XJ120STSUOOWKBXSTGTJE50N","emotion","match","uniform","","","","","","","1856.2000000476837","167352.79999995232","169209","[""stimuli/WM07_FO.jpg"",""stimuli/HF04_SUR.jpg"",""stimuli/BM07_SC.jpg"",""stimuli/BF05_AO.jpg""]","stimuli/WM07_FO.jpg","stimuli/HF04_SUR.jpg","stimuli/BM07_SC.jpg","stimuli/BF05_AO.jpg","pos3","stimuli/BM07_SC.jpg","SC","BM07","2","3.5","7","6","stimuli/stars_7.png","69","[""FO"",""SUR"",""SC"",""AO""]","[""WM07"",""HF04"",""BM07"",""BF05""]","[4,6,7,5]","[2,8,6,4]","","",""
"show-reward","58","170169","0.0-58.0","p85146","A1TPGXT718D68E","3RZS0FBRWLGDTA9TUPH81F59AWHPC0","3RJSC4XJ120STSUOOWKBXSTGTJE50N","emotion","match","uniform","","","","","","","","169722.29999995232","171740.69999992847","","","","","","","","","","","","7","","stimuli/stars_7.png","69","","","","","stimuli/BM07_SC.jpg","",""
"explore-choice","59","172814","0.0-59.0","p85146","A1TPGXT718D68E","3RZS0FBRWLGDTA9TUPH81F59AWHPC0","3RJSC4XJ120STSUOOWKBXSTGTJE50N","emotion","match","uniform","","","","","","","2132.7000000476837","171742.09999990463","173874.79999995232","[""stimuli/WM07_FO.jpg"",""stimuli/BF05_SUR.jpg"",""stimuli/BM07_AO.jpg"",""stimuli/HF04_SC.jpg""]","stimuli/WM07_FO.jpg","stimuli/BF05_SUR.jpg","stimuli/BM07_AO.jpg","stimuli/HF04_SC.jpg","pos4","stimuli/HF04_SC.jpg","SC","HF04","3","3","6","6","stimuli/stars_6.png","72","[""FO"",""SUR"",""AO"",""SC""]","[""WM07"",""BF05"",""BM07"",""HF04""]","[0,8,5,6]","[2,8,4,6]","","",""
"show-reward","60","174829","0.0-60.0","p85146","A1TPGXT718D68E","3RZS0FBRWLGDTA9TUPH81F59AWHPC0","3RJSC4XJ120STSUOOWKBXSTGTJE50N","emotion","match","uniform","","","","","","","","174387","176400.79999995232","","","","","","","","","","","","6","","stimuli/stars_6.png","72","","","","","stimuli/HF04_SC.jpg","",""
"explore-choice","61","177100","0.0-61.0","p85146","A1TPGXT718D68E","3RZS0FBRWLGDTA9TUPH81F59AWHPC0","3RJSC4XJ120STSUOOWKBXSTGTJE50N","emotion","match","uniform","","","","","","","1758.6000000238419","176402.39999997616","178161","[""stimuli/WM07_SUR.jpg"",""stimuli/BF05_AO.jpg"",""stimuli/BM07_SC.jpg"",""stimuli/HF04_FO.jpg""]","stimuli/WM07_SUR.jpg","stimuli/BF05_AO.jpg","stimuli/BM07_SC.jpg","stimuli/HF04_FO.jpg","pos1","stimuli/WM07_SUR.jpg","SUR","WM07","0","4","8","8","stimuli/stars_8.png","76","[""SUR"",""AO"",""SC"",""FO""]","[""WM07"",""BF05"",""BM07"",""HF04""]","[8,3,8,4]","[8,4,6,2]","","",""
"show-reward","62","179109","0.0-62.0","p85146","A1TPGXT718D68E","3RZS0FBRWLGDTA9TUPH81F59AWHPC0","3RJSC4XJ120STSUOOWKBXSTGTJE50N","emotion","match","uniform","","","","","","","","178673.29999995232","180681","","","","","","","","","","","","8","","stimuli/stars_8.png","76","","","","","stimuli/WM07_SUR.jpg","",""
"explore-choice","63","181599","0.0-63.0","p85146","A1TPGXT718D68E","3RZS0FBRWLGDTA9TUPH81F59AWHPC0","3RJSC4XJ120STSUOOWKBXSTGTJE50N","emotion","match","uniform","","","","","","","1982.1999999284744","180682","182664.19999992847","[""stimuli/BF05_FO.jpg"",""stimuli/WM07_SUR.jpg"",""stimuli/BM07_AO.jpg"",""stimuli/HF04_SC.jpg""]","stimuli/BF05_FO.jpg","stimuli/WM07_SUR.jpg","stimuli/BM07_AO.jpg","stimuli/HF04_SC.jpg","pos2","stimuli/WM07_SUR.jpg","SUR","WM07","1","3","6","8","stimuli/stars_6.png","79","[""FO"",""SUR"",""AO"",""SC""]","[""BF05"",""WM07"",""BM07"",""HF04""]","[4,6,6,6]","[2,8,4,6]","","",""
"show-reward","64","183615","0.0-64.0","p85146","A1TPGXT718D68E","3RZS0FBRWLGDTA9TUPH81F59AWHPC0","3RJSC4XJ120STSUOOWKBXSTGTJE50N","emotion","match","uniform","","","","","","","","183172","185186.79999995232","","","","","","","","","","","","6","","stimuli/stars_6.png","79","","","","","stimuli/WM07_SUR.jpg","",""
"explore-choice","65","186729","0.0-65.0","p85146","A1TPGXT718D68E","3RZS0FBRWLGDTA9TUPH81F59AWHPC0","3RJSC4XJ120STSUOOWKBXSTGTJE50N","emotion","match","uniform","","","","","","","2593.399999976158","185188.19999992847","187781.59999990463","[""stimuli/WM07_SC.jpg"",""stimuli/BM07_SUR.jpg"",""stimuli/BF05_AO.jpg"",""stimuli/HF04_FO.jpg""]","stimuli/WM07_SC.jpg","stimuli/BM07_SUR.jpg","stimuli/BF05_AO.jpg","stimuli/HF04_FO.jpg","pos2","stimuli/BM07_SUR.jpg","SUR","BM07","1","4","8","8","stimuli/stars_8.png","83","[""SC"",""SUR"",""AO"",""FO""]","[""WM07"",""BM07"",""BF05"",""HF04""]","[6,8,6,4]","[6,8,4,2]","","",""
"show-reward","66","188739","0.0-66.0","p85146","A1TPGXT718D68E","3RZS0FBRWLGDTA9TUPH81F59AWHPC0","3RJSC4XJ120STSUOOWKBXSTGTJE50N","emotion","match","uniform","","","","","","","","188303.09999990463","190310.59999990463","","","","","","","","","","","","8","","stimuli/stars_8.png","83","","","","","stimuli/BM07_SUR.jpg","",""
"explore-choice","67","191523","0.0-67.0","p85146","A1TPGXT718D68E","3RZS0FBRWLGDTA9TUPH81F59AWHPC0","3RJSC4XJ120STSUOOWKBXSTGTJE50N","emotion","match","uniform","","","","","","","2276.5","190312.29999995232","192588.79999995232","[""stimuli/BM07_SC.jpg"",""stimuli/BF05_FO.jpg"",""stimuli/WM07_AO.jpg"",""stimuli/HF04_SUR.jpg""]","stimuli/BM07_SC.jpg","stimuli/BF05_FO.jpg","stimuli/WM07_AO.jpg","stimuli/HF04_SUR.jpg","pos1","stimuli/BM07_SC.jpg","SC","BM07","0","4","8","6","stimuli/stars_8.png","87","[""SC"",""FO"",""AO"",""SUR""]","[""BM07"",""BF05"",""WM07"",""HF04""]","[8,1,2,6]","[6,2,4,8]","","",""
"show-reward","68","193529","0.0-68.0","p85146","A1TPGXT718D68E","3RZS0FBRWLGDTA9TUPH81F59AWHPC0","3RJSC4XJ120STSUOOWKBXSTGTJE50N","emotion","match","uniform","","","","","","","","193096.39999997616","195100.5","","","","","","","","","","","","8","","stimuli/stars_8.png","87","","","","","stimuli/BM07_SC.jpg","",""
"explore-choice","69","196159","0.0-69.0","p85146","A1TPGXT718D68E","3RZS0FBRWLGDTA9TUPH81F59AWHPC0","3RJSC4XJ120STSUOOWKBXSTGTJE50N","emotion","match","uniform","","","","","","","2115.2000000476837","195101.69999992847","197216.89999997616","[""stimuli/HF04_SC.jpg"",""stimuli/BF05_FO.jpg"",""stimuli/BM07_SUR.jpg"",""stimuli/WM07_AO.jpg""]","stimuli/HF04_SC.jpg","stimuli/BF05_FO.jpg","stimuli/BM07_SUR.jpg","stimuli/WM07_AO.jpg","pos3","stimuli/BM07_SUR.jpg","SUR","BM07","2","4","8","8","stimuli/stars_8.png","91","[""SC"",""FO"",""SUR"",""AO""]","[""HF04"",""BF05"",""BM07"",""WM07""]","[7,3,8,3]","[6,2,8,4]","","",""
"show-reward","70","198179","0.0-70.0","p85146","A1TPGXT718D68E","3RZS0FBRWLGDTA9TUPH81F59AWHPC0","3RJSC4XJ120STSUOOWKBXSTGTJE50N","emotion","match","uniform","","","","","","","","197732","199750.59999990463","","","","","","","","","","","","8","","stimuli/stars_8.png","91","","","","","stimuli/BM07_SUR.jpg","",""
"explore-choice","71","201604","0.0-71.0","p85146","A1TPGXT718D68E","3RZS0FBRWLGDTA9TUPH81F59AWHPC0","3RJSC4XJ120STSUOOWKBXSTGTJE50N","emotion","match","uniform","","","","","","","2920","199752","202672","[""stimuli/BF05_SC.jpg"",""stimuli/HF04_FO.jpg"",""stimuli/WM07_SUR.jpg"",""stimuli/BM07_AO.jpg""]","stimuli/BF05_SC.jpg","stimuli/HF04_FO.jpg","stimuli/WM07_SUR.jpg","stimuli/BM07_AO.jpg","pos3","stimuli/WM07_SUR.jpg","SUR","WM07","2","3.5","7","8","stimuli/stars_7.png","94.5","[""SC"",""FO"",""SUR"",""AO""]","[""BF05"",""HF04"",""WM07"",""BM07""]","[7,4,7,3]","[6,2,8,4]","","",""
"show-reward","72","203609","0.0-72.0","p85146","A1TPGXT718D68E","3RZS0FBRWLGDTA9TUPH81F59AWHPC0","3RJSC4XJ120STSUOOWKBXSTGTJE50N","emotion","match","uniform","","","","","","","","203176.5","205181.09999990463","","","","","","","","","","","","7","","stimuli/stars_7.png","94.5","","","","","stimuli/WM07_SUR.jpg","",""
"explore-choice","73","206163","0.0-73.0","p85146","A1TPGXT718D68E","3RZS0FBRWLGDTA9TUPH81F59AWHPC0","3RJSC4XJ120STSUOOWKBXSTGTJE50N","emotion","match","uniform","","","","","","","2051.399999976158","205182.19999992847","207233.59999990463","[""stimuli/BM07_FO.jpg"",""stimuli/HF04_AO.jpg"",""stimuli/BF05_SUR.jpg"",""stimuli/WM07_SC.jpg""]","stimuli/BM07_FO.jpg","stimuli/HF04_AO.jpg","stimuli/BF05_SUR.jpg","stimuli/WM07_SC.jpg","pos4","stimuli/WM07_SC.jpg","SC","WM07","3","2","4","6","stimuli/stars_4.png","96.5","[""FO"",""AO"",""SUR"",""SC""]","[""BM07"",""HF04"",""BF05"",""WM07""]","[4,3,6,4]","[2,4,8,6]","","",""
"show-reward","74","208169","0.0-74.0","p85146","A1TPGXT718D68E","3RZS0FBRWLGDTA9TUPH81F59AWHPC0","3RJSC4XJ120STSUOOWKBXSTGTJE50N","emotion","match","uniform","","","","","","","","207737.29999995232","209740.59999990463","","","","","","","","","","","","4","","stimuli/stars_4.png","96.5","","","","","stimuli/WM07_SC.jpg","",""
"explore-choice","75","210999","0.0-75.0","p85146","A1TPGXT718D68E","3RZS0FBRWLGDTA9TUPH81F59AWHPC0","3RJSC4XJ120STSUOOWKBXSTGTJE50N","emotion","match","uniform","","","","","","","2325.399999976158","209741.39999997616","212066.79999995232","[""stimuli/BF05_SUR.jpg"",""stimuli/WM07_SC.jpg"",""stimuli/BM07_AO.jpg"",""stimuli/HF04_FO.jpg""]","stimuli/BF05_SUR.jpg","stimuli/WM07_SC.jpg","stimuli/BM07_AO.jpg","stimuli/HF04_FO.jpg","pos1","stimuli/BF05_SUR.jpg","SUR","BF05","0","3","6","8","stimuli/stars_6.png","99.5","[""SUR"",""SC"",""AO"",""FO""]","[""BF05"",""WM07"",""BM07"",""HF04""]","[6,7,6,4]","[8,6,4,2]","","",""
"show-reward","76","213019","0.0-76.0","p85146","A1TPGXT718D68E","3RZS0FBRWLGDTA9TUPH81F59AWHPC0","3RJSC4XJ120STSUOOWKBXSTGTJE50N","emotion","match","uniform","","","","","","","","212572.59999990463","214590.79999995232","","","","","","","","","","","","6","","stimuli/stars_6.png","99.5","","","","","stimuli/BF05_SUR.jpg","",""
"explore-choice","77","215725","0.0-77.0","p85146","A1TPGXT718D68E","3RZS0FBRWLGDTA9TUPH81F59AWHPC0","3RJSC4XJ120STSUOOWKBXSTGTJE50N","emotion","match","uniform","","","","","","","2198.1999999284744","214591.5","216789.69999992847","[""stimuli/WM07_AO.jpg"",""stimuli/HF04_FO.jpg"",""stimuli/BF05_SC.jpg"",""stimuli/BM07_SUR.jpg""]","stimuli/WM07_AO.jpg","stimuli/HF04_FO.jpg","stimuli/BF05_SC.jpg","stimuli/BM07_SUR.jpg","pos2","stimuli/HF04_FO.jpg","FO","HF04","1","1.5","3","2","stimuli/stars_3.png","101","[""AO"",""FO"",""SC"",""SUR""]","[""WM07"",""HF04"",""BF05"",""BM07""]","[6,3,5,10]","[4,2,6,8]","","",""
"show-reward","78","217734","0.0-78.0","p85146","A1TPGXT718D68E","3RZS0FBRWLGDTA9TUPH81F59AWHPC0","3RJSC4XJ120STSUOOWKBXSTGTJE50N","emotion","match","uniform","","","","","","","","217297.39999997616","219305.69999992847","","","","","","","","","","","","3","","stimuli/stars_3.png","101","","","","","stimuli/HF04_FO.jpg","",""
"explore-choice","79","220039","0.0-79.0","p85146","A1TPGXT718D68E","3RZS0FBRWLGDTA9TUPH81F59AWHPC0","3RJSC4XJ120STSUOOWKBXSTGTJE50N","emotion","match","uniform","","","","","","","1790.3000000715256","219307.19999992847","221097.5","[""stimuli/BM07_AO.jpg"",""stimuli/HF04_SUR.jpg"",""stimuli/BF05_FO.jpg"",""stimuli/WM07_SC.jpg""]","stimuli/BM07_AO.jpg","stimuli/HF04_SUR.jpg","stimuli/BF05_FO.jpg","stimuli/WM07_SC.jpg","pos4","stimuli/WM07_SC.jpg","SC","WM07","3","3.5","7","6","stimuli/stars_7.png","104.5","[""AO"",""SUR"",""FO"",""SC""]","[""BM07"",""HF04"",""BF05"",""WM07""]","[6,8,1,7]","[4,8,2,6]","","",""
"show-reward","80","222059","0.0-80.0","p85146","A1TPGXT718D68E","3RZS0FBRWLGDTA9TUPH81F59AWHPC0","3RJSC4XJ120STSUOOWKBXSTGTJE50N","emotion","match","uniform","","","","","","","","221613","223630.5","","","","","","","","","","","","7","","stimuli/stars_7.png","104.5","","","","","stimuli/WM07_SC.jpg","",""
"explore-choice","81","225830","0.0-81.0","p85146","A1TPGXT718D68E","3RZS0FBRWLGDTA9TUPH81F59AWHPC0","3RJSC4XJ120STSUOOWKBXSTGTJE50N","emotion","match","uniform","","","","","","","3262.2999999523163","223631.79999995232","226894.09999990463","[""stimuli/HF04_SC.jpg"",""stimuli/BM07_FO.jpg"",""stimuli/BF05_SUR.jpg"",""stimuli/WM07_AO.jpg""]","stimuli/HF04_SC.jpg","stimuli/BM07_FO.jpg","stimuli/BF05_SUR.jpg","stimuli/WM07_AO.jpg","pos3","stimuli/BF05_SUR.jpg","SUR","BF05","2","5","10","8","stimuli/stars_10.png","109.5","[""SC"",""FO"",""SUR"",""AO""]","[""HF04"",""BM07"",""BF05"",""WM07""]","[6,0,10,3]","[6,2,8,4]","","",""
"show-reward","82","227850","0.0-82.0","p85146","A1TPGXT718D68E","3RZS0FBRWLGDTA9TUPH81F59AWHPC0","3RJSC4XJ120STSUOOWKBXSTGTJE50N","emotion","match","uniform","","","","","","","","227403.79999995232","229421.89999997616","","","","","","","","","","","","10","","stimuli/stars_10.png","109.5","","","","","stimuli/BF05_SUR.jpg","",""
"explore-choice","83","229715","0.0-83.0","p85146","A1TPGXT718D68E","3RZS0FBRWLGDTA9TUPH81F59AWHPC0","3RJSC4XJ120STSUOOWKBXSTGTJE50N","emotion","match","uniform","","","","","","","1361","229423.59999990463","230784.59999990463","[""stimuli/HF04_FO.jpg"",""stimuli/WM07_AO.jpg"",""stimuli/BF05_SUR.jpg"",""stimuli/BM07_SC.jpg""]","stimuli/HF04_FO.jpg","stimuli/WM07_AO.jpg","stimuli/BF05_SUR.jpg","stimuli/BM07_SC.jpg","pos3","stimuli/BF05_SUR.jpg","SUR","BF05","2","3","6","8","stimuli/stars_6.png","112.5","[""FO"",""AO"",""SUR"",""SC""]","[""HF04"",""WM07"",""BF05"",""BM07""]","[0,2,6,7]","[2,4,8,6]","","",""
"show-reward","84","231725","0.0-84.0","p85146","A1TPGXT718D68E","3RZS0FBRWLGDTA9TUPH81F59AWHPC0","3RJSC4XJ120STSUOOWKBXSTGTJE50N","emotion","match","uniform","","","","","","","","231287.89999997616","233296.59999990463","","","","","","","","","","","","6","","stimuli/stars_6.png","112.5","","","","","stimuli/BF05_SUR.jpg","",""
"explore-choice","85","234479","0.0-85.0","p85146","A1TPGXT718D68E","3RZS0FBRWLGDTA9TUPH81F59AWHPC0","3RJSC4XJ120STSUOOWKBXSTGTJE50N","emotion","match","uniform","","","","","","","2251","233297.09999990463","235548.09999990463","[""stimuli/WM07_AO.jpg"",""stimuli/HF04_SUR.jpg"",""stimuli/BM07_FO.jpg"",""stimuli/BF05_SC.jpg""]","stimuli/WM07_AO.jpg","stimuli/HF04_SUR.jpg","stimuli/BM07_FO.jpg","stimuli/BF05_SC.jpg","pos2","stimuli/HF04_SUR.jpg","SUR","HF04","1","3.5","7","8","stimuli/stars_7.png","116","[""AO"",""SUR"",""FO"",""SC""]","[""WM07"",""HF04"",""BM07"",""BF05""]","[6,7,0,5]","[4,8,2,6]","","",""
"show-reward","86","236489","0.0-86.0","p85146","A1TPGXT718D68E","3RZS0FBRWLGDTA9TUPH81F59AWHPC0","3RJSC4XJ120STSUOOWKBXSTGTJE50N","emotion","match","uniform","","","","","","","","236051.89999997616","238060.89999997616","","","","","","","","","","","","7","","stimuli/stars_7.png","116","","","","","stimuli/HF04_SUR.jpg","",""
"explore-choice","87","239576","0.0-87.0","p85146","A1TPGXT718D68E","3RZS0FBRWLGDTA9TUPH81F59AWHPC0","3RJSC4XJ120STSUOOWKBXSTGTJE50N","emotion","match","uniform","","","","","","","2570.9000000953674","238061.59999990463","240632.5","[""stimuli/BF05_AO.jpg"",""stimuli/HF04_SC.jpg"",""stimuli/WM07_SUR.jpg"",""stimuli/BM07_FO.jpg""]","stimuli/BF05_AO.jpg","stimuli/HF04_SC.jpg","stimuli/WM07_SUR.jpg","stimuli/BM07_FO.jpg","pos3","stimuli/WM07_SUR.jpg","SUR","WM07","2","4","8","8","stimuli/stars_8.png","120","[""AO"",""SC"",""SUR"",""FO""]","[""BF05"",""HF04"",""WM07"",""BM07""]","[3,4,8,0]","[4,6,8,2]","","",""
"show-reward","88","241589","0.0-88.0","p85146","A1TPGXT718D68E","3RZS0FBRWLGDTA9TUPH81F59AWHPC0","3RJSC4XJ120STSUOOWKBXSTGTJE50N","emotion","match","uniform","","","","","","","","241148.29999995232","243160.59999990463","","","","","","","","","","","","8","","stimuli/stars_8.png","120","","","","","stimuli/WM07_SUR.jpg","",""
"explore-choice","89","244425","0.0-89.0","p85146","A1TPGXT718D68E","3RZS0FBRWLGDTA9TUPH81F59AWHPC0","3RJSC4XJ120STSUOOWKBXSTGTJE50N","emotion","match","uniform","","","","","","","2322.899999976158","243161.29999995232","245484.19999992847","[""stimuli/WM07_SC.jpg"",""stimuli/HF04_SUR.jpg"",""stimuli/BM07_FO.jpg"",""stimuli/BF05_AO.jpg""]","stimuli/WM07_SC.jpg","stimuli/HF04_SUR.jpg","stimuli/BM07_FO.jpg","stimuli/BF05_AO.jpg","pos2","stimuli/HF04_SUR.jpg","SUR","HF04","1","3","6","8","stimuli/stars_6.png","123","[""SC"",""SUR"",""FO"",""AO""]","[""WM07"",""HF04"",""BM07"",""BF05""]","[7,6,3,6]","[6,8,2,4]","","",""
"show-reward","90","246439","0.0-90.0","p85146","A1TPGXT718D68E","3RZS0FBRWLGDTA9TUPH81F59AWHPC0","3RJSC4XJ120STSUOOWKBXSTGTJE50N","emotion","match","uniform","","","","","","","","245998.69999992847","248010.79999995232","","","","","","","","","","","","6","","stimuli/stars_6.png","123","","","","","stimuli/HF04_SUR.jpg","",""
"explore-choice","91","248712","0.0-91.0","p85146","A1TPGXT718D68E","3RZS0FBRWLGDTA9TUPH81F59AWHPC0","3RJSC4XJ120STSUOOWKBXSTGTJE50N","emotion","match","uniform","","","","","","","1762.5","248012.5","249775","[""stimuli/BF05_AO.jpg"",""stimuli/HF04_SC.jpg"",""stimuli/WM07_FO.jpg"",""stimuli/BM07_SUR.jpg""]","stimuli/BF05_AO.jpg","stimuli/HF04_SC.jpg","stimuli/WM07_FO.jpg","stimuli/BM07_SUR.jpg","pos2","stimuli/HF04_SC.jpg","SC","HF04","1","3.5","7","6","stimuli/stars_7.png","126.5","[""AO"",""SC"",""FO"",""SUR""]","[""BF05"",""HF04"",""WM07"",""BM07""]","[6,7,3,6]","[4,6,2,8]","","",""
"show-reward","92","250727","0.0-92.0","p85146","A1TPGXT718D68E","3RZS0FBRWLGDTA9TUPH81F59AWHPC0","3RJSC4XJ120STSUOOWKBXSTGTJE50N","emotion","match","uniform","","","","","","","","250284.89999997616","252298.79999995232","","","","","","","","","","","","7","","stimuli/stars_7.png","126.5","","","","","stimuli/HF04_SC.jpg","",""
"explore-choice","93","253097","0.0-93.0","p85146","A1TPGXT718D68E","3RZS0FBRWLGDTA9TUPH81F59AWHPC0","3RJSC4XJ120STSUOOWKBXSTGTJE50N","emotion","match","uniform","","","","","","","1863.7999999523163","252300.5","254164.29999995232","[""stimuli/BF05_SC.jpg"",""stimuli/HF04_SUR.jpg"",""stimuli/BM07_AO.jpg"",""stimuli/WM07_FO.jpg""]","stimuli/BF05_SC.jpg","stimuli/HF04_SUR.jpg","stimuli/BM07_AO.jpg","stimuli/WM07_FO.jpg","pos2","stimuli/HF04_SUR.jpg","SUR","HF04","1","5","10","8","stimuli/stars_10.png","131.5","[""SC"",""SUR"",""AO"",""FO""]","[""BF05"",""HF04"",""BM07"",""WM07""]","[5,10,5,1]","[6,8,4,2]","","",""
"show-reward","94","255104","0.0-94.0","p85146","A1TPGXT718D68E","3RZS0FBRWLGDTA9TUPH81F59AWHPC0","3RJSC4XJ120STSUOOWKBXSTGTJE50N","emotion","match","uniform","","","","","","","","254669.89999997616","256676.09999990463","","","","","","","","","","","","10","","stimuli/stars_10.png","131.5","","","","","stimuli/HF04_SUR.jpg","",""
"explore-choice","95","257729","0.0-95.0","p85146","A1TPGXT718D68E","3RZS0FBRWLGDTA9TUPH81F59AWHPC0","3RJSC4XJ120STSUOOWKBXSTGTJE50N","emotion","match","uniform","","","","","","","2111.1999999284744","256677.89999997616","258789.09999990463","[""stimuli/WM07_SUR.jpg"",""stimuli/HF04_AO.jpg"",""stimuli/BF05_SC.jpg"",""stimuli/BM07_FO.jpg""]","stimuli/WM07_SUR.jpg","stimuli/HF04_AO.jpg","stimuli/BF05_SC.jpg","stimuli/BM07_FO.jpg","pos3","stimuli/BF05_SC.jpg","SC","BF05","2","3.5","7","6","stimuli/stars_7.png","135","[""SUR"",""AO"",""SC"",""FO""]","[""WM07"",""HF04"",""BF05"",""BM07""]","[6,6,7,4]","[8,4,6,2]","","",""
"show-reward","96","259739","0.0-96.0","p85146","A1TPGXT718D68E","3RZS0FBRWLGDTA9TUPH81F59AWHPC0","3RJSC4XJ120STSUOOWKBXSTGTJE50N","emotion","match","uniform","","","","","","","","259302.09999990463","261310.89999997616","","","","","","","","","","","","7","","stimuli/stars_7.png","135","","","","","stimuli/BF05_SC.jpg","",""
"explore-choice","97","262459","0.0-97.0","p85146","A1TPGXT718D68E","3RZS0FBRWLGDTA9TUPH81F59AWHPC0","3RJSC4XJ120STSUOOWKBXSTGTJE50N","emotion","match","uniform","","","","","","","2206.600000023842","261311.69999992847","263518.2999999523","[""stimuli/HF04_AO.jpg"",""stimuli/BM07_SC.jpg"",""stimuli/WM07_FO.jpg"",""stimuli/BF05_SUR.jpg""]","stimuli/HF04_AO.jpg","stimuli/BM07_SC.jpg","stimuli/WM07_FO.jpg","stimuli/BF05_SUR.jpg","pos4","stimuli/BF05_SUR.jpg","SUR","BF05","3","4","8","8","stimuli/stars_8.png","139","[""AO"",""SC"",""FO"",""SUR""]","[""HF04"",""BM07"",""WM07"",""BF05""]","[2,5,0,8]","[4,6,2,8]","","",""
"show-reward","98","264462","0.0-98.0","p85146","A1TPGXT718D68E","3RZS0FBRWLGDTA9TUPH81F59AWHPC0","3RJSC4XJ120STSUOOWKBXSTGTJE50N","emotion","match","uniform","","","","","","","","264032.39999997616","266033.7999999523","","","","","","","","","","","","8","","stimuli/stars_8.png","139","","","","","stimuli/BF05_SUR.jpg","",""
"explore-choice","99","266419","0.0-99.0","p85146","A1TPGXT718D68E","3RZS0FBRWLGDTA9TUPH81F59AWHPC0","3RJSC4XJ120STSUOOWKBXSTGTJE50N","emotion","match","uniform","","","","","","","1450.7999999523163","266034.5","267485.2999999523","[""stimuli/HF04_AO.jpg"",""stimuli/WM07_SC.jpg"",""stimuli/BF05_FO.jpg"",""stimuli/BM07_SUR.jpg""]","stimuli/HF04_AO.jpg","stimuli/WM07_SC.jpg","stimuli/BF05_FO.jpg","stimuli/BM07_SUR.jpg","pos4","stimuli/BM07_SUR.jpg","SUR","BM07","3","5","10","8","stimuli/stars_10.png","144","[""AO"",""SC"",""FO"",""SUR""]","[""HF04"",""WM07"",""BF05"",""BM07""]","[2,4,0,10]","[4,6,2,8]","","",""
"show-reward","100","268429","0.0-100.0","p85146","A1TPGXT718D68E","3RZS0FBRWLGDTA9TUPH81F59AWHPC0","3RJSC4XJ120STSUOOWKBXSTGTJE50N","emotion","match","uniform","","","","","","","","267992.89999997616","270000.89999997616","","","","","","","","","","","","10","","stimuli/stars_10.png","144","","","","","stimuli/BM07_SUR.jpg","",""
"explore-choice","101","270461","0.0-101.0","p85146","A1TPGXT718D68E","3RZS0FBRWLGDTA9TUPH81F59AWHPC0","3RJSC4XJ120STSUOOWKBXSTGTJE50N","emotion","match","uniform","","","","","","","1523","270002.59999990463","271525.59999990463","[""stimuli/HF04_AO.jpg"",""stimuli/WM07_FO.jpg"",""stimuli/BM07_SUR.jpg"",""stimuli/BF05_SC.jpg""]","stimuli/HF04_AO.jpg","stimuli/WM07_FO.jpg","stimuli/BM07_SUR.jpg","stimuli/BF05_SC.jpg","pos3","stimuli/BM07_SUR.jpg","SUR","BM07","2","5","10","8","stimuli/stars_10.png","149","[""AO"",""FO"",""SUR"",""SC""]","[""HF04"",""WM07"",""BM07"",""BF05""]","[6,4,10,6]","[4,2,8,6]","","",""
"show-reward","102","272469","0.0-102.0","p85146","A1TPGXT718D68E","3RZS0FBRWLGDTA9TUPH81F59AWHPC0","3RJSC4XJ120STSUOOWKBXSTGTJE50N","emotion","match","uniform","","","","","","","","272033.1999999285","274041.09999990463","","","","","","","","","","","","10","","stimuli/stars_10.png","149","","","","","stimuli/BM07_SUR.jpg","",""
"explore-choice","103","274761","0.0-103.0","p85146","A1TPGXT718D68E","3RZS0FBRWLGDTA9TUPH81F59AWHPC0","3RJSC4XJ120STSUOOWKBXSTGTJE50N","emotion","match","uniform","","","","","","","1788.7999999523163","274042","275830.7999999523","[""stimuli/WF04_DO.jpg"",""stimuli/BF08_HE.jpg"",""stimuli/BF06_HO.jpg"",""stimuli/WM13_CC.jpg""]","stimuli/WF04_DO.jpg","stimuli/BF08_HE.jpg","stimuli/BF06_HO.jpg","stimuli/WM13_CC.jpg","pos3","stimuli/BF06_HO.jpg","HO","BF06","2","3","6","4","stimuli/stars_6.png","152","[""DO"",""HE"",""HO"",""CC""]","[""WF04"",""BF08"",""BF06"",""WM13""]","[8,4,6,10]","[6,2,4,8]","","",""
"show-reward","104","276777","0.0-104.0","p85146","A1TPGXT718D68E","3RZS0FBRWLGDTA9TUPH81F59AWHPC0","3RJSC4XJ120STSUOOWKBXSTGTJE50N","emotion","match","uniform","","","","","","","","276334","278348.09999990463","","","","","","","","","","","","6","","stimuli/stars_6.png","152","","","","","stimuli/BF06_HO.jpg","",""
"explore-choice","105","278713","0.0-105.0","p85146","A1TPGXT718D68E","3RZS0FBRWLGDTA9TUPH81F59AWHPC0","3RJSC4XJ120STSUOOWKBXSTGTJE50N","emotion","match","uniform","","","","","","","1425.1999999284744","278349.89999997616","279775.09999990463","[""stimuli/WF04_HO.jpg"",""stimuli/BF06_CC.jpg"",""stimuli/BF08_HE.jpg"",""stimuli/WM13_DO.jpg""]","stimuli/WF04_HO.jpg","stimuli/BF06_CC.jpg","stimuli/BF08_HE.jpg","stimuli/WM13_DO.jpg","pos1","stimuli/WF04_HO.jpg","HO","WF04","0","1.5","3","4","stimuli/stars_3.png","153.5","[""HO"",""CC"",""HE"",""DO""]","[""WF04"",""BF06"",""BF08"",""WM13""]","[3,7,2,8]","[4,8,2,6]","","",""
"show-reward","106","280729","0.0-106.0","p85146","A1TPGXT718D68E","3RZS0FBRWLGDTA9TUPH81F59AWHPC0","3RJSC4XJ120STSUOOWKBXSTGTJE50N","emotion","match","uniform","","","","","","","","280286.1999999285","282301","","","","","","","","","","","","3","","stimuli/stars_3.png","153.5","","","","","stimuli/WF04_HO.jpg","",""
"explore-choice","107","283030","0.0-107.0","p85146","A1TPGXT718D68E","3RZS0FBRWLGDTA9TUPH81F59AWHPC0","3RJSC4XJ120STSUOOWKBXSTGTJE50N","emotion","match","uniform","","","","","","","1788","282303.5","284091.5","[""stimuli/WM13_HE.jpg"",""stimuli/BF08_DO.jpg"",""stimuli/BF06_HO.jpg"",""stimuli/WF04_CC.jpg""]","stimuli/WM13_HE.jpg","stimuli/BF08_DO.jpg","stimuli/BF06_HO.jpg","stimuli/WF04_CC.jpg","pos4","stimuli/WF04_CC.jpg","CC","WF04","3","4.5","9","8","stimuli/stars_9.png","158","[""HE"",""DO"",""HO"",""CC""]","[""WM13"",""BF08"",""BF06"",""WF04""]","[4,5,6,9]","[2,6,4,8]","","",""
"show-reward","108","285038","0.0-108.0","p85146","A1TPGXT718D68E","3RZS0FBRWLGDTA9TUPH81F59AWHPC0","3RJSC4XJ120STSUOOWKBXSTGTJE50N","emotion","match","uniform","","","","","","","","284603.2999999523","286610","","","","","","","","","","","","9","","stimuli/stars_9.png","158","","","","","stimuli/WF04_CC.jpg","",""
"explore-choice","109","286970","0.0-109.0","p85146","A1TPGXT718D68E","3RZS0FBRWLGDTA9TUPH81F59AWHPC0","3RJSC4XJ120STSUOOWKBXSTGTJE50N","emotion","match","uniform","","","","","","","1419.2999999523163","286611.39999997616","288030.6999999285","[""stimuli/WF04_HE.jpg"",""stimuli/BF08_CC.jpg"",""stimuli/BF06_DO.jpg"",""stimuli/WM13_HO.jpg""]","stimuli/WF04_HE.jpg","stimuli/BF08_CC.jpg","stimuli/BF06_DO.jpg","stimuli/WM13_HO.jpg","pos1","stimuli/WF04_HE.jpg","HE","WF04","0","0.5","1","2","stimuli/stars_1.png","158.5","[""HE"",""CC"",""DO"",""HO""]","[""WF04"",""BF08"",""BF06"",""WM13""]","[1,9,7,3]","[2,8,6,4]","","",""
"show-reward","110","288979","0.0-110.0","p85146","A1TPGXT718D68E","3RZS0FBRWLGDTA9TUPH81F59AWHPC0","3RJSC4XJ120STSUOOWKBXSTGTJE50N","emotion","match","uniform","","","","","","","","288543","290550.89999997616","","","","","","","","","","","","1","","stimuli/stars_1.png","158.5","","","","","stimuli/WF04_HE.jpg","",""
"explore-choice","111","291834","0.0-111.0","p85146","A1TPGXT718D68E","3RZS0FBRWLGDTA9TUPH81F59AWHPC0","3RJSC4XJ120STSUOOWKBXSTGTJE50N","emotion","match","uniform","","","","","","","2345.2000000476837","290552.59999990463","292897.7999999523","[""stimuli/WM13_DO.jpg"",""stimuli/WF04_HE.jpg"",""stimuli/BF08_HO.jpg"",""stimuli/BF06_CC.jpg""]","stimuli/WM13_DO.jpg","stimuli/WF04_HE.jpg","stimuli/BF08_HO.jpg","stimuli/BF06_CC.jpg","pos4","stimuli/BF06_CC.jpg","CC","BF06","3","3","6","8","stimuli/stars_6.png","161.5","[""DO"",""HE"",""HO"",""CC""]","[""WM13"",""WF04"",""BF08"",""BF06""]","[6,0,3,6]","[6,2,4,8]","","",""
"show-reward","112","293849","0.0-112.0","p85146","A1TPGXT718D68E","3RZS0FBRWLGDTA9TUPH81F59AWHPC0","3RJSC4XJ120STSUOOWKBXSTGTJE50N","emotion","match","uniform","","","","","","","","293406.7999999523","295420.6999999285","","","","","","","","","","","","6","","stimuli/stars_6.png","161.5","","","","","stimuli/BF06_CC.jpg","",""
"explore-choice","113","296824","0.0-113.0","p85146","A1TPGXT718D68E","3RZS0FBRWLGDTA9TUPH81F59AWHPC0","3RJSC4XJ120STSUOOWKBXSTGTJE50N","emotion","match","uniform","","","","","","","2469","295421.39999997616","297890.39999997616","[""stimuli/WM13_DO.jpg"",""stimuli/BF08_HE.jpg"",""stimuli/WF04_CC.jpg"",""stimuli/BF06_HO.jpg""]","stimuli/WM13_DO.jpg","stimuli/BF08_HE.jpg","stimuli/WF04_CC.jpg","stimuli/BF06_HO.jpg","pos3","stimuli/WF04_CC.jpg","CC","WF04","2","5","10","8","stimuli/stars_10.png","166.5","[""DO"",""HE"",""CC"",""HO""]","[""WM13"",""BF08"",""WF04"",""BF06""]","[7,0,10,5]","[6,2,8,4]","","",""
"show-reward","114","298835","0.0-114.0","p85146","A1TPGXT718D68E","3RZS0FBRWLGDTA9TUPH81F59AWHPC0","3RJSC4XJ120STSUOOWKBXSTGTJE50N","emotion","match","uniform","","","","","","","","298397.89999997616","300407.1999999285","","","","","","","","","","","","10","","stimuli/stars_10.png","166.5","","","","","stimuli/WF04_CC.jpg","",""
"explore-choice","115","302442","0.0-115.0","p85146","A1TPGXT718D68E","3RZS0FBRWLGDTA9TUPH81F59AWHPC0","3RJSC4XJ120STSUOOWKBXSTGTJE50N","emotion","match","uniform","","","","","","","3100.2000000476837","300408.6999999285","303508.89999997616","[""stimuli/BF08_DO.jpg"",""stimuli/BF06_CC.jpg"",""stimuli/WM13_HE.jpg"",""stimuli/WF04_HO.jpg""]","stimuli/BF08_DO.jpg","stimuli/BF06_CC.jpg","stimuli/WM13_HE.jpg","stimuli/WF04_HO.jpg","pos4","stimuli/WF04_HO.jpg","HO","WF04","3","2","4","4","stimuli/stars_4.png","168.5","[""DO"",""CC"",""HE"",""HO""]","[""BF08"",""BF06"",""WM13"",""WF04""]","[4,10,4,4]","[6,8,2,4]","","",""
"show-reward","116","304456","0.0-116.0","p85146","A1TPGXT718D68E","3RZS0FBRWLGDTA9TUPH81F59AWHPC0","3RJSC4XJ120STSUOOWKBXSTGTJE50N","emotion","match","uniform","","","","","","","","304016.39999997616","306028","","","","","","","","","","","","4","","stimuli/stars_4.png","168.5","","","","","stimuli/WF04_HO.jpg","",""
"explore-choice","117","306999","0.0-117.0","p85146","A1TPGXT718D68E","3RZS0FBRWLGDTA9TUPH81F59AWHPC0","3RJSC4XJ120STSUOOWKBXSTGTJE50N","emotion","match","uniform","","","","","","","2026.6000000238419","306030.09999990463","308056.6999999285","[""stimuli/WF04_CC.jpg"",""stimuli/BF08_DO.jpg"",""stimuli/WM13_HO.jpg"",""stimuli/BF06_HE.jpg""]","stimuli/WF04_CC.jpg","stimuli/BF08_DO.jpg","stimuli/WM13_HO.jpg","stimuli/BF06_HE.jpg","pos3","stimuli/WM13_HO.jpg","HO","WM13","2","2","4","4","stimuli/stars_4.png","170.5","[""CC"",""DO"",""HO"",""HE""]","[""WF04"",""BF08"",""WM13"",""BF06""]","[7,8,4,4]","[8,6,4,2]","","",""
"show-reward","118","309014","0.0-118.0","p85146","A1TPGXT718D68E","3RZS0FBRWLGDTA9TUPH81F59AWHPC0","3RJSC4XJ120STSUOOWKBXSTGTJE50N","emotion","match","uniform","","","","","","","","308573","310586.39999997616","","","","","","","","","","","","4","","stimuli/stars_4.png","170.5","","","","","stimuli/WM13_HO.jpg","",""
"explore-choice","119","311336","0.0-119.0","p85146","A1TPGXT718D68E","3RZS0FBRWLGDTA9TUPH81F59AWHPC0","3RJSC4XJ120STSUOOWKBXSTGTJE50N","emotion","match","uniform","","","","","","","1805.7999999523163","310587.89999997616","312393.6999999285","[""stimuli/BF06_DO.jpg"",""stimuli/WM13_CC.jpg"",""stimuli/WF04_HE.jpg"",""stimuli/BF08_HO.jpg""]","stimuli/BF06_DO.jpg","stimuli/WM13_CC.jpg","stimuli/WF04_HE.jpg","stimuli/BF08_HO.jpg","pos4","stimuli/BF08_HO.jpg","HO","BF08","3","3","6","4","stimuli/stars_6.png","173.5","[""DO"",""CC"",""HE"",""HO""]","[""BF06"",""WM13"",""WF04"",""BF08""]","[7,9,4,6]","[6,8,2,4]","","",""
"show-reward","120","313349","0.0-120.0","p85146","A1TPGXT718D68E","3RZS0FBRWLGDTA9TUPH81F59AWHPC0","3RJSC4XJ120STSUOOWKBXSTGTJE50N","emotion","match","uniform","","","","","","","","312908.89999997616","314921","","","","","","","","","","","","6","","stimuli/stars_6.png","173.5","","","","","stimuli/BF08_HO.jpg","",""
"explore-choice","121","315234","0.0-121.0","p85146","A1TPGXT718D68E","3RZS0FBRWLGDTA9TUPH81F59AWHPC0","3RJSC4XJ120STSUOOWKBXSTGTJE50N","emotion","match","uniform","","","","","","","1372.3999999761581","314922.2999999523","316294.6999999285","[""stimuli/BF08_DO.jpg"",""stimuli/WM13_CC.jpg"",""stimuli/WF04_HO.jpg"",""stimuli/BF06_HE.jpg""]","stimuli/BF08_DO.jpg","stimuli/WM13_CC.jpg","stimuli/WF04_HO.jpg","stimuli/BF06_HE.jpg","pos2","stimuli/WM13_CC.jpg","CC","WM13","1","4.5","9","8","stimuli/stars_9.png","178","[""DO"",""CC"",""HO"",""HE""]","[""BF08"",""WM13"",""WF04"",""BF06""]","[5,9,6,0]","[6,8,4,2]","","",""
"show-reward","122","317238","0.0-122.0","p85146","A1TPGXT718D68E","3RZS0FBRWLGDTA9TUPH81F59AWHPC0","3RJSC4XJ120STSUOOWKBXSTGTJE50N","emotion","match","uniform","","","","","","","","316806.6999999285","318810","","","","","","","","","","","","9","","stimuli/stars_9.png","178","","","","","stimuli/WM13_CC.jpg","",""
"explore-choice","123","319534","0.0-123.0","p85146","A1TPGXT718D68E","3RZS0FBRWLGDTA9TUPH81F59AWHPC0","3RJSC4XJ120STSUOOWKBXSTGTJE50N","emotion","match","uniform","","","","","","","1795.2000000476837","318810.6999999285","320605.89999997616","[""stimuli/BF06_DO.jpg"",""stimuli/BF08_HE.jpg"",""stimuli/WM13_CC.jpg"",""stimuli/WF04_HO.jpg""]","stimuli/BF06_DO.jpg","stimuli/BF08_HE.jpg","stimuli/WM13_CC.jpg","stimuli/WF04_HO.jpg","pos3","stimuli/WM13_CC.jpg","CC","WM13","2","4","8","8","stimuli/stars_8.png","182","[""DO"",""HE"",""CC"",""HO""]","[""BF06"",""BF08"",""WM13"",""WF04""]","[6,2,8,2]","[6,2,8,4]","","",""
"show-reward","124","321548","0.0-124.0","p85146","A1TPGXT718D68E","3RZS0FBRWLGDTA9TUPH81F59AWHPC0","3RJSC4XJ120STSUOOWKBXSTGTJE50N","emotion","match","uniform","","","","","","","","321107.09999990463","323120.5","","","","","","","","","","","","8","","stimuli/stars_8.png","182","","","","","stimuli/WM13_CC.jpg","",""
"explore-choice","125","323220","0.0-125.0","p85146","A1TPGXT718D68E","3RZS0FBRWLGDTA9TUPH81F59AWHPC0","3RJSC4XJ120STSUOOWKBXSTGTJE50N","emotion","match","uniform","","","","","","","1165.6999999284744","323121","324286.6999999285","[""stimuli/WM13_CC.jpg"",""stimuli/BF06_HE.jpg"",""stimuli/WF04_DO.jpg"",""stimuli/BF08_HO.jpg""]","stimuli/WM13_CC.jpg","stimuli/BF06_HE.jpg","stimuli/WF04_DO.jpg","stimuli/BF08_HO.jpg","pos1","stimuli/WM13_CC.jpg","CC","WM13","0","3","6","8","stimuli/stars_6.png","185","[""CC"",""HE"",""DO"",""HO""]","[""WM13"",""BF06"",""WF04"",""BF08""]","[6,3,6,2]","[8,2,6,4]","","",""
"show-reward","126","325234","0.0-126.0","p85146","A1TPGXT718D68E","3RZS0FBRWLGDTA9TUPH81F59AWHPC0","3RJSC4XJ120STSUOOWKBXSTGTJE50N","emotion","match","uniform","","","","","","","","324792.89999997616","326805.7999999523","","","","","","","","","","","","6","","stimuli/stars_6.png","185","","","","","stimuli/WM13_CC.jpg","",""
"explore-choice","127","327722","0.0-127.0","p85146","A1TPGXT718D68E","3RZS0FBRWLGDTA9TUPH81F59AWHPC0","3RJSC4XJ120STSUOOWKBXSTGTJE50N","emotion","match","uniform","","","","","","","1984.7999999523163","326806.5","328791.2999999523","[""stimuli/WF04_DO.jpg"",""stimuli/BF06_CC.jpg"",""stimuli/WM13_HO.jpg"",""stimuli/BF08_HE.jpg""]","stimuli/WF04_DO.jpg","stimuli/BF06_CC.jpg","stimuli/WM13_HO.jpg","stimuli/BF08_HE.jpg","pos3","stimuli/WM13_HO.jpg","HO","WM13","2","1.5","3","4","stimuli/stars_3.png","186.5","[""DO"",""CC"",""HO"",""HE""]","[""WF04"",""BF06"",""WM13"",""BF08""]","[5,8,3,4]","[6,8,4,2]","","",""
"show-reward","128","329733","0.0-128.0","p85146","A1TPGXT718D68E","3RZS0FBRWLGDTA9TUPH81F59AWHPC0","3RJSC4XJ120STSUOOWKBXSTGTJE50N","emotion","match","uniform","","","","","","","","329295.59999990463","331305.7999999523","","","","","","","","","","","","3","","stimuli/stars_3.png","186.5","","","","","stimuli/WM13_HO.jpg","",""
"explore-choice","129","331398","0.0-129.0","p85146","A1TPGXT718D68E","3RZS0FBRWLGDTA9TUPH81F59AWHPC0","3RJSC4XJ120STSUOOWKBXSTGTJE50N","emotion","match","uniform","","","","","","","1162.7000000476837","331306.2999999523","332469","[""stimuli/BF08_HO.jpg"",""stimuli/BF06_CC.jpg"",""stimuli/WF04_DO.jpg"",""stimuli/WM13_HE.jpg""]","stimuli/BF08_HO.jpg","stimuli/BF06_CC.jpg","stimuli/WF04_DO.jpg","stimuli/WM13_HE.jpg","pos2","stimuli/BF06_CC.jpg","CC","BF06","1","3","6","8","stimuli/stars_6.png","189.5","[""HO"",""CC"",""DO"",""HE""]","[""BF08"",""BF06"",""WF04"",""WM13""]","[6,6,8,2]","[4,8,6,2]","","",""
"show-reward","130","333415","0.0-130.0","p85146","A1TPGXT718D68E","3RZS0FBRWLGDTA9TUPH81F59AWHPC0","3RJSC4XJ120STSUOOWKBXSTGTJE50N","emotion","match","uniform","","","","","","","","332971","334987.2999999523","","","","","","","","","","","","6","","stimuli/stars_6.png","189.5","","","","","stimuli/BF06_CC.jpg","",""
"explore-choice","131","335469","0.0-131.0","p85146","A1TPGXT718D68E","3RZS0FBRWLGDTA9TUPH81F59AWHPC0","3RJSC4XJ120STSUOOWKBXSTGTJE50N","emotion","match","uniform","","","","","","","1550.5999999046326","334988","336538.59999990463","[""stimuli/BF08_DO.jpg"",""stimuli/BF06_CC.jpg"",""stimuli/WF04_HE.jpg"",""stimuli/WM13_HO.jpg""]","stimuli/BF08_DO.jpg","stimuli/BF06_CC.jpg","stimuli/WF04_HE.jpg","stimuli/WM13_HO.jpg","pos2","stimuli/BF06_CC.jpg","CC","BF06","1","3","6","8","stimuli/stars_6.png","192.5","[""DO"",""CC"",""HE"",""HO""]","[""BF08"",""BF06"",""WF04"",""WM13""]","[4,6,3,4]","[6,8,2,4]","","",""
"show-reward","132","337485","0.0-132.0","p85146","A1TPGXT718D68E","3RZS0FBRWLGDTA9TUPH81F59AWHPC0","3RJSC4XJ120STSUOOWKBXSTGTJE50N","emotion","match","uniform","","","","","","","","337041.6999999285","339057.2999999523","","","","","","","","","","","","6","","stimuli/stars_6.png","192.5","","","","","stimuli/BF06_CC.jpg","",""
"explore-choice","133","339268","0.0-133.0","p85146","A1TPGXT718D68E","3RZS0FBRWLGDTA9TUPH81F59AWHPC0","3RJSC4XJ120STSUOOWKBXSTGTJE50N","emotion","match","uniform","","","","","","","1266.8999999761581","339058.1999999285","340325.09999990463","[""stimuli/WF04_HE.jpg"",""stimuli/BF08_DO.jpg"",""stimuli/WM13_CC.jpg"",""stimuli/BF06_HO.jpg""]","stimuli/WF04_HE.jpg","stimuli/BF08_DO.jpg","stimuli/WM13_CC.jpg","stimuli/BF06_HO.jpg","pos1","stimuli/WF04_HE.jpg","HE","WF04","0","1","2","2","stimuli/stars_2.png","193.5","[""HE"",""DO"",""CC"",""HO""]","[""WF04"",""BF08"",""WM13"",""BF06""]","[2,6,10,6]","[2,6,8,4]","","",""
"show-reward","134","341280","0.0-134.0","p85146","A1TPGXT718D68E","3RZS0FBRWLGDTA9TUPH81F59AWHPC0","3RJSC4XJ120STSUOOWKBXSTGTJE50N","emotion","match","uniform","","","","","","","","340841.7999999523","342852.2999999523","","","","","","","","","","","","2","","stimuli/stars_2.png","193.5","","","","","stimuli/WF04_HE.jpg","",""
"explore-choice","135","343060","0.0-135.0","p85146","A1TPGXT718D68E","3RZS0FBRWLGDTA9TUPH81F59AWHPC0","3RJSC4XJ120STSUOOWKBXSTGTJE50N","emotion","match","uniform","","","","","","","1274.8999999761581","342852.89999997616","344127.7999999523","[""stimuli/WF04_CC.jpg"",""stimuli/BF08_HE.jpg"",""stimuli/WM13_HO.jpg"",""stimuli/BF06_DO.jpg""]","stimuli/WF04_CC.jpg","stimuli/BF08_HE.jpg","stimuli/WM13_HO.jpg","stimuli/BF06_DO.jpg","pos1","stimuli/WF04_CC.jpg","CC","WF04","0","5","10","8","stimuli/stars_10.png","198.5","[""CC"",""HE"",""HO"",""DO""]","[""WF04"",""BF08"",""WM13"",""BF06""]","[10,4,5,8]","[8,2,4,6]","","",""
"show-reward","136","345070","0.0-136.0","p85146","A1TPGXT718D68E","3RZS0FBRWLGDTA9TUPH81F59AWHPC0","3RJSC4XJ120STSUOOWKBXSTGTJE50N","emotion","match","uniform","","","","","","","","344633.89999997616","346642.5","","","","","","","","","","","","10","","stimuli/stars_10.png","198.5","","","","","stimuli/WF04_CC.jpg","",""
"explore-choice","137","347769","0.0-137.0","p85146","A1TPGXT718D68E","3RZS0FBRWLGDTA9TUPH81F59AWHPC0","3RJSC4XJ120STSUOOWKBXSTGTJE50N","emotion","match","uniform","","","","","","","2187.899999976158","346644.5","348832.39999997616","[""stimuli/WF04_HE.jpg"",""stimuli/BF06_HO.jpg"",""stimuli/BF08_CC.jpg"",""stimuli/WM13_DO.jpg""]","stimuli/WF04_HE.jpg","stimuli/BF06_HO.jpg","stimuli/BF08_CC.jpg","stimuli/WM13_DO.jpg","pos3","stimuli/BF08_CC.jpg","CC","BF08","2","3","6","8","stimuli/stars_6.png","201.5","[""HE"",""HO"",""CC"",""DO""]","[""WF04"",""BF06"",""BF08"",""WM13""]","[3,4,6,8]","[2,4,8,6]","","",""
"show-reward","138","349789","0.0-138.0","p85146","A1TPGXT718D68E","3RZS0FBRWLGDTA9TUPH81F59AWHPC0","3RJSC4XJ120STSUOOWKBXSTGTJE50N","emotion","match","uniform","","","","","","","","349342.89999997616","351361","","","","","","","","","","","","6","","stimuli/stars_6.png","201.5","","","","","stimuli/BF08_CC.jpg","",""
"explore-choice","139","351869","0.0-139.0","p85146","A1TPGXT718D68E","3RZS0FBRWLGDTA9TUPH81F59AWHPC0","3RJSC4XJ120STSUOOWKBXSTGTJE50N","emotion","match","uniform","","","","","","","1571.8999999761581","351362.39999997616","352934.2999999523","[""stimuli/BF06_HE.jpg"",""stimuli/BF08_CC.jpg"",""stimuli/WF04_HO.jpg"",""stimuli/WM13_DO.jpg""]","stimuli/BF06_HE.jpg","stimuli/BF08_CC.jpg","stimuli/WF04_HO.jpg","stimuli/WM13_DO.jpg","pos3","stimuli/WF04_HO.jpg","HO","WF04","2","1.5","3","4","stimuli/stars_3.png","203","[""HE"",""CC"",""HO"",""DO""]","[""BF06"",""BF08"",""WF04"",""WM13""]","[4,8,3,8]","[2,8,4,6]","","",""
"show-reward","140","353874","0.0-140.0","p85146","A1TPGXT718D68E","3RZS0FBRWLGDTA9TUPH81F59AWHPC0","3RJSC4XJ120STSUOOWKBXSTGTJE50N","emotion","match","uniform","","","","","","","","353443.09999990463","355445.89999997616","","","","","","","","","","","","3","","stimuli/stars_3.png","203","","","","","stimuli/WF04_HO.jpg","",""
"explore-choice","141","355409","0.0-141.0","p85146","A1TPGXT718D68E","3RZS0FBRWLGDTA9TUPH81F59AWHPC0","3RJSC4XJ120STSUOOWKBXSTGTJE50N","emotion","match","uniform","","","","","","","1029.5","355447.2999999523","356476.7999999523","[""stimuli/WM13_HE.jpg"",""stimuli/BF08_CC.jpg"",""stimuli/WF04_DO.jpg"",""stimuli/BF06_HO.jpg""]","stimuli/WM13_HE.jpg","stimuli/BF08_CC.jpg","stimuli/WF04_DO.jpg","stimuli/BF06_HO.jpg","pos2","stimuli/BF08_CC.jpg","CC","BF08","1","4","8","8","stimuli/stars_8.png","207","[""HE"",""CC"",""DO"",""HO""]","[""WM13"",""BF08"",""WF04"",""BF06""]","[1,8,6,6]","[2,8,6,4]","","",""
"show-reward","142","357419","0.0-142.0","p85146","A1TPGXT718D68E","3RZS0FBRWLGDTA9TUPH81F59AWHPC0","3RJSC4XJ120STSUOOWKBXSTGTJE50N","emotion","match","uniform","","","","","","","","356981.7999999523","358991.09999990463","","","","","","","","","","","","8","","stimuli/stars_8.png","207","","","","","stimuli/BF08_CC.jpg","",""
"explore-choice","143","359313","0.0-143.0","p85146","A1TPGXT718D68E","3RZS0FBRWLGDTA9TUPH81F59AWHPC0","3RJSC4XJ120STSUOOWKBXSTGTJE50N","emotion","match","uniform","","","","","","","1392.7999999523163","358991.7999999523","360384.59999990463","[""stimuli/BF08_CC.jpg"",""stimuli/BF06_DO.jpg"",""stimuli/WF04_HO.jpg"",""stimuli/WM13_HE.jpg""]","stimuli/BF08_CC.jpg","stimuli/BF06_DO.jpg","stimuli/WF04_HO.jpg","stimuli/WM13_HE.jpg","pos1","stimuli/BF08_CC.jpg","CC","BF08","0","4.5","9","8","stimuli/stars_9.png","211.5","[""CC"",""DO"",""HO"",""HE""]","[""BF08"",""BF06"",""WF04"",""WM13""]","[9,8,2,3]","[8,6,4,2]","","",""
"show-reward","144","361329","0.0-144.0","p85146","A1TPGXT718D68E","3RZS0FBRWLGDTA9TUPH81F59AWHPC0","3RJSC4XJ120STSUOOWKBXSTGTJE50N","emotion","match","uniform","","","","","","","","360885.89999997616","362900.59999990463","","","","","","","","","","","","9","","stimuli/stars_9.png","211.5","","","","","stimuli/BF08_CC.jpg","",""
"explore-choice","145","364702","0.0-145.0","p85146","A1TPGXT718D68E","3RZS0FBRWLGDTA9TUPH81F59AWHPC0","3RJSC4XJ120STSUOOWKBXSTGTJE50N","emotion","match","uniform","","","","","","","2862.5","362901.2999999523","365763.7999999523","[""stimuli/BF06_HE.jpg"",""stimuli/WF04_CC.jpg"",""stimuli/BF08_HO.jpg"",""stimuli/WM13_DO.jpg""]","stimuli/BF06_HE.jpg","stimuli/WF04_CC.jpg","stimuli/BF08_HO.jpg","stimuli/WM13_DO.jpg","pos2","stimuli/WF04_CC.jpg","CC","WF04","1","4","8","8","stimuli/stars_8.png","215.5","[""HE"",""CC"",""HO"",""DO""]","[""BF06"",""WF04"",""BF08"",""WM13""]","[0,8,3,5]","[2,8,4,6]","","",""
"show-reward","146","366719","0.0-146.0","p85146","A1TPGXT718D68E","3RZS0FBRWLGDTA9TUPH81F59AWHPC0","3RJSC4XJ120STSUOOWKBXSTGTJE50N","emotion","match","uniform","","","","","","","","366276","368291.09999990463","","","","","","","","","","","","8","","stimuli/stars_8.png","215.5","","","","","stimuli/WF04_CC.jpg","",""
"explore-choice","147","369192","0.0-147.0","p85146","A1TPGXT718D68E","3RZS0FBRWLGDTA9TUPH81F59AWHPC0","3RJSC4XJ120STSUOOWKBXSTGTJE50N","emotion","match","uniform","","","","","","","1961.2000000476837","368292.6999999285","370253.89999997616","[""stimuli/WM13_HE.jpg"",""stimuli/BF06_DO.jpg"",""stimuli/BF08_HO.jpg"",""stimuli/WF04_CC.jpg""]","stimuli/WM13_HE.jpg","stimuli/BF06_DO.jpg","stimuli/BF08_HO.jpg","stimuli/WF04_CC.jpg","pos4","stimuli/WF04_CC.jpg","CC","WF04","3","3.5","7","8","stimuli/stars_7.png","219","[""HE"",""DO"",""HO"",""CC""]","[""WM13"",""BF06"",""BF08"",""WF04""]","[4,6,2,7]","[2,6,4,8]","","",""
"show-reward","148","371209","0.0-148.0","p85146","A1TPGXT718D68E","3RZS0FBRWLGDTA9TUPH81F59AWHPC0","3RJSC4XJ120STSUOOWKBXSTGTJE50N","emotion","match","uniform","","","","","","","","370764.6999999285","372780.89999997616","","","","","","","","","","","","7","","stimuli/stars_7.png","219","","","","","stimuli/WF04_CC.jpg","",""
"explore-choice","149","373066","0.0-149.0","p85146","A1TPGXT718D68E","3RZS0FBRWLGDTA9TUPH81F59AWHPC0","3RJSC4XJ120STSUOOWKBXSTGTJE50N","emotion","match","uniform","","","","","","","1342","372781.5","374123.5","[""stimuli/WM13_HO.jpg"",""stimuli/WF04_DO.jpg"",""stimuli/BF08_CC.jpg"",""stimuli/BF06_HE.jpg""]","stimuli/WM13_HO.jpg","stimuli/WF04_DO.jpg","stimuli/BF08_CC.jpg","stimuli/BF06_HE.jpg","pos3","stimuli/BF08_CC.jpg","CC","BF08","2","3","6","8","stimuli/stars_6.png","222","[""HO"",""DO"",""CC"",""HE""]","[""WM13"",""WF04"",""BF08"",""BF06""]","[6,8,6,2]","[4,6,8,2]","","",""
"show-reward","150","375089","0.0-150.0","p85146","A1TPGXT718D68E","3RZS0FBRWLGDTA9TUPH81F59AWHPC0","3RJSC4XJ120STSUOOWKBXSTGTJE50N","emotion","match","uniform","","","","","","","","374639.09999990463","376661","","","","","","","","","","","","6","","stimuli/stars_6.png","222","","","","","stimuli/BF08_CC.jpg","",""
"explore-choice","151","376639","0.0-151.0","p85146","A1TPGXT718D68E","3RZS0FBRWLGDTA9TUPH81F59AWHPC0","3RJSC4XJ120STSUOOWKBXSTGTJE50N","emotion","match","uniform","","","","","","","1043.7000000476837","376662.1999999285","377705.89999997616","[""stimuli/BF06_HO.jpg"",""stimuli/WM13_CC.jpg"",""stimuli/WF04_HE.jpg"",""stimuli/BF08_DO.jpg""]","stimuli/BF06_HO.jpg","stimuli/WM13_CC.jpg","stimuli/WF04_HE.jpg","stimuli/BF08_DO.jpg","pos2","stimuli/WM13_CC.jpg","CC","WM13","1","5","10","8","stimuli/stars_10.png","227","[""HO"",""CC"",""HE"",""DO""]","[""BF06"",""WM13"",""WF04"",""BF08""]","[6,10,2,6]","[4,8,2,6]","","",""
"show-reward","152","378660","0.0-152.0","p85146","A1TPGXT718D68E","3RZS0FBRWLGDTA9TUPH81F59AWHPC0","3RJSC4XJ120STSUOOWKBXSTGTJE50N","emotion","match","uniform","","","","","","","","378211.39999997616","380231.5","","","","","","","","","","","","10","","stimuli/stars_10.png","227","","","","","stimuli/WM13_CC.jpg","",""
"explore-choice","153","380736","0.0-153.0","p85146","A1TPGXT718D68E","3RZS0FBRWLGDTA9TUPH81F59AWHPC0","3RJSC4XJ120STSUOOWKBXSTGTJE50N","emotion","match","uniform","","","","","","","1563.2000000476837","380233.09999990463","381796.2999999523","[""stimuli/WM13_DO.jpg"",""stimuli/BF08_HO.jpg"",""stimuli/WF04_CC.jpg"",""stimuli/BF06_HE.jpg""]","stimuli/WM13_DO.jpg","stimuli/BF08_HO.jpg","stimuli/WF04_CC.jpg","stimuli/BF06_HE.jpg","pos3","stimuli/WF04_CC.jpg","CC","WF04","2","4","8","8","stimuli/stars_8.png","231","[""DO"",""HO"",""CC"",""HE""]","[""WM13"",""BF08"",""WF04"",""BF06""]","[5,3,8,0]","[6,4,8,2]","","",""
"show-reward","154","382749","0.0-154.0","p85146","A1TPGXT718D68E","3RZS0FBRWLGDTA9TUPH81F59AWHPC0","3RJSC4XJ120STSUOOWKBXSTGTJE50N","emotion","match","uniform","","","","","","","","382309.6999999285","384321","","","","","","","","","","","","8","","stimuli/stars_8.png","231","","","","","stimuli/WF04_CC.jpg","",""
"explore-choice","155","384445","0.0-155.0","p85146","A1TPGXT718D68E","3RZS0FBRWLGDTA9TUPH81F59AWHPC0","3RJSC4XJ120STSUOOWKBXSTGTJE50N","emotion","match","uniform","","","","","","","1192","384321.5","385513.5","[""stimuli/WF04_CC.jpg"",""stimuli/WM13_HE.jpg"",""stimuli/BF06_HO.jpg"",""stimuli/BF08_DO.jpg""]","stimuli/WF04_CC.jpg","stimuli/WM13_HE.jpg","stimuli/BF06_HO.jpg","stimuli/BF08_DO.jpg","pos1","stimuli/WF04_CC.jpg","CC","WF04","0","4.5","9","8","stimuli/stars_9.png","235.5","[""CC"",""HE"",""HO"",""DO""]","[""WF04"",""WM13"",""BF06"",""BF08""]","[9,4,6,5]","[8,2,4,6]","","",""
"show-reward","156","386451","0.0-156.0","p85146","A1TPGXT718D68E","3RZS0FBRWLGDTA9TUPH81F59AWHPC0","3RJSC4XJ120STSUOOWKBXSTGTJE50N","emotion","match","uniform","","","","","","","","386018.09999990463","388023","","","","","","","","","","","","9","","stimuli/stars_9.png","235.5","","","","","stimuli/WF04_CC.jpg","",""
"explore-choice","157","388619","0.0-157.0","p85146","A1TPGXT718D68E","3RZS0FBRWLGDTA9TUPH81F59AWHPC0","3RJSC4XJ120STSUOOWKBXSTGTJE50N","emotion","match","uniform","","","","","","","1655.8999999761581","388024.1999999285","389680.09999990463","[""stimuli/WM13_HE.jpg"",""stimuli/BF08_HO.jpg"",""stimuli/BF06_CC.jpg"",""stimuli/WF04_DO.jpg""]","stimuli/WM13_HE.jpg","stimuli/BF08_HO.jpg","stimuli/BF06_CC.jpg","stimuli/WF04_DO.jpg","pos2","stimuli/BF08_HO.jpg","HO","BF08","1","3","6","4","stimuli/stars_6.png","238.5","[""HE"",""HO"",""CC"",""DO""]","[""WM13"",""BF08"",""BF06"",""WF04""]","[2,6,6,8]","[2,4,8,6]","","",""
"show-reward","158","390629","0.0-158.0","p85146","A1TPGXT718D68E","3RZS0FBRWLGDTA9TUPH81F59AWHPC0","3RJSC4XJ120STSUOOWKBXSTGTJE50N","emotion","match","uniform","","","","","","","","390191.7999999523","392200.5","","","","","","","","","","","","6","","stimuli/stars_6.png","238.5","","","","","stimuli/BF08_HO.jpg","",""
"explore-choice","159","392590","0.0-159.0","p85146","A1TPGXT718D68E","3RZS0FBRWLGDTA9TUPH81F59AWHPC0","3RJSC4XJ120STSUOOWKBXSTGTJE50N","emotion","match","uniform","","","","","","","1445.8000000715256","392201.09999990463","393646.89999997616","[""stimuli/BF08_HO.jpg"",""stimuli/WM13_CC.jpg"",""stimuli/BF06_HE.jpg"",""stimuli/WF04_DO.jpg""]","stimuli/BF08_HO.jpg","stimuli/WM13_CC.jpg","stimuli/BF06_HE.jpg","stimuli/WF04_DO.jpg","pos2","stimuli/WM13_CC.jpg","CC","WM13","1","3","6","8","stimuli/stars_6.png","241.5","[""HO"",""CC"",""HE"",""DO""]","[""BF08"",""WM13"",""BF06"",""WF04""]","[2,6,3,6]","[4,8,2,6]","","",""
"show-reward","160","394595","0.0-160.0","p85146","A1TPGXT718D68E","3RZS0FBRWLGDTA9TUPH81F59AWHPC0","3RJSC4XJ120STSUOOWKBXSTGTJE50N","emotion","match","uniform","","","","","","","","394162.7999999523","396167.09999990463","","","","","","","","","","","","6","","stimuli/stars_6.png","241.5","","","","","stimuli/WM13_CC.jpg","",""
"explore-choice","161","396766","0.0-161.0","p85146","A1TPGXT718D68E","3RZS0FBRWLGDTA9TUPH81F59AWHPC0","3RJSC4XJ120STSUOOWKBXSTGTJE50N","emotion","match","uniform","","","","","","","1665.5","396167.6999999285","397833.1999999285","[""stimuli/BF08_CC.jpg"",""stimuli/WM13_HE.jpg"",""stimuli/BF06_DO.jpg"",""stimuli/WF04_HO.jpg""]","stimuli/BF08_CC.jpg","stimuli/WM13_HE.jpg","stimuli/BF06_DO.jpg","stimuli/WF04_HO.jpg","pos4","stimuli/WF04_HO.jpg","HO","WF04","3","1","2","4","stimuli/stars_2.png","242.5","[""CC"",""HE"",""DO"",""HO""]","[""BF08"",""WM13"",""BF06"",""WF04""]","[9,3,8,2]","[8,2,6,4]","","",""
"show-reward","162","398769","0.0-162.0","p85146","A1TPGXT718D68E","3RZS0FBRWLGDTA9TUPH81F59AWHPC0","3RJSC4XJ120STSUOOWKBXSTGTJE50N","emotion","match","uniform","","","","","","","","398338.1999999285","400340.89999997616","","","","","","","","","","","","2","","stimuli/stars_2.png","242.5","","","","","stimuli/WF04_HO.jpg","",""
"explore-choice","163","400774","0.0-163.0","p85146","A1TPGXT718D68E","3RZS0FBRWLGDTA9TUPH81F59AWHPC0","3RJSC4XJ120STSUOOWKBXSTGTJE50N","emotion","match","uniform","","","","","","","1498.3999999761581","400341.6999999285","401840.09999990463","[""stimuli/WM13_CC.jpg"",""stimuli/BF08_DO.jpg"",""stimuli/WF04_HO.jpg"",""stimuli/BF06_HE.jpg""]","stimuli/WM13_CC.jpg","stimuli/BF08_DO.jpg","stimuli/WF04_HO.jpg","stimuli/BF06_HE.jpg","pos1","stimuli/WM13_CC.jpg","CC","WM13","0","4.5","9","8","stimuli/stars_9.png","247","[""CC"",""DO"",""HO"",""HE""]","[""WM13"",""BF08"",""WF04"",""BF06""]","[9,5,6,0]","[8,6,4,2]","","",""
"show-reward","164","402787","0.0-164.0","p85146","A1TPGXT718D68E","3RZS0FBRWLGDTA9TUPH81F59AWHPC0","3RJSC4XJ120STSUOOWKBXSTGTJE50N","emotion","match","uniform","","","","","","","","402346.89999997616","404358.59999990463","","","","","","","","","","","","9","","stimuli/stars_9.png","247","","","","","stimuli/WM13_CC.jpg","",""
"explore-choice","165","404899","0.0-165.0","p85146","A1TPGXT718D68E","3RZS0FBRWLGDTA9TUPH81F59AWHPC0","3RJSC4XJ120STSUOOWKBXSTGTJE50N","emotion","match","uniform","","","","","","","1610.5","404359.1999999285","405969.6999999285","[""stimuli/BF06_HO.jpg"",""stimuli/WF04_HE.jpg"",""stimuli/WM13_DO.jpg"",""stimuli/BF08_CC.jpg""]","stimuli/BF06_HO.jpg","stimuli/WF04_HE.jpg","stimuli/WM13_DO.jpg","stimuli/BF08_CC.jpg","pos4","stimuli/BF08_CC.jpg","CC","BF08","3","3","6","8","stimuli/stars_6.png","250","[""HO"",""HE"",""DO"",""CC""]","[""BF06"",""WF04"",""WM13"",""BF08""]","[4,3,8,6]","[4,2,6,8]","","",""
"show-reward","166","406917","0.0-166.0","p85146","A1TPGXT718D68E","3RZS0FBRWLGDTA9TUPH81F59AWHPC0","3RJSC4XJ120STSUOOWKBXSTGTJE50N","emotion","match","uniform","","","","","","","","406472.59999990463","408488.59999990463","","","","","","","","","","","","6","","stimuli/stars_6.png","250","","","","","stimuli/BF08_CC.jpg","",""
"explore-choice","167","409469","0.0-167.0","p85146","A1TPGXT718D68E","3RZS0FBRWLGDTA9TUPH81F59AWHPC0","3RJSC4XJ120STSUOOWKBXSTGTJE50N","emotion","match","uniform","","","","","","","2041.5","408489.5","410531","[""stimuli/WM13_HO.jpg"",""stimuli/WF04_HE.jpg"",""stimuli/BF08_CC.jpg"",""stimuli/BF06_DO.jpg""]","stimuli/WM13_HO.jpg","stimuli/WF04_HE.jpg","stimuli/BF08_CC.jpg","stimuli/BF06_DO.jpg","pos3","stimuli/BF08_CC.jpg","CC","BF08","2","4.5","9","8","stimuli/stars_9.png","254.5","[""HO"",""HE"",""CC"",""DO""]","[""WM13"",""WF04"",""BF08"",""BF06""]","[3,1,9,7]","[4,2,8,6]","","",""
"show-reward","168","411488","0.0-168.0","p85146","A1TPGXT718D68E","3RZS0FBRWLGDTA9TUPH81F59AWHPC0","3RJSC4XJ120STSUOOWKBXSTGTJE50N","emotion","match","uniform","","","","","","","","411042","413059.39999997616","","","","","","","","","","","","9","","stimuli/stars_9.png","254.5","","","","","stimuli/BF08_CC.jpg","",""
"explore-choice","169","414543","0.0-169.0","p85146","A1TPGXT718D68E","3RZS0FBRWLGDTA9TUPH81F59AWHPC0","3RJSC4XJ120STSUOOWKBXSTGTJE50N","emotion","match","uniform","","","","","","","2545.399999976158","413060","415605.39999997616","[""stimuli/BF06_CC.jpg"",""stimuli/WF04_DO.jpg"",""stimuli/BF08_HE.jpg"",""stimuli/WM13_HO.jpg""]","stimuli/BF06_CC.jpg","stimuli/WF04_DO.jpg","stimuli/BF08_HE.jpg","stimuli/WM13_HO.jpg","pos1","stimuli/BF06_CC.jpg","CC","BF06","0","4","8","8","stimuli/stars_8.png","258.5","[""CC"",""DO"",""HE"",""HO""]","[""BF06"",""WF04"",""BF08"",""WM13""]","[8,5,4,3]","[8,6,2,4]","","",""
"show-reward","170","416563","0.0-170.0","p85146","A1TPGXT718D68E","3RZS0FBRWLGDTA9TUPH81F59AWHPC0","3RJSC4XJ120STSUOOWKBXSTGTJE50N","emotion","match","uniform","","","","","","","","416116.59999990463","418134.59999990463","","","","","","","","","","","","8","","stimuli/stars_8.png","258.5","","","","","stimuli/BF06_CC.jpg","",""
"explore-choice","171","418685","0.0-171.0","p85146","A1TPGXT718D68E","3RZS0FBRWLGDTA9TUPH81F59AWHPC0","3RJSC4XJ120STSUOOWKBXSTGTJE50N","emotion","match","uniform","","","","","","","1615.5","418136.39999997616","419751.89999997616","[""stimuli/WF04_CC.jpg"",""stimuli/BF06_HO.jpg"",""stimuli/BF08_HE.jpg"",""stimuli/WM13_DO.jpg""]","stimuli/WF04_CC.jpg","stimuli/BF06_HO.jpg","stimuli/BF08_HE.jpg","stimuli/WM13_DO.jpg","pos1","stimuli/WF04_CC.jpg","CC","WF04","0","5","10","8","stimuli/stars_10.png","263.5","[""CC"",""HO"",""HE"",""DO""]","[""WF04"",""BF06"",""BF08"",""WM13""]","[10,5,0,7]","[8,4,2,6]","","",""
"show-reward","172","420692","0.0-172.0","p85146","A1TPGXT718D68E","3RZS0FBRWLGDTA9TUPH81F59AWHPC0","3RJSC4XJ120STSUOOWKBXSTGTJE50N","emotion","match","uniform","","","","","","","","420258.89999997616","422264.09999990463","","","","","","","","","","","","10","","stimuli/stars_10.png","263.5","","","","","stimuli/WF04_CC.jpg","",""
"explore-choice","173","422539","0.0-173.0","p85146","A1TPGXT718D68E","3RZS0FBRWLGDTA9TUPH81F59AWHPC0","3RJSC4XJ120STSUOOWKBXSTGTJE50N","emotion","match","uniform","","","","","","","1340.3000000715256","422265.59999990463","423605.89999997616","[""stimuli/BF08_CC.jpg"",""stimuli/WF04_DO.jpg"",""stimuli/WM13_HO.jpg"",""stimuli/BF06_HE.jpg""]","stimuli/BF08_CC.jpg","stimuli/WF04_DO.jpg","stimuli/WM13_HO.jpg","stimuli/BF06_HE.jpg","pos1","stimuli/BF08_CC.jpg","CC","BF08","0","3","6","8","stimuli/stars_6.png","266.5","[""CC"",""DO"",""HO"",""HE""]","[""BF08"",""WF04"",""WM13"",""BF06""]","[6,8,6,2]","[8,6,4,2]","","",""
"show-reward","174","424560","0.0-174.0","p85146","A1TPGXT718D68E","3RZS0FBRWLGDTA9TUPH81F59AWHPC0","3RJSC4XJ120STSUOOWKBXSTGTJE50N","emotion","match","uniform","","","","","","","","424113.2999999523","426131.89999997616","","","","","","","","","","","","6","","stimuli/stars_6.png","266.5","","","","","stimuli/BF08_CC.jpg","",""
"explore-choice","175","426950","0.0-175.0","p85146","A1TPGXT718D68E","3RZS0FBRWLGDTA9TUPH81F59AWHPC0","3RJSC4XJ120STSUOOWKBXSTGTJE50N","emotion","match","uniform","","","","","","","1885.6999999284744","426133.5","428019.1999999285","[""stimuli/BF08_HO.jpg"",""stimuli/BF06_DO.jpg"",""stimuli/WM13_CC.jpg"",""stimuli/WF04_HE.jpg""]","stimuli/BF08_HO.jpg","stimuli/BF06_DO.jpg","stimuli/WM13_CC.jpg","stimuli/WF04_HE.jpg","pos3","stimuli/WM13_CC.jpg","CC","WM13","2","4.5","9","8","stimuli/stars_9.png","271","[""HO"",""DO"",""CC"",""HE""]","[""BF08"",""BF06"",""WM13"",""WF04""]","[6,7,9,4]","[4,6,8,2]","","",""
"show-reward","176","428969","0.0-176.0","p85146","A1TPGXT718D68E","3RZS0FBRWLGDTA9TUPH81F59AWHPC0","3RJSC4XJ120STSUOOWKBXSTGTJE50N","emotion","match","uniform","","","","","","","","428522.89999997616","430541","","","","","","","","","","","","9","","stimuli/stars_9.png","271","","","","","stimuli/WM13_CC.jpg","",""
"explore-choice","177","430909","0.0-177.0","p85146","A1TPGXT718D68E","3RZS0FBRWLGDTA9TUPH81F59AWHPC0","3RJSC4XJ120STSUOOWKBXSTGTJE50N","emotion","match","uniform","","","","","","","1430.5999999046326","430542.5","431973.09999990463","[""stimuli/BF06_DO.jpg"",""stimuli/BF08_HE.jpg"",""stimuli/WM13_HO.jpg"",""stimuli/WF04_CC.jpg""]","stimuli/BF06_DO.jpg","stimuli/BF08_HE.jpg","stimuli/WM13_HO.jpg","stimuli/WF04_CC.jpg","pos4","stimuli/WF04_CC.jpg","CC","WF04","3","5","10","8","stimuli/stars_10.png","276","[""DO"",""HE"",""HO"",""CC""]","[""BF06"",""BF08"",""WM13"",""WF04""]","[8,4,5,10]","[6,2,4,8]","","",""
"show-reward","178","432919","0.0-178.0","p85146","A1TPGXT718D68E","3RZS0FBRWLGDTA9TUPH81F59AWHPC0","3RJSC4XJ120STSUOOWKBXSTGTJE50N","emotion","match","uniform","","","","","","","","432481.89999997616","434491.09999990463","","","","","","","","","","","","10","","stimuli/stars_10.png","276","","","","","stimuli/WF04_CC.jpg","",""
"explore-choice","179","435094","0.0-179.0","p85146","A1TPGXT718D68E","3RZS0FBRWLGDTA9TUPH81F59AWHPC0","3RJSC4XJ120STSUOOWKBXSTGTJE50N","emotion","match","uniform","","","","","","","1671.5","434492.6999999285","436164.1999999285","[""stimuli/WM13_HE.jpg"",""stimuli/BF06_HO.jpg"",""stimuli/BF08_CC.jpg"",""stimuli/WF04_DO.jpg""]","stimuli/WM13_HE.jpg","stimuli/BF06_HO.jpg","stimuli/BF08_CC.jpg","stimuli/WF04_DO.jpg","pos3","stimuli/BF08_CC.jpg","CC","BF08","2","4","8","8","stimuli/stars_8.png","280","[""HE"",""HO"",""CC"",""DO""]","[""WM13"",""BF06"",""BF08"",""WF04""]","[1,6,8,6]","[2,4,8,6]","","",""
"show-reward","180","437112","0.0-180.0","p85146","A1TPGXT718D68E","3RZS0FBRWLGDTA9TUPH81F59AWHPC0","3RJSC4XJ120STSUOOWKBXSTGTJE50N","emotion","match","uniform","","","","","","","","436667.7999999523","438684.39999997616","","","","","","","","","","","","8","","stimuli/stars_8.png","280","","","","","stimuli/BF08_CC.jpg","",""
"explore-choice","181","439379","0.0-181.0","p85146","A1TPGXT718D68E","3RZS0FBRWLGDTA9TUPH81F59AWHPC0","3RJSC4XJ120STSUOOWKBXSTGTJE50N","emotion","match","uniform","","","","","","","1751.2999999523163","438685","440436.2999999523","[""stimuli/WF04_DO.jpg"",""stimuli/WM13_CC.jpg"",""stimuli/BF06_HO.jpg"",""stimuli/BF08_HE.jpg""]","stimuli/WF04_DO.jpg","stimuli/WM13_CC.jpg","stimuli/BF06_HO.jpg","stimuli/BF08_HE.jpg","pos2","stimuli/WM13_CC.jpg","CC","WM13","1","5","10","8","stimuli/stars_10.png","285","[""DO"",""CC"",""HO"",""HE""]","[""WF04"",""WM13"",""BF06"",""BF08""]","[8,10,6,4]","[6,8,4,2]","","",""
"show-reward","182","441388","0.0-182.0","p85146","A1TPGXT718D68E","3RZS0FBRWLGDTA9TUPH81F59AWHPC0","3RJSC4XJ120STSUOOWKBXSTGTJE50N","emotion","match","uniform","","","","","","","","440951.5","442960.09999990463","","","","","","","","","","","","10","","stimuli/stars_10.png","285","","","","","stimuli/WM13_CC.jpg","",""
"explore-choice","183","443409","0.0-183.0","p85146","A1TPGXT718D68E","3RZS0FBRWLGDTA9TUPH81F59AWHPC0","3RJSC4XJ120STSUOOWKBXSTGTJE50N","emotion","match","uniform","","","","","","","1516.3000000715256","442960.6999999285","444477","[""stimuli/WF04_HO.jpg"",""stimuli/BF06_DO.jpg"",""stimuli/WM13_CC.jpg"",""stimuli/BF08_HE.jpg""]","stimuli/WF04_HO.jpg","stimuli/BF06_DO.jpg","stimuli/WM13_CC.jpg","stimuli/BF08_HE.jpg","pos3","stimuli/WM13_CC.jpg","CC","WM13","2","4","8","8","stimuli/stars_8.png","289","[""HO"",""DO"",""CC"",""HE""]","[""WF04"",""BF06"",""WM13"",""BF08""]","[2,6,8,2]","[4,6,8,2]","","",""
"show-reward","184","445420","0.0-184.0","p85146","A1TPGXT718D68E","3RZS0FBRWLGDTA9TUPH81F59AWHPC0","3RJSC4XJ120STSUOOWKBXSTGTJE50N","emotion","match","uniform","","","","","","","","444982.1999999285","446992.7999999523","","","","","","","","","","","","8","","stimuli/stars_8.png","289","","","","","stimuli/WM13_CC.jpg","",""
"explore-choice","185","446974","0.0-185.0","p85146","A1TPGXT718D68E","3RZS0FBRWLGDTA9TUPH81F59AWHPC0","3RJSC4XJ120STSUOOWKBXSTGTJE50N","emotion","match","uniform","","","","","","","1043.8999999761581","446993.1999999285","448037.09999990463","[""stimuli/BF06_CC.jpg"",""stimuli/WM13_HE.jpg"",""stimuli/WF04_HO.jpg"",""stimuli/BF08_DO.jpg""]","stimuli/BF06_CC.jpg","stimuli/WM13_HE.jpg","stimuli/WF04_HO.jpg","stimuli/BF08_DO.jpg","pos1","stimuli/BF06_CC.jpg","CC","BF06","0","5","10","8","stimuli/stars_10.png","294","[""CC"",""HE"",""HO"",""DO""]","[""BF06"",""WM13"",""WF04"",""BF08""]","[10,4,4,4]","[8,2,4,6]","","",""
"show-reward","186","448989","0.0-186.0","p85146","A1TPGXT718D68E","3RZS0FBRWLGDTA9TUPH81F59AWHPC0","3RJSC4XJ120STSUOOWKBXSTGTJE50N","emotion","match","uniform","","","","","","","","448548.2999999523","450561","","","","","","","","","","","","10","","stimuli/stars_10.png","294","","","","","stimuli/BF06_CC.jpg","",""
"explore-choice","187","451085","0.0-187.0","p85146","A1TPGXT718D68E","3RZS0FBRWLGDTA9TUPH81F59AWHPC0","3RJSC4XJ120STSUOOWKBXSTGTJE50N","emotion","match","uniform","","","","","","","1592.3999999761581","450562.6999999285","452155.09999990463","[""stimuli/BF06_HE.jpg"",""stimuli/WF04_CC.jpg"",""stimuli/WM13_HO.jpg"",""stimuli/BF08_DO.jpg""]","stimuli/BF06_HE.jpg","stimuli/WF04_CC.jpg","stimuli/WM13_HO.jpg","stimuli/BF08_DO.jpg","pos2","stimuli/WF04_CC.jpg","CC","WF04","1","3.5","7","8","stimuli/stars_7.png","297.5","[""HE"",""CC"",""HO"",""DO""]","[""BF06"",""WF04"",""WM13"",""BF08""]","[4,7,4,8]","[2,8,4,6]","","",""
"show-reward","188","453096","0.0-188.0","p85146","A1TPGXT718D68E","3RZS0FBRWLGDTA9TUPH81F59AWHPC0","3RJSC4XJ120STSUOOWKBXSTGTJE50N","emotion","match","uniform","","","","","","","","452658","454668.2999999523","","","","","","","","","","","","7","","stimuli/stars_7.png","297.5","","","","","stimuli/WF04_CC.jpg","",""
"explore-choice","189","455957","0.0-189.0","p85146","A1TPGXT718D68E","3RZS0FBRWLGDTA9TUPH81F59AWHPC0","3RJSC4XJ120STSUOOWKBXSTGTJE50N","emotion","match","uniform","","","","","","","2350.6999999284744","454670","457020.6999999285","[""stimuli/BF06_DO.jpg"",""stimuli/BF08_HO.jpg"",""stimuli/WM13_HE.jpg"",""stimuli/WF04_CC.jpg""]","stimuli/BF06_DO.jpg","stimuli/BF08_HO.jpg","stimuli/WM13_HE.jpg","stimuli/WF04_CC.jpg","pos4","stimuli/WF04_CC.jpg","CC","WF04","3","3.5","7","8","stimuli/stars_7.png","301","[""DO"",""HO"",""HE"",""CC""]","[""BF06"",""BF08"",""WM13"",""WF04""]","[6,2,4,7]","[6,4,2,8]","","",""
"show-reward","190","457972","0.0-190.0","p85146","A1TPGXT718D68E","3RZS0FBRWLGDTA9TUPH81F59AWHPC0","3RJSC4XJ120STSUOOWKBXSTGTJE50N","emotion","match","uniform","","","","","","","","457530.59999990463","459544.1999999285","","","","","","","","","","","","7","","stimuli/stars_7.png","301","","","","","stimuli/WF04_CC.jpg","",""
"explore-choice","191","460540","0.0-191.0","p85146","A1TPGXT718D68E","3RZS0FBRWLGDTA9TUPH81F59AWHPC0","3RJSC4XJ120STSUOOWKBXSTGTJE50N","emotion","match","uniform","","","","","","","2064.100000023842","459545.2999999523","461609.39999997616","[""stimuli/BF08_DO.jpg"",""stimuli/WM13_HO.jpg"",""stimuli/BF06_CC.jpg"",""stimuli/WF04_HE.jpg""]","stimuli/BF08_DO.jpg","stimuli/WM13_HO.jpg","stimuli/BF06_CC.jpg","stimuli/WF04_HE.jpg","pos3","stimuli/BF06_CC.jpg","CC","BF06","2","3","6","8","stimuli/stars_6.png","304","[""DO"",""HO"",""CC"",""HE""]","[""BF08"",""WM13"",""BF06"",""WF04""]","[4,4,6,3]","[6,4,8,2]","","",""
"show-reward","192","462549","0.0-192.0","p85146","A1TPGXT718D68E","3RZS0FBRWLGDTA9TUPH81F59AWHPC0","3RJSC4XJ120STSUOOWKBXSTGTJE50N","emotion","match","uniform","","","","","","","","462114","464120.7999999523","","","","","","","","","","","","6","","stimuli/stars_6.png","304","","","","","stimuli/BF06_CC.jpg","",""
"explore-choice","193","464603","0.0-193.0","p85146","A1TPGXT718D68E","3RZS0FBRWLGDTA9TUPH81F59AWHPC0","3RJSC4XJ120STSUOOWKBXSTGTJE50N","emotion","match","uniform","","","","","","","1551.3999999761581","464121.5","465672.89999997616","[""stimuli/BF06_HE.jpg"",""stimuli/WF04_HO.jpg"",""stimuli/BF08_CC.jpg"",""stimuli/WM13_DO.jpg""]","stimuli/BF06_HE.jpg","stimuli/WF04_HO.jpg","stimuli/BF08_CC.jpg","stimuli/WM13_DO.jpg","pos3","stimuli/BF08_CC.jpg","CC","BF08","2","4","8","8","stimuli/stars_8.png","308","[""HE"",""HO"",""CC"",""DO""]","[""BF06"",""WF04"",""BF08"",""WM13""]","[4,3,8,8]","[2,4,8,6]","","",""
"show-reward","194","466618","0.0-194.0","p85146","A1TPGXT718D68E","3RZS0FBRWLGDTA9TUPH81F59AWHPC0","3RJSC4XJ120STSUOOWKBXSTGTJE50N","emotion","match","uniform","","","","","","","","466176","468190.5","","","","","","","","","","","","8","","stimuli/stars_8.png","308","","","","","stimuli/BF08_CC.jpg","",""
"explore-choice","195","468770","0.0-195.0","p85146","A1TPGXT718D68E","3RZS0FBRWLGDTA9TUPH81F59AWHPC0","3RJSC4XJ120STSUOOWKBXSTGTJE50N","emotion","match","uniform","","","","","","","1637.1000000238419","468191.09999990463","469828.1999999285","[""stimuli/WM13_DO.jpg"",""stimuli/WF04_HE.jpg"",""stimuli/BF08_HO.jpg"",""stimuli/BF06_CC.jpg""]","stimuli/WM13_DO.jpg","stimuli/WF04_HE.jpg","stimuli/BF08_HO.jpg","stimuli/BF06_CC.jpg","pos4","stimuli/BF06_CC.jpg","CC","BF06","3","3","6","8","stimuli/stars_6.png","311","[""DO"",""HE"",""HO"",""CC""]","[""WM13"",""WF04"",""BF08"",""BF06""]","[6,0,3,6]","[6,2,4,8]","","",""
"show-reward","196","470779","0.0-196.0","p85146","A1TPGXT718D68E","3RZS0FBRWLGDTA9TUPH81F59AWHPC0","3RJSC4XJ120STSUOOWKBXSTGTJE50N","emotion","match","uniform","","","","","","","","470343.39999997616","472351.5","","","","","","","","","","","","6","","stimuli/stars_6.png","311","","","","","stimuli/BF06_CC.jpg","",""
"explore-choice","197","472545","0.0-197.0","p85146","A1TPGXT718D68E","3RZS0FBRWLGDTA9TUPH81F59AWHPC0","3RJSC4XJ120STSUOOWKBXSTGTJE50N","emotion","match","uniform","","","","","","","1263.3999999761581","472353.1999999285","473616.59999990463","[""stimuli/WM13_DO.jpg"",""stimuli/BF06_CC.jpg"",""stimuli/WF04_HO.jpg"",""stimuli/BF08_HE.jpg""]","stimuli/WM13_DO.jpg","stimuli/BF06_CC.jpg","stimuli/WF04_HO.jpg","stimuli/BF08_HE.jpg","pos2","stimuli/BF06_CC.jpg","CC","BF06","1","3.5","7","8","stimuli/stars_7.png","314.5","[""DO"",""CC"",""HO"",""HE""]","[""WM13"",""BF06"",""WF04"",""BF08""]","[8,7,3,2]","[6,8,4,2]","","",""
"show-reward","198","474569","0.0-198.0","p85146","A1TPGXT718D68E","3RZS0FBRWLGDTA9TUPH81F59AWHPC0","3RJSC4XJ120STSUOOWKBXSTGTJE50N","emotion","match","uniform","","","","","","","","474119.39999997616","476141.1999999285","","","","","","","","","","","","7","","stimuli/stars_7.png","314.5","","","","","stimuli/BF06_CC.jpg","",""
"instructions","199","477844","0.0-199.0","p85146","A1TPGXT718D68E","3RZS0FBRWLGDTA9TUPH81F59AWHPC0","3RJSC4XJ120STSUOOWKBXSTGTJE50N","emotion","match","uniform","","","","","","[{""page_index"":0,""viewing_time"":3270.600000023842}]","3272.5","","","","","","","","","","","","","","","","","","","","","","","",""
"survey-text","200","480741","0.0-200.0-0.0","p85146","A1TPGXT718D68E","3RZS0FBRWLGDTA9TUPH81F59AWHPC0","3RJSC4XJ120STSUOOWKBXSTGTJE50N","emotion","match","uniform","","","","","","","2887.8000000715256","","","","","","","","","","","","","","","","","","","","","","","{""age"":""43""}",""
"survey-text","201","486542","0.0-200.0-1.0","p85146","A1TPGXT718D68E","3RZS0FBRWLGDTA9TUPH81F59AWHPC0","3RJSC4XJ120STSUOOWKBXSTGTJE50N","emotion","match","uniform","","","","","","","5799.200000047684","","","","","","","","","","","","","","","","","","","","","","","{""gender"":""female""}",""
"survey-text","202","489789","0.0-200.0-2.0","p85146","A1TPGXT718D68E","3RZS0FBRWLGDTA9TUPH81F59AWHPC0","3RJSC4XJ120STSUOOWKBXSTGTJE50N","emotion","match","uniform","","","","","","","3244.6999999284744","","","","","","","","","","","","","","","","","","","","","","","{""country"":""USA""}",""
"survey-text","203","496615","0.0-200.0-3.0","p85146","A1TPGXT718D68E","3RZS0FBRWLGDTA9TUPH81F59AWHPC0","3RJSC4XJ120STSUOOWKBXSTGTJE50N","emotion","match","uniform","","","","","","","6820.900000095367","","","","","","","","","","","","","","","","","","","","","","","{""language"":""English"",""other_languages"":""n/a""}",""
"survey-multi-select","204","498554","0.0-201.0","p85146","A1TPGXT718D68E","3RZS0FBRWLGDTA9TUPH81F59AWHPC0","3RJSC4XJ120STSUOOWKBXSTGTJE50N","emotion","match","uniform","","","","","","","1935.8000000715256","","","","","","","","","","","","","","","","","","","","","","","{""race"":[""White""]}","[0]"
"survey-multi-choice","205","501124","0.0-202.0","p85146","A1TPGXT718D68E","3RZS0FBRWLGDTA9TUPH81F59AWHPC0","3RJSC4XJ120STSUOOWKBXSTGTJE50N","emotion","match","uniform","","","","","","","2566.3000000715256","","","","","","","","","","","","","","","","","","","","","","","{""education"":""Bachelor's degree""}","[0]"
"survey-text","206","529865","0.0-203.0","p85146","A1TPGXT718D68E","3RZS0FBRWLGDTA9TUPH81F59AWHPC0","3RJSC4XJ120STSUOOWKBXSTGTJE50N","emotion","match","uniform","","","","","","","28737","","","","","","","","","","","","","","","","","","","","","","","{""patterns"":""I tried to pick the most neutral expressions."",""strategy"":""I tried to pick the most neutral expressions."",""comments"":""no""}",""
