"trial_type","trial_index","time_elapsed","internal_node_id","subject","workerId","hitId","assignmentId","structure_condition","match_condition","noise_type","success","timeout","failed_images","failed_audio","failed_video","view_history","rt","start_time","end_time","stimuli","image1","image2","image3","image4","choiceLocation","choiceImage","choiceEmotion","choiceModel","choice_index","reward_score","reward","reward_score_unadjusted","reward_image","score_after_trial","emotions","models","rewards","rewards_unadjusted","stimulus","response","question_order"
"pavlovia","0","7","0.0-0.0","p915359","A11FRLH5KWRLBV","3WRBLBQ2GSENM5LEFQY1C5PG0GV0GC","3IRIK4HM3CQ86OPI5VN0KZ9HY2I6CR","emotion","mismatch","uniform","","","","","","","","","","","","","","","","","","","","","","","","","","","","","","",""
"preload","1","20992","0.0-1.0","p915359","A11FRLH5KWRLBV","3WRBLBQ2GSENM5LEFQY1C5PG0GV0GC","3IRIK4HM3CQ86OPI5VN0KZ9HY2I6CR","emotion","mismatch","uniform","true","false","[]","[]","[]","","","","","","","","","","","","","","","","","","","","","","","","","",""
"fullscreen","2","30621","0.0-2.0","p915359","A11FRLH5KWRLBV","3WRBLBQ2GSENM5LEFQY1C5PG0GV0GC","3IRIK4HM3CQ86OPI5VN0KZ9HY2I6CR","emotion","mismatch","uniform","true","","","","","","","","","","","","","","","","","","","","","","","","","","","","","",""
"instructions","3","35004","0.0-3.0","p915359","A11FRLH5KWRLBV","3WRBLBQ2GSENM5LEFQY1C5PG0GV0GC","3IRIK4HM3CQ86OPI5VN0KZ9HY2I6CR","emotion","mismatch","uniform","","","","","","[{""page_index"":0,""viewing_time"":4382.299999998882}]","4382.799999998882","","","","","","","","","","","","","","","","","","","","","","","",""
"explore-choice","4","37681","0.0-4.0","p915359","A11FRLH5KWRLBV","3WRBLBQ2GSENM5LEFQY1C5PG0GV0GC","3IRIK4HM3CQ86OPI5VN0KZ9HY2I6CR","emotion","mismatch","uniform","","","","","","","2175.300000000745","37902.29999999888","40077.59999999963","[""stimuli/sheep.jpg"",""stimuli/hammer.jpg"",""stimuli/basketball.jpg"",""stimuli/horse.jpg""]","stimuli/sheep.jpg","stimuli/hammer.jpg","stimuli/basketball.jpg","stimuli/horse.jpg","pos4","stimuli/horse.jpg","","","3","64","64","64","stimuli/stars_8.png","65","","","","","","",""
"explore-choice","5","39200","0.0-5.0","p915359","A11FRLH5KWRLBV","3WRBLBQ2GSENM5LEFQY1C5PG0GV0GC","3IRIK4HM3CQ86OPI5VN0KZ9HY2I6CR","emotion","mismatch","uniform","","","","","","","1017.8000000007451","40579.29999999888","41597.09999999963","[""stimuli/hammer.jpg"",""stimuli/basketball.jpg"",""stimuli/horse.jpg"",""stimuli/sheep.jpg""]","stimuli/hammer.jpg","stimuli/basketball.jpg","stimuli/horse.jpg","stimuli/sheep.jpg","pos1","stimuli/hammer.jpg","","","0","8","8","8","stimuli/stars_2.png","9","","","","","","",""
"instructions","6","44747","0.0-6.0","p915359","A11FRLH5KWRLBV","3WRBLBQ2GSENM5LEFQY1C5PG0GV0GC","3IRIK4HM3CQ86OPI5VN0KZ9HY2I6CR","emotion","mismatch","uniform","","","","","","[{""page_index"":0,""viewing_time"":5546.5999999996275}]","5546.799999998882","","","","","","","","","","","","","","","","","","","","","","","",""
"explore-choice","7","49787","0.0-7.0","p915359","A11FRLH5KWRLBV","3WRBLBQ2GSENM5LEFQY1C5PG0GV0GC","3IRIK4HM3CQ86OPI5VN0KZ9HY2I6CR","emotion","mismatch","uniform","","","","","","","4538.199999999255","47645.90000000037","52184.09999999963","[""stimuli/WM13_CC.jpg"",""stimuli/BM04_SUR.jpg"",""stimuli/HF04_HE.jpg"",""stimuli/AF10_AO.jpg""]","stimuli/WM13_CC.jpg","stimuli/BM04_SUR.jpg","stimuli/HF04_HE.jpg","stimuli/AF10_AO.jpg","pos2","stimuli/BM04_SUR.jpg","SUR","BM04","1","2.5","5","6","stimuli/stars_5.png","3.5","[""CC"",""SUR"",""HE"",""AO""]","[""WM13"",""BM04"",""HF04"",""AF10""]","[6,5,9,1]","[4,6,8,2]","","",""
"show-reward","8","51789","0.0-8.0","p915359","A11FRLH5KWRLBV","3WRBLBQ2GSENM5LEFQY1C5PG0GV0GC","3IRIK4HM3CQ86OPI5VN0KZ9HY2I6CR","emotion","mismatch","uniform","","","","","","","","52685.59999999963","54686.90000000037","","","","","","","","","","","","5","","stimuli/stars_5.png","3.5","","","","","stimuli/BM04_SUR.jpg","",""
"explore-choice","9","54871","0.0-9.0","p915359","A11FRLH5KWRLBV","3WRBLBQ2GSENM5LEFQY1C5PG0GV0GC","3IRIK4HM3CQ86OPI5VN0KZ9HY2I6CR","emotion","mismatch","uniform","","","","","","","2581","54687.40000000037","57268.40000000037","[""stimuli/BM04_AO.jpg"",""stimuli/HF04_HE.jpg"",""stimuli/AF10_SUR.jpg"",""stimuli/WM13_CC.jpg""]","stimuli/BM04_AO.jpg","stimuli/HF04_HE.jpg","stimuli/AF10_SUR.jpg","stimuli/WM13_CC.jpg","pos2","stimuli/HF04_HE.jpg","HE","HF04","1","5","10","8","stimuli/stars_10.png","8.5","[""AO"",""HE"",""SUR"",""CC""]","[""BM04"",""HF04"",""AF10"",""WM13""]","[1,10,7,6]","[2,8,6,4]","","",""
"show-reward","10","56873","0.0-10.0","p915359","A11FRLH5KWRLBV","3WRBLBQ2GSENM5LEFQY1C5PG0GV0GC","3IRIK4HM3CQ86OPI5VN0KZ9HY2I6CR","emotion","mismatch","uniform","","","","","","","","57769.5","59770.5","","","","","","","","","","","","10","","stimuli/stars_10.png","8.5","","","","","stimuli/HF04_HE.jpg","",""
"explore-choice","11","59551","0.0-11.0","p915359","A11FRLH5KWRLBV","3WRBLBQ2GSENM5LEFQY1C5PG0GV0GC","3IRIK4HM3CQ86OPI5VN0KZ9HY2I6CR","emotion","mismatch","uniform","","","","","","","2177.199999999255","59770.90000000037","61948.09999999963","[""stimuli/BM04_SUR.jpg"",""stimuli/HF04_AO.jpg"",""stimuli/AF10_CC.jpg"",""stimuli/WM13_HE.jpg""]","stimuli/BM04_SUR.jpg","stimuli/HF04_AO.jpg","stimuli/AF10_CC.jpg","stimuli/WM13_HE.jpg","pos4","stimuli/WM13_HE.jpg","HE","WM13","3","4.5","9","8","stimuli/stars_9.png","13","[""SUR"",""AO"",""CC"",""HE""]","[""BM04"",""HF04"",""AF10"",""WM13""]","[5,3,3,9]","[6,2,4,8]","","",""
"show-reward","12","61553","0.0-12.0","p915359","A11FRLH5KWRLBV","3WRBLBQ2GSENM5LEFQY1C5PG0GV0GC","3IRIK4HM3CQ86OPI5VN0KZ9HY2I6CR","emotion","mismatch","uniform","","","","","","","","62449.40000000037","64451","","","","","","","","","","","","9","","stimuli/stars_9.png","13","","","","","stimuli/WM13_HE.jpg","",""
"explore-choice","13","63076","0.0-13.0","p915359","A11FRLH5KWRLBV","3WRBLBQ2GSENM5LEFQY1C5PG0GV0GC","3IRIK4HM3CQ86OPI5VN0KZ9HY2I6CR","emotion","mismatch","uniform","","","","","","","1016.6999999992549","64451.40000000037","65468.09999999963","[""stimuli/WM13_AO.jpg"",""stimuli/HF04_SUR.jpg"",""stimuli/BM04_HE.jpg"",""stimuli/AF10_CC.jpg""]","stimuli/WM13_AO.jpg","stimuli/HF04_SUR.jpg","stimuli/BM04_HE.jpg","stimuli/AF10_CC.jpg","pos3","stimuli/BM04_HE.jpg","HE","BM04","2","5","10","8","stimuli/stars_10.png","18","[""AO"",""SUR"",""HE"",""CC""]","[""WM13"",""HF04"",""BM04"",""AF10""]","[4,4,10,6]","[2,6,8,4]","","",""
"show-reward","14","65078","0.0-14.0","p915359","A11FRLH5KWRLBV","3WRBLBQ2GSENM5LEFQY1C5PG0GV0GC","3IRIK4HM3CQ86OPI5VN0KZ9HY2I6CR","emotion","mismatch","uniform","","","","","","","","65974","67975.59999999963","","","","","","","","","","","","10","","stimuli/stars_10.png","18","","","","","stimuli/BM04_HE.jpg","",""
"explore-choice","15","66917","0.0-15.0","p915359","A11FRLH5KWRLBV","3WRBLBQ2GSENM5LEFQY1C5PG0GV0GC","3IRIK4HM3CQ86OPI5VN0KZ9HY2I6CR","emotion","mismatch","uniform","","","","","","","1323.7999999988824","67976","69299.79999999888","[""stimuli/WM13_HE.jpg"",""stimuli/BM04_CC.jpg"",""stimuli/HF04_AO.jpg"",""stimuli/AF10_SUR.jpg""]","stimuli/WM13_HE.jpg","stimuli/BM04_CC.jpg","stimuli/HF04_AO.jpg","stimuli/AF10_SUR.jpg","pos1","stimuli/WM13_HE.jpg","HE","WM13","0","4.5","9","8","stimuli/stars_9.png","22.5","[""HE"",""CC"",""AO"",""SUR""]","[""WM13"",""BM04"",""HF04"",""AF10""]","[9,3,4,7]","[8,4,2,6]","","",""
"show-reward","16","68933","0.0-16.0","p915359","A11FRLH5KWRLBV","3WRBLBQ2GSENM5LEFQY1C5PG0GV0GC","3IRIK4HM3CQ86OPI5VN0KZ9HY2I6CR","emotion","mismatch","uniform","","","","","","","","69815.29999999888","71830.40000000037","","","","","","","","","","","","9","","stimuli/stars_9.png","22.5","","","","","stimuli/WM13_HE.jpg","",""
"explore-choice","17","70711","0.0-17.0","p915359","A11FRLH5KWRLBV","3WRBLBQ2GSENM5LEFQY1C5PG0GV0GC","3IRIK4HM3CQ86OPI5VN0KZ9HY2I6CR","emotion","mismatch","uniform","","","","","","","1276.699999999255","71831","73107.69999999925","[""stimuli/HF04_HE.jpg"",""stimuli/WM13_AO.jpg"",""stimuli/AF10_CC.jpg"",""stimuli/BM04_SUR.jpg""]","stimuli/HF04_HE.jpg","stimuli/WM13_AO.jpg","stimuli/AF10_CC.jpg","stimuli/BM04_SUR.jpg","pos4","stimuli/BM04_SUR.jpg","SUR","BM04","3","2","4","6","stimuli/stars_4.png","24.5","[""HE"",""AO"",""CC"",""SUR""]","[""HF04"",""WM13"",""AF10"",""BM04""]","[8,3,6,4]","[8,2,4,6]","","",""
"show-reward","18","72714","0.0-18.0","p915359","A11FRLH5KWRLBV","3WRBLBQ2GSENM5LEFQY1C5PG0GV0GC","3IRIK4HM3CQ86OPI5VN0KZ9HY2I6CR","emotion","mismatch","uniform","","","","","","","","73609","75611.29999999888","","","","","","","","","","","","4","","stimuli/stars_4.png","24.5","","","","","stimuli/BM04_SUR.jpg","",""
"explore-choice","19","75151","0.0-19.0","p915359","A11FRLH5KWRLBV","3WRBLBQ2GSENM5LEFQY1C5PG0GV0GC","3IRIK4HM3CQ86OPI5VN0KZ9HY2I6CR","emotion","mismatch","uniform","","","","","","","1935.6000000014901","75611.79999999888","77547.40000000037","[""stimuli/BM04_AO.jpg"",""stimuli/WM13_CC.jpg"",""stimuli/AF10_HE.jpg"",""stimuli/HF04_SUR.jpg""]","stimuli/BM04_AO.jpg","stimuli/WM13_CC.jpg","stimuli/AF10_HE.jpg","stimuli/HF04_SUR.jpg","pos1","stimuli/BM04_AO.jpg","AO","BM04","0","1.5","3","2","stimuli/stars_3.png","26","[""AO"",""CC"",""HE"",""SUR""]","[""BM04"",""WM13"",""AF10"",""HF04""]","[3,6,9,7]","[2,4,8,6]","","",""
"show-reward","20","77152","0.0-20.0","p915359","A11FRLH5KWRLBV","3WRBLBQ2GSENM5LEFQY1C5PG0GV0GC","3IRIK4HM3CQ86OPI5VN0KZ9HY2I6CR","emotion","mismatch","uniform","","","","","","","","78048.79999999888","80049.90000000037","","","","","","","","","","","","3","","stimuli/stars_3.png","26","","","","","stimuli/BM04_AO.jpg","",""
"explore-choice","21","78782","0.0-21.0","p915359","A11FRLH5KWRLBV","3WRBLBQ2GSENM5LEFQY1C5PG0GV0GC","3IRIK4HM3CQ86OPI5VN0KZ9HY2I6CR","emotion","mismatch","uniform","","","","","","","1121","80050.29999999888","81171.29999999888","[""stimuli/AF10_AO.jpg"",""stimuli/WM13_HE.jpg"",""stimuli/HF04_SUR.jpg"",""stimuli/BM04_CC.jpg""]","stimuli/AF10_AO.jpg","stimuli/WM13_HE.jpg","stimuli/HF04_SUR.jpg","stimuli/BM04_CC.jpg","pos2","stimuli/WM13_HE.jpg","HE","WM13","1","4.5","9","8","stimuli/stars_9.png","30.5","[""AO"",""HE"",""SUR"",""CC""]","[""AF10"",""WM13"",""HF04"",""BM04""]","[4,9,4,2]","[2,8,6,4]","","",""
"show-reward","22","80792","0.0-22.0","p915359","A11FRLH5KWRLBV","3WRBLBQ2GSENM5LEFQY1C5PG0GV0GC","3IRIK4HM3CQ86OPI5VN0KZ9HY2I6CR","emotion","mismatch","uniform","","","","","","","","81679.90000000037","83689.79999999888","","","","","","","","","","","","9","","stimuli/stars_9.png","30.5","","","","","stimuli/WM13_HE.jpg","",""
"explore-choice","23","82766","0.0-23.0","p915359","A11FRLH5KWRLBV","3WRBLBQ2GSENM5LEFQY1C5PG0GV0GC","3IRIK4HM3CQ86OPI5VN0KZ9HY2I6CR","emotion","mismatch","uniform","","","","","","","1456.7999999988824","83690.40000000037","85147.19999999925","[""stimuli/AF10_AO.jpg"",""stimuli/BM04_CC.jpg"",""stimuli/WM13_SUR.jpg"",""stimuli/HF04_HE.jpg""]","stimuli/AF10_AO.jpg","stimuli/BM04_CC.jpg","stimuli/WM13_SUR.jpg","stimuli/HF04_HE.jpg","pos4","stimuli/HF04_HE.jpg","HE","HF04","3","3","6","8","stimuli/stars_6.png","33.5","[""AO"",""CC"",""SUR"",""HE""]","[""AF10"",""BM04"",""WM13"",""HF04""]","[3,2,5,6]","[2,4,6,8]","","",""
"show-reward","24","84775","0.0-24.0","p915359","A11FRLH5KWRLBV","3WRBLBQ2GSENM5LEFQY1C5PG0GV0GC","3IRIK4HM3CQ86OPI5VN0KZ9HY2I6CR","emotion","mismatch","uniform","","","","","","","","85664","87673","","","","","","","","","","","","6","","stimuli/stars_6.png","33.5","","","","","stimuli/HF04_HE.jpg","",""
"explore-choice","25","86152","0.0-25.0","p915359","A11FRLH5KWRLBV","3WRBLBQ2GSENM5LEFQY1C5PG0GV0GC","3IRIK4HM3CQ86OPI5VN0KZ9HY2I6CR","emotion","mismatch","uniform","","","","","","","873.4000000003725","87673.5","88546.90000000037","[""stimuli/WM13_CC.jpg"",""stimuli/HF04_SUR.jpg"",""stimuli/BM04_HE.jpg"",""stimuli/AF10_AO.jpg""]","stimuli/WM13_CC.jpg","stimuli/HF04_SUR.jpg","stimuli/BM04_HE.jpg","stimuli/AF10_AO.jpg","pos2","stimuli/HF04_SUR.jpg","SUR","HF04","1","2","4","6","stimuli/stars_4.png","35.5","[""CC"",""SUR"",""HE"",""AO""]","[""WM13"",""HF04"",""BM04"",""AF10""]","[4,4,10,0]","[4,6,8,2]","","",""
"show-reward","26","88169","0.0-26.0","p915359","A11FRLH5KWRLBV","3WRBLBQ2GSENM5LEFQY1C5PG0GV0GC","3IRIK4HM3CQ86OPI5VN0KZ9HY2I6CR","emotion","mismatch","uniform","","","","","","","","89049.79999999888","91066.40000000037","","","","","","","","","","","","4","","stimuli/stars_4.png","35.5","","","","","stimuli/HF04_SUR.jpg","",""
"explore-choice","27","89937","0.0-27.0","p915359","A11FRLH5KWRLBV","3WRBLBQ2GSENM5LEFQY1C5PG0GV0GC","3IRIK4HM3CQ86OPI5VN0KZ9HY2I6CR","emotion","mismatch","uniform","","","","","","","1256.0999999996275","91067","92323.09999999963","[""stimuli/BM04_CC.jpg"",""stimuli/WM13_SUR.jpg"",""stimuli/AF10_HE.jpg"",""stimuli/HF04_AO.jpg""]","stimuli/BM04_CC.jpg","stimuli/WM13_SUR.jpg","stimuli/AF10_HE.jpg","stimuli/HF04_AO.jpg","pos2","stimuli/WM13_SUR.jpg","SUR","WM13","1","3.5","7","6","stimuli/stars_7.png","39","[""CC"",""SUR"",""HE"",""AO""]","[""BM04"",""WM13"",""AF10"",""HF04""]","[6,7,8,3]","[4,6,8,2]","","",""
"show-reward","28","91944","0.0-28.0","p915359","A11FRLH5KWRLBV","3WRBLBQ2GSENM5LEFQY1C5PG0GV0GC","3IRIK4HM3CQ86OPI5VN0KZ9HY2I6CR","emotion","mismatch","uniform","","","","","","","","92835.19999999925","94841.59999999963","","","","","","","","","","","","7","","stimuli/stars_7.png","39","","","","","stimuli/WM13_SUR.jpg","",""
"explore-choice","29","93517","0.0-29.0","p915359","A11FRLH5KWRLBV","3WRBLBQ2GSENM5LEFQY1C5PG0GV0GC","3IRIK4HM3CQ86OPI5VN0KZ9HY2I6CR","emotion","mismatch","uniform","","","","","","","1064.699999999255","94842","95906.69999999925","[""stimuli/BM04_HE.jpg"",""stimuli/WM13_CC.jpg"",""stimuli/AF10_SUR.jpg"",""stimuli/HF04_AO.jpg""]","stimuli/BM04_HE.jpg","stimuli/WM13_CC.jpg","stimuli/AF10_SUR.jpg","stimuli/HF04_AO.jpg","pos1","stimuli/BM04_HE.jpg","HE","BM04","0","3.5","7","8","stimuli/stars_7.png","42.5","[""HE"",""CC"",""SUR"",""AO""]","[""BM04"",""WM13"",""AF10"",""HF04""]","[7,5,4,3]","[8,4,6,2]","","",""
"show-reward","30","95525","0.0-30.0","p915359","A11FRLH5KWRLBV","3WRBLBQ2GSENM5LEFQY1C5PG0GV0GC","3IRIK4HM3CQ86OPI5VN0KZ9HY2I6CR","emotion","mismatch","uniform","","","","","","","","96414.79999999888","98422.69999999925","","","","","","","","","","","","7","","stimuli/stars_7.png","42.5","","","","","stimuli/BM04_HE.jpg","",""
"explore-choice","31","97426","0.0-31.0","p915359","A11FRLH5KWRLBV","3WRBLBQ2GSENM5LEFQY1C5PG0GV0GC","3IRIK4HM3CQ86OPI5VN0KZ9HY2I6CR","emotion","mismatch","uniform","","","","","","","1387.300000000745","98423.09999999963","99810.40000000037","[""stimuli/HF04_SUR.jpg"",""stimuli/BM04_AO.jpg"",""stimuli/AF10_CC.jpg"",""stimuli/WM13_HE.jpg""]","stimuli/HF04_SUR.jpg","stimuli/BM04_AO.jpg","stimuli/AF10_CC.jpg","stimuli/WM13_HE.jpg","pos4","stimuli/WM13_HE.jpg","HE","WM13","3","5","10","8","stimuli/stars_10.png","47.5","[""SUR"",""AO"",""CC"",""HE""]","[""HF04"",""BM04"",""AF10"",""WM13""]","[5,4,6,10]","[6,2,4,8]","","",""
"show-reward","32","99427","0.0-32.0","p915359","A11FRLH5KWRLBV","3WRBLBQ2GSENM5LEFQY1C5PG0GV0GC","3IRIK4HM3CQ86OPI5VN0KZ9HY2I6CR","emotion","mismatch","uniform","","","","","","","","100323.59999999963","102324.69999999925","","","","","","","","","","","","10","","stimuli/stars_10.png","47.5","","","","","stimuli/WM13_HE.jpg","",""
"explore-choice","33","101534","0.0-33.0","p915359","A11FRLH5KWRLBV","3WRBLBQ2GSENM5LEFQY1C5PG0GV0GC","3IRIK4HM3CQ86OPI5VN0KZ9HY2I6CR","emotion","mismatch","uniform","","","","","","","1597.2999999988824","102325","103922.29999999888","[""stimuli/BM04_AO.jpg"",""stimuli/AF10_SUR.jpg"",""stimuli/WM13_HE.jpg"",""stimuli/HF04_CC.jpg""]","stimuli/BM04_AO.jpg","stimuli/AF10_SUR.jpg","stimuli/WM13_HE.jpg","stimuli/HF04_CC.jpg","pos2","stimuli/AF10_SUR.jpg","SUR","AF10","1","2","4","6","stimuli/stars_4.png","49.5","[""AO"",""SUR"",""HE"",""CC""]","[""BM04"",""AF10"",""WM13"",""HF04""]","[4,4,7,2]","[2,6,8,4]","","",""
"show-reward","34","103538","0.0-34.0","p915359","A11FRLH5KWRLBV","3WRBLBQ2GSENM5LEFQY1C5PG0GV0GC","3IRIK4HM3CQ86OPI5VN0KZ9HY2I6CR","emotion","mismatch","uniform","","","","","","","","104432.5","106435.29999999888","","","","","","","","","","","","4","","stimuli/stars_4.png","49.5","","","","","stimuli/AF10_SUR.jpg","",""
"explore-choice","35","106507","0.0-35.0","p915359","A11FRLH5KWRLBV","3WRBLBQ2GSENM5LEFQY1C5PG0GV0GC","3IRIK4HM3CQ86OPI5VN0KZ9HY2I6CR","emotion","mismatch","uniform","","","","","","","2462.300000000745","106435.69999999925","108898","[""stimuli/HF04_CC.jpg"",""stimuli/BM04_HE.jpg"",""stimuli/AF10_SUR.jpg"",""stimuli/WM13_AO.jpg""]","stimuli/HF04_CC.jpg","stimuli/BM04_HE.jpg","stimuli/AF10_SUR.jpg","stimuli/WM13_AO.jpg","pos2","stimuli/BM04_HE.jpg","HE","BM04","1","4","8","8","stimuli/stars_8.png","53.5","[""CC"",""HE"",""SUR"",""AO""]","[""HF04"",""BM04"",""AF10"",""WM13""]","[5,8,7,2]","[4,8,6,2]","","",""
"show-reward","36","108510","0.0-36.0","p915359","A11FRLH5KWRLBV","3WRBLBQ2GSENM5LEFQY1C5PG0GV0GC","3IRIK4HM3CQ86OPI5VN0KZ9HY2I6CR","emotion","mismatch","uniform","","","","","","","","109405.59999999963","111407.19999999925","","","","","","","","","","","","8","","stimuli/stars_8.png","53.5","","","","","stimuli/BM04_HE.jpg","",""
"explore-choice","37","111167","0.0-37.0","p915359","A11FRLH5KWRLBV","3WRBLBQ2GSENM5LEFQY1C5PG0GV0GC","3IRIK4HM3CQ86OPI5VN0KZ9HY2I6CR","emotion","mismatch","uniform","","","","","","","2146.4000000003725","111407.59999999963","113554","[""stimuli/WM13_SUR.jpg"",""stimuli/BM04_AO.jpg"",""stimuli/HF04_CC.jpg"",""stimuli/AF10_HE.jpg""]","stimuli/WM13_SUR.jpg","stimuli/BM04_AO.jpg","stimuli/HF04_CC.jpg","stimuli/AF10_HE.jpg","pos4","stimuli/AF10_HE.jpg","HE","AF10","3","5","10","8","stimuli/stars_10.png","58.5","[""SUR"",""AO"",""CC"",""HE""]","[""WM13"",""BM04"",""HF04"",""AF10""]","[4,1,4,10]","[6,2,4,8]","","",""
"show-reward","38","113169","0.0-38.0","p915359","A11FRLH5KWRLBV","3WRBLBQ2GSENM5LEFQY1C5PG0GV0GC","3IRIK4HM3CQ86OPI5VN0KZ9HY2I6CR","emotion","mismatch","uniform","","","","","","","","114065","116066.59999999963","","","","","","","","","","","","10","","stimuli/stars_10.png","58.5","","","","","stimuli/AF10_HE.jpg","",""
"explore-choice","39","115157","0.0-39.0","p915359","A11FRLH5KWRLBV","3WRBLBQ2GSENM5LEFQY1C5PG0GV0GC","3IRIK4HM3CQ86OPI5VN0KZ9HY2I6CR","emotion","mismatch","uniform","","","","","","","1486.5","116067.09999999963","117553.59999999963","[""stimuli/WM13_SUR.jpg"",""stimuli/HF04_CC.jpg"",""stimuli/BM04_HE.jpg"",""stimuli/AF10_AO.jpg""]","stimuli/WM13_SUR.jpg","stimuli/HF04_CC.jpg","stimuli/BM04_HE.jpg","stimuli/AF10_AO.jpg","pos3","stimuli/BM04_HE.jpg","HE","BM04","2","4","8","8","stimuli/stars_8.png","62.5","[""SUR"",""CC"",""HE"",""AO""]","[""WM13"",""HF04"",""BM04"",""AF10""]","[7,2,8,2]","[6,4,8,2]","","",""
"show-reward","40","117158","0.0-40.0","p915359","A11FRLH5KWRLBV","3WRBLBQ2GSENM5LEFQY1C5PG0GV0GC","3IRIK4HM3CQ86OPI5VN0KZ9HY2I6CR","emotion","mismatch","uniform","","","","","","","","118054.90000000037","120055.69999999925","","","","","","","","","","","","8","","stimuli/stars_8.png","62.5","","","","","stimuli/BM04_HE.jpg","",""
"explore-choice","41","118501","0.0-41.0","p915359","A11FRLH5KWRLBV","3WRBLBQ2GSENM5LEFQY1C5PG0GV0GC","3IRIK4HM3CQ86OPI5VN0KZ9HY2I6CR","emotion","mismatch","uniform","","","","","","","841.4000000003725","120056.09999999963","120897.5","[""stimuli/BM04_SUR.jpg"",""stimuli/AF10_HE.jpg"",""stimuli/HF04_AO.jpg"",""stimuli/WM13_CC.jpg""]","stimuli/BM04_SUR.jpg","stimuli/AF10_HE.jpg","stimuli/HF04_AO.jpg","stimuli/WM13_CC.jpg","pos2","stimuli/AF10_HE.jpg","HE","AF10","1","3.5","7","8","stimuli/stars_7.png","66","[""SUR"",""HE"",""AO"",""CC""]","[""BM04"",""AF10"",""HF04"",""WM13""]","[6,7,4,2]","[6,8,2,4]","","",""
"show-reward","42","120503","0.0-42.0","p915359","A11FRLH5KWRLBV","3WRBLBQ2GSENM5LEFQY1C5PG0GV0GC","3IRIK4HM3CQ86OPI5VN0KZ9HY2I6CR","emotion","mismatch","uniform","","","","","","","","121398.90000000037","123400.29999999888","","","","","","","","","","","","7","","stimuli/stars_7.png","66","","","","","stimuli/AF10_HE.jpg","",""
"explore-choice","43","122262","0.0-43.0","p915359","A11FRLH5KWRLBV","3WRBLBQ2GSENM5LEFQY1C5PG0GV0GC","3IRIK4HM3CQ86OPI5VN0KZ9HY2I6CR","emotion","mismatch","uniform","","","","","","","1248.5","123400.69999999925","124649.19999999925","[""stimuli/AF10_CC.jpg"",""stimuli/HF04_AO.jpg"",""stimuli/WM13_SUR.jpg"",""stimuli/BM04_HE.jpg""]","stimuli/AF10_CC.jpg","stimuli/HF04_AO.jpg","stimuli/WM13_SUR.jpg","stimuli/BM04_HE.jpg","pos4","stimuli/BM04_HE.jpg","HE","BM04","3","5","10","8","stimuli/stars_10.png","71","[""CC"",""AO"",""SUR"",""HE""]","[""AF10"",""HF04"",""WM13"",""BM04""]","[4,3,4,10]","[4,2,6,8]","","",""
"show-reward","44","124268","0.0-44.0","p915359","A11FRLH5KWRLBV","3WRBLBQ2GSENM5LEFQY1C5PG0GV0GC","3IRIK4HM3CQ86OPI5VN0KZ9HY2I6CR","emotion","mismatch","uniform","","","","","","","","125160.19999999925","127166","","","","","","","","","","","","10","","stimuli/stars_10.png","71","","","","","stimuli/BM04_HE.jpg","",""
"explore-choice","45","125964","0.0-45.0","p915359","A11FRLH5KWRLBV","3WRBLBQ2GSENM5LEFQY1C5PG0GV0GC","3IRIK4HM3CQ86OPI5VN0KZ9HY2I6CR","emotion","mismatch","uniform","","","","","","","1194.5999999996275","127166.5","128361.09999999963","[""stimuli/HF04_CC.jpg"",""stimuli/AF10_AO.jpg"",""stimuli/BM04_SUR.jpg"",""stimuli/WM13_HE.jpg""]","stimuli/HF04_CC.jpg","stimuli/AF10_AO.jpg","stimuli/BM04_SUR.jpg","stimuli/WM13_HE.jpg","pos4","stimuli/WM13_HE.jpg","HE","WM13","3","4.5","9","8","stimuli/stars_9.png","75.5","[""CC"",""AO"",""SUR"",""HE""]","[""HF04"",""AF10"",""BM04"",""WM13""]","[3,0,5,9]","[4,2,6,8]","","",""
"show-reward","46","127972","0.0-46.0","p915359","A11FRLH5KWRLBV","3WRBLBQ2GSENM5LEFQY1C5PG0GV0GC","3IRIK4HM3CQ86OPI5VN0KZ9HY2I6CR","emotion","mismatch","uniform","","","","","","","","128861.79999999888","130869.79999999888","","","","","","","","","","","","9","","stimuli/stars_9.png","75.5","","","","","stimuli/WM13_HE.jpg","",""
"explore-choice","47","129676","0.0-47.0","p915359","A11FRLH5KWRLBV","3WRBLBQ2GSENM5LEFQY1C5PG0GV0GC","3IRIK4HM3CQ86OPI5VN0KZ9HY2I6CR","emotion","mismatch","uniform","","","","","","","1194.7000000011176","130870.29999999888","132065","[""stimuli/BM04_SUR.jpg"",""stimuli/AF10_HE.jpg"",""stimuli/WM13_AO.jpg"",""stimuli/HF04_CC.jpg""]","stimuli/BM04_SUR.jpg","stimuli/AF10_HE.jpg","stimuli/WM13_AO.jpg","stimuli/HF04_CC.jpg","pos2","stimuli/AF10_HE.jpg","HE","AF10","1","3.5","7","8","stimuli/stars_7.png","79","[""SUR"",""HE"",""AO"",""CC""]","[""BM04"",""AF10"",""WM13"",""HF04""]","[7,7,4,2]","[6,8,2,4]","","",""
"show-reward","48","131690","0.0-48.0","p915359","A11FRLH5KWRLBV","3WRBLBQ2GSENM5LEFQY1C5PG0GV0GC","3IRIK4HM3CQ86OPI5VN0KZ9HY2I6CR","emotion","mismatch","uniform","","","","","","","","132574.40000000037","134587.40000000037","","","","","","","","","","","","7","","stimuli/stars_7.png","79","","","","","stimuli/AF10_HE.jpg","",""
"explore-choice","49","134300","0.0-49.0","p915359","A11FRLH5KWRLBV","3WRBLBQ2GSENM5LEFQY1C5PG0GV0GC","3IRIK4HM3CQ86OPI5VN0KZ9HY2I6CR","emotion","mismatch","uniform","","","","","","","2108.7999999988824","134587.90000000037","136696.69999999925","[""stimuli/BM04_CC.jpg"",""stimuli/WM13_AO.jpg"",""stimuli/AF10_HE.jpg"",""stimuli/HF04_SUR.jpg""]","stimuli/BM04_CC.jpg","stimuli/WM13_AO.jpg","stimuli/AF10_HE.jpg","stimuli/HF04_SUR.jpg","pos3","stimuli/AF10_HE.jpg","HE","AF10","2","4","8","8","stimuli/stars_8.png","83","[""CC"",""AO"",""HE"",""SUR""]","[""BM04"",""WM13"",""AF10"",""HF04""]","[2,2,8,5]","[4,2,8,6]","","",""
"show-reward","50","136302","0.0-50.0","p915359","A11FRLH5KWRLBV","3WRBLBQ2GSENM5LEFQY1C5PG0GV0GC","3IRIK4HM3CQ86OPI5VN0KZ9HY2I6CR","emotion","mismatch","uniform","","","","","","","","137198","139199.40000000037","","","","","","","","","","","","8","","stimuli/stars_8.png","83","","","","","stimuli/AF10_HE.jpg","",""
"explore-choice","51","138468","0.0-51.0","p915359","A11FRLH5KWRLBV","3WRBLBQ2GSENM5LEFQY1C5PG0GV0GC","3IRIK4HM3CQ86OPI5VN0KZ9HY2I6CR","emotion","mismatch","uniform","","","","","","","1656.5999999996275","139199.90000000037","140856.5","[""stimuli/AF10_CC.jpg"",""stimuli/BM04_AO.jpg"",""stimuli/WM13_SUR.jpg"",""stimuli/HF04_HE.jpg""]","stimuli/AF10_CC.jpg","stimuli/BM04_AO.jpg","stimuli/WM13_SUR.jpg","stimuli/HF04_HE.jpg","pos4","stimuli/HF04_HE.jpg","HE","HF04","3","3","6","8","stimuli/stars_6.png","86","[""CC"",""AO"",""SUR"",""HE""]","[""AF10"",""BM04"",""WM13"",""HF04""]","[3,1,8,6]","[4,2,6,8]","","",""
"show-reward","52","140470","0.0-52.0","p915359","A11FRLH5KWRLBV","3WRBLBQ2GSENM5LEFQY1C5PG0GV0GC","3IRIK4HM3CQ86OPI5VN0KZ9HY2I6CR","emotion","mismatch","uniform","","","","","","","","141365.79999999888","143367.19999999925","","","","","","","","","","","","6","","stimuli/stars_6.png","86","","","","","stimuli/HF04_HE.jpg","",""
"explore-choice","53","142263","0.0-53.0","p915359","A11FRLH5KWRLBV","3WRBLBQ2GSENM5LEFQY1C5PG0GV0GC","3IRIK4HM3CQ86OPI5VN0KZ9HY2I6CR","emotion","mismatch","uniform","","","","","","","1280.7000000011176","143367.69999999925","144648.40000000037","[""stimuli/BM04_CC.jpg"",""stimuli/AF10_SUR.jpg"",""stimuli/HF04_HE.jpg"",""stimuli/WM13_AO.jpg""]","stimuli/BM04_CC.jpg","stimuli/AF10_SUR.jpg","stimuli/HF04_HE.jpg","stimuli/WM13_AO.jpg","pos3","stimuli/HF04_HE.jpg","HE","HF04","2","3.5","7","8","stimuli/stars_7.png","89.5","[""CC"",""SUR"",""HE"",""AO""]","[""BM04"",""AF10"",""HF04"",""WM13""]","[2,4,7,3]","[4,6,8,2]","","",""
"show-reward","54","144277","0.0-54.0","p915359","A11FRLH5KWRLBV","3WRBLBQ2GSENM5LEFQY1C5PG0GV0GC","3IRIK4HM3CQ86OPI5VN0KZ9HY2I6CR","emotion","mismatch","uniform","","","","","","","","145161.19999999925","147174.59999999963","","","","","","","","","","","","7","","stimuli/stars_7.png","89.5","","","","","stimuli/HF04_HE.jpg","",""
"explore-choice","55","147175","0.0-55.0","p915359","A11FRLH5KWRLBV","3WRBLBQ2GSENM5LEFQY1C5PG0GV0GC","3IRIK4HM3CQ86OPI5VN0KZ9HY2I6CR","emotion","mismatch","uniform","","","","","","","2385.4000000003725","147175","149560.40000000037","[""stimuli/AF10_CC.jpg"",""stimuli/HF04_AO.jpg"",""stimuli/BM04_HE.jpg"",""stimuli/WM13_SUR.jpg""]","stimuli/AF10_CC.jpg","stimuli/HF04_AO.jpg","stimuli/BM04_HE.jpg","stimuli/WM13_SUR.jpg","pos3","stimuli/BM04_HE.jpg","HE","BM04","2","5","10","8","stimuli/stars_10.png","94.5","[""CC"",""AO"",""HE"",""SUR""]","[""AF10"",""HF04"",""BM04"",""WM13""]","[4,3,10,4]","[4,2,8,6]","","",""
"show-reward","56","149190","0.0-56.0","p915359","A11FRLH5KWRLBV","3WRBLBQ2GSENM5LEFQY1C5PG0GV0GC","3IRIK4HM3CQ86OPI5VN0KZ9HY2I6CR","emotion","mismatch","uniform","","","","","","","","150073.19999999925","152088","","","","","","","","","","","","10","","stimuli/stars_10.png","94.5","","","","","stimuli/BM04_HE.jpg","",""
"explore-choice","57","151566","0.0-57.0","p915359","A11FRLH5KWRLBV","3WRBLBQ2GSENM5LEFQY1C5PG0GV0GC","3IRIK4HM3CQ86OPI5VN0KZ9HY2I6CR","emotion","mismatch","uniform","","","","","","","1863.5","152088.5","153952","[""stimuli/AF10_HE.jpg"",""stimuli/WM13_CC.jpg"",""stimuli/BM04_SUR.jpg"",""stimuli/HF04_AO.jpg""]","stimuli/AF10_HE.jpg","stimuli/WM13_CC.jpg","stimuli/BM04_SUR.jpg","stimuli/HF04_AO.jpg","pos3","stimuli/BM04_SUR.jpg","SUR","BM04","2","3","6","6","stimuli/stars_6.png","97.5","[""HE"",""CC"",""SUR"",""AO""]","[""AF10"",""WM13"",""BM04"",""HF04""]","[7,2,6,4]","[8,4,6,2]","","",""
"show-reward","58","153567","0.0-58.0","p915359","A11FRLH5KWRLBV","3WRBLBQ2GSENM5LEFQY1C5PG0GV0GC","3IRIK4HM3CQ86OPI5VN0KZ9HY2I6CR","emotion","mismatch","uniform","","","","","","","","154463.79999999888","156465","","","","","","","","","","","","6","","stimuli/stars_6.png","97.5","","","","","stimuli/BM04_SUR.jpg","",""
"explore-choice","59","156152","0.0-59.0","p915359","A11FRLH5KWRLBV","3WRBLBQ2GSENM5LEFQY1C5PG0GV0GC","3IRIK4HM3CQ86OPI5VN0KZ9HY2I6CR","emotion","mismatch","uniform","","","","","","","2070.5","156465.29999999888","158535.79999999888","[""stimuli/BM04_AO.jpg"",""stimuli/HF04_CC.jpg"",""stimuli/AF10_SUR.jpg"",""stimuli/WM13_HE.jpg""]","stimuli/BM04_AO.jpg","stimuli/HF04_CC.jpg","stimuli/AF10_SUR.jpg","stimuli/WM13_HE.jpg","pos3","stimuli/AF10_SUR.jpg","SUR","AF10","2","2","4","6","stimuli/stars_4.png","99.5","[""AO"",""CC"",""SUR"",""HE""]","[""BM04"",""HF04"",""AF10"",""WM13""]","[4,2,4,7]","[2,4,6,8]","","",""
"show-reward","60","158154","0.0-60.0","p915359","A11FRLH5KWRLBV","3WRBLBQ2GSENM5LEFQY1C5PG0GV0GC","3IRIK4HM3CQ86OPI5VN0KZ9HY2I6CR","emotion","mismatch","uniform","","","","","","","","159050.19999999925","161051.40000000037","","","","","","","","","","","","4","","stimuli/stars_4.png","99.5","","","","","stimuli/AF10_SUR.jpg","",""
"explore-choice","61","160482","0.0-61.0","p915359","A11FRLH5KWRLBV","3WRBLBQ2GSENM5LEFQY1C5PG0GV0GC","3IRIK4HM3CQ86OPI5VN0KZ9HY2I6CR","emotion","mismatch","uniform","","","","","","","1811.800000000745","161051.79999999888","162863.59999999963","[""stimuli/AF10_SUR.jpg"",""stimuli/BM04_HE.jpg"",""stimuli/WM13_CC.jpg"",""stimuli/HF04_AO.jpg""]","stimuli/AF10_SUR.jpg","stimuli/BM04_HE.jpg","stimuli/WM13_CC.jpg","stimuli/HF04_AO.jpg","pos1","stimuli/AF10_SUR.jpg","SUR","AF10","0","2","4","6","stimuli/stars_4.png","101.5","[""SUR"",""HE"",""CC"",""AO""]","[""AF10"",""BM04"",""WM13"",""HF04""]","[4,7,5,3]","[6,8,4,2]","","",""
"show-reward","62","162495","0.0-62.0","p915359","A11FRLH5KWRLBV","3WRBLBQ2GSENM5LEFQY1C5PG0GV0GC","3IRIK4HM3CQ86OPI5VN0KZ9HY2I6CR","emotion","mismatch","uniform","","","","","","","","163380.19999999925","165392.5","","","","","","","","","","","","4","","stimuli/stars_4.png","101.5","","","","","stimuli/AF10_SUR.jpg","",""
"explore-choice","63","166057","0.0-63.0","p915359","A11FRLH5KWRLBV","3WRBLBQ2GSENM5LEFQY1C5PG0GV0GC","3IRIK4HM3CQ86OPI5VN0KZ9HY2I6CR","emotion","mismatch","uniform","","","","","","","3046.2999999988824","165393","168439.29999999888","[""stimuli/BM04_AO.jpg"",""stimuli/AF10_HE.jpg"",""stimuli/WM13_CC.jpg"",""stimuli/HF04_SUR.jpg""]","stimuli/BM04_AO.jpg","stimuli/AF10_HE.jpg","stimuli/WM13_CC.jpg","stimuli/HF04_SUR.jpg","pos2","stimuli/AF10_HE.jpg","HE","AF10","1","4.5","9","8","stimuli/stars_9.png","106","[""AO"",""HE"",""CC"",""SUR""]","[""BM04"",""AF10"",""WM13"",""HF04""]","[3,9,6,7]","[2,8,4,6]","","",""
"show-reward","64","168071","0.0-64.0","p915359","A11FRLH5KWRLBV","3WRBLBQ2GSENM5LEFQY1C5PG0GV0GC","3IRIK4HM3CQ86OPI5VN0KZ9HY2I6CR","emotion","mismatch","uniform","","","","","","","","168955.19999999925","170969.40000000037","","","","","","","","","","","","9","","stimuli/stars_9.png","106","","","","","stimuli/AF10_HE.jpg","",""
"explore-choice","65","171102","0.0-65.0","p915359","A11FRLH5KWRLBV","3WRBLBQ2GSENM5LEFQY1C5PG0GV0GC","3IRIK4HM3CQ86OPI5VN0KZ9HY2I6CR","emotion","mismatch","uniform","","","","","","","2525.699999999255","170969.90000000037","173495.59999999963","[""stimuli/BM04_CC.jpg"",""stimuli/WM13_AO.jpg"",""stimuli/HF04_HE.jpg"",""stimuli/AF10_SUR.jpg""]","stimuli/BM04_CC.jpg","stimuli/WM13_AO.jpg","stimuli/HF04_HE.jpg","stimuli/AF10_SUR.jpg","pos3","stimuli/HF04_HE.jpg","HE","HF04","2","3.5","7","8","stimuli/stars_7.png","109.5","[""CC"",""AO"",""HE"",""SUR""]","[""BM04"",""WM13"",""HF04"",""AF10""]","[2,3,7,4]","[4,2,8,6]","","",""
"show-reward","66","173114","0.0-66.0","p915359","A11FRLH5KWRLBV","3WRBLBQ2GSENM5LEFQY1C5PG0GV0GC","3IRIK4HM3CQ86OPI5VN0KZ9HY2I6CR","emotion","mismatch","uniform","","","","","","","","174001.09999999963","176012.5","","","","","","","","","","","","7","","stimuli/stars_7.png","109.5","","","","","stimuli/HF04_HE.jpg","",""
"explore-choice","67","176896","0.0-67.0","p915359","A11FRLH5KWRLBV","3WRBLBQ2GSENM5LEFQY1C5PG0GV0GC","3IRIK4HM3CQ86OPI5VN0KZ9HY2I6CR","emotion","mismatch","uniform","","","","","","","3265.89999999851","176012.90000000037","179278.79999999888","[""stimuli/BM04_CC.jpg"",""stimuli/HF04_AO.jpg"",""stimuli/AF10_HE.jpg"",""stimuli/WM13_SUR.jpg""]","stimuli/BM04_CC.jpg","stimuli/HF04_AO.jpg","stimuli/AF10_HE.jpg","stimuli/WM13_SUR.jpg","pos3","stimuli/AF10_HE.jpg","HE","AF10","2","4","8","8","stimuli/stars_8.png","113.5","[""CC"",""AO"",""HE"",""SUR""]","[""BM04"",""HF04"",""AF10"",""WM13""]","[6,3,8,7]","[4,2,8,6]","","",""
"show-reward","68","178911","0.0-68.0","p915359","A11FRLH5KWRLBV","3WRBLBQ2GSENM5LEFQY1C5PG0GV0GC","3IRIK4HM3CQ86OPI5VN0KZ9HY2I6CR","emotion","mismatch","uniform","","","","","","","","179794.29999999888","181809.19999999925","","","","","","","","","","","","8","","stimuli/stars_8.png","113.5","","","","","stimuli/AF10_HE.jpg","",""
"explore-choice","69","181577","0.0-69.0","p915359","A11FRLH5KWRLBV","3WRBLBQ2GSENM5LEFQY1C5PG0GV0GC","3IRIK4HM3CQ86OPI5VN0KZ9HY2I6CR","emotion","mismatch","uniform","","","","","","","2164.800000000745","181809.69999999925","183974.5","[""stimuli/BM04_SUR.jpg"",""stimuli/AF10_HE.jpg"",""stimuli/HF04_CC.jpg"",""stimuli/WM13_AO.jpg""]","stimuli/BM04_SUR.jpg","stimuli/AF10_HE.jpg","stimuli/HF04_CC.jpg","stimuli/WM13_AO.jpg","pos2","stimuli/AF10_HE.jpg","HE","AF10","1","3.5","7","8","stimuli/stars_7.png","117","[""SUR"",""HE"",""CC"",""AO""]","[""BM04"",""AF10"",""HF04"",""WM13""]","[7,7,2,4]","[6,8,4,2]","","",""
"show-reward","70","183579","0.0-70.0","p915359","A11FRLH5KWRLBV","3WRBLBQ2GSENM5LEFQY1C5PG0GV0GC","3IRIK4HM3CQ86OPI5VN0KZ9HY2I6CR","emotion","mismatch","uniform","","","","","","","","184475.90000000037","186477.29999999888","","","","","","","","","","","","7","","stimuli/stars_7.png","117","","","","","stimuli/AF10_HE.jpg","",""
"explore-choice","71","186057","0.0-71.0","p915359","A11FRLH5KWRLBV","3WRBLBQ2GSENM5LEFQY1C5PG0GV0GC","3IRIK4HM3CQ86OPI5VN0KZ9HY2I6CR","emotion","mismatch","uniform","","","","","","","1976.800000000745","186477.69999999925","188454.5","[""stimuli/AF10_SUR.jpg"",""stimuli/HF04_AO.jpg"",""stimuli/WM13_HE.jpg"",""stimuli/BM04_CC.jpg""]","stimuli/AF10_SUR.jpg","stimuli/HF04_AO.jpg","stimuli/WM13_HE.jpg","stimuli/BM04_CC.jpg","pos3","stimuli/WM13_HE.jpg","HE","WM13","2","4.5","9","8","stimuli/stars_9.png","121.5","[""SUR"",""AO"",""HE"",""CC""]","[""AF10"",""HF04"",""WM13"",""BM04""]","[7,4,9,3]","[6,2,8,4]","","",""
"show-reward","72","188071","0.0-72.0","p915359","A11FRLH5KWRLBV","3WRBLBQ2GSENM5LEFQY1C5PG0GV0GC","3IRIK4HM3CQ86OPI5VN0KZ9HY2I6CR","emotion","mismatch","uniform","","","","","","","","188955.29999999888","190969.40000000037","","","","","","","","","","","","9","","stimuli/stars_9.png","121.5","","","","","stimuli/WM13_HE.jpg","",""
"explore-choice","73","189663","0.0-73.0","p915359","A11FRLH5KWRLBV","3WRBLBQ2GSENM5LEFQY1C5PG0GV0GC","3IRIK4HM3CQ86OPI5VN0KZ9HY2I6CR","emotion","mismatch","uniform","","","","","","","1076.4000000022352","190969.79999999888","192046.20000000112","[""stimuli/BM04_SUR.jpg"",""stimuli/HF04_HE.jpg"",""stimuli/AF10_AO.jpg"",""stimuli/WM13_CC.jpg""]","stimuli/BM04_SUR.jpg","stimuli/HF04_HE.jpg","stimuli/AF10_AO.jpg","stimuli/WM13_CC.jpg","pos2","stimuli/HF04_HE.jpg","HE","HF04","1","4.5","9","8","stimuli/stars_9.png","126","[""SUR"",""HE"",""AO"",""CC""]","[""BM04"",""HF04"",""AF10"",""WM13""]","[5,9,1,6]","[6,8,2,4]","","",""
"show-reward","74","191665","0.0-74.0","p915359","A11FRLH5KWRLBV","3WRBLBQ2GSENM5LEFQY1C5PG0GV0GC","3IRIK4HM3CQ86OPI5VN0KZ9HY2I6CR","emotion","mismatch","uniform","","","","","","","","192561.90000000037","194562.79999999888","","","","","","","","","","","","9","","stimuli/stars_9.png","126","","","","","stimuli/HF04_HE.jpg","",""
"explore-choice","75","193786","0.0-75.0","p915359","A11FRLH5KWRLBV","3WRBLBQ2GSENM5LEFQY1C5PG0GV0GC","3IRIK4HM3CQ86OPI5VN0KZ9HY2I6CR","emotion","mismatch","uniform","","","","","","","1611.5","194563.20000000112","196174.70000000112","[""stimuli/BM04_SUR.jpg"",""stimuli/AF10_AO.jpg"",""stimuli/HF04_CC.jpg"",""stimuli/WM13_HE.jpg""]","stimuli/BM04_SUR.jpg","stimuli/AF10_AO.jpg","stimuli/HF04_CC.jpg","stimuli/WM13_HE.jpg","pos4","stimuli/WM13_HE.jpg","HE","WM13","3","4.5","9","8","stimuli/stars_9.png","130.5","[""SUR"",""AO"",""CC"",""HE""]","[""BM04"",""AF10"",""HF04"",""WM13""]","[5,0,3,9]","[6,2,4,8]","","",""
"show-reward","76","195799","0.0-76.0","p915359","A11FRLH5KWRLBV","3WRBLBQ2GSENM5LEFQY1C5PG0GV0GC","3IRIK4HM3CQ86OPI5VN0KZ9HY2I6CR","emotion","mismatch","uniform","","","","","","","","196684.70000000112","198697.59999999963","","","","","","","","","","","","9","","stimuli/stars_9.png","130.5","","","","","stimuli/WM13_HE.jpg","",""
"explore-choice","77","197399","0.0-77.0","p915359","A11FRLH5KWRLBV","3WRBLBQ2GSENM5LEFQY1C5PG0GV0GC","3IRIK4HM3CQ86OPI5VN0KZ9HY2I6CR","emotion","mismatch","uniform","","","","","","","1091.9000000022352","198697.99999999814","199789.90000000037","[""stimuli/HF04_SUR.jpg"",""stimuli/BM04_CC.jpg"",""stimuli/WM13_AO.jpg"",""stimuli/AF10_HE.jpg""]","stimuli/HF04_SUR.jpg","stimuli/BM04_CC.jpg","stimuli/WM13_AO.jpg","stimuli/AF10_HE.jpg","pos1","stimuli/HF04_SUR.jpg","SUR","HF04","0","2.5","5","6","stimuli/stars_5.png","133","[""SUR"",""CC"",""AO"",""HE""]","[""HF04"",""BM04"",""WM13"",""AF10""]","[5,2,2,8]","[6,4,2,8]","","",""
"show-reward","78","199400","0.0-78.0","p915359","A11FRLH5KWRLBV","3WRBLBQ2GSENM5LEFQY1C5PG0GV0GC","3IRIK4HM3CQ86OPI5VN0KZ9HY2I6CR","emotion","mismatch","uniform","","","","","","","","200297.49999999814","202298.59999999963","","","","","","","","","","","","5","","stimuli/stars_5.png","133","","","","","stimuli/HF04_SUR.jpg","",""
"explore-choice","79","201597","0.0-79.0","p915359","A11FRLH5KWRLBV","3WRBLBQ2GSENM5LEFQY1C5PG0GV0GC","3IRIK4HM3CQ86OPI5VN0KZ9HY2I6CR","emotion","mismatch","uniform","","","","","","","1691.5","202298.99999999814","203990.49999999814","[""stimuli/BM04_SUR.jpg"",""stimuli/HF04_HE.jpg"",""stimuli/AF10_CC.jpg"",""stimuli/WM13_AO.jpg""]","stimuli/BM04_SUR.jpg","stimuli/HF04_HE.jpg","stimuli/AF10_CC.jpg","stimuli/WM13_AO.jpg","pos2","stimuli/HF04_HE.jpg","HE","HF04","1","4","8","8","stimuli/stars_8.png","137","[""SUR"",""HE"",""CC"",""AO""]","[""BM04"",""HF04"",""AF10"",""WM13""]","[4,8,6,3]","[6,8,4,2]","","",""
"show-reward","80","203608","0.0-80.0","p915359","A11FRLH5KWRLBV","3WRBLBQ2GSENM5LEFQY1C5PG0GV0GC","3IRIK4HM3CQ86OPI5VN0KZ9HY2I6CR","emotion","mismatch","uniform","","","","","","","","204495.79999999888","206505.90000000037","","","","","","","","","","","","8","","stimuli/stars_8.png","137","","","","","stimuli/HF04_HE.jpg","",""
"explore-choice","81","205647","0.0-81.0","p915359","A11FRLH5KWRLBV","3WRBLBQ2GSENM5LEFQY1C5PG0GV0GC","3IRIK4HM3CQ86OPI5VN0KZ9HY2I6CR","emotion","mismatch","uniform","","","","","","","1531.800000000745","206506.40000000037","208038.20000000112","[""stimuli/WM13_CC.jpg"",""stimuli/BM04_AO.jpg"",""stimuli/AF10_SUR.jpg"",""stimuli/HF04_HE.jpg""]","stimuli/WM13_CC.jpg","stimuli/BM04_AO.jpg","stimuli/AF10_SUR.jpg","stimuli/HF04_HE.jpg","pos3","stimuli/AF10_SUR.jpg","SUR","AF10","2","3.5","7","6","stimuli/stars_7.png","140.5","[""CC"",""AO"",""SUR"",""HE""]","[""WM13"",""BM04"",""AF10"",""HF04""]","[6,1,7,10]","[4,2,6,8]","","",""
"show-reward","82","207649","0.0-82.0","p915359","A11FRLH5KWRLBV","3WRBLBQ2GSENM5LEFQY1C5PG0GV0GC","3IRIK4HM3CQ86OPI5VN0KZ9HY2I6CR","emotion","mismatch","uniform","","","","","","","","208545.59999999963","210547.09999999963","","","","","","","","","","","","7","","stimuli/stars_7.png","140.5","","","","","stimuli/AF10_SUR.jpg","",""
"explore-choice","83","210713","0.0-83.0","p915359","A11FRLH5KWRLBV","3WRBLBQ2GSENM5LEFQY1C5PG0GV0GC","3IRIK4HM3CQ86OPI5VN0KZ9HY2I6CR","emotion","mismatch","uniform","","","","","","","2554.39999999851","210547.59999999963","213101.99999999814","[""stimuli/HF04_SUR.jpg"",""stimuli/BM04_AO.jpg"",""stimuli/WM13_HE.jpg"",""stimuli/AF10_CC.jpg""]","stimuli/HF04_SUR.jpg","stimuli/BM04_AO.jpg","stimuli/WM13_HE.jpg","stimuli/AF10_CC.jpg","pos1","stimuli/HF04_SUR.jpg","SUR","HF04","0","2.5","5","6","stimuli/stars_5.png","143","[""SUR"",""AO"",""HE"",""CC""]","[""HF04"",""BM04"",""WM13"",""AF10""]","[5,4,10,6]","[6,2,8,4]","","",""
"show-reward","84","212715","0.0-84.0","p915359","A11FRLH5KWRLBV","3WRBLBQ2GSENM5LEFQY1C5PG0GV0GC","3IRIK4HM3CQ86OPI5VN0KZ9HY2I6CR","emotion","mismatch","uniform","","","","","","","","213611.49999999814","215612.70000000112","","","","","","","","","","","","5","","stimuli/stars_5.png","143","","","","","stimuli/HF04_SUR.jpg","",""
"explore-choice","85","215731","0.0-85.0","p915359","A11FRLH5KWRLBV","3WRBLBQ2GSENM5LEFQY1C5PG0GV0GC","3IRIK4HM3CQ86OPI5VN0KZ9HY2I6CR","emotion","mismatch","uniform","","","","","","","2512.5","215613.20000000112","218125.70000000112","[""stimuli/HF04_CC.jpg"",""stimuli/AF10_AO.jpg"",""stimuli/BM04_HE.jpg"",""stimuli/WM13_SUR.jpg""]","stimuli/HF04_CC.jpg","stimuli/AF10_AO.jpg","stimuli/BM04_HE.jpg","stimuli/WM13_SUR.jpg","pos3","stimuli/BM04_HE.jpg","HE","BM04","2","4","8","8","stimuli/stars_8.png","147","[""CC"",""AO"",""HE"",""SUR""]","[""HF04"",""AF10"",""BM04"",""WM13""]","[2,2,8,7]","[4,2,8,6]","","",""
"show-reward","86","217738","0.0-86.0","p915359","A11FRLH5KWRLBV","3WRBLBQ2GSENM5LEFQY1C5PG0GV0GC","3IRIK4HM3CQ86OPI5VN0KZ9HY2I6CR","emotion","mismatch","uniform","","","","","","","","218629.90000000037","220635.99999999814","","","","","","","","","","","","8","","stimuli/stars_8.png","147","","","","","stimuli/BM04_HE.jpg","",""
"explore-choice","87","222350","0.0-87.0","p915359","A11FRLH5KWRLBV","3WRBLBQ2GSENM5LEFQY1C5PG0GV0GC","3IRIK4HM3CQ86OPI5VN0KZ9HY2I6CR","emotion","mismatch","uniform","","","","","","","4104.400000002235","220636.49999999814","224740.90000000037","[""stimuli/AF10_AO.jpg"",""stimuli/BM04_CC.jpg"",""stimuli/HF04_HE.jpg"",""stimuli/WM13_SUR.jpg""]","stimuli/AF10_AO.jpg","stimuli/BM04_CC.jpg","stimuli/HF04_HE.jpg","stimuli/WM13_SUR.jpg","pos3","stimuli/HF04_HE.jpg","HE","HF04","2","3","6","8","stimuli/stars_6.png","150","[""AO"",""CC"",""HE"",""SUR""]","[""AF10"",""BM04"",""HF04"",""WM13""]","[3,2,6,5]","[2,4,8,6]","","",""
"show-reward","88","224355","0.0-88.0","p915359","A11FRLH5KWRLBV","3WRBLBQ2GSENM5LEFQY1C5PG0GV0GC","3IRIK4HM3CQ86OPI5VN0KZ9HY2I6CR","emotion","mismatch","uniform","","","","","","","","225248.59999999963","227253.59999999963","","","","","","","","","","","","6","","stimuli/stars_6.png","150","","","","","stimuli/HF04_HE.jpg","",""
"explore-choice","89","236424","0.0-89.0","p915359","A11FRLH5KWRLBV","3WRBLBQ2GSENM5LEFQY1C5PG0GV0GC","3IRIK4HM3CQ86OPI5VN0KZ9HY2I6CR","emotion","mismatch","uniform","","","","","","","11566","227254.09999999963","238820.09999999963","[""stimuli/BM04_HE.jpg"",""stimuli/HF04_SUR.jpg"",""stimuli/WM13_CC.jpg"",""stimuli/AF10_AO.jpg""]","stimuli/BM04_HE.jpg","stimuli/HF04_SUR.jpg","stimuli/WM13_CC.jpg","stimuli/AF10_AO.jpg","pos2","stimuli/HF04_SUR.jpg","SUR","HF04","1","2","4","6","stimuli/stars_4.png","152","[""HE"",""SUR"",""CC"",""AO""]","[""BM04"",""HF04"",""WM13"",""AF10""]","[10,4,4,0]","[8,6,4,2]","","",""
"show-reward","90","238434","0.0-90.0","p915359","A11FRLH5KWRLBV","3WRBLBQ2GSENM5LEFQY1C5PG0GV0GC","3IRIK4HM3CQ86OPI5VN0KZ9HY2I6CR","emotion","mismatch","uniform","","","","","","","","239321.99999999814","241331.59999999963","","","","","","","","","","","","4","","stimuli/stars_4.png","152","","","","","stimuli/HF04_SUR.jpg","",""
"explore-choice","91","242054","0.0-91.0","p915359","A11FRLH5KWRLBV","3WRBLBQ2GSENM5LEFQY1C5PG0GV0GC","3IRIK4HM3CQ86OPI5VN0KZ9HY2I6CR","emotion","mismatch","uniform","","","","","","","3104.5","241332.09999999963","244436.59999999963","[""stimuli/BM04_HE.jpg"",""stimuli/AF10_CC.jpg"",""stimuli/WM13_AO.jpg"",""stimuli/HF04_SUR.jpg""]","stimuli/BM04_HE.jpg","stimuli/AF10_CC.jpg","stimuli/WM13_AO.jpg","stimuli/HF04_SUR.jpg","pos4","stimuli/HF04_SUR.jpg","SUR","HF04","3","2","4","6","stimuli/stars_4.png","154","[""HE"",""CC"",""AO"",""SUR""]","[""BM04"",""AF10"",""WM13"",""HF04""]","[10,6,4,4]","[8,4,2,6]","","",""
"show-reward","92","244066","0.0-92.0","p915359","A11FRLH5KWRLBV","3WRBLBQ2GSENM5LEFQY1C5PG0GV0GC","3IRIK4HM3CQ86OPI5VN0KZ9HY2I6CR","emotion","mismatch","uniform","","","","","","","","244951.99999999814","246963.79999999888","","","","","","","","","","","","4","","stimuli/stars_4.png","154","","","","","stimuli/HF04_SUR.jpg","",""
"explore-choice","93","259862","0.0-93.0","p915359","A11FRLH5KWRLBV","3WRBLBQ2GSENM5LEFQY1C5PG0GV0GC","3IRIK4HM3CQ86OPI5VN0KZ9HY2I6CR","emotion","mismatch","uniform","","","","","","","15286.699999999255","246964.29999999888","262250.99999999814","[""stimuli/HF04_HE.jpg"",""stimuli/BM04_AO.jpg"",""stimuli/AF10_CC.jpg"",""stimuli/WM13_SUR.jpg""]","stimuli/HF04_HE.jpg","stimuli/BM04_AO.jpg","stimuli/AF10_CC.jpg","stimuli/WM13_SUR.jpg","pos2","stimuli/BM04_AO.jpg","AO","BM04","1","0.5","1","2","stimuli/stars_1.png","154.5","[""HE"",""AO"",""CC"",""SUR""]","[""HF04"",""BM04"",""AF10"",""WM13""]","[6,1,3,8]","[8,2,4,6]","","",""
"show-reward","94","261877","0.0-94.0","p915359","A11FRLH5KWRLBV","3WRBLBQ2GSENM5LEFQY1C5PG0GV0GC","3IRIK4HM3CQ86OPI5VN0KZ9HY2I6CR","emotion","mismatch","uniform","","","","","","","","262760.0999999996","264774.4000000004","","","","","","","","","","","","1","","stimuli/stars_1.png","154.5","","","","","stimuli/BM04_AO.jpg","",""
"explore-choice","95","267746","0.0-95.0","p915359","A11FRLH5KWRLBV","3WRBLBQ2GSENM5LEFQY1C5PG0GV0GC","3IRIK4HM3CQ86OPI5VN0KZ9HY2I6CR","emotion","mismatch","uniform","","","","","","","5363.699999999255","264774.9000000004","270138.5999999996","[""stimuli/WM13_HE.jpg"",""stimuli/AF10_AO.jpg"",""stimuli/BM04_CC.jpg"",""stimuli/HF04_SUR.jpg""]","stimuli/WM13_HE.jpg","stimuli/AF10_AO.jpg","stimuli/BM04_CC.jpg","stimuli/HF04_SUR.jpg","pos1","stimuli/WM13_HE.jpg","HE","WM13","0","4.5","9","8","stimuli/stars_9.png","159","[""HE"",""AO"",""CC"",""SUR""]","[""WM13"",""AF10"",""BM04"",""HF04""]","[9,4,2,4]","[8,2,4,6]","","",""
"show-reward","96","269763","0.0-96.0","p915359","A11FRLH5KWRLBV","3WRBLBQ2GSENM5LEFQY1C5PG0GV0GC","3IRIK4HM3CQ86OPI5VN0KZ9HY2I6CR","emotion","mismatch","uniform","","","","","","","","270643.9000000004","272660.2000000011","","","","","","","","","","","","9","","stimuli/stars_9.png","159","","","","","stimuli/WM13_HE.jpg","",""
"explore-choice","97","278762","0.0-97.0","p915359","A11FRLH5KWRLBV","3WRBLBQ2GSENM5LEFQY1C5PG0GV0GC","3IRIK4HM3CQ86OPI5VN0KZ9HY2I6CR","emotion","mismatch","uniform","","","","","","","8485.5","272660.7000000011","281146.2000000011","[""stimuli/BM04_SUR.jpg"",""stimuli/HF04_AO.jpg"",""stimuli/WM13_HE.jpg"",""stimuli/AF10_CC.jpg""]","stimuli/BM04_SUR.jpg","stimuli/HF04_AO.jpg","stimuli/WM13_HE.jpg","stimuli/AF10_CC.jpg","pos1","stimuli/BM04_SUR.jpg","SUR","BM04","0","2.5","5","6","stimuli/stars_5.png","161.5","[""SUR"",""AO"",""HE"",""CC""]","[""BM04"",""HF04"",""WM13"",""AF10""]","[5,3,9,3]","[6,2,8,4]","","",""
"show-reward","98","280764","0.0-98.0","p915359","A11FRLH5KWRLBV","3WRBLBQ2GSENM5LEFQY1C5PG0GV0GC","3IRIK4HM3CQ86OPI5VN0KZ9HY2I6CR","emotion","mismatch","uniform","","","","","","","","281659.99999999814","283661.2000000011","","","","","","","","","","","","5","","stimuli/stars_5.png","161.5","","","","","stimuli/BM04_SUR.jpg","",""
"explore-choice","99","281939","0.0-99.0","p915359","A11FRLH5KWRLBV","3WRBLBQ2GSENM5LEFQY1C5PG0GV0GC","3IRIK4HM3CQ86OPI5VN0KZ9HY2I6CR","emotion","mismatch","uniform","","","","","","","661.3000000007451","283661.49999999814","284322.7999999989","[""stimuli/BM04_AO.jpg"",""stimuli/WM13_SUR.jpg"",""stimuli/AF10_HE.jpg"",""stimuli/HF04_CC.jpg""]","stimuli/BM04_AO.jpg","stimuli/WM13_SUR.jpg","stimuli/AF10_HE.jpg","stimuli/HF04_CC.jpg","pos1","stimuli/BM04_AO.jpg","AO","BM04","0","0.5","1","2","stimuli/stars_1.png","162","[""AO"",""SUR"",""HE"",""CC""]","[""BM04"",""WM13"",""AF10"",""HF04""]","[1,4,10,4]","[2,6,8,4]","","",""
"show-reward","100","283940","0.0-100.0","p915359","A11FRLH5KWRLBV","3WRBLBQ2GSENM5LEFQY1C5PG0GV0GC","3IRIK4HM3CQ86OPI5VN0KZ9HY2I6CR","emotion","mismatch","uniform","","","","","","","","284836.5999999996","286837.4000000004","","","","","","","","","","","","1","","stimuli/stars_1.png","162","","","","","stimuli/BM04_AO.jpg","",""
"explore-choice","101","285383","0.0-101.0","p915359","A11FRLH5KWRLBV","3WRBLBQ2GSENM5LEFQY1C5PG0GV0GC","3IRIK4HM3CQ86OPI5VN0KZ9HY2I6CR","emotion","mismatch","uniform","","","","","","","931.8999999985099","286837.9000000004","287769.7999999989","[""stimuli/BM04_HE.jpg"",""stimuli/AF10_SUR.jpg"",""stimuli/HF04_CC.jpg"",""stimuli/WM13_AO.jpg""]","stimuli/BM04_HE.jpg","stimuli/AF10_SUR.jpg","stimuli/HF04_CC.jpg","stimuli/WM13_AO.jpg","pos2","stimuli/AF10_SUR.jpg","SUR","AF10","1","3.5","7","6","stimuli/stars_7.png","165.5","[""HE"",""SUR"",""CC"",""AO""]","[""BM04"",""AF10"",""HF04"",""WM13""]","[8,7,5,2]","[8,6,4,2]","","",""
"show-reward","102","287384","0.0-102.0","p915359","A11FRLH5KWRLBV","3WRBLBQ2GSENM5LEFQY1C5PG0GV0GC","3IRIK4HM3CQ86OPI5VN0KZ9HY2I6CR","emotion","mismatch","uniform","","","","","","","","288280.7999999989","290281.7999999989","","","","","","","","","","","","7","","stimuli/stars_7.png","165.5","","","","","stimuli/AF10_SUR.jpg","",""
"explore-choice","103","289479","0.0-103.0","p915359","A11FRLH5KWRLBV","3WRBLBQ2GSENM5LEFQY1C5PG0GV0GC","3IRIK4HM3CQ86OPI5VN0KZ9HY2I6CR","emotion","mismatch","uniform","","","","","","","1583.4000000022352","290282.2999999989","291865.7000000011","[""stimuli/WM07_FO.jpg"",""stimuli/WM09_HO.jpg"",""stimuli/BM07_DO.jpg"",""stimuli/HF10_SC.jpg""]","stimuli/WM07_FO.jpg","stimuli/WM09_HO.jpg","stimuli/BM07_DO.jpg","stimuli/HF10_SC.jpg","pos2","stimuli/WM09_HO.jpg","HO","WM09","1","2","4","4","stimuli/stars_4.png","167.5","[""FO"",""HO"",""DO"",""SC""]","[""WM07"",""WM09"",""BM07"",""HF10""]","[8,4,1,4]","[8,4,2,6]","","",""
"show-reward","104","291480","0.0-104.0","p915359","A11FRLH5KWRLBV","3WRBLBQ2GSENM5LEFQY1C5PG0GV0GC","3IRIK4HM3CQ86OPI5VN0KZ9HY2I6CR","emotion","mismatch","uniform","","","","","","","","292376.99999999814","294377.9000000004","","","","","","","","","","","","4","","stimuli/stars_4.png","167.5","","","","","stimuli/WM09_HO.jpg","",""
"explore-choice","105","293916","0.0-105.0","p915359","A11FRLH5KWRLBV","3WRBLBQ2GSENM5LEFQY1C5PG0GV0GC","3IRIK4HM3CQ86OPI5VN0KZ9HY2I6CR","emotion","mismatch","uniform","","","","","","","1927.0999999977648","294378.4000000004","296305.49999999814","[""stimuli/BM07_FO.jpg"",""stimuli/WM07_DO.jpg"",""stimuli/WM09_HO.jpg"",""stimuli/HF10_SC.jpg""]","stimuli/BM07_FO.jpg","stimuli/WM07_DO.jpg","stimuli/WM09_HO.jpg","stimuli/HF10_SC.jpg","pos3","stimuli/WM09_HO.jpg","HO","WM09","2","2.5","5","4","stimuli/stars_5.png","170","[""FO"",""DO"",""HO"",""SC""]","[""BM07"",""WM07"",""WM09"",""HF10""]","[0,10,5,6]","[2,8,4,6]","","",""
"show-reward","106","295928","0.0-106.0","p915359","A11FRLH5KWRLBV","3WRBLBQ2GSENM5LEFQY1C5PG0GV0GC","3IRIK4HM3CQ86OPI5VN0KZ9HY2I6CR","emotion","mismatch","uniform","","","","","","","","296813.9000000004","298825.9000000004","","","","","","","","","","","","5","","stimuli/stars_5.png","170","","","","","stimuli/WM09_HO.jpg","",""
"explore-choice","107","298548","0.0-107.0","p915359","A11FRLH5KWRLBV","3WRBLBQ2GSENM5LEFQY1C5PG0GV0GC","3IRIK4HM3CQ86OPI5VN0KZ9HY2I6CR","emotion","mismatch","uniform","","","","","","","2118.89999999851","298826.4000000004","300945.2999999989","[""stimuli/HF10_FO.jpg"",""stimuli/WM07_HO.jpg"",""stimuli/BM07_SC.jpg"",""stimuli/WM09_DO.jpg""]","stimuli/HF10_FO.jpg","stimuli/WM07_HO.jpg","stimuli/BM07_SC.jpg","stimuli/WM09_DO.jpg","pos2","stimuli/WM07_HO.jpg","HO","WM07","1","3","6","8","stimuli/stars_6.png","173","[""FO"",""HO"",""SC"",""DO""]","[""HF10"",""WM07"",""BM07"",""WM09""]","[6,6,3,5]","[6,8,2,4]","","",""
"show-reward","108","300556","0.0-108.0","p915359","A11FRLH5KWRLBV","3WRBLBQ2GSENM5LEFQY1C5PG0GV0GC","3IRIK4HM3CQ86OPI5VN0KZ9HY2I6CR","emotion","mismatch","uniform","","","","","","","","301446.5999999996","303453.7999999989","","","","","","","","","","","","6","","stimuli/stars_6.png","173","","","","","stimuli/WM07_HO.jpg","",""
"explore-choice","109","302366","0.0-109.0","p915359","A11FRLH5KWRLBV","3WRBLBQ2GSENM5LEFQY1C5PG0GV0GC","3IRIK4HM3CQ86OPI5VN0KZ9HY2I6CR","emotion","mismatch","uniform","","","","","","","1298.8999999985099","303454.2000000011","304753.0999999996","[""stimuli/HF10_DO.jpg"",""stimuli/WM09_HO.jpg"",""stimuli/WM07_SC.jpg"",""stimuli/BM07_FO.jpg""]","stimuli/HF10_DO.jpg","stimuli/WM09_HO.jpg","stimuli/WM07_SC.jpg","stimuli/BM07_FO.jpg","pos2","stimuli/WM09_HO.jpg","HO","WM09","1","1","2","4","stimuli/stars_2.png","174","[""DO"",""HO"",""SC"",""FO""]","[""HF10"",""WM09"",""WM07"",""BM07""]","[5,2,6,2]","[6,4,8,2]","","",""
"show-reward","110","304368","0.0-110.0","p915359","A11FRLH5KWRLBV","3WRBLBQ2GSENM5LEFQY1C5PG0GV0GC","3IRIK4HM3CQ86OPI5VN0KZ9HY2I6CR","emotion","mismatch","uniform","","","","","","","","305264.0999999996","307265.7999999989","","","","","","","","","","","","2","","stimuli/stars_2.png","174","","","","","stimuli/WM09_HO.jpg","",""
"explore-choice","111","306727","0.0-111.0","p915359","A11FRLH5KWRLBV","3WRBLBQ2GSENM5LEFQY1C5PG0GV0GC","3IRIK4HM3CQ86OPI5VN0KZ9HY2I6CR","emotion","mismatch","uniform","","","","","","","1846.699999999255","307266.2000000011","309112.9000000004","[""stimuli/BM07_HO.jpg"",""stimuli/WM09_DO.jpg"",""stimuli/WM07_FO.jpg"",""stimuli/HF10_SC.jpg""]","stimuli/BM07_HO.jpg","stimuli/WM09_DO.jpg","stimuli/WM07_FO.jpg","stimuli/HF10_SC.jpg","pos1","stimuli/BM07_HO.jpg","HO","BM07","0","0","0","2","stimuli/stars_0.png","174","[""HO"",""DO"",""FO"",""SC""]","[""BM07"",""WM09"",""WM07"",""HF10""]","[0,2,9,5]","[2,4,8,6]","","",""
"show-reward","112","308728","0.0-112.0","p915359","A11FRLH5KWRLBV","3WRBLBQ2GSENM5LEFQY1C5PG0GV0GC","3IRIK4HM3CQ86OPI5VN0KZ9HY2I6CR","emotion","mismatch","uniform","","","","","","","","309625.2000000011","311625.7999999989","","","","","","","","","","","","0","","stimuli/stars_0.png","174","","","","","stimuli/BM07_HO.jpg","",""
"explore-choice","113","310052","0.0-113.0","p915359","A11FRLH5KWRLBV","3WRBLBQ2GSENM5LEFQY1C5PG0GV0GC","3IRIK4HM3CQ86OPI5VN0KZ9HY2I6CR","emotion","mismatch","uniform","","","","","","","822.4000000022352","311626.2999999989","312448.7000000011","[""stimuli/WM07_DO.jpg"",""stimuli/WM09_HO.jpg"",""stimuli/BM07_SC.jpg"",""stimuli/HF10_FO.jpg""]","stimuli/WM07_DO.jpg","stimuli/WM09_HO.jpg","stimuli/BM07_SC.jpg","stimuli/HF10_FO.jpg","pos2","stimuli/WM09_HO.jpg","HO","WM09","1","1","2","4","stimuli/stars_2.png","175","[""DO"",""HO"",""SC"",""FO""]","[""WM07"",""WM09"",""BM07"",""HF10""]","[10,2,4,7]","[8,4,2,6]","","",""
"show-reward","114","312068","0.0-114.0","p915359","A11FRLH5KWRLBV","3WRBLBQ2GSENM5LEFQY1C5PG0GV0GC","3IRIK4HM3CQ86OPI5VN0KZ9HY2I6CR","emotion","mismatch","uniform","","","","","","","","312950.0999999996","314966.0999999996","","","","","","","","","","","","2","","stimuli/stars_2.png","175","","","","","stimuli/WM09_HO.jpg","",""
"explore-choice","115","313684","0.0-115.0","p915359","A11FRLH5KWRLBV","3WRBLBQ2GSENM5LEFQY1C5PG0GV0GC","3IRIK4HM3CQ86OPI5VN0KZ9HY2I6CR","emotion","mismatch","uniform","","","","","","","1114.1000000014901","314966.49999999814","316080.5999999996","[""stimuli/WM07_HO.jpg"",""stimuli/HF10_SC.jpg"",""stimuli/BM07_FO.jpg"",""stimuli/WM09_DO.jpg""]","stimuli/WM07_HO.jpg","stimuli/HF10_SC.jpg","stimuli/BM07_FO.jpg","stimuli/WM09_DO.jpg","pos3","stimuli/BM07_FO.jpg","FO","BM07","2","1.5","3","2","stimuli/stars_3.png","176.5","[""HO"",""SC"",""FO"",""DO""]","[""WM07"",""HF10"",""BM07"",""WM09""]","[9,8,3,3]","[8,6,2,4]","","",""
"show-reward","116","315699","0.0-116.0","p915359","A11FRLH5KWRLBV","3WRBLBQ2GSENM5LEFQY1C5PG0GV0GC","3IRIK4HM3CQ86OPI5VN0KZ9HY2I6CR","emotion","mismatch","uniform","","","","","","","","316582.2999999989","318596.49999999814","","","","","","","","","","","","3","","stimuli/stars_3.png","176.5","","","","","stimuli/BM07_FO.jpg","",""
"explore-choice","117","317111","0.0-117.0","p915359","A11FRLH5KWRLBV","3WRBLBQ2GSENM5LEFQY1C5PG0GV0GC","3IRIK4HM3CQ86OPI5VN0KZ9HY2I6CR","emotion","mismatch","uniform","","","","","","","907.5999999977648","318596.9000000004","319504.49999999814","[""stimuli/BM07_HO.jpg"",""stimuli/WM07_SC.jpg"",""stimuli/HF10_DO.jpg"",""stimuli/WM09_FO.jpg""]","stimuli/BM07_HO.jpg","stimuli/WM07_SC.jpg","stimuli/HF10_DO.jpg","stimuli/WM09_FO.jpg","pos1","stimuli/BM07_HO.jpg","HO","BM07","0","0","0","2","stimuli/stars_0.png","176.5","[""HO"",""SC"",""DO"",""FO""]","[""BM07"",""WM07"",""HF10"",""WM09""]","[0,6,4,2]","[2,8,6,4]","","",""
"show-reward","118","319113","0.0-118.0","p915359","A11FRLH5KWRLBV","3WRBLBQ2GSENM5LEFQY1C5PG0GV0GC","3IRIK4HM3CQ86OPI5VN0KZ9HY2I6CR","emotion","mismatch","uniform","","","","","","","","320009.5999999996","322011.0999999996","","","","","","","","","","","","0","","stimuli/stars_0.png","176.5","","","","","stimuli/BM07_HO.jpg","",""
"explore-choice","119","321075","0.0-119.0","p915359","A11FRLH5KWRLBV","3WRBLBQ2GSENM5LEFQY1C5PG0GV0GC","3IRIK4HM3CQ86OPI5VN0KZ9HY2I6CR","emotion","mismatch","uniform","","","","","","","1460.800000000745","322011.49999999814","323472.2999999989","[""stimuli/WM09_FO.jpg"",""stimuli/HF10_SC.jpg"",""stimuli/WM07_HO.jpg"",""stimuli/BM07_DO.jpg""]","stimuli/WM09_FO.jpg","stimuli/HF10_SC.jpg","stimuli/WM07_HO.jpg","stimuli/BM07_DO.jpg","pos3","stimuli/WM07_HO.jpg","HO","WM07","2","4","8","8","stimuli/stars_8.png","180.5","[""FO"",""SC"",""HO"",""DO""]","[""WM09"",""HF10"",""WM07"",""BM07""]","[4,7,8,0]","[4,6,8,2]","","",""
"show-reward","120","323082","0.0-120.0","p915359","A11FRLH5KWRLBV","3WRBLBQ2GSENM5LEFQY1C5PG0GV0GC","3IRIK4HM3CQ86OPI5VN0KZ9HY2I6CR","emotion","mismatch","uniform","","","","","","","","323973.5999999996","325979.5999999996","","","","","","","","","","","","8","","stimuli/stars_8.png","180.5","","","","","stimuli/WM07_HO.jpg","",""
"explore-choice","121","324910","0.0-121.0","p915359","A11FRLH5KWRLBV","3WRBLBQ2GSENM5LEFQY1C5PG0GV0GC","3IRIK4HM3CQ86OPI5VN0KZ9HY2I6CR","emotion","mismatch","uniform","","","","","","","1316.1000000014901","325979.99999999814","327296.0999999996","[""stimuli/WM09_SC.jpg"",""stimuli/BM07_FO.jpg"",""stimuli/WM07_DO.jpg"",""stimuli/HF10_HO.jpg""]","stimuli/WM09_SC.jpg","stimuli/BM07_FO.jpg","stimuli/WM07_DO.jpg","stimuli/HF10_HO.jpg","pos1","stimuli/WM09_SC.jpg","SC","WM09","0","3","6","4","stimuli/stars_6.png","183.5","[""SC"",""FO"",""DO"",""HO""]","[""WM09"",""BM07"",""WM07"",""HF10""]","[6,2,10,6]","[4,2,8,6]","","",""
"show-reward","122","326926","0.0-122.0","p915359","A11FRLH5KWRLBV","3WRBLBQ2GSENM5LEFQY1C5PG0GV0GC","3IRIK4HM3CQ86OPI5VN0KZ9HY2I6CR","emotion","mismatch","uniform","","","","","","","","327808.7000000011","329823.5999999996","","","","","","","","","","","","6","","stimuli/stars_6.png","183.5","","","","","stimuli/WM09_SC.jpg","",""
"explore-choice","123","328336","0.0-123.0","p915359","A11FRLH5KWRLBV","3WRBLBQ2GSENM5LEFQY1C5PG0GV0GC","3IRIK4HM3CQ86OPI5VN0KZ9HY2I6CR","emotion","mismatch","uniform","","","","","","","896.1999999992549","329824.0999999996","330720.2999999989","[""stimuli/HF10_DO.jpg"",""stimuli/WM09_SC.jpg"",""stimuli/BM07_FO.jpg"",""stimuli/WM07_HO.jpg""]","stimuli/HF10_DO.jpg","stimuli/WM09_SC.jpg","stimuli/BM07_FO.jpg","stimuli/WM07_HO.jpg","pos1","stimuli/HF10_DO.jpg","DO","HF10","0","4","8","6","stimuli/stars_8.png","187.5","[""DO"",""SC"",""FO"",""HO""]","[""HF10"",""WM09"",""BM07"",""WM07""]","[8,2,2,9]","[6,4,2,8]","","",""
"show-reward","124","330337","0.0-124.0","p915359","A11FRLH5KWRLBV","3WRBLBQ2GSENM5LEFQY1C5PG0GV0GC","3IRIK4HM3CQ86OPI5VN0KZ9HY2I6CR","emotion","mismatch","uniform","","","","","","","","331233.7999999989","333235.2999999989","","","","","","","","","","","","8","","stimuli/stars_8.png","187.5","","","","","stimuli/HF10_DO.jpg","",""
"explore-choice","125","331211","0.0-125.0","p915359","A11FRLH5KWRLBV","3WRBLBQ2GSENM5LEFQY1C5PG0GV0GC","3IRIK4HM3CQ86OPI5VN0KZ9HY2I6CR","emotion","mismatch","uniform","","","","","","","364.0999999977648","333235.7000000011","333599.7999999989","[""stimuli/WM07_HO.jpg"",""stimuli/BM07_SC.jpg"",""stimuli/WM09_FO.jpg"",""stimuli/HF10_DO.jpg""]","stimuli/WM07_HO.jpg","stimuli/BM07_SC.jpg","stimuli/WM09_FO.jpg","stimuli/HF10_DO.jpg","pos4","stimuli/HF10_DO.jpg","DO","HF10","3","2","4","6","stimuli/stars_4.png","189.5","[""HO"",""SC"",""FO"",""DO""]","[""WM07"",""BM07"",""WM09"",""HF10""]","[7,0,5,4]","[8,2,4,6]","","",""
"show-reward","126","333212","0.0-126.0","p915359","A11FRLH5KWRLBV","3WRBLBQ2GSENM5LEFQY1C5PG0GV0GC","3IRIK4HM3CQ86OPI5VN0KZ9HY2I6CR","emotion","mismatch","uniform","","","","","","","","334108.7000000011","336109.49999999814","","","","","","","","","","","","4","","stimuli/stars_4.png","189.5","","","","","stimuli/HF10_DO.jpg","",""
"explore-choice","127","334082","0.0-127.0","p915359","A11FRLH5KWRLBV","3WRBLBQ2GSENM5LEFQY1C5PG0GV0GC","3IRIK4HM3CQ86OPI5VN0KZ9HY2I6CR","emotion","mismatch","uniform","","","","","","","361.9000000022352","336109.7999999989","336471.7000000011","[""stimuli/WM09_FO.jpg"",""stimuli/BM07_HO.jpg"",""stimuli/WM07_DO.jpg"",""stimuli/HF10_SC.jpg""]","stimuli/WM09_FO.jpg","stimuli/BM07_HO.jpg","stimuli/WM07_DO.jpg","stimuli/HF10_SC.jpg","pos2","stimuli/BM07_HO.jpg","HO","BM07","1","0.5","1","2","stimuli/stars_1.png","190","[""FO"",""HO"",""DO"",""SC""]","[""WM09"",""BM07"",""WM07"",""HF10""]","[5,1,7,5]","[4,2,8,6]","","",""
"show-reward","128","336083","0.0-128.0","p915359","A11FRLH5KWRLBV","3WRBLBQ2GSENM5LEFQY1C5PG0GV0GC","3IRIK4HM3CQ86OPI5VN0KZ9HY2I6CR","emotion","mismatch","uniform","","","","","","","","336980.49999999814","338981.2999999989","","","","","","","","","","","","1","","stimuli/stars_1.png","190","","","","","stimuli/BM07_HO.jpg","",""
"explore-choice","129","337036","0.0-129.0","p915359","A11FRLH5KWRLBV","3WRBLBQ2GSENM5LEFQY1C5PG0GV0GC","3IRIK4HM3CQ86OPI5VN0KZ9HY2I6CR","emotion","mismatch","uniform","","","","","","","441.79999999701977","338981.7000000011","339423.49999999814","[""stimuli/HF10_DO.jpg"",""stimuli/BM07_SC.jpg"",""stimuli/WM09_HO.jpg"",""stimuli/WM07_FO.jpg""]","stimuli/HF10_DO.jpg","stimuli/BM07_SC.jpg","stimuli/WM09_HO.jpg","stimuli/WM07_FO.jpg","pos1","stimuli/HF10_DO.jpg","DO","HF10","0","4","8","6","stimuli/stars_8.png","194","[""DO"",""SC"",""HO"",""FO""]","[""HF10"",""BM07"",""WM09"",""WM07""]","[8,1,5,9]","[6,2,4,8]","","",""
"show-reward","130","339037","0.0-130.0","p915359","A11FRLH5KWRLBV","3WRBLBQ2GSENM5LEFQY1C5PG0GV0GC","3IRIK4HM3CQ86OPI5VN0KZ9HY2I6CR","emotion","mismatch","uniform","","","","","","","","339933.7000000011","341934.5999999996","","","","","","","","","","","","8","","stimuli/stars_8.png","194","","","","","stimuli/HF10_DO.jpg","",""
"explore-choice","131","340346","0.0-131.0","p915359","A11FRLH5KWRLBV","3WRBLBQ2GSENM5LEFQY1C5PG0GV0GC","3IRIK4HM3CQ86OPI5VN0KZ9HY2I6CR","emotion","mismatch","uniform","","","","","","","808.3000000007451","341935.0999999996","342743.4000000004","[""stimuli/HF10_HO.jpg"",""stimuli/BM07_FO.jpg"",""stimuli/WM07_SC.jpg"",""stimuli/WM09_DO.jpg""]","stimuli/HF10_HO.jpg","stimuli/BM07_FO.jpg","stimuli/WM07_SC.jpg","stimuli/WM09_DO.jpg","pos3","stimuli/WM07_SC.jpg","SC","WM07","2","5","10","8","stimuli/stars_10.png","199","[""HO"",""FO"",""SC"",""DO""]","[""HF10"",""BM07"",""WM07"",""WM09""]","[7,0,10,4]","[6,2,8,4]","","",""
"show-reward","132","342347","0.0-132.0","p915359","A11FRLH5KWRLBV","3WRBLBQ2GSENM5LEFQY1C5PG0GV0GC","3IRIK4HM3CQ86OPI5VN0KZ9HY2I6CR","emotion","mismatch","uniform","","","","","","","","343243.9000000004","345244.49999999814","","","","","","","","","","","","10","","stimuli/stars_10.png","199","","","","","stimuli/WM07_SC.jpg","",""
"explore-choice","133","343354","0.0-133.0","p915359","A11FRLH5KWRLBV","3WRBLBQ2GSENM5LEFQY1C5PG0GV0GC","3IRIK4HM3CQ86OPI5VN0KZ9HY2I6CR","emotion","mismatch","uniform","","","","","","","506.20000000298023","345244.99999999814","345751.2000000011","[""stimuli/WM07_SC.jpg"",""stimuli/BM07_DO.jpg"",""stimuli/WM09_FO.jpg"",""stimuli/HF10_HO.jpg""]","stimuli/WM07_SC.jpg","stimuli/BM07_DO.jpg","stimuli/WM09_FO.jpg","stimuli/HF10_HO.jpg","pos1","stimuli/WM07_SC.jpg","SC","WM07","0","3","6","8","stimuli/stars_6.png","202","[""SC"",""DO"",""FO"",""HO""]","[""WM07"",""BM07"",""WM09"",""HF10""]","[6,2,3,8]","[8,2,4,6]","","",""
"show-reward","134","345355","0.0-134.0","p915359","A11FRLH5KWRLBV","3WRBLBQ2GSENM5LEFQY1C5PG0GV0GC","3IRIK4HM3CQ86OPI5VN0KZ9HY2I6CR","emotion","mismatch","uniform","","","","","","","","346251.9000000004","348252.99999999814","","","","","","","","","","","","6","","stimuli/stars_6.png","202","","","","","stimuli/WM07_SC.jpg","",""
"explore-choice","135","346266","0.0-135.0","p915359","A11FRLH5KWRLBV","3WRBLBQ2GSENM5LEFQY1C5PG0GV0GC","3IRIK4HM3CQ86OPI5VN0KZ9HY2I6CR","emotion","mismatch","uniform","","","","","","","409.9000000022352","348253.2999999989","348663.2000000011","[""stimuli/BM07_DO.jpg"",""stimuli/WM07_SC.jpg"",""stimuli/WM09_HO.jpg"",""stimuli/HF10_FO.jpg""]","stimuli/BM07_DO.jpg","stimuli/WM07_SC.jpg","stimuli/WM09_HO.jpg","stimuli/HF10_FO.jpg","pos3","stimuli/WM09_HO.jpg","HO","WM09","2","2.5","5","4","stimuli/stars_5.png","204.5","[""DO"",""SC"",""HO"",""FO""]","[""BM07"",""WM07"",""WM09"",""HF10""]","[1,7,5,4]","[2,8,4,6]","","",""
"show-reward","136","348278","0.0-136.0","p915359","A11FRLH5KWRLBV","3WRBLBQ2GSENM5LEFQY1C5PG0GV0GC","3IRIK4HM3CQ86OPI5VN0KZ9HY2I6CR","emotion","mismatch","uniform","","","","","","","","349164.49999999814","351176.2000000011","","","","","","","","","","","","5","","stimuli/stars_5.png","204.5","","","","","stimuli/WM09_HO.jpg","",""
"explore-choice","137","349418","0.0-137.0","p915359","A11FRLH5KWRLBV","3WRBLBQ2GSENM5LEFQY1C5PG0GV0GC","3IRIK4HM3CQ86OPI5VN0KZ9HY2I6CR","emotion","mismatch","uniform","","","","","","","638.3999999985099","351176.5999999996","351814.99999999814","[""stimuli/WM07_FO.jpg"",""stimuli/BM07_DO.jpg"",""stimuli/WM09_SC.jpg"",""stimuli/HF10_HO.jpg""]","stimuli/WM07_FO.jpg","stimuli/BM07_DO.jpg","stimuli/WM09_SC.jpg","stimuli/HF10_HO.jpg","pos1","stimuli/WM07_FO.jpg","FO","WM07","0","5","10","8","stimuli/stars_10.png","209.5","[""FO"",""DO"",""SC"",""HO""]","[""WM07"",""BM07"",""WM09"",""HF10""]","[10,4,6,8]","[8,2,4,6]","","",""
"show-reward","138","351420","0.0-138.0","p915359","A11FRLH5KWRLBV","3WRBLBQ2GSENM5LEFQY1C5PG0GV0GC","3IRIK4HM3CQ86OPI5VN0KZ9HY2I6CR","emotion","mismatch","uniform","","","","","","","","352316.2000000011","354317.99999999814","","","","","","","","","","","","10","","stimuli/stars_10.png","209.5","","","","","stimuli/WM07_FO.jpg","",""
"explore-choice","139","352322","0.0-139.0","p915359","A11FRLH5KWRLBV","3WRBLBQ2GSENM5LEFQY1C5PG0GV0GC","3IRIK4HM3CQ86OPI5VN0KZ9HY2I6CR","emotion","mismatch","uniform","","","","","","","400.5","354318.2999999989","354718.7999999989","[""stimuli/WM09_FO.jpg"",""stimuli/BM07_SC.jpg"",""stimuli/WM07_DO.jpg"",""stimuli/HF10_HO.jpg""]","stimuli/WM09_FO.jpg","stimuli/BM07_SC.jpg","stimuli/WM07_DO.jpg","stimuli/HF10_HO.jpg","pos4","stimuli/HF10_HO.jpg","HO","HF10","3","2","4","6","stimuli/stars_4.png","211.5","[""FO"",""SC"",""DO"",""HO""]","[""WM09"",""BM07"",""WM07"",""HF10""]","[3,0,9,4]","[4,2,8,6]","","",""
"show-reward","140","354336","0.0-140.0","p915359","A11FRLH5KWRLBV","3WRBLBQ2GSENM5LEFQY1C5PG0GV0GC","3IRIK4HM3CQ86OPI5VN0KZ9HY2I6CR","emotion","mismatch","uniform","","","","","","","","355220.0999999996","357233.4000000004","","","","","","","","","","","","4","","stimuli/stars_4.png","211.5","","","","","stimuli/HF10_HO.jpg","",""
"explore-choice","141","356045","0.0-141.0","p915359","A11FRLH5KWRLBV","3WRBLBQ2GSENM5LEFQY1C5PG0GV0GC","3IRIK4HM3CQ86OPI5VN0KZ9HY2I6CR","emotion","mismatch","uniform","","","","","","","1197.5","357233.9000000004","358431.4000000004","[""stimuli/WM07_FO.jpg"",""stimuli/HF10_DO.jpg"",""stimuli/WM09_SC.jpg"",""stimuli/BM07_HO.jpg""]","stimuli/WM07_FO.jpg","stimuli/HF10_DO.jpg","stimuli/WM09_SC.jpg","stimuli/BM07_HO.jpg","pos1","stimuli/WM07_FO.jpg","FO","WM07","0","4.5","9","8","stimuli/stars_9.png","216","[""FO"",""DO"",""SC"",""HO""]","[""WM07"",""HF10"",""WM09"",""BM07""]","[9,6,4,2]","[8,6,4,2]","","",""
"show-reward","142","358047","0.0-142.0","p915359","A11FRLH5KWRLBV","3WRBLBQ2GSENM5LEFQY1C5PG0GV0GC","3IRIK4HM3CQ86OPI5VN0KZ9HY2I6CR","emotion","mismatch","uniform","","","","","","","","358942.9000000004","360944.4000000004","","","","","","","","","","","","9","","stimuli/stars_9.png","216","","","","","stimuli/WM07_FO.jpg","",""
"explore-choice","143","359909","0.0-143.0","p915359","A11FRLH5KWRLBV","3WRBLBQ2GSENM5LEFQY1C5PG0GV0GC","3IRIK4HM3CQ86OPI5VN0KZ9HY2I6CR","emotion","mismatch","uniform","","","","","","","1357.699999999255","360944.7999999989","362302.49999999814","[""stimuli/BM07_SC.jpg"",""stimuli/WM09_DO.jpg"",""stimuli/WM07_FO.jpg"",""stimuli/HF10_HO.jpg""]","stimuli/BM07_SC.jpg","stimuli/WM09_DO.jpg","stimuli/WM07_FO.jpg","stimuli/HF10_HO.jpg","pos3","stimuli/WM07_FO.jpg","FO","WM07","2","4","8","8","stimuli/stars_8.png","220","[""SC"",""DO"",""FO"",""HO""]","[""BM07"",""WM09"",""WM07"",""HF10""]","[4,5,8,4]","[2,4,8,6]","","",""
"show-reward","144","361920","0.0-144.0","p915359","A11FRLH5KWRLBV","3WRBLBQ2GSENM5LEFQY1C5PG0GV0GC","3IRIK4HM3CQ86OPI5VN0KZ9HY2I6CR","emotion","mismatch","uniform","","","","","","","","362807.4000000004","364817.7999999989","","","","","","","","","","","","8","","stimuli/stars_8.png","220","","","","","stimuli/WM07_FO.jpg","",""
"explore-choice","145","363609","0.0-145.0","p915359","A11FRLH5KWRLBV","3WRBLBQ2GSENM5LEFQY1C5PG0GV0GC","3IRIK4HM3CQ86OPI5VN0KZ9HY2I6CR","emotion","mismatch","uniform","","","","","","","1180","364818.2999999989","365998.2999999989","[""stimuli/WM07_DO.jpg"",""stimuli/WM09_SC.jpg"",""stimuli/HF10_FO.jpg"",""stimuli/BM07_HO.jpg""]","stimuli/WM07_DO.jpg","stimuli/WM09_SC.jpg","stimuli/HF10_FO.jpg","stimuli/BM07_HO.jpg","pos1","stimuli/WM07_DO.jpg","DO","WM07","0","4.5","9","8","stimuli/stars_9.png","224.5","[""DO"",""SC"",""FO"",""HO""]","[""WM07"",""WM09"",""HF10"",""BM07""]","[9,5,7,4]","[8,4,6,2]","","",""
"show-reward","146","365620","0.0-146.0","p915359","A11FRLH5KWRLBV","3WRBLBQ2GSENM5LEFQY1C5PG0GV0GC","3IRIK4HM3CQ86OPI5VN0KZ9HY2I6CR","emotion","mismatch","uniform","","","","","","","","366506.7000000011","368517.9000000004","","","","","","","","","","","","9","","stimuli/stars_9.png","224.5","","","","","stimuli/WM07_DO.jpg","",""
"explore-choice","147","368296","0.0-147.0","p915359","A11FRLH5KWRLBV","3WRBLBQ2GSENM5LEFQY1C5PG0GV0GC","3IRIK4HM3CQ86OPI5VN0KZ9HY2I6CR","emotion","mismatch","uniform","","","","","","","2159.800000000745","368518.4000000004","370678.2000000011","[""stimuli/WM07_HO.jpg"",""stimuli/WM09_SC.jpg"",""stimuli/BM07_DO.jpg"",""stimuli/HF10_FO.jpg""]","stimuli/WM07_HO.jpg","stimuli/WM09_SC.jpg","stimuli/BM07_DO.jpg","stimuli/HF10_FO.jpg","pos4","stimuli/HF10_FO.jpg","FO","HF10","3","3","6","6","stimuli/stars_6.png","227.5","[""HO"",""SC"",""DO"",""FO""]","[""WM07"",""WM09"",""BM07"",""HF10""]","[7,2,3,6]","[8,4,2,6]","","",""
"show-reward","148","370303","0.0-148.0","p915359","A11FRLH5KWRLBV","3WRBLBQ2GSENM5LEFQY1C5PG0GV0GC","3IRIK4HM3CQ86OPI5VN0KZ9HY2I6CR","emotion","mismatch","uniform","","","","","","","","371194.2999999989","373201.0999999996","","","","","","","","","","","","6","","stimuli/stars_6.png","227.5","","","","","stimuli/HF10_FO.jpg","",""
"explore-choice","149","375116","0.0-149.0","p915359","A11FRLH5KWRLBV","3WRBLBQ2GSENM5LEFQY1C5PG0GV0GC","3IRIK4HM3CQ86OPI5VN0KZ9HY2I6CR","emotion","mismatch","uniform","","","","","","","4308.199999999255","373201.5999999996","377509.7999999989","[""stimuli/HF10_FO.jpg"",""stimuli/WM09_DO.jpg"",""stimuli/BM07_HO.jpg"",""stimuli/WM07_SC.jpg""]","stimuli/HF10_FO.jpg","stimuli/WM09_DO.jpg","stimuli/BM07_HO.jpg","stimuli/WM07_SC.jpg","pos1","stimuli/HF10_FO.jpg","FO","HF10","0","3.5","7","6","stimuli/stars_7.png","231","[""FO"",""DO"",""HO"",""SC""]","[""HF10"",""WM09"",""BM07"",""WM07""]","[7,5,4,9]","[6,4,2,8]","","",""
"show-reward","150","377118","0.0-150.0","p915359","A11FRLH5KWRLBV","3WRBLBQ2GSENM5LEFQY1C5PG0GV0GC","3IRIK4HM3CQ86OPI5VN0KZ9HY2I6CR","emotion","mismatch","uniform","","","","","","","","378013.99999999814","380015.5999999996","","","","","","","","","","","","7","","stimuli/stars_7.png","231","","","","","stimuli/HF10_FO.jpg","",""
"explore-choice","151","378433","0.0-151.0","p915359","A11FRLH5KWRLBV","3WRBLBQ2GSENM5LEFQY1C5PG0GV0GC","3IRIK4HM3CQ86OPI5VN0KZ9HY2I6CR","emotion","mismatch","uniform","","","","","","","813.6999999992549","380016.0999999996","380829.7999999989","[""stimuli/HF10_FO.jpg"",""stimuli/BM07_DO.jpg"",""stimuli/WM07_HO.jpg"",""stimuli/WM09_SC.jpg""]","stimuli/HF10_FO.jpg","stimuli/BM07_DO.jpg","stimuli/WM07_HO.jpg","stimuli/WM09_SC.jpg","pos2","stimuli/BM07_DO.jpg","DO","BM07","1","1.5","3","2","stimuli/stars_3.png","232.5","[""FO"",""DO"",""HO"",""SC""]","[""HF10"",""BM07"",""WM07"",""WM09""]","[6,3,7,2]","[6,2,8,4]","","",""
"show-reward","152","380437","0.0-152.0","p915359","A11FRLH5KWRLBV","3WRBLBQ2GSENM5LEFQY1C5PG0GV0GC","3IRIK4HM3CQ86OPI5VN0KZ9HY2I6CR","emotion","mismatch","uniform","","","","","","","","381330.7000000011","383334.7999999989","","","","","","","","","","","","3","","stimuli/stars_3.png","232.5","","","","","stimuli/BM07_DO.jpg","",""
"explore-choice","153","383657","0.0-153.0","p915359","A11FRLH5KWRLBV","3WRBLBQ2GSENM5LEFQY1C5PG0GV0GC","3IRIK4HM3CQ86OPI5VN0KZ9HY2I6CR","emotion","mismatch","uniform","","","","","","","2718.199999999255","383335.2000000011","386053.4000000004","[""stimuli/BM07_SC.jpg"",""stimuli/HF10_HO.jpg"",""stimuli/WM09_FO.jpg"",""stimuli/WM07_DO.jpg""]","stimuli/BM07_SC.jpg","stimuli/HF10_HO.jpg","stimuli/WM09_FO.jpg","stimuli/WM07_DO.jpg","pos4","stimuli/WM07_DO.jpg","DO","WM07","3","4.5","9","8","stimuli/stars_9.png","237","[""SC"",""HO"",""FO"",""DO""]","[""BM07"",""HF10"",""WM09"",""WM07""]","[0,4,3,9]","[2,6,4,8]","","",""
"show-reward","154","385666","0.0-154.0","p915359","A11FRLH5KWRLBV","3WRBLBQ2GSENM5LEFQY1C5PG0GV0GC","3IRIK4HM3CQ86OPI5VN0KZ9HY2I6CR","emotion","mismatch","uniform","","","","","","","","386554.7999999989","388563.2999999989","","","","","","","","","","","","9","","stimuli/stars_9.png","237","","","","","stimuli/WM07_DO.jpg","",""
"explore-choice","155","387098","0.0-155.0","p915359","A11FRLH5KWRLBV","3WRBLBQ2GSENM5LEFQY1C5PG0GV0GC","3IRIK4HM3CQ86OPI5VN0KZ9HY2I6CR","emotion","mismatch","uniform","","","","","","","921.5999999977648","388563.7000000011","389485.2999999989","[""stimuli/WM09_SC.jpg"",""stimuli/WM07_DO.jpg"",""stimuli/HF10_HO.jpg"",""stimuli/BM07_FO.jpg""]","stimuli/WM09_SC.jpg","stimuli/WM07_DO.jpg","stimuli/HF10_HO.jpg","stimuli/BM07_FO.jpg","pos1","stimuli/WM09_SC.jpg","SC","WM09","0","3","6","4","stimuli/stars_6.png","240","[""SC"",""DO"",""HO"",""FO""]","[""WM09"",""WM07"",""HF10"",""BM07""]","[6,10,6,2]","[4,8,6,2]","","",""
"show-reward","156","389114","0.0-156.0","p915359","A11FRLH5KWRLBV","3WRBLBQ2GSENM5LEFQY1C5PG0GV0GC","3IRIK4HM3CQ86OPI5VN0KZ9HY2I6CR","emotion","mismatch","uniform","","","","","","","","389995.99999999814","392011.2000000011","","","","","","","","","","","","6","","stimuli/stars_6.png","240","","","","","stimuli/WM09_SC.jpg","",""
"explore-choice","157","391171","0.0-157.0","p915359","A11FRLH5KWRLBV","3WRBLBQ2GSENM5LEFQY1C5PG0GV0GC","3IRIK4HM3CQ86OPI5VN0KZ9HY2I6CR","emotion","mismatch","uniform","","","","","","","1545.5","392011.7000000011","393557.2000000011","[""stimuli/BM07_FO.jpg"",""stimuli/WM07_SC.jpg"",""stimuli/HF10_DO.jpg"",""stimuli/WM09_HO.jpg""]","stimuli/BM07_FO.jpg","stimuli/WM07_SC.jpg","stimuli/HF10_DO.jpg","stimuli/WM09_HO.jpg","pos4","stimuli/WM09_HO.jpg","HO","WM09","3","1","2","4","stimuli/stars_2.png","241","[""FO"",""SC"",""DO"",""HO""]","[""BM07"",""WM07"",""HF10"",""WM09""]","[2,6,5,2]","[2,8,6,4]","","",""
"show-reward","158","393178","0.0-158.0","p915359","A11FRLH5KWRLBV","3WRBLBQ2GSENM5LEFQY1C5PG0GV0GC","3IRIK4HM3CQ86OPI5VN0KZ9HY2I6CR","emotion","mismatch","uniform","","","","","","","","394069.49999999814","396075.5999999996","","","","","","","","","","","","2","","stimuli/stars_2.png","241","","","","","stimuli/WM09_HO.jpg","",""
"explore-choice","159","395659","0.0-159.0","p915359","A11FRLH5KWRLBV","3WRBLBQ2GSENM5LEFQY1C5PG0GV0GC","3IRIK4HM3CQ86OPI5VN0KZ9HY2I6CR","emotion","mismatch","uniform","","","","","","","1968.800000000745","396076.0999999996","398044.9000000004","[""stimuli/WM07_SC.jpg"",""stimuli/WM09_DO.jpg"",""stimuli/HF10_FO.jpg"",""stimuli/BM07_HO.jpg""]","stimuli/WM07_SC.jpg","stimuli/WM09_DO.jpg","stimuli/HF10_FO.jpg","stimuli/BM07_HO.jpg","pos2","stimuli/WM09_DO.jpg","DO","WM09","1","2.5","5","4","stimuli/stars_5.png","243.5","[""SC"",""DO"",""FO"",""HO""]","[""WM07"",""WM09"",""HF10"",""BM07""]","[9,5,7,4]","[8,4,6,2]","","",""
"show-reward","160","397664","0.0-160.0","p915359","A11FRLH5KWRLBV","3WRBLBQ2GSENM5LEFQY1C5PG0GV0GC","3IRIK4HM3CQ86OPI5VN0KZ9HY2I6CR","emotion","mismatch","uniform","","","","","","","","398556.7999999989","400561.49999999814","","","","","","","","","","","","5","","stimuli/stars_5.png","243.5","","","","","stimuli/WM09_DO.jpg","",""
"explore-choice","161","400050","0.0-161.0","p915359","A11FRLH5KWRLBV","3WRBLBQ2GSENM5LEFQY1C5PG0GV0GC","3IRIK4HM3CQ86OPI5VN0KZ9HY2I6CR","emotion","mismatch","uniform","","","","","","","1883.300000000745","400561.9000000004","402445.2000000011","[""stimuli/WM07_SC.jpg"",""stimuli/HF10_DO.jpg"",""stimuli/WM09_FO.jpg"",""stimuli/BM07_HO.jpg""]","stimuli/WM07_SC.jpg","stimuli/HF10_DO.jpg","stimuli/WM09_FO.jpg","stimuli/BM07_HO.jpg","pos3","stimuli/WM09_FO.jpg","FO","WM09","2","1","2","4","stimuli/stars_2.png","244.5","[""SC"",""DO"",""FO"",""HO""]","[""WM07"",""HF10"",""WM09"",""BM07""]","[6,4,2,0]","[8,6,4,2]","","",""
"show-reward","162","402063","0.0-162.0","p915359","A11FRLH5KWRLBV","3WRBLBQ2GSENM5LEFQY1C5PG0GV0GC","3IRIK4HM3CQ86OPI5VN0KZ9HY2I6CR","emotion","mismatch","uniform","","","","","","","","402947.5999999996","404961.2000000011","","","","","","","","","","","","2","","stimuli/stars_2.png","244.5","","","","","stimuli/WM09_FO.jpg","",""
"explore-choice","163","410858","0.0-163.0","p915359","A11FRLH5KWRLBV","3WRBLBQ2GSENM5LEFQY1C5PG0GV0GC","3IRIK4HM3CQ86OPI5VN0KZ9HY2I6CR","emotion","mismatch","uniform","","","","","","","8283.39999999851","404961.5999999996","413244.99999999814","[""stimuli/HF10_SC.jpg"",""stimuli/WM07_HO.jpg"",""stimuli/BM07_DO.jpg"",""stimuli/WM09_FO.jpg""]","stimuli/HF10_SC.jpg","stimuli/WM07_HO.jpg","stimuli/BM07_DO.jpg","stimuli/WM09_FO.jpg","pos2","stimuli/WM07_HO.jpg","HO","WM07","1","4","8","8","stimuli/stars_8.png","248.5","[""SC"",""HO"",""DO"",""FO""]","[""HF10"",""WM07"",""BM07"",""WM09""]","[7,8,0,4]","[6,8,2,4]","","",""
"show-reward","164","412862","0.0-164.0","p915359","A11FRLH5KWRLBV","3WRBLBQ2GSENM5LEFQY1C5PG0GV0GC","3IRIK4HM3CQ86OPI5VN0KZ9HY2I6CR","emotion","mismatch","uniform","","","","","","","","413755.9000000004","415759.9000000004","","","","","","","","","","","","8","","stimuli/stars_8.png","248.5","","","","","stimuli/WM07_HO.jpg","",""
"explore-choice","165","417519","0.0-165.0","p915359","A11FRLH5KWRLBV","3WRBLBQ2GSENM5LEFQY1C5PG0GV0GC","3IRIK4HM3CQ86OPI5VN0KZ9HY2I6CR","emotion","mismatch","uniform","","","","","","","4155.599999997765","415760.4000000004","419915.99999999814","[""stimuli/WM07_FO.jpg"",""stimuli/HF10_DO.jpg"",""stimuli/BM07_HO.jpg"",""stimuli/WM09_SC.jpg""]","stimuli/WM07_FO.jpg","stimuli/HF10_DO.jpg","stimuli/BM07_HO.jpg","stimuli/WM09_SC.jpg","pos4","stimuli/WM09_SC.jpg","SC","WM09","3","2","4","4","stimuli/stars_4.png","250.5","[""FO"",""DO"",""HO"",""SC""]","[""WM07"",""HF10"",""BM07"",""WM09""]","[9,6,2,4]","[8,6,2,4]","","",""
"show-reward","166","419520","0.0-166.0","p915359","A11FRLH5KWRLBV","3WRBLBQ2GSENM5LEFQY1C5PG0GV0GC","3IRIK4HM3CQ86OPI5VN0KZ9HY2I6CR","emotion","mismatch","uniform","","","","","","","","420416.5999999996","422417.5999999996","","","","","","","","","","","","4","","stimuli/stars_4.png","250.5","","","","","stimuli/WM09_SC.jpg","",""
"explore-choice","167","420527","0.0-167.0","p915359","A11FRLH5KWRLBV","3WRBLBQ2GSENM5LEFQY1C5PG0GV0GC","3IRIK4HM3CQ86OPI5VN0KZ9HY2I6CR","emotion","mismatch","uniform","","","","","","","506","422417.9000000004","422923.9000000004","[""stimuli/WM07_FO.jpg"",""stimuli/HF10_HO.jpg"",""stimuli/WM09_SC.jpg"",""stimuli/BM07_DO.jpg""]","stimuli/WM07_FO.jpg","stimuli/HF10_HO.jpg","stimuli/WM09_SC.jpg","stimuli/BM07_DO.jpg","pos4","stimuli/BM07_DO.jpg","DO","BM07","3","2","4","2","stimuli/stars_4.png","252.5","[""FO"",""HO"",""SC"",""DO""]","[""WM07"",""HF10"",""WM09"",""BM07""]","[10,8,6,4]","[8,6,4,2]","","",""
"show-reward","168","422534","0.0-168.0","p915359","A11FRLH5KWRLBV","3WRBLBQ2GSENM5LEFQY1C5PG0GV0GC","3IRIK4HM3CQ86OPI5VN0KZ9HY2I6CR","emotion","mismatch","uniform","","","","","","","","423425.0999999996","425431.5999999996","","","","","","","","","","","","4","","stimuli/stars_4.png","252.5","","","","","stimuli/BM07_DO.jpg","",""
"explore-choice","169","423503","0.0-169.0","p915359","A11FRLH5KWRLBV","3WRBLBQ2GSENM5LEFQY1C5PG0GV0GC","3IRIK4HM3CQ86OPI5VN0KZ9HY2I6CR","emotion","mismatch","uniform","","","","","","","467.6000000014901","425431.99999999814","425899.5999999996","[""stimuli/BM07_SC.jpg"",""stimuli/HF10_DO.jpg"",""stimuli/WM07_FO.jpg"",""stimuli/WM09_HO.jpg""]","stimuli/BM07_SC.jpg","stimuli/HF10_DO.jpg","stimuli/WM07_FO.jpg","stimuli/WM09_HO.jpg","pos1","stimuli/BM07_SC.jpg","SC","BM07","0","0.5","1","2","stimuli/stars_1.png","253","[""SC"",""DO"",""FO"",""HO""]","[""BM07"",""HF10"",""WM07"",""WM09""]","[1,8,9,5]","[2,6,8,4]","","",""
"show-reward","170","425505","0.0-170.0","p915359","A11FRLH5KWRLBV","3WRBLBQ2GSENM5LEFQY1C5PG0GV0GC","3IRIK4HM3CQ86OPI5VN0KZ9HY2I6CR","emotion","mismatch","uniform","","","","","","","","426400.9000000004","428402.49999999814","","","","","","","","","","","","1","","stimuli/stars_1.png","253","","","","","stimuli/BM07_SC.jpg","",""
"explore-choice","171","426983","0.0-171.0","p915359","A11FRLH5KWRLBV","3WRBLBQ2GSENM5LEFQY1C5PG0GV0GC","3IRIK4HM3CQ86OPI5VN0KZ9HY2I6CR","emotion","mismatch","uniform","","","","","","","976.6000000014901","428402.7999999989","429379.4000000004","[""stimuli/HF10_FO.jpg"",""stimuli/BM07_SC.jpg"",""stimuli/WM09_HO.jpg"",""stimuli/WM07_DO.jpg""]","stimuli/HF10_FO.jpg","stimuli/BM07_SC.jpg","stimuli/WM09_HO.jpg","stimuli/WM07_DO.jpg","pos2","stimuli/BM07_SC.jpg","SC","BM07","1","2","4","2","stimuli/stars_4.png","255","[""FO"",""SC"",""HO"",""DO""]","[""HF10"",""BM07"",""WM09"",""WM07""]","[7,4,2,10]","[6,2,4,8]","","",""
"show-reward","172","428999","0.0-172.0","p915359","A11FRLH5KWRLBV","3WRBLBQ2GSENM5LEFQY1C5PG0GV0GC","3IRIK4HM3CQ86OPI5VN0KZ9HY2I6CR","emotion","mismatch","uniform","","","","","","","","429880.7000000011","431896.49999999814","","","","","","","","","","","","4","","stimuli/stars_4.png","255","","","","","stimuli/BM07_SC.jpg","",""
"explore-choice","173","431560","0.0-173.0","p915359","A11FRLH5KWRLBV","3WRBLBQ2GSENM5LEFQY1C5PG0GV0GC","3IRIK4HM3CQ86OPI5VN0KZ9HY2I6CR","emotion","mismatch","uniform","","","","","","","2058.39999999851","431896.9000000004","433955.2999999989","[""stimuli/WM07_HO.jpg"",""stimuli/BM07_FO.jpg"",""stimuli/HF10_DO.jpg"",""stimuli/WM09_SC.jpg""]","stimuli/WM07_HO.jpg","stimuli/BM07_FO.jpg","stimuli/HF10_DO.jpg","stimuli/WM09_SC.jpg","pos4","stimuli/WM09_SC.jpg","SC","WM09","3","1","2","4","stimuli/stars_2.png","256","[""HO"",""FO"",""DO"",""SC""]","[""WM07"",""BM07"",""HF10"",""WM09""]","[9,2,8,2]","[8,2,6,4]","","",""
"show-reward","174","433571","0.0-174.0","p915359","A11FRLH5KWRLBV","3WRBLBQ2GSENM5LEFQY1C5PG0GV0GC","3IRIK4HM3CQ86OPI5VN0KZ9HY2I6CR","emotion","mismatch","uniform","","","","","","","","434457.7000000011","436468.9000000004","","","","","","","","","","","","2","","stimuli/stars_2.png","256","","","","","stimuli/WM09_SC.jpg","",""
"explore-choice","175","484611","0.0-175.0","p915359","A11FRLH5KWRLBV","3WRBLBQ2GSENM5LEFQY1C5PG0GV0GC","3IRIK4HM3CQ86OPI5VN0KZ9HY2I6CR","emotion","mismatch","uniform","","","","","","","50539.5","436469.4000000004","487008.9000000004","[""stimuli/WM07_DO.jpg"",""stimuli/BM07_HO.jpg"",""stimuli/WM09_SC.jpg"",""stimuli/HF10_FO.jpg""]","stimuli/WM07_DO.jpg","stimuli/BM07_HO.jpg","stimuli/WM09_SC.jpg","stimuli/HF10_FO.jpg","pos4","stimuli/HF10_FO.jpg","FO","HF10","3","3.5","7","6","stimuli/stars_7.png","259.5","[""DO"",""HO"",""SC"",""FO""]","[""WM07"",""BM07"",""WM09"",""HF10""]","[9,4,5,7]","[8,2,4,6]","","",""
"show-reward","176","486624","0.0-176.0","p915359","A11FRLH5KWRLBV","3WRBLBQ2GSENM5LEFQY1C5PG0GV0GC","3IRIK4HM3CQ86OPI5VN0KZ9HY2I6CR","emotion","mismatch","uniform","","","","","","","","487509.49999999814","489521.5999999996","","","","","","","","","","","","7","","stimuli/stars_7.png","259.5","","","","","stimuli/HF10_FO.jpg","",""
"explore-choice","177","488244","0.0-177.0","p915359","A11FRLH5KWRLBV","3WRBLBQ2GSENM5LEFQY1C5PG0GV0GC","3IRIK4HM3CQ86OPI5VN0KZ9HY2I6CR","emotion","mismatch","uniform","","","","","","","1118.6000000014901","489522.0999999996","490640.7000000011","[""stimuli/WM07_FO.jpg"",""stimuli/BM07_SC.jpg"",""stimuli/WM09_DO.jpg"",""stimuli/HF10_HO.jpg""]","stimuli/WM07_FO.jpg","stimuli/BM07_SC.jpg","stimuli/WM09_DO.jpg","stimuli/HF10_HO.jpg","pos1","stimuli/WM07_FO.jpg","FO","WM07","0","4","8","8","stimuli/stars_8.png","263.5","[""FO"",""SC"",""DO"",""HO""]","[""WM07"",""BM07"",""WM09"",""HF10""]","[8,4,5,4]","[8,2,4,6]","","",""
"show-reward","178","490245","0.0-178.0","p915359","A11FRLH5KWRLBV","3WRBLBQ2GSENM5LEFQY1C5PG0GV0GC","3IRIK4HM3CQ86OPI5VN0KZ9HY2I6CR","emotion","mismatch","uniform","","","","","","","","491141.9000000004","493142.7999999989","","","","","","","","","","","","8","","stimuli/stars_8.png","263.5","","","","","stimuli/WM07_FO.jpg","",""
"explore-choice","179","491689","0.0-179.0","p915359","A11FRLH5KWRLBV","3WRBLBQ2GSENM5LEFQY1C5PG0GV0GC","3IRIK4HM3CQ86OPI5VN0KZ9HY2I6CR","emotion","mismatch","uniform","","","","","","","937.7999999970198","493143.2000000011","494080.99999999814","[""stimuli/HF10_SC.jpg"",""stimuli/BM07_FO.jpg"",""stimuli/WM09_HO.jpg"",""stimuli/WM07_DO.jpg""]","stimuli/HF10_SC.jpg","stimuli/BM07_FO.jpg","stimuli/WM09_HO.jpg","stimuli/WM07_DO.jpg","pos4","stimuli/WM07_DO.jpg","DO","WM07","3","5","10","8","stimuli/stars_10.png","268.5","[""SC"",""FO"",""HO"",""DO""]","[""HF10"",""BM07"",""WM09"",""WM07""]","[6,0,5,10]","[6,2,4,8]","","",""
"show-reward","180","493705","0.0-180.0","p915359","A11FRLH5KWRLBV","3WRBLBQ2GSENM5LEFQY1C5PG0GV0GC","3IRIK4HM3CQ86OPI5VN0KZ9HY2I6CR","emotion","mismatch","uniform","","","","","","","","494587.2000000011","496602.4000000004","","","","","","","","","","","","10","","stimuli/stars_10.png","268.5","","","","","stimuli/WM07_DO.jpg","",""
"explore-choice","181","510520","0.0-181.0","p915359","A11FRLH5KWRLBV","3WRBLBQ2GSENM5LEFQY1C5PG0GV0GC","3IRIK4HM3CQ86OPI5VN0KZ9HY2I6CR","emotion","mismatch","uniform","","","","","","","16308.800000000745","496602.9000000004","512911.7000000011","[""stimuli/HF10_SC.jpg"",""stimuli/BM07_HO.jpg"",""stimuli/WM07_FO.jpg"",""stimuli/WM09_DO.jpg""]","stimuli/HF10_SC.jpg","stimuli/BM07_HO.jpg","stimuli/WM07_FO.jpg","stimuli/WM09_DO.jpg","pos2","stimuli/BM07_HO.jpg","HO","BM07","1","0","0","2","stimuli/stars_0.png","268.5","[""SC"",""HO"",""FO"",""DO""]","[""HF10"",""BM07"",""WM07"",""WM09""]","[5,0,9,2]","[6,2,8,4]","","",""
"show-reward","182","512522","0.0-182.0","p915359","A11FRLH5KWRLBV","3WRBLBQ2GSENM5LEFQY1C5PG0GV0GC","3IRIK4HM3CQ86OPI5VN0KZ9HY2I6CR","emotion","mismatch","uniform","","","","","","","","513418.5999999996","515419.4000000004","","","","","","","","","","","","0","","stimuli/stars_0.png","268.5","","","","","stimuli/BM07_HO.jpg","",""
"explore-choice","183","513618","0.0-183.0","p915359","A11FRLH5KWRLBV","3WRBLBQ2GSENM5LEFQY1C5PG0GV0GC","3IRIK4HM3CQ86OPI5VN0KZ9HY2I6CR","emotion","mismatch","uniform","","","","","","","595.6999999992549","515419.7999999989","516015.49999999814","[""stimuli/BM07_FO.jpg"",""stimuli/WM09_DO.jpg"",""stimuli/HF10_SC.jpg"",""stimuli/WM07_HO.jpg""]","stimuli/BM07_FO.jpg","stimuli/WM09_DO.jpg","stimuli/HF10_SC.jpg","stimuli/WM07_HO.jpg","pos3","stimuli/HF10_SC.jpg","SC","HF10","2","4","8","6","stimuli/stars_8.png","272.5","[""FO"",""DO"",""SC"",""HO""]","[""BM07"",""WM09"",""HF10"",""WM07""]","[3,3,8,9]","[2,4,6,8]","","",""
"show-reward","184","515622","0.0-184.0","p915359","A11FRLH5KWRLBV","3WRBLBQ2GSENM5LEFQY1C5PG0GV0GC","3IRIK4HM3CQ86OPI5VN0KZ9HY2I6CR","emotion","mismatch","uniform","","","","","","","","516516.4000000004","518519.5999999996","","","","","","","","","","","","8","","stimuli/stars_8.png","272.5","","","","","stimuli/HF10_SC.jpg","",""
"explore-choice","185","516507","0.0-185.0","p915359","A11FRLH5KWRLBV","3WRBLBQ2GSENM5LEFQY1C5PG0GV0GC","3IRIK4HM3CQ86OPI5VN0KZ9HY2I6CR","emotion","mismatch","uniform","","","","","","","384.20000000298023","518519.99999999814","518904.2000000011","[""stimuli/WM09_FO.jpg"",""stimuli/BM07_DO.jpg"",""stimuli/HF10_HO.jpg"",""stimuli/WM07_SC.jpg""]","stimuli/WM09_FO.jpg","stimuli/BM07_DO.jpg","stimuli/HF10_HO.jpg","stimuli/WM07_SC.jpg","pos4","stimuli/WM07_SC.jpg","SC","WM07","3","3","6","8","stimuli/stars_6.png","275.5","[""FO"",""DO"",""HO"",""SC""]","[""WM09"",""BM07"",""HF10"",""WM07""]","[3,2,8,6]","[4,2,6,8]","","",""
"show-reward","186","518522","0.0-186.0","p915359","A11FRLH5KWRLBV","3WRBLBQ2GSENM5LEFQY1C5PG0GV0GC","3IRIK4HM3CQ86OPI5VN0KZ9HY2I6CR","emotion","mismatch","uniform","","","","","","","","519405.2000000011","521419.7999999989","","","","","","","","","","","","6","","stimuli/stars_6.png","275.5","","","","","stimuli/WM07_SC.jpg","",""
"explore-choice","187","521813","0.0-187.0","p915359","A11FRLH5KWRLBV","3WRBLBQ2GSENM5LEFQY1C5PG0GV0GC","3IRIK4HM3CQ86OPI5VN0KZ9HY2I6CR","emotion","mismatch","uniform","","","","","","","2786.900000002235","521420.2999999989","524207.2000000011","[""stimuli/HF10_FO.jpg"",""stimuli/WM07_HO.jpg"",""stimuli/WM09_DO.jpg"",""stimuli/BM07_SC.jpg""]","stimuli/HF10_FO.jpg","stimuli/WM07_HO.jpg","stimuli/WM09_DO.jpg","stimuli/BM07_SC.jpg","pos2","stimuli/WM07_HO.jpg","HO","WM07","1","3","6","8","stimuli/stars_6.png","278.5","[""FO"",""HO"",""DO"",""SC""]","[""HF10"",""WM07"",""WM09"",""BM07""]","[6,6,5,3]","[6,8,4,2]","","",""
"show-reward","188","523816","0.0-188.0","p915359","A11FRLH5KWRLBV","3WRBLBQ2GSENM5LEFQY1C5PG0GV0GC","3IRIK4HM3CQ86OPI5VN0KZ9HY2I6CR","emotion","mismatch","uniform","","","","","","","","524711.0999999996","526713.2999999989","","","","","","","","","","","","6","","stimuli/stars_6.png","278.5","","","","","stimuli/WM07_HO.jpg","",""
"explore-choice","189","525315","0.0-189.0","p915359","A11FRLH5KWRLBV","3WRBLBQ2GSENM5LEFQY1C5PG0GV0GC","3IRIK4HM3CQ86OPI5VN0KZ9HY2I6CR","emotion","mismatch","uniform","","","","","","","989.5","526713.7999999989","527703.2999999989","[""stimuli/WM09_HO.jpg"",""stimuli/WM07_FO.jpg"",""stimuli/BM07_DO.jpg"",""stimuli/HF10_SC.jpg""]","stimuli/WM09_HO.jpg","stimuli/WM07_FO.jpg","stimuli/BM07_DO.jpg","stimuli/HF10_SC.jpg","pos4","stimuli/HF10_SC.jpg","SC","HF10","3","2","4","6","stimuli/stars_4.png","280.5","[""HO"",""FO"",""DO"",""SC""]","[""WM09"",""WM07"",""BM07"",""HF10""]","[4,8,1,4]","[4,8,2,6]","","",""
"show-reward","190","527322","0.0-190.0","p915359","A11FRLH5KWRLBV","3WRBLBQ2GSENM5LEFQY1C5PG0GV0GC","3IRIK4HM3CQ86OPI5VN0KZ9HY2I6CR","emotion","mismatch","uniform","","","","","","","","528212.5999999996","530219.2000000011","","","","","","","","","","","","4","","stimuli/stars_4.png","280.5","","","","","stimuli/HF10_SC.jpg","",""
"explore-choice","191","528525","0.0-191.0","p915359","A11FRLH5KWRLBV","3WRBLBQ2GSENM5LEFQY1C5PG0GV0GC","3IRIK4HM3CQ86OPI5VN0KZ9HY2I6CR","emotion","mismatch","uniform","","","","","","","692.1000000014901","530219.5999999996","530911.7000000011","[""stimuli/WM07_SC.jpg"",""stimuli/HF10_HO.jpg"",""stimuli/WM09_DO.jpg"",""stimuli/BM07_FO.jpg""]","stimuli/WM07_SC.jpg","stimuli/HF10_HO.jpg","stimuli/WM09_DO.jpg","stimuli/BM07_FO.jpg","pos2","stimuli/HF10_HO.jpg","HO","HF10","1","3.5","7","6","stimuli/stars_7.png","284","[""SC"",""HO"",""DO"",""FO""]","[""WM07"",""HF10"",""WM09"",""BM07""]","[10,7,4,0]","[8,6,4,2]","","",""
"show-reward","192","530531","0.0-192.0","p915359","A11FRLH5KWRLBV","3WRBLBQ2GSENM5LEFQY1C5PG0GV0GC","3IRIK4HM3CQ86OPI5VN0KZ9HY2I6CR","emotion","mismatch","uniform","","","","","","","","531422.7999999989","533428.2000000011","","","","","","","","","","","","7","","stimuli/stars_7.png","284","","","","","stimuli/HF10_HO.jpg","",""
"explore-choice","193","535504","0.0-193.0","p915359","A11FRLH5KWRLBV","3WRBLBQ2GSENM5LEFQY1C5PG0GV0GC","3IRIK4HM3CQ86OPI5VN0KZ9HY2I6CR","emotion","mismatch","uniform","","","","","","","4458.800000000745","533428.5999999996","537887.4000000004","[""stimuli/BM07_DO.jpg"",""stimuli/WM09_HO.jpg"",""stimuli/HF10_FO.jpg"",""stimuli/WM07_SC.jpg""]","stimuli/BM07_DO.jpg","stimuli/WM09_HO.jpg","stimuli/HF10_FO.jpg","stimuli/WM07_SC.jpg","pos2","stimuli/WM09_HO.jpg","HO","WM09","1","2.5","5","4","stimuli/stars_5.png","286.5","[""DO"",""HO"",""FO"",""SC""]","[""BM07"",""WM09"",""HF10"",""WM07""]","[1,5,4,7]","[2,4,6,8]","","",""
"show-reward","194","537505","0.0-194.0","p915359","A11FRLH5KWRLBV","3WRBLBQ2GSENM5LEFQY1C5PG0GV0GC","3IRIK4HM3CQ86OPI5VN0KZ9HY2I6CR","emotion","mismatch","uniform","","","","","","","","538401.9000000004","540402.4999999981","","","","","","","","","","","","5","","stimuli/stars_5.png","286.5","","","","","stimuli/WM09_HO.jpg","",""
"explore-choice","195","538705","0.0-195.0","p915359","A11FRLH5KWRLBV","3WRBLBQ2GSENM5LEFQY1C5PG0GV0GC","3IRIK4HM3CQ86OPI5VN0KZ9HY2I6CR","emotion","mismatch","uniform","","","","","","","691.8000000007451","540402.9000000004","541094.7000000011","[""stimuli/WM09_FO.jpg"",""stimuli/HF10_SC.jpg"",""stimuli/BM07_HO.jpg"",""stimuli/WM07_DO.jpg""]","stimuli/WM09_FO.jpg","stimuli/HF10_SC.jpg","stimuli/BM07_HO.jpg","stimuli/WM07_DO.jpg","pos4","stimuli/WM07_DO.jpg","DO","WM07","3","3.5","7","8","stimuli/stars_7.png","290","[""FO"",""SC"",""HO"",""DO""]","[""WM09"",""HF10"",""BM07"",""WM07""]","[5,5,1,7]","[4,6,2,8]","","",""
"show-reward","196","540707","0.0-196.0","p915359","A11FRLH5KWRLBV","3WRBLBQ2GSENM5LEFQY1C5PG0GV0GC","3IRIK4HM3CQ86OPI5VN0KZ9HY2I6CR","emotion","mismatch","uniform","","","","","","","","541603.4000000004","543604.5999999996","","","","","","","","","","","","7","","stimuli/stars_7.png","290","","","","","stimuli/WM07_DO.jpg","",""
"explore-choice","197","542105","0.0-197.0","p915359","A11FRLH5KWRLBV","3WRBLBQ2GSENM5LEFQY1C5PG0GV0GC","3IRIK4HM3CQ86OPI5VN0KZ9HY2I6CR","emotion","mismatch","uniform","","","","","","","897.6999999992549","543604.9000000004","544502.5999999996","[""stimuli/WM09_FO.jpg"",""stimuli/WM07_HO.jpg"",""stimuli/HF10_DO.jpg"",""stimuli/BM07_SC.jpg""]","stimuli/WM09_FO.jpg","stimuli/WM07_HO.jpg","stimuli/HF10_DO.jpg","stimuli/BM07_SC.jpg","pos3","stimuli/HF10_DO.jpg","DO","HF10","2","2","4","6","stimuli/stars_4.png","292","[""FO"",""HO"",""DO"",""SC""]","[""WM09"",""WM07"",""HF10"",""BM07""]","[5,7,4,0]","[4,8,6,2]","","",""
"show-reward","198","544107","0.0-198.0","p915359","A11FRLH5KWRLBV","3WRBLBQ2GSENM5LEFQY1C5PG0GV0GC","3IRIK4HM3CQ86OPI5VN0KZ9HY2I6CR","emotion","mismatch","uniform","","","","","","","","545003.4000000004","547004.2999999989","","","","","","","","","","","","4","","stimuli/stars_4.png","292","","","","","stimuli/HF10_DO.jpg","",""
"instructions","199","550517","0.0-199.0","p915359","A11FRLH5KWRLBV","3WRBLBQ2GSENM5LEFQY1C5PG0GV0GC","3IRIK4HM3CQ86OPI5VN0KZ9HY2I6CR","emotion","mismatch","uniform","","","","","","[{""page_index"":0,""viewing_time"":6409.300000000745}]","6409.800000000745","","","","","","","","","","","","","","","","","","","","","","","",""
"survey-text","200","556469","0.0-200.0-0.0","p915359","A11FRLH5KWRLBV","3WRBLBQ2GSENM5LEFQY1C5PG0GV0GC","3IRIK4HM3CQ86OPI5VN0KZ9HY2I6CR","emotion","mismatch","uniform","","","","","","","5950","","","","","","","","","","","","","","","","","","","","","","","{""age"":""34""}",""
"survey-text","201","566260","0.0-200.0-1.0","p915359","A11FRLH5KWRLBV","3WRBLBQ2GSENM5LEFQY1C5PG0GV0GC","3IRIK4HM3CQ86OPI5VN0KZ9HY2I6CR","emotion","mismatch","uniform","","","","","","","9790.39999999851","","","","","","","","","","","","","","","","","","","","","","","{""gender"":""male""}",""
"survey-text","202","579443","0.0-200.0-2.0","p915359","A11FRLH5KWRLBV","3WRBLBQ2GSENM5LEFQY1C5PG0GV0GC","3IRIK4HM3CQ86OPI5VN0KZ9HY2I6CR","emotion","mismatch","uniform","","","","","","","13181.199999999255","","","","","","","","","","","","","","","","","","","","","","","{""country"":""US""}",""
"survey-text","203","616778","0.0-200.0-3.0","p915359","A11FRLH5KWRLBV","3WRBLBQ2GSENM5LEFQY1C5PG0GV0GC","3IRIK4HM3CQ86OPI5VN0KZ9HY2I6CR","emotion","mismatch","uniform","","","","","","","37333","","","","","","","","","","","","","","","","","","","","","","","{""language"":""english"",""other_languages"":""english""}",""
"survey-multi-select","204","620370","0.0-201.0","p915359","A11FRLH5KWRLBV","3WRBLBQ2GSENM5LEFQY1C5PG0GV0GC","3IRIK4HM3CQ86OPI5VN0KZ9HY2I6CR","emotion","mismatch","uniform","","","","","","","3590.300000000745","","","","","","","","","","","","","","","","","","","","","","","{""race"":[""Hispanic or Latino""]}","[0]"
"survey-multi-choice","205","623473","0.0-202.0","p915359","A11FRLH5KWRLBV","3WRBLBQ2GSENM5LEFQY1C5PG0GV0GC","3IRIK4HM3CQ86OPI5VN0KZ9HY2I6CR","emotion","mismatch","uniform","","","","","","","3101.800000000745","","","","","","","","","","","","","","","","","","","","","","","{""education"":""Bachelor's degree""}","[0]"
"survey-text","206","691838","0.0-203.0","p915359","A11FRLH5KWRLBV","3WRBLBQ2GSENM5LEFQY1C5PG0GV0GC","3IRIK4HM3CQ86OPI5VN0KZ9HY2I6CR","emotion","mismatch","uniform","","","","","","","68362.69999999925","","","","","","","","","","","","","","","","","","","","","","","{""patterns"":""I though the more happy a person was the more stars i got"",""strategy"":""yes i tended to click on happier faces although i did try sad and angry ones here and there i tended to stick to happier faces"",""comments"":""No everything was fine""}",""
