"trial_type","trial_index","time_elapsed","internal_node_id","subject","workerId","hitId","assignmentId","structure_condition","match_condition","noise_type","success","timeout","failed_images","failed_audio","failed_video","view_history","rt","start_time","end_time","stimuli","image1","image2","image3","image4","choiceLocation","choiceImage","choiceEmotion","choiceModel","choice_index","reward_score","reward","reward_score_unadjusted","reward_image","score_after_trial","emotions","models","rewards","rewards_unadjusted","stimulus","response","question_order"
"pavlovia","0","8","0.0-0.0","p36357","AD15OW944ZV20","3PKJ68EHDO28O7HBL4QPFAGDEPGHJ1","3OWEPKL08BIA1S0EDV166O3PSIK7NF","emotion","match","uniform","","","","","","","","","","","","","","","","","","","","","","","","","","","","","","",""
"preload","1","3189","0.0-1.0","p36357","AD15OW944ZV20","3PKJ68EHDO28O7HBL4QPFAGDEPGHJ1","3OWEPKL08BIA1S0EDV166O3PSIK7NF","emotion","match","uniform","true","false","[]","[]","[]","","","","","","","","","","","","","","","","","","","","","","","","","",""
"fullscreen","2","11779","0.0-2.0","p36357","AD15OW944ZV20","3PKJ68EHDO28O7HBL4QPFAGDEPGHJ1","3OWEPKL08BIA1S0EDV166O3PSIK7NF","emotion","match","uniform","true","","","","","","","","","","","","","","","","","","","","","","","","","","","","","",""
"instructions","3","18241","0.0-3.0","p36357","AD15OW944ZV20","3PKJ68EHDO28O7HBL4QPFAGDEPGHJ1","3OWEPKL08BIA1S0EDV166O3PSIK7NF","emotion","match","uniform","","","","","","[{""page_index"":0,""viewing_time"":6461.699999988079}]","6461.899999976158","","","","","","","","","","","","","","","","","","","","","","","",""
"explore-choice","4","21254","0.0-4.0","p36357","AD15OW944ZV20","3PKJ68EHDO28O7HBL4QPFAGDEPGHJ1","3OWEPKL08BIA1S0EDV166O3PSIK7NF","emotion","match","uniform","","","","","","","2511.399999976158","19508.80000001192","22020.19999998808","[""stimuli/sheep.jpg"",""stimuli/hammer.jpg"",""stimuli/basketball.jpg"",""stimuli/horse.jpg""]","stimuli/sheep.jpg","stimuli/hammer.jpg","stimuli/basketball.jpg","stimuli/horse.jpg","pos4","stimuli/horse.jpg","","","3","64","64","64","stimuli/stars_8.png","65","","","","","","",""
"explore-choice","5","23431","0.0-5.0","p36357","AD15OW944ZV20","3PKJ68EHDO28O7HBL4QPFAGDEPGHJ1","3OWEPKL08BIA1S0EDV166O3PSIK7NF","emotion","match","uniform","","","","","","","1674.800000011921","22521.69999998808","24196.5","[""stimuli/hammer.jpg"",""stimuli/basketball.jpg"",""stimuli/horse.jpg"",""stimuli/sheep.jpg""]","stimuli/hammer.jpg","stimuli/basketball.jpg","stimuli/horse.jpg","stimuli/sheep.jpg","pos1","stimuli/hammer.jpg","","","0","8","8","8","stimuli/stars_2.png","9","","","","","","",""
"instructions","6","47057","0.0-6.0","p36357","AD15OW944ZV20","3PKJ68EHDO28O7HBL4QPFAGDEPGHJ1","3OWEPKL08BIA1S0EDV166O3PSIK7NF","emotion","match","uniform","","","","","","[{""page_index"":0,""viewing_time"":23625.5}]","23625.80000001192","","","","","","","","","","","","","","","","","","","","","","","",""
"explore-choice","7","49098","0.0-7.0","p36357","AD15OW944ZV20","3PKJ68EHDO28O7HBL4QPFAGDEPGHJ1","3OWEPKL08BIA1S0EDV166O3PSIK7NF","emotion","match","uniform","","","","","","","1535.300000011921","48324.89999997616","49860.19999998808","[""stimuli/AM09_SUR.jpg"",""stimuli/BM07_AO.jpg"",""stimuli/HF04_DO.jpg"",""stimuli/AF09_FO.jpg""]","stimuli/AM09_SUR.jpg","stimuli/BM07_AO.jpg","stimuli/HF04_DO.jpg","stimuli/AF09_FO.jpg","pos2","stimuli/BM07_AO.jpg","AO","BM07","1","2.5","5","6","stimuli/stars_5.png","3.5","[""SUR"",""AO"",""DO"",""FO""]","[""AM09"",""BM07"",""HF04"",""AF09""]","[5,5,2,7]","[4,6,2,8]","","",""
"show-reward","8","51114","0.0-8.0","p36357","AD15OW944ZV20","3PKJ68EHDO28O7HBL4QPFAGDEPGHJ1","3OWEPKL08BIA1S0EDV166O3PSIK7NF","emotion","match","uniform","","","","","","","","50365.60000002384","52380.69999998808","","","","","","","","","","","","5","","stimuli/stars_5.png","3.5","","","","","stimuli/BM07_AO.jpg","",""
"explore-choice","9","54094","0.0-9.0","p36357","AD15OW944ZV20","3PKJ68EHDO28O7HBL4QPFAGDEPGHJ1","3OWEPKL08BIA1S0EDV166O3PSIK7NF","emotion","match","uniform","","","","","","","2479","52381.60000002384","54860.60000002384","[""stimuli/AM09_AO.jpg"",""stimuli/BM07_SUR.jpg"",""stimuli/AF09_DO.jpg"",""stimuli/HF04_FO.jpg""]","stimuli/AM09_AO.jpg","stimuli/BM07_SUR.jpg","stimuli/AF09_DO.jpg","stimuli/HF04_FO.jpg","pos3","stimuli/AF09_DO.jpg","DO","AF09","2","0","0","2","stimuli/stars_0.png","3.5","[""AO"",""SUR"",""DO"",""FO""]","[""AM09"",""BM07"",""AF09"",""HF04""]","[4,6,0,8]","[6,4,2,8]","","",""
"show-reward","10","56097","0.0-10.0","p36357","AD15OW944ZV20","3PKJ68EHDO28O7HBL4QPFAGDEPGHJ1","3OWEPKL08BIA1S0EDV166O3PSIK7NF","emotion","match","uniform","","","","","","","","55361.69999998808","57363.39999997616","","","","","","","","","","","","0","","stimuli/stars_0.png","3.5","","","","","stimuli/AF09_DO.jpg","",""
"explore-choice","11","58428","0.0-11.0","p36357","AD15OW944ZV20","3PKJ68EHDO28O7HBL4QPFAGDEPGHJ1","3OWEPKL08BIA1S0EDV166O3PSIK7NF","emotion","match","uniform","","","","","","","1824.199999988079","57364","59188.19999998808","[""stimuli/AF09_DO.jpg"",""stimuli/HF04_AO.jpg"",""stimuli/AM09_SUR.jpg"",""stimuli/BM07_FO.jpg""]","stimuli/AF09_DO.jpg","stimuli/HF04_AO.jpg","stimuli/AM09_SUR.jpg","stimuli/BM07_FO.jpg","pos2","stimuli/HF04_AO.jpg","AO","HF04","1","2","4","6","stimuli/stars_4.png","5.5","[""DO"",""AO"",""SUR"",""FO""]","[""AF09"",""HF04"",""AM09"",""BM07""]","[4,4,4,9]","[2,6,4,8]","","",""
"show-reward","12","60436","0.0-12.0","p36357","AD15OW944ZV20","3PKJ68EHDO28O7HBL4QPFAGDEPGHJ1","3OWEPKL08BIA1S0EDV166O3PSIK7NF","emotion","match","uniform","","","","","","","","59694.60000002384","61702.69999998808","","","","","","","","","","","","4","","stimuli/stars_4.png","5.5","","","","","stimuli/HF04_AO.jpg","",""
"explore-choice","13","63710","0.0-13.0","p36357","AD15OW944ZV20","3PKJ68EHDO28O7HBL4QPFAGDEPGHJ1","3OWEPKL08BIA1S0EDV166O3PSIK7NF","emotion","match","uniform","","","","","","","2772.800000011921","61703.39999997616","64476.19999998808","[""stimuli/AF09_FO.jpg"",""stimuli/HF04_AO.jpg"",""stimuli/AM09_SUR.jpg"",""stimuli/BM07_DO.jpg""]","stimuli/AF09_FO.jpg","stimuli/HF04_AO.jpg","stimuli/AM09_SUR.jpg","stimuli/BM07_DO.jpg","pos2","stimuli/HF04_AO.jpg","AO","HF04","1","2.5","5","6","stimuli/stars_5.png","8","[""FO"",""AO"",""SUR"",""DO""]","[""AF09"",""HF04"",""AM09"",""BM07""]","[9,5,5,3]","[8,6,4,2]","","",""
"show-reward","14","65724","0.0-14.0","p36357","AD15OW944ZV20","3PKJ68EHDO28O7HBL4QPFAGDEPGHJ1","3OWEPKL08BIA1S0EDV166O3PSIK7NF","emotion","match","uniform","","","","","","","","64977.39999997616","66990.39999997616","","","","","","","","","","","","5","","stimuli/stars_5.png","8","","","","","stimuli/HF04_AO.jpg","",""
"explore-choice","15","67913","0.0-15.0","p36357","AD15OW944ZV20","3PKJ68EHDO28O7HBL4QPFAGDEPGHJ1","3OWEPKL08BIA1S0EDV166O3PSIK7NF","emotion","match","uniform","","","","","","","1685.1000000238419","66991","68676.10000002384","[""stimuli/HF04_SUR.jpg"",""stimuli/BM07_AO.jpg"",""stimuli/AF09_DO.jpg"",""stimuli/AM09_FO.jpg""]","stimuli/HF04_SUR.jpg","stimuli/BM07_AO.jpg","stimuli/AF09_DO.jpg","stimuli/AM09_FO.jpg","pos2","stimuli/BM07_AO.jpg","AO","BM07","1","4","8","6","stimuli/stars_8.png","12","[""SUR"",""AO"",""DO"",""FO""]","[""HF04"",""BM07"",""AF09"",""AM09""]","[2,8,3,9]","[4,6,2,8]","","",""
"show-reward","16","69919","0.0-16.0","p36357","AD15OW944ZV20","3PKJ68EHDO28O7HBL4QPFAGDEPGHJ1","3OWEPKL08BIA1S0EDV166O3PSIK7NF","emotion","match","uniform","","","","","","","","69180","71185.19999998808","","","","","","","","","","","","8","","stimuli/stars_8.png","12","","","","","stimuli/BM07_AO.jpg","",""
"explore-choice","17","74135","0.0-17.0","p36357","AD15OW944ZV20","3PKJ68EHDO28O7HBL4QPFAGDEPGHJ1","3OWEPKL08BIA1S0EDV166O3PSIK7NF","emotion","match","uniform","","","","","","","3714.2000000476837","71185.89999997616","74900.10000002384","[""stimuli/HF04_DO.jpg"",""stimuli/AF09_FO.jpg"",""stimuli/AM09_AO.jpg"",""stimuli/BM07_SUR.jpg""]","stimuli/HF04_DO.jpg","stimuli/AF09_FO.jpg","stimuli/AM09_AO.jpg","stimuli/BM07_SUR.jpg","pos3","stimuli/AM09_AO.jpg","AO","AM09","2","3.5","7","6","stimuli/stars_7.png","15.5","[""DO"",""FO"",""AO"",""SUR""]","[""HF04"",""AF09"",""AM09"",""BM07""]","[1,8,7,4]","[2,8,6,4]","","",""
"show-reward","18","76147","0.0-18.0","p36357","AD15OW944ZV20","3PKJ68EHDO28O7HBL4QPFAGDEPGHJ1","3OWEPKL08BIA1S0EDV166O3PSIK7NF","emotion","match","uniform","","","","","","","","75401.89999997616","77413.69999998808","","","","","","","","","","","","7","","stimuli/stars_7.png","15.5","","","","","stimuli/AM09_AO.jpg","",""
"explore-choice","19","79255","0.0-19.0","p36357","AD15OW944ZV20","3PKJ68EHDO28O7HBL4QPFAGDEPGHJ1","3OWEPKL08BIA1S0EDV166O3PSIK7NF","emotion","match","uniform","","","","","","","2605.800000011921","77414.30000001192","80020.10000002384","[""stimuli/AF09_DO.jpg"",""stimuli/HF04_FO.jpg"",""stimuli/BM07_AO.jpg"",""stimuli/AM09_SUR.jpg""]","stimuli/AF09_DO.jpg","stimuli/HF04_FO.jpg","stimuli/BM07_AO.jpg","stimuli/AM09_SUR.jpg","pos3","stimuli/BM07_AO.jpg","AO","BM07","2","3","6","6","stimuli/stars_6.png","18.5","[""DO"",""FO"",""AO"",""SUR""]","[""AF09"",""HF04"",""BM07"",""AM09""]","[2,9,6,4]","[2,8,6,4]","","",""
"show-reward","20","81262","0.0-20.0","p36357","AD15OW944ZV20","3PKJ68EHDO28O7HBL4QPFAGDEPGHJ1","3OWEPKL08BIA1S0EDV166O3PSIK7NF","emotion","match","uniform","","","","","","","","80522","82528","","","","","","","","","","","","6","","stimuli/stars_6.png","18.5","","","","","stimuli/BM07_AO.jpg","",""
"explore-choice","21","84983","0.0-21.0","p36357","AD15OW944ZV20","3PKJ68EHDO28O7HBL4QPFAGDEPGHJ1","3OWEPKL08BIA1S0EDV166O3PSIK7NF","emotion","match","uniform","","","","","","","3219.300000011921","82528.80000001192","85748.10000002384","[""stimuli/AF09_AO.jpg"",""stimuli/HF04_SUR.jpg"",""stimuli/AM09_FO.jpg"",""stimuli/BM07_DO.jpg""]","stimuli/AF09_AO.jpg","stimuli/HF04_SUR.jpg","stimuli/AM09_FO.jpg","stimuli/BM07_DO.jpg","pos1","stimuli/AF09_AO.jpg","AO","AF09","0","2","4","6","stimuli/stars_4.png","20.5","[""AO"",""SUR"",""FO"",""DO""]","[""AF09"",""HF04"",""AM09"",""BM07""]","[4,5,10,4]","[6,4,8,2]","","",""
"show-reward","22","86988","0.0-22.0","p36357","AD15OW944ZV20","3PKJ68EHDO28O7HBL4QPFAGDEPGHJ1","3OWEPKL08BIA1S0EDV166O3PSIK7NF","emotion","match","uniform","","","","","","","","86250","88254.80000001192","","","","","","","","","","","","4","","stimuli/stars_4.png","20.5","","","","","stimuli/AF09_AO.jpg","",""
"explore-choice","23","89630","0.0-23.0","p36357","AD15OW944ZV20","3PKJ68EHDO28O7HBL4QPFAGDEPGHJ1","3OWEPKL08BIA1S0EDV166O3PSIK7NF","emotion","match","uniform","","","","","","","2140.100000023842","88256.19999998808","90396.30000001192","[""stimuli/BM07_AO.jpg"",""stimuli/HF04_DO.jpg"",""stimuli/AM09_FO.jpg"",""stimuli/AF09_SUR.jpg""]","stimuli/BM07_AO.jpg","stimuli/HF04_DO.jpg","stimuli/AM09_FO.jpg","stimuli/AF09_SUR.jpg","pos1","stimuli/BM07_AO.jpg","AO","BM07","0","2","4","6","stimuli/stars_4.png","22.5","[""AO"",""DO"",""FO"",""SUR""]","[""BM07"",""HF04"",""AM09"",""AF09""]","[4,3,6,2]","[6,2,8,4]","","",""
"show-reward","24","91632","0.0-24.0","p36357","AD15OW944ZV20","3PKJ68EHDO28O7HBL4QPFAGDEPGHJ1","3OWEPKL08BIA1S0EDV166O3PSIK7NF","emotion","match","uniform","","","","","","","","90897.10000002384","92898.39999997616","","","","","","","","","","","","4","","stimuli/stars_4.png","22.5","","","","","stimuli/BM07_AO.jpg","",""
"explore-choice","25","95087","0.0-25.0","p36357","AD15OW944ZV20","3PKJ68EHDO28O7HBL4QPFAGDEPGHJ1","3OWEPKL08BIA1S0EDV166O3PSIK7NF","emotion","match","uniform","","","","","","","2953.699999988079","92899","95852.69999998808","[""stimuli/BM07_FO.jpg"",""stimuli/HF04_AO.jpg"",""stimuli/AF09_SUR.jpg"",""stimuli/AM09_DO.jpg""]","stimuli/BM07_FO.jpg","stimuli/HF04_AO.jpg","stimuli/AF09_SUR.jpg","stimuli/AM09_DO.jpg","pos2","stimuli/HF04_AO.jpg","AO","HF04","1","4","8","6","stimuli/stars_8.png","26.5","[""FO"",""AO"",""SUR"",""DO""]","[""BM07"",""HF04"",""AF09"",""AM09""]","[9,8,4,1]","[8,6,4,2]","","",""
"show-reward","26","97089","0.0-26.0","p36357","AD15OW944ZV20","3PKJ68EHDO28O7HBL4QPFAGDEPGHJ1","3OWEPKL08BIA1S0EDV166O3PSIK7NF","emotion","match","uniform","","","","","","","","96353.5","98355.39999997616","","","","","","","","","","","","8","","stimuli/stars_8.png","26.5","","","","","stimuli/HF04_AO.jpg","",""
"explore-choice","27","98862","0.0-27.0","p36357","AD15OW944ZV20","3PKJ68EHDO28O7HBL4QPFAGDEPGHJ1","3OWEPKL08BIA1S0EDV166O3PSIK7NF","emotion","match","uniform","","","","","","","1272.199999988079","98356.10000002384","99628.30000001192","[""stimuli/AF09_SUR.jpg"",""stimuli/HF04_FO.jpg"",""stimuli/AM09_DO.jpg"",""stimuli/BM07_AO.jpg""]","stimuli/AF09_SUR.jpg","stimuli/HF04_FO.jpg","stimuli/AM09_DO.jpg","stimuli/BM07_AO.jpg","pos4","stimuli/BM07_AO.jpg","AO","BM07","3","2.5","5","6","stimuli/stars_5.png","29","[""SUR"",""FO"",""DO"",""AO""]","[""AF09"",""HF04"",""AM09"",""BM07""]","[4,9,3,5]","[4,8,2,6]","","",""
"show-reward","28","100863","0.0-28.0","p36357","AD15OW944ZV20","3PKJ68EHDO28O7HBL4QPFAGDEPGHJ1","3OWEPKL08BIA1S0EDV166O3PSIK7NF","emotion","match","uniform","","","","","","","","100128.80000001192","102129.89999997616","","","","","","","","","","","","5","","stimuli/stars_5.png","29","","","","","stimuli/BM07_AO.jpg","",""
"explore-choice","29","103671","0.0-29.0","p36357","AD15OW944ZV20","3PKJ68EHDO28O7HBL4QPFAGDEPGHJ1","3OWEPKL08BIA1S0EDV166O3PSIK7NF","emotion","match","uniform","","","","","","","2305.600000023842","102130.5","104436.10000002384","[""stimuli/BM07_DO.jpg"",""stimuli/AM09_AO.jpg"",""stimuli/HF04_SUR.jpg"",""stimuli/AF09_FO.jpg""]","stimuli/BM07_DO.jpg","stimuli/AM09_AO.jpg","stimuli/HF04_SUR.jpg","stimuli/AF09_FO.jpg","pos2","stimuli/AM09_AO.jpg","AO","AM09","1","2","4","6","stimuli/stars_4.png","31","[""DO"",""AO"",""SUR"",""FO""]","[""BM07"",""AM09"",""HF04"",""AF09""]","[3,4,6,10]","[2,6,4,8]","","",""
"show-reward","30","105674","0.0-30.0","p36357","AD15OW944ZV20","3PKJ68EHDO28O7HBL4QPFAGDEPGHJ1","3OWEPKL08BIA1S0EDV166O3PSIK7NF","emotion","match","uniform","","","","","","","","104938.39999997616","106940.39999997616","","","","","","","","","","","","4","","stimuli/stars_4.png","31","","","","","stimuli/AM09_AO.jpg","",""
"explore-choice","31","108862","0.0-31.0","p36357","AD15OW944ZV20","3PKJ68EHDO28O7HBL4QPFAGDEPGHJ1","3OWEPKL08BIA1S0EDV166O3PSIK7NF","emotion","match","uniform","","","","","","","2687.399999976158","106940.80000001192","109628.19999998808","[""stimuli/AF09_AO.jpg"",""stimuli/HF04_FO.jpg"",""stimuli/BM07_SUR.jpg"",""stimuli/AM09_DO.jpg""]","stimuli/AF09_AO.jpg","stimuli/HF04_FO.jpg","stimuli/BM07_SUR.jpg","stimuli/AM09_DO.jpg","pos1","stimuli/AF09_AO.jpg","AO","AF09","0","4","8","6","stimuli/stars_8.png","35","[""AO"",""FO"",""SUR"",""DO""]","[""AF09"",""HF04"",""BM07"",""AM09""]","[8,10,6,1]","[6,8,4,2]","","",""
"show-reward","32","110864","0.0-32.0","p36357","AD15OW944ZV20","3PKJ68EHDO28O7HBL4QPFAGDEPGHJ1","3OWEPKL08BIA1S0EDV166O3PSIK7NF","emotion","match","uniform","","","","","","","","110129","112130.39999997616","","","","","","","","","","","","8","","stimuli/stars_8.png","35","","","","","stimuli/AF09_AO.jpg","",""
"explore-choice","33","113006","0.0-33.0","p36357","AD15OW944ZV20","3PKJ68EHDO28O7HBL4QPFAGDEPGHJ1","3OWEPKL08BIA1S0EDV166O3PSIK7NF","emotion","match","uniform","","","","","","","1641.1000000238419","112131","113772.10000002384","[""stimuli/AF09_AO.jpg"",""stimuli/BM07_FO.jpg"",""stimuli/HF04_SUR.jpg"",""stimuli/AM09_DO.jpg""]","stimuli/AF09_AO.jpg","stimuli/BM07_FO.jpg","stimuli/HF04_SUR.jpg","stimuli/AM09_DO.jpg","pos1","stimuli/AF09_AO.jpg","AO","AF09","0","4","8","6","stimuli/stars_8.png","39","[""AO"",""FO"",""SUR"",""DO""]","[""AF09"",""BM07"",""HF04"",""AM09""]","[8,10,4,4]","[6,8,4,2]","","",""
"show-reward","34","115010","0.0-34.0","p36357","AD15OW944ZV20","3PKJ68EHDO28O7HBL4QPFAGDEPGHJ1","3OWEPKL08BIA1S0EDV166O3PSIK7NF","emotion","match","uniform","","","","","","","","114272.89999997616","116276.10000002384","","","","","","","","","","","","8","","stimuli/stars_8.png","39","","","","","stimuli/AF09_AO.jpg","",""
"explore-choice","35","117613","0.0-35.0","p36357","AD15OW944ZV20","3PKJ68EHDO28O7HBL4QPFAGDEPGHJ1","3OWEPKL08BIA1S0EDV166O3PSIK7NF","emotion","match","uniform","","","","","","","2103.399999976158","116276.80000001192","118380.19999998808","[""stimuli/AF09_AO.jpg"",""stimuli/BM07_DO.jpg"",""stimuli/AM09_SUR.jpg"",""stimuli/HF04_FO.jpg""]","stimuli/AF09_AO.jpg","stimuli/BM07_DO.jpg","stimuli/AM09_SUR.jpg","stimuli/HF04_FO.jpg","pos1","stimuli/AF09_AO.jpg","AO","AF09","0","3.5","7","6","stimuli/stars_7.png","42.5","[""AO"",""DO"",""SUR"",""FO""]","[""AF09"",""BM07"",""AM09"",""HF04""]","[7,1,5,10]","[6,2,4,8]","","",""
"show-reward","36","119615","0.0-36.0","p36357","AD15OW944ZV20","3PKJ68EHDO28O7HBL4QPFAGDEPGHJ1","3OWEPKL08BIA1S0EDV166O3PSIK7NF","emotion","match","uniform","","","","","","","","118881.10000002384","120882.39999997616","","","","","","","","","","","","7","","stimuli/stars_7.png","42.5","","","","","stimuli/AF09_AO.jpg","",""
"explore-choice","37","121789","0.0-37.0","p36357","AD15OW944ZV20","3PKJ68EHDO28O7HBL4QPFAGDEPGHJ1","3OWEPKL08BIA1S0EDV166O3PSIK7NF","emotion","match","uniform","","","","","","","1673.1000000238419","120883","122556.10000002384","[""stimuli/AM09_FO.jpg"",""stimuli/BM07_SUR.jpg"",""stimuli/AF09_AO.jpg"",""stimuli/HF04_DO.jpg""]","stimuli/AM09_FO.jpg","stimuli/BM07_SUR.jpg","stimuli/AF09_AO.jpg","stimuli/HF04_DO.jpg","pos3","stimuli/AF09_AO.jpg","AO","AF09","2","4","8","6","stimuli/stars_8.png","46.5","[""FO"",""SUR"",""AO"",""DO""]","[""AM09"",""BM07"",""AF09"",""HF04""]","[10,4,8,4]","[8,4,6,2]","","",""
"show-reward","38","123795","0.0-38.0","p36357","AD15OW944ZV20","3PKJ68EHDO28O7HBL4QPFAGDEPGHJ1","3OWEPKL08BIA1S0EDV166O3PSIK7NF","emotion","match","uniform","","","","","","","","123057","125061.89999997616","","","","","","","","","","","","8","","stimuli/stars_8.png","46.5","","","","","stimuli/AF09_AO.jpg","",""
"explore-choice","39","126317","0.0-39.0","p36357","AD15OW944ZV20","3PKJ68EHDO28O7HBL4QPFAGDEPGHJ1","3OWEPKL08BIA1S0EDV166O3PSIK7NF","emotion","match","uniform","","","","","","","2021.4000000357628","125062.69999998808","127084.10000002384","[""stimuli/HF04_AO.jpg"",""stimuli/BM07_SUR.jpg"",""stimuli/AM09_DO.jpg"",""stimuli/AF09_FO.jpg""]","stimuli/HF04_AO.jpg","stimuli/BM07_SUR.jpg","stimuli/AM09_DO.jpg","stimuli/AF09_FO.jpg","pos1","stimuli/HF04_AO.jpg","AO","HF04","0","2.5","5","6","stimuli/stars_5.png","49","[""AO"",""SUR"",""DO"",""FO""]","[""HF04"",""BM07"",""AM09"",""AF09""]","[5,4,1,10]","[6,4,2,8]","","",""
"show-reward","40","128319","0.0-40.0","p36357","AD15OW944ZV20","3PKJ68EHDO28O7HBL4QPFAGDEPGHJ1","3OWEPKL08BIA1S0EDV166O3PSIK7NF","emotion","match","uniform","","","","","","","","127584.80000001192","129586.10000002384","","","","","","","","","","","","5","","stimuli/stars_5.png","49","","","","","stimuli/HF04_AO.jpg","",""
"explore-choice","41","131951","0.0-41.0","p36357","AD15OW944ZV20","3PKJ68EHDO28O7HBL4QPFAGDEPGHJ1","3OWEPKL08BIA1S0EDV166O3PSIK7NF","emotion","match","uniform","","","","","","","3129.399999976158","129586.80000001192","132716.19999998808","[""stimuli/BM07_DO.jpg"",""stimuli/HF04_FO.jpg"",""stimuli/AF09_SUR.jpg"",""stimuli/AM09_AO.jpg""]","stimuli/BM07_DO.jpg","stimuli/HF04_FO.jpg","stimuli/AF09_SUR.jpg","stimuli/AM09_AO.jpg","pos4","stimuli/AM09_AO.jpg","AO","AM09","3","3","6","6","stimuli/stars_6.png","52","[""DO"",""FO"",""SUR"",""AO""]","[""BM07"",""HF04"",""AF09"",""AM09""]","[4,8,6,6]","[2,8,4,6]","","",""
"show-reward","42","133953","0.0-42.0","p36357","AD15OW944ZV20","3PKJ68EHDO28O7HBL4QPFAGDEPGHJ1","3OWEPKL08BIA1S0EDV166O3PSIK7NF","emotion","match","uniform","","","","","","","","133218.39999997616","135219.89999997616","","","","","","","","","","","","6","","stimuli/stars_6.png","52","","","","","stimuli/AM09_AO.jpg","",""
"explore-choice","43","137378","0.0-43.0","p36357","AD15OW944ZV20","3PKJ68EHDO28O7HBL4QPFAGDEPGHJ1","3OWEPKL08BIA1S0EDV166O3PSIK7NF","emotion","match","uniform","","","","","","","2919.699999988079","135220.5","138140.19999998808","[""stimuli/HF04_AO.jpg"",""stimuli/AF09_SUR.jpg"",""stimuli/AM09_FO.jpg"",""stimuli/BM07_DO.jpg""]","stimuli/HF04_AO.jpg","stimuli/AF09_SUR.jpg","stimuli/AM09_FO.jpg","stimuli/BM07_DO.jpg","pos1","stimuli/HF04_AO.jpg","AO","HF04","0","3","6","6","stimuli/stars_6.png","55","[""AO"",""SUR"",""FO"",""DO""]","[""HF04"",""AF09"",""AM09"",""BM07""]","[6,6,10,1]","[6,4,8,2]","","",""
"show-reward","44","139380","0.0-44.0","p36357","AD15OW944ZV20","3PKJ68EHDO28O7HBL4QPFAGDEPGHJ1","3OWEPKL08BIA1S0EDV166O3PSIK7NF","emotion","match","uniform","","","","","","","","138646.30000001192","140647.39999997616","","","","","","","","","","","","6","","stimuli/stars_6.png","55","","","","","stimuli/HF04_AO.jpg","",""
"explore-choice","45","141615","0.0-45.0","p36357","AD15OW944ZV20","3PKJ68EHDO28O7HBL4QPFAGDEPGHJ1","3OWEPKL08BIA1S0EDV166O3PSIK7NF","emotion","match","uniform","","","","","","","1733","140648","142381","[""stimuli/BM07_SUR.jpg"",""stimuli/HF04_AO.jpg"",""stimuli/AM09_FO.jpg"",""stimuli/AF09_DO.jpg""]","stimuli/BM07_SUR.jpg","stimuli/HF04_AO.jpg","stimuli/AM09_FO.jpg","stimuli/AF09_DO.jpg","pos2","stimuli/HF04_AO.jpg","AO","HF04","1","3","6","6","stimuli/stars_6.png","58","[""SUR"",""AO"",""FO"",""DO""]","[""BM07"",""HF04"",""AM09"",""AF09""]","[2,6,10,0]","[4,6,8,2]","","",""
"show-reward","46","143617","0.0-46.0","p36357","AD15OW944ZV20","3PKJ68EHDO28O7HBL4QPFAGDEPGHJ1","3OWEPKL08BIA1S0EDV166O3PSIK7NF","emotion","match","uniform","","","","","","","","142882.30000001192","144884.39999997616","","","","","","","","","","","","6","","stimuli/stars_6.png","58","","","","","stimuli/HF04_AO.jpg","",""
"explore-choice","47","147414","0.0-47.0","p36357","AD15OW944ZV20","3PKJ68EHDO28O7HBL4QPFAGDEPGHJ1","3OWEPKL08BIA1S0EDV166O3PSIK7NF","emotion","match","uniform","","","","","","","3295.699999988079","144885.10000002384","148180.80000001192","[""stimuli/BM07_FO.jpg"",""stimuli/AM09_AO.jpg"",""stimuli/HF04_SUR.jpg"",""stimuli/AF09_DO.jpg""]","stimuli/BM07_FO.jpg","stimuli/AM09_AO.jpg","stimuli/HF04_SUR.jpg","stimuli/AF09_DO.jpg","pos2","stimuli/AM09_AO.jpg","AO","AM09","1","4","8","6","stimuli/stars_8.png","62","[""FO"",""AO"",""SUR"",""DO""]","[""BM07"",""AM09"",""HF04"",""AF09""]","[8,8,4,2]","[8,6,4,2]","","",""
"show-reward","48","149420","0.0-48.0","p36357","AD15OW944ZV20","3PKJ68EHDO28O7HBL4QPFAGDEPGHJ1","3OWEPKL08BIA1S0EDV166O3PSIK7NF","emotion","match","uniform","","","","","","","","148681.5","150686.80000001192","","","","","","","","","","","","8","","stimuli/stars_8.png","62","","","","","stimuli/AM09_AO.jpg","",""
"explore-choice","49","153550","0.0-49.0","p36357","AD15OW944ZV20","3PKJ68EHDO28O7HBL4QPFAGDEPGHJ1","3OWEPKL08BIA1S0EDV166O3PSIK7NF","emotion","match","uniform","","","","","","","3628.900000035763","150687.39999997616","154316.30000001192","[""stimuli/BM07_FO.jpg"",""stimuli/AM09_AO.jpg"",""stimuli/HF04_DO.jpg"",""stimuli/AF09_SUR.jpg""]","stimuli/BM07_FO.jpg","stimuli/AM09_AO.jpg","stimuli/HF04_DO.jpg","stimuli/AF09_SUR.jpg","pos2","stimuli/AM09_AO.jpg","AO","AM09","1","3","6","6","stimuli/stars_6.png","65","[""FO"",""AO"",""DO"",""SUR""]","[""BM07"",""AM09"",""HF04"",""AF09""]","[9,6,2,3]","[8,6,2,4]","","",""
"show-reward","50","155559","0.0-50.0","p36357","AD15OW944ZV20","3PKJ68EHDO28O7HBL4QPFAGDEPGHJ1","3OWEPKL08BIA1S0EDV166O3PSIK7NF","emotion","match","uniform","","","","","","","","154817.5","156825.89999997616","","","","","","","","","","","","6","","stimuli/stars_6.png","65","","","","","stimuli/AM09_AO.jpg","",""
"explore-choice","51","158272","0.0-51.0","p36357","AD15OW944ZV20","3PKJ68EHDO28O7HBL4QPFAGDEPGHJ1","3OWEPKL08BIA1S0EDV166O3PSIK7NF","emotion","match","uniform","","","","","","","2209.599999964237","156826.60000002384","159036.19999998808","[""stimuli/HF04_SUR.jpg"",""stimuli/BM07_AO.jpg"",""stimuli/AF09_FO.jpg"",""stimuli/AM09_DO.jpg""]","stimuli/HF04_SUR.jpg","stimuli/BM07_AO.jpg","stimuli/AF09_FO.jpg","stimuli/AM09_DO.jpg","pos2","stimuli/BM07_AO.jpg","AO","BM07","1","3","6","6","stimuli/stars_6.png","68","[""SUR"",""AO"",""FO"",""DO""]","[""HF04"",""BM07"",""AF09"",""AM09""]","[4,6,10,2]","[4,6,8,2]","","",""
"show-reward","52","160275","0.0-52.0","p36357","AD15OW944ZV20","3PKJ68EHDO28O7HBL4QPFAGDEPGHJ1","3OWEPKL08BIA1S0EDV166O3PSIK7NF","emotion","match","uniform","","","","","","","","159539.5","161541.80000001192","","","","","","","","","","","","6","","stimuli/stars_6.png","68","","","","","stimuli/BM07_AO.jpg","",""
"explore-choice","53","162895","0.0-53.0","p36357","AD15OW944ZV20","3PKJ68EHDO28O7HBL4QPFAGDEPGHJ1","3OWEPKL08BIA1S0EDV166O3PSIK7NF","emotion","match","uniform","","","","","","","2118.400000035763","161542.39999997616","163660.80000001192","[""stimuli/BM07_FO.jpg"",""stimuli/AF09_AO.jpg"",""stimuli/AM09_SUR.jpg"",""stimuli/HF04_DO.jpg""]","stimuli/BM07_FO.jpg","stimuli/AF09_AO.jpg","stimuli/AM09_SUR.jpg","stimuli/HF04_DO.jpg","pos2","stimuli/AF09_AO.jpg","AO","AF09","1","4","8","6","stimuli/stars_8.png","72","[""FO"",""AO"",""SUR"",""DO""]","[""BM07"",""AF09"",""AM09"",""HF04""]","[9,8,3,0]","[8,6,4,2]","","",""
"show-reward","54","164897","0.0-54.0","p36357","AD15OW944ZV20","3PKJ68EHDO28O7HBL4QPFAGDEPGHJ1","3OWEPKL08BIA1S0EDV166O3PSIK7NF","emotion","match","uniform","","","","","","","","164162.5","166164.10000002384","","","","","","","","","","","","8","","stimuli/stars_8.png","72","","","","","stimuli/AF09_AO.jpg","",""
"explore-choice","55","167878","0.0-55.0","p36357","AD15OW944ZV20","3PKJ68EHDO28O7HBL4QPFAGDEPGHJ1","3OWEPKL08BIA1S0EDV166O3PSIK7NF","emotion","match","uniform","","","","","","","2479.5","166164.69999998808","168644.19999998808","[""stimuli/AM09_FO.jpg"",""stimuli/HF04_DO.jpg"",""stimuli/BM07_AO.jpg"",""stimuli/AF09_SUR.jpg""]","stimuli/AM09_FO.jpg","stimuli/HF04_DO.jpg","stimuli/BM07_AO.jpg","stimuli/AF09_SUR.jpg","pos3","stimuli/BM07_AO.jpg","AO","BM07","2","2","4","6","stimuli/stars_4.png","74","[""FO"",""DO"",""AO"",""SUR""]","[""AM09"",""HF04"",""BM07"",""AF09""]","[6,3,4,2]","[8,2,6,4]","","",""
"show-reward","56","169881","0.0-56.0","p36357","AD15OW944ZV20","3PKJ68EHDO28O7HBL4QPFAGDEPGHJ1","3OWEPKL08BIA1S0EDV166O3PSIK7NF","emotion","match","uniform","","","","","","","","169145.80000001192","171148.10000002384","","","","","","","","","","","","4","","stimuli/stars_4.png","74","","","","","stimuli/BM07_AO.jpg","",""
"explore-choice","57","172910","0.0-57.0","p36357","AD15OW944ZV20","3PKJ68EHDO28O7HBL4QPFAGDEPGHJ1","3OWEPKL08BIA1S0EDV166O3PSIK7NF","emotion","match","uniform","","","","","","","2527.899999976158","171148.60000002384","173676.5","[""stimuli/HF04_SUR.jpg"",""stimuli/AM09_AO.jpg"",""stimuli/AF09_FO.jpg"",""stimuli/BM07_DO.jpg""]","stimuli/HF04_SUR.jpg","stimuli/AM09_AO.jpg","stimuli/AF09_FO.jpg","stimuli/BM07_DO.jpg","pos2","stimuli/AM09_AO.jpg","AO","AM09","1","2","4","6","stimuli/stars_4.png","76","[""SUR"",""AO"",""FO"",""DO""]","[""HF04"",""AM09"",""AF09"",""BM07""]","[6,4,10,3]","[4,6,8,2]","","",""
"show-reward","58","174924","0.0-58.0","p36357","AD15OW944ZV20","3PKJ68EHDO28O7HBL4QPFAGDEPGHJ1","3OWEPKL08BIA1S0EDV166O3PSIK7NF","emotion","match","uniform","","","","","","","","174177.30000001192","176190.80000001192","","","","","","","","","","","","4","","stimuli/stars_4.png","76","","","","","stimuli/AM09_AO.jpg","",""
"explore-choice","59","177910","0.0-59.0","p36357","AD15OW944ZV20","3PKJ68EHDO28O7HBL4QPFAGDEPGHJ1","3OWEPKL08BIA1S0EDV166O3PSIK7NF","emotion","match","uniform","","","","","","","2484.800000011921","176191.5","178676.30000001192","[""stimuli/AF09_AO.jpg"",""stimuli/AM09_FO.jpg"",""stimuli/HF04_SUR.jpg"",""stimuli/BM07_DO.jpg""]","stimuli/AF09_AO.jpg","stimuli/AM09_FO.jpg","stimuli/HF04_SUR.jpg","stimuli/BM07_DO.jpg","pos1","stimuli/AF09_AO.jpg","AO","AF09","0","2","4","6","stimuli/stars_4.png","78","[""AO"",""FO"",""SUR"",""DO""]","[""AF09"",""AM09"",""HF04"",""BM07""]","[4,10,5,4]","[6,8,4,2]","","",""
"show-reward","60","179912","0.0-60.0","p36357","AD15OW944ZV20","3PKJ68EHDO28O7HBL4QPFAGDEPGHJ1","3OWEPKL08BIA1S0EDV166O3PSIK7NF","emotion","match","uniform","","","","","","","","179177.30000001192","181179.10000002384","","","","","","","","","","","","4","","stimuli/stars_4.png","78","","","","","stimuli/AF09_AO.jpg","",""
"explore-choice","61","181733","0.0-61.0","p36357","AD15OW944ZV20","3PKJ68EHDO28O7HBL4QPFAGDEPGHJ1","3OWEPKL08BIA1S0EDV166O3PSIK7NF","emotion","match","uniform","","","","","","","1320.5999999642372","181179.60000002384","182500.19999998808","[""stimuli/BM07_AO.jpg"",""stimuli/HF04_SUR.jpg"",""stimuli/AM09_FO.jpg"",""stimuli/AF09_DO.jpg""]","stimuli/BM07_AO.jpg","stimuli/HF04_SUR.jpg","stimuli/AM09_FO.jpg","stimuli/AF09_DO.jpg","pos1","stimuli/BM07_AO.jpg","AO","BM07","0","4","8","6","stimuli/stars_8.png","82","[""AO"",""SUR"",""FO"",""DO""]","[""BM07"",""HF04"",""AM09"",""AF09""]","[8,2,9,3]","[6,4,8,2]","","",""
"show-reward","62","183735","0.0-62.0","p36357","AD15OW944ZV20","3PKJ68EHDO28O7HBL4QPFAGDEPGHJ1","3OWEPKL08BIA1S0EDV166O3PSIK7NF","emotion","match","uniform","","","","","","","","183001.10000002384","185002.5","","","","","","","","","","","","8","","stimuli/stars_8.png","82","","","","","stimuli/BM07_AO.jpg","",""
"explore-choice","63","186494","0.0-63.0","p36357","AD15OW944ZV20","3PKJ68EHDO28O7HBL4QPFAGDEPGHJ1","3OWEPKL08BIA1S0EDV166O3PSIK7NF","emotion","match","uniform","","","","","","","2257.899999976158","185003.10000002384","187261","[""stimuli/AF09_AO.jpg"",""stimuli/HF04_FO.jpg"",""stimuli/AM09_SUR.jpg"",""stimuli/BM07_DO.jpg""]","stimuli/AF09_AO.jpg","stimuli/HF04_FO.jpg","stimuli/AM09_SUR.jpg","stimuli/BM07_DO.jpg","pos1","stimuli/AF09_AO.jpg","AO","AF09","0","3.5","7","6","stimuli/stars_7.png","85.5","[""AO"",""FO"",""SUR"",""DO""]","[""AF09"",""HF04"",""AM09"",""BM07""]","[7,10,5,1]","[6,8,4,2]","","",""
"show-reward","64","188496","0.0-64.0","p36357","AD15OW944ZV20","3PKJ68EHDO28O7HBL4QPFAGDEPGHJ1","3OWEPKL08BIA1S0EDV166O3PSIK7NF","emotion","match","uniform","","","","","","","","187762.10000002384","189763.39999997616","","","","","","","","","","","","7","","stimuli/stars_7.png","85.5","","","","","stimuli/AF09_AO.jpg","",""
"explore-choice","65","192253","0.0-65.0","p36357","AD15OW944ZV20","3PKJ68EHDO28O7HBL4QPFAGDEPGHJ1","3OWEPKL08BIA1S0EDV166O3PSIK7NF","emotion","match","uniform","","","","","","","3248.199999988079","189764","193012.19999998808","[""stimuli/BM07_FO.jpg"",""stimuli/AM09_DO.jpg"",""stimuli/HF04_AO.jpg"",""stimuli/AF09_SUR.jpg""]","stimuli/BM07_FO.jpg","stimuli/AM09_DO.jpg","stimuli/HF04_AO.jpg","stimuli/AF09_SUR.jpg","pos3","stimuli/HF04_AO.jpg","AO","HF04","2","4","8","6","stimuli/stars_8.png","89.5","[""FO"",""DO"",""AO"",""SUR""]","[""BM07"",""AM09"",""HF04"",""AF09""]","[9,1,8,4]","[8,2,6,4]","","",""
"show-reward","66","194260","0.0-66.0","p36357","AD15OW944ZV20","3PKJ68EHDO28O7HBL4QPFAGDEPGHJ1","3OWEPKL08BIA1S0EDV166O3PSIK7NF","emotion","match","uniform","","","","","","","","193520.60000002384","195527.30000001192","","","","","","","","","","","","8","","stimuli/stars_8.png","89.5","","","","","stimuli/HF04_AO.jpg","",""
"explore-choice","67","198053","0.0-67.0","p36357","AD15OW944ZV20","3PKJ68EHDO28O7HBL4QPFAGDEPGHJ1","3OWEPKL08BIA1S0EDV166O3PSIK7NF","emotion","match","uniform","","","","","","","3292.399999976158","195528","198820.39999997616","[""stimuli/AM09_AO.jpg"",""stimuli/HF04_DO.jpg"",""stimuli/AF09_SUR.jpg"",""stimuli/BM07_FO.jpg""]","stimuli/AM09_AO.jpg","stimuli/HF04_DO.jpg","stimuli/AF09_SUR.jpg","stimuli/BM07_FO.jpg","pos1","stimuli/AM09_AO.jpg","AO","AM09","0","3","6","6","stimuli/stars_6.png","92.5","[""AO"",""DO"",""SUR"",""FO""]","[""AM09"",""HF04"",""AF09"",""BM07""]","[6,2,3,9]","[6,2,4,8]","","",""
"show-reward","68","200055","0.0-68.0","p36357","AD15OW944ZV20","3PKJ68EHDO28O7HBL4QPFAGDEPGHJ1","3OWEPKL08BIA1S0EDV166O3PSIK7NF","emotion","match","uniform","","","","","","","","199321.19999998808","201322.69999998808","","","","","","","","","","","","6","","stimuli/stars_6.png","92.5","","","","","stimuli/AM09_AO.jpg","",""
"explore-choice","69","202166","0.0-69.0","p36357","AD15OW944ZV20","3PKJ68EHDO28O7HBL4QPFAGDEPGHJ1","3OWEPKL08BIA1S0EDV166O3PSIK7NF","emotion","match","uniform","","","","","","","1609.2000000476837","201323.39999997616","202932.60000002384","[""stimuli/AM09_AO.jpg"",""stimuli/HF04_FO.jpg"",""stimuli/AF09_DO.jpg"",""stimuli/BM07_SUR.jpg""]","stimuli/AM09_AO.jpg","stimuli/HF04_FO.jpg","stimuli/AF09_DO.jpg","stimuli/BM07_SUR.jpg","pos1","stimuli/AM09_AO.jpg","AO","AM09","0","2","4","6","stimuli/stars_4.png","94.5","[""AO"",""FO"",""DO"",""SUR""]","[""AM09"",""HF04"",""AF09"",""BM07""]","[4,8,0,6]","[6,8,2,4]","","",""
"show-reward","70","204169","0.0-70.0","p36357","AD15OW944ZV20","3PKJ68EHDO28O7HBL4QPFAGDEPGHJ1","3OWEPKL08BIA1S0EDV166O3PSIK7NF","emotion","match","uniform","","","","","","","","203434.19999998808","205435.80000001192","","","","","","","","","","","","4","","stimuli/stars_4.png","94.5","","","","","stimuli/AM09_AO.jpg","",""
"explore-choice","71","205647","0.0-71.0","p36357","AD15OW944ZV20","3PKJ68EHDO28O7HBL4QPFAGDEPGHJ1","3OWEPKL08BIA1S0EDV166O3PSIK7NF","emotion","match","uniform","","","","","","","976.5","205436.39999997616","206412.89999997616","[""stimuli/BM07_AO.jpg"",""stimuli/AM09_DO.jpg"",""stimuli/HF04_SUR.jpg"",""stimuli/AF09_FO.jpg""]","stimuli/BM07_AO.jpg","stimuli/AM09_DO.jpg","stimuli/HF04_SUR.jpg","stimuli/AF09_FO.jpg","pos1","stimuli/BM07_AO.jpg","AO","BM07","0","3","6","6","stimuli/stars_6.png","97.5","[""AO"",""DO"",""SUR"",""FO""]","[""BM07"",""AM09"",""HF04"",""AF09""]","[6,2,4,10]","[6,2,4,8]","","",""
"show-reward","72","207649","0.0-72.0","p36357","AD15OW944ZV20","3PKJ68EHDO28O7HBL4QPFAGDEPGHJ1","3OWEPKL08BIA1S0EDV166O3PSIK7NF","emotion","match","uniform","","","","","","","","206914.39999997616","208915.69999998808","","","","","","","","","","","","6","","stimuli/stars_6.png","97.5","","","","","stimuli/BM07_AO.jpg","",""
"explore-choice","73","209166","0.0-73.0","p36357","AD15OW944ZV20","3PKJ68EHDO28O7HBL4QPFAGDEPGHJ1","3OWEPKL08BIA1S0EDV166O3PSIK7NF","emotion","match","uniform","","","","","","","1016","208916.30000001192","209932.30000001192","[""stimuli/AM09_SUR.jpg"",""stimuli/HF04_DO.jpg"",""stimuli/BM07_AO.jpg"",""stimuli/AF09_FO.jpg""]","stimuli/AM09_SUR.jpg","stimuli/HF04_DO.jpg","stimuli/BM07_AO.jpg","stimuli/AF09_FO.jpg","pos3","stimuli/BM07_AO.jpg","AO","BM07","2","2.5","5","6","stimuli/stars_5.png","100","[""SUR"",""DO"",""AO"",""FO""]","[""AM09"",""HF04"",""BM07"",""AF09""]","[5,2,5,7]","[4,2,6,8]","","",""
"show-reward","74","211167","0.0-74.0","p36357","AD15OW944ZV20","3PKJ68EHDO28O7HBL4QPFAGDEPGHJ1","3OWEPKL08BIA1S0EDV166O3PSIK7NF","emotion","match","uniform","","","","","","","","210433.5","212434.60000002384","","","","","","","","","","","","5","","stimuli/stars_5.png","100","","","","","stimuli/BM07_AO.jpg","",""
"explore-choice","75","213980","0.0-75.0","p36357","AD15OW944ZV20","3PKJ68EHDO28O7HBL4QPFAGDEPGHJ1","3OWEPKL08BIA1S0EDV166O3PSIK7NF","emotion","match","uniform","","","","","","","2305.699999988079","212435.30000001192","214741","[""stimuli/AM09_SUR.jpg"",""stimuli/AF09_AO.jpg"",""stimuli/HF04_DO.jpg"",""stimuli/BM07_FO.jpg""]","stimuli/AM09_SUR.jpg","stimuli/AF09_AO.jpg","stimuli/HF04_DO.jpg","stimuli/BM07_FO.jpg","pos2","stimuli/AF09_AO.jpg","AO","AF09","1","4","8","6","stimuli/stars_8.png","104","[""SUR"",""AO"",""DO"",""FO""]","[""AM09"",""AF09"",""HF04"",""BM07""]","[3,8,0,9]","[4,6,2,8]","","",""
"show-reward","76","215984","0.0-76.0","p36357","AD15OW944ZV20","3PKJ68EHDO28O7HBL4QPFAGDEPGHJ1","3OWEPKL08BIA1S0EDV166O3PSIK7NF","emotion","match","uniform","","","","","","","","215248.19999998808","217251","","","","","","","","","","","","8","","stimuli/stars_8.png","104","","","","","stimuli/AF09_AO.jpg","",""
"explore-choice","77","219701","0.0-77.0","p36357","AD15OW944ZV20","3PKJ68EHDO28O7HBL4QPFAGDEPGHJ1","3OWEPKL08BIA1S0EDV166O3PSIK7NF","emotion","match","uniform","","","","","","","3216.899999976158","217251.5","220468.39999997616","[""stimuli/HF04_SUR.jpg"",""stimuli/BM07_FO.jpg"",""stimuli/AM09_AO.jpg"",""stimuli/AF09_DO.jpg""]","stimuli/HF04_SUR.jpg","stimuli/BM07_FO.jpg","stimuli/AM09_AO.jpg","stimuli/AF09_DO.jpg","pos3","stimuli/AM09_AO.jpg","AO","AM09","2","4","8","6","stimuli/stars_8.png","108","[""SUR"",""FO"",""AO"",""DO""]","[""HF04"",""BM07"",""AM09"",""AF09""]","[4,8,8,2]","[4,8,6,2]","","",""
"show-reward","78","221703","0.0-78.0","p36357","AD15OW944ZV20","3PKJ68EHDO28O7HBL4QPFAGDEPGHJ1","3OWEPKL08BIA1S0EDV166O3PSIK7NF","emotion","match","uniform","","","","","","","","220969","222970.39999997616","","","","","","","","","","","","8","","stimuli/stars_8.png","108","","","","","stimuli/AM09_AO.jpg","",""
"explore-choice","79","224565","0.0-79.0","p36357","AD15OW944ZV20","3PKJ68EHDO28O7HBL4QPFAGDEPGHJ1","3OWEPKL08BIA1S0EDV166O3PSIK7NF","emotion","match","uniform","","","","","","","2361.199999988079","222971","225332.19999998808","[""stimuli/BM07_SUR.jpg"",""stimuli/AF09_FO.jpg"",""stimuli/HF04_AO.jpg"",""stimuli/AM09_DO.jpg""]","stimuli/BM07_SUR.jpg","stimuli/AF09_FO.jpg","stimuli/HF04_AO.jpg","stimuli/AM09_DO.jpg","pos3","stimuli/HF04_AO.jpg","AO","HF04","2","2.5","5","6","stimuli/stars_5.png","110.5","[""SUR"",""FO"",""AO"",""DO""]","[""BM07"",""AF09"",""HF04"",""AM09""]","[4,10,5,1]","[4,8,6,2]","","",""
"show-reward","80","226567","0.0-80.0","p36357","AD15OW944ZV20","3PKJ68EHDO28O7HBL4QPFAGDEPGHJ1","3OWEPKL08BIA1S0EDV166O3PSIK7NF","emotion","match","uniform","","","","","","","","225833.19999998808","227834.60000002384","","","","","","","","","","","","5","","stimuli/stars_5.png","110.5","","","","","stimuli/HF04_AO.jpg","",""
"explore-choice","81","228846","0.0-81.0","p36357","AD15OW944ZV20","3PKJ68EHDO28O7HBL4QPFAGDEPGHJ1","3OWEPKL08BIA1S0EDV166O3PSIK7NF","emotion","match","uniform","","","","","","","1777.1000000238419","227835.19999998808","229612.30000001192","[""stimuli/HF04_FO.jpg"",""stimuli/AF09_DO.jpg"",""stimuli/AM09_SUR.jpg"",""stimuli/BM07_AO.jpg""]","stimuli/HF04_FO.jpg","stimuli/AF09_DO.jpg","stimuli/AM09_SUR.jpg","stimuli/BM07_AO.jpg","pos4","stimuli/BM07_AO.jpg","AO","BM07","3","3","6","6","stimuli/stars_6.png","113.5","[""FO"",""DO"",""SUR"",""AO""]","[""HF04"",""AF09"",""AM09"",""BM07""]","[9,2,4,6]","[8,2,4,6]","","",""
"show-reward","82","230849","0.0-82.0","p36357","AD15OW944ZV20","3PKJ68EHDO28O7HBL4QPFAGDEPGHJ1","3OWEPKL08BIA1S0EDV166O3PSIK7NF","emotion","match","uniform","","","","","","","","230113.80000001192","232116.5","","","","","","","","","","","","6","","stimuli/stars_6.png","113.5","","","","","stimuli/BM07_AO.jpg","",""
"explore-choice","83","234488","0.0-83.0","p36357","AD15OW944ZV20","3PKJ68EHDO28O7HBL4QPFAGDEPGHJ1","3OWEPKL08BIA1S0EDV166O3PSIK7NF","emotion","match","uniform","","","","","","","3136.899999976158","232117","235253.89999997616","[""stimuli/AF09_AO.jpg"",""stimuli/AM09_DO.jpg"",""stimuli/HF04_SUR.jpg"",""stimuli/BM07_FO.jpg""]","stimuli/AF09_AO.jpg","stimuli/AM09_DO.jpg","stimuli/HF04_SUR.jpg","stimuli/BM07_FO.jpg","pos1","stimuli/AF09_AO.jpg","AO","AF09","0","4","8","6","stimuli/stars_8.png","117.5","[""AO"",""DO"",""SUR"",""FO""]","[""AF09"",""AM09"",""HF04"",""BM07""]","[8,4,4,10]","[6,2,4,8]","","",""
"show-reward","84","236496","0.0-84.0","p36357","AD15OW944ZV20","3PKJ68EHDO28O7HBL4QPFAGDEPGHJ1","3OWEPKL08BIA1S0EDV166O3PSIK7NF","emotion","match","uniform","","","","","","","","235756.80000001192","237762.80000001192","","","","","","","","","","","","8","","stimuli/stars_8.png","117.5","","","","","stimuli/AF09_AO.jpg","",""
"explore-choice","85","239414","0.0-85.0","p36357","AD15OW944ZV20","3PKJ68EHDO28O7HBL4QPFAGDEPGHJ1","3OWEPKL08BIA1S0EDV166O3PSIK7NF","emotion","match","uniform","","","","","","","2417.099999964237","237763.60000002384","240180.69999998808","[""stimuli/HF04_FO.jpg"",""stimuli/AF09_SUR.jpg"",""stimuli/BM07_AO.jpg"",""stimuli/AM09_DO.jpg""]","stimuli/HF04_FO.jpg","stimuli/AF09_SUR.jpg","stimuli/BM07_AO.jpg","stimuli/AM09_DO.jpg","pos3","stimuli/BM07_AO.jpg","AO","BM07","2","2.5","5","6","stimuli/stars_5.png","120","[""FO"",""SUR"",""AO"",""DO""]","[""HF04"",""AF09"",""BM07"",""AM09""]","[9,4,5,3]","[8,4,6,2]","","",""
"show-reward","86","241421","0.0-86.0","p36357","AD15OW944ZV20","3PKJ68EHDO28O7HBL4QPFAGDEPGHJ1","3OWEPKL08BIA1S0EDV166O3PSIK7NF","emotion","match","uniform","","","","","","","","240681.69999998808","242688.30000001192","","","","","","","","","","","","5","","stimuli/stars_5.png","120","","","","","stimuli/BM07_AO.jpg","",""
"explore-choice","87","244150","0.0-87.0","p36357","AD15OW944ZV20","3PKJ68EHDO28O7HBL4QPFAGDEPGHJ1","3OWEPKL08BIA1S0EDV166O3PSIK7NF","emotion","match","uniform","","","","","","","2227.300000011921","242689.19999998808","244916.5","[""stimuli/BM07_SUR.jpg"",""stimuli/AM09_DO.jpg"",""stimuli/AF09_AO.jpg"",""stimuli/HF04_FO.jpg""]","stimuli/BM07_SUR.jpg","stimuli/AM09_DO.jpg","stimuli/AF09_AO.jpg","stimuli/HF04_FO.jpg","pos3","stimuli/AF09_AO.jpg","AO","AF09","2","4","8","6","stimuli/stars_8.png","124","[""SUR"",""DO"",""AO"",""FO""]","[""BM07"",""AM09"",""AF09"",""HF04""]","[6,1,8,10]","[4,2,6,8]","","",""
"show-reward","88","246157","0.0-88.0","p36357","AD15OW944ZV20","3PKJ68EHDO28O7HBL4QPFAGDEPGHJ1","3OWEPKL08BIA1S0EDV166O3PSIK7NF","emotion","match","uniform","","","","","","","","245417.69999998808","247424.39999997616","","","","","","","","","","","","8","","stimuli/stars_8.png","124","","","","","stimuli/AF09_AO.jpg","",""
"explore-choice","89","249050","0.0-89.0","p36357","AD15OW944ZV20","3PKJ68EHDO28O7HBL4QPFAGDEPGHJ1","3OWEPKL08BIA1S0EDV166O3PSIK7NF","emotion","match","uniform","","","","","","","2379.400000035763","247425.19999998808","249804.60000002384","[""stimuli/AM09_FO.jpg"",""stimuli/AF09_DO.jpg"",""stimuli/BM07_SUR.jpg"",""stimuli/HF04_AO.jpg""]","stimuli/AM09_FO.jpg","stimuli/AF09_DO.jpg","stimuli/BM07_SUR.jpg","stimuli/HF04_AO.jpg","pos2","stimuli/AF09_DO.jpg","DO","AF09","1","0","0","2","stimuli/stars_0.png","124","[""FO"",""DO"",""SUR"",""AO""]","[""AM09"",""AF09"",""BM07"",""HF04""]","[10,0,2,6]","[8,2,4,6]","","",""
"show-reward","90","251055","0.0-90.0","p36357","AD15OW944ZV20","3PKJ68EHDO28O7HBL4QPFAGDEPGHJ1","3OWEPKL08BIA1S0EDV166O3PSIK7NF","emotion","match","uniform","","","","","","","","250318.60000002384","252321.69999998808","","","","","","","","","","","","0","","stimuli/stars_0.png","124","","","","","stimuli/AF09_DO.jpg","",""
"explore-choice","91","253641","0.0-91.0","p36357","AD15OW944ZV20","3PKJ68EHDO28O7HBL4QPFAGDEPGHJ1","3OWEPKL08BIA1S0EDV166O3PSIK7NF","emotion","match","uniform","","","","","","","2074.199999988079","252322.60000002384","254396.80000001192","[""stimuli/AF09_DO.jpg"",""stimuli/AM09_SUR.jpg"",""stimuli/BM07_FO.jpg"",""stimuli/HF04_AO.jpg""]","stimuli/AF09_DO.jpg","stimuli/AM09_SUR.jpg","stimuli/BM07_FO.jpg","stimuli/HF04_AO.jpg","pos1","stimuli/AF09_DO.jpg","DO","AF09","0","2","4","2","stimuli/stars_4.png","126","[""DO"",""SUR"",""FO"",""AO""]","[""AF09"",""AM09"",""BM07"",""HF04""]","[4,4,9,4]","[2,4,8,6]","","",""
"show-reward","92","255644","0.0-92.0","p36357","AD15OW944ZV20","3PKJ68EHDO28O7HBL4QPFAGDEPGHJ1","3OWEPKL08BIA1S0EDV166O3PSIK7NF","emotion","match","uniform","","","","","","","","254908.80000001192","256911.30000001192","","","","","","","","","","","","4","","stimuli/stars_4.png","126","","","","","stimuli/AF09_DO.jpg","",""
"explore-choice","93","258655","0.0-93.0","p36357","AD15OW944ZV20","3PKJ68EHDO28O7HBL4QPFAGDEPGHJ1","3OWEPKL08BIA1S0EDV166O3PSIK7NF","emotion","match","uniform","","","","","","","2508.5","256911.89999997616","259420.39999997616","[""stimuli/HF04_FO.jpg"",""stimuli/AM09_AO.jpg"",""stimuli/AF09_SUR.jpg"",""stimuli/BM07_DO.jpg""]","stimuli/HF04_FO.jpg","stimuli/AM09_AO.jpg","stimuli/AF09_SUR.jpg","stimuli/BM07_DO.jpg","pos2","stimuli/AM09_AO.jpg","AO","AM09","1","3","6","6","stimuli/stars_6.png","129","[""FO"",""AO"",""SUR"",""DO""]","[""HF04"",""AM09"",""AF09"",""BM07""]","[8,6,6,4]","[8,6,4,2]","","",""
"show-reward","94","260657","0.0-94.0","p36357","AD15OW944ZV20","3PKJ68EHDO28O7HBL4QPFAGDEPGHJ1","3OWEPKL08BIA1S0EDV166O3PSIK7NF","emotion","match","uniform","","","","","","","","259922.30000001192","261924.5","","","","","","","","","","","","6","","stimuli/stars_6.png","129","","","","","stimuli/AM09_AO.jpg","",""
"explore-choice","95","263214","0.0-95.0","p36357","AD15OW944ZV20","3PKJ68EHDO28O7HBL4QPFAGDEPGHJ1","3OWEPKL08BIA1S0EDV166O3PSIK7NF","emotion","match","uniform","","","","","","","2055.600000023842","261925","263980.60000002384","[""stimuli/HF04_DO.jpg"",""stimuli/AM09_FO.jpg"",""stimuli/AF09_AO.jpg"",""stimuli/BM07_SUR.jpg""]","stimuli/HF04_DO.jpg","stimuli/AM09_FO.jpg","stimuli/AF09_AO.jpg","stimuli/BM07_SUR.jpg","pos3","stimuli/AF09_AO.jpg","AO","AF09","2","4","8","6","stimuli/stars_8.png","133","[""DO"",""FO"",""AO"",""SUR""]","[""HF04"",""AM09"",""AF09"",""BM07""]","[4,10,8,4]","[2,8,6,4]","","",""
"show-reward","96","265217","0.0-96.0","p36357","AD15OW944ZV20","3PKJ68EHDO28O7HBL4QPFAGDEPGHJ1","3OWEPKL08BIA1S0EDV166O3PSIK7NF","emotion","match","uniform","","","","","","","","264482.1999999881","266483.60000002384","","","","","","","","","","","","8","","stimuli/stars_8.png","133","","","","","stimuli/AF09_AO.jpg","",""
"explore-choice","97","267439","0.0-97.0","p36357","AD15OW944ZV20","3PKJ68EHDO28O7HBL4QPFAGDEPGHJ1","3OWEPKL08BIA1S0EDV166O3PSIK7NF","emotion","match","uniform","","","","","","","1719.8999999761581","266484.5","268204.39999997616","[""stimuli/AM09_SUR.jpg"",""stimuli/BM07_DO.jpg"",""stimuli/HF04_AO.jpg"",""stimuli/AF09_FO.jpg""]","stimuli/AM09_SUR.jpg","stimuli/BM07_DO.jpg","stimuli/HF04_AO.jpg","stimuli/AF09_FO.jpg","pos3","stimuli/HF04_AO.jpg","AO","HF04","2","2.5","5","6","stimuli/stars_5.png","135.5","[""SUR"",""DO"",""AO"",""FO""]","[""AM09"",""BM07"",""HF04"",""AF09""]","[5,3,5,9]","[4,2,6,8]","","",""
"show-reward","98","269441","0.0-98.0","p36357","AD15OW944ZV20","3PKJ68EHDO28O7HBL4QPFAGDEPGHJ1","3OWEPKL08BIA1S0EDV166O3PSIK7NF","emotion","match","uniform","","","","","","","","268706.39999997616","270707.6999999881","","","","","","","","","","","","5","","stimuli/stars_5.png","135.5","","","","","stimuli/HF04_AO.jpg","",""
"explore-choice","99","272802","0.0-99.0","p36357","AD15OW944ZV20","3PKJ68EHDO28O7HBL4QPFAGDEPGHJ1","3OWEPKL08BIA1S0EDV166O3PSIK7NF","emotion","match","uniform","","","","","","","2856.199999988079","270708.1999999881","273564.39999997616","[""stimuli/BM07_SUR.jpg"",""stimuli/AF09_FO.jpg"",""stimuli/HF04_DO.jpg"",""stimuli/AM09_AO.jpg""]","stimuli/BM07_SUR.jpg","stimuli/AF09_FO.jpg","stimuli/HF04_DO.jpg","stimuli/AM09_AO.jpg","pos4","stimuli/AM09_AO.jpg","AO","AM09","3","3.5","7","6","stimuli/stars_7.png","139","[""SUR"",""FO"",""DO"",""AO""]","[""BM07"",""AF09"",""HF04"",""AM09""]","[4,8,1,7]","[4,8,2,6]","","",""
"show-reward","100","274809","0.0-100.0","p36357","AD15OW944ZV20","3PKJ68EHDO28O7HBL4QPFAGDEPGHJ1","3OWEPKL08BIA1S0EDV166O3PSIK7NF","emotion","match","uniform","","","","","","","","274069.3000000119","276075.60000002384","","","","","","","","","","","","7","","stimuli/stars_7.png","139","","","","","stimuli/AM09_AO.jpg","",""
"explore-choice","101","277855","0.0-101.0","p36357","AD15OW944ZV20","3PKJ68EHDO28O7HBL4QPFAGDEPGHJ1","3OWEPKL08BIA1S0EDV166O3PSIK7NF","emotion","match","uniform","","","","","","","2544.300000011921","276076.5","278620.8000000119","[""stimuli/BM07_DO.jpg"",""stimuli/AM09_FO.jpg"",""stimuli/AF09_SUR.jpg"",""stimuli/HF04_AO.jpg""]","stimuli/BM07_DO.jpg","stimuli/AM09_FO.jpg","stimuli/AF09_SUR.jpg","stimuli/HF04_AO.jpg","pos4","stimuli/HF04_AO.jpg","AO","HF04","3","3","6","6","stimuli/stars_6.png","142","[""DO"",""FO"",""SUR"",""AO""]","[""BM07"",""AM09"",""AF09"",""HF04""]","[1,10,6,6]","[2,8,4,6]","","",""
"show-reward","102","279865","0.0-102.0","p36357","AD15OW944ZV20","3PKJ68EHDO28O7HBL4QPFAGDEPGHJ1","3OWEPKL08BIA1S0EDV166O3PSIK7NF","emotion","match","uniform","","","","","","","","279122.5","281132.39999997616","","","","","","","","","","","","6","","stimuli/stars_6.png","142","","","","","stimuli/HF04_AO.jpg","",""
"explore-choice","103","286751","0.0-103.0","p36357","AD15OW944ZV20","3PKJ68EHDO28O7HBL4QPFAGDEPGHJ1","3OWEPKL08BIA1S0EDV166O3PSIK7NF","emotion","match","uniform","","","","","","","6383.599999964237","281133.10000002384","287516.6999999881","[""stimuli/WF06_SC.jpg"",""stimuli/BM03_CC.jpg"",""stimuli/BF05_HO.jpg"",""stimuli/AM05_HE.jpg""]","stimuli/WF06_SC.jpg","stimuli/BM03_CC.jpg","stimuli/BF05_HO.jpg","stimuli/AM05_HE.jpg","pos3","stimuli/BF05_HO.jpg","HO","BF05","2","5","10","8","stimuli/stars_10.png","147","[""SC"",""CC"",""HO"",""HE""]","[""WF06"",""BM03"",""BF05"",""AM05""]","[1,2,10,7]","[2,4,8,6]","","",""
"show-reward","104","288753","0.0-104.0","p36357","AD15OW944ZV20","3PKJ68EHDO28O7HBL4QPFAGDEPGHJ1","3OWEPKL08BIA1S0EDV166O3PSIK7NF","emotion","match","uniform","","","","","","","","288018.1999999881","290019.60000002384","","","","","","","","","","","","10","","stimuli/stars_10.png","147","","","","","stimuli/BF05_HO.jpg","",""
"explore-choice","105","291510","0.0-105.0","p36357","AD15OW944ZV20","3PKJ68EHDO28O7HBL4QPFAGDEPGHJ1","3OWEPKL08BIA1S0EDV166O3PSIK7NF","emotion","match","uniform","","","","","","","2256.300000011921","290020.1999999881","292276.5","[""stimuli/WF06_HO.jpg"",""stimuli/BF05_SC.jpg"",""stimuli/BM03_HE.jpg"",""stimuli/AM05_CC.jpg""]","stimuli/WF06_HO.jpg","stimuli/BF05_SC.jpg","stimuli/BM03_HE.jpg","stimuli/AM05_CC.jpg","pos3","stimuli/BM03_HE.jpg","HE","BM03","2","3.5","7","6","stimuli/stars_7.png","150.5","[""HO"",""SC"",""HE"",""CC""]","[""WF06"",""BF05"",""BM03"",""AM05""]","[6,0,7,4]","[8,2,6,4]","","",""
"show-reward","106","293525","0.0-106.0","p36357","AD15OW944ZV20","3PKJ68EHDO28O7HBL4QPFAGDEPGHJ1","3OWEPKL08BIA1S0EDV166O3PSIK7NF","emotion","match","uniform","","","","","","","","292777.1999999881","294792.5","","","","","","","","","","","","7","","stimuli/stars_7.png","150.5","","","","","stimuli/BM03_HE.jpg","",""
"explore-choice","107","296134","0.0-107.0","p36357","AD15OW944ZV20","3PKJ68EHDO28O7HBL4QPFAGDEPGHJ1","3OWEPKL08BIA1S0EDV166O3PSIK7NF","emotion","match","uniform","","","","","","","2107.900000035763","294793.1999999881","296901.10000002384","[""stimuli/BM03_HO.jpg"",""stimuli/AM05_HE.jpg"",""stimuli/WF06_SC.jpg"",""stimuli/BF05_CC.jpg""]","stimuli/BM03_HO.jpg","stimuli/AM05_HE.jpg","stimuli/WF06_SC.jpg","stimuli/BF05_CC.jpg","pos2","stimuli/AM05_HE.jpg","HE","AM05","1","2","4","6","stimuli/stars_4.png","152.5","[""HO"",""HE"",""SC"",""CC""]","[""BM03"",""AM05"",""WF06"",""BF05""]","[6,4,2,6]","[8,6,2,4]","","",""
"show-reward","108","298155","0.0-108.0","p36357","AD15OW944ZV20","3PKJ68EHDO28O7HBL4QPFAGDEPGHJ1","3OWEPKL08BIA1S0EDV166O3PSIK7NF","emotion","match","uniform","","","","","","","","297403.10000002384","299420.89999997616","","","","","","","","","","","","4","","stimuli/stars_4.png","152.5","","","","","stimuli/AM05_HE.jpg","",""
"explore-choice","109","300056","0.0-109.0","p36357","AD15OW944ZV20","3PKJ68EHDO28O7HBL4QPFAGDEPGHJ1","3OWEPKL08BIA1S0EDV166O3PSIK7NF","emotion","match","uniform","","","","","","","1399.5","299422","300821.5","[""stimuli/BF05_HE.jpg"",""stimuli/AM05_SC.jpg"",""stimuli/BM03_CC.jpg"",""stimuli/WF06_HO.jpg""]","stimuli/BF05_HE.jpg","stimuli/AM05_SC.jpg","stimuli/BM03_CC.jpg","stimuli/WF06_HO.jpg","pos1","stimuli/BF05_HE.jpg","HE","BF05","0","2.5","5","6","stimuli/stars_5.png","155","[""HE"",""SC"",""CC"",""HO""]","[""BF05"",""AM05"",""BM03"",""WF06""]","[5,2,5,6]","[6,2,4,8]","","",""
"show-reward","110","302061","0.0-110.0","p36357","AD15OW944ZV20","3PKJ68EHDO28O7HBL4QPFAGDEPGHJ1","3OWEPKL08BIA1S0EDV166O3PSIK7NF","emotion","match","uniform","","","","","","","","301323.39999997616","303326.6999999881","","","","","","","","","","","","5","","stimuli/stars_5.png","155","","","","","stimuli/BF05_HE.jpg","",""
"explore-choice","111","304187","0.0-111.0","p36357","AD15OW944ZV20","3PKJ68EHDO28O7HBL4QPFAGDEPGHJ1","3OWEPKL08BIA1S0EDV166O3PSIK7NF","emotion","match","uniform","","","","","","","1620.699999988079","303327.8000000119","304948.5","[""stimuli/AM05_SC.jpg"",""stimuli/BM03_HE.jpg"",""stimuli/WF06_CC.jpg"",""stimuli/BF05_HO.jpg""]","stimuli/AM05_SC.jpg","stimuli/BM03_HE.jpg","stimuli/WF06_CC.jpg","stimuli/BF05_HO.jpg","pos4","stimuli/BF05_HO.jpg","HO","BF05","3","5","10","8","stimuli/stars_10.png","160","[""SC"",""HE"",""CC"",""HO""]","[""AM05"",""BM03"",""WF06"",""BF05""]","[3,4,4,10]","[2,6,4,8]","","",""
"show-reward","112","306204","0.0-112.0","p36357","AD15OW944ZV20","3PKJ68EHDO28O7HBL4QPFAGDEPGHJ1","3OWEPKL08BIA1S0EDV166O3PSIK7NF","emotion","match","uniform","","","","","","","","305455.1999999881","307470.39999997616","","","","","","","","","","","","10","","stimuli/stars_10.png","160","","","","","stimuli/BF05_HO.jpg","",""
"explore-choice","113","308958","0.0-113.0","p36357","AD15OW944ZV20","3PKJ68EHDO28O7HBL4QPFAGDEPGHJ1","3OWEPKL08BIA1S0EDV166O3PSIK7NF","emotion","match","uniform","","","","","","","2253.5","307471","309724.5","[""stimuli/BF05_CC.jpg"",""stimuli/WF06_HO.jpg"",""stimuli/AM05_SC.jpg"",""stimuli/BM03_HE.jpg""]","stimuli/BF05_CC.jpg","stimuli/WF06_HO.jpg","stimuli/AM05_SC.jpg","stimuli/BM03_HE.jpg","pos4","stimuli/BM03_HE.jpg","HE","BM03","3","2","4","6","stimuli/stars_4.png","162","[""CC"",""HO"",""SC"",""HE""]","[""BF05"",""WF06"",""AM05"",""BM03""]","[2,6,4,4]","[4,8,2,6]","","",""
"show-reward","114","310960","0.0-114.0","p36357","AD15OW944ZV20","3PKJ68EHDO28O7HBL4QPFAGDEPGHJ1","3OWEPKL08BIA1S0EDV166O3PSIK7NF","emotion","match","uniform","","","","","","","","310225.3000000119","312226.39999997616","","","","","","","","","","","","4","","stimuli/stars_4.png","162","","","","","stimuli/BM03_HE.jpg","",""
"explore-choice","115","313032","0.0-115.0","p36357","AD15OW944ZV20","3PKJ68EHDO28O7HBL4QPFAGDEPGHJ1","3OWEPKL08BIA1S0EDV166O3PSIK7NF","emotion","match","uniform","","","","","","","1570.2999999523163","312227.10000002384","313797.39999997616","[""stimuli/AM05_HO.jpg"",""stimuli/BM03_SC.jpg"",""stimuli/WF06_CC.jpg"",""stimuli/BF05_HE.jpg""]","stimuli/AM05_HO.jpg","stimuli/BM03_SC.jpg","stimuli/WF06_CC.jpg","stimuli/BF05_HE.jpg","pos4","stimuli/BF05_HE.jpg","HE","BF05","3","3","6","6","stimuli/stars_6.png","165","[""HO"",""SC"",""CC"",""HE""]","[""AM05"",""BM03"",""WF06"",""BF05""]","[7,2,3,6]","[8,2,4,6]","","",""
"show-reward","116","315042","0.0-116.0","p36357","AD15OW944ZV20","3PKJ68EHDO28O7HBL4QPFAGDEPGHJ1","3OWEPKL08BIA1S0EDV166O3PSIK7NF","emotion","match","uniform","","","","","","","","314299.3000000119","316308.60000002384","","","","","","","","","","","","6","","stimuli/stars_6.png","165","","","","","stimuli/BF05_HE.jpg","",""
"explore-choice","117","316631","0.0-117.0","p36357","AD15OW944ZV20","3PKJ68EHDO28O7HBL4QPFAGDEPGHJ1","3OWEPKL08BIA1S0EDV166O3PSIK7NF","emotion","match","uniform","","","","","","","1087.5","316309.1999999881","317396.6999999881","[""stimuli/AM05_CC.jpg"",""stimuli/BM03_SC.jpg"",""stimuli/WF06_HO.jpg"",""stimuli/BF05_HE.jpg""]","stimuli/AM05_CC.jpg","stimuli/BM03_SC.jpg","stimuli/WF06_HO.jpg","stimuli/BF05_HE.jpg","pos4","stimuli/BF05_HE.jpg","HE","BF05","3","2.5","5","6","stimuli/stars_5.png","167.5","[""CC"",""SC"",""HO"",""HE""]","[""AM05"",""BM03"",""WF06"",""BF05""]","[3,4,8,5]","[4,2,8,6]","","",""
"show-reward","118","318634","0.0-118.0","p36357","AD15OW944ZV20","3PKJ68EHDO28O7HBL4QPFAGDEPGHJ1","3OWEPKL08BIA1S0EDV166O3PSIK7NF","emotion","match","uniform","","","","","","","","317898","319900.5","","","","","","","","","","","","5","","stimuli/stars_5.png","167.5","","","","","stimuli/BF05_HE.jpg","",""
"explore-choice","119","321024","0.0-119.0","p36357","AD15OW944ZV20","3PKJ68EHDO28O7HBL4QPFAGDEPGHJ1","3OWEPKL08BIA1S0EDV166O3PSIK7NF","emotion","match","uniform","","","","","","","1879.3999999761581","319901.10000002384","321780.5","[""stimuli/BM03_SC.jpg"",""stimuli/WF06_HE.jpg"",""stimuli/AM05_HO.jpg"",""stimuli/BF05_CC.jpg""]","stimuli/BM03_SC.jpg","stimuli/WF06_HE.jpg","stimuli/AM05_HO.jpg","stimuli/BF05_CC.jpg","pos2","stimuli/WF06_HE.jpg","HE","WF06","1","3","6","6","stimuli/stars_6.png","170.5","[""SC"",""HE"",""HO"",""CC""]","[""BM03"",""WF06"",""AM05"",""BF05""]","[2,6,9,5]","[2,6,8,4]","","",""
"show-reward","120","323026","0.0-120.0","p36357","AD15OW944ZV20","3PKJ68EHDO28O7HBL4QPFAGDEPGHJ1","3OWEPKL08BIA1S0EDV166O3PSIK7NF","emotion","match","uniform","","","","","","","","322291.10000002384","324292.3000000119","","","","","","","","","","","","6","","stimuli/stars_6.png","170.5","","","","","stimuli/WF06_HE.jpg","",""
"explore-choice","121","324792","0.0-121.0","p36357","AD15OW944ZV20","3PKJ68EHDO28O7HBL4QPFAGDEPGHJ1","3OWEPKL08BIA1S0EDV166O3PSIK7NF","emotion","match","uniform","","","","","","","1264.6000000238419","324292.89999997616","325557.5","[""stimuli/BM03_CC.jpg"",""stimuli/WF06_HE.jpg"",""stimuli/BF05_HO.jpg"",""stimuli/AM05_SC.jpg""]","stimuli/BM03_CC.jpg","stimuli/WF06_HE.jpg","stimuli/BF05_HO.jpg","stimuli/AM05_SC.jpg","pos3","stimuli/BF05_HO.jpg","HO","BF05","2","3","6","8","stimuli/stars_6.png","173.5","[""CC"",""HE"",""HO"",""SC""]","[""BM03"",""WF06"",""BF05"",""AM05""]","[4,7,6,4]","[4,6,8,2]","","",""
"show-reward","122","326801","0.0-122.0","p36357","AD15OW944ZV20","3PKJ68EHDO28O7HBL4QPFAGDEPGHJ1","3OWEPKL08BIA1S0EDV166O3PSIK7NF","emotion","match","uniform","","","","","","","","326059.89999997616","328067.6999999881","","","","","","","","","","","","6","","stimuli/stars_6.png","173.5","","","","","stimuli/BF05_HO.jpg","",""
"explore-choice","123","328380","0.0-123.0","p36357","AD15OW944ZV20","3PKJ68EHDO28O7HBL4QPFAGDEPGHJ1","3OWEPKL08BIA1S0EDV166O3PSIK7NF","emotion","match","uniform","","","","","","","1064.300000011921","328068.3000000119","329132.60000002384","[""stimuli/AM05_CC.jpg"",""stimuli/BM03_HE.jpg"",""stimuli/WF06_SC.jpg"",""stimuli/BF05_HO.jpg""]","stimuli/AM05_CC.jpg","stimuli/BM03_HE.jpg","stimuli/WF06_SC.jpg","stimuli/BF05_HO.jpg","pos4","stimuli/BF05_HO.jpg","HO","BF05","3","4","8","8","stimuli/stars_8.png","177.5","[""CC"",""HE"",""SC"",""HO""]","[""AM05"",""BM03"",""WF06"",""BF05""]","[5,8,2,8]","[4,6,2,8]","","",""
"show-reward","124","330394","0.0-124.0","p36357","AD15OW944ZV20","3PKJ68EHDO28O7HBL4QPFAGDEPGHJ1","3OWEPKL08BIA1S0EDV166O3PSIK7NF","emotion","match","uniform","","","","","","","","329647.10000002384","331660.5","","","","","","","","","","","","8","","stimuli/stars_8.png","177.5","","","","","stimuli/BF05_HO.jpg","",""
"explore-choice","125","334271","0.0-125.0","p36357","AD15OW944ZV20","3PKJ68EHDO28O7HBL4QPFAGDEPGHJ1","3OWEPKL08BIA1S0EDV166O3PSIK7NF","emotion","match","uniform","","","","","","","3375.2000000476837","331661.39999997616","335036.60000002384","[""stimuli/BF05_SC.jpg"",""stimuli/AM05_CC.jpg"",""stimuli/BM03_HO.jpg"",""stimuli/WF06_HE.jpg""]","stimuli/BF05_SC.jpg","stimuli/AM05_CC.jpg","stimuli/BM03_HO.jpg","stimuli/WF06_HE.jpg","pos4","stimuli/WF06_HE.jpg","HE","WF06","3","3","6","6","stimuli/stars_6.png","180.5","[""SC"",""CC"",""HO"",""HE""]","[""BF05"",""AM05"",""BM03"",""WF06""]","[3,3,9,6]","[2,4,8,6]","","",""
"show-reward","126","336273","0.0-126.0","p36357","AD15OW944ZV20","3PKJ68EHDO28O7HBL4QPFAGDEPGHJ1","3OWEPKL08BIA1S0EDV166O3PSIK7NF","emotion","match","uniform","","","","","","","","335537.6999999881","337538.89999997616","","","","","","","","","","","","6","","stimuli/stars_6.png","180.5","","","","","stimuli/WF06_HE.jpg","",""
"explore-choice","127","338095","0.0-127.0","p36357","AD15OW944ZV20","3PKJ68EHDO28O7HBL4QPFAGDEPGHJ1","3OWEPKL08BIA1S0EDV166O3PSIK7NF","emotion","match","uniform","","","","","","","1321.2999999523163","337539.60000002384","338860.89999997616","[""stimuli/BM03_HO.jpg"",""stimuli/WF06_HE.jpg"",""stimuli/AM05_SC.jpg"",""stimuli/BF05_CC.jpg""]","stimuli/BM03_HO.jpg","stimuli/WF06_HE.jpg","stimuli/AM05_SC.jpg","stimuli/BF05_CC.jpg","pos2","stimuli/WF06_HE.jpg","HE","WF06","1","3.5","7","6","stimuli/stars_7.png","184","[""HO"",""HE"",""SC"",""CC""]","[""BM03"",""WF06"",""AM05"",""BF05""]","[10,7,2,5]","[8,6,2,4]","","",""
"show-reward","128","340110","0.0-128.0","p36357","AD15OW944ZV20","3PKJ68EHDO28O7HBL4QPFAGDEPGHJ1","3OWEPKL08BIA1S0EDV166O3PSIK7NF","emotion","match","uniform","","","","","","","","339362.5","341376.60000002384","","","","","","","","","","","","7","","stimuli/stars_7.png","184","","","","","stimuli/WF06_HE.jpg","",""
"explore-choice","129","341895","0.0-129.0","p36357","AD15OW944ZV20","3PKJ68EHDO28O7HBL4QPFAGDEPGHJ1","3OWEPKL08BIA1S0EDV166O3PSIK7NF","emotion","match","uniform","","","","","","","1283.199999988079","341377.5","342660.6999999881","[""stimuli/WF06_CC.jpg"",""stimuli/AM05_HE.jpg"",""stimuli/BF05_HO.jpg"",""stimuli/BM03_SC.jpg""]","stimuli/WF06_CC.jpg","stimuli/AM05_HE.jpg","stimuli/BF05_HO.jpg","stimuli/BM03_SC.jpg","pos3","stimuli/BF05_HO.jpg","HO","BF05","2","3.5","7","8","stimuli/stars_7.png","187.5","[""CC"",""HE"",""HO"",""SC""]","[""WF06"",""AM05"",""BF05"",""BM03""]","[5,5,7,2]","[4,6,8,2]","","",""
"show-reward","130","343897","0.0-130.0","p36357","AD15OW944ZV20","3PKJ68EHDO28O7HBL4QPFAGDEPGHJ1","3OWEPKL08BIA1S0EDV166O3PSIK7NF","emotion","match","uniform","","","","","","","","343162","345162.89999997616","","","","","","","","","","","","7","","stimuli/stars_7.png","187.5","","","","","stimuli/BF05_HO.jpg","",""
"explore-choice","131","345671","0.0-131.0","p36357","AD15OW944ZV20","3PKJ68EHDO28O7HBL4QPFAGDEPGHJ1","3OWEPKL08BIA1S0EDV166O3PSIK7NF","emotion","match","uniform","","","","","","","1272.9000000357628","345163.6999999881","346436.60000002384","[""stimuli/WF06_HO.jpg"",""stimuli/BM03_CC.jpg"",""stimuli/BF05_SC.jpg"",""stimuli/AM05_HE.jpg""]","stimuli/WF06_HO.jpg","stimuli/BM03_CC.jpg","stimuli/BF05_SC.jpg","stimuli/AM05_HE.jpg","pos1","stimuli/WF06_HO.jpg","HO","WF06","0","5","10","8","stimuli/stars_10.png","192.5","[""HO"",""CC"",""SC"",""HE""]","[""WF06"",""BM03"",""BF05"",""AM05""]","[10,3,0,8]","[8,4,2,6]","","",""
"show-reward","132","347687","0.0-132.0","p36357","AD15OW944ZV20","3PKJ68EHDO28O7HBL4QPFAGDEPGHJ1","3OWEPKL08BIA1S0EDV166O3PSIK7NF","emotion","match","uniform","","","","","","","","346938","348952.5","","","","","","","","","","","","10","","stimuli/stars_10.png","192.5","","","","","stimuli/WF06_HO.jpg","",""
"explore-choice","133","350746","0.0-133.0","p36357","AD15OW944ZV20","3PKJ68EHDO28O7HBL4QPFAGDEPGHJ1","3OWEPKL08BIA1S0EDV166O3PSIK7NF","emotion","match","uniform","","","","","","","2554.7000000476837","348953.89999997616","351508.60000002384","[""stimuli/WF06_SC.jpg"",""stimuli/BF05_CC.jpg"",""stimuli/AM05_HO.jpg"",""stimuli/BM03_HE.jpg""]","stimuli/WF06_SC.jpg","stimuli/BF05_CC.jpg","stimuli/AM05_HO.jpg","stimuli/BM03_HE.jpg","pos4","stimuli/BM03_HE.jpg","HE","BM03","3","3","6","6","stimuli/stars_6.png","195.5","[""SC"",""CC"",""HO"",""HE""]","[""WF06"",""BF05"",""AM05"",""BM03""]","[3,5,6,6]","[2,4,8,6]","","",""
"show-reward","134","352757","0.0-134.0","p36357","AD15OW944ZV20","3PKJ68EHDO28O7HBL4QPFAGDEPGHJ1","3OWEPKL08BIA1S0EDV166O3PSIK7NF","emotion","match","uniform","","","","","","","","352013.5","354023.60000002384","","","","","","","","","","","","6","","stimuli/stars_6.png","195.5","","","","","stimuli/BM03_HE.jpg","",""
"explore-choice","135","354503","0.0-135.0","p36357","AD15OW944ZV20","3PKJ68EHDO28O7HBL4QPFAGDEPGHJ1","3OWEPKL08BIA1S0EDV166O3PSIK7NF","emotion","match","uniform","","","","","","","1244.199999988079","354024.5","355268.6999999881","[""stimuli/AM05_HO.jpg"",""stimuli/BF05_HE.jpg"",""stimuli/BM03_CC.jpg"",""stimuli/WF06_SC.jpg""]","stimuli/AM05_HO.jpg","stimuli/BF05_HE.jpg","stimuli/BM03_CC.jpg","stimuli/WF06_SC.jpg","pos2","stimuli/BF05_HE.jpg","HE","BF05","1","2","4","6","stimuli/stars_4.png","197.5","[""HO"",""HE"",""CC"",""SC""]","[""AM05"",""BF05"",""BM03"",""WF06""]","[10,4,4,2]","[8,6,4,2]","","",""
"show-reward","136","356512","0.0-136.0","p36357","AD15OW944ZV20","3PKJ68EHDO28O7HBL4QPFAGDEPGHJ1","3OWEPKL08BIA1S0EDV166O3PSIK7NF","emotion","match","uniform","","","","","","","","355770.10000002384","357778.60000002384","","","","","","","","","","","","4","","stimuli/stars_4.png","197.5","","","","","stimuli/BF05_HE.jpg","",""
"explore-choice","137","359152","0.0-137.0","p36357","AD15OW944ZV20","3PKJ68EHDO28O7HBL4QPFAGDEPGHJ1","3OWEPKL08BIA1S0EDV166O3PSIK7NF","emotion","match","uniform","","","","","","","2138.600000023842","357779.1999999881","359917.8000000119","[""stimuli/WF06_CC.jpg"",""stimuli/BF05_SC.jpg"",""stimuli/AM05_HE.jpg"",""stimuli/BM03_HO.jpg""]","stimuli/WF06_CC.jpg","stimuli/BF05_SC.jpg","stimuli/AM05_HE.jpg","stimuli/BM03_HO.jpg","pos3","stimuli/AM05_HE.jpg","HE","AM05","2","2.5","5","6","stimuli/stars_5.png","200","[""CC"",""SC"",""HE"",""HO""]","[""WF06"",""BF05"",""AM05"",""BM03""]","[6,3,5,10]","[4,2,6,8]","","",""
"show-reward","138","361158","0.0-138.0","p36357","AD15OW944ZV20","3PKJ68EHDO28O7HBL4QPFAGDEPGHJ1","3OWEPKL08BIA1S0EDV166O3PSIK7NF","emotion","match","uniform","","","","","","","","360419.39999997616","362425.1999999881","","","","","","","","","","","","5","","stimuli/stars_5.png","200","","","","","stimuli/AM05_HE.jpg","",""
"explore-choice","139","363103","0.0-139.0","p36357","AD15OW944ZV20","3PKJ68EHDO28O7HBL4QPFAGDEPGHJ1","3OWEPKL08BIA1S0EDV166O3PSIK7NF","emotion","match","uniform","","","","","","","1442.7000000476837","362425.89999997616","363868.60000002384","[""stimuli/BM03_HO.jpg"",""stimuli/AM05_CC.jpg"",""stimuli/WF06_SC.jpg"",""stimuli/BF05_HE.jpg""]","stimuli/BM03_HO.jpg","stimuli/AM05_CC.jpg","stimuli/WF06_SC.jpg","stimuli/BF05_HE.jpg","pos4","stimuli/BF05_HE.jpg","HE","BF05","3","2.5","5","6","stimuli/stars_5.png","202.5","[""HO"",""CC"",""SC"",""HE""]","[""BM03"",""AM05"",""WF06"",""BF05""]","[8,6,0,5]","[8,4,2,6]","","",""
"show-reward","140","365120","0.0-140.0","p36357","AD15OW944ZV20","3PKJ68EHDO28O7HBL4QPFAGDEPGHJ1","3OWEPKL08BIA1S0EDV166O3PSIK7NF","emotion","match","uniform","","","","","","","","364371","366387","","","","","","","","","","","","5","","stimuli/stars_5.png","202.5","","","","","stimuli/BF05_HE.jpg","",""
"explore-choice","141","366635","0.0-141.0","p36357","AD15OW944ZV20","3PKJ68EHDO28O7HBL4QPFAGDEPGHJ1","3OWEPKL08BIA1S0EDV166O3PSIK7NF","emotion","match","uniform","","","","","","","1001.0999999642372","366389.10000002384","367390.1999999881","[""stimuli/BF05_HO.jpg"",""stimuli/BM03_SC.jpg"",""stimuli/WF06_HE.jpg"",""stimuli/AM05_CC.jpg""]","stimuli/BF05_HO.jpg","stimuli/BM03_SC.jpg","stimuli/WF06_HE.jpg","stimuli/AM05_CC.jpg","pos1","stimuli/BF05_HO.jpg","HO","BF05","0","3.5","7","8","stimuli/stars_7.png","206","[""HO"",""SC"",""HE"",""CC""]","[""BF05"",""BM03"",""WF06"",""AM05""]","[7,1,5,5]","[8,2,6,4]","","",""
"show-reward","142","368638","0.0-142.0","p36357","AD15OW944ZV20","3PKJ68EHDO28O7HBL4QPFAGDEPGHJ1","3OWEPKL08BIA1S0EDV166O3PSIK7NF","emotion","match","uniform","","","","","","","","367903.3000000119","369905.60000002384","","","","","","","","","","","","7","","stimuli/stars_7.png","206","","","","","stimuli/BF05_HO.jpg","",""
"explore-choice","143","371528","0.0-143.0","p36357","AD15OW944ZV20","3PKJ68EHDO28O7HBL4QPFAGDEPGHJ1","3OWEPKL08BIA1S0EDV166O3PSIK7NF","emotion","match","uniform","","","","","","","2378.7000000476837","369906.39999997616","372285.10000002384","[""stimuli/BF05_CC.jpg"",""stimuli/WF06_HO.jpg"",""stimuli/AM05_HE.jpg"",""stimuli/BM03_SC.jpg""]","stimuli/BF05_CC.jpg","stimuli/WF06_HO.jpg","stimuli/AM05_HE.jpg","stimuli/BM03_SC.jpg","pos2","stimuli/WF06_HO.jpg","HO","WF06","1","3","6","8","stimuli/stars_6.png","209","[""CC"",""HO"",""HE"",""SC""]","[""BF05"",""WF06"",""AM05"",""BM03""]","[2,6,6,1]","[4,8,6,2]","","",""
"show-reward","144","373536","0.0-144.0","p36357","AD15OW944ZV20","3PKJ68EHDO28O7HBL4QPFAGDEPGHJ1","3OWEPKL08BIA1S0EDV166O3PSIK7NF","emotion","match","uniform","","","","","","","","372796.3000000119","374803.39999997616","","","","","","","","","","","","6","","stimuli/stars_6.png","209","","","","","stimuli/WF06_HO.jpg","",""
"explore-choice","145","376119","0.0-145.0","p36357","AD15OW944ZV20","3PKJ68EHDO28O7HBL4QPFAGDEPGHJ1","3OWEPKL08BIA1S0EDV166O3PSIK7NF","emotion","match","uniform","","","","","","","2080.899999976158","374804","376884.89999997616","[""stimuli/BM03_HE.jpg"",""stimuli/BF05_SC.jpg"",""stimuli/WF06_CC.jpg"",""stimuli/AM05_HO.jpg""]","stimuli/BM03_HE.jpg","stimuli/BF05_SC.jpg","stimuli/WF06_CC.jpg","stimuli/AM05_HO.jpg","pos1","stimuli/BM03_HE.jpg","HE","BM03","0","3","6","6","stimuli/stars_6.png","212","[""HE"",""SC"",""CC"",""HO""]","[""BM03"",""BF05"",""WF06"",""AM05""]","[6,0,2,10]","[6,2,4,8]","","",""
"show-reward","146","378121","0.0-146.0","p36357","AD15OW944ZV20","3PKJ68EHDO28O7HBL4QPFAGDEPGHJ1","3OWEPKL08BIA1S0EDV166O3PSIK7NF","emotion","match","uniform","","","","","","","","377386.39999997616","379388.39999997616","","","","","","","","","","","","6","","stimuli/stars_6.png","212","","","","","stimuli/BM03_HE.jpg","",""
"explore-choice","147","380215","0.0-147.0","p36357","AD15OW944ZV20","3PKJ68EHDO28O7HBL4QPFAGDEPGHJ1","3OWEPKL08BIA1S0EDV166O3PSIK7NF","emotion","match","uniform","","","","","","","1592.2999999523163","379389.10000002384","380981.39999997616","[""stimuli/BM03_HO.jpg"",""stimuli/AM05_SC.jpg"",""stimuli/WF06_CC.jpg"",""stimuli/BF05_HE.jpg""]","stimuli/BM03_HO.jpg","stimuli/AM05_SC.jpg","stimuli/WF06_CC.jpg","stimuli/BF05_HE.jpg","pos4","stimuli/BF05_HE.jpg","HE","BF05","3","2.5","5","6","stimuli/stars_5.png","214.5","[""HO"",""SC"",""CC"",""HE""]","[""BM03"",""AM05"",""WF06"",""BF05""]","[8,3,3,5]","[8,2,4,6]","","",""
"show-reward","148","382219","0.0-148.0","p36357","AD15OW944ZV20","3PKJ68EHDO28O7HBL4QPFAGDEPGHJ1","3OWEPKL08BIA1S0EDV166O3PSIK7NF","emotion","match","uniform","","","","","","","","381483.5","383485.5","","","","","","","","","","","","5","","stimuli/stars_5.png","214.5","","","","","stimuli/BF05_HE.jpg","",""
"explore-choice","149","384590","0.0-149.0","p36357","AD15OW944ZV20","3PKJ68EHDO28O7HBL4QPFAGDEPGHJ1","3OWEPKL08BIA1S0EDV166O3PSIK7NF","emotion","match","uniform","","","","","","","1869.7999999523163","383487.10000002384","385356.89999997616","[""stimuli/WF06_HE.jpg"",""stimuli/AM05_HO.jpg"",""stimuli/BM03_CC.jpg"",""stimuli/BF05_SC.jpg""]","stimuli/WF06_HE.jpg","stimuli/AM05_HO.jpg","stimuli/BM03_CC.jpg","stimuli/BF05_SC.jpg","pos1","stimuli/WF06_HE.jpg","HE","WF06","0","3.5","7","6","stimuli/stars_7.png","218","[""HE"",""HO"",""CC"",""SC""]","[""WF06"",""AM05"",""BM03"",""BF05""]","[7,6,3,4]","[6,8,4,2]","","",""
"show-reward","150","386592","0.0-150.0","p36357","AD15OW944ZV20","3PKJ68EHDO28O7HBL4QPFAGDEPGHJ1","3OWEPKL08BIA1S0EDV166O3PSIK7NF","emotion","match","uniform","","","","","","","","385857.6999999881","387859.5","","","","","","","","","","","","7","","stimuli/stars_7.png","218","","","","","stimuli/WF06_HE.jpg","",""
"explore-choice","151","388415","0.0-151.0","p36357","AD15OW944ZV20","3PKJ68EHDO28O7HBL4QPFAGDEPGHJ1","3OWEPKL08BIA1S0EDV166O3PSIK7NF","emotion","match","uniform","","","","","","","1321.699999988079","387860.1999999881","389181.89999997616","[""stimuli/BM03_HE.jpg"",""stimuli/WF06_SC.jpg"",""stimuli/AM05_CC.jpg"",""stimuli/BF05_HO.jpg""]","stimuli/BM03_HE.jpg","stimuli/WF06_SC.jpg","stimuli/AM05_CC.jpg","stimuli/BF05_HO.jpg","pos4","stimuli/BF05_HO.jpg","HO","BF05","3","4","8","8","stimuli/stars_8.png","222","[""HE"",""SC"",""CC"",""HO""]","[""BM03"",""WF06"",""AM05"",""BF05""]","[8,2,5,8]","[6,2,4,8]","","",""
"show-reward","152","390417","0.0-152.0","p36357","AD15OW944ZV20","3PKJ68EHDO28O7HBL4QPFAGDEPGHJ1","3OWEPKL08BIA1S0EDV166O3PSIK7NF","emotion","match","uniform","","","","","","","","389682.89999997616","391684.39999997616","","","","","","","","","","","","8","","stimuli/stars_8.png","222","","","","","stimuli/BF05_HO.jpg","",""
"explore-choice","153","393518","0.0-153.0","p36357","AD15OW944ZV20","3PKJ68EHDO28O7HBL4QPFAGDEPGHJ1","3OWEPKL08BIA1S0EDV166O3PSIK7NF","emotion","match","uniform","","","","","","","2599.300000011921","391685.39999997616","394284.6999999881","[""stimuli/BM03_HE.jpg"",""stimuli/WF06_HO.jpg"",""stimuli/BF05_CC.jpg"",""stimuli/AM05_SC.jpg""]","stimuli/BM03_HE.jpg","stimuli/WF06_HO.jpg","stimuli/BF05_CC.jpg","stimuli/AM05_SC.jpg","pos2","stimuli/WF06_HO.jpg","HO","WF06","1","3","6","8","stimuli/stars_6.png","225","[""HE"",""HO"",""CC"",""SC""]","[""BM03"",""WF06"",""BF05"",""AM05""]","[4,6,2,4]","[6,8,4,2]","","",""
"show-reward","154","395520","0.0-154.0","p36357","AD15OW944ZV20","3PKJ68EHDO28O7HBL4QPFAGDEPGHJ1","3OWEPKL08BIA1S0EDV166O3PSIK7NF","emotion","match","uniform","","","","","","","","394785.89999997616","396787.3000000119","","","","","","","","","","","","6","","stimuli/stars_6.png","225","","","","","stimuli/WF06_HO.jpg","",""
"explore-choice","155","398422","0.0-155.0","p36357","AD15OW944ZV20","3PKJ68EHDO28O7HBL4QPFAGDEPGHJ1","3OWEPKL08BIA1S0EDV166O3PSIK7NF","emotion","match","uniform","","","","","","","2400.5","396788.10000002384","399188.60000002384","[""stimuli/BM03_CC.jpg"",""stimuli/WF06_HE.jpg"",""stimuli/BF05_HO.jpg"",""stimuli/AM05_SC.jpg""]","stimuli/BM03_CC.jpg","stimuli/WF06_HE.jpg","stimuli/BF05_HO.jpg","stimuli/AM05_SC.jpg","pos3","stimuli/BF05_HO.jpg","HO","BF05","2","3","6","8","stimuli/stars_6.png","228","[""CC"",""HE"",""HO"",""SC""]","[""BM03"",""WF06"",""BF05"",""AM05""]","[4,7,6,4]","[4,6,8,2]","","",""
"show-reward","156","400425","0.0-156.0","p36357","AD15OW944ZV20","3PKJ68EHDO28O7HBL4QPFAGDEPGHJ1","3OWEPKL08BIA1S0EDV166O3PSIK7NF","emotion","match","uniform","","","","","","","","399690.5","401692.5","","","","","","","","","","","","6","","stimuli/stars_6.png","228","","","","","stimuli/BF05_HO.jpg","",""
"explore-choice","157","402422","0.0-157.0","p36357","AD15OW944ZV20","3PKJ68EHDO28O7HBL4QPFAGDEPGHJ1","3OWEPKL08BIA1S0EDV166O3PSIK7NF","emotion","match","uniform","","","","","","","1495.0999999642372","401693.60000002384","403188.6999999881","[""stimuli/BF05_SC.jpg"",""stimuli/WF06_HO.jpg"",""stimuli/BM03_CC.jpg"",""stimuli/AM05_HE.jpg""]","stimuli/BF05_SC.jpg","stimuli/WF06_HO.jpg","stimuli/BM03_CC.jpg","stimuli/AM05_HE.jpg","pos2","stimuli/WF06_HO.jpg","HO","WF06","1","5","10","8","stimuli/stars_10.png","233","[""SC"",""HO"",""CC"",""HE""]","[""BF05"",""WF06"",""BM03"",""AM05""]","[0,10,3,8]","[2,8,4,6]","","",""
"show-reward","158","404437","0.0-158.0","p36357","AD15OW944ZV20","3PKJ68EHDO28O7HBL4QPFAGDEPGHJ1","3OWEPKL08BIA1S0EDV166O3PSIK7NF","emotion","match","uniform","","","","","","","","403689.39999997616","405704.3000000119","","","","","","","","","","","","10","","stimuli/stars_10.png","233","","","","","stimuli/WF06_HO.jpg","",""
"explore-choice","159","407863","0.0-159.0","p36357","AD15OW944ZV20","3PKJ68EHDO28O7HBL4QPFAGDEPGHJ1","3OWEPKL08BIA1S0EDV166O3PSIK7NF","emotion","match","uniform","","","","","","","2915.600000023842","405705","408620.60000002384","[""stimuli/BM03_CC.jpg"",""stimuli/AM05_HO.jpg"",""stimuli/BF05_SC.jpg"",""stimuli/WF06_HE.jpg""]","stimuli/BM03_CC.jpg","stimuli/AM05_HO.jpg","stimuli/BF05_SC.jpg","stimuli/WF06_HE.jpg","pos4","stimuli/WF06_HE.jpg","HE","WF06","3","3.5","7","6","stimuli/stars_7.png","236.5","[""CC"",""HO"",""SC"",""HE""]","[""BM03"",""AM05"",""BF05"",""WF06""]","[3,6,4,7]","[4,8,2,6]","","",""
"show-reward","160","409879","0.0-160.0","p36357","AD15OW944ZV20","3PKJ68EHDO28O7HBL4QPFAGDEPGHJ1","3OWEPKL08BIA1S0EDV166O3PSIK7NF","emotion","match","uniform","","","","","","","","409131.1999999881","411146.3000000119","","","","","","","","","","","","7","","stimuli/stars_7.png","236.5","","","","","stimuli/WF06_HE.jpg","",""
"explore-choice","161","411400","0.0-161.0","p36357","AD15OW944ZV20","3PKJ68EHDO28O7HBL4QPFAGDEPGHJ1","3OWEPKL08BIA1S0EDV166O3PSIK7NF","emotion","match","uniform","","","","","","","1017.3999999761581","411147.3000000119","412164.6999999881","[""stimuli/AM05_HO.jpg"",""stimuli/BF05_CC.jpg"",""stimuli/BM03_SC.jpg"",""stimuli/WF06_HE.jpg""]","stimuli/AM05_HO.jpg","stimuli/BF05_CC.jpg","stimuli/BM03_SC.jpg","stimuli/WF06_HE.jpg","pos4","stimuli/WF06_HE.jpg","HE","WF06","3","3","6","6","stimuli/stars_6.png","239.5","[""HO"",""CC"",""SC"",""HE""]","[""AM05"",""BF05"",""BM03"",""WF06""]","[9,5,2,6]","[8,4,2,6]","","",""
"show-reward","162","413416","0.0-162.0","p36357","AD15OW944ZV20","3PKJ68EHDO28O7HBL4QPFAGDEPGHJ1","3OWEPKL08BIA1S0EDV166O3PSIK7NF","emotion","match","uniform","","","","","","","","412668.10000002384","414683.3000000119","","","","","","","","","","","","6","","stimuli/stars_6.png","239.5","","","","","stimuli/WF06_HE.jpg","",""
"explore-choice","163","415375","0.0-163.0","p36357","AD15OW944ZV20","3PKJ68EHDO28O7HBL4QPFAGDEPGHJ1","3OWEPKL08BIA1S0EDV166O3PSIK7NF","emotion","match","uniform","","","","","","","1457.5","414683.89999997616","416141.39999997616","[""stimuli/WF06_SC.jpg"",""stimuli/BF05_HE.jpg"",""stimuli/AM05_CC.jpg"",""stimuli/BM03_HO.jpg""]","stimuli/WF06_SC.jpg","stimuli/BF05_HE.jpg","stimuli/AM05_CC.jpg","stimuli/BM03_HO.jpg","pos2","stimuli/BF05_HE.jpg","HE","BF05","1","2.5","5","6","stimuli/stars_5.png","242","[""SC"",""HE"",""CC"",""HO""]","[""WF06"",""BF05"",""AM05"",""BM03""]","[0,5,6,8]","[2,6,4,8]","","",""
"show-reward","164","417382","0.0-164.0","p36357","AD15OW944ZV20","3PKJ68EHDO28O7HBL4QPFAGDEPGHJ1","3OWEPKL08BIA1S0EDV166O3PSIK7NF","emotion","match","uniform","","","","","","","","416643.60000002384","418649.3000000119","","","","","","","","","","","","5","","stimuli/stars_5.png","242","","","","","stimuli/BF05_HE.jpg","",""
"explore-choice","165","420376","0.0-165.0","p36357","AD15OW944ZV20","3PKJ68EHDO28O7HBL4QPFAGDEPGHJ1","3OWEPKL08BIA1S0EDV166O3PSIK7NF","emotion","match","uniform","","","","","","","2491.199999988079","418650.10000002384","421141.3000000119","[""stimuli/AM05_HE.jpg"",""stimuli/BF05_SC.jpg"",""stimuli/WF06_CC.jpg"",""stimuli/BM03_HO.jpg""]","stimuli/AM05_HE.jpg","stimuli/BF05_SC.jpg","stimuli/WF06_CC.jpg","stimuli/BM03_HO.jpg","pos1","stimuli/AM05_HE.jpg","HE","AM05","0","2.5","5","6","stimuli/stars_5.png","244.5","[""HE"",""SC"",""CC"",""HO""]","[""AM05"",""BF05"",""WF06"",""BM03""]","[5,3,6,10]","[6,2,4,8]","","",""
"show-reward","166","422380","0.0-166.0","p36357","AD15OW944ZV20","3PKJ68EHDO28O7HBL4QPFAGDEPGHJ1","3OWEPKL08BIA1S0EDV166O3PSIK7NF","emotion","match","uniform","","","","","","","","421644","423646.39999997616","","","","","","","","","","","","5","","stimuli/stars_5.png","244.5","","","","","stimuli/AM05_HE.jpg","",""
"explore-choice","167","424319","0.0-167.0","p36357","AD15OW944ZV20","3PKJ68EHDO28O7HBL4QPFAGDEPGHJ1","3OWEPKL08BIA1S0EDV166O3PSIK7NF","emotion","match","uniform","","","","","","","1437.5","423647.3000000119","425084.8000000119","[""stimuli/AM05_CC.jpg"",""stimuli/BM03_SC.jpg"",""stimuli/WF06_HE.jpg"",""stimuli/BF05_HO.jpg""]","stimuli/AM05_CC.jpg","stimuli/BM03_SC.jpg","stimuli/WF06_HE.jpg","stimuli/BF05_HO.jpg","pos4","stimuli/BF05_HO.jpg","HO","BF05","3","3.5","7","8","stimuli/stars_7.png","248","[""CC"",""SC"",""HE"",""HO""]","[""AM05"",""BM03"",""WF06"",""BF05""]","[5,1,5,7]","[4,2,6,8]","","",""
"show-reward","168","426322","0.0-168.0","p36357","AD15OW944ZV20","3PKJ68EHDO28O7HBL4QPFAGDEPGHJ1","3OWEPKL08BIA1S0EDV166O3PSIK7NF","emotion","match","uniform","","","","","","","","425586.1999999881","427588.1999999881","","","","","","","","","","","","7","","stimuli/stars_7.png","248","","","","","stimuli/BF05_HO.jpg","",""
"explore-choice","169","429231","0.0-169.0","p36357","AD15OW944ZV20","3PKJ68EHDO28O7HBL4QPFAGDEPGHJ1","3OWEPKL08BIA1S0EDV166O3PSIK7NF","emotion","match","uniform","","","","","","","2407.699999988079","427589","429996.6999999881","[""stimuli/WF06_CC.jpg"",""stimuli/BF05_SC.jpg"",""stimuli/AM05_HO.jpg"",""stimuli/BM03_HE.jpg""]","stimuli/WF06_CC.jpg","stimuli/BF05_SC.jpg","stimuli/AM05_HO.jpg","stimuli/BM03_HE.jpg","pos4","stimuli/BM03_HE.jpg","HE","BM03","3","3","6","6","stimuli/stars_6.png","251","[""CC"",""SC"",""HO"",""HE""]","[""WF06"",""BF05"",""AM05"",""BM03""]","[2,0,10,6]","[4,2,8,6]","","",""
"show-reward","170","431241","0.0-170.0","p36357","AD15OW944ZV20","3PKJ68EHDO28O7HBL4QPFAGDEPGHJ1","3OWEPKL08BIA1S0EDV166O3PSIK7NF","emotion","match","uniform","","","","","","","","430497.60000002384","432507.1999999881","","","","","","","","","","","","6","","stimuli/stars_6.png","251","","","","","stimuli/BM03_HE.jpg","",""
"explore-choice","171","433408","0.0-171.0","p36357","AD15OW944ZV20","3PKJ68EHDO28O7HBL4QPFAGDEPGHJ1","3OWEPKL08BIA1S0EDV166O3PSIK7NF","emotion","match","uniform","","","","","","","1664.800000011921","432508","434172.8000000119","[""stimuli/WF06_CC.jpg"",""stimuli/AM05_HO.jpg"",""stimuli/BF05_HE.jpg"",""stimuli/BM03_SC.jpg""]","stimuli/WF06_CC.jpg","stimuli/AM05_HO.jpg","stimuli/BF05_HE.jpg","stimuli/BM03_SC.jpg","pos3","stimuli/BF05_HE.jpg","HE","BF05","2","3","6","6","stimuli/stars_6.png","254","[""CC"",""HO"",""HE"",""SC""]","[""WF06"",""AM05"",""BF05"",""BM03""]","[3,7,6,2]","[4,8,6,2]","","",""
"show-reward","172","435411","0.0-172.0","p36357","AD15OW944ZV20","3PKJ68EHDO28O7HBL4QPFAGDEPGHJ1","3OWEPKL08BIA1S0EDV166O3PSIK7NF","emotion","match","uniform","","","","","","","","434675.60000002384","436677.8000000119","","","","","","","","","","","","6","","stimuli/stars_6.png","254","","","","","stimuli/BF05_HE.jpg","",""
"explore-choice","173","437287","0.0-173.0","p36357","AD15OW944ZV20","3PKJ68EHDO28O7HBL4QPFAGDEPGHJ1","3OWEPKL08BIA1S0EDV166O3PSIK7NF","emotion","match","uniform","","","","","","","1374.2000000476837","436678.39999997616","438052.60000002384","[""stimuli/AM05_SC.jpg"",""stimuli/BM03_HO.jpg"",""stimuli/BF05_HE.jpg"",""stimuli/WF06_CC.jpg""]","stimuli/AM05_SC.jpg","stimuli/BM03_HO.jpg","stimuli/BF05_HE.jpg","stimuli/WF06_CC.jpg","pos3","stimuli/BF05_HE.jpg","HE","BF05","2","2.5","5","6","stimuli/stars_5.png","256.5","[""SC"",""HO"",""HE"",""CC""]","[""AM05"",""BM03"",""BF05"",""WF06""]","[3,8,5,3]","[2,8,6,4]","","",""
"show-reward","174","439289","0.0-174.0","p36357","AD15OW944ZV20","3PKJ68EHDO28O7HBL4QPFAGDEPGHJ1","3OWEPKL08BIA1S0EDV166O3PSIK7NF","emotion","match","uniform","","","","","","","","438553.8000000119","440555.10000002384","","","","","","","","","","","","5","","stimuli/stars_5.png","256.5","","","","","stimuli/BF05_HE.jpg","",""
"explore-choice","175","441975","0.0-175.0","p36357","AD15OW944ZV20","3PKJ68EHDO28O7HBL4QPFAGDEPGHJ1","3OWEPKL08BIA1S0EDV166O3PSIK7NF","emotion","match","uniform","","","","","","","2184.899999976158","440555.8000000119","442740.6999999881","[""stimuli/BF05_SC.jpg"",""stimuli/AM05_CC.jpg"",""stimuli/WF06_HO.jpg"",""stimuli/BM03_HE.jpg""]","stimuli/BF05_SC.jpg","stimuli/AM05_CC.jpg","stimuli/WF06_HO.jpg","stimuli/BM03_HE.jpg","pos3","stimuli/WF06_HO.jpg","HO","WF06","2","3","6","8","stimuli/stars_6.png","259.5","[""SC"",""CC"",""HO"",""HE""]","[""BF05"",""AM05"",""WF06"",""BM03""]","[0,4,6,7]","[2,4,8,6]","","",""
"show-reward","176","443988","0.0-176.0","p36357","AD15OW944ZV20","3PKJ68EHDO28O7HBL4QPFAGDEPGHJ1","3OWEPKL08BIA1S0EDV166O3PSIK7NF","emotion","match","uniform","","","","","","","","443242.3000000119","445254.3000000119","","","","","","","","","","","","6","","stimuli/stars_6.png","259.5","","","","","stimuli/WF06_HO.jpg","",""
"explore-choice","177","446023","0.0-177.0","p36357","AD15OW944ZV20","3PKJ68EHDO28O7HBL4QPFAGDEPGHJ1","3OWEPKL08BIA1S0EDV166O3PSIK7NF","emotion","match","uniform","","","","","","","1533.6000000238419","445255.1999999881","446788.8000000119","[""stimuli/AM05_HE.jpg"",""stimuli/BM03_CC.jpg"",""stimuli/WF06_SC.jpg"",""stimuli/BF05_HO.jpg""]","stimuli/AM05_HE.jpg","stimuli/BM03_CC.jpg","stimuli/WF06_SC.jpg","stimuli/BF05_HO.jpg","pos4","stimuli/BF05_HO.jpg","HO","BF05","3","5","10","8","stimuli/stars_10.png","264.5","[""HE"",""CC"",""SC"",""HO""]","[""AM05"",""BM03"",""WF06"",""BF05""]","[7,2,1,10]","[6,4,2,8]","","",""
"show-reward","178","448026","0.0-178.0","p36357","AD15OW944ZV20","3PKJ68EHDO28O7HBL4QPFAGDEPGHJ1","3OWEPKL08BIA1S0EDV166O3PSIK7NF","emotion","match","uniform","","","","","","","","447290.10000002384","449291.8000000119","","","","","","","","","","","","10","","stimuli/stars_10.png","264.5","","","","","stimuli/BF05_HO.jpg","",""
"explore-choice","179","449586","0.0-179.0","p36357","AD15OW944ZV20","3PKJ68EHDO28O7HBL4QPFAGDEPGHJ1","3OWEPKL08BIA1S0EDV166O3PSIK7NF","emotion","match","uniform","","","","","","","1058","449292.60000002384","450350.60000002384","[""stimuli/BM03_HE.jpg"",""stimuli/WF06_CC.jpg"",""stimuli/AM05_SC.jpg"",""stimuli/BF05_HO.jpg""]","stimuli/BM03_HE.jpg","stimuli/WF06_CC.jpg","stimuli/AM05_SC.jpg","stimuli/BF05_HO.jpg","pos4","stimuli/BF05_HO.jpg","HO","BF05","3","5","10","8","stimuli/stars_10.png","269.5","[""HE"",""CC"",""SC"",""HO""]","[""BM03"",""WF06"",""AM05"",""BF05""]","[4,4,3,10]","[6,4,2,8]","","",""
"show-reward","180","451592","0.0-180.0","p36357","AD15OW944ZV20","3PKJ68EHDO28O7HBL4QPFAGDEPGHJ1","3OWEPKL08BIA1S0EDV166O3PSIK7NF","emotion","match","uniform","","","","","","","","450853.39999997616","452858.6999999881","","","","","","","","","","","","10","","stimuli/stars_10.png","269.5","","","","","stimuli/BF05_HO.jpg","",""
"explore-choice","181","453625","0.0-181.0","p36357","AD15OW944ZV20","3PKJ68EHDO28O7HBL4QPFAGDEPGHJ1","3OWEPKL08BIA1S0EDV166O3PSIK7NF","emotion","match","uniform","","","","","","","1531","452859.39999997616","454390.39999997616","[""stimuli/WF06_HO.jpg"",""stimuli/BF05_HE.jpg"",""stimuli/AM05_CC.jpg"",""stimuli/BM03_SC.jpg""]","stimuli/WF06_HO.jpg","stimuli/BF05_HE.jpg","stimuli/AM05_CC.jpg","stimuli/BM03_SC.jpg","pos2","stimuli/BF05_HE.jpg","HE","BF05","1","2.5","5","6","stimuli/stars_5.png","272","[""HO"",""HE"",""CC"",""SC""]","[""WF06"",""BF05"",""AM05"",""BM03""]","[8,5,3,4]","[8,6,4,2]","","",""
"show-reward","182","455633","0.0-182.0","p36357","AD15OW944ZV20","3PKJ68EHDO28O7HBL4QPFAGDEPGHJ1","3OWEPKL08BIA1S0EDV166O3PSIK7NF","emotion","match","uniform","","","","","","","","454892.39999997616","456899.1999999881","","","","","","","","","","","","5","","stimuli/stars_5.png","272","","","","","stimuli/BF05_HE.jpg","",""
"explore-choice","183","459223","0.0-183.0","p36357","AD15OW944ZV20","3PKJ68EHDO28O7HBL4QPFAGDEPGHJ1","3OWEPKL08BIA1S0EDV166O3PSIK7NF","emotion","match","uniform","","","","","","","3088.7999999523163","456900.10000002384","459988.89999997616","[""stimuli/AM05_HE.jpg"",""stimuli/BM03_HO.jpg"",""stimuli/WF06_SC.jpg"",""stimuli/BF05_CC.jpg""]","stimuli/AM05_HE.jpg","stimuli/BM03_HO.jpg","stimuli/WF06_SC.jpg","stimuli/BF05_CC.jpg","pos2","stimuli/BM03_HO.jpg","HO","BM03","1","3","6","8","stimuli/stars_6.png","275","[""HE"",""HO"",""SC"",""CC""]","[""AM05"",""BM03"",""WF06"",""BF05""]","[4,6,2,6]","[6,8,2,4]","","",""
"show-reward","184","461228","0.0-184.0","p36357","AD15OW944ZV20","3PKJ68EHDO28O7HBL4QPFAGDEPGHJ1","3OWEPKL08BIA1S0EDV166O3PSIK7NF","emotion","match","uniform","","","","","","","","460490.39999997616","462494.1999999881","","","","","","","","","","","","6","","stimuli/stars_6.png","275","","","","","stimuli/BM03_HO.jpg","",""
"explore-choice","185","463224","0.0-185.0","p36357","AD15OW944ZV20","3PKJ68EHDO28O7HBL4QPFAGDEPGHJ1","3OWEPKL08BIA1S0EDV166O3PSIK7NF","emotion","match","uniform","","","","","","","1492.8999999761581","462496","463988.89999997616","[""stimuli/BF05_HE.jpg"",""stimuli/WF06_SC.jpg"",""stimuli/BM03_CC.jpg"",""stimuli/AM05_HO.jpg""]","stimuli/BF05_HE.jpg","stimuli/WF06_SC.jpg","stimuli/BM03_CC.jpg","stimuli/AM05_HO.jpg","pos1","stimuli/BF05_HE.jpg","HE","BF05","0","2","4","6","stimuli/stars_4.png","277","[""HE"",""SC"",""CC"",""HO""]","[""BF05"",""WF06"",""BM03"",""AM05""]","[4,2,4,10]","[6,2,4,8]","","",""
"show-reward","186","465238","0.0-186.0","p36357","AD15OW944ZV20","3PKJ68EHDO28O7HBL4QPFAGDEPGHJ1","3OWEPKL08BIA1S0EDV166O3PSIK7NF","emotion","match","uniform","","","","","","","","464490.39999997616","466504.10000002384","","","","","","","","","","","","4","","stimuli/stars_4.png","277","","","","","stimuli/BF05_HE.jpg","",""
"explore-choice","187","467039","0.0-187.0","p36357","AD15OW944ZV20","3PKJ68EHDO28O7HBL4QPFAGDEPGHJ1","3OWEPKL08BIA1S0EDV166O3PSIK7NF","emotion","match","uniform","","","","","","","1299.0999999642372","466505.8000000119","467804.89999997616","[""stimuli/AM05_SC.jpg"",""stimuli/WF06_HE.jpg"",""stimuli/BM03_HO.jpg"",""stimuli/BF05_CC.jpg""]","stimuli/AM05_SC.jpg","stimuli/WF06_HE.jpg","stimuli/BM03_HO.jpg","stimuli/BF05_CC.jpg","pos2","stimuli/WF06_HE.jpg","HE","WF06","1","3.5","7","6","stimuli/stars_7.png","280.5","[""SC"",""HE"",""HO"",""CC""]","[""AM05"",""WF06"",""BM03"",""BF05""]","[2,7,10,5]","[2,6,8,4]","","",""
"show-reward","188","469041","0.0-188.0","p36357","AD15OW944ZV20","3PKJ68EHDO28O7HBL4QPFAGDEPGHJ1","3OWEPKL08BIA1S0EDV166O3PSIK7NF","emotion","match","uniform","","","","","","","","468305.89999997616","470307.1999999881","","","","","","","","","","","","7","","stimuli/stars_7.png","280.5","","","","","stimuli/WF06_HE.jpg","",""
"explore-choice","189","470984","0.0-189.0","p36357","AD15OW944ZV20","3PKJ68EHDO28O7HBL4QPFAGDEPGHJ1","3OWEPKL08BIA1S0EDV166O3PSIK7NF","emotion","match","uniform","","","","","","","1441.800000011921","470307.8000000119","471749.60000002384","[""stimuli/BF05_SC.jpg"",""stimuli/BM03_HO.jpg"",""stimuli/WF06_HE.jpg"",""stimuli/AM05_CC.jpg""]","stimuli/BF05_SC.jpg","stimuli/BM03_HO.jpg","stimuli/WF06_HE.jpg","stimuli/AM05_CC.jpg","pos3","stimuli/WF06_HE.jpg","HE","WF06","2","3","6","6","stimuli/stars_6.png","283.5","[""SC"",""HO"",""HE"",""CC""]","[""BF05"",""BM03"",""WF06"",""AM05""]","[3,9,6,3]","[2,8,6,4]","","",""
"show-reward","190","472987","0.0-190.0","p36357","AD15OW944ZV20","3PKJ68EHDO28O7HBL4QPFAGDEPGHJ1","3OWEPKL08BIA1S0EDV166O3PSIK7NF","emotion","match","uniform","","","","","","","","472251.1999999881","474253.39999997616","","","","","","","","","","","","6","","stimuli/stars_6.png","283.5","","","","","stimuli/WF06_HE.jpg","",""
"explore-choice","191","474799","0.0-191.0","p36357","AD15OW944ZV20","3PKJ68EHDO28O7HBL4QPFAGDEPGHJ1","3OWEPKL08BIA1S0EDV166O3PSIK7NF","emotion","match","uniform","","","","","","","1309.5999999642372","474255.10000002384","475564.6999999881","[""stimuli/WF06_CC.jpg"",""stimuli/BF05_HO.jpg"",""stimuli/BM03_SC.jpg"",""stimuli/AM05_HE.jpg""]","stimuli/WF06_CC.jpg","stimuli/BF05_HO.jpg","stimuli/BM03_SC.jpg","stimuli/AM05_HE.jpg","pos2","stimuli/BF05_HO.jpg","HO","BF05","1","3.5","7","8","stimuli/stars_7.png","287","[""CC"",""HO"",""SC"",""HE""]","[""WF06"",""BF05"",""BM03"",""AM05""]","[5,7,2,5]","[4,8,2,6]","","",""
"show-reward","192","476801","0.0-192.0","p36357","AD15OW944ZV20","3PKJ68EHDO28O7HBL4QPFAGDEPGHJ1","3OWEPKL08BIA1S0EDV166O3PSIK7NF","emotion","match","uniform","","","","","","","","476065.8000000119","478066.89999997616","","","","","","","","","","","","7","","stimuli/stars_7.png","287","","","","","stimuli/BF05_HO.jpg","",""
"explore-choice","193","480048","0.0-193.0","p36357","AD15OW944ZV20","3PKJ68EHDO28O7HBL4QPFAGDEPGHJ1","3OWEPKL08BIA1S0EDV166O3PSIK7NF","emotion","match","uniform","","","","","","","2746.899999976158","478067.5","480814.39999997616","[""stimuli/BF05_CC.jpg"",""stimuli/WF06_SC.jpg"",""stimuli/BM03_HE.jpg"",""stimuli/AM05_HO.jpg""]","stimuli/BF05_CC.jpg","stimuli/WF06_SC.jpg","stimuli/BM03_HE.jpg","stimuli/AM05_HO.jpg","pos3","stimuli/BM03_HE.jpg","HE","BM03","2","3","6","6","stimuli/stars_6.png","290","[""CC"",""SC"",""HE"",""HO""]","[""BF05"",""WF06"",""BM03"",""AM05""]","[5,3,6,6]","[4,2,6,8]","","",""
"show-reward","194","482055","0.0-194.0","p36357","AD15OW944ZV20","3PKJ68EHDO28O7HBL4QPFAGDEPGHJ1","3OWEPKL08BIA1S0EDV166O3PSIK7NF","emotion","match","uniform","","","","","","","","481316","483322.10000002384","","","","","","","","","","","","6","","stimuli/stars_6.png","290","","","","","stimuli/BM03_HE.jpg","",""
"explore-choice","195","484382","0.0-195.0","p36357","AD15OW944ZV20","3PKJ68EHDO28O7HBL4QPFAGDEPGHJ1","3OWEPKL08BIA1S0EDV166O3PSIK7NF","emotion","match","uniform","","","","","","","1826.0999999642372","483322.8000000119","485148.89999997616","[""stimuli/BM03_SC.jpg"",""stimuli/WF06_HO.jpg"",""stimuli/AM05_HE.jpg"",""stimuli/BF05_CC.jpg""]","stimuli/BM03_SC.jpg","stimuli/WF06_HO.jpg","stimuli/AM05_HE.jpg","stimuli/BF05_CC.jpg","pos2","stimuli/WF06_HO.jpg","HO","WF06","1","3","6","8","stimuli/stars_6.png","293","[""SC"",""HO"",""HE"",""CC""]","[""BM03"",""WF06"",""AM05"",""BF05""]","[1,6,6,2]","[2,8,6,4]","","",""
"show-reward","196","486385","0.0-196.0","p36357","AD15OW944ZV20","3PKJ68EHDO28O7HBL4QPFAGDEPGHJ1","3OWEPKL08BIA1S0EDV166O3PSIK7NF","emotion","match","uniform","","","","","","","","485650.10000002384","487652","","","","","","","","","","","","6","","stimuli/stars_6.png","293","","","","","stimuli/WF06_HO.jpg","",""
"explore-choice","197","488486","0.0-197.0","p36357","AD15OW944ZV20","3PKJ68EHDO28O7HBL4QPFAGDEPGHJ1","3OWEPKL08BIA1S0EDV166O3PSIK7NF","emotion","match","uniform","","","","","","","1599.9000000357628","487652.89999997616","489252.8000000119","[""stimuli/WF06_HO.jpg"",""stimuli/BM03_CC.jpg"",""stimuli/BF05_HE.jpg"",""stimuli/AM05_SC.jpg""]","stimuli/WF06_HO.jpg","stimuli/BM03_CC.jpg","stimuli/BF05_HE.jpg","stimuli/AM05_SC.jpg","pos3","stimuli/BF05_HE.jpg","HE","BF05","2","2.5","5","6","stimuli/stars_5.png","295.5","[""HO"",""CC"",""HE"",""SC""]","[""WF06"",""BM03"",""BF05"",""AM05""]","[6,5,5,2]","[8,4,6,2]","","",""
"show-reward","198","490496","0.0-198.0","p36357","AD15OW944ZV20","3PKJ68EHDO28O7HBL4QPFAGDEPGHJ1","3OWEPKL08BIA1S0EDV166O3PSIK7NF","emotion","match","uniform","","","","","","","","489753.60000002384","491762.3000000119","","","","","","","","","","","","5","","stimuli/stars_5.png","295.5","","","","","stimuli/BF05_HE.jpg","",""
"instructions","199","494778","0.0-199.0","p36357","AD15OW944ZV20","3PKJ68EHDO28O7HBL4QPFAGDEPGHJ1","3OWEPKL08BIA1S0EDV166O3PSIK7NF","emotion","match","uniform","","","","","","[{""page_index"":0,""viewing_time"":4279.900000035763}]","4280.300000011921","","","","","","","","","","","","","","","","","","","","","","","",""
"survey-text","200","497642","0.0-200.0-0.0","p36357","AD15OW944ZV20","3PKJ68EHDO28O7HBL4QPFAGDEPGHJ1","3OWEPKL08BIA1S0EDV166O3PSIK7NF","emotion","match","uniform","","","","","","","2861.399999976158","","","","","","","","","","","","","","","","","","","","","","","{""age"":""35""}",""
"survey-text","201","500970","0.0-200.0-1.0","p36357","AD15OW944ZV20","3PKJ68EHDO28O7HBL4QPFAGDEPGHJ1","3OWEPKL08BIA1S0EDV166O3PSIK7NF","emotion","match","uniform","","","","","","","3326.199999988079","","","","","","","","","","","","","","","","","","","","","","","{""gender"":""Male""}",""
"survey-text","202","505811","0.0-200.0-2.0","p36357","AD15OW944ZV20","3PKJ68EHDO28O7HBL4QPFAGDEPGHJ1","3OWEPKL08BIA1S0EDV166O3PSIK7NF","emotion","match","uniform","","","","","","","4839.099999964237","","","","","","","","","","","","","","","","","","","","","","","{""country"":""United States""}",""
"survey-text","203","510739","0.0-200.0-3.0","p36357","AD15OW944ZV20","3PKJ68EHDO28O7HBL4QPFAGDEPGHJ1","3OWEPKL08BIA1S0EDV166O3PSIK7NF","emotion","match","uniform","","","","","","","4924.699999988079","","","","","","","","","","","","","","","","","","","","","","","{""language"":""English"",""other_languages"":""""}",""
"survey-multi-select","204","513794","0.0-201.0","p36357","AD15OW944ZV20","3PKJ68EHDO28O7HBL4QPFAGDEPGHJ1","3OWEPKL08BIA1S0EDV166O3PSIK7NF","emotion","match","uniform","","","","","","","3051.800000011921","","","","","","","","","","","","","","","","","","","","","","","{""race"":[""White""]}","[0]"
"survey-multi-choice","205","517236","0.0-202.0","p36357","AD15OW944ZV20","3PKJ68EHDO28O7HBL4QPFAGDEPGHJ1","3OWEPKL08BIA1S0EDV166O3PSIK7NF","emotion","match","uniform","","","","","","","3439.800000011921","","","","","","","","","","","","","","","","","","","","","","","{""education"":""Bachelor's degree""}","[0]"
"survey-text","206","589556","0.0-203.0","p36357","AD15OW944ZV20","3PKJ68EHDO28O7HBL4QPFAGDEPGHJ1","3OWEPKL08BIA1S0EDV166O3PSIK7NF","emotion","match","uniform","","","","","","","72313.69999998808","","","","","","","","","","","","","","","","","","","","","","","{""patterns"":""Yes, I noticed that the mood impacted the results I would receive. For instance, the first set of faces I picked the most angry looking face and in the 2nd set I noticed the happiest looking faces were most desirable for me."",""strategy"":""Yes, I picked the Angriest set of faces in the first set and then the happiest in the 2nd set. I started by guessing for two rounds and then deciding which one gave me the best results and stuck with that plan through that set of faces."",""comments"":""""}",""
