"trial_type","trial_index","time_elapsed","internal_node_id","subject","workerId","hitId","assignmentId","structure_condition","match_condition","noise_type","success","timeout","failed_images","failed_audio","failed_video","view_history","rt","start_time","end_time","stimuli","image1","image2","image3","image4","choiceLocation","choiceImage","choiceEmotion","choiceModel","choice_index","reward_score","reward","reward_score_unadjusted","reward_image","score_after_trial","emotions","models","rewards","rewards_unadjusted","stimulus","response","question_order"
"pavlovia","0","10","0.0-0.0","p400231","A1PHDT66U6IK4Q","3FVBZG9CLKK1M1GPZWGJX51HFG80HB","37ZHEEHM6YS3XO74VCHRXA5JN0P37P","emotion","mismatch","uniform","","","","","","","","","","","","","","","","","","","","","","","","","","","","","","",""
"preload","1","44909","0.0-1.0","p400231","A1PHDT66U6IK4Q","3FVBZG9CLKK1M1GPZWGJX51HFG80HB","37ZHEEHM6YS3XO74VCHRXA5JN0P37P","emotion","mismatch","uniform","true","false","[]","[]","[]","","","","","","","","","","","","","","","","","","","","","","","","","",""
"fullscreen","2","65471","0.0-2.0","p400231","A1PHDT66U6IK4Q","3FVBZG9CLKK1M1GPZWGJX51HFG80HB","37ZHEEHM6YS3XO74VCHRXA5JN0P37P","emotion","mismatch","uniform","true","","","","","","","","","","","","","","","","","","","","","","","","","","","","","",""
"instructions","3","90416","0.0-3.0","p400231","A1PHDT66U6IK4Q","3FVBZG9CLKK1M1GPZWGJX51HFG80HB","37ZHEEHM6YS3XO74VCHRXA5JN0P37P","emotion","mismatch","uniform","","","","","","[{""page_index"":0,""viewing_time"":24942.600000023842}]","24943.200000047684","","","","","","","","","","","","","","","","","","","","","","","",""
"explore-choice","4","95692","0.0-4.0","p400231","A1PHDT66U6IK4Q","3FVBZG9CLKK1M1GPZWGJX51HFG80HB","37ZHEEHM6YS3XO74VCHRXA5JN0P37P","emotion","mismatch","uniform","","","","","","","4775","94997.20000004768","99772.20000004768","[""stimuli/sheep.jpg"",""stimuli/hammer.jpg"",""stimuli/basketball.jpg"",""stimuli/horse.jpg""]","stimuli/sheep.jpg","stimuli/hammer.jpg","stimuli/basketball.jpg","stimuli/horse.jpg","pos4","stimuli/horse.jpg","","","3","64","64","64","stimuli/stars_8.png","65","","","","","","",""
"explore-choice","5","98068","0.0-5.0","p400231","A1PHDT66U6IK4Q","3FVBZG9CLKK1M1GPZWGJX51HFG80HB","37ZHEEHM6YS3XO74VCHRXA5JN0P37P","emotion","mismatch","uniform","","","","","","","1862.699999988079","100273.70000004768","102136.40000003576","[""stimuli/hammer.jpg"",""stimuli/basketball.jpg"",""stimuli/horse.jpg"",""stimuli/sheep.jpg""]","stimuli/hammer.jpg","stimuli/basketball.jpg","stimuli/horse.jpg","stimuli/sheep.jpg","pos1","stimuli/hammer.jpg","","","0","8","8","8","stimuli/stars_2.png","9","","","","","","",""
"instructions","6","138365","0.0-6.0","p400231","A1PHDT66U6IK4Q","3FVBZG9CLKK1M1GPZWGJX51HFG80HB","37ZHEEHM6YS3XO74VCHRXA5JN0P37P","emotion","mismatch","uniform","","","","","","[{""page_index"":0,""viewing_time"":40296}]","40296.19999998808","","","","","","","","","","","","","","","","","","","","","","","",""
"explore-choice","7","151140","0.0-7.0","p400231","A1PHDT66U6IK4Q","3FVBZG9CLKK1M1GPZWGJX51HFG80HB","37ZHEEHM6YS3XO74VCHRXA5JN0P37P","emotion","mismatch","uniform","","","","","","","12265.5","142946.70000004768","155212.20000004768","[""stimuli/WM11_SC.jpg"",""stimuli/BM03_FO.jpg"",""stimuli/AF02_AO.jpg"",""stimuli/BF06_CC.jpg""]","stimuli/WM11_SC.jpg","stimuli/BM03_FO.jpg","stimuli/AF02_AO.jpg","stimuli/BF06_CC.jpg","pos4","stimuli/BF06_CC.jpg","CC","BF06","3","1","2","2","stimuli/stars_2.png","2","[""SC"",""FO"",""AO"",""CC""]","[""WM11"",""BM03"",""AF02"",""BF06""]","[5,5,6,2]","[6,4,8,2]","","",""
"show-reward","8","153145","0.0-8.0","p400231","A1PHDT66U6IK4Q","3FVBZG9CLKK1M1GPZWGJX51HFG80HB","37ZHEEHM6YS3XO74VCHRXA5JN0P37P","emotion","mismatch","uniform","","","","","","","","155723.80000001192","157725.80000001192","","","","","","","","","","","","2","","stimuli/stars_2.png","2","","","","","stimuli/BF06_CC.jpg","",""
"explore-choice","9","160316","0.0-9.0","p400231","A1PHDT66U6IK4Q","3FVBZG9CLKK1M1GPZWGJX51HFG80HB","37ZHEEHM6YS3XO74VCHRXA5JN0P37P","emotion","mismatch","uniform","","","","","","","6669.300000011921","157726.5","164395.80000001192","[""stimuli/BM03_FO.jpg"",""stimuli/AF02_SC.jpg"",""stimuli/BF06_AO.jpg"",""stimuli/WM11_CC.jpg""]","stimuli/BM03_FO.jpg","stimuli/AF02_SC.jpg","stimuli/BF06_AO.jpg","stimuli/WM11_CC.jpg","pos3","stimuli/BF06_AO.jpg","AO","BF06","2","3","6","8","stimuli/stars_6.png","5","[""FO"",""SC"",""AO"",""CC""]","[""BM03"",""AF02"",""BF06"",""WM11""]","[3,5,6,4]","[4,6,8,2]","","",""
"show-reward","10","162318","0.0-10.0","p400231","A1PHDT66U6IK4Q","3FVBZG9CLKK1M1GPZWGJX51HFG80HB","37ZHEEHM6YS3XO74VCHRXA5JN0P37P","emotion","mismatch","uniform","","","","","","","","164897.60000002384","166899","","","","","","","","","","","","6","","stimuli/stars_6.png","5","","","","","stimuli/BF06_AO.jpg","",""
"explore-choice","11","166465","0.0-11.0","p400231","A1PHDT66U6IK4Q","3FVBZG9CLKK1M1GPZWGJX51HFG80HB","37ZHEEHM6YS3XO74VCHRXA5JN0P37P","emotion","mismatch","uniform","","","","","","","3644","166899.5","170543.5","[""stimuli/AF02_FO.jpg"",""stimuli/BM03_SC.jpg"",""stimuli/WM11_AO.jpg"",""stimuli/BF06_CC.jpg""]","stimuli/AF02_FO.jpg","stimuli/BM03_SC.jpg","stimuli/WM11_AO.jpg","stimuli/BF06_CC.jpg","pos1","stimuli/AF02_FO.jpg","FO","AF02","0","3","6","4","stimuli/stars_6.png","8","[""FO"",""SC"",""AO"",""CC""]","[""AF02"",""BM03"",""WM11"",""BF06""]","[6,4,10,0]","[4,6,8,2]","","",""
"show-reward","12","168481","0.0-12.0","p400231","A1PHDT66U6IK4Q","3FVBZG9CLKK1M1GPZWGJX51HFG80HB","37ZHEEHM6YS3XO74VCHRXA5JN0P37P","emotion","mismatch","uniform","","","","","","","","171046.40000003576","173061.70000004768","","","","","","","","","","","","6","","stimuli/stars_6.png","8","","","","","stimuli/AF02_FO.jpg","",""
"explore-choice","13","174155","0.0-13.0","p400231","A1PHDT66U6IK4Q","3FVBZG9CLKK1M1GPZWGJX51HFG80HB","37ZHEEHM6YS3XO74VCHRXA5JN0P37P","emotion","mismatch","uniform","","","","","","","5162.399999976158","173062.40000003576","178224.80000001192","[""stimuli/BF06_FO.jpg"",""stimuli/AF02_AO.jpg"",""stimuli/BM03_SC.jpg"",""stimuli/WM11_CC.jpg""]","stimuli/BF06_FO.jpg","stimuli/AF02_AO.jpg","stimuli/BM03_SC.jpg","stimuli/WM11_CC.jpg","pos2","stimuli/AF02_AO.jpg","AO","AF02","1","5","10","8","stimuli/stars_10.png","13","[""FO"",""AO"",""SC"",""CC""]","[""BF06"",""AF02"",""BM03"",""WM11""]","[6,10,7,2]","[4,8,6,2]","","",""
"show-reward","14","176159","0.0-14.0","p400231","A1PHDT66U6IK4Q","3FVBZG9CLKK1M1GPZWGJX51HFG80HB","37ZHEEHM6YS3XO74VCHRXA5JN0P37P","emotion","mismatch","uniform","","","","","","","","178737","180739.70000004768","","","","","","","","","","","","10","","stimuli/stars_10.png","13","","","","","stimuli/AF02_AO.jpg","",""
"explore-choice","15","181094","0.0-15.0","p400231","A1PHDT66U6IK4Q","3FVBZG9CLKK1M1GPZWGJX51HFG80HB","37ZHEEHM6YS3XO74VCHRXA5JN0P37P","emotion","mismatch","uniform","","","","","","","4428.900000035763","180740.80000001192","185169.70000004768","[""stimuli/BM03_CC.jpg"",""stimuli/AF02_FO.jpg"",""stimuli/BF06_AO.jpg"",""stimuli/WM11_SC.jpg""]","stimuli/BM03_CC.jpg","stimuli/AF02_FO.jpg","stimuli/BF06_AO.jpg","stimuli/WM11_SC.jpg","pos2","stimuli/AF02_FO.jpg","FO","AF02","1","2","4","4","stimuli/stars_4.png","15","[""CC"",""FO"",""AO"",""SC""]","[""BM03"",""AF02"",""BF06"",""WM11""]","[4,4,10,5]","[2,4,8,6]","","",""
"show-reward","16","183108","0.0-16.0","p400231","A1PHDT66U6IK4Q","3FVBZG9CLKK1M1GPZWGJX51HFG80HB","37ZHEEHM6YS3XO74VCHRXA5JN0P37P","emotion","mismatch","uniform","","","","","","","","185675","187688.90000003576","","","","","","","","","","","","4","","stimuli/stars_4.png","15","","","","","stimuli/AF02_FO.jpg","",""
"explore-choice","17","185509","0.0-17.0","p400231","A1PHDT66U6IK4Q","3FVBZG9CLKK1M1GPZWGJX51HFG80HB","37ZHEEHM6YS3XO74VCHRXA5JN0P37P","emotion","mismatch","uniform","","","","","","","1888.3999999761581","187689.90000003576","189578.30000001192","[""stimuli/BF06_FO.jpg"",""stimuli/BM03_CC.jpg"",""stimuli/AF02_AO.jpg"",""stimuli/WM11_SC.jpg""]","stimuli/BF06_FO.jpg","stimuli/BM03_CC.jpg","stimuli/AF02_AO.jpg","stimuli/WM11_SC.jpg","pos3","stimuli/AF02_AO.jpg","AO","AF02","2","3","6","8","stimuli/stars_6.png","18","[""FO"",""CC"",""AO"",""SC""]","[""BF06"",""BM03"",""AF02"",""WM11""]","[4,3,6,5]","[4,2,8,6]","","",""
"show-reward","18","187529","0.0-18.0","p400231","A1PHDT66U6IK4Q","3FVBZG9CLKK1M1GPZWGJX51HFG80HB","37ZHEEHM6YS3XO74VCHRXA5JN0P37P","emotion","mismatch","uniform","","","","","","","","190090.10000002384","192109.60000002384","","","","","","","","","","","","6","","stimuli/stars_6.png","18","","","","","stimuli/AF02_AO.jpg","",""
"explore-choice","19","192981","0.0-19.0","p400231","A1PHDT66U6IK4Q","3FVBZG9CLKK1M1GPZWGJX51HFG80HB","37ZHEEHM6YS3XO74VCHRXA5JN0P37P","emotion","mismatch","uniform","","","","","","","4945.800000011921","192110.5","197056.30000001192","[""stimuli/AF02_CC.jpg"",""stimuli/WM11_FO.jpg"",""stimuli/BF06_AO.jpg"",""stimuli/BM03_SC.jpg""]","stimuli/AF02_CC.jpg","stimuli/WM11_FO.jpg","stimuli/BF06_AO.jpg","stimuli/BM03_SC.jpg","pos2","stimuli/WM11_FO.jpg","FO","WM11","1","3","6","4","stimuli/stars_6.png","21","[""CC"",""FO"",""AO"",""SC""]","[""AF02"",""WM11"",""BF06"",""BM03""]","[1,6,7,8]","[2,4,8,6]","","",""
"show-reward","20","194994","0.0-20.0","p400231","A1PHDT66U6IK4Q","3FVBZG9CLKK1M1GPZWGJX51HFG80HB","37ZHEEHM6YS3XO74VCHRXA5JN0P37P","emotion","mismatch","uniform","","","","","","","","197563","199574.80000001192","","","","","","","","","","","","6","","stimuli/stars_6.png","21","","","","","stimuli/WM11_FO.jpg","",""
"explore-choice","21","196783","0.0-21.0","p400231","A1PHDT66U6IK4Q","3FVBZG9CLKK1M1GPZWGJX51HFG80HB","37ZHEEHM6YS3XO74VCHRXA5JN0P37P","emotion","mismatch","uniform","","","","","","","1275.5","199576.10000002384","200851.60000002384","[""stimuli/WM11_AO.jpg"",""stimuli/BM03_FO.jpg"",""stimuli/BF06_SC.jpg"",""stimuli/AF02_CC.jpg""]","stimuli/WM11_AO.jpg","stimuli/BM03_FO.jpg","stimuli/BF06_SC.jpg","stimuli/AF02_CC.jpg","pos2","stimuli/BM03_FO.jpg","FO","BM03","1","2","4","4","stimuli/stars_4.png","23","[""AO"",""FO"",""SC"",""CC""]","[""WM11"",""BM03"",""BF06"",""AF02""]","[10,4,4,0]","[8,4,6,2]","","",""
"show-reward","22","198786","0.0-22.0","p400231","A1PHDT66U6IK4Q","3FVBZG9CLKK1M1GPZWGJX51HFG80HB","37ZHEEHM6YS3XO74VCHRXA5JN0P37P","emotion","mismatch","uniform","","","","","","","","201364.20000004768","203366.90000003576","","","","","","","","","","","","4","","stimuli/stars_4.png","23","","","","","stimuli/BM03_FO.jpg","",""
"explore-choice","23","202846","0.0-23.0","p400231","A1PHDT66U6IK4Q","3FVBZG9CLKK1M1GPZWGJX51HFG80HB","37ZHEEHM6YS3XO74VCHRXA5JN0P37P","emotion","mismatch","uniform","","","","","","","3553.800000011921","203367.60000002384","206921.40000003576","[""stimuli/BF06_CC.jpg"",""stimuli/AF02_SC.jpg"",""stimuli/BM03_AO.jpg"",""stimuli/WM11_FO.jpg""]","stimuli/BF06_CC.jpg","stimuli/AF02_SC.jpg","stimuli/BM03_AO.jpg","stimuli/WM11_FO.jpg","pos4","stimuli/WM11_FO.jpg","FO","WM11","3","1.5","3","4","stimuli/stars_3.png","24.5","[""CC"",""SC"",""AO"",""FO""]","[""BF06"",""AF02"",""BM03"",""WM11""]","[3,8,10,3]","[2,6,8,4]","","",""
"show-reward","24","204862","0.0-24.0","p400231","A1PHDT66U6IK4Q","3FVBZG9CLKK1M1GPZWGJX51HFG80HB","37ZHEEHM6YS3XO74VCHRXA5JN0P37P","emotion","mismatch","uniform","","","","","","","","207427.70000004768","209442.30000001192","","","","","","","","","","","","3","","stimuli/stars_3.png","24.5","","","","","stimuli/WM11_FO.jpg","",""
"explore-choice","25","206415","0.0-25.0","p400231","A1PHDT66U6IK4Q","3FVBZG9CLKK1M1GPZWGJX51HFG80HB","37ZHEEHM6YS3XO74VCHRXA5JN0P37P","emotion","mismatch","uniform","","","","","","","1040.1000000238419","209443.5","210483.60000002384","[""stimuli/BM03_FO.jpg"",""stimuli/AF02_AO.jpg"",""stimuli/WM11_CC.jpg"",""stimuli/BF06_SC.jpg""]","stimuli/BM03_FO.jpg","stimuli/AF02_AO.jpg","stimuli/WM11_CC.jpg","stimuli/BF06_SC.jpg","pos1","stimuli/BM03_FO.jpg","FO","BM03","0","2.5","5","4","stimuli/stars_5.png","27","[""FO"",""AO"",""CC"",""SC""]","[""BM03"",""AF02"",""WM11"",""BF06""]","[5,9,4,8]","[4,8,2,6]","","",""
"show-reward","26","208420","0.0-26.0","p400231","A1PHDT66U6IK4Q","3FVBZG9CLKK1M1GPZWGJX51HFG80HB","37ZHEEHM6YS3XO74VCHRXA5JN0P37P","emotion","mismatch","uniform","","","","","","","","210996.90000003576","213000.30000001192","","","","","","","","","","","","5","","stimuli/stars_5.png","27","","","","","stimuli/BM03_FO.jpg","",""
"explore-choice","27","210246","0.0-27.0","p400231","A1PHDT66U6IK4Q","3FVBZG9CLKK1M1GPZWGJX51HFG80HB","37ZHEEHM6YS3XO74VCHRXA5JN0P37P","emotion","mismatch","uniform","","","","","","","1310.699999988079","213001.30000001192","214312","[""stimuli/WM11_FO.jpg"",""stimuli/BF06_CC.jpg"",""stimuli/AF02_AO.jpg"",""stimuli/BM03_SC.jpg""]","stimuli/WM11_FO.jpg","stimuli/BF06_CC.jpg","stimuli/AF02_AO.jpg","stimuli/BM03_SC.jpg","pos3","stimuli/AF02_AO.jpg","AO","AF02","2","3","6","8","stimuli/stars_6.png","30","[""FO"",""CC"",""AO"",""SC""]","[""WM11"",""BF06"",""AF02"",""BM03""]","[2,2,6,7]","[4,2,8,6]","","",""
"show-reward","28","212258","0.0-28.0","p400231","A1PHDT66U6IK4Q","3FVBZG9CLKK1M1GPZWGJX51HFG80HB","37ZHEEHM6YS3XO74VCHRXA5JN0P37P","emotion","mismatch","uniform","","","","","","","","214827","216838.60000002384","","","","","","","","","","","","6","","stimuli/stars_6.png","30","","","","","stimuli/AF02_AO.jpg","",""
"explore-choice","29","215696","0.0-29.0","p400231","A1PHDT66U6IK4Q","3FVBZG9CLKK1M1GPZWGJX51HFG80HB","37ZHEEHM6YS3XO74VCHRXA5JN0P37P","emotion","mismatch","uniform","","","","","","","2914.300000011921","216839.5","219753.80000001192","[""stimuli/BM03_AO.jpg"",""stimuli/WM11_SC.jpg"",""stimuli/BF06_FO.jpg"",""stimuli/AF02_CC.jpg""]","stimuli/BM03_AO.jpg","stimuli/WM11_SC.jpg","stimuli/BF06_FO.jpg","stimuli/AF02_CC.jpg","pos2","stimuli/WM11_SC.jpg","SC","WM11","1","3.5","7","6","stimuli/stars_7.png","33.5","[""AO"",""SC"",""FO"",""CC""]","[""BM03"",""WM11"",""BF06"",""AF02""]","[9,7,4,0]","[8,6,4,2]","","",""
"show-reward","30","217700","0.0-30.0","p400231","A1PHDT66U6IK4Q","3FVBZG9CLKK1M1GPZWGJX51HFG80HB","37ZHEEHM6YS3XO74VCHRXA5JN0P37P","emotion","mismatch","uniform","","","","","","","","220277.40000003576","222281","","","","","","","","","","","","7","","stimuli/stars_7.png","33.5","","","","","stimuli/WM11_SC.jpg","",""
"explore-choice","31","220333","0.0-31.0","p400231","A1PHDT66U6IK4Q","3FVBZG9CLKK1M1GPZWGJX51HFG80HB","37ZHEEHM6YS3XO74VCHRXA5JN0P37P","emotion","mismatch","uniform","","","","","","","2129.800000011921","222282.10000002384","224411.90000003576","[""stimuli/BF06_AO.jpg"",""stimuli/BM03_CC.jpg"",""stimuli/WM11_FO.jpg"",""stimuli/AF02_SC.jpg""]","stimuli/BF06_AO.jpg","stimuli/BM03_CC.jpg","stimuli/WM11_FO.jpg","stimuli/AF02_SC.jpg","pos4","stimuli/AF02_SC.jpg","SC","AF02","3","2.5","5","6","stimuli/stars_5.png","36","[""AO"",""CC"",""FO"",""SC""]","[""BF06"",""BM03"",""WM11"",""AF02""]","[9,1,6,5]","[8,2,4,6]","","",""
"show-reward","32","222351","0.0-32.0","p400231","A1PHDT66U6IK4Q","3FVBZG9CLKK1M1GPZWGJX51HFG80HB","37ZHEEHM6YS3XO74VCHRXA5JN0P37P","emotion","mismatch","uniform","","","","","","","","224914.60000002384","226931","","","","","","","","","","","","5","","stimuli/stars_5.png","36","","","","","stimuli/AF02_SC.jpg","",""
"explore-choice","33","225672","0.0-33.0","p400231","A1PHDT66U6IK4Q","3FVBZG9CLKK1M1GPZWGJX51HFG80HB","37ZHEEHM6YS3XO74VCHRXA5JN0P37P","emotion","mismatch","uniform","","","","","","","2820.100000023842","226932.10000002384","229752.20000004768","[""stimuli/BM03_SC.jpg"",""stimuli/BF06_AO.jpg"",""stimuli/WM11_CC.jpg"",""stimuli/AF02_FO.jpg""]","stimuli/BM03_SC.jpg","stimuli/BF06_AO.jpg","stimuli/WM11_CC.jpg","stimuli/AF02_FO.jpg","pos1","stimuli/BM03_SC.jpg","SC","BM03","0","3","6","6","stimuli/stars_6.png","39","[""SC"",""AO"",""CC"",""FO""]","[""BM03"",""BF06"",""WM11"",""AF02""]","[6,8,0,3]","[6,8,2,4]","","",""
"show-reward","34","227686","0.0-34.0","p400231","A1PHDT66U6IK4Q","3FVBZG9CLKK1M1GPZWGJX51HFG80HB","37ZHEEHM6YS3XO74VCHRXA5JN0P37P","emotion","mismatch","uniform","","","","","","","","230253.20000004768","232266.80000001192","","","","","","","","","","","","6","","stimuli/stars_6.png","39","","","","","stimuli/BM03_SC.jpg","",""
"explore-choice","35","229602","0.0-35.0","p400231","A1PHDT66U6IK4Q","3FVBZG9CLKK1M1GPZWGJX51HFG80HB","37ZHEEHM6YS3XO74VCHRXA5JN0P37P","emotion","mismatch","uniform","","","","","","","1413.9000000357628","232267.80000001192","233681.70000004768","[""stimuli/AF02_FO.jpg"",""stimuli/WM11_AO.jpg"",""stimuli/BF06_SC.jpg"",""stimuli/BM03_CC.jpg""]","stimuli/AF02_FO.jpg","stimuli/WM11_AO.jpg","stimuli/BF06_SC.jpg","stimuli/BM03_CC.jpg","pos2","stimuli/WM11_AO.jpg","AO","WM11","1","3","6","8","stimuli/stars_6.png","42","[""FO"",""AO"",""SC"",""CC""]","[""AF02"",""WM11"",""BF06"",""BM03""]","[5,6,4,0]","[4,8,6,2]","","",""
"show-reward","36","231613","0.0-36.0","p400231","A1PHDT66U6IK4Q","3FVBZG9CLKK1M1GPZWGJX51HFG80HB","37ZHEEHM6YS3XO74VCHRXA5JN0P37P","emotion","mismatch","uniform","","","","","","","","234183.70000004768","236193.70000004768","","","","","","","","","","","","6","","stimuli/stars_6.png","42","","","","","stimuli/WM11_AO.jpg","",""
"explore-choice","37","233894","0.0-37.0","p400231","A1PHDT66U6IK4Q","3FVBZG9CLKK1M1GPZWGJX51HFG80HB","37ZHEEHM6YS3XO74VCHRXA5JN0P37P","emotion","mismatch","uniform","","","","","","","1779.7999999523163","236194.70000004768","237974.5","[""stimuli/AF02_SC.jpg"",""stimuli/BF06_FO.jpg"",""stimuli/WM11_AO.jpg"",""stimuli/BM03_CC.jpg""]","stimuli/AF02_SC.jpg","stimuli/BF06_FO.jpg","stimuli/WM11_AO.jpg","stimuli/BM03_CC.jpg","pos4","stimuli/BM03_CC.jpg","CC","BM03","3","1","2","2","stimuli/stars_2.png","43","[""SC"",""FO"",""AO"",""CC""]","[""AF02"",""BF06"",""WM11"",""BM03""]","[4,3,8,2]","[6,4,8,2]","","",""
"show-reward","38","235897","0.0-38.0","p400231","A1PHDT66U6IK4Q","3FVBZG9CLKK1M1GPZWGJX51HFG80HB","37ZHEEHM6YS3XO74VCHRXA5JN0P37P","emotion","mismatch","uniform","","","","","","","","238475.5","240477.80000001192","","","","","","","","","","","","2","","stimuli/stars_2.png","43","","","","","stimuli/BM03_CC.jpg","",""
"explore-choice","39","237298","0.0-39.0","p400231","A1PHDT66U6IK4Q","3FVBZG9CLKK1M1GPZWGJX51HFG80HB","37ZHEEHM6YS3XO74VCHRXA5JN0P37P","emotion","mismatch","uniform","","","","","","","893.8999999761581","240478.40000003576","241372.30000001192","[""stimuli/AF02_AO.jpg"",""stimuli/WM11_FO.jpg"",""stimuli/BF06_SC.jpg"",""stimuli/BM03_CC.jpg""]","stimuli/AF02_AO.jpg","stimuli/WM11_FO.jpg","stimuli/BF06_SC.jpg","stimuli/BM03_CC.jpg","pos2","stimuli/WM11_FO.jpg","FO","WM11","1","2","4","4","stimuli/stars_4.png","45","[""AO"",""FO"",""SC"",""CC""]","[""AF02"",""WM11"",""BF06"",""BM03""]","[6,4,8,1]","[8,4,6,2]","","",""
"show-reward","40","239315","0.0-40.0","p400231","A1PHDT66U6IK4Q","3FVBZG9CLKK1M1GPZWGJX51HFG80HB","37ZHEEHM6YS3XO74VCHRXA5JN0P37P","emotion","mismatch","uniform","","","","","","","","241879.30000001192","243895.5","","","","","","","","","","","","4","","stimuli/stars_4.png","45","","","","","stimuli/WM11_FO.jpg","",""
"explore-choice","41","241120","0.0-41.0","p400231","A1PHDT66U6IK4Q","3FVBZG9CLKK1M1GPZWGJX51HFG80HB","37ZHEEHM6YS3XO74VCHRXA5JN0P37P","emotion","mismatch","uniform","","","","","","","1304","243896.40000003576","245200.40000003576","[""stimuli/WM11_AO.jpg"",""stimuli/AF02_SC.jpg"",""stimuli/BM03_FO.jpg"",""stimuli/BF06_CC.jpg""]","stimuli/WM11_AO.jpg","stimuli/AF02_SC.jpg","stimuli/BM03_FO.jpg","stimuli/BF06_CC.jpg","pos3","stimuli/BM03_FO.jpg","FO","BM03","2","2","4","4","stimuli/stars_4.png","47","[""AO"",""SC"",""FO"",""CC""]","[""WM11"",""AF02"",""BM03"",""BF06""]","[6,5,4,2]","[8,6,4,2]","","",""
"show-reward","42","243133","0.0-42.0","p400231","A1PHDT66U6IK4Q","3FVBZG9CLKK1M1GPZWGJX51HFG80HB","37ZHEEHM6YS3XO74VCHRXA5JN0P37P","emotion","mismatch","uniform","","","","","","","","245701.70000004768","247713.40000003576","","","","","","","","","","","","4","","stimuli/stars_4.png","47","","","","","stimuli/BM03_FO.jpg","",""
"explore-choice","43","244911","0.0-43.0","p400231","A1PHDT66U6IK4Q","3FVBZG9CLKK1M1GPZWGJX51HFG80HB","37ZHEEHM6YS3XO74VCHRXA5JN0P37P","emotion","mismatch","uniform","","","","","","","1276.699999988079","247713.80000001192","248990.5","[""stimuli/BM03_AO.jpg"",""stimuli/BF06_SC.jpg"",""stimuli/AF02_FO.jpg"",""stimuli/WM11_CC.jpg""]","stimuli/BM03_AO.jpg","stimuli/BF06_SC.jpg","stimuli/AF02_FO.jpg","stimuli/WM11_CC.jpg","pos1","stimuli/BM03_AO.jpg","AO","BM03","0","3.5","7","8","stimuli/stars_7.png","50.5","[""AO"",""SC"",""FO"",""CC""]","[""BM03"",""BF06"",""AF02"",""WM11""]","[7,5,4,1]","[8,6,4,2]","","",""
"show-reward","44","246924","0.0-44.0","p400231","A1PHDT66U6IK4Q","3FVBZG9CLKK1M1GPZWGJX51HFG80HB","37ZHEEHM6YS3XO74VCHRXA5JN0P37P","emotion","mismatch","uniform","","","","","","","","249491.90000003576","251504.70000004768","","","","","","","","","","","","7","","stimuli/stars_7.png","50.5","","","","","stimuli/BM03_AO.jpg","",""
"explore-choice","45","249664","0.0-45.0","p400231","A1PHDT66U6IK4Q","3FVBZG9CLKK1M1GPZWGJX51HFG80HB","37ZHEEHM6YS3XO74VCHRXA5JN0P37P","emotion","mismatch","uniform","","","","","","","2225.600000023842","251505.30000001192","253730.90000003576","[""stimuli/AF02_CC.jpg"",""stimuli/BF06_SC.jpg"",""stimuli/WM11_FO.jpg"",""stimuli/BM03_AO.jpg""]","stimuli/AF02_CC.jpg","stimuli/BF06_SC.jpg","stimuli/WM11_FO.jpg","stimuli/BM03_AO.jpg","pos3","stimuli/WM11_FO.jpg","FO","WM11","2","1","2","4","stimuli/stars_2.png","51.5","[""CC"",""SC"",""FO"",""AO""]","[""AF02"",""BF06"",""WM11"",""BM03""]","[4,8,2,6]","[2,6,4,8]","","",""
"show-reward","46","251678","0.0-46.0","p400231","A1PHDT66U6IK4Q","3FVBZG9CLKK1M1GPZWGJX51HFG80HB","37ZHEEHM6YS3XO74VCHRXA5JN0P37P","emotion","mismatch","uniform","","","","","","","","254246","256258.20000004768","","","","","","","","","","","","2","","stimuli/stars_2.png","51.5","","","","","stimuli/WM11_FO.jpg","",""
"explore-choice","47","253907","0.0-47.0","p400231","A1PHDT66U6IK4Q","3FVBZG9CLKK1M1GPZWGJX51HFG80HB","37ZHEEHM6YS3XO74VCHRXA5JN0P37P","emotion","mismatch","uniform","","","","","","","1726.800000011921","256259.30000001192","257986.10000002384","[""stimuli/AF02_CC.jpg"",""stimuli/BM03_SC.jpg"",""stimuli/WM11_AO.jpg"",""stimuli/BF06_FO.jpg""]","stimuli/AF02_CC.jpg","stimuli/BM03_SC.jpg","stimuli/WM11_AO.jpg","stimuli/BF06_FO.jpg","pos4","stimuli/BF06_FO.jpg","FO","BF06","3","1","2","4","stimuli/stars_2.png","52.5","[""CC"",""SC"",""AO"",""FO""]","[""AF02"",""BM03"",""WM11"",""BF06""]","[0,8,7,2]","[2,6,8,4]","","",""
"show-reward","48","255917","0.0-48.0","p400231","A1PHDT66U6IK4Q","3FVBZG9CLKK1M1GPZWGJX51HFG80HB","37ZHEEHM6YS3XO74VCHRXA5JN0P37P","emotion","mismatch","uniform","","","","","","","","258488","260497.80000001192","","","","","","","","","","","","2","","stimuli/stars_2.png","52.5","","","","","stimuli/BF06_FO.jpg","",""
"explore-choice","49","262948","0.0-49.0","p400231","A1PHDT66U6IK4Q","3FVBZG9CLKK1M1GPZWGJX51HFG80HB","37ZHEEHM6YS3XO74VCHRXA5JN0P37P","emotion","mismatch","uniform","","","","","","","6523.299999952316","260499.20000004768","267022.5","[""stimuli/BM03_AO.jpg"",""stimuli/BF06_CC.jpg"",""stimuli/WM11_SC.jpg"",""stimuli/AF02_FO.jpg""]","stimuli/BM03_AO.jpg","stimuli/BF06_CC.jpg","stimuli/WM11_SC.jpg","stimuli/AF02_FO.jpg","pos3","stimuli/WM11_SC.jpg","SC","WM11","2","3.5","7","6","stimuli/stars_7.png","56","[""AO"",""CC"",""SC"",""FO""]","[""BM03"",""BF06"",""WM11"",""AF02""]","[10,3,7,5]","[8,2,6,4]","","",""
"show-reward","50","264976","0.0-50.0","p400231","A1PHDT66U6IK4Q","3FVBZG9CLKK1M1GPZWGJX51HFG80HB","37ZHEEHM6YS3XO74VCHRXA5JN0P37P","emotion","mismatch","uniform","","","","","","","","267528.8000000119","269556.60000002384","","","","","","","","","","","","7","","stimuli/stars_7.png","56","","","","","stimuli/WM11_SC.jpg","",""
"explore-choice","51","268633","0.0-51.0","p400231","A1PHDT66U6IK4Q","3FVBZG9CLKK1M1GPZWGJX51HFG80HB","37ZHEEHM6YS3XO74VCHRXA5JN0P37P","emotion","mismatch","uniform","","","","","","","3155.600000023842","269558.10000002384","272713.7000000477","[""stimuli/BM03_AO.jpg"",""stimuli/BF06_FO.jpg"",""stimuli/WM11_CC.jpg"",""stimuli/AF02_SC.jpg""]","stimuli/BM03_AO.jpg","stimuli/BF06_FO.jpg","stimuli/WM11_CC.jpg","stimuli/AF02_SC.jpg","pos4","stimuli/AF02_SC.jpg","SC","AF02","3","2.5","5","6","stimuli/stars_5.png","58.5","[""AO"",""FO"",""CC"",""SC""]","[""BM03"",""BF06"",""WM11"",""AF02""]","[9,2,3,5]","[8,4,2,6]","","",""
"show-reward","52","270646","0.0-52.0","p400231","A1PHDT66U6IK4Q","3FVBZG9CLKK1M1GPZWGJX51HFG80HB","37ZHEEHM6YS3XO74VCHRXA5JN0P37P","emotion","mismatch","uniform","","","","","","","","273214.60000002384","275226.2000000477","","","","","","","","","","","","5","","stimuli/stars_5.png","58.5","","","","","stimuli/AF02_SC.jpg","",""
"explore-choice","53","275995","0.0-53.0","p400231","A1PHDT66U6IK4Q","3FVBZG9CLKK1M1GPZWGJX51HFG80HB","37ZHEEHM6YS3XO74VCHRXA5JN0P37P","emotion","mismatch","uniform","","","","","","","4847.100000023842","275227.5","280074.60000002384","[""stimuli/AF02_CC.jpg"",""stimuli/BF06_AO.jpg"",""stimuli/BM03_FO.jpg"",""stimuli/WM11_SC.jpg""]","stimuli/AF02_CC.jpg","stimuli/BF06_AO.jpg","stimuli/BM03_FO.jpg","stimuli/WM11_SC.jpg","pos2","stimuli/BF06_AO.jpg","AO","BF06","1","3","6","8","stimuli/stars_6.png","61.5","[""CC"",""AO"",""FO"",""SC""]","[""AF02"",""BF06"",""BM03"",""WM11""]","[0,6,2,7]","[2,8,4,6]","","",""
"show-reward","54","278009","0.0-54.0","p400231","A1PHDT66U6IK4Q","3FVBZG9CLKK1M1GPZWGJX51HFG80HB","37ZHEEHM6YS3XO74VCHRXA5JN0P37P","emotion","mismatch","uniform","","","","","","","","280576.3000000119","282589.5","","","","","","","","","","","","6","","stimuli/stars_6.png","61.5","","","","","stimuli/BF06_AO.jpg","",""
"explore-choice","55","280346","0.0-55.0","p400231","A1PHDT66U6IK4Q","3FVBZG9CLKK1M1GPZWGJX51HFG80HB","37ZHEEHM6YS3XO74VCHRXA5JN0P37P","emotion","mismatch","uniform","","","","","","","1835.9000000357628","282590.5","284426.40000003576","[""stimuli/AF02_CC.jpg"",""stimuli/BF06_SC.jpg"",""stimuli/BM03_FO.jpg"",""stimuli/WM11_AO.jpg""]","stimuli/AF02_CC.jpg","stimuli/BF06_SC.jpg","stimuli/BM03_FO.jpg","stimuli/WM11_AO.jpg","pos4","stimuli/WM11_AO.jpg","AO","WM11","3","5","10","8","stimuli/stars_10.png","66.5","[""CC"",""SC"",""FO"",""AO""]","[""AF02"",""BF06"",""BM03"",""WM11""]","[0,4,4,10]","[2,6,4,8]","","",""
"show-reward","56","282358","0.0-56.0","p400231","A1PHDT66U6IK4Q","3FVBZG9CLKK1M1GPZWGJX51HFG80HB","37ZHEEHM6YS3XO74VCHRXA5JN0P37P","emotion","mismatch","uniform","","","","","","","","284927.8000000119","286938.60000002384","","","","","","","","","","","","10","","stimuli/stars_10.png","66.5","","","","","stimuli/WM11_AO.jpg","",""
"explore-choice","57","285698","0.0-57.0","p400231","A1PHDT66U6IK4Q","3FVBZG9CLKK1M1GPZWGJX51HFG80HB","37ZHEEHM6YS3XO74VCHRXA5JN0P37P","emotion","mismatch","uniform","","","","","","","2827.2999999523163","286939.7000000477","289767","[""stimuli/AF02_SC.jpg"",""stimuli/WM11_FO.jpg"",""stimuli/BF06_AO.jpg"",""stimuli/BM03_CC.jpg""]","stimuli/AF02_SC.jpg","stimuli/WM11_FO.jpg","stimuli/BF06_AO.jpg","stimuli/BM03_CC.jpg","pos3","stimuli/BF06_AO.jpg","AO","BF06","2","4.5","9","8","stimuli/stars_9.png","71","[""SC"",""FO"",""AO"",""CC""]","[""AF02"",""WM11"",""BF06"",""BM03""]","[5,6,9,1]","[6,4,8,2]","","",""
"show-reward","58","287701","0.0-58.0","p400231","A1PHDT66U6IK4Q","3FVBZG9CLKK1M1GPZWGJX51HFG80HB","37ZHEEHM6YS3XO74VCHRXA5JN0P37P","emotion","mismatch","uniform","","","","","","","","290279.40000003576","292281.90000003576","","","","","","","","","","","","9","","stimuli/stars_9.png","71","","","","","stimuli/BF06_AO.jpg","",""
"explore-choice","59","295866","0.0-59.0","p400231","A1PHDT66U6IK4Q","3FVBZG9CLKK1M1GPZWGJX51HFG80HB","37ZHEEHM6YS3XO74VCHRXA5JN0P37P","emotion","mismatch","uniform","","","","","","","7663.100000023842","292283.10000002384","299946.2000000477","[""stimuli/BF06_SC.jpg"",""stimuli/AF02_CC.jpg"",""stimuli/WM11_FO.jpg"",""stimuli/BM03_AO.jpg""]","stimuli/BF06_SC.jpg","stimuli/AF02_CC.jpg","stimuli/WM11_FO.jpg","stimuli/BM03_AO.jpg","pos3","stimuli/WM11_FO.jpg","FO","WM11","2","1","2","4","stimuli/stars_2.png","72","[""SC"",""CC"",""FO"",""AO""]","[""BF06"",""AF02"",""WM11"",""BM03""]","[8,4,2,6]","[6,2,4,8]","","",""
"show-reward","60","297876","0.0-60.0","p400231","A1PHDT66U6IK4Q","3FVBZG9CLKK1M1GPZWGJX51HFG80HB","37ZHEEHM6YS3XO74VCHRXA5JN0P37P","emotion","mismatch","uniform","","","","","","","","300446.8000000119","302456.3000000119","","","","","","","","","","","","2","","stimuli/stars_2.png","72","","","","","stimuli/WM11_FO.jpg","",""
"explore-choice","61","299297","0.0-61.0","p400231","A1PHDT66U6IK4Q","3FVBZG9CLKK1M1GPZWGJX51HFG80HB","37ZHEEHM6YS3XO74VCHRXA5JN0P37P","emotion","mismatch","uniform","","","","","","","916.6999999880791","302457.2000000477","303373.90000003576","[""stimuli/BF06_AO.jpg"",""stimuli/WM11_SC.jpg"",""stimuli/AF02_FO.jpg"",""stimuli/BM03_CC.jpg""]","stimuli/BF06_AO.jpg","stimuli/WM11_SC.jpg","stimuli/AF02_FO.jpg","stimuli/BM03_CC.jpg","pos1","stimuli/BF06_AO.jpg","AO","BF06","0","5","10","8","stimuli/stars_10.png","77","[""AO"",""SC"",""FO"",""CC""]","[""BF06"",""WM11"",""AF02"",""BM03""]","[10,5,4,4]","[8,6,4,2]","","",""
"show-reward","62","301311","0.0-62.0","p400231","A1PHDT66U6IK4Q","3FVBZG9CLKK1M1GPZWGJX51HFG80HB","37ZHEEHM6YS3XO74VCHRXA5JN0P37P","emotion","mismatch","uniform","","","","","","","","303877.8000000119","305891.2000000477","","","","","","","","","","","","10","","stimuli/stars_10.png","77","","","","","stimuli/BF06_AO.jpg","",""
"explore-choice","63","302931","0.0-63.0","p400231","A1PHDT66U6IK4Q","3FVBZG9CLKK1M1GPZWGJX51HFG80HB","37ZHEEHM6YS3XO74VCHRXA5JN0P37P","emotion","mismatch","uniform","","","","","","","1108.199999988079","305892.3000000119","307000.5","[""stimuli/BF06_AO.jpg"",""stimuli/AF02_CC.jpg"",""stimuli/BM03_SC.jpg"",""stimuli/WM11_FO.jpg""]","stimuli/BF06_AO.jpg","stimuli/AF02_CC.jpg","stimuli/BM03_SC.jpg","stimuli/WM11_FO.jpg","pos1","stimuli/BF06_AO.jpg","AO","BF06","0","3.5","7","8","stimuli/stars_7.png","80.5","[""AO"",""CC"",""SC"",""FO""]","[""BF06"",""AF02"",""BM03"",""WM11""]","[7,1,8,6]","[8,2,6,4]","","",""
"show-reward","64","304948","0.0-64.0","p400231","A1PHDT66U6IK4Q","3FVBZG9CLKK1M1GPZWGJX51HFG80HB","37ZHEEHM6YS3XO74VCHRXA5JN0P37P","emotion","mismatch","uniform","","","","","","","","307512.90000003576","309528.8000000119","","","","","","","","","","","","7","","stimuli/stars_7.png","80.5","","","","","stimuli/BF06_AO.jpg","",""
"explore-choice","65","309270","0.0-65.0","p400231","A1PHDT66U6IK4Q","3FVBZG9CLKK1M1GPZWGJX51HFG80HB","37ZHEEHM6YS3XO74VCHRXA5JN0P37P","emotion","mismatch","uniform","","","","","","","3821.099999964237","309529.40000003576","313350.5","[""stimuli/BF06_CC.jpg"",""stimuli/AF02_SC.jpg"",""stimuli/WM11_FO.jpg"",""stimuli/BM03_AO.jpg""]","stimuli/BF06_CC.jpg","stimuli/AF02_SC.jpg","stimuli/WM11_FO.jpg","stimuli/BM03_AO.jpg","pos2","stimuli/AF02_SC.jpg","SC","AF02","1","4","8","6","stimuli/stars_8.png","84.5","[""CC"",""SC"",""FO"",""AO""]","[""BF06"",""AF02"",""WM11"",""BM03""]","[3,8,3,10]","[2,6,4,8]","","",""
"show-reward","66","311284","0.0-66.0","p400231","A1PHDT66U6IK4Q","3FVBZG9CLKK1M1GPZWGJX51HFG80HB","37ZHEEHM6YS3XO74VCHRXA5JN0P37P","emotion","mismatch","uniform","","","","","","","","313851.5","315864.5","","","","","","","","","","","","8","","stimuli/stars_8.png","84.5","","","","","stimuli/AF02_SC.jpg","",""
"explore-choice","67","316766","0.0-67.0","p400231","A1PHDT66U6IK4Q","3FVBZG9CLKK1M1GPZWGJX51HFG80HB","37ZHEEHM6YS3XO74VCHRXA5JN0P37P","emotion","mismatch","uniform","","","","","","","4978.099999964237","315865.40000003576","320843.5","[""stimuli/BM03_AO.jpg"",""stimuli/AF02_SC.jpg"",""stimuli/WM11_CC.jpg"",""stimuli/BF06_FO.jpg""]","stimuli/BM03_AO.jpg","stimuli/AF02_SC.jpg","stimuli/WM11_CC.jpg","stimuli/BF06_FO.jpg","pos4","stimuli/BF06_FO.jpg","FO","BF06","3","1","2","4","stimuli/stars_2.png","85.5","[""AO"",""SC"",""CC"",""FO""]","[""BM03"",""AF02"",""WM11"",""BF06""]","[9,5,3,2]","[8,6,2,4]","","",""
"show-reward","68","318775","0.0-68.0","p400231","A1PHDT66U6IK4Q","3FVBZG9CLKK1M1GPZWGJX51HFG80HB","37ZHEEHM6YS3XO74VCHRXA5JN0P37P","emotion","mismatch","uniform","","","","","","","","321348.10000002384","323355.8000000119","","","","","","","","","","","","2","","stimuli/stars_2.png","85.5","","","","","stimuli/BF06_FO.jpg","",""
"explore-choice","69","320223","0.0-69.0","p400231","A1PHDT66U6IK4Q","3FVBZG9CLKK1M1GPZWGJX51HFG80HB","37ZHEEHM6YS3XO74VCHRXA5JN0P37P","emotion","mismatch","uniform","","","","","","","940.0999999642372","323356.2000000477","324296.3000000119","[""stimuli/BF06_AO.jpg"",""stimuli/AF02_SC.jpg"",""stimuli/WM11_CC.jpg"",""stimuli/BM03_FO.jpg""]","stimuli/BF06_AO.jpg","stimuli/AF02_SC.jpg","stimuli/WM11_CC.jpg","stimuli/BM03_FO.jpg","pos1","stimuli/BF06_AO.jpg","AO","BF06","0","3","6","8","stimuli/stars_6.png","88.5","[""AO"",""SC"",""CC"",""FO""]","[""BF06"",""AF02"",""WM11"",""BM03""]","[6,5,4,3]","[8,6,2,4]","","",""
"show-reward","70","322235","0.0-70.0","p400231","A1PHDT66U6IK4Q","3FVBZG9CLKK1M1GPZWGJX51HFG80HB","37ZHEEHM6YS3XO74VCHRXA5JN0P37P","emotion","mismatch","uniform","","","","","","","","324805","326815.8000000119","","","","","","","","","","","","6","","stimuli/stars_6.png","88.5","","","","","stimuli/BF06_AO.jpg","",""
"explore-choice","71","324494","0.0-71.0","p400231","A1PHDT66U6IK4Q","3FVBZG9CLKK1M1GPZWGJX51HFG80HB","37ZHEEHM6YS3XO74VCHRXA5JN0P37P","emotion","mismatch","uniform","","","","","","","1755.6000000238419","326816.5","328572.10000002384","[""stimuli/WM11_SC.jpg"",""stimuli/AF02_FO.jpg"",""stimuli/BF06_CC.jpg"",""stimuli/BM03_AO.jpg""]","stimuli/WM11_SC.jpg","stimuli/AF02_FO.jpg","stimuli/BF06_CC.jpg","stimuli/BM03_AO.jpg","pos2","stimuli/AF02_FO.jpg","FO","AF02","1","2.5","5","4","stimuli/stars_5.png","91","[""SC"",""FO"",""CC"",""AO""]","[""WM11"",""AF02"",""BF06"",""BM03""]","[7,5,3,10]","[6,4,2,8]","","",""
"show-reward","72","326499","0.0-72.0","p400231","A1PHDT66U6IK4Q","3FVBZG9CLKK1M1GPZWGJX51HFG80HB","37ZHEEHM6YS3XO74VCHRXA5JN0P37P","emotion","mismatch","uniform","","","","","","","","329074.8000000119","331079.2000000477","","","","","","","","","","","","5","","stimuli/stars_5.png","91","","","","","stimuli/AF02_FO.jpg","",""
"explore-choice","73","328085","0.0-73.0","p400231","A1PHDT66U6IK4Q","3FVBZG9CLKK1M1GPZWGJX51HFG80HB","37ZHEEHM6YS3XO74VCHRXA5JN0P37P","emotion","mismatch","uniform","","","","","","","1084.800000011921","331079.8000000119","332164.60000002384","[""stimuli/AF02_AO.jpg"",""stimuli/BM03_CC.jpg"",""stimuli/WM11_SC.jpg"",""stimuli/BF06_FO.jpg""]","stimuli/AF02_AO.jpg","stimuli/BM03_CC.jpg","stimuli/WM11_SC.jpg","stimuli/BF06_FO.jpg","pos1","stimuli/AF02_AO.jpg","AO","AF02","0","3","6","8","stimuli/stars_6.png","94","[""AO"",""CC"",""SC"",""FO""]","[""AF02"",""BM03"",""WM11"",""BF06""]","[6,3,5,4]","[8,2,6,4]","","",""
"show-reward","74","330099","0.0-74.0","p400231","A1PHDT66U6IK4Q","3FVBZG9CLKK1M1GPZWGJX51HFG80HB","37ZHEEHM6YS3XO74VCHRXA5JN0P37P","emotion","mismatch","uniform","","","","","","","","332666.40000003576","334679.8000000119","","","","","","","","","","","","6","","stimuli/stars_6.png","94","","","","","stimuli/AF02_AO.jpg","",""
"explore-choice","75","333335","0.0-75.0","p400231","A1PHDT66U6IK4Q","3FVBZG9CLKK1M1GPZWGJX51HFG80HB","37ZHEEHM6YS3XO74VCHRXA5JN0P37P","emotion","mismatch","uniform","","","","","","","2722.100000023842","334680.5","337402.60000002384","[""stimuli/BF06_CC.jpg"",""stimuli/AF02_AO.jpg"",""stimuli/WM11_FO.jpg"",""stimuli/BM03_SC.jpg""]","stimuli/BF06_CC.jpg","stimuli/AF02_AO.jpg","stimuli/WM11_FO.jpg","stimuli/BM03_SC.jpg","pos4","stimuli/BM03_SC.jpg","SC","BM03","3","3.5","7","6","stimuli/stars_7.png","97.5","[""CC"",""AO"",""FO"",""SC""]","[""BF06"",""AF02"",""WM11"",""BM03""]","[2,6,2,7]","[2,8,4,6]","","",""
"show-reward","76","335344","0.0-76.0","p400231","A1PHDT66U6IK4Q","3FVBZG9CLKK1M1GPZWGJX51HFG80HB","37ZHEEHM6YS3XO74VCHRXA5JN0P37P","emotion","mismatch","uniform","","","","","","","","337915.90000003576","339924.40000003576","","","","","","","","","","","","7","","stimuli/stars_7.png","97.5","","","","","stimuli/BM03_SC.jpg","",""
"explore-choice","77","338813","0.0-77.0","p400231","A1PHDT66U6IK4Q","3FVBZG9CLKK1M1GPZWGJX51HFG80HB","37ZHEEHM6YS3XO74VCHRXA5JN0P37P","emotion","mismatch","uniform","","","","","","","2956.800000011921","339925.40000003576","342882.2000000477","[""stimuli/BM03_SC.jpg"",""stimuli/WM11_CC.jpg"",""stimuli/AF02_FO.jpg"",""stimuli/BF06_AO.jpg""]","stimuli/BM03_SC.jpg","stimuli/WM11_CC.jpg","stimuli/AF02_FO.jpg","stimuli/BF06_AO.jpg","pos1","stimuli/BM03_SC.jpg","SC","BM03","0","3","6","6","stimuli/stars_6.png","100.5","[""SC"",""CC"",""FO"",""AO""]","[""BM03"",""WM11"",""AF02"",""BF06""]","[6,0,3,8]","[6,2,4,8]","","",""
"show-reward","78","340833","0.0-78.0","p400231","A1PHDT66U6IK4Q","3FVBZG9CLKK1M1GPZWGJX51HFG80HB","37ZHEEHM6YS3XO74VCHRXA5JN0P37P","emotion","mismatch","uniform","","","","","","","","343394.7000000477","345413.90000003576","","","","","","","","","","","","6","","stimuli/stars_6.png","100.5","","","","","stimuli/BM03_SC.jpg","",""
"explore-choice","79","349027","0.0-79.0","p400231","A1PHDT66U6IK4Q","3FVBZG9CLKK1M1GPZWGJX51HFG80HB","37ZHEEHM6YS3XO74VCHRXA5JN0P37P","emotion","mismatch","uniform","","","","","","","7691.699999988079","345414.8000000119","353106.5","[""stimuli/AF02_CC.jpg"",""stimuli/BF06_FO.jpg"",""stimuli/BM03_SC.jpg"",""stimuli/WM11_AO.jpg""]","stimuli/AF02_CC.jpg","stimuli/BF06_FO.jpg","stimuli/BM03_SC.jpg","stimuli/WM11_AO.jpg","pos4","stimuli/WM11_AO.jpg","AO","WM11","3","3.5","7","8","stimuli/stars_7.png","104","[""CC"",""FO"",""SC"",""AO""]","[""AF02"",""BF06"",""BM03"",""WM11""]","[0,2,8,7]","[2,4,6,8]","","",""
"show-reward","80","351033","0.0-80.0","p400231","A1PHDT66U6IK4Q","3FVBZG9CLKK1M1GPZWGJX51HFG80HB","37ZHEEHM6YS3XO74VCHRXA5JN0P37P","emotion","mismatch","uniform","","","","","","","","353607.90000003576","355613.10000002384","","","","","","","","","","","","7","","stimuli/stars_7.png","104","","","","","stimuli/WM11_AO.jpg","",""
"explore-choice","81","356291","0.0-81.0","p400231","A1PHDT66U6IK4Q","3FVBZG9CLKK1M1GPZWGJX51HFG80HB","37ZHEEHM6YS3XO74VCHRXA5JN0P37P","emotion","mismatch","uniform","","","","","","","4757.5","355614.2000000477","360371.7000000477","[""stimuli/BF06_FO.jpg"",""stimuli/WM11_CC.jpg"",""stimuli/BM03_SC.jpg"",""stimuli/AF02_AO.jpg""]","stimuli/BF06_FO.jpg","stimuli/WM11_CC.jpg","stimuli/BM03_SC.jpg","stimuli/AF02_AO.jpg","pos4","stimuli/AF02_AO.jpg","AO","AF02","3","5","10","8","stimuli/stars_10.png","109","[""FO"",""CC"",""SC"",""AO""]","[""BF06"",""WM11"",""BM03"",""AF02""]","[6,2,7,10]","[4,2,6,8]","","",""
"show-reward","82","358299","0.0-82.0","p400231","A1PHDT66U6IK4Q","3FVBZG9CLKK1M1GPZWGJX51HFG80HB","37ZHEEHM6YS3XO74VCHRXA5JN0P37P","emotion","mismatch","uniform","","","","","","","","360872.7000000477","362879.60000002384","","","","","","","","","","","","10","","stimuli/stars_10.png","109","","","","","stimuli/AF02_AO.jpg","",""
"explore-choice","83","363707","0.0-83.0","p400231","A1PHDT66U6IK4Q","3FVBZG9CLKK1M1GPZWGJX51HFG80HB","37ZHEEHM6YS3XO74VCHRXA5JN0P37P","emotion","mismatch","uniform","","","","","","","4906.200000047684","362880.5","367786.7000000477","[""stimuli/WM11_CC.jpg"",""stimuli/AF02_FO.jpg"",""stimuli/BF06_SC.jpg"",""stimuli/BM03_AO.jpg""]","stimuli/WM11_CC.jpg","stimuli/AF02_FO.jpg","stimuli/BF06_SC.jpg","stimuli/BM03_AO.jpg","pos2","stimuli/AF02_FO.jpg","FO","AF02","1","2","4","4","stimuli/stars_4.png","111","[""CC"",""FO"",""SC"",""AO""]","[""WM11"",""AF02"",""BF06"",""BM03""]","[1,4,5,7]","[2,4,6,8]","","",""
"show-reward","84","365717","0.0-84.0","p400231","A1PHDT66U6IK4Q","3FVBZG9CLKK1M1GPZWGJX51HFG80HB","37ZHEEHM6YS3XO74VCHRXA5JN0P37P","emotion","mismatch","uniform","","","","","","","","368287.90000003576","370297.40000003576","","","","","","","","","","","","4","","stimuli/stars_4.png","111","","","","","stimuli/AF02_FO.jpg","",""
"explore-choice","85","370040","0.0-85.0","p400231","A1PHDT66U6IK4Q","3FVBZG9CLKK1M1GPZWGJX51HFG80HB","37ZHEEHM6YS3XO74VCHRXA5JN0P37P","emotion","mismatch","uniform","","","","","","","3821.399999976158","370298.2000000477","374119.60000002384","[""stimuli/WM11_SC.jpg"",""stimuli/BM03_FO.jpg"",""stimuli/AF02_CC.jpg"",""stimuli/BF06_AO.jpg""]","stimuli/WM11_SC.jpg","stimuli/BM03_FO.jpg","stimuli/AF02_CC.jpg","stimuli/BF06_AO.jpg","pos4","stimuli/BF06_AO.jpg","AO","BF06","3","3","6","8","stimuli/stars_6.png","114","[""SC"",""FO"",""CC"",""AO""]","[""WM11"",""BM03"",""AF02"",""BF06""]","[7,2,0,6]","[6,4,2,8]","","",""
"show-reward","86","372057","0.0-86.0","p400231","A1PHDT66U6IK4Q","3FVBZG9CLKK1M1GPZWGJX51HFG80HB","37ZHEEHM6YS3XO74VCHRXA5JN0P37P","emotion","mismatch","uniform","","","","","","","","374621.2000000477","376637.2000000477","","","","","","","","","","","","6","","stimuli/stars_6.png","114","","","","","stimuli/BF06_AO.jpg","",""
"explore-choice","87","374566","0.0-87.0","p400231","A1PHDT66U6IK4Q","3FVBZG9CLKK1M1GPZWGJX51HFG80HB","37ZHEEHM6YS3XO74VCHRXA5JN0P37P","emotion","mismatch","uniform","","","","","","","1996.6000000238419","376639.3000000119","378635.90000003576","[""stimuli/BM03_AO.jpg"",""stimuli/WM11_SC.jpg"",""stimuli/BF06_FO.jpg"",""stimuli/AF02_CC.jpg""]","stimuli/BM03_AO.jpg","stimuli/WM11_SC.jpg","stimuli/BF06_FO.jpg","stimuli/AF02_CC.jpg","pos3","stimuli/BF06_FO.jpg","FO","BF06","2","2","4","4","stimuli/stars_4.png","116","[""AO"",""SC"",""FO"",""CC""]","[""BM03"",""WM11"",""BF06"",""AF02""]","[9,7,4,0]","[8,6,4,2]","","",""
"show-reward","88","376574","0.0-88.0","p400231","A1PHDT66U6IK4Q","3FVBZG9CLKK1M1GPZWGJX51HFG80HB","37ZHEEHM6YS3XO74VCHRXA5JN0P37P","emotion","mismatch","uniform","","","","","","","","379147.3000000119","381154.60000002384","","","","","","","","","","","","4","","stimuli/stars_4.png","116","","","","","stimuli/BF06_FO.jpg","",""
"explore-choice","89","378511","0.0-89.0","p400231","A1PHDT66U6IK4Q","3FVBZG9CLKK1M1GPZWGJX51HFG80HB","37ZHEEHM6YS3XO74VCHRXA5JN0P37P","emotion","mismatch","uniform","","","","","","","1435.699999988079","381155.40000003576","382591.10000002384","[""stimuli/WM11_AO.jpg"",""stimuli/BF06_CC.jpg"",""stimuli/AF02_SC.jpg"",""stimuli/BM03_FO.jpg""]","stimuli/WM11_AO.jpg","stimuli/BF06_CC.jpg","stimuli/AF02_SC.jpg","stimuli/BM03_FO.jpg","pos1","stimuli/WM11_AO.jpg","AO","WM11","0","3","6","8","stimuli/stars_6.png","119","[""AO"",""CC"",""SC"",""FO""]","[""WM11"",""BF06"",""AF02"",""BM03""]","[6,2,5,4]","[8,2,6,4]","","",""
"show-reward","90","380522","0.0-90.0","p400231","A1PHDT66U6IK4Q","3FVBZG9CLKK1M1GPZWGJX51HFG80HB","37ZHEEHM6YS3XO74VCHRXA5JN0P37P","emotion","mismatch","uniform","","","","","","","","383093.40000003576","385102.7000000477","","","","","","","","","","","","6","","stimuli/stars_6.png","119","","","","","stimuli/WM11_AO.jpg","",""
"explore-choice","91","383537","0.0-91.0","p400231","A1PHDT66U6IK4Q","3FVBZG9CLKK1M1GPZWGJX51HFG80HB","37ZHEEHM6YS3XO74VCHRXA5JN0P37P","emotion","mismatch","uniform","","","","","","","2513","385103.8000000119","387616.8000000119","[""stimuli/WM11_AO.jpg"",""stimuli/AF02_SC.jpg"",""stimuli/BF06_FO.jpg"",""stimuli/BM03_CC.jpg""]","stimuli/WM11_AO.jpg","stimuli/AF02_SC.jpg","stimuli/BF06_FO.jpg","stimuli/BM03_CC.jpg","pos3","stimuli/BF06_FO.jpg","FO","BF06","2","1.5","3","4","stimuli/stars_3.png","120.5","[""AO"",""SC"",""FO"",""CC""]","[""WM11"",""AF02"",""BF06"",""BM03""]","[8,4,3,2]","[8,6,4,2]","","",""
"show-reward","92","385538","0.0-92.0","p400231","A1PHDT66U6IK4Q","3FVBZG9CLKK1M1GPZWGJX51HFG80HB","37ZHEEHM6YS3XO74VCHRXA5JN0P37P","emotion","mismatch","uniform","","","","","","","","388118.10000002384","390119.10000002384","","","","","","","","","","","","3","","stimuli/stars_3.png","120.5","","","","","stimuli/BF06_FO.jpg","",""
"explore-choice","93","391076","0.0-93.0","p400231","A1PHDT66U6IK4Q","3FVBZG9CLKK1M1GPZWGJX51HFG80HB","37ZHEEHM6YS3XO74VCHRXA5JN0P37P","emotion","mismatch","uniform","","","","","","","5020.800000011921","390119.60000002384","395140.40000003576","[""stimuli/AF02_AO.jpg"",""stimuli/BM03_CC.jpg"",""stimuli/BF06_SC.jpg"",""stimuli/WM11_FO.jpg""]","stimuli/AF02_AO.jpg","stimuli/BM03_CC.jpg","stimuli/BF06_SC.jpg","stimuli/WM11_FO.jpg","pos1","stimuli/AF02_AO.jpg","AO","AF02","0","3","6","8","stimuli/stars_6.png","123.5","[""AO"",""CC"",""SC"",""FO""]","[""AF02"",""BM03"",""BF06"",""WM11""]","[6,1,8,4]","[8,2,6,4]","","",""
"show-reward","94","393080","0.0-94.0","p400231","A1PHDT66U6IK4Q","3FVBZG9CLKK1M1GPZWGJX51HFG80HB","37ZHEEHM6YS3XO74VCHRXA5JN0P37P","emotion","mismatch","uniform","","","","","","","","395659","397660.90000003576","","","","","","","","","","","","6","","stimuli/stars_6.png","123.5","","","","","stimuli/AF02_AO.jpg","",""
"explore-choice","95","394946","0.0-95.0","p400231","A1PHDT66U6IK4Q","3FVBZG9CLKK1M1GPZWGJX51HFG80HB","37ZHEEHM6YS3XO74VCHRXA5JN0P37P","emotion","mismatch","uniform","","","","","","","1354.1000000238419","397661.60000002384","399015.7000000477","[""stimuli/BM03_SC.jpg"",""stimuli/BF06_CC.jpg"",""stimuli/AF02_FO.jpg"",""stimuli/WM11_AO.jpg""]","stimuli/BM03_SC.jpg","stimuli/BF06_CC.jpg","stimuli/AF02_FO.jpg","stimuli/WM11_AO.jpg","pos3","stimuli/AF02_FO.jpg","FO","AF02","2","3","6","4","stimuli/stars_6.png","126.5","[""SC"",""CC"",""FO"",""AO""]","[""BM03"",""BF06"",""AF02"",""WM11""]","[4,0,6,10]","[6,2,4,8]","","",""
"show-reward","96","396948","0.0-96.0","p400231","A1PHDT66U6IK4Q","3FVBZG9CLKK1M1GPZWGJX51HFG80HB","37ZHEEHM6YS3XO74VCHRXA5JN0P37P","emotion","mismatch","uniform","","","","","","","","399527.7000000477","401529.5","","","","","","","","","","","","6","","stimuli/stars_6.png","126.5","","","","","stimuli/AF02_FO.jpg","",""
"explore-choice","97","399767","0.0-97.0","p400231","A1PHDT66U6IK4Q","3FVBZG9CLKK1M1GPZWGJX51HFG80HB","37ZHEEHM6YS3XO74VCHRXA5JN0P37P","emotion","mismatch","uniform","","","","","","","2308.199999988079","401530.40000003576","403838.60000002384","[""stimuli/BM03_FO.jpg"",""stimuli/BF06_CC.jpg"",""stimuli/AF02_AO.jpg"",""stimuli/WM11_SC.jpg""]","stimuli/BM03_FO.jpg","stimuli/BF06_CC.jpg","stimuli/AF02_AO.jpg","stimuli/WM11_SC.jpg","pos1","stimuli/BM03_FO.jpg","FO","BM03","0","2.5","5","4","stimuli/stars_5.png","129","[""FO"",""CC"",""AO"",""SC""]","[""BM03"",""BF06"",""AF02"",""WM11""]","[5,2,6,5]","[4,2,8,6]","","",""
"show-reward","98","401783","0.0-98.0","p400231","A1PHDT66U6IK4Q","3FVBZG9CLKK1M1GPZWGJX51HFG80HB","37ZHEEHM6YS3XO74VCHRXA5JN0P37P","emotion","mismatch","uniform","","","","","","","","404349.2000000477","406364.3000000119","","","","","","","","","","","","5","","stimuli/stars_5.png","129","","","","","stimuli/BM03_FO.jpg","",""
"explore-choice","99","404183","0.0-99.0","p400231","A1PHDT66U6IK4Q","3FVBZG9CLKK1M1GPZWGJX51HFG80HB","37ZHEEHM6YS3XO74VCHRXA5JN0P37P","emotion","mismatch","uniform","","","","","","","1897.800000011921","406365","408262.8000000119","[""stimuli/BM03_CC.jpg"",""stimuli/WM11_AO.jpg"",""stimuli/BF06_SC.jpg"",""stimuli/AF02_FO.jpg""]","stimuli/BM03_CC.jpg","stimuli/WM11_AO.jpg","stimuli/BF06_SC.jpg","stimuli/AF02_FO.jpg","pos4","stimuli/AF02_FO.jpg","FO","AF02","3","2.5","5","4","stimuli/stars_5.png","131.5","[""CC"",""AO"",""SC"",""FO""]","[""BM03"",""WM11"",""BF06"",""AF02""]","[0,6,4,5]","[2,8,6,4]","","",""
"show-reward","100","406205","0.0-100.0","p400231","A1PHDT66U6IK4Q","3FVBZG9CLKK1M1GPZWGJX51HFG80HB","37ZHEEHM6YS3XO74VCHRXA5JN0P37P","emotion","mismatch","uniform","","","","","","","","408764.90000003576","410785.90000003576","","","","","","","","","","","","5","","stimuli/stars_5.png","131.5","","","","","stimuli/AF02_FO.jpg","",""
"explore-choice","101","408222","0.0-101.0","p400231","A1PHDT66U6IK4Q","3FVBZG9CLKK1M1GPZWGJX51HFG80HB","37ZHEEHM6YS3XO74VCHRXA5JN0P37P","emotion","mismatch","uniform","","","","","","","1515.5","410786.90000003576","412302.40000003576","[""stimuli/BM03_FO.jpg"",""stimuli/AF02_AO.jpg"",""stimuli/BF06_SC.jpg"",""stimuli/WM11_CC.jpg""]","stimuli/BM03_FO.jpg","stimuli/AF02_AO.jpg","stimuli/BF06_SC.jpg","stimuli/WM11_CC.jpg","pos2","stimuli/AF02_AO.jpg","AO","AF02","1","4.5","9","8","stimuli/stars_9.png","136","[""FO"",""AO"",""SC"",""CC""]","[""BM03"",""AF02"",""BF06"",""WM11""]","[5,9,8,4]","[4,8,6,2]","","",""
"show-reward","102","410239","0.0-102.0","p400231","A1PHDT66U6IK4Q","3FVBZG9CLKK1M1GPZWGJX51HFG80HB","37ZHEEHM6YS3XO74VCHRXA5JN0P37P","emotion","mismatch","uniform","","","","","","","","412804.40000003576","414819.8000000119","","","","","","","","","","","","9","","stimuli/stars_9.png","136","","","","","stimuli/AF02_AO.jpg","",""
"explore-choice","103","414782","0.0-103.0","p400231","A1PHDT66U6IK4Q","3FVBZG9CLKK1M1GPZWGJX51HFG80HB","37ZHEEHM6YS3XO74VCHRXA5JN0P37P","emotion","mismatch","uniform","","","","","","","4033","414820.90000003576","418853.90000003576","[""stimuli/BF04_SUR.jpg"",""stimuli/WF11_HO.jpg"",""stimuli/AM06_DO.jpg"",""stimuli/AF11_HE.jpg""]","stimuli/BF04_SUR.jpg","stimuli/WF11_HO.jpg","stimuli/AM06_DO.jpg","stimuli/AF11_HE.jpg","pos3","stimuli/AM06_DO.jpg","DO","AM06","2","1","2","2","stimuli/stars_2.png","137","[""SUR"",""HO"",""DO"",""HE""]","[""BF04"",""WF11"",""AM06"",""AF11""]","[8,7,2,2]","[6,8,2,4]","","",""
"show-reward","104","416799","0.0-104.0","p400231","A1PHDT66U6IK4Q","3FVBZG9CLKK1M1GPZWGJX51HFG80HB","37ZHEEHM6YS3XO74VCHRXA5JN0P37P","emotion","mismatch","uniform","","","","","","","","419364.3000000119","421379.8000000119","","","","","","","","","","","","2","","stimuli/stars_2.png","137","","","","","stimuli/AM06_DO.jpg","",""
"explore-choice","105","420269","0.0-105.0","p400231","A1PHDT66U6IK4Q","3FVBZG9CLKK1M1GPZWGJX51HFG80HB","37ZHEEHM6YS3XO74VCHRXA5JN0P37P","emotion","mismatch","uniform","","","","","","","2968.199999988079","421381.3000000119","424349.5","[""stimuli/AF11_HO.jpg"",""stimuli/BF04_HE.jpg"",""stimuli/AM06_SUR.jpg"",""stimuli/WF11_DO.jpg""]","stimuli/AF11_HO.jpg","stimuli/BF04_HE.jpg","stimuli/AM06_SUR.jpg","stimuli/WF11_DO.jpg","pos4","stimuli/WF11_DO.jpg","DO","WF11","3","4","8","8","stimuli/stars_8.png","141","[""HO"",""HE"",""SUR"",""DO""]","[""AF11"",""BF04"",""AM06"",""WF11""]","[5,4,2,8]","[4,6,2,8]","","",""
"show-reward","106","422280","0.0-106.0","p400231","A1PHDT66U6IK4Q","3FVBZG9CLKK1M1GPZWGJX51HFG80HB","37ZHEEHM6YS3XO74VCHRXA5JN0P37P","emotion","mismatch","uniform","","","","","","","","424850.60000002384","426861.10000002384","","","","","","","","","","","","8","","stimuli/stars_8.png","141","","","","","stimuli/WF11_DO.jpg","",""
"explore-choice","107","425688","0.0-107.0","p400231","A1PHDT66U6IK4Q","3FVBZG9CLKK1M1GPZWGJX51HFG80HB","37ZHEEHM6YS3XO74VCHRXA5JN0P37P","emotion","mismatch","uniform","","","","","","","2905.400000035763","426862.8000000119","429768.2000000477","[""stimuli/AM06_HO.jpg"",""stimuli/BF04_SUR.jpg"",""stimuli/AF11_DO.jpg"",""stimuli/WF11_HE.jpg""]","stimuli/AM06_HO.jpg","stimuli/BF04_SUR.jpg","stimuli/AF11_DO.jpg","stimuli/WF11_HE.jpg","pos3","stimuli/AF11_DO.jpg","DO","AF11","2","2.5","5","4","stimuli/stars_5.png","143.5","[""HO"",""SUR"",""DO"",""HE""]","[""AM06"",""BF04"",""AF11"",""WF11""]","[2,4,5,8]","[2,6,4,8]","","",""
"show-reward","108","427698","0.0-108.0","p400231","A1PHDT66U6IK4Q","3FVBZG9CLKK1M1GPZWGJX51HFG80HB","37ZHEEHM6YS3XO74VCHRXA5JN0P37P","emotion","mismatch","uniform","","","","","","","","430270.2000000477","432278.7000000477","","","","","","","","","","","","5","","stimuli/stars_5.png","143.5","","","","","stimuli/AF11_DO.jpg","",""
"explore-choice","109","430235","0.0-109.0","p400231","A1PHDT66U6IK4Q","3FVBZG9CLKK1M1GPZWGJX51HFG80HB","37ZHEEHM6YS3XO74VCHRXA5JN0P37P","emotion","mismatch","uniform","","","","","","","2035.800000011921","432279.8000000119","434315.60000002384","[""stimuli/WF11_SUR.jpg"",""stimuli/BF04_DO.jpg"",""stimuli/AM06_HE.jpg"",""stimuli/AF11_HO.jpg""]","stimuli/WF11_SUR.jpg","stimuli/BF04_DO.jpg","stimuli/AM06_HE.jpg","stimuli/AF11_HO.jpg","pos2","stimuli/BF04_DO.jpg","DO","BF04","1","3","6","6","stimuli/stars_6.png","146.5","[""SUR"",""DO"",""HE"",""HO""]","[""WF11"",""BF04"",""AM06"",""AF11""]","[6,6,2,6]","[8,6,2,4]","","",""
"show-reward","110","432242","0.0-110.0","p400231","A1PHDT66U6IK4Q","3FVBZG9CLKK1M1GPZWGJX51HFG80HB","37ZHEEHM6YS3XO74VCHRXA5JN0P37P","emotion","mismatch","uniform","","","","","","","","434817.60000002384","436822.7000000477","","","","","","","","","","","","6","","stimuli/stars_6.png","146.5","","","","","stimuli/BF04_DO.jpg","",""
"explore-choice","111","436608","0.0-111.0","p400231","A1PHDT66U6IK4Q","3FVBZG9CLKK1M1GPZWGJX51HFG80HB","37ZHEEHM6YS3XO74VCHRXA5JN0P37P","emotion","mismatch","uniform","","","","","","","3856.300000011921","436823.8000000119","440680.10000002384","[""stimuli/BF04_HO.jpg"",""stimuli/AF11_SUR.jpg"",""stimuli/WF11_HE.jpg"",""stimuli/AM06_DO.jpg""]","stimuli/BF04_HO.jpg","stimuli/AF11_SUR.jpg","stimuli/WF11_HE.jpg","stimuli/AM06_DO.jpg","pos2","stimuli/AF11_SUR.jpg","SUR","AF11","1","3","6","4","stimuli/stars_6.png","149.5","[""HO"",""SUR"",""HE"",""DO""]","[""BF04"",""AF11"",""WF11"",""AM06""]","[8,6,6,0]","[6,4,8,2]","","",""
"show-reward","112","438621","0.0-112.0","p400231","A1PHDT66U6IK4Q","3FVBZG9CLKK1M1GPZWGJX51HFG80HB","37ZHEEHM6YS3XO74VCHRXA5JN0P37P","emotion","mismatch","uniform","","","","","","","","441189.7000000477","443202.2000000477","","","","","","","","","","","","6","","stimuli/stars_6.png","149.5","","","","","stimuli/AF11_SUR.jpg","",""
"explore-choice","113","442974","0.0-113.0","p400231","A1PHDT66U6IK4Q","3FVBZG9CLKK1M1GPZWGJX51HFG80HB","37ZHEEHM6YS3XO74VCHRXA5JN0P37P","emotion","mismatch","uniform","","","","","","","3851","443203.5","447054.5","[""stimuli/BF04_HO.jpg"",""stimuli/AM06_HE.jpg"",""stimuli/WF11_SUR.jpg"",""stimuli/AF11_DO.jpg""]","stimuli/BF04_HO.jpg","stimuli/AM06_HE.jpg","stimuli/WF11_SUR.jpg","stimuli/AF11_DO.jpg","pos4","stimuli/AF11_DO.jpg","DO","AF11","3","2.5","5","4","stimuli/stars_5.png","152","[""HO"",""HE"",""SUR"",""DO""]","[""BF04"",""AM06"",""WF11"",""AF11""]","[5,2,6,5]","[6,2,8,4]","","",""
"show-reward","114","444991","0.0-114.0","p400231","A1PHDT66U6IK4Q","3FVBZG9CLKK1M1GPZWGJX51HFG80HB","37ZHEEHM6YS3XO74VCHRXA5JN0P37P","emotion","mismatch","uniform","","","","","","","","447555.8000000119","449571.8000000119","","","","","","","","","","","","5","","stimuli/stars_5.png","152","","","","","stimuli/AF11_DO.jpg","",""
"explore-choice","115","448324","0.0-115.0","p400231","A1PHDT66U6IK4Q","3FVBZG9CLKK1M1GPZWGJX51HFG80HB","37ZHEEHM6YS3XO74VCHRXA5JN0P37P","emotion","mismatch","uniform","","","","","","","2830.100000023842","449572.5","452402.60000002384","[""stimuli/BF04_HO.jpg"",""stimuli/WF11_HE.jpg"",""stimuli/AF11_DO.jpg"",""stimuli/AM06_SUR.jpg""]","stimuli/BF04_HO.jpg","stimuli/WF11_HE.jpg","stimuli/AF11_DO.jpg","stimuli/AM06_SUR.jpg","pos3","stimuli/AF11_DO.jpg","DO","AF11","2","1.5","3","4","stimuli/stars_3.png","153.5","[""HO"",""HE"",""DO"",""SUR""]","[""BF04"",""WF11"",""AF11"",""AM06""]","[5,9,3,3]","[6,8,4,2]","","",""
"show-reward","116","450336","0.0-116.0","p400231","A1PHDT66U6IK4Q","3FVBZG9CLKK1M1GPZWGJX51HFG80HB","37ZHEEHM6YS3XO74VCHRXA5JN0P37P","emotion","mismatch","uniform","","","","","","","","452905.40000003576","454916.90000003576","","","","","","","","","","","","3","","stimuli/stars_3.png","153.5","","","","","stimuli/AF11_DO.jpg","",""
"explore-choice","117","451879","0.0-117.0","p400231","A1PHDT66U6IK4Q","3FVBZG9CLKK1M1GPZWGJX51HFG80HB","37ZHEEHM6YS3XO74VCHRXA5JN0P37P","emotion","mismatch","uniform","","","","","","","1038.6000000238419","454917.8000000119","455956.40000003576","[""stimuli/WF11_HO.jpg"",""stimuli/BF04_DO.jpg"",""stimuli/AM06_SUR.jpg"",""stimuli/AF11_HE.jpg""]","stimuli/WF11_HO.jpg","stimuli/BF04_DO.jpg","stimuli/AM06_SUR.jpg","stimuli/AF11_HE.jpg","pos3","stimuli/AM06_SUR.jpg","SUR","AM06","2","0.5","1","2","stimuli/stars_1.png","154","[""HO"",""DO"",""SUR"",""HE""]","[""WF11"",""BF04"",""AM06"",""AF11""]","[8,6,1,2]","[8,6,2,4]","","",""
"show-reward","118","453893","0.0-118.0","p400231","A1PHDT66U6IK4Q","3FVBZG9CLKK1M1GPZWGJX51HFG80HB","37ZHEEHM6YS3XO74VCHRXA5JN0P37P","emotion","mismatch","uniform","","","","","","","","456460.90000003576","458474.3000000119","","","","","","","","","","","","1","","stimuli/stars_1.png","154","","","","","stimuli/AM06_SUR.jpg","",""
"explore-choice","119","459650","0.0-119.0","p400231","A1PHDT66U6IK4Q","3FVBZG9CLKK1M1GPZWGJX51HFG80HB","37ZHEEHM6YS3XO74VCHRXA5JN0P37P","emotion","mismatch","uniform","","","","","","","5254.900000035763","458475","463729.90000003576","[""stimuli/BF04_HE.jpg"",""stimuli/AF11_HO.jpg"",""stimuli/WF11_SUR.jpg"",""stimuli/AM06_DO.jpg""]","stimuli/BF04_HE.jpg","stimuli/AF11_HO.jpg","stimuli/WF11_SUR.jpg","stimuli/AM06_DO.jpg","pos3","stimuli/WF11_SUR.jpg","SUR","WF11","2","3","6","8","stimuli/stars_6.png","157","[""HE"",""HO"",""SUR"",""DO""]","[""BF04"",""AF11"",""WF11"",""AM06""]","[6,3,6,1]","[6,4,8,2]","","",""
"show-reward","120","461657","0.0-120.0","p400231","A1PHDT66U6IK4Q","3FVBZG9CLKK1M1GPZWGJX51HFG80HB","37ZHEEHM6YS3XO74VCHRXA5JN0P37P","emotion","mismatch","uniform","","","","","","","","464231.40000003576","466238","","","","","","","","","","","","6","","stimuli/stars_6.png","157","","","","","stimuli/WF11_SUR.jpg","",""
"explore-choice","121","465350","0.0-121.0","p400231","A1PHDT66U6IK4Q","3FVBZG9CLKK1M1GPZWGJX51HFG80HB","37ZHEEHM6YS3XO74VCHRXA5JN0P37P","emotion","mismatch","uniform","","","","","","","3190.899999976158","466238.90000003576","469429.8000000119","[""stimuli/AF11_SUR.jpg"",""stimuli/BF04_DO.jpg"",""stimuli/AM06_HE.jpg"",""stimuli/WF11_HO.jpg""]","stimuli/AF11_SUR.jpg","stimuli/BF04_DO.jpg","stimuli/AM06_HE.jpg","stimuli/WF11_HO.jpg","pos2","stimuli/BF04_DO.jpg","DO","BF04","1","3","6","6","stimuli/stars_6.png","160","[""SUR"",""DO"",""HE"",""HO""]","[""AF11"",""BF04"",""AM06"",""WF11""]","[6,6,2,6]","[4,6,2,8]","","",""
"show-reward","122","467354","0.0-122.0","p400231","A1PHDT66U6IK4Q","3FVBZG9CLKK1M1GPZWGJX51HFG80HB","37ZHEEHM6YS3XO74VCHRXA5JN0P37P","emotion","mismatch","uniform","","","","","","","","469931.7000000477","471934.8000000119","","","","","","","","","","","","6","","stimuli/stars_6.png","160","","","","","stimuli/BF04_DO.jpg","",""
"explore-choice","123","472885","0.0-123.0","p400231","A1PHDT66U6IK4Q","3FVBZG9CLKK1M1GPZWGJX51HFG80HB","37ZHEEHM6YS3XO74VCHRXA5JN0P37P","emotion","mismatch","uniform","","","","","","","5019","471935.40000003576","476954.40000003576","[""stimuli/AM06_HO.jpg"",""stimuli/WF11_DO.jpg"",""stimuli/AF11_SUR.jpg"",""stimuli/BF04_HE.jpg""]","stimuli/AM06_HO.jpg","stimuli/WF11_DO.jpg","stimuli/AF11_SUR.jpg","stimuli/BF04_HE.jpg","pos2","stimuli/WF11_DO.jpg","DO","WF11","1","5","10","8","stimuli/stars_10.png","165","[""HO"",""DO"",""SUR"",""HE""]","[""AM06"",""WF11"",""AF11"",""BF04""]","[1,10,3,7]","[2,8,4,6]","","",""
"show-reward","124","474893","0.0-124.0","p400231","A1PHDT66U6IK4Q","3FVBZG9CLKK1M1GPZWGJX51HFG80HB","37ZHEEHM6YS3XO74VCHRXA5JN0P37P","emotion","mismatch","uniform","","","","","","","","477466.8000000119","479473.3000000119","","","","","","","","","","","","10","","stimuli/stars_10.png","165","","","","","stimuli/WF11_DO.jpg","",""
"explore-choice","125","478785","0.0-125.0","p400231","A1PHDT66U6IK4Q","3FVBZG9CLKK1M1GPZWGJX51HFG80HB","37ZHEEHM6YS3XO74VCHRXA5JN0P37P","emotion","mismatch","uniform","","","","","","","3379.699999988079","479473.90000003576","482853.60000002384","[""stimuli/AF11_SUR.jpg"",""stimuli/WF11_DO.jpg"",""stimuli/BF04_HO.jpg"",""stimuli/AM06_HE.jpg""]","stimuli/AF11_SUR.jpg","stimuli/WF11_DO.jpg","stimuli/BF04_HO.jpg","stimuli/AM06_HE.jpg","pos2","stimuli/WF11_DO.jpg","DO","WF11","1","4.5","9","8","stimuli/stars_9.png","169.5","[""SUR"",""DO"",""HO"",""HE""]","[""AF11"",""WF11"",""BF04"",""AM06""]","[4,9,5,1]","[4,8,6,2]","","",""
"show-reward","126","480795","0.0-126.0","p400231","A1PHDT66U6IK4Q","3FVBZG9CLKK1M1GPZWGJX51HFG80HB","37ZHEEHM6YS3XO74VCHRXA5JN0P37P","emotion","mismatch","uniform","","","","","","","","483366.2000000477","485375.7000000477","","","","","","","","","","","","9","","stimuli/stars_9.png","169.5","","","","","stimuli/WF11_DO.jpg","",""
"explore-choice","127","485891","0.0-127.0","p400231","A1PHDT66U6IK4Q","3FVBZG9CLKK1M1GPZWGJX51HFG80HB","37ZHEEHM6YS3XO74VCHRXA5JN0P37P","emotion","mismatch","uniform","","","","","","","4595.300000011921","485376.40000003576","489971.7000000477","[""stimuli/AF11_DO.jpg"",""stimuli/AM06_HO.jpg"",""stimuli/WF11_SUR.jpg"",""stimuli/BF04_HE.jpg""]","stimuli/AF11_DO.jpg","stimuli/AM06_HO.jpg","stimuli/WF11_SUR.jpg","stimuli/BF04_HE.jpg","pos3","stimuli/WF11_SUR.jpg","SUR","WF11","2","3","6","8","stimuli/stars_6.png","172.5","[""DO"",""HO"",""SUR"",""HE""]","[""AF11"",""AM06"",""WF11"",""BF04""]","[3,1,6,8]","[4,2,8,6]","","",""
"show-reward","128","487893","0.0-128.0","p400231","A1PHDT66U6IK4Q","3FVBZG9CLKK1M1GPZWGJX51HFG80HB","37ZHEEHM6YS3XO74VCHRXA5JN0P37P","emotion","mismatch","uniform","","","","","","","","490472.5","492473.5","","","","","","","","","","","","6","","stimuli/stars_6.png","172.5","","","","","stimuli/WF11_SUR.jpg","",""
"explore-choice","129","496598","0.0-129.0","p400231","A1PHDT66U6IK4Q","3FVBZG9CLKK1M1GPZWGJX51HFG80HB","37ZHEEHM6YS3XO74VCHRXA5JN0P37P","emotion","mismatch","uniform","","","","","","","8191.100000023842","492474.5","500665.60000002384","[""stimuli/AF11_HO.jpg"",""stimuli/AM06_SUR.jpg"",""stimuli/WF11_HE.jpg"",""stimuli/BF04_DO.jpg""]","stimuli/AF11_HO.jpg","stimuli/AM06_SUR.jpg","stimuli/WF11_HE.jpg","stimuli/BF04_DO.jpg","pos4","stimuli/BF04_DO.jpg","DO","BF04","3","2.5","5","6","stimuli/stars_5.png","175","[""HO"",""SUR"",""HE"",""DO""]","[""AF11"",""AM06"",""WF11"",""BF04""]","[5,1,7,5]","[4,2,8,6]","","",""
"show-reward","130","498607","0.0-130.0","p400231","A1PHDT66U6IK4Q","3FVBZG9CLKK1M1GPZWGJX51HFG80HB","37ZHEEHM6YS3XO74VCHRXA5JN0P37P","emotion","mismatch","uniform","","","","","","","","501179.90000003576","503187.60000002384","","","","","","","","","","","","5","","stimuli/stars_5.png","175","","","","","stimuli/BF04_DO.jpg","",""
"explore-choice","131","502433","0.0-131.0","p400231","A1PHDT66U6IK4Q","3FVBZG9CLKK1M1GPZWGJX51HFG80HB","37ZHEEHM6YS3XO74VCHRXA5JN0P37P","emotion","mismatch","uniform","","","","","","","3322.899999976158","503188.7000000477","506511.60000002384","[""stimuli/BF04_SUR.jpg"",""stimuli/WF11_DO.jpg"",""stimuli/AF11_HO.jpg"",""stimuli/AM06_HE.jpg""]","stimuli/BF04_SUR.jpg","stimuli/WF11_DO.jpg","stimuli/AF11_HO.jpg","stimuli/AM06_HE.jpg","pos2","stimuli/WF11_DO.jpg","DO","WF11","1","5","10","8","stimuli/stars_10.png","180","[""SUR"",""DO"",""HO"",""HE""]","[""BF04"",""WF11"",""AF11"",""AM06""]","[5,10,3,0]","[6,8,4,2]","","",""
"show-reward","132","504449","0.0-132.0","p400231","A1PHDT66U6IK4Q","3FVBZG9CLKK1M1GPZWGJX51HFG80HB","37ZHEEHM6YS3XO74VCHRXA5JN0P37P","emotion","mismatch","uniform","","","","","","","","507014.7000000477","509029","","","","","","","","","","","","10","","stimuli/stars_10.png","180","","","","","stimuli/WF11_DO.jpg","",""
"explore-choice","133","514266","0.0-133.0","p400231","A1PHDT66U6IK4Q","3FVBZG9CLKK1M1GPZWGJX51HFG80HB","37ZHEEHM6YS3XO74VCHRXA5JN0P37P","emotion","mismatch","uniform","","","","","","","9311.399999976158","509030.2000000477","518341.60000002384","[""stimuli/BF04_SUR.jpg"",""stimuli/AF11_HO.jpg"",""stimuli/WF11_HE.jpg"",""stimuli/AM06_DO.jpg""]","stimuli/BF04_SUR.jpg","stimuli/AF11_HO.jpg","stimuli/WF11_HE.jpg","stimuli/AM06_DO.jpg","pos4","stimuli/AM06_DO.jpg","DO","AM06","3","1","2","2","stimuli/stars_2.png","181","[""SUR"",""HO"",""HE"",""DO""]","[""BF04"",""AF11"",""WF11"",""AM06""]","[7,6,10,2]","[6,4,8,2]","","",""
"show-reward","134","516275","0.0-134.0","p400231","A1PHDT66U6IK4Q","3FVBZG9CLKK1M1GPZWGJX51HFG80HB","37ZHEEHM6YS3XO74VCHRXA5JN0P37P","emotion","mismatch","uniform","","","","","","","","518848.10000002384","520855.10000002384","","","","","","","","","","","","2","","stimuli/stars_2.png","181","","","","","stimuli/AM06_DO.jpg","",""
"explore-choice","135","519586","0.0-135.0","p400231","A1PHDT66U6IK4Q","3FVBZG9CLKK1M1GPZWGJX51HFG80HB","37ZHEEHM6YS3XO74VCHRXA5JN0P37P","emotion","mismatch","uniform","","","","","","","2801.800000011921","520856.10000002384","523657.90000003576","[""stimuli/WF11_SUR.jpg"",""stimuli/BF04_HO.jpg"",""stimuli/AM06_DO.jpg"",""stimuli/AF11_HE.jpg""]","stimuli/WF11_SUR.jpg","stimuli/BF04_HO.jpg","stimuli/AM06_DO.jpg","stimuli/AF11_HE.jpg","pos1","stimuli/WF11_SUR.jpg","SUR","WF11","0","5","10","8","stimuli/stars_10.png","186","[""SUR"",""HO"",""DO"",""HE""]","[""WF11"",""BF04"",""AM06"",""AF11""]","[10,5,4,4]","[8,6,2,4]","","",""
"show-reward","136","521596","0.0-136.0","p400231","A1PHDT66U6IK4Q","3FVBZG9CLKK1M1GPZWGJX51HFG80HB","37ZHEEHM6YS3XO74VCHRXA5JN0P37P","emotion","mismatch","uniform","","","","","","","","524167.90000003576","526176.5","","","","","","","","","","","","10","","stimuli/stars_10.png","186","","","","","stimuli/WF11_SUR.jpg","",""
"explore-choice","137","525799","0.0-137.0","p400231","A1PHDT66U6IK4Q","3FVBZG9CLKK1M1GPZWGJX51HFG80HB","37ZHEEHM6YS3XO74VCHRXA5JN0P37P","emotion","mismatch","uniform","","","","","","","3694","526178.1000000238","529872.1000000238","[""stimuli/AM06_SUR.jpg"",""stimuli/AF11_HE.jpg"",""stimuli/BF04_HO.jpg"",""stimuli/WF11_DO.jpg""]","stimuli/AM06_SUR.jpg","stimuli/AF11_HE.jpg","stimuli/BF04_HO.jpg","stimuli/WF11_DO.jpg","pos4","stimuli/WF11_DO.jpg","DO","WF11","3","4.5","9","8","stimuli/stars_9.png","190.5","[""SUR"",""HE"",""HO"",""DO""]","[""AM06"",""AF11"",""BF04"",""WF11""]","[3,3,5,9]","[2,4,6,8]","","",""
"show-reward","138","527803","0.0-138.0","p400231","A1PHDT66U6IK4Q","3FVBZG9CLKK1M1GPZWGJX51HFG80HB","37ZHEEHM6YS3XO74VCHRXA5JN0P37P","emotion","mismatch","uniform","","","","","","","","530380.5","532383.6000000238","","","","","","","","","","","","9","","stimuli/stars_9.png","190.5","","","","","stimuli/WF11_DO.jpg","",""
"explore-choice","139","532121","0.0-139.0","p400231","A1PHDT66U6IK4Q","3FVBZG9CLKK1M1GPZWGJX51HFG80HB","37ZHEEHM6YS3XO74VCHRXA5JN0P37P","emotion","mismatch","uniform","","","","","","","3813.400000035763","532384.5","536197.9000000358","[""stimuli/WF11_SUR.jpg"",""stimuli/AM06_HO.jpg"",""stimuli/BF04_DO.jpg"",""stimuli/AF11_HE.jpg""]","stimuli/WF11_SUR.jpg","stimuli/AM06_HO.jpg","stimuli/BF04_DO.jpg","stimuli/AF11_HE.jpg","pos1","stimuli/WF11_SUR.jpg","SUR","WF11","0","5","10","8","stimuli/stars_10.png","195.5","[""SUR"",""HO"",""DO"",""HE""]","[""WF11"",""AM06"",""BF04"",""AF11""]","[10,0,7,2]","[8,2,6,4]","","",""
"show-reward","140","534124","0.0-140.0","p400231","A1PHDT66U6IK4Q","3FVBZG9CLKK1M1GPZWGJX51HFG80HB","37ZHEEHM6YS3XO74VCHRXA5JN0P37P","emotion","mismatch","uniform","","","","","","","","536702.4000000358","538704.2000000477","","","","","","","","","","","","10","","stimuli/stars_10.png","195.5","","","","","stimuli/WF11_SUR.jpg","",""
"explore-choice","141","539306","0.0-141.0","p400231","A1PHDT66U6IK4Q","3FVBZG9CLKK1M1GPZWGJX51HFG80HB","37ZHEEHM6YS3XO74VCHRXA5JN0P37P","emotion","mismatch","uniform","","","","","","","4673.899999976158","538704.7000000477","543378.6000000238","[""stimuli/BF04_HE.jpg"",""stimuli/AM06_DO.jpg"",""stimuli/AF11_SUR.jpg"",""stimuli/WF11_HO.jpg""]","stimuli/BF04_HE.jpg","stimuli/AM06_DO.jpg","stimuli/AF11_SUR.jpg","stimuli/WF11_HO.jpg","pos3","stimuli/AF11_SUR.jpg","SUR","AF11","2","2.5","5","4","stimuli/stars_5.png","198","[""HE"",""DO"",""SUR"",""HO""]","[""BF04"",""AM06"",""AF11"",""WF11""]","[6,1,5,7]","[6,2,4,8]","","",""
"show-reward","142","541318","0.0-142.0","p400231","A1PHDT66U6IK4Q","3FVBZG9CLKK1M1GPZWGJX51HFG80HB","37ZHEEHM6YS3XO74VCHRXA5JN0P37P","emotion","mismatch","uniform","","","","","","","","543887.7000000477","545898.5","","","","","","","","","","","","5","","stimuli/stars_5.png","198","","","","","stimuli/AF11_SUR.jpg","",""
"explore-choice","143","543350","0.0-143.0","p400231","A1PHDT66U6IK4Q","3FVBZG9CLKK1M1GPZWGJX51HFG80HB","37ZHEEHM6YS3XO74VCHRXA5JN0P37P","emotion","mismatch","uniform","","","","","","","1519.6000000238419","545899","547418.6000000238","[""stimuli/BF04_SUR.jpg"",""stimuli/WF11_DO.jpg"",""stimuli/AM06_HO.jpg"",""stimuli/AF11_HE.jpg""]","stimuli/BF04_SUR.jpg","stimuli/WF11_DO.jpg","stimuli/AM06_HO.jpg","stimuli/AF11_HE.jpg","pos2","stimuli/WF11_DO.jpg","DO","WF11","1","3","6","8","stimuli/stars_6.png","201","[""SUR"",""DO"",""HO"",""HE""]","[""BF04"",""WF11"",""AM06"",""AF11""]","[5,6,1,6]","[6,8,2,4]","","",""
"show-reward","144","545367","0.0-144.0","p400231","A1PHDT66U6IK4Q","3FVBZG9CLKK1M1GPZWGJX51HFG80HB","37ZHEEHM6YS3XO74VCHRXA5JN0P37P","emotion","mismatch","uniform","","","","","","","","547931.6000000238","549947.9000000358","","","","","","","","","","","","6","","stimuli/stars_6.png","201","","","","","stimuli/WF11_DO.jpg","",""
"explore-choice","145","550075","0.0-145.0","p400231","A1PHDT66U6IK4Q","3FVBZG9CLKK1M1GPZWGJX51HFG80HB","37ZHEEHM6YS3XO74VCHRXA5JN0P37P","emotion","mismatch","uniform","","","","","","","4193.699999988079","549948.7000000477","554142.4000000358","[""stimuli/WF11_HO.jpg"",""stimuli/AM06_HE.jpg"",""stimuli/BF04_SUR.jpg"",""stimuli/AF11_DO.jpg""]","stimuli/WF11_HO.jpg","stimuli/AM06_HE.jpg","stimuli/BF04_SUR.jpg","stimuli/AF11_DO.jpg","pos4","stimuli/AF11_DO.jpg","DO","AF11","3","2","4","4","stimuli/stars_4.png","203","[""HO"",""HE"",""SUR"",""DO""]","[""WF11"",""AM06"",""BF04"",""AF11""]","[8,2,8,4]","[8,2,6,4]","","",""
"show-reward","146","552082","0.0-146.0","p400231","A1PHDT66U6IK4Q","3FVBZG9CLKK1M1GPZWGJX51HFG80HB","37ZHEEHM6YS3XO74VCHRXA5JN0P37P","emotion","mismatch","uniform","","","","","","","","554655.9000000358","556662.7000000477","","","","","","","","","","","","4","","stimuli/stars_4.png","203","","","","","stimuli/AF11_DO.jpg","",""
"explore-choice","147","561783","0.0-147.0","p400231","A1PHDT66U6IK4Q","3FVBZG9CLKK1M1GPZWGJX51HFG80HB","37ZHEEHM6YS3XO74VCHRXA5JN0P37P","emotion","mismatch","uniform","","","","","","","9185.099999964237","556663.4000000358","565848.5","[""stimuli/WF11_HO.jpg"",""stimuli/AF11_DO.jpg"",""stimuli/AM06_SUR.jpg"",""stimuli/BF04_HE.jpg""]","stimuli/WF11_HO.jpg","stimuli/AF11_DO.jpg","stimuli/AM06_SUR.jpg","stimuli/BF04_HE.jpg","pos3","stimuli/AM06_SUR.jpg","SUR","AM06","2","0","0","2","stimuli/stars_0.png","203","[""HO"",""DO"",""SUR"",""HE""]","[""WF11"",""AF11"",""AM06"",""BF04""]","[6,4,0,8]","[8,4,2,6]","","",""
"show-reward","148","563794","0.0-148.0","p400231","A1PHDT66U6IK4Q","3FVBZG9CLKK1M1GPZWGJX51HFG80HB","37ZHEEHM6YS3XO74VCHRXA5JN0P37P","emotion","mismatch","uniform","","","","","","","","566365.6000000238","568374.9000000358","","","","","","","","","","","","0","","stimuli/stars_0.png","203","","","","","stimuli/AM06_SUR.jpg","",""
"explore-choice","149","568767","0.0-149.0","p400231","A1PHDT66U6IK4Q","3FVBZG9CLKK1M1GPZWGJX51HFG80HB","37ZHEEHM6YS3XO74VCHRXA5JN0P37P","emotion","mismatch","uniform","","","","","","","4470.699999988079","568375.9000000358","572846.6000000238","[""stimuli/WF11_HE.jpg"",""stimuli/AM06_HO.jpg"",""stimuli/AF11_SUR.jpg"",""stimuli/BF04_DO.jpg""]","stimuli/WF11_HE.jpg","stimuli/AM06_HO.jpg","stimuli/AF11_SUR.jpg","stimuli/BF04_DO.jpg","pos4","stimuli/BF04_DO.jpg","DO","BF04","3","2","4","6","stimuli/stars_4.png","205","[""HE"",""HO"",""SUR"",""DO""]","[""WF11"",""AM06"",""AF11"",""BF04""]","[7,4,4,4]","[8,2,4,6]","","",""
"show-reward","150","570793","0.0-150.0","p400231","A1PHDT66U6IK4Q","3FVBZG9CLKK1M1GPZWGJX51HFG80HB","37ZHEEHM6YS3XO74VCHRXA5JN0P37P","emotion","mismatch","uniform","","","","","","","","573349.1000000238","575373.4000000358","","","","","","","","","","","","4","","stimuli/stars_4.png","205","","","","","stimuli/BF04_DO.jpg","",""
"explore-choice","151","575418","0.0-151.0","p400231","A1PHDT66U6IK4Q","3FVBZG9CLKK1M1GPZWGJX51HFG80HB","37ZHEEHM6YS3XO74VCHRXA5JN0P37P","emotion","mismatch","uniform","","","","","","","4111","575374.5","579485.5","[""stimuli/WF11_HO.jpg"",""stimuli/AF11_DO.jpg"",""stimuli/AM06_SUR.jpg"",""stimuli/BF04_HE.jpg""]","stimuli/WF11_HO.jpg","stimuli/AF11_DO.jpg","stimuli/AM06_SUR.jpg","stimuli/BF04_HE.jpg","pos2","stimuli/AF11_DO.jpg","DO","AF11","1","2","4","4","stimuli/stars_4.png","207","[""HO"",""DO"",""SUR"",""HE""]","[""WF11"",""AF11"",""AM06"",""BF04""]","[6,4,0,8]","[8,4,2,6]","","",""
"show-reward","152","577434","0.0-152.0","p400231","A1PHDT66U6IK4Q","3FVBZG9CLKK1M1GPZWGJX51HFG80HB","37ZHEEHM6YS3XO74VCHRXA5JN0P37P","emotion","mismatch","uniform","","","","","","","","579999.6000000238","582014.7000000477","","","","","","","","","","","","4","","stimuli/stars_4.png","207","","","","","stimuli/AF11_DO.jpg","",""
"explore-choice","153","579587","0.0-153.0","p400231","A1PHDT66U6IK4Q","3FVBZG9CLKK1M1GPZWGJX51HFG80HB","37ZHEEHM6YS3XO74VCHRXA5JN0P37P","emotion","mismatch","uniform","","","","","","","1636.3999999761581","582015.6000000238","583652","[""stimuli/BF04_DO.jpg"",""stimuli/WF11_SUR.jpg"",""stimuli/AF11_HO.jpg"",""stimuli/AM06_HE.jpg""]","stimuli/BF04_DO.jpg","stimuli/WF11_SUR.jpg","stimuli/AF11_HO.jpg","stimuli/AM06_HE.jpg","pos2","stimuli/WF11_SUR.jpg","SUR","WF11","1","3","6","8","stimuli/stars_6.png","210","[""DO"",""SUR"",""HO"",""HE""]","[""BF04"",""WF11"",""AF11"",""AM06""]","[6,6,6,2]","[6,8,4,2]","","",""
"show-reward","154","581594","0.0-154.0","p400231","A1PHDT66U6IK4Q","3FVBZG9CLKK1M1GPZWGJX51HFG80HB","37ZHEEHM6YS3XO74VCHRXA5JN0P37P","emotion","mismatch","uniform","","","","","","","","584168.7000000477","586174","","","","","","","","","","","","6","","stimuli/stars_6.png","210","","","","","stimuli/WF11_SUR.jpg","",""
"explore-choice","155","589443","0.0-155.0","p400231","A1PHDT66U6IK4Q","3FVBZG9CLKK1M1GPZWGJX51HFG80HB","37ZHEEHM6YS3XO74VCHRXA5JN0P37P","emotion","mismatch","uniform","","","","","","","7332.900000035763","586175.5","593508.4000000358","[""stimuli/BF04_SUR.jpg"",""stimuli/WF11_HE.jpg"",""stimuli/AF11_HO.jpg"",""stimuli/AM06_DO.jpg""]","stimuli/BF04_SUR.jpg","stimuli/WF11_HE.jpg","stimuli/AF11_HO.jpg","stimuli/AM06_DO.jpg","pos4","stimuli/AM06_DO.jpg","DO","AM06","3","1","2","2","stimuli/stars_2.png","211","[""SUR"",""HE"",""HO"",""DO""]","[""BF04"",""WF11"",""AF11"",""AM06""]","[7,10,6,2]","[6,8,4,2]","","",""
"show-reward","156","591450","0.0-156.0","p400231","A1PHDT66U6IK4Q","3FVBZG9CLKK1M1GPZWGJX51HFG80HB","37ZHEEHM6YS3XO74VCHRXA5JN0P37P","emotion","mismatch","uniform","","","","","","","","594025.2000000477","596030.6000000238","","","","","","","","","","","","2","","stimuli/stars_2.png","211","","","","","stimuli/AM06_DO.jpg","",""
"explore-choice","157","596191","0.0-157.0","p400231","A1PHDT66U6IK4Q","3FVBZG9CLKK1M1GPZWGJX51HFG80HB","37ZHEEHM6YS3XO74VCHRXA5JN0P37P","emotion","mismatch","uniform","","","","","","","4227.299999952316","596031.2000000477","600258.5","[""stimuli/BF04_DO.jpg"",""stimuli/AM06_SUR.jpg"",""stimuli/WF11_HE.jpg"",""stimuli/AF11_HO.jpg""]","stimuli/BF04_DO.jpg","stimuli/AM06_SUR.jpg","stimuli/WF11_HE.jpg","stimuli/AF11_HO.jpg","pos1","stimuli/BF04_DO.jpg","DO","BF04","0","2.5","5","6","stimuli/stars_5.png","213.5","[""DO"",""SUR"",""HE"",""HO""]","[""BF04"",""AM06"",""WF11"",""AF11""]","[5,1,7,5]","[6,2,8,4]","","",""
"show-reward","158","598202","0.0-158.0","p400231","A1PHDT66U6IK4Q","3FVBZG9CLKK1M1GPZWGJX51HFG80HB","37ZHEEHM6YS3XO74VCHRXA5JN0P37P","emotion","mismatch","uniform","","","","","","","","600772.2000000477","602782.2000000477","","","","","","","","","","","","5","","stimuli/stars_5.png","213.5","","","","","stimuli/BF04_DO.jpg","",""
"explore-choice","159","602248","0.0-159.0","p400231","A1PHDT66U6IK4Q","3FVBZG9CLKK1M1GPZWGJX51HFG80HB","37ZHEEHM6YS3XO74VCHRXA5JN0P37P","emotion","mismatch","uniform","","","","","","","3540.699999988079","602783.2000000477","606323.9000000358","[""stimuli/AF11_HE.jpg"",""stimuli/WF11_HO.jpg"",""stimuli/BF04_DO.jpg"",""stimuli/AM06_SUR.jpg""]","stimuli/AF11_HE.jpg","stimuli/WF11_HO.jpg","stimuli/BF04_DO.jpg","stimuli/AM06_SUR.jpg","pos3","stimuli/BF04_DO.jpg","DO","BF04","2","3","6","6","stimuli/stars_6.png","216.5","[""HE"",""HO"",""DO"",""SUR""]","[""AF11"",""WF11"",""BF04"",""AM06""]","[2,8,6,1]","[4,8,6,2]","","",""
"show-reward","160","604264","0.0-160.0","p400231","A1PHDT66U6IK4Q","3FVBZG9CLKK1M1GPZWGJX51HFG80HB","37ZHEEHM6YS3XO74VCHRXA5JN0P37P","emotion","mismatch","uniform","","","","","","","","606830","608844.7000000477","","","","","","","","","","","","6","","stimuli/stars_6.png","216.5","","","","","stimuli/BF04_DO.jpg","",""
"explore-choice","161","606613","0.0-161.0","p400231","A1PHDT66U6IK4Q","3FVBZG9CLKK1M1GPZWGJX51HFG80HB","37ZHEEHM6YS3XO74VCHRXA5JN0P37P","emotion","mismatch","uniform","","","","","","","1839.3999999761581","608845.2000000477","610684.6000000238","[""stimuli/AM06_HO.jpg"",""stimuli/BF04_HE.jpg"",""stimuli/WF11_SUR.jpg"",""stimuli/AF11_DO.jpg""]","stimuli/AM06_HO.jpg","stimuli/BF04_HE.jpg","stimuli/WF11_SUR.jpg","stimuli/AF11_DO.jpg","pos3","stimuli/WF11_SUR.jpg","SUR","WF11","2","3","6","8","stimuli/stars_6.png","219.5","[""HO"",""HE"",""SUR"",""DO""]","[""AM06"",""BF04"",""WF11"",""AF11""]","[1,8,6,3]","[2,6,8,4]","","",""
"show-reward","162","608630","0.0-162.0","p400231","A1PHDT66U6IK4Q","3FVBZG9CLKK1M1GPZWGJX51HFG80HB","37ZHEEHM6YS3XO74VCHRXA5JN0P37P","emotion","mismatch","uniform","","","","","","","","611194.3000000119","613210.5","","","","","","","","","","","","6","","stimuli/stars_6.png","219.5","","","","","stimuli/WF11_SUR.jpg","",""
"explore-choice","163","611544","0.0-163.0","p400231","A1PHDT66U6IK4Q","3FVBZG9CLKK1M1GPZWGJX51HFG80HB","37ZHEEHM6YS3XO74VCHRXA5JN0P37P","emotion","mismatch","uniform","","","","","","","2404.7000000476837","613211","615615.7000000477","[""stimuli/BF04_HE.jpg"",""stimuli/AM06_HO.jpg"",""stimuli/WF11_DO.jpg"",""stimuli/AF11_SUR.jpg""]","stimuli/BF04_HE.jpg","stimuli/AM06_HO.jpg","stimuli/WF11_DO.jpg","stimuli/AF11_SUR.jpg","pos3","stimuli/WF11_DO.jpg","DO","WF11","2","5","10","8","stimuli/stars_10.png","224.5","[""HE"",""HO"",""DO"",""SUR""]","[""BF04"",""AM06"",""WF11"",""AF11""]","[7,1,10,3]","[6,2,8,4]","","",""
"show-reward","164","613555","0.0-164.0","p400231","A1PHDT66U6IK4Q","3FVBZG9CLKK1M1GPZWGJX51HFG80HB","37ZHEEHM6YS3XO74VCHRXA5JN0P37P","emotion","mismatch","uniform","","","","","","","","616125.4000000358","618135.5","","","","","","","","","","","","10","","stimuli/stars_10.png","224.5","","","","","stimuli/WF11_DO.jpg","",""
"explore-choice","165","617912","0.0-165.0","p400231","A1PHDT66U6IK4Q","3FVBZG9CLKK1M1GPZWGJX51HFG80HB","37ZHEEHM6YS3XO74VCHRXA5JN0P37P","emotion","mismatch","uniform","","","","","","","3855.399999976158","618136.1000000238","621991.5","[""stimuli/AM06_DO.jpg"",""stimuli/BF04_HE.jpg"",""stimuli/AF11_HO.jpg"",""stimuli/WF11_SUR.jpg""]","stimuli/AM06_DO.jpg","stimuli/BF04_HE.jpg","stimuli/AF11_HO.jpg","stimuli/WF11_SUR.jpg","pos4","stimuli/WF11_SUR.jpg","SUR","WF11","3","3","6","8","stimuli/stars_6.png","227.5","[""DO"",""HE"",""HO"",""SUR""]","[""AM06"",""BF04"",""AF11"",""WF11""]","[1,6,3,6]","[2,6,4,8]","","",""
"show-reward","166","619927","0.0-166.0","p400231","A1PHDT66U6IK4Q","3FVBZG9CLKK1M1GPZWGJX51HFG80HB","37ZHEEHM6YS3XO74VCHRXA5JN0P37P","emotion","mismatch","uniform","","","","","","","","622493.9000000358","624508.2000000477","","","","","","","","","","","","6","","stimuli/stars_6.png","227.5","","","","","stimuli/WF11_SUR.jpg","",""
"explore-choice","167","623256","0.0-167.0","p400231","A1PHDT66U6IK4Q","3FVBZG9CLKK1M1GPZWGJX51HFG80HB","37ZHEEHM6YS3XO74VCHRXA5JN0P37P","emotion","mismatch","uniform","","","","","","","2831.099999964237","624509.2000000477","627340.3000000119","[""stimuli/AM06_HO.jpg"",""stimuli/WF11_SUR.jpg"",""stimuli/AF11_HE.jpg"",""stimuli/BF04_DO.jpg""]","stimuli/AM06_HO.jpg","stimuli/WF11_SUR.jpg","stimuli/AF11_HE.jpg","stimuli/BF04_DO.jpg","pos2","stimuli/WF11_SUR.jpg","SUR","WF11","1","5","10","8","stimuli/stars_10.png","232.5","[""HO"",""SUR"",""HE"",""DO""]","[""AM06"",""WF11"",""AF11"",""BF04""]","[0,10,2,7]","[2,8,4,6]","","",""
"show-reward","168","625261","0.0-168.0","p400231","A1PHDT66U6IK4Q","3FVBZG9CLKK1M1GPZWGJX51HFG80HB","37ZHEEHM6YS3XO74VCHRXA5JN0P37P","emotion","mismatch","uniform","","","","","","","","627846.2000000477","629850.3000000119","","","","","","","","","","","","10","","stimuli/stars_10.png","232.5","","","","","stimuli/WF11_SUR.jpg","",""
"explore-choice","169","629918","0.0-169.0","p400231","A1PHDT66U6IK4Q","3FVBZG9CLKK1M1GPZWGJX51HFG80HB","37ZHEEHM6YS3XO74VCHRXA5JN0P37P","emotion","mismatch","uniform","","","","","","","4151.399999976158","629851.1000000238","634002.5","[""stimuli/BF04_HO.jpg"",""stimuli/WF11_HE.jpg"",""stimuli/AF11_DO.jpg"",""stimuli/AM06_SUR.jpg""]","stimuli/BF04_HO.jpg","stimuli/WF11_HE.jpg","stimuli/AF11_DO.jpg","stimuli/AM06_SUR.jpg","pos3","stimuli/AF11_DO.jpg","DO","AF11","2","1.5","3","4","stimuli/stars_3.png","234","[""HO"",""HE"",""DO"",""SUR""]","[""BF04"",""WF11"",""AF11"",""AM06""]","[5,9,3,3]","[6,8,4,2]","","",""
"show-reward","170","631933","0.0-170.0","p400231","A1PHDT66U6IK4Q","3FVBZG9CLKK1M1GPZWGJX51HFG80HB","37ZHEEHM6YS3XO74VCHRXA5JN0P37P","emotion","mismatch","uniform","","","","","","","","634508","636522.5","","","","","","","","","","","","3","","stimuli/stars_3.png","234","","","","","stimuli/AF11_DO.jpg","",""
"explore-choice","171","635129","0.0-171.0","p400231","A1PHDT66U6IK4Q","3FVBZG9CLKK1M1GPZWGJX51HFG80HB","37ZHEEHM6YS3XO74VCHRXA5JN0P37P","emotion","mismatch","uniform","","","","","","","2685","636523.6000000238","639208.6000000238","[""stimuli/AF11_HE.jpg"",""stimuli/AM06_DO.jpg"",""stimuli/BF04_HO.jpg"",""stimuli/WF11_SUR.jpg""]","stimuli/AF11_HE.jpg","stimuli/AM06_DO.jpg","stimuli/BF04_HO.jpg","stimuli/WF11_SUR.jpg","pos4","stimuli/WF11_SUR.jpg","SUR","WF11","3","5","10","8","stimuli/stars_10.png","239","[""HE"",""DO"",""HO"",""SUR""]","[""AF11"",""AM06"",""BF04"",""WF11""]","[4,4,5,10]","[4,2,6,8]","","",""
"show-reward","172","637136","0.0-172.0","p400231","A1PHDT66U6IK4Q","3FVBZG9CLKK1M1GPZWGJX51HFG80HB","37ZHEEHM6YS3XO74VCHRXA5JN0P37P","emotion","mismatch","uniform","","","","","","","","639719.3000000119","641725.5","","","","","","","","","","","","10","","stimuli/stars_10.png","239","","","","","stimuli/WF11_SUR.jpg","",""
"explore-choice","173","640133","0.0-173.0","p400231","A1PHDT66U6IK4Q","3FVBZG9CLKK1M1GPZWGJX51HFG80HB","37ZHEEHM6YS3XO74VCHRXA5JN0P37P","emotion","mismatch","uniform","","","","","","","2483.300000011921","641726.5","644209.8000000119","[""stimuli/BF04_HO.jpg"",""stimuli/AF11_SUR.jpg"",""stimuli/AM06_HE.jpg"",""stimuli/WF11_DO.jpg""]","stimuli/BF04_HO.jpg","stimuli/AF11_SUR.jpg","stimuli/AM06_HE.jpg","stimuli/WF11_DO.jpg","pos4","stimuli/WF11_DO.jpg","DO","WF11","3","4.5","9","8","stimuli/stars_9.png","243.5","[""HO"",""SUR"",""HE"",""DO""]","[""BF04"",""AF11"",""AM06"",""WF11""]","[5,4,1,9]","[6,4,2,8]","","",""
"show-reward","174","642138","0.0-174.0","p400231","A1PHDT66U6IK4Q","3FVBZG9CLKK1M1GPZWGJX51HFG80HB","37ZHEEHM6YS3XO74VCHRXA5JN0P37P","emotion","mismatch","uniform","","","","","","","","644723.2000000477","646727.5","","","","","","","","","","","","9","","stimuli/stars_9.png","243.5","","","","","stimuli/WF11_DO.jpg","",""
"explore-choice","175","647307","0.0-175.0","p400231","A1PHDT66U6IK4Q","3FVBZG9CLKK1M1GPZWGJX51HFG80HB","37ZHEEHM6YS3XO74VCHRXA5JN0P37P","emotion","mismatch","uniform","","","","","","","4660.300000011921","646728.3000000119","651388.6000000238","[""stimuli/AF11_DO.jpg"",""stimuli/WF11_HO.jpg"",""stimuli/AM06_HE.jpg"",""stimuli/BF04_SUR.jpg""]","stimuli/AF11_DO.jpg","stimuli/WF11_HO.jpg","stimuli/AM06_HE.jpg","stimuli/BF04_SUR.jpg","pos1","stimuli/AF11_DO.jpg","DO","AF11","0","2","4","4","stimuli/stars_4.png","245.5","[""DO"",""HO"",""HE"",""SUR""]","[""AF11"",""WF11"",""AM06"",""BF04""]","[4,8,2,8]","[4,8,2,6]","","",""
"show-reward","176","649320","0.0-176.0","p400231","A1PHDT66U6IK4Q","3FVBZG9CLKK1M1GPZWGJX51HFG80HB","37ZHEEHM6YS3XO74VCHRXA5JN0P37P","emotion","mismatch","uniform","","","","","","","","651897.4000000358","653909","","","","","","","","","","","","4","","stimuli/stars_4.png","245.5","","","","","stimuli/AF11_DO.jpg","",""
"explore-choice","177","652292","0.0-177.0","p400231","A1PHDT66U6IK4Q","3FVBZG9CLKK1M1GPZWGJX51HFG80HB","37ZHEEHM6YS3XO74VCHRXA5JN0P37P","emotion","mismatch","uniform","","","","","","","2466.800000011921","653909.8000000119","656376.6000000238","[""stimuli/WF11_SUR.jpg"",""stimuli/AM06_HE.jpg"",""stimuli/BF04_HO.jpg"",""stimuli/AF11_DO.jpg""]","stimuli/WF11_SUR.jpg","stimuli/AM06_HE.jpg","stimuli/BF04_HO.jpg","stimuli/AF11_DO.jpg","pos1","stimuli/WF11_SUR.jpg","SUR","WF11","0","3","6","8","stimuli/stars_6.png","248.5","[""SUR"",""HE"",""HO"",""DO""]","[""WF11"",""AM06"",""BF04"",""AF11""]","[6,2,5,5]","[8,2,6,4]","","",""
"show-reward","178","654308","0.0-178.0","p400231","A1PHDT66U6IK4Q","3FVBZG9CLKK1M1GPZWGJX51HFG80HB","37ZHEEHM6YS3XO74VCHRXA5JN0P37P","emotion","mismatch","uniform","","","","","","","","656881.9000000358","658897.3000000119","","","","","","","","","","","","6","","stimuli/stars_6.png","248.5","","","","","stimuli/WF11_SUR.jpg","",""
"explore-choice","179","662002","0.0-179.0","p400231","A1PHDT66U6IK4Q","3FVBZG9CLKK1M1GPZWGJX51HFG80HB","37ZHEEHM6YS3XO74VCHRXA5JN0P37P","emotion","mismatch","uniform","","","","","","","7191.399999976158","658898.1000000238","666089.5","[""stimuli/WF11_HO.jpg"",""stimuli/AF11_SUR.jpg"",""stimuli/BF04_DO.jpg"",""stimuli/AM06_HE.jpg""]","stimuli/WF11_HO.jpg","stimuli/AF11_SUR.jpg","stimuli/BF04_DO.jpg","stimuli/AM06_HE.jpg","pos2","stimuli/AF11_SUR.jpg","SUR","AF11","1","3","6","4","stimuli/stars_6.png","251.5","[""HO"",""SUR"",""DO"",""HE""]","[""WF11"",""AF11"",""BF04"",""AM06""]","[6,6,6,2]","[8,4,6,2]","","",""
"show-reward","180","664006","0.0-180.0","p400231","A1PHDT66U6IK4Q","3FVBZG9CLKK1M1GPZWGJX51HFG80HB","37ZHEEHM6YS3XO74VCHRXA5JN0P37P","emotion","mismatch","uniform","","","","","","","","666592.1000000238","668595.6000000238","","","","","","","","","","","","6","","stimuli/stars_6.png","251.5","","","","","stimuli/AF11_SUR.jpg","",""
"explore-choice","181","667161","0.0-181.0","p400231","A1PHDT66U6IK4Q","3FVBZG9CLKK1M1GPZWGJX51HFG80HB","37ZHEEHM6YS3XO74VCHRXA5JN0P37P","emotion","mismatch","uniform","","","","","","","2645.800000011921","668596.5","671242.3000000119","[""stimuli/WF11_DO.jpg"",""stimuli/AF11_HE.jpg"",""stimuli/BF04_SUR.jpg"",""stimuli/AM06_HO.jpg""]","stimuli/WF11_DO.jpg","stimuli/AF11_HE.jpg","stimuli/BF04_SUR.jpg","stimuli/AM06_HO.jpg","pos1","stimuli/WF11_DO.jpg","DO","WF11","0","3","6","8","stimuli/stars_6.png","254.5","[""DO"",""HE"",""SUR"",""HO""]","[""WF11"",""AF11"",""BF04"",""AM06""]","[6,6,5,1]","[8,4,6,2]","","",""
"show-reward","182","669174","0.0-182.0","p400231","A1PHDT66U6IK4Q","3FVBZG9CLKK1M1GPZWGJX51HFG80HB","37ZHEEHM6YS3XO74VCHRXA5JN0P37P","emotion","mismatch","uniform","","","","","","","","671750.6000000238","673762.9000000358","","","","","","","","","","","","6","","stimuli/stars_6.png","254.5","","","","","stimuli/WF11_DO.jpg","",""
"explore-choice","183","674361","0.0-183.0","p400231","A1PHDT66U6IK4Q","3FVBZG9CLKK1M1GPZWGJX51HFG80HB","37ZHEEHM6YS3XO74VCHRXA5JN0P37P","emotion","mismatch","uniform","","","","","","","4672.300000011921","673763.8000000119","678436.1000000238","[""stimuli/BF04_SUR.jpg"",""stimuli/AM06_HO.jpg"",""stimuli/WF11_HE.jpg"",""stimuli/AF11_DO.jpg""]","stimuli/BF04_SUR.jpg","stimuli/AM06_HO.jpg","stimuli/WF11_HE.jpg","stimuli/AF11_DO.jpg","pos4","stimuli/AF11_DO.jpg","DO","AF11","3","2.5","5","4","stimuli/stars_5.png","257","[""SUR"",""HO"",""HE"",""DO""]","[""BF04"",""AM06"",""WF11"",""AF11""]","[4,2,8,5]","[6,2,8,4]","","",""
"show-reward","184","676373","0.0-184.0","p400231","A1PHDT66U6IK4Q","3FVBZG9CLKK1M1GPZWGJX51HFG80HB","37ZHEEHM6YS3XO74VCHRXA5JN0P37P","emotion","mismatch","uniform","","","","","","","","678950.9000000358","680961.9000000358","","","","","","","","","","","","5","","stimuli/stars_5.png","257","","","","","stimuli/AF11_DO.jpg","",""
"explore-choice","185","685094","0.0-185.0","p400231","A1PHDT66U6IK4Q","3FVBZG9CLKK1M1GPZWGJX51HFG80HB","37ZHEEHM6YS3XO74VCHRXA5JN0P37P","emotion","mismatch","uniform","","","","","","","8207.599999964237","680962.9000000358","689170.5","[""stimuli/AF11_HE.jpg"",""stimuli/BF04_SUR.jpg"",""stimuli/WF11_HO.jpg"",""stimuli/AM06_DO.jpg""]","stimuli/AF11_HE.jpg","stimuli/BF04_SUR.jpg","stimuli/WF11_HO.jpg","stimuli/AM06_DO.jpg","pos4","stimuli/AM06_DO.jpg","DO","AM06","3","1","2","2","stimuli/stars_2.png","258","[""HE"",""SUR"",""HO"",""DO""]","[""AF11"",""BF04"",""WF11"",""AM06""]","[2,8,7,2]","[4,6,8,2]","","",""
"show-reward","186","687098","0.0-186.0","p400231","A1PHDT66U6IK4Q","3FVBZG9CLKK1M1GPZWGJX51HFG80HB","37ZHEEHM6YS3XO74VCHRXA5JN0P37P","emotion","mismatch","uniform","","","","","","","","689675.4000000358","691678.4000000358","","","","","","","","","","","","2","","stimuli/stars_2.png","258","","","","","stimuli/AM06_DO.jpg","",""
"explore-choice","187","691436","0.0-187.0","p400231","A1PHDT66U6IK4Q","3FVBZG9CLKK1M1GPZWGJX51HFG80HB","37ZHEEHM6YS3XO74VCHRXA5JN0P37P","emotion","mismatch","uniform","","","","","","","3833.100000023842","691679.5","695512.6000000238","[""stimuli/WF11_HE.jpg"",""stimuli/AM06_DO.jpg"",""stimuli/BF04_HO.jpg"",""stimuli/AF11_SUR.jpg""]","stimuli/WF11_HE.jpg","stimuli/AM06_DO.jpg","stimuli/BF04_HO.jpg","stimuli/AF11_SUR.jpg","pos4","stimuli/AF11_SUR.jpg","SUR","AF11","3","3","6","4","stimuli/stars_6.png","261","[""HE"",""DO"",""HO"",""SUR""]","[""WF11"",""AM06"",""BF04"",""AF11""]","[6,0,8,6]","[8,2,6,4]","","",""
"show-reward","188","693443","0.0-188.0","p400231","A1PHDT66U6IK4Q","3FVBZG9CLKK1M1GPZWGJX51HFG80HB","37ZHEEHM6YS3XO74VCHRXA5JN0P37P","emotion","mismatch","uniform","","","","","","","","696018.4000000358","698024","","","","","","","","","","","","6","","stimuli/stars_6.png","261","","","","","stimuli/AF11_SUR.jpg","",""
"explore-choice","189","696563","0.0-189.0","p400231","A1PHDT66U6IK4Q","3FVBZG9CLKK1M1GPZWGJX51HFG80HB","37ZHEEHM6YS3XO74VCHRXA5JN0P37P","emotion","mismatch","uniform","","","","","","","2607.300000011921","698024.9000000358","700632.2000000477","[""stimuli/BF04_DO.jpg"",""stimuli/WF11_HE.jpg"",""stimuli/AM06_HO.jpg"",""stimuli/AF11_SUR.jpg""]","stimuli/BF04_DO.jpg","stimuli/WF11_HE.jpg","stimuli/AM06_HO.jpg","stimuli/AF11_SUR.jpg","pos4","stimuli/AF11_SUR.jpg","SUR","AF11","3","2","4","4","stimuli/stars_4.png","263","[""DO"",""HE"",""HO"",""SUR""]","[""BF04"",""WF11"",""AM06"",""AF11""]","[4,7,4,4]","[6,8,2,4]","","",""
"show-reward","190","698578","0.0-190.0","p400231","A1PHDT66U6IK4Q","3FVBZG9CLKK1M1GPZWGJX51HFG80HB","37ZHEEHM6YS3XO74VCHRXA5JN0P37P","emotion","mismatch","uniform","","","","","","","","701144.4000000358","703158.1000000238","","","","","","","","","","","","4","","stimuli/stars_4.png","263","","","","","stimuli/AF11_SUR.jpg","",""
"explore-choice","191","701470","0.0-191.0","p400231","A1PHDT66U6IK4Q","3FVBZG9CLKK1M1GPZWGJX51HFG80HB","37ZHEEHM6YS3XO74VCHRXA5JN0P37P","emotion","mismatch","uniform","","","","","","","2388.5","703159.2000000477","705547.7000000477","[""stimuli/AM06_SUR.jpg"",""stimuli/BF04_HO.jpg"",""stimuli/AF11_HE.jpg"",""stimuli/WF11_DO.jpg""]","stimuli/AM06_SUR.jpg","stimuli/BF04_HO.jpg","stimuli/AF11_HE.jpg","stimuli/WF11_DO.jpg","pos4","stimuli/WF11_DO.jpg","DO","WF11","3","4.5","9","8","stimuli/stars_9.png","267.5","[""SUR"",""HO"",""HE"",""DO""]","[""AM06"",""BF04"",""AF11"",""WF11""]","[3,5,3,9]","[2,6,4,8]","","",""
"show-reward","192","703483","0.0-192.0","p400231","A1PHDT66U6IK4Q","3FVBZG9CLKK1M1GPZWGJX51HFG80HB","37ZHEEHM6YS3XO74VCHRXA5JN0P37P","emotion","mismatch","uniform","","","","","","","","706051.5","708063.5","","","","","","","","","","","","9","","stimuli/stars_9.png","267.5","","","","","stimuli/WF11_DO.jpg","",""
"explore-choice","193","707384","0.0-193.0","p400231","A1PHDT66U6IK4Q","3FVBZG9CLKK1M1GPZWGJX51HFG80HB","37ZHEEHM6YS3XO74VCHRXA5JN0P37P","emotion","mismatch","uniform","","","","","","","3399.599999964237","708064.4000000358","711464","[""stimuli/AF11_SUR.jpg"",""stimuli/AM06_DO.jpg"",""stimuli/WF11_HO.jpg"",""stimuli/BF04_HE.jpg""]","stimuli/AF11_SUR.jpg","stimuli/AM06_DO.jpg","stimuli/WF11_HO.jpg","stimuli/BF04_HE.jpg","pos1","stimuli/AF11_SUR.jpg","SUR","AF11","0","2.5","5","4","stimuli/stars_5.png","270","[""SUR"",""DO"",""HO"",""HE""]","[""AF11"",""AM06"",""WF11"",""BF04""]","[5,1,7,6]","[4,2,8,6]","","",""
"show-reward","194","709401","0.0-194.0","p400231","A1PHDT66U6IK4Q","3FVBZG9CLKK1M1GPZWGJX51HFG80HB","37ZHEEHM6YS3XO74VCHRXA5JN0P37P","emotion","mismatch","uniform","","","","","","","","711966.1000000238","713981","","","","","","","","","","","","5","","stimuli/stars_5.png","270","","","","","stimuli/AF11_SUR.jpg","",""
"explore-choice","195","712194","0.0-195.0","p400231","A1PHDT66U6IK4Q","3FVBZG9CLKK1M1GPZWGJX51HFG80HB","37ZHEEHM6YS3XO74VCHRXA5JN0P37P","emotion","mismatch","uniform","","","","","","","2279.800000011921","713982.1000000238","716261.9000000358","[""stimuli/AF11_HO.jpg"",""stimuli/BF04_SUR.jpg"",""stimuli/WF11_DO.jpg"",""stimuli/AM06_HE.jpg""]","stimuli/AF11_HO.jpg","stimuli/BF04_SUR.jpg","stimuli/WF11_DO.jpg","stimuli/AM06_HE.jpg","pos3","stimuli/WF11_DO.jpg","DO","WF11","2","5","10","8","stimuli/stars_10.png","275","[""HO"",""SUR"",""DO"",""HE""]","[""AF11"",""BF04"",""WF11"",""AM06""]","[3,5,10,0]","[4,6,8,2]","","",""
"show-reward","196","714198","0.0-196.0","p400231","A1PHDT66U6IK4Q","3FVBZG9CLKK1M1GPZWGJX51HFG80HB","37ZHEEHM6YS3XO74VCHRXA5JN0P37P","emotion","mismatch","uniform","","","","","","","","716774.9000000358","718778.5","","","","","","","","","","","","10","","stimuli/stars_10.png","275","","","","","stimuli/WF11_DO.jpg","",""
"explore-choice","197","716364","0.0-197.0","p400231","A1PHDT66U6IK4Q","3FVBZG9CLKK1M1GPZWGJX51HFG80HB","37ZHEEHM6YS3XO74VCHRXA5JN0P37P","emotion","mismatch","uniform","","","","","","","1662.699999988079","718779.9000000358","720442.6000000238","[""stimuli/AM06_SUR.jpg"",""stimuli/WF11_DO.jpg"",""stimuli/AF11_HO.jpg"",""stimuli/BF04_HE.jpg""]","stimuli/AM06_SUR.jpg","stimuli/WF11_DO.jpg","stimuli/AF11_HO.jpg","stimuli/BF04_HE.jpg","pos2","stimuli/WF11_DO.jpg","DO","WF11","1","4","8","8","stimuli/stars_8.png","279","[""SUR"",""DO"",""HO"",""HE""]","[""AM06"",""WF11"",""AF11"",""BF04""]","[2,8,5,4]","[2,8,4,6]","","",""
"show-reward","198","718377","0.0-198.0","p400231","A1PHDT66U6IK4Q","3FVBZG9CLKK1M1GPZWGJX51HFG80HB","37ZHEEHM6YS3XO74VCHRXA5JN0P37P","emotion","mismatch","uniform","","","","","","","","720945.5","722957.7000000477","","","","","","","","","","","","8","","stimuli/stars_8.png","279","","","","","stimuli/WF11_DO.jpg","",""
"instructions","199","732976","0.0-199.0","p400231","A1PHDT66U6IK4Q","3FVBZG9CLKK1M1GPZWGJX51HFG80HB","37ZHEEHM6YS3XO74VCHRXA5JN0P37P","emotion","mismatch","uniform","","","","","","[{""page_index"":0,""viewing_time"":14597}]","14598.200000047684","","","","","","","","","","","","","","","","","","","","","","","",""
"survey-text","200","740141","0.0-200.0-0.0","p400231","A1PHDT66U6IK4Q","3FVBZG9CLKK1M1GPZWGJX51HFG80HB","37ZHEEHM6YS3XO74VCHRXA5JN0P37P","emotion","mismatch","uniform","","","","","","","7161.199999988079","","","","","","","","","","","","","","","","","","","","","","","{""age"":""69""}",""
"survey-text","201","746538","0.0-200.0-1.0","p400231","A1PHDT66U6IK4Q","3FVBZG9CLKK1M1GPZWGJX51HFG80HB","37ZHEEHM6YS3XO74VCHRXA5JN0P37P","emotion","mismatch","uniform","","","","","","","6394.400000035763","","","","","","","","","","","","","","","","","","","","","","","{""gender"":""male""}",""
"survey-text","202","762656","0.0-200.0-2.0","p400231","A1PHDT66U6IK4Q","3FVBZG9CLKK1M1GPZWGJX51HFG80HB","37ZHEEHM6YS3XO74VCHRXA5JN0P37P","emotion","mismatch","uniform","","","","","","","16114.400000035763","","","","","","","","","","","","","","","","","","","","","","","{""country"":""United States""}",""
"survey-text","203","780316","0.0-200.0-3.0","p400231","A1PHDT66U6IK4Q","3FVBZG9CLKK1M1GPZWGJX51HFG80HB","37ZHEEHM6YS3XO74VCHRXA5JN0P37P","emotion","mismatch","uniform","","","","","","","17657.69999998808","","","","","","","","","","","","","","","","","","","","","","","{""language"":""english"",""other_languages"":""french""}",""
"survey-multi-select","204","785663","0.0-201.0","p400231","A1PHDT66U6IK4Q","3FVBZG9CLKK1M1GPZWGJX51HFG80HB","37ZHEEHM6YS3XO74VCHRXA5JN0P37P","emotion","mismatch","uniform","","","","","","","5341.5","","","","","","","","","","","","","","","","","","","","","","","{""race"":[""White""]}","[0]"
"survey-multi-choice","205","790470","0.0-202.0","p400231","A1PHDT66U6IK4Q","3FVBZG9CLKK1M1GPZWGJX51HFG80HB","37ZHEEHM6YS3XO74VCHRXA5JN0P37P","emotion","mismatch","uniform","","","","","","","4804.800000011921","","","","","","","","","","","","","","","","","","","","","","","{""education"":""Bachelor's degree""}","[0]"
"survey-text","206","886281","0.0-203.0","p400231","A1PHDT66U6IK4Q","3FVBZG9CLKK1M1GPZWGJX51HFG80HB","37ZHEEHM6YS3XO74VCHRXA5JN0P37P","emotion","mismatch","uniform","","","","","","","95807.69999998808","","","","","","","","","","","","","","","","","","","","","","","{""patterns"":""I chose the most angry people"",""strategy"":""No special strategy."",""comments"":""All clear, no problems.""}",""
