"trial_type","trial_index","time_elapsed","internal_node_id","subject","workerId","hitId","assignmentId","structure_condition","match_condition","noise_type","success","timeout","failed_images","failed_audio","failed_video","view_history","rt","start_time","end_time","stimuli","image1","image2","image3","image4","choiceLocation","choiceImage","choiceEmotion","choiceModel","choice_index","reward_score","reward","reward_score_unadjusted","reward_image","score_after_trial","emotions","models","rewards","rewards_unadjusted","stimulus","response","question_order"
"pavlovia","0","14","0.0-0.0","p704733","A1VFOKKVJ7B9D6","336OE47KI3QZCSCUXSQ8J11UOZXVWV","39ASUFLU6ZD0M1TS292LA0M4GITXE4","model","mismatch","uniform","","","","","","","","","","","","","","","","","","","","","","","","","","","","","","",""
"preload","1","43770","0.0-1.0","p704733","A1VFOKKVJ7B9D6","336OE47KI3QZCSCUXSQ8J11UOZXVWV","39ASUFLU6ZD0M1TS292LA0M4GITXE4","model","mismatch","uniform","true","false","[]","[]","[]","","","","","","","","","","","","","","","","","","","","","","","","","",""
"fullscreen","2","74516","0.0-2.0","p704733","A1VFOKKVJ7B9D6","336OE47KI3QZCSCUXSQ8J11UOZXVWV","39ASUFLU6ZD0M1TS292LA0M4GITXE4","model","mismatch","uniform","true","","","","","","","","","","","","","","","","","","","","","","","","","","","","","",""
"instructions","3","78365","0.0-3.0","p704733","A1VFOKKVJ7B9D6","336OE47KI3QZCSCUXSQ8J11UOZXVWV","39ASUFLU6ZD0M1TS292LA0M4GITXE4","model","mismatch","uniform","","","","","","[{""page_index"":0,""viewing_time"":3845.399999856949}]","3846.899999856949","","","","","","","","","","","","","","","","","","","","","","","",""
"explore-choice","4","81469","0.0-4.0","p704733","A1VFOKKVJ7B9D6","336OE47KI3QZCSCUXSQ8J11UOZXVWV","39ASUFLU6ZD0M1TS292LA0M4GITXE4","model","mismatch","uniform","","","","","","","2592.7999999523163","82361.5","84954.29999995232","[""stimuli/sheep.jpg"",""stimuli/hammer.jpg"",""stimuli/basketball.jpg"",""stimuli/horse.jpg""]","stimuli/sheep.jpg","stimuli/hammer.jpg","stimuli/basketball.jpg","stimuli/horse.jpg","pos4","stimuli/horse.jpg","","","3","64","64","64","stimuli/stars_8.png","65","","","","","","",""
"explore-choice","5","83283","0.0-5.0","p704733","A1VFOKKVJ7B9D6","336OE47KI3QZCSCUXSQ8J11UOZXVWV","39ASUFLU6ZD0M1TS292LA0M4GITXE4","model","mismatch","uniform","","","","","","","1296.5","85465.20000004768","86761.70000004768","[""stimuli/hammer.jpg"",""stimuli/basketball.jpg"",""stimuli/horse.jpg"",""stimuli/sheep.jpg""]","stimuli/hammer.jpg","stimuli/basketball.jpg","stimuli/horse.jpg","stimuli/sheep.jpg","pos1","stimuli/hammer.jpg","","","0","8","8","8","stimuli/stars_2.png","9","","","","","","",""
"instructions","6","93818","0.0-6.0","p704733","A1VFOKKVJ7B9D6","336OE47KI3QZCSCUXSQ8J11UOZXVWV","39ASUFLU6ZD0M1TS292LA0M4GITXE4","model","mismatch","uniform","","","","","","[{""page_index"":0,""viewing_time"":10532.700000047684}]","10533.5","","","","","","","","","","","","","","","","","","","","","","","",""
"explore-choice","7","97184","0.0-7.0","p704733","A1VFOKKVJ7B9D6","336OE47KI3QZCSCUXSQ8J11UOZXVWV","39ASUFLU6ZD0M1TS292LA0M4GITXE4","model","mismatch","uniform","","","","","","","2846.7999999523163","97815.20000004768","100662","[""stimuli/WF14_AO.jpg"",""stimuli/AM03_CC.jpg"",""stimuli/BF04_SC.jpg"",""stimuli/BF05_HE.jpg""]","stimuli/WF14_AO.jpg","stimuli/AM03_CC.jpg","stimuli/BF04_SC.jpg","stimuli/BF05_HE.jpg","pos3","stimuli/BF04_SC.jpg","SC","BF04","2","4","8","6","stimuli/stars_8.png","5","[""AO"",""CC"",""SC"",""HE""]","[""WF14"",""AM03"",""BF04"",""BF05""]","[4,8,8,5]","[2,8,6,4]","","",""
"show-reward","8","99211","0.0-8.0","p704733","A1VFOKKVJ7B9D6","336OE47KI3QZCSCUXSQ8J11UOZXVWV","39ASUFLU6ZD0M1TS292LA0M4GITXE4","model","mismatch","uniform","","","","","","","","101184.39999985695","103204.39999985695","","","","","","","","","","","","8","","stimuli/stars_8.png","5","","","","","stimuli/BF04_SC.jpg","",""
"explore-choice","9","102821","0.0-9.0","p704733","A1VFOKKVJ7B9D6","336OE47KI3QZCSCUXSQ8J11UOZXVWV","39ASUFLU6ZD0M1TS292LA0M4GITXE4","model","mismatch","uniform","","","","","","","3097.2000000476837","103208.39999985695","106305.59999990463","[""stimuli/WF14_SC.jpg"",""stimuli/BF05_AO.jpg"",""stimuli/BF04_CC.jpg"",""stimuli/AM03_HE.jpg""]","stimuli/WF14_SC.jpg","stimuli/BF05_AO.jpg","stimuli/BF04_CC.jpg","stimuli/AM03_HE.jpg","pos1","stimuli/WF14_SC.jpg","SC","WF14","0","1","2","2","stimuli/stars_2.png","6","[""SC"",""AO"",""CC"",""HE""]","[""WF14"",""BF05"",""BF04"",""AM03""]","[2,6,7,9]","[2,4,6,8]","","",""
"show-reward","10","104839","0.0-10.0","p704733","A1VFOKKVJ7B9D6","336OE47KI3QZCSCUXSQ8J11UOZXVWV","39ASUFLU6ZD0M1TS292LA0M4GITXE4","model","mismatch","uniform","","","","","","","","106818.5","108833.59999990463","","","","","","","","","","","","2","","stimuli/stars_2.png","6","","","","","stimuli/WF14_SC.jpg","",""
"explore-choice","11","107073","0.0-11.0","p704733","A1VFOKKVJ7B9D6","336OE47KI3QZCSCUXSQ8J11UOZXVWV","39ASUFLU6ZD0M1TS292LA0M4GITXE4","model","mismatch","uniform","","","","","","","1723.4000000953674","108836.39999985695","110559.79999995232","[""stimuli/AM03_HE.jpg"",""stimuli/WF14_CC.jpg"",""stimuli/BF05_AO.jpg"",""stimuli/BF04_SC.jpg""]","stimuli/AM03_HE.jpg","stimuli/WF14_CC.jpg","stimuli/BF05_AO.jpg","stimuli/BF04_SC.jpg","pos1","stimuli/AM03_HE.jpg","HE","AM03","0","3","6","8","stimuli/stars_6.png","9","[""HE"",""CC"",""AO"",""SC""]","[""AM03"",""WF14"",""BF05"",""BF04""]","[6,0,4,4]","[8,2,4,6]","","",""
"show-reward","12","109082","0.0-12.0","p704733","A1VFOKKVJ7B9D6","336OE47KI3QZCSCUXSQ8J11UOZXVWV","39ASUFLU6ZD0M1TS292LA0M4GITXE4","model","mismatch","uniform","","","","","","","","111069.5","113076.5","","","","","","","","","","","","6","","stimuli/stars_6.png","9","","","","","stimuli/AM03_HE.jpg","",""
"explore-choice","13","113173","0.0-13.0","p704733","A1VFOKKVJ7B9D6","336OE47KI3QZCSCUXSQ8J11UOZXVWV","39ASUFLU6ZD0M1TS292LA0M4GITXE4","model","mismatch","uniform","","","","","","","3575.9000000953674","113079.29999995232","116655.20000004768","[""stimuli/AM03_HE.jpg"",""stimuli/BF04_AO.jpg"",""stimuli/BF05_SC.jpg"",""stimuli/WF14_CC.jpg""]","stimuli/AM03_HE.jpg","stimuli/BF04_AO.jpg","stimuli/BF05_SC.jpg","stimuli/WF14_CC.jpg","pos4","stimuli/WF14_CC.jpg","CC","WF14","3","2","4","2","stimuli/stars_4.png","11","[""HE"",""AO"",""SC"",""CC""]","[""AM03"",""BF04"",""BF05"",""WF14""]","[10,7,2,4]","[8,6,4,2]","","",""
"show-reward","14","115196","0.0-14.0","p704733","A1VFOKKVJ7B9D6","336OE47KI3QZCSCUXSQ8J11UOZXVWV","39ASUFLU6ZD0M1TS292LA0M4GITXE4","model","mismatch","uniform","","","","","","","","117171.5","119190.59999990463","","","","","","","","","","","","4","","stimuli/stars_4.png","11","","","","","stimuli/WF14_CC.jpg","",""
"explore-choice","15","119618","0.0-15.0","p704733","A1VFOKKVJ7B9D6","336OE47KI3QZCSCUXSQ8J11UOZXVWV","39ASUFLU6ZD0M1TS292LA0M4GITXE4","model","mismatch","uniform","","","","","","","3908.399999856949","119193.70000004768","123102.09999990463","[""stimuli/WF14_AO.jpg"",""stimuli/BF04_HE.jpg"",""stimuli/AM03_SC.jpg"",""stimuli/BF05_CC.jpg""]","stimuli/WF14_AO.jpg","stimuli/BF04_HE.jpg","stimuli/AM03_SC.jpg","stimuli/BF05_CC.jpg","pos2","stimuli/BF04_HE.jpg","HE","BF04","1","4","8","6","stimuli/stars_8.png","15","[""AO"",""HE"",""SC"",""CC""]","[""WF14"",""BF04"",""AM03"",""BF05""]","[4,8,8,3]","[2,6,8,4]","","",""
"show-reward","16","121635","0.0-16.0","p704733","A1VFOKKVJ7B9D6","336OE47KI3QZCSCUXSQ8J11UOZXVWV","39ASUFLU6ZD0M1TS292LA0M4GITXE4","model","mismatch","uniform","","","","","","","","123615.79999995232","125629.70000004768","","","","","","","","","","","","8","","stimuli/stars_8.png","15","","","","","stimuli/BF04_HE.jpg","",""
"explore-choice","17","125623","0.0-17.0","p704733","A1VFOKKVJ7B9D6","336OE47KI3QZCSCUXSQ8J11UOZXVWV","39ASUFLU6ZD0M1TS292LA0M4GITXE4","model","mismatch","uniform","","","","","","","3478.5999999046326","125632.29999995232","129110.89999985695","[""stimuli/WF14_HE.jpg"",""stimuli/AM03_CC.jpg"",""stimuli/BF05_AO.jpg"",""stimuli/BF04_SC.jpg""]","stimuli/WF14_HE.jpg","stimuli/AM03_CC.jpg","stimuli/BF05_AO.jpg","stimuli/BF04_SC.jpg","pos1","stimuli/WF14_HE.jpg","HE","WF14","0","1","2","2","stimuli/stars_2.png","16","[""HE"",""CC"",""AO"",""SC""]","[""WF14"",""AM03"",""BF05"",""BF04""]","[2,9,2,5]","[2,8,4,6]","","",""
"show-reward","18","127641","0.0-18.0","p704733","A1VFOKKVJ7B9D6","336OE47KI3QZCSCUXSQ8J11UOZXVWV","39ASUFLU6ZD0M1TS292LA0M4GITXE4","model","mismatch","uniform","","","","","","","","129620.70000004768","131635.5","","","","","","","","","","","","2","","stimuli/stars_2.png","16","","","","","stimuli/WF14_HE.jpg","",""
"explore-choice","19","132002","0.0-19.0","p704733","A1VFOKKVJ7B9D6","336OE47KI3QZCSCUXSQ8J11UOZXVWV","39ASUFLU6ZD0M1TS292LA0M4GITXE4","model","mismatch","uniform","","","","","","","3855.100000143051","131638.59999990463","135493.70000004768","[""stimuli/AM03_AO.jpg"",""stimuli/WF14_HE.jpg"",""stimuli/BF04_CC.jpg"",""stimuli/BF05_SC.jpg""]","stimuli/AM03_AO.jpg","stimuli/WF14_HE.jpg","stimuli/BF04_CC.jpg","stimuli/BF05_SC.jpg","pos3","stimuli/BF04_CC.jpg","CC","BF04","2","2.5","5","6","stimuli/stars_5.png","18.5","[""AO"",""HE"",""CC"",""SC""]","[""AM03"",""WF14"",""BF04"",""BF05""]","[10,1,5,6]","[8,2,6,4]","","",""
"show-reward","20","134021","0.0-20.0","p704733","A1VFOKKVJ7B9D6","336OE47KI3QZCSCUXSQ8J11UOZXVWV","39ASUFLU6ZD0M1TS292LA0M4GITXE4","model","mismatch","uniform","","","","","","","","135998.79999995232","138015.20000004768","","","","","","","","","","","","5","","stimuli/stars_5.png","18.5","","","","","stimuli/BF04_CC.jpg","",""
"explore-choice","21","138912","0.0-21.0","p704733","A1VFOKKVJ7B9D6","336OE47KI3QZCSCUXSQ8J11UOZXVWV","39ASUFLU6ZD0M1TS292LA0M4GITXE4","model","mismatch","uniform","","","","","","","4379.400000095367","138017.79999995232","142397.20000004768","[""stimuli/BF05_SC.jpg"",""stimuli/AM03_CC.jpg"",""stimuli/WF14_HE.jpg"",""stimuli/BF04_AO.jpg""]","stimuli/BF05_SC.jpg","stimuli/AM03_CC.jpg","stimuli/WF14_HE.jpg","stimuli/BF04_AO.jpg","pos2","stimuli/AM03_CC.jpg","CC","AM03","1","5","10","8","stimuli/stars_10.png","23.5","[""SC"",""CC"",""HE"",""AO""]","[""BF05"",""AM03"",""WF14"",""BF04""]","[5,10,4,6]","[4,8,2,6]","","",""
"show-reward","22","140926","0.0-22.0","p704733","A1VFOKKVJ7B9D6","336OE47KI3QZCSCUXSQ8J11UOZXVWV","39ASUFLU6ZD0M1TS292LA0M4GITXE4","model","mismatch","uniform","","","","","","","","142908.20000004768","144919.70000004768","","","","","","","","","","","","10","","stimuli/stars_10.png","23.5","","","","","stimuli/AM03_CC.jpg","",""
"explore-choice","23","145676","0.0-23.0","p704733","A1VFOKKVJ7B9D6","336OE47KI3QZCSCUXSQ8J11UOZXVWV","39ASUFLU6ZD0M1TS292LA0M4GITXE4","model","mismatch","uniform","","","","","","","4232.700000047684","144922.29999995232","149155","[""stimuli/BF05_HE.jpg"",""stimuli/BF04_SC.jpg"",""stimuli/AM03_AO.jpg"",""stimuli/WF14_CC.jpg""]","stimuli/BF05_HE.jpg","stimuli/BF04_SC.jpg","stimuli/AM03_AO.jpg","stimuli/WF14_CC.jpg","pos3","stimuli/AM03_AO.jpg","AO","AM03","2","4.5","9","8","stimuli/stars_9.png","28","[""HE"",""SC"",""AO"",""CC""]","[""BF05"",""BF04"",""AM03"",""WF14""]","[6,5,9,0]","[4,6,8,2]","","",""
"show-reward","24","147687","0.0-24.0","p704733","A1VFOKKVJ7B9D6","336OE47KI3QZCSCUXSQ8J11UOZXVWV","39ASUFLU6ZD0M1TS292LA0M4GITXE4","model","mismatch","uniform","","","","","","","","149673.29999995232","151680.79999995232","","","","","","","","","","","","9","","stimuli/stars_9.png","28","","","","","stimuli/AM03_AO.jpg","",""
"explore-choice","25","149509","0.0-25.0","p704733","A1VFOKKVJ7B9D6","336OE47KI3QZCSCUXSQ8J11UOZXVWV","39ASUFLU6ZD0M1TS292LA0M4GITXE4","model","mismatch","uniform","","","","","","","1306","151683.20000004768","152989.20000004768","[""stimuli/BF05_AO.jpg"",""stimuli/WF14_HE.jpg"",""stimuli/AM03_SC.jpg"",""stimuli/BF04_CC.jpg""]","stimuli/BF05_AO.jpg","stimuli/WF14_HE.jpg","stimuli/AM03_SC.jpg","stimuli/BF04_CC.jpg","pos3","stimuli/AM03_SC.jpg","SC","AM03","2","4.5","9","8","stimuli/stars_9.png","32.5","[""AO"",""HE"",""SC"",""CC""]","[""BF05"",""WF14"",""AM03"",""BF04""]","[4,3,9,8]","[4,2,8,6]","","",""
"show-reward","26","151532","0.0-26.0","p704733","A1VFOKKVJ7B9D6","336OE47KI3QZCSCUXSQ8J11UOZXVWV","39ASUFLU6ZD0M1TS292LA0M4GITXE4","model","mismatch","uniform","","","","","","","","153505.39999985695","155525.70000004768","","","","","","","","","","","","9","","stimuli/stars_9.png","32.5","","","","","stimuli/AM03_SC.jpg","",""
"explore-choice","27","153606","0.0-27.0","p704733","A1VFOKKVJ7B9D6","336OE47KI3QZCSCUXSQ8J11UOZXVWV","39ASUFLU6ZD0M1TS292LA0M4GITXE4","model","mismatch","uniform","","","","","","","1562.9000000953674","155528.39999985695","157091.29999995232","[""stimuli/BF04_CC.jpg"",""stimuli/AM03_SC.jpg"",""stimuli/BF05_HE.jpg"",""stimuli/WF14_AO.jpg""]","stimuli/BF04_CC.jpg","stimuli/AM03_SC.jpg","stimuli/BF05_HE.jpg","stimuli/WF14_AO.jpg","pos2","stimuli/AM03_SC.jpg","SC","AM03","1","4","8","8","stimuli/stars_8.png","36.5","[""CC"",""SC"",""HE"",""AO""]","[""BF04"",""AM03"",""BF05"",""WF14""]","[6,8,3,2]","[6,8,4,2]","","",""
"show-reward","28","155624","0.0-28.0","p704733","A1VFOKKVJ7B9D6","336OE47KI3QZCSCUXSQ8J11UOZXVWV","39ASUFLU6ZD0M1TS292LA0M4GITXE4","model","mismatch","uniform","","","","","","","","157602.70000004768","159618.09999990463","","","","","","","","","","","","8","","stimuli/stars_8.png","36.5","","","","","stimuli/AM03_SC.jpg","",""
"explore-choice","29","157344","0.0-29.0","p704733","A1VFOKKVJ7B9D6","336OE47KI3QZCSCUXSQ8J11UOZXVWV","39ASUFLU6ZD0M1TS292LA0M4GITXE4","model","mismatch","uniform","","","","","","","1215.2999999523163","159620.59999990463","160835.89999985695","[""stimuli/BF04_SC.jpg"",""stimuli/WF14_HE.jpg"",""stimuli/AM03_AO.jpg"",""stimuli/BF05_CC.jpg""]","stimuli/BF04_SC.jpg","stimuli/WF14_HE.jpg","stimuli/AM03_AO.jpg","stimuli/BF05_CC.jpg","pos3","stimuli/AM03_AO.jpg","AO","AM03","2","5","10","8","stimuli/stars_10.png","41.5","[""SC"",""HE"",""AO"",""CC""]","[""BF04"",""WF14"",""AM03"",""BF05""]","[4,4,10,6]","[6,2,8,4]","","",""
"show-reward","30","159357","0.0-30.0","p704733","A1VFOKKVJ7B9D6","336OE47KI3QZCSCUXSQ8J11UOZXVWV","39ASUFLU6ZD0M1TS292LA0M4GITXE4","model","mismatch","uniform","","","","","","","","161339.89999985695","163350.39999985695","","","","","","","","","","","","10","","stimuli/stars_10.png","41.5","","","","","stimuli/AM03_AO.jpg","",""
"explore-choice","31","161128","0.0-31.0","p704733","A1VFOKKVJ7B9D6","336OE47KI3QZCSCUXSQ8J11UOZXVWV","39ASUFLU6ZD0M1TS292LA0M4GITXE4","model","mismatch","uniform","","","","","","","1257.1000001430511","163352.89999985695","164610","[""stimuli/WF14_SC.jpg"",""stimuli/BF04_HE.jpg"",""stimuli/BF05_CC.jpg"",""stimuli/AM03_AO.jpg""]","stimuli/WF14_SC.jpg","stimuli/BF04_HE.jpg","stimuli/BF05_CC.jpg","stimuli/AM03_AO.jpg","pos4","stimuli/AM03_AO.jpg","AO","AM03","3","4","8","8","stimuli/stars_8.png","45.5","[""SC"",""HE"",""CC"",""AO""]","[""WF14"",""BF04"",""BF05"",""AM03""]","[3,7,3,8]","[2,6,4,8]","","",""
"show-reward","32","163140","0.0-32.0","p704733","A1VFOKKVJ7B9D6","336OE47KI3QZCSCUXSQ8J11UOZXVWV","39ASUFLU6ZD0M1TS292LA0M4GITXE4","model","mismatch","uniform","","","","","","","","165123.39999985695","167134.09999990463","","","","","","","","","","","","8","","stimuli/stars_8.png","45.5","","","","","stimuli/AM03_AO.jpg","",""
"explore-choice","33","165272","0.0-33.0","p704733","A1VFOKKVJ7B9D6","336OE47KI3QZCSCUXSQ8J11UOZXVWV","39ASUFLU6ZD0M1TS292LA0M4GITXE4","model","mismatch","uniform","","","","","","","1623.3999998569489","167135.70000004768","168759.09999990463","[""stimuli/WF14_SC.jpg"",""stimuli/AM03_CC.jpg"",""stimuli/BF04_AO.jpg"",""stimuli/BF05_HE.jpg""]","stimuli/WF14_SC.jpg","stimuli/AM03_CC.jpg","stimuli/BF04_AO.jpg","stimuli/BF05_HE.jpg","pos2","stimuli/AM03_CC.jpg","CC","AM03","1","5","10","8","stimuli/stars_10.png","50.5","[""SC"",""CC"",""AO"",""HE""]","[""WF14"",""AM03"",""BF04"",""BF05""]","[2,10,7,2]","[2,8,6,4]","","",""
"show-reward","34","167285","0.0-34.0","p704733","A1VFOKKVJ7B9D6","336OE47KI3QZCSCUXSQ8J11UOZXVWV","39ASUFLU6ZD0M1TS292LA0M4GITXE4","model","mismatch","uniform","","","","","","","","169268.89999985695","171279.29999995232","","","","","","","","","","","","10","","stimuli/stars_10.png","50.5","","","","","stimuli/AM03_CC.jpg","",""
"explore-choice","35","169789","0.0-35.0","p704733","A1VFOKKVJ7B9D6","336OE47KI3QZCSCUXSQ8J11UOZXVWV","39ASUFLU6ZD0M1TS292LA0M4GITXE4","model","mismatch","uniform","","","","","","","1985.5999999046326","171281.79999995232","173267.39999985695","[""stimuli/BF05_HE.jpg"",""stimuli/WF14_SC.jpg"",""stimuli/BF04_CC.jpg"",""stimuli/AM03_AO.jpg""]","stimuli/BF05_HE.jpg","stimuli/WF14_SC.jpg","stimuli/BF04_CC.jpg","stimuli/AM03_AO.jpg","pos4","stimuli/AM03_AO.jpg","AO","AM03","3","4.5","9","8","stimuli/stars_9.png","55","[""HE"",""SC"",""CC"",""AO""]","[""BF05"",""WF14"",""BF04"",""AM03""]","[2,2,5,9]","[4,2,6,8]","","",""
"show-reward","36","171808","0.0-36.0","p704733","A1VFOKKVJ7B9D6","336OE47KI3QZCSCUXSQ8J11UOZXVWV","39ASUFLU6ZD0M1TS292LA0M4GITXE4","model","mismatch","uniform","","","","","","","","173785","175802.39999985695","","","","","","","","","","","","9","","stimuli/stars_9.png","55","","","","","stimuli/AM03_AO.jpg","",""
"explore-choice","37","173794","0.0-37.0","p704733","A1VFOKKVJ7B9D6","336OE47KI3QZCSCUXSQ8J11UOZXVWV","39ASUFLU6ZD0M1TS292LA0M4GITXE4","model","mismatch","uniform","","","","","","","1470.2999999523163","175804.79999995232","177275.09999990463","[""stimuli/AM03_SC.jpg"",""stimuli/BF04_HE.jpg"",""stimuli/WF14_CC.jpg"",""stimuli/BF05_AO.jpg""]","stimuli/AM03_SC.jpg","stimuli/BF04_HE.jpg","stimuli/WF14_CC.jpg","stimuli/BF05_AO.jpg","pos1","stimuli/AM03_SC.jpg","SC","AM03","0","4","8","8","stimuli/stars_8.png","59","[""SC"",""HE"",""CC"",""AO""]","[""AM03"",""BF04"",""WF14"",""BF05""]","[8,8,4,4]","[8,6,2,4]","","",""
"show-reward","38","175817","0.0-38.0","p704733","A1VFOKKVJ7B9D6","336OE47KI3QZCSCUXSQ8J11UOZXVWV","39ASUFLU6ZD0M1TS292LA0M4GITXE4","model","mismatch","uniform","","","","","","","","177790.39999985695","179811.09999990463","","","","","","","","","","","","8","","stimuli/stars_8.png","59","","","","","stimuli/AM03_SC.jpg","",""
"explore-choice","39","180493","0.0-39.0","p704733","A1VFOKKVJ7B9D6","336OE47KI3QZCSCUXSQ8J11UOZXVWV","39ASUFLU6ZD0M1TS292LA0M4GITXE4","model","mismatch","uniform","","","","","","","4173.700000047684","179813.39999985695","183987.09999990463","[""stimuli/WF14_SC.jpg"",""stimuli/AM03_HE.jpg"",""stimuli/BF04_AO.jpg"",""stimuli/BF05_CC.jpg""]","stimuli/WF14_SC.jpg","stimuli/AM03_HE.jpg","stimuli/BF04_AO.jpg","stimuli/BF05_CC.jpg","pos2","stimuli/AM03_HE.jpg","HE","AM03","1","4.5","9","8","stimuli/stars_9.png","63.5","[""SC"",""HE"",""AO"",""CC""]","[""WF14"",""AM03"",""BF04"",""BF05""]","[3,9,4,3]","[2,8,6,4]","","",""
"show-reward","40","182509","0.0-40.0","p704733","A1VFOKKVJ7B9D6","336OE47KI3QZCSCUXSQ8J11UOZXVWV","39ASUFLU6ZD0M1TS292LA0M4GITXE4","model","mismatch","uniform","","","","","","","","184489.79999995232","186503","","","","","","","","","","","","9","","stimuli/stars_9.png","63.5","","","","","stimuli/AM03_HE.jpg","",""
"explore-choice","41","184678","0.0-41.0","p704733","A1VFOKKVJ7B9D6","336OE47KI3QZCSCUXSQ8J11UOZXVWV","39ASUFLU6ZD0M1TS292LA0M4GITXE4","model","mismatch","uniform","","","","","","","1659.7999999523163","186505.79999995232","188165.59999990463","[""stimuli/WF14_AO.jpg"",""stimuli/AM03_CC.jpg"",""stimuli/BF04_HE.jpg"",""stimuli/BF05_SC.jpg""]","stimuli/WF14_AO.jpg","stimuli/AM03_CC.jpg","stimuli/BF04_HE.jpg","stimuli/BF05_SC.jpg","pos2","stimuli/AM03_CC.jpg","CC","AM03","1","3.5","7","8","stimuli/stars_7.png","67","[""AO"",""CC"",""HE"",""SC""]","[""WF14"",""AM03"",""BF04"",""BF05""]","[1,7,4,6]","[2,8,6,4]","","",""
"show-reward","42","186691","0.0-42.0","p704733","A1VFOKKVJ7B9D6","336OE47KI3QZCSCUXSQ8J11UOZXVWV","39ASUFLU6ZD0M1TS292LA0M4GITXE4","model","mismatch","uniform","","","","","","","","188673.5","190685.20000004768","","","","","","","","","","","","7","","stimuli/stars_7.png","67","","","","","stimuli/AM03_CC.jpg","",""
"explore-choice","43","188201","0.0-43.0","p704733","A1VFOKKVJ7B9D6","336OE47KI3QZCSCUXSQ8J11UOZXVWV","39ASUFLU6ZD0M1TS292LA0M4GITXE4","model","mismatch","uniform","","","","","","","1002.9000000953674","190686.39999985695","191689.29999995232","[""stimuli/AM03_AO.jpg"",""stimuli/BF04_HE.jpg"",""stimuli/BF05_SC.jpg"",""stimuli/WF14_CC.jpg""]","stimuli/AM03_AO.jpg","stimuli/BF04_HE.jpg","stimuli/BF05_SC.jpg","stimuli/WF14_CC.jpg","pos1","stimuli/AM03_AO.jpg","AO","AM03","0","5","10","8","stimuli/stars_10.png","72","[""AO"",""HE"",""SC"",""CC""]","[""AM03"",""BF04"",""BF05"",""WF14""]","[10,7,2,1]","[8,6,4,2]","","",""
"show-reward","44","190220","0.0-44.0","p704733","A1VFOKKVJ7B9D6","336OE47KI3QZCSCUXSQ8J11UOZXVWV","39ASUFLU6ZD0M1TS292LA0M4GITXE4","model","mismatch","uniform","","","","","","","","192197.39999985695","194213.79999995232","","","","","","","","","","","","10","","stimuli/stars_10.png","72","","","","","stimuli/AM03_AO.jpg","",""
"explore-choice","45","191676","0.0-45.0","p704733","A1VFOKKVJ7B9D6","336OE47KI3QZCSCUXSQ8J11UOZXVWV","39ASUFLU6ZD0M1TS292LA0M4GITXE4","model","mismatch","uniform","","","","","","","941.7000000476837","194216.39999985695","195158.09999990463","[""stimuli/BF05_CC.jpg"",""stimuli/AM03_SC.jpg"",""stimuli/WF14_HE.jpg"",""stimuli/BF04_AO.jpg""]","stimuli/BF05_CC.jpg","stimuli/AM03_SC.jpg","stimuli/WF14_HE.jpg","stimuli/BF04_AO.jpg","pos2","stimuli/AM03_SC.jpg","SC","AM03","1","4.5","9","8","stimuli/stars_9.png","76.5","[""CC"",""SC"",""HE"",""AO""]","[""BF05"",""AM03"",""WF14"",""BF04""]","[3,9,3,5]","[4,8,2,6]","","",""
"show-reward","46","193680","0.0-46.0","p704733","A1VFOKKVJ7B9D6","336OE47KI3QZCSCUXSQ8J11UOZXVWV","39ASUFLU6ZD0M1TS292LA0M4GITXE4","model","mismatch","uniform","","","","","","","","195671.29999995232","197674.09999990463","","","","","","","","","","","","9","","stimuli/stars_9.png","76.5","","","","","stimuli/AM03_SC.jpg","",""
"explore-choice","47","195524","0.0-47.0","p704733","A1VFOKKVJ7B9D6","336OE47KI3QZCSCUXSQ8J11UOZXVWV","39ASUFLU6ZD0M1TS292LA0M4GITXE4","model","mismatch","uniform","","","","","","","1341.3999998569489","197675.5","199016.89999985695","[""stimuli/BF05_HE.jpg"",""stimuli/WF14_CC.jpg"",""stimuli/AM03_SC.jpg"",""stimuli/BF04_AO.jpg""]","stimuli/BF05_HE.jpg","stimuli/WF14_CC.jpg","stimuli/AM03_SC.jpg","stimuli/BF04_AO.jpg","pos3","stimuli/AM03_SC.jpg","SC","AM03","2","4","8","8","stimuli/stars_8.png","80.5","[""HE"",""CC"",""SC"",""AO""]","[""BF05"",""WF14"",""AM03"",""BF04""]","[2,0,8,4]","[4,2,8,6]","","",""
"show-reward","48","197533","0.0-48.0","p704733","A1VFOKKVJ7B9D6","336OE47KI3QZCSCUXSQ8J11UOZXVWV","39ASUFLU6ZD0M1TS292LA0M4GITXE4","model","mismatch","uniform","","","","","","","","199520.20000004768","201526.79999995232","","","","","","","","","","","","8","","stimuli/stars_8.png","80.5","","","","","stimuli/AM03_SC.jpg","",""
"explore-choice","49","199371","0.0-49.0","p704733","A1VFOKKVJ7B9D6","336OE47KI3QZCSCUXSQ8J11UOZXVWV","39ASUFLU6ZD0M1TS292LA0M4GITXE4","model","mismatch","uniform","","","","","","","1320.2999999523163","201529.09999990463","202849.39999985695","[""stimuli/BF05_CC.jpg"",""stimuli/BF04_SC.jpg"",""stimuli/WF14_AO.jpg"",""stimuli/AM03_HE.jpg""]","stimuli/BF05_CC.jpg","stimuli/BF04_SC.jpg","stimuli/WF14_AO.jpg","stimuli/AM03_HE.jpg","pos4","stimuli/AM03_HE.jpg","HE","AM03","3","4.5","9","8","stimuli/stars_9.png","85","[""CC"",""SC"",""AO"",""HE""]","[""BF05"",""BF04"",""WF14"",""AM03""]","[4,4,0,9]","[4,6,2,8]","","",""
"show-reward","50","201388","0.0-50.0","p704733","A1VFOKKVJ7B9D6","336OE47KI3QZCSCUXSQ8J11UOZXVWV","39ASUFLU6ZD0M1TS292LA0M4GITXE4","model","mismatch","uniform","","","","","","","","203367.89999985695","205382.29999995232","","","","","","","","","","","","9","","stimuli/stars_9.png","85","","","","","stimuli/AM03_HE.jpg","",""
"explore-choice","51","203965","0.0-51.0","p704733","A1VFOKKVJ7B9D6","336OE47KI3QZCSCUXSQ8J11UOZXVWV","39ASUFLU6ZD0M1TS292LA0M4GITXE4","model","mismatch","uniform","","","","","","","2062.0999999046326","205385.20000004768","207447.29999995232","[""stimuli/AM03_CC.jpg"",""stimuli/WF14_SC.jpg"",""stimuli/BF05_AO.jpg"",""stimuli/BF04_HE.jpg""]","stimuli/AM03_CC.jpg","stimuli/WF14_SC.jpg","stimuli/BF05_AO.jpg","stimuli/BF04_HE.jpg","pos1","stimuli/AM03_CC.jpg","CC","AM03","0","4","8","8","stimuli/stars_8.png","89","[""CC"",""SC"",""AO"",""HE""]","[""AM03"",""WF14"",""BF05"",""BF04""]","[8,1,4,8]","[8,2,4,6]","","",""
"show-reward","52","205989","0.0-52.0","p704733","A1VFOKKVJ7B9D6","336OE47KI3QZCSCUXSQ8J11UOZXVWV","39ASUFLU6ZD0M1TS292LA0M4GITXE4","model","mismatch","uniform","","","","","","","","207961.39999985695","209982.39999985695","","","","","","","","","","","","8","","stimuli/stars_8.png","89","","","","","stimuli/AM03_CC.jpg","",""
"explore-choice","53","207853","0.0-53.0","p704733","A1VFOKKVJ7B9D6","336OE47KI3QZCSCUXSQ8J11UOZXVWV","39ASUFLU6ZD0M1TS292LA0M4GITXE4","model","mismatch","uniform","","","","","","","1358.2999999523163","209985","211343.29999995232","[""stimuli/BF05_SC.jpg"",""stimuli/WF14_AO.jpg"",""stimuli/BF04_CC.jpg"",""stimuli/AM03_HE.jpg""]","stimuli/BF05_SC.jpg","stimuli/WF14_AO.jpg","stimuli/BF04_CC.jpg","stimuli/AM03_HE.jpg","pos4","stimuli/AM03_HE.jpg","HE","AM03","3","4","8","8","stimuli/stars_8.png","93","[""SC"",""AO"",""CC"",""HE""]","[""BF05"",""WF14"",""BF04"",""AM03""]","[6,0,7,8]","[4,2,6,8]","","",""
"show-reward","54","209863","0.0-54.0","p704733","A1VFOKKVJ7B9D6","336OE47KI3QZCSCUXSQ8J11UOZXVWV","39ASUFLU6ZD0M1TS292LA0M4GITXE4","model","mismatch","uniform","","","","","","","","211849.5","213857.20000004768","","","","","","","","","","","","8","","stimuli/stars_8.png","93","","","","","stimuli/AM03_HE.jpg","",""
"explore-choice","55","213716","0.0-55.0","p704733","A1VFOKKVJ7B9D6","336OE47KI3QZCSCUXSQ8J11UOZXVWV","39ASUFLU6ZD0M1TS292LA0M4GITXE4","model","mismatch","uniform","","","","","","","3343.5","213859.70000004768","217203.20000004768","[""stimuli/BF04_SC.jpg"",""stimuli/AM03_CC.jpg"",""stimuli/BF05_AO.jpg"",""stimuli/WF14_HE.jpg""]","stimuli/BF04_SC.jpg","stimuli/AM03_CC.jpg","stimuli/BF05_AO.jpg","stimuli/WF14_HE.jpg","pos2","stimuli/AM03_CC.jpg","CC","AM03","1","4.5","9","8","stimuli/stars_9.png","97.5","[""SC"",""CC"",""AO"",""HE""]","[""BF04"",""AM03"",""BF05"",""WF14""]","[5,9,2,2]","[6,8,4,2]","","",""
"show-reward","56","215724","0.0-56.0","p704733","A1VFOKKVJ7B9D6","336OE47KI3QZCSCUXSQ8J11UOZXVWV","39ASUFLU6ZD0M1TS292LA0M4GITXE4","model","mismatch","uniform","","","","","","","","217712.39999985695","219718.5","","","","","","","","","","","","9","","stimuli/stars_9.png","97.5","","","","","stimuli/AM03_CC.jpg","",""
"explore-choice","57","217297","0.0-57.0","p704733","A1VFOKKVJ7B9D6","336OE47KI3QZCSCUXSQ8J11UOZXVWV","39ASUFLU6ZD0M1TS292LA0M4GITXE4","model","mismatch","uniform","","","","","","","1057.8999998569489","219721.20000004768","220779.09999990463","[""stimuli/AM03_HE.jpg"",""stimuli/BF05_SC.jpg"",""stimuli/WF14_CC.jpg"",""stimuli/BF04_AO.jpg""]","stimuli/AM03_HE.jpg","stimuli/BF05_SC.jpg","stimuli/WF14_CC.jpg","stimuli/BF04_AO.jpg","pos1","stimuli/AM03_HE.jpg","HE","AM03","0","5","10","8","stimuli/stars_10.png","102.5","[""HE"",""SC"",""CC"",""AO""]","[""AM03"",""BF05"",""WF14"",""BF04""]","[10,2,4,7]","[8,4,2,6]","","",""
"show-reward","58","219315","0.0-58.0","p704733","A1VFOKKVJ7B9D6","336OE47KI3QZCSCUXSQ8J11UOZXVWV","39ASUFLU6ZD0M1TS292LA0M4GITXE4","model","mismatch","uniform","","","","","","","","221293.09999990463","223309","","","","","","","","","","","","10","","stimuli/stars_10.png","102.5","","","","","stimuli/AM03_HE.jpg","",""
"explore-choice","59","221582","0.0-59.0","p704733","A1VFOKKVJ7B9D6","336OE47KI3QZCSCUXSQ8J11UOZXVWV","39ASUFLU6ZD0M1TS292LA0M4GITXE4","model","mismatch","uniform","","","","","","","1759.5","223312","225071.5","[""stimuli/WF14_CC.jpg"",""stimuli/BF04_AO.jpg"",""stimuli/BF05_HE.jpg"",""stimuli/AM03_SC.jpg""]","stimuli/WF14_CC.jpg","stimuli/BF04_AO.jpg","stimuli/BF05_HE.jpg","stimuli/AM03_SC.jpg","pos4","stimuli/AM03_SC.jpg","SC","AM03","3","4","8","8","stimuli/stars_8.png","106.5","[""CC"",""AO"",""HE"",""SC""]","[""WF14"",""BF04"",""BF05"",""AM03""]","[0,4,2,8]","[2,6,4,8]","","",""
"show-reward","60","223600","0.0-60.0","p704733","A1VFOKKVJ7B9D6","336OE47KI3QZCSCUXSQ8J11UOZXVWV","39ASUFLU6ZD0M1TS292LA0M4GITXE4","model","mismatch","uniform","","","","","","","","225578.89999985695","227594.59999990463","","","","","","","","","","","","8","","stimuli/stars_8.png","106.5","","","","","stimuli/AM03_SC.jpg","",""
"explore-choice","61","226141","0.0-61.0","p704733","A1VFOKKVJ7B9D6","336OE47KI3QZCSCUXSQ8J11UOZXVWV","39ASUFLU6ZD0M1TS292LA0M4GITXE4","model","mismatch","uniform","","","","","","","2034","227596.89999985695","229630.89999985695","[""stimuli/AM03_SC.jpg"",""stimuli/BF04_CC.jpg"",""stimuli/WF14_HE.jpg"",""stimuli/BF05_AO.jpg""]","stimuli/AM03_SC.jpg","stimuli/BF04_CC.jpg","stimuli/WF14_HE.jpg","stimuli/BF05_AO.jpg","pos1","stimuli/AM03_SC.jpg","SC","AM03","0","4.5","9","8","stimuli/stars_9.png","111","[""SC"",""CC"",""HE"",""AO""]","[""AM03"",""BF04"",""WF14"",""BF05""]","[9,8,3,4]","[8,6,2,4]","","",""
"show-reward","62","228153","0.0-62.0","p704733","A1VFOKKVJ7B9D6","336OE47KI3QZCSCUXSQ8J11UOZXVWV","39ASUFLU6ZD0M1TS292LA0M4GITXE4","model","mismatch","uniform","","","","","","","","230137.20000004768","232147.09999990463","","","","","","","","","","","","9","","stimuli/stars_9.png","111","","","","","stimuli/AM03_SC.jpg","",""
"explore-choice","63","229684","0.0-63.0","p704733","A1VFOKKVJ7B9D6","336OE47KI3QZCSCUXSQ8J11UOZXVWV","39ASUFLU6ZD0M1TS292LA0M4GITXE4","model","mismatch","uniform","","","","","","","1018.3000001907349","232149.89999985695","233168.20000004768","[""stimuli/BF05_AO.jpg"",""stimuli/AM03_HE.jpg"",""stimuli/WF14_CC.jpg"",""stimuli/BF04_SC.jpg""]","stimuli/BF05_AO.jpg","stimuli/AM03_HE.jpg","stimuli/WF14_CC.jpg","stimuli/BF04_SC.jpg","pos2","stimuli/AM03_HE.jpg","HE","AM03","1","3","6","8","stimuli/stars_6.png","114","[""AO"",""HE"",""CC"",""SC""]","[""BF05"",""AM03"",""WF14"",""BF04""]","[4,6,0,4]","[4,8,2,6]","","",""
"show-reward","64","231702","0.0-64.0","p704733","A1VFOKKVJ7B9D6","336OE47KI3QZCSCUXSQ8J11UOZXVWV","39ASUFLU6ZD0M1TS292LA0M4GITXE4","model","mismatch","uniform","","","","","","","","233680","235696.79999995232","","","","","","","","","","","","6","","stimuli/stars_6.png","114","","","","","stimuli/AM03_HE.jpg","",""
"explore-choice","65","233015","0.0-65.0","p704733","A1VFOKKVJ7B9D6","336OE47KI3QZCSCUXSQ8J11UOZXVWV","39ASUFLU6ZD0M1TS292LA0M4GITXE4","model","mismatch","uniform","","","","","","","806.8999998569489","235698","236504.89999985695","[""stimuli/AM03_HE.jpg"",""stimuli/BF05_SC.jpg"",""stimuli/WF14_AO.jpg"",""stimuli/BF04_CC.jpg""]","stimuli/AM03_HE.jpg","stimuli/BF05_SC.jpg","stimuli/WF14_AO.jpg","stimuli/BF04_CC.jpg","pos1","stimuli/AM03_HE.jpg","HE","AM03","0","4","8","8","stimuli/stars_8.png","118","[""HE"",""SC"",""AO"",""CC""]","[""AM03"",""BF05"",""WF14"",""BF04""]","[8,6,0,7]","[8,4,2,6]","","",""
"show-reward","66","235037","0.0-66.0","p704733","A1VFOKKVJ7B9D6","336OE47KI3QZCSCUXSQ8J11UOZXVWV","39ASUFLU6ZD0M1TS292LA0M4GITXE4","model","mismatch","uniform","","","","","","","","237011.79999995232","239031.09999990463","","","","","","","","","","","","8","","stimuli/stars_8.png","118","","","","","stimuli/AM03_HE.jpg","",""
"explore-choice","67","236802","0.0-67.0","p704733","A1VFOKKVJ7B9D6","336OE47KI3QZCSCUXSQ8J11UOZXVWV","39ASUFLU6ZD0M1TS292LA0M4GITXE4","model","mismatch","uniform","","","","","","","1253.7999999523163","239033.5","240287.29999995232","[""stimuli/BF04_AO.jpg"",""stimuli/BF05_CC.jpg"",""stimuli/WF14_SC.jpg"",""stimuli/AM03_HE.jpg""]","stimuli/BF04_AO.jpg","stimuli/BF05_CC.jpg","stimuli/WF14_SC.jpg","stimuli/AM03_HE.jpg","pos4","stimuli/AM03_HE.jpg","HE","AM03","3","4.5","9","8","stimuli/stars_9.png","122.5","[""AO"",""CC"",""SC"",""HE""]","[""BF04"",""BF05"",""WF14"",""AM03""]","[4,3,3,9]","[6,4,2,8]","","",""
"show-reward","68","238815","0.0-68.0","p704733","A1VFOKKVJ7B9D6","336OE47KI3QZCSCUXSQ8J11UOZXVWV","39ASUFLU6ZD0M1TS292LA0M4GITXE4","model","mismatch","uniform","","","","","","","","240798.59999990463","242809.20000004768","","","","","","","","","","","","9","","stimuli/stars_9.png","122.5","","","","","stimuli/AM03_HE.jpg","",""
"explore-choice","69","240467","0.0-69.0","p704733","A1VFOKKVJ7B9D6","336OE47KI3QZCSCUXSQ8J11UOZXVWV","39ASUFLU6ZD0M1TS292LA0M4GITXE4","model","mismatch","uniform","","","","","","","1143.2000000476837","242811.79999995232","243955","[""stimuli/WF14_SC.jpg"",""stimuli/AM03_CC.jpg"",""stimuli/BF04_HE.jpg"",""stimuli/BF05_AO.jpg""]","stimuli/WF14_SC.jpg","stimuli/AM03_CC.jpg","stimuli/BF04_HE.jpg","stimuli/BF05_AO.jpg","pos2","stimuli/AM03_CC.jpg","CC","AM03","1","4","8","8","stimuli/stars_8.png","126.5","[""SC"",""CC"",""HE"",""AO""]","[""WF14"",""AM03"",""BF04"",""BF05""]","[1,8,8,4]","[2,8,6,4]","","",""
"show-reward","70","242486","0.0-70.0","p704733","A1VFOKKVJ7B9D6","336OE47KI3QZCSCUXSQ8J11UOZXVWV","39ASUFLU6ZD0M1TS292LA0M4GITXE4","model","mismatch","uniform","","","","","","","","244463.59999990463","246480.5","","","","","","","","","","","","8","","stimuli/stars_8.png","126.5","","","","","stimuli/AM03_CC.jpg","",""
"explore-choice","71","243913","0.0-71.0","p704733","A1VFOKKVJ7B9D6","336OE47KI3QZCSCUXSQ8J11UOZXVWV","39ASUFLU6ZD0M1TS292LA0M4GITXE4","model","mismatch","uniform","","","","","","","911.4000000953674","246481.79999995232","247393.20000004768","[""stimuli/BF04_CC.jpg"",""stimuli/AM03_AO.jpg"",""stimuli/BF05_HE.jpg"",""stimuli/WF14_SC.jpg""]","stimuli/BF04_CC.jpg","stimuli/AM03_AO.jpg","stimuli/BF05_HE.jpg","stimuli/WF14_SC.jpg","pos2","stimuli/AM03_AO.jpg","AO","AM03","1","4.5","9","8","stimuli/stars_9.png","131","[""CC"",""AO"",""HE"",""SC""]","[""BF04"",""AM03"",""BF05"",""WF14""]","[5,9,2,2]","[6,8,4,2]","","",""
"show-reward","72","245931","0.0-72.0","p704733","A1VFOKKVJ7B9D6","336OE47KI3QZCSCUXSQ8J11UOZXVWV","39ASUFLU6ZD0M1TS292LA0M4GITXE4","model","mismatch","uniform","","","","","","","","247909.5","249925.29999995232","","","","","","","","","","","","9","","stimuli/stars_9.png","131","","","","","stimuli/AM03_AO.jpg","",""
"explore-choice","73","247592","0.0-73.0","p704733","A1VFOKKVJ7B9D6","336OE47KI3QZCSCUXSQ8J11UOZXVWV","39ASUFLU6ZD0M1TS292LA0M4GITXE4","model","mismatch","uniform","","","","","","","1158.7999999523163","249926.5","251085.29999995232","[""stimuli/WF14_HE.jpg"",""stimuli/BF04_AO.jpg"",""stimuli/BF05_SC.jpg"",""stimuli/AM03_CC.jpg""]","stimuli/WF14_HE.jpg","stimuli/BF04_AO.jpg","stimuli/BF05_SC.jpg","stimuli/AM03_CC.jpg","pos4","stimuli/AM03_CC.jpg","CC","AM03","3","5","10","8","stimuli/stars_10.png","136","[""HE"",""AO"",""SC"",""CC""]","[""WF14"",""BF04"",""BF05"",""AM03""]","[4,6,5,10]","[2,6,4,8]","","",""
"show-reward","74","249611","0.0-74.0","p704733","A1VFOKKVJ7B9D6","336OE47KI3QZCSCUXSQ8J11UOZXVWV","39ASUFLU6ZD0M1TS292LA0M4GITXE4","model","mismatch","uniform","","","","","","","","251588.70000004768","253604.5","","","","","","","","","","","","10","","stimuli/stars_10.png","136","","","","","stimuli/AM03_CC.jpg","",""
"explore-choice","75","251615","0.0-75.0","p704733","A1VFOKKVJ7B9D6","336OE47KI3QZCSCUXSQ8J11UOZXVWV","39ASUFLU6ZD0M1TS292LA0M4GITXE4","model","mismatch","uniform","","","","","","","1500.5","253607.29999995232","255107.79999995232","[""stimuli/BF05_CC.jpg"",""stimuli/AM03_SC.jpg"",""stimuli/WF14_AO.jpg"",""stimuli/BF04_HE.jpg""]","stimuli/BF05_CC.jpg","stimuli/AM03_SC.jpg","stimuli/WF14_AO.jpg","stimuli/BF04_HE.jpg","pos4","stimuli/BF04_HE.jpg","HE","BF04","3","4","8","6","stimuli/stars_8.png","140","[""CC"",""SC"",""AO"",""HE""]","[""BF05"",""AM03"",""WF14"",""BF04""]","[3,8,4,8]","[4,8,2,6]","","",""
"show-reward","76","253631","0.0-76.0","p704733","A1VFOKKVJ7B9D6","336OE47KI3QZCSCUXSQ8J11UOZXVWV","39ASUFLU6ZD0M1TS292LA0M4GITXE4","model","mismatch","uniform","","","","","","","","255611.39999985695","257624.5","","","","","","","","","","","","8","","stimuli/stars_8.png","140","","","","","stimuli/BF04_HE.jpg","",""
"explore-choice","77","255062","0.0-77.0","p704733","A1VFOKKVJ7B9D6","336OE47KI3QZCSCUXSQ8J11UOZXVWV","39ASUFLU6ZD0M1TS292LA0M4GITXE4","model","mismatch","uniform","","","","","","","928.0999999046326","257627.29999995232","258555.39999985695","[""stimuli/AM03_CC.jpg"",""stimuli/WF14_AO.jpg"",""stimuli/BF04_HE.jpg"",""stimuli/BF05_SC.jpg""]","stimuli/AM03_CC.jpg","stimuli/WF14_AO.jpg","stimuli/BF04_HE.jpg","stimuli/BF05_SC.jpg","pos3","stimuli/BF04_HE.jpg","HE","BF04","2","2","4","6","stimuli/stars_4.png","142","[""CC"",""AO"",""HE"",""SC""]","[""AM03"",""WF14"",""BF04"",""BF05""]","[7,1,4,6]","[8,2,6,4]","","",""
"show-reward","78","257071","0.0-78.0","p704733","A1VFOKKVJ7B9D6","336OE47KI3QZCSCUXSQ8J11UOZXVWV","39ASUFLU6ZD0M1TS292LA0M4GITXE4","model","mismatch","uniform","","","","","","","","259058.29999995232","261064.39999985695","","","","","","","","","","","","4","","stimuli/stars_4.png","142","","","","","stimuli/BF04_HE.jpg","",""
"explore-choice","79","258826","0.0-79.0","p704733","A1VFOKKVJ7B9D6","336OE47KI3QZCSCUXSQ8J11UOZXVWV","39ASUFLU6ZD0M1TS292LA0M4GITXE4","model","mismatch","uniform","","","","","","","1238.1999998092651","261067.20000004768","262305.39999985695","[""stimuli/WF14_AO.jpg"",""stimuli/AM03_CC.jpg"",""stimuli/BF04_SC.jpg"",""stimuli/BF05_HE.jpg""]","stimuli/WF14_AO.jpg","stimuli/AM03_CC.jpg","stimuli/BF04_SC.jpg","stimuli/BF05_HE.jpg","pos2","stimuli/AM03_CC.jpg","CC","AM03","1","4","8","8","stimuli/stars_8.png","146","[""AO"",""CC"",""SC"",""HE""]","[""WF14"",""AM03"",""BF04"",""BF05""]","[4,8,8,5]","[2,8,6,4]","","",""
"show-reward","80","260848","0.0-80.0","p704733","A1VFOKKVJ7B9D6","336OE47KI3QZCSCUXSQ8J11UOZXVWV","39ASUFLU6ZD0M1TS292LA0M4GITXE4","model","mismatch","uniform","","","","","","","","262822.09999990463","264841.7999999523","","","","","","","","","","","","8","","stimuli/stars_8.png","146","","","","","stimuli/AM03_CC.jpg","",""
"explore-choice","81","264034","0.0-81.0","p704733","A1VFOKKVJ7B9D6","336OE47KI3QZCSCUXSQ8J11UOZXVWV","39ASUFLU6ZD0M1TS292LA0M4GITXE4","model","mismatch","uniform","","","","","","","2676","264843.2000000477","267519.2000000477","[""stimuli/WF14_HE.jpg"",""stimuli/BF04_CC.jpg"",""stimuli/BF05_SC.jpg"",""stimuli/AM03_AO.jpg""]","stimuli/WF14_HE.jpg","stimuli/BF04_CC.jpg","stimuli/BF05_SC.jpg","stimuli/AM03_AO.jpg","pos4","stimuli/AM03_AO.jpg","AO","AM03","3","5","10","8","stimuli/stars_10.png","151","[""HE"",""CC"",""SC"",""AO""]","[""WF14"",""BF04"",""BF05"",""AM03""]","[1,5,6,10]","[2,6,4,8]","","",""
"show-reward","82","266049","0.0-82.0","p704733","A1VFOKKVJ7B9D6","336OE47KI3QZCSCUXSQ8J11UOZXVWV","39ASUFLU6ZD0M1TS292LA0M4GITXE4","model","mismatch","uniform","","","","","","","","268030.2999999523","270042.39999985695","","","","","","","","","","","","10","","stimuli/stars_10.png","151","","","","","stimuli/AM03_AO.jpg","",""
"explore-choice","83","268071","0.0-83.0","p704733","A1VFOKKVJ7B9D6","336OE47KI3QZCSCUXSQ8J11UOZXVWV","39ASUFLU6ZD0M1TS292LA0M4GITXE4","model","mismatch","uniform","","","","","","","1514.1000001430511","270045.39999985695","271559.5","[""stimuli/AM03_SC.jpg"",""stimuli/WF14_CC.jpg"",""stimuli/BF04_HE.jpg"",""stimuli/BF05_AO.jpg""]","stimuli/AM03_SC.jpg","stimuli/WF14_CC.jpg","stimuli/BF04_HE.jpg","stimuli/BF05_AO.jpg","pos1","stimuli/AM03_SC.jpg","SC","AM03","0","4","8","8","stimuli/stars_8.png","155","[""SC"",""CC"",""HE"",""AO""]","[""AM03"",""WF14"",""BF04"",""BF05""]","[8,4,8,4]","[8,2,6,4]","","",""
"show-reward","84","270079","0.0-84.0","p704733","A1VFOKKVJ7B9D6","336OE47KI3QZCSCUXSQ8J11UOZXVWV","39ASUFLU6ZD0M1TS292LA0M4GITXE4","model","mismatch","uniform","","","","","","","","272066.89999985695","274072.59999990463","","","","","","","","","","","","8","","stimuli/stars_8.png","155","","","","","stimuli/AM03_SC.jpg","",""
"explore-choice","85","272099","0.0-85.0","p704733","A1VFOKKVJ7B9D6","336OE47KI3QZCSCUXSQ8J11UOZXVWV","39ASUFLU6ZD0M1TS292LA0M4GITXE4","model","mismatch","uniform","","","","","","","1517.3000001907349","274073.89999985695","275591.2000000477","[""stimuli/BF04_SC.jpg"",""stimuli/AM03_HE.jpg"",""stimuli/WF14_AO.jpg"",""stimuli/BF05_CC.jpg""]","stimuli/BF04_SC.jpg","stimuli/AM03_HE.jpg","stimuli/WF14_AO.jpg","stimuli/BF05_CC.jpg","pos2","stimuli/AM03_HE.jpg","HE","AM03","1","4.5","9","8","stimuli/stars_9.png","159.5","[""SC"",""HE"",""AO"",""CC""]","[""BF04"",""AM03"",""WF14"",""BF05""]","[4,9,0,4]","[6,8,2,4]","","",""
"show-reward","86","274119","0.0-86.0","p704733","A1VFOKKVJ7B9D6","336OE47KI3QZCSCUXSQ8J11UOZXVWV","39ASUFLU6ZD0M1TS292LA0M4GITXE4","model","mismatch","uniform","","","","","","","","276094.89999985695","278112.39999985695","","","","","","","","","","","","9","","stimuli/stars_9.png","159.5","","","","","stimuli/AM03_HE.jpg","",""
"explore-choice","87","276062","0.0-87.0","p704733","A1VFOKKVJ7B9D6","336OE47KI3QZCSCUXSQ8J11UOZXVWV","39ASUFLU6ZD0M1TS292LA0M4GITXE4","model","mismatch","uniform","","","","","","","1429.8999998569489","278115.5","279545.39999985695","[""stimuli/BF05_HE.jpg"",""stimuli/BF04_AO.jpg"",""stimuli/AM03_CC.jpg"",""stimuli/WF14_SC.jpg""]","stimuli/BF05_HE.jpg","stimuli/BF04_AO.jpg","stimuli/AM03_CC.jpg","stimuli/WF14_SC.jpg","pos3","stimuli/AM03_CC.jpg","CC","AM03","2","5","10","8","stimuli/stars_10.png","164.5","[""HE"",""AO"",""CC"",""SC""]","[""BF05"",""BF04"",""AM03"",""WF14""]","[2,7,10,2]","[4,6,8,2]","","",""
"show-reward","88","278081","0.0-88.0","p704733","A1VFOKKVJ7B9D6","336OE47KI3QZCSCUXSQ8J11UOZXVWV","39ASUFLU6ZD0M1TS292LA0M4GITXE4","model","mismatch","uniform","","","","","","","","280058.39999985695","282074.2999999523","","","","","","","","","","","","10","","stimuli/stars_10.png","164.5","","","","","stimuli/AM03_CC.jpg","",""
"explore-choice","89","279992","0.0-89.0","p704733","A1VFOKKVJ7B9D6","336OE47KI3QZCSCUXSQ8J11UOZXVWV","39ASUFLU6ZD0M1TS292LA0M4GITXE4","model","mismatch","uniform","","","","","","","1406.2999999523163","282077.09999990463","283483.39999985695","[""stimuli/WF14_HE.jpg"",""stimuli/BF04_SC.jpg"",""stimuli/BF05_CC.jpg"",""stimuli/AM03_AO.jpg""]","stimuli/WF14_HE.jpg","stimuli/BF04_SC.jpg","stimuli/BF05_CC.jpg","stimuli/AM03_AO.jpg","pos4","stimuli/AM03_AO.jpg","AO","AM03","3","5","10","8","stimuli/stars_10.png","169.5","[""HE"",""SC"",""CC"",""AO""]","[""WF14"",""BF04"",""BF05"",""AM03""]","[4,4,6,10]","[2,6,4,8]","","",""
"show-reward","90","282016","0.0-90.0","p704733","A1VFOKKVJ7B9D6","336OE47KI3QZCSCUXSQ8J11UOZXVWV","39ASUFLU6ZD0M1TS292LA0M4GITXE4","model","mismatch","uniform","","","","","","","","283988.7999999523","286009.7000000477","","","","","","","","","","","","10","","stimuli/stars_10.png","169.5","","","","","stimuli/AM03_AO.jpg","",""
"explore-choice","91","283731","0.0-91.0","p704733","A1VFOKKVJ7B9D6","336OE47KI3QZCSCUXSQ8J11UOZXVWV","39ASUFLU6ZD0M1TS292LA0M4GITXE4","model","mismatch","uniform","","","","","","","1211","286012.2000000477","287223.2000000477","[""stimuli/AM03_AO.jpg"",""stimuli/BF05_CC.jpg"",""stimuli/WF14_SC.jpg"",""stimuli/BF04_HE.jpg""]","stimuli/AM03_AO.jpg","stimuli/BF05_CC.jpg","stimuli/WF14_SC.jpg","stimuli/BF04_HE.jpg","pos1","stimuli/AM03_AO.jpg","AO","AM03","0","4","8","8","stimuli/stars_8.png","173.5","[""AO"",""CC"",""SC"",""HE""]","[""AM03"",""BF05"",""WF14"",""BF04""]","[8,3,3,7]","[8,4,2,6]","","",""
"show-reward","92","285743","0.0-92.0","p704733","A1VFOKKVJ7B9D6","336OE47KI3QZCSCUXSQ8J11UOZXVWV","39ASUFLU6ZD0M1TS292LA0M4GITXE4","model","mismatch","uniform","","","","","","","","287727.09999990463","289736.7999999523","","","","","","","","","","","","8","","stimuli/stars_8.png","173.5","","","","","stimuli/AM03_AO.jpg","",""
"explore-choice","93","291749","0.0-93.0","p704733","A1VFOKKVJ7B9D6","336OE47KI3QZCSCUXSQ8J11UOZXVWV","39ASUFLU6ZD0M1TS292LA0M4GITXE4","model","mismatch","uniform","","","","","","","5494.599999904633","289739","295233.59999990463","[""stimuli/BF04_CC.jpg"",""stimuli/WF14_AO.jpg"",""stimuli/BF05_HE.jpg"",""stimuli/AM03_SC.jpg""]","stimuli/BF04_CC.jpg","stimuli/WF14_AO.jpg","stimuli/BF05_HE.jpg","stimuli/AM03_SC.jpg","pos4","stimuli/AM03_SC.jpg","SC","AM03","3","4","8","8","stimuli/stars_8.png","177.5","[""CC"",""AO"",""HE"",""SC""]","[""BF04"",""WF14"",""BF05"",""AM03""]","[6,2,3,8]","[6,2,4,8]","","",""
"show-reward","94","293768","0.0-94.0","p704733","A1VFOKKVJ7B9D6","336OE47KI3QZCSCUXSQ8J11UOZXVWV","39ASUFLU6ZD0M1TS292LA0M4GITXE4","model","mismatch","uniform","","","","","","","","295746","297761.7999999523","","","","","","","","","","","","8","","stimuli/stars_8.png","177.5","","","","","stimuli/AM03_SC.jpg","",""
"explore-choice","95","297363","0.0-95.0","p704733","A1VFOKKVJ7B9D6","336OE47KI3QZCSCUXSQ8J11UOZXVWV","39ASUFLU6ZD0M1TS292LA0M4GITXE4","model","mismatch","uniform","","","","","","","3076.0999999046326","297764.2999999523","300840.39999985695","[""stimuli/WF14_SC.jpg"",""stimuli/AM03_HE.jpg"",""stimuli/BF05_AO.jpg"",""stimuli/BF04_CC.jpg""]","stimuli/WF14_SC.jpg","stimuli/AM03_HE.jpg","stimuli/BF05_AO.jpg","stimuli/BF04_CC.jpg","pos2","stimuli/AM03_HE.jpg","HE","AM03","1","4.5","9","8","stimuli/stars_9.png","182","[""SC"",""HE"",""AO"",""CC""]","[""WF14"",""AM03"",""BF05"",""BF04""]","[2,9,6,7]","[2,8,4,6]","","",""
"show-reward","96","299381","0.0-96.0","p704733","A1VFOKKVJ7B9D6","336OE47KI3QZCSCUXSQ8J11UOZXVWV","39ASUFLU6ZD0M1TS292LA0M4GITXE4","model","mismatch","uniform","","","","","","","","301359.5","303374.2000000477","","","","","","","","","","","","9","","stimuli/stars_9.png","182","","","","","stimuli/AM03_HE.jpg","",""
"explore-choice","97","301444","0.0-97.0","p704733","A1VFOKKVJ7B9D6","336OE47KI3QZCSCUXSQ8J11UOZXVWV","39ASUFLU6ZD0M1TS292LA0M4GITXE4","model","mismatch","uniform","","","","","","","1560.2000000476837","303377","304937.2000000477","[""stimuli/WF14_HE.jpg"",""stimuli/BF05_CC.jpg"",""stimuli/AM03_SC.jpg"",""stimuli/BF04_AO.jpg""]","stimuli/WF14_HE.jpg","stimuli/BF05_CC.jpg","stimuli/AM03_SC.jpg","stimuli/BF04_AO.jpg","pos3","stimuli/AM03_SC.jpg","SC","AM03","2","4.5","9","8","stimuli/stars_9.png","186.5","[""HE"",""CC"",""SC"",""AO""]","[""WF14"",""BF05"",""AM03"",""BF04""]","[3,3,9,5]","[2,4,8,6]","","",""
"show-reward","98","303463","0.0-98.0","p704733","A1VFOKKVJ7B9D6","336OE47KI3QZCSCUXSQ8J11UOZXVWV","39ASUFLU6ZD0M1TS292LA0M4GITXE4","model","mismatch","uniform","","","","","","","","305440.39999985695","307456.7999999523","","","","","","","","","","","","9","","stimuli/stars_9.png","186.5","","","","","stimuli/AM03_SC.jpg","",""
"explore-choice","99","305118","0.0-99.0","p704733","A1VFOKKVJ7B9D6","336OE47KI3QZCSCUXSQ8J11UOZXVWV","39ASUFLU6ZD0M1TS292LA0M4GITXE4","model","mismatch","uniform","","","","","","","1145.8999998569489","307459.2000000477","308605.09999990463","[""stimuli/BF04_HE.jpg"",""stimuli/AM03_AO.jpg"",""stimuli/BF05_SC.jpg"",""stimuli/WF14_CC.jpg""]","stimuli/BF04_HE.jpg","stimuli/AM03_AO.jpg","stimuli/BF05_SC.jpg","stimuli/WF14_CC.jpg","pos2","stimuli/AM03_AO.jpg","AO","AM03","1","5","10","8","stimuli/stars_10.png","191.5","[""HE"",""AO"",""SC"",""CC""]","[""BF04"",""AM03"",""BF05"",""WF14""]","[7,10,2,1]","[6,8,4,2]","","",""
"show-reward","100","307130","0.0-100.0","p704733","A1VFOKKVJ7B9D6","336OE47KI3QZCSCUXSQ8J11UOZXVWV","39ASUFLU6ZD0M1TS292LA0M4GITXE4","model","mismatch","uniform","","","","","","","","309113.7999999523","311123.39999985695","","","","","","","","","","","","10","","stimuli/stars_10.png","191.5","","","","","stimuli/AM03_AO.jpg","",""
"explore-choice","101","308988","0.0-101.0","p704733","A1VFOKKVJ7B9D6","336OE47KI3QZCSCUXSQ8J11UOZXVWV","39ASUFLU6ZD0M1TS292LA0M4GITXE4","model","mismatch","uniform","","","","","","","1348.1000001430511","311124.89999985695","312473","[""stimuli/WF14_CC.jpg"",""stimuli/BF05_HE.jpg"",""stimuli/AM03_AO.jpg"",""stimuli/BF04_SC.jpg""]","stimuli/WF14_CC.jpg","stimuli/BF05_HE.jpg","stimuli/AM03_AO.jpg","stimuli/BF04_SC.jpg","pos3","stimuli/AM03_AO.jpg","AO","AM03","2","4.5","9","8","stimuli/stars_9.png","196","[""CC"",""HE"",""AO"",""SC""]","[""WF14"",""BF05"",""AM03"",""BF04""]","[0,6,9,5]","[2,4,8,6]","","",""
"show-reward","102","310997","0.0-102.0","p704733","A1VFOKKVJ7B9D6","336OE47KI3QZCSCUXSQ8J11UOZXVWV","39ASUFLU6ZD0M1TS292LA0M4GITXE4","model","mismatch","uniform","","","","","","","","312984.7999999523","314991.7999999523","","","","","","","","","","","","9","","stimuli/stars_9.png","196","","","","","stimuli/AM03_AO.jpg","",""
"explore-choice","103","316413","0.0-103.0","p704733","A1VFOKKVJ7B9D6","336OE47KI3QZCSCUXSQ8J11UOZXVWV","39ASUFLU6ZD0M1TS292LA0M4GITXE4","model","mismatch","uniform","","","","","","","4908.299999952316","314994.2999999523","319902.59999990463","[""stimuli/WM07_SUR.jpg"",""stimuli/BF06_HO.jpg"",""stimuli/HF02_DO.jpg"",""stimuli/HF04_FO.jpg""]","stimuli/WM07_SUR.jpg","stimuli/BF06_HO.jpg","stimuli/HF02_DO.jpg","stimuli/HF04_FO.jpg","pos2","stimuli/BF06_HO.jpg","HO","BF06","1","3","6","4","stimuli/stars_6.png","199","[""SUR"",""HO"",""DO"",""FO""]","[""WM07"",""BF06"",""HF02"",""HF04""]","[6,6,5,0]","[8,4,6,2]","","",""
"show-reward","104","318434","0.0-104.0","p704733","A1VFOKKVJ7B9D6","336OE47KI3QZCSCUXSQ8J11UOZXVWV","39ASUFLU6ZD0M1TS292LA0M4GITXE4","model","mismatch","uniform","","","","","","","","320410.7000000477","322429","","","","","","","","","","","","6","","stimuli/stars_6.png","199","","","","","stimuli/BF06_HO.jpg","",""
"explore-choice","105","321941","0.0-105.0","p704733","A1VFOKKVJ7B9D6","336OE47KI3QZCSCUXSQ8J11UOZXVWV","39ASUFLU6ZD0M1TS292LA0M4GITXE4","model","mismatch","uniform","","","","","","","3003.600000143051","322431.89999985695","325435.5","[""stimuli/BF06_HO.jpg"",""stimuli/WM07_SUR.jpg"",""stimuli/HF02_FO.jpg"",""stimuli/HF04_DO.jpg""]","stimuli/BF06_HO.jpg","stimuli/WM07_SUR.jpg","stimuli/HF02_FO.jpg","stimuli/HF04_DO.jpg","pos3","stimuli/HF02_FO.jpg","FO","HF02","2","1.5","3","2","stimuli/stars_3.png","200.5","[""HO"",""SUR"",""FO"",""DO""]","[""BF06"",""WM07"",""HF02"",""HF04""]","[4,10,3,6]","[4,8,2,6]","","",""
"show-reward","106","323958","0.0-106.0","p704733","A1VFOKKVJ7B9D6","336OE47KI3QZCSCUXSQ8J11UOZXVWV","39ASUFLU6ZD0M1TS292LA0M4GITXE4","model","mismatch","uniform","","","","","","","","325937.7999999523","327951.5","","","","","","","","","","","","3","","stimuli/stars_3.png","200.5","","","","","stimuli/HF02_FO.jpg","",""
"explore-choice","107","328278","0.0-107.0","p704733","A1VFOKKVJ7B9D6","336OE47KI3QZCSCUXSQ8J11UOZXVWV","39ASUFLU6ZD0M1TS292LA0M4GITXE4","model","mismatch","uniform","","","","","","","3811.399999856949","327955","331766.39999985695","[""stimuli/HF04_SUR.jpg"",""stimuli/BF06_HO.jpg"",""stimuli/HF02_DO.jpg"",""stimuli/WM07_FO.jpg""]","stimuli/HF04_SUR.jpg","stimuli/BF06_HO.jpg","stimuli/HF02_DO.jpg","stimuli/WM07_FO.jpg","pos2","stimuli/BF06_HO.jpg","HO","BF06","1","3","6","4","stimuli/stars_6.png","203.5","[""SUR"",""HO"",""DO"",""FO""]","[""HF04"",""BF06"",""HF02"",""WM07""]","[6,6,7,1]","[8,4,6,2]","","",""
"show-reward","108","330287","0.0-108.0","p704733","A1VFOKKVJ7B9D6","336OE47KI3QZCSCUXSQ8J11UOZXVWV","39ASUFLU6ZD0M1TS292LA0M4GITXE4","model","mismatch","uniform","","","","","","","","332275.89999985695","334282.5","","","","","","","","","","","","6","","stimuli/stars_6.png","203.5","","","","","stimuli/BF06_HO.jpg","",""
"explore-choice","109","335799","0.0-109.0","p704733","A1VFOKKVJ7B9D6","336OE47KI3QZCSCUXSQ8J11UOZXVWV","39ASUFLU6ZD0M1TS292LA0M4GITXE4","model","mismatch","uniform","","","","","","","4997.700000047684","334283.59999990463","339281.2999999523","[""stimuli/WM07_SUR.jpg"",""stimuli/HF02_FO.jpg"",""stimuli/BF06_DO.jpg"",""stimuli/HF04_HO.jpg""]","stimuli/WM07_SUR.jpg","stimuli/HF02_FO.jpg","stimuli/BF06_DO.jpg","stimuli/HF04_HO.jpg","pos2","stimuli/HF02_FO.jpg","FO","HF02","1","1","2","2","stimuli/stars_2.png","204.5","[""SUR"",""FO"",""DO"",""HO""]","[""WM07"",""HF02"",""BF06"",""HF04""]","[6,2,6,5]","[8,2,6,4]","","",""
"show-reward","110","337815","0.0-110.0","p704733","A1VFOKKVJ7B9D6","336OE47KI3QZCSCUXSQ8J11UOZXVWV","39ASUFLU6ZD0M1TS292LA0M4GITXE4","model","mismatch","uniform","","","","","","","","339796.7999999523","341809.2000000477","","","","","","","","","","","","2","","stimuli/stars_2.png","204.5","","","","","stimuli/HF02_FO.jpg","",""
"explore-choice","111","339925","0.0-111.0","p704733","A1VFOKKVJ7B9D6","336OE47KI3QZCSCUXSQ8J11UOZXVWV","39ASUFLU6ZD0M1TS292LA0M4GITXE4","model","mismatch","uniform","","","","","","","1607.4000000953674","341811.59999990463","343419","[""stimuli/HF04_HO.jpg"",""stimuli/WM07_DO.jpg"",""stimuli/BF06_FO.jpg"",""stimuli/HF02_SUR.jpg""]","stimuli/HF04_HO.jpg","stimuli/WM07_DO.jpg","stimuli/BF06_FO.jpg","stimuli/HF02_SUR.jpg","pos4","stimuli/HF02_SUR.jpg","SUR","HF02","3","5","10","8","stimuli/stars_10.png","209.5","[""HO"",""DO"",""FO"",""SUR""]","[""HF04"",""WM07"",""BF06"",""HF02""]","[6,5,0,10]","[4,6,2,8]","","",""
"show-reward","112","341934","0.0-112.0","p704733","A1VFOKKVJ7B9D6","336OE47KI3QZCSCUXSQ8J11UOZXVWV","39ASUFLU6ZD0M1TS292LA0M4GITXE4","model","mismatch","uniform","","","","","","","","343922.39999985695","345928.59999990463","","","","","","","","","","","","10","","stimuli/stars_10.png","209.5","","","","","stimuli/HF02_SUR.jpg","",""
"explore-choice","113","343840","0.0-113.0","p704733","A1VFOKKVJ7B9D6","336OE47KI3QZCSCUXSQ8J11UOZXVWV","39ASUFLU6ZD0M1TS292LA0M4GITXE4","model","mismatch","uniform","","","","","","","1392","345931.09999990463","347323.09999990463","[""stimuli/HF04_HO.jpg"",""stimuli/BF06_FO.jpg"",""stimuli/HF02_DO.jpg"",""stimuli/WM07_SUR.jpg""]","stimuli/HF04_HO.jpg","stimuli/BF06_FO.jpg","stimuli/HF02_DO.jpg","stimuli/WM07_SUR.jpg","pos3","stimuli/HF02_DO.jpg","DO","HF02","2","2","4","6","stimuli/stars_4.png","211.5","[""HO"",""FO"",""DO"",""SUR""]","[""HF04"",""BF06"",""HF02"",""WM07""]","[6,4,4,10]","[4,2,6,8]","","",""
"show-reward","114","345856","0.0-114.0","p704733","A1VFOKKVJ7B9D6","336OE47KI3QZCSCUXSQ8J11UOZXVWV","39ASUFLU6ZD0M1TS292LA0M4GITXE4","model","mismatch","uniform","","","","","","","","347837.2999999523","349850.2000000477","","","","","","","","","","","","4","","stimuli/stars_4.png","211.5","","","","","stimuli/HF02_DO.jpg","",""
"explore-choice","115","347555","0.0-115.0","p704733","A1VFOKKVJ7B9D6","336OE47KI3QZCSCUXSQ8J11UOZXVWV","39ASUFLU6ZD0M1TS292LA0M4GITXE4","model","mismatch","uniform","","","","","","","1188.5","349853.09999990463","351041.59999990463","[""stimuli/WM07_DO.jpg"",""stimuli/HF02_FO.jpg"",""stimuli/HF04_SUR.jpg"",""stimuli/BF06_HO.jpg""]","stimuli/WM07_DO.jpg","stimuli/HF02_FO.jpg","stimuli/HF04_SUR.jpg","stimuli/BF06_HO.jpg","pos1","stimuli/WM07_DO.jpg","DO","WM07","0","2.5","5","6","stimuli/stars_5.png","214","[""DO"",""FO"",""SUR"",""HO""]","[""WM07"",""HF02"",""HF04"",""BF06""]","[5,1,8,4]","[6,2,8,4]","","",""
"show-reward","116","349563","0.0-116.0","p704733","A1VFOKKVJ7B9D6","336OE47KI3QZCSCUXSQ8J11UOZXVWV","39ASUFLU6ZD0M1TS292LA0M4GITXE4","model","mismatch","uniform","","","","","","","","351551.7999999523","353558","","","","","","","","","","","","5","","stimuli/stars_5.png","214","","","","","stimuli/WM07_DO.jpg","",""
"explore-choice","117","351229","0.0-117.0","p704733","A1VFOKKVJ7B9D6","336OE47KI3QZCSCUXSQ8J11UOZXVWV","39ASUFLU6ZD0M1TS292LA0M4GITXE4","model","mismatch","uniform","","","","","","","1162.6000001430511","353560.39999985695","354723","[""stimuli/BF06_SUR.jpg"",""stimuli/WM07_HO.jpg"",""stimuli/HF04_FO.jpg"",""stimuli/HF02_DO.jpg""]","stimuli/BF06_SUR.jpg","stimuli/WM07_HO.jpg","stimuli/HF04_FO.jpg","stimuli/HF02_DO.jpg","pos4","stimuli/HF02_DO.jpg","DO","HF02","3","3.5","7","6","stimuli/stars_7.png","217.5","[""SUR"",""HO"",""FO"",""DO""]","[""BF06"",""WM07"",""HF04"",""HF02""]","[9,5,2,7]","[8,4,2,6]","","",""
"show-reward","118","353245","0.0-118.0","p704733","A1VFOKKVJ7B9D6","336OE47KI3QZCSCUXSQ8J11UOZXVWV","39ASUFLU6ZD0M1TS292LA0M4GITXE4","model","mismatch","uniform","","","","","","","","355226.2999999523","357239","","","","","","","","","","","","7","","stimuli/stars_7.png","217.5","","","","","stimuli/HF02_DO.jpg","",""
"explore-choice","119","354777","0.0-119.0","p704733","A1VFOKKVJ7B9D6","336OE47KI3QZCSCUXSQ8J11UOZXVWV","39ASUFLU6ZD0M1TS292LA0M4GITXE4","model","mismatch","uniform","","","","","","","1029.7999999523163","357241.5","358271.2999999523","[""stimuli/WM07_FO.jpg"",""stimuli/HF04_HO.jpg"",""stimuli/BF06_DO.jpg"",""stimuli/HF02_SUR.jpg""]","stimuli/WM07_FO.jpg","stimuli/HF04_HO.jpg","stimuli/BF06_DO.jpg","stimuli/HF02_SUR.jpg","pos4","stimuli/HF02_SUR.jpg","SUR","HF02","3","3.5","7","8","stimuli/stars_7.png","221","[""FO"",""HO"",""DO"",""SUR""]","[""WM07"",""HF04"",""BF06"",""HF02""]","[2,5,4,7]","[2,4,6,8]","","",""
"show-reward","120","356787","0.0-120.0","p704733","A1VFOKKVJ7B9D6","336OE47KI3QZCSCUXSQ8J11UOZXVWV","39ASUFLU6ZD0M1TS292LA0M4GITXE4","model","mismatch","uniform","","","","","","","","358774.59999990463","360781.59999990463","","","","","","","","","","","","7","","stimuli/stars_7.png","221","","","","","stimuli/HF02_SUR.jpg","",""
"explore-choice","121","358050","0.0-121.0","p704733","A1VFOKKVJ7B9D6","336OE47KI3QZCSCUXSQ8J11UOZXVWV","39ASUFLU6ZD0M1TS292LA0M4GITXE4","model","mismatch","uniform","","","","","","","758.5","360784.2000000477","361542.7000000477","[""stimuli/WM07_DO.jpg"",""stimuli/BF06_HO.jpg"",""stimuli/HF04_FO.jpg"",""stimuli/HF02_SUR.jpg""]","stimuli/WM07_DO.jpg","stimuli/BF06_HO.jpg","stimuli/HF04_FO.jpg","stimuli/HF02_SUR.jpg","pos4","stimuli/HF02_SUR.jpg","SUR","HF02","3","4.5","9","8","stimuli/stars_9.png","225.5","[""DO"",""HO"",""FO"",""SUR""]","[""WM07"",""BF06"",""HF04"",""HF02""]","[4,6,3,9]","[6,4,2,8]","","",""
"show-reward","122","360065","0.0-122.0","p704733","A1VFOKKVJ7B9D6","336OE47KI3QZCSCUXSQ8J11UOZXVWV","39ASUFLU6ZD0M1TS292LA0M4GITXE4","model","mismatch","uniform","","","","","","","","362047.39999985695","364058.7999999523","","","","","","","","","","","","9","","stimuli/stars_9.png","225.5","","","","","stimuli/HF02_SUR.jpg","",""
"explore-choice","123","362223","0.0-123.0","p704733","A1VFOKKVJ7B9D6","336OE47KI3QZCSCUXSQ8J11UOZXVWV","39ASUFLU6ZD0M1TS292LA0M4GITXE4","model","mismatch","uniform","","","","","","","1655.5","364061.59999990463","365717.09999990463","[""stimuli/HF02_SUR.jpg"",""stimuli/BF06_DO.jpg"",""stimuli/HF04_FO.jpg"",""stimuli/WM07_HO.jpg""]","stimuli/HF02_SUR.jpg","stimuli/BF06_DO.jpg","stimuli/HF04_FO.jpg","stimuli/WM07_HO.jpg","pos1","stimuli/HF02_SUR.jpg","SUR","HF02","0","4","8","8","stimuli/stars_8.png","229.5","[""SUR"",""DO"",""FO"",""HO""]","[""HF02"",""BF06"",""HF04"",""WM07""]","[8,7,4,3]","[8,6,2,4]","","",""
"show-reward","124","364240","0.0-124.0","p704733","A1VFOKKVJ7B9D6","336OE47KI3QZCSCUXSQ8J11UOZXVWV","39ASUFLU6ZD0M1TS292LA0M4GITXE4","model","mismatch","uniform","","","","","","","","366220.2000000477","368234.7000000477","","","","","","","","","","","","8","","stimuli/stars_8.png","229.5","","","","","stimuli/HF02_SUR.jpg","",""
"explore-choice","125","366455","0.0-125.0","p704733","A1VFOKKVJ7B9D6","336OE47KI3QZCSCUXSQ8J11UOZXVWV","39ASUFLU6ZD0M1TS292LA0M4GITXE4","model","mismatch","uniform","","","","","","","1711.9000000953674","368237.39999985695","369949.2999999523","[""stimuli/BF06_FO.jpg"",""stimuli/HF04_SUR.jpg"",""stimuli/WM07_DO.jpg"",""stimuli/HF02_HO.jpg""]","stimuli/BF06_FO.jpg","stimuli/HF04_SUR.jpg","stimuli/WM07_DO.jpg","stimuli/HF02_HO.jpg","pos4","stimuli/HF02_HO.jpg","HO","HF02","3","2","4","4","stimuli/stars_4.png","231.5","[""FO"",""SUR"",""DO"",""HO""]","[""BF06"",""HF04"",""WM07"",""HF02""]","[4,6,8,4]","[2,8,6,4]","","",""
"show-reward","126","368470","0.0-126.0","p704733","A1VFOKKVJ7B9D6","336OE47KI3QZCSCUXSQ8J11UOZXVWV","39ASUFLU6ZD0M1TS292LA0M4GITXE4","model","mismatch","uniform","","","","","","","","370451.59999990463","372465","","","","","","","","","","","","4","","stimuli/stars_4.png","231.5","","","","","stimuli/HF02_HO.jpg","",""
"explore-choice","127","370751","0.0-127.0","p704733","A1VFOKKVJ7B9D6","336OE47KI3QZCSCUXSQ8J11UOZXVWV","39ASUFLU6ZD0M1TS292LA0M4GITXE4","model","mismatch","uniform","","","","","","","1775.3999998569489","372467.5","374242.89999985695","[""stimuli/HF04_SUR.jpg"",""stimuli/WM07_FO.jpg"",""stimuli/BF06_DO.jpg"",""stimuli/HF02_HO.jpg""]","stimuli/HF04_SUR.jpg","stimuli/WM07_FO.jpg","stimuli/BF06_DO.jpg","stimuli/HF02_HO.jpg","pos4","stimuli/HF02_HO.jpg","HO","HF02","3","1.5","3","4","stimuli/stars_3.png","233","[""SUR"",""FO"",""DO"",""HO""]","[""HF04"",""WM07"",""BF06"",""HF02""]","[6,1,8,3]","[8,2,6,4]","","",""
"show-reward","128","372755","0.0-128.0","p704733","A1VFOKKVJ7B9D6","336OE47KI3QZCSCUXSQ8J11UOZXVWV","39ASUFLU6ZD0M1TS292LA0M4GITXE4","model","mismatch","uniform","","","","","","","","374746.39999985695","376748.89999985695","","","","","","","","","","","","3","","stimuli/stars_3.png","233","","","","","stimuli/HF02_HO.jpg","",""
"explore-choice","129","374941","0.0-129.0","p704733","A1VFOKKVJ7B9D6","336OE47KI3QZCSCUXSQ8J11UOZXVWV","39ASUFLU6ZD0M1TS292LA0M4GITXE4","model","mismatch","uniform","","","","","","","1681.7999999523163","376751.09999990463","378432.89999985695","[""stimuli/HF02_DO.jpg"",""stimuli/BF06_SUR.jpg"",""stimuli/HF04_HO.jpg"",""stimuli/WM07_FO.jpg""]","stimuli/HF02_DO.jpg","stimuli/BF06_SUR.jpg","stimuli/HF04_HO.jpg","stimuli/WM07_FO.jpg","pos1","stimuli/HF02_DO.jpg","DO","HF02","0","4","8","6","stimuli/stars_8.png","237","[""DO"",""SUR"",""HO"",""FO""]","[""HF02"",""BF06"",""HF04"",""WM07""]","[8,8,2,1]","[6,8,4,2]","","",""
"show-reward","130","376955","0.0-130.0","p704733","A1VFOKKVJ7B9D6","336OE47KI3QZCSCUXSQ8J11UOZXVWV","39ASUFLU6ZD0M1TS292LA0M4GITXE4","model","mismatch","uniform","","","","","","","","378937.39999985695","380949.2000000477","","","","","","","","","","","","8","","stimuli/stars_8.png","237","","","","","stimuli/HF02_DO.jpg","",""
"explore-choice","131","378660","0.0-131.0","p704733","A1VFOKKVJ7B9D6","336OE47KI3QZCSCUXSQ8J11UOZXVWV","39ASUFLU6ZD0M1TS292LA0M4GITXE4","model","mismatch","uniform","","","","","","","1190.7000000476837","380951.39999985695","382142.09999990463","[""stimuli/HF02_SUR.jpg"",""stimuli/BF06_FO.jpg"",""stimuli/HF04_DO.jpg"",""stimuli/WM07_HO.jpg""]","stimuli/HF02_SUR.jpg","stimuli/BF06_FO.jpg","stimuli/HF04_DO.jpg","stimuli/WM07_HO.jpg","pos1","stimuli/HF02_SUR.jpg","SUR","HF02","0","3.5","7","8","stimuli/stars_7.png","240.5","[""SUR"",""FO"",""DO"",""HO""]","[""HF02"",""BF06"",""HF04"",""WM07""]","[7,3,7,3]","[8,2,6,4]","","",""
"show-reward","132","380668","0.0-132.0","p704733","A1VFOKKVJ7B9D6","336OE47KI3QZCSCUXSQ8J11UOZXVWV","39ASUFLU6ZD0M1TS292LA0M4GITXE4","model","mismatch","uniform","","","","","","","","382656.2999999523","384662.59999990463","","","","","","","","","","","","7","","stimuli/stars_7.png","240.5","","","","","stimuli/HF02_SUR.jpg","",""
"explore-choice","133","384125","0.0-133.0","p704733","A1VFOKKVJ7B9D6","336OE47KI3QZCSCUXSQ8J11UOZXVWV","39ASUFLU6ZD0M1TS292LA0M4GITXE4","model","mismatch","uniform","","","","","","","2946.9000000953674","384670.09999990463","387617","[""stimuli/BF06_FO.jpg"",""stimuli/HF02_DO.jpg"",""stimuli/WM07_HO.jpg"",""stimuli/HF04_SUR.jpg""]","stimuli/BF06_FO.jpg","stimuli/HF02_DO.jpg","stimuli/WM07_HO.jpg","stimuli/HF04_SUR.jpg","pos2","stimuli/HF02_DO.jpg","DO","HF02","1","3.5","7","6","stimuli/stars_7.png","244","[""FO"",""DO"",""HO"",""SUR""]","[""BF06"",""HF02"",""WM07"",""HF04""]","[0,7,6,10]","[2,6,4,8]","","",""
"show-reward","134","386145","0.0-134.0","p704733","A1VFOKKVJ7B9D6","336OE47KI3QZCSCUXSQ8J11UOZXVWV","39ASUFLU6ZD0M1TS292LA0M4GITXE4","model","mismatch","uniform","","","","","","","","388121.89999985695","390139.7000000477","","","","","","","","","","","","7","","stimuli/stars_7.png","244","","","","","stimuli/HF02_DO.jpg","",""
"explore-choice","135","389137","0.0-135.0","p704733","A1VFOKKVJ7B9D6","336OE47KI3QZCSCUXSQ8J11UOZXVWV","39ASUFLU6ZD0M1TS292LA0M4GITXE4","model","mismatch","uniform","","","","","","","2475.7000000476837","390141","392616.7000000477","[""stimuli/HF02_HO.jpg"",""stimuli/WM07_SUR.jpg"",""stimuli/BF06_DO.jpg"",""stimuli/HF04_FO.jpg""]","stimuli/HF02_HO.jpg","stimuli/WM07_SUR.jpg","stimuli/BF06_DO.jpg","stimuli/HF04_FO.jpg","pos1","stimuli/HF02_HO.jpg","HO","HF02","0","2","4","4","stimuli/stars_4.png","246","[""HO"",""SUR"",""DO"",""FO""]","[""HF02"",""WM07"",""BF06"",""HF04""]","[4,6,8,2]","[4,8,6,2]","","",""
"show-reward","136","391149","0.0-136.0","p704733","A1VFOKKVJ7B9D6","336OE47KI3QZCSCUXSQ8J11UOZXVWV","39ASUFLU6ZD0M1TS292LA0M4GITXE4","model","mismatch","uniform","","","","","","","","393134.2000000477","395143.5","","","","","","","","","","","","4","","stimuli/stars_4.png","246","","","","","stimuli/HF02_HO.jpg","",""
"explore-choice","137","395238","0.0-137.0","p704733","A1VFOKKVJ7B9D6","336OE47KI3QZCSCUXSQ8J11UOZXVWV","39ASUFLU6ZD0M1TS292LA0M4GITXE4","model","mismatch","uniform","","","","","","","3576.2000000476837","395144.7999999523","398721","[""stimuli/HF02_HO.jpg"",""stimuli/WM07_SUR.jpg"",""stimuli/BF06_FO.jpg"",""stimuli/HF04_DO.jpg""]","stimuli/HF02_HO.jpg","stimuli/WM07_SUR.jpg","stimuli/BF06_FO.jpg","stimuli/HF04_DO.jpg","pos3","stimuli/BF06_FO.jpg","FO","BF06","2","2","4","2","stimuli/stars_4.png","248","[""HO"",""SUR"",""FO"",""DO""]","[""HF02"",""WM07"",""BF06"",""HF04""]","[2,6,4,6]","[4,8,2,6]","","",""
"show-reward","138","397257","0.0-138.0","p704733","A1VFOKKVJ7B9D6","336OE47KI3QZCSCUXSQ8J11UOZXVWV","39ASUFLU6ZD0M1TS292LA0M4GITXE4","model","mismatch","uniform","","","","","","","","399235","401250.89999985695","","","","","","","","","","","","4","","stimuli/stars_4.png","248","","","","","stimuli/BF06_FO.jpg","",""
"explore-choice","139","400251","0.0-139.0","p704733","A1VFOKKVJ7B9D6","336OE47KI3QZCSCUXSQ8J11UOZXVWV","39ASUFLU6ZD0M1TS292LA0M4GITXE4","model","mismatch","uniform","","","","","","","2489.600000143051","401253.39999985695","403743","[""stimuli/BF06_DO.jpg"",""stimuli/WM07_HO.jpg"",""stimuli/HF02_FO.jpg"",""stimuli/HF04_SUR.jpg""]","stimuli/BF06_DO.jpg","stimuli/WM07_HO.jpg","stimuli/HF02_FO.jpg","stimuli/HF04_SUR.jpg","pos3","stimuli/HF02_FO.jpg","FO","HF02","2","1","2","2","stimuli/stars_2.png","249","[""DO"",""HO"",""FO"",""SUR""]","[""BF06"",""WM07"",""HF02"",""HF04""]","[5,2,2,9]","[6,4,2,8]","","",""
"show-reward","140","402271","0.0-140.0","p704733","A1VFOKKVJ7B9D6","336OE47KI3QZCSCUXSQ8J11UOZXVWV","39ASUFLU6ZD0M1TS292LA0M4GITXE4","model","mismatch","uniform","","","","","","","","404247.2000000477","406265.39999985695","","","","","","","","","","","","2","","stimuli/stars_2.png","249","","","","","stimuli/HF02_FO.jpg","",""
"explore-choice","141","404565","0.0-141.0","p704733","A1VFOKKVJ7B9D6","336OE47KI3QZCSCUXSQ8J11UOZXVWV","39ASUFLU6ZD0M1TS292LA0M4GITXE4","model","mismatch","uniform","","","","","","","1776.4000000953674","406268.2999999523","408044.7000000477","[""stimuli/WM07_DO.jpg"",""stimuli/HF04_HO.jpg"",""stimuli/BF06_SUR.jpg"",""stimuli/HF02_FO.jpg""]","stimuli/WM07_DO.jpg","stimuli/HF04_HO.jpg","stimuli/BF06_SUR.jpg","stimuli/HF02_FO.jpg","pos4","stimuli/HF02_FO.jpg","FO","HF02","3","0","0","2","stimuli/stars_0.png","249","[""DO"",""HO"",""SUR"",""FO""]","[""WM07"",""HF04"",""BF06"",""HF02""]","[7,3,6,0]","[6,4,8,2]","","",""
"show-reward","142","406579","0.0-142.0","p704733","A1VFOKKVJ7B9D6","336OE47KI3QZCSCUXSQ8J11UOZXVWV","39ASUFLU6ZD0M1TS292LA0M4GITXE4","model","mismatch","uniform","","","","","","","","408561.7000000477","410573.2999999523","","","","","","","","","","","","0","","stimuli/stars_0.png","249","","","","","stimuli/HF02_FO.jpg","",""
"explore-choice","143","412073","0.0-143.0","p704733","A1VFOKKVJ7B9D6","336OE47KI3QZCSCUXSQ8J11UOZXVWV","39ASUFLU6ZD0M1TS292LA0M4GITXE4","model","mismatch","uniform","","","","","","","4990.400000095367","410574.59999990463","415565","[""stimuli/BF06_SUR.jpg"",""stimuli/WM07_HO.jpg"",""stimuli/HF02_FO.jpg"",""stimuli/HF04_DO.jpg""]","stimuli/BF06_SUR.jpg","stimuli/WM07_HO.jpg","stimuli/HF02_FO.jpg","stimuli/HF04_DO.jpg","pos3","stimuli/HF02_FO.jpg","FO","HF02","2","0.5","1","2","stimuli/stars_1.png","249.5","[""SUR"",""HO"",""FO"",""DO""]","[""BF06"",""WM07"",""HF02"",""HF04""]","[9,2,1,6]","[8,4,2,6]","","",""
"show-reward","144","414089","0.0-144.0","p704733","A1VFOKKVJ7B9D6","336OE47KI3QZCSCUXSQ8J11UOZXVWV","39ASUFLU6ZD0M1TS292LA0M4GITXE4","model","mismatch","uniform","","","","","","","","416070.2999999523","418083.2999999523","","","","","","","","","","","","1","","stimuli/stars_1.png","249.5","","","","","stimuli/HF02_FO.jpg","",""
"explore-choice","145","416939","0.0-145.0","p704733","A1VFOKKVJ7B9D6","336OE47KI3QZCSCUXSQ8J11UOZXVWV","39ASUFLU6ZD0M1TS292LA0M4GITXE4","model","mismatch","uniform","","","","","","","2336.0999999046326","418086.2999999523","420422.39999985695","[""stimuli/WM07_DO.jpg"",""stimuli/BF06_SUR.jpg"",""stimuli/HF02_HO.jpg"",""stimuli/HF04_FO.jpg""]","stimuli/WM07_DO.jpg","stimuli/BF06_SUR.jpg","stimuli/HF02_HO.jpg","stimuli/HF04_FO.jpg","pos3","stimuli/HF02_HO.jpg","HO","HF02","2","2","4","4","stimuli/stars_4.png","251.5","[""DO"",""SUR"",""HO"",""FO""]","[""WM07"",""BF06"",""HF02"",""HF04""]","[6,10,4,4]","[6,8,4,2]","","",""
"show-reward","146","418949","0.0-146.0","p704733","A1VFOKKVJ7B9D6","336OE47KI3QZCSCUXSQ8J11UOZXVWV","39ASUFLU6ZD0M1TS292LA0M4GITXE4","model","mismatch","uniform","","","","","","","","420936.09999990463","422943.09999990463","","","","","","","","","","","","4","","stimuli/stars_4.png","251.5","","","","","stimuli/HF02_HO.jpg","",""
"explore-choice","147","420697","0.0-147.0","p704733","A1VFOKKVJ7B9D6","336OE47KI3QZCSCUXSQ8J11UOZXVWV","39ASUFLU6ZD0M1TS292LA0M4GITXE4","model","mismatch","uniform","","","","","","","1244.9000000953674","422945.59999990463","424190.5","[""stimuli/HF04_DO.jpg"",""stimuli/BF06_HO.jpg"",""stimuli/WM07_FO.jpg"",""stimuli/HF02_SUR.jpg""]","stimuli/HF04_DO.jpg","stimuli/BF06_HO.jpg","stimuli/WM07_FO.jpg","stimuli/HF02_SUR.jpg","pos4","stimuli/HF02_SUR.jpg","SUR","HF02","3","3","6","8","stimuli/stars_6.png","254.5","[""DO"",""HO"",""FO"",""SUR""]","[""HF04"",""BF06"",""WM07"",""HF02""]","[4,2,1,6]","[6,4,2,8]","","",""
"show-reward","148","422701","0.0-148.0","p704733","A1VFOKKVJ7B9D6","336OE47KI3QZCSCUXSQ8J11UOZXVWV","39ASUFLU6ZD0M1TS292LA0M4GITXE4","model","mismatch","uniform","","","","","","","","424693","426695.7000000477","","","","","","","","","","","","6","","stimuli/stars_6.png","254.5","","","","","stimuli/HF02_SUR.jpg","",""
"explore-choice","149","426651","0.0-149.0","p704733","A1VFOKKVJ7B9D6","336OE47KI3QZCSCUXSQ8J11UOZXVWV","39ASUFLU6ZD0M1TS292LA0M4GITXE4","model","mismatch","uniform","","","","","","","3431.7000000476837","426699.5","430131.2000000477","[""stimuli/WM07_FO.jpg"",""stimuli/BF06_SUR.jpg"",""stimuli/HF02_HO.jpg"",""stimuli/HF04_DO.jpg""]","stimuli/WM07_FO.jpg","stimuli/BF06_SUR.jpg","stimuli/HF02_HO.jpg","stimuli/HF04_DO.jpg","pos3","stimuli/HF02_HO.jpg","HO","HF02","2","2.5","5","4","stimuli/stars_5.png","257","[""FO"",""SUR"",""HO"",""DO""]","[""WM07"",""BF06"",""HF02"",""HF04""]","[0,7,5,6]","[2,8,4,6]","","",""
"show-reward","150","428661","0.0-150.0","p704733","A1VFOKKVJ7B9D6","336OE47KI3QZCSCUXSQ8J11UOZXVWV","39ASUFLU6ZD0M1TS292LA0M4GITXE4","model","mismatch","uniform","","","","","","","","430647.7000000477","432655.39999985695","","","","","","","","","","","","5","","stimuli/stars_5.png","257","","","","","stimuli/HF02_HO.jpg","",""
"explore-choice","151","430302","0.0-151.0","p704733","A1VFOKKVJ7B9D6","336OE47KI3QZCSCUXSQ8J11UOZXVWV","39ASUFLU6ZD0M1TS292LA0M4GITXE4","model","mismatch","uniform","","","","","","","1133.5999999046326","432657.7000000477","433791.2999999523","[""stimuli/HF02_FO.jpg"",""stimuli/BF06_HO.jpg"",""stimuli/HF04_SUR.jpg"",""stimuli/WM07_DO.jpg""]","stimuli/HF02_FO.jpg","stimuli/BF06_HO.jpg","stimuli/HF04_SUR.jpg","stimuli/WM07_DO.jpg","pos4","stimuli/WM07_DO.jpg","DO","WM07","3","2.5","5","6","stimuli/stars_5.png","259.5","[""FO"",""HO"",""SUR"",""DO""]","[""HF02"",""BF06"",""HF04"",""WM07""]","[1,4,8,5]","[2,4,8,6]","","",""
"show-reward","152","432314","0.0-152.0","p704733","A1VFOKKVJ7B9D6","336OE47KI3QZCSCUXSQ8J11UOZXVWV","39ASUFLU6ZD0M1TS292LA0M4GITXE4","model","mismatch","uniform","","","","","","","","434298.7000000477","436308.09999990463","","","","","","","","","","","","5","","stimuli/stars_5.png","259.5","","","","","stimuli/WM07_DO.jpg","",""
"explore-choice","153","434039","0.0-153.0","p704733","A1VFOKKVJ7B9D6","336OE47KI3QZCSCUXSQ8J11UOZXVWV","39ASUFLU6ZD0M1TS292LA0M4GITXE4","model","mismatch","uniform","","","","","","","1222.6000001430511","436310.59999990463","437533.2000000477","[""stimuli/BF06_FO.jpg"",""stimuli/HF04_HO.jpg"",""stimuli/WM07_DO.jpg"",""stimuli/HF02_SUR.jpg""]","stimuli/BF06_FO.jpg","stimuli/HF04_HO.jpg","stimuli/WM07_DO.jpg","stimuli/HF02_SUR.jpg","pos4","stimuli/HF02_SUR.jpg","SUR","HF02","3","5","10","8","stimuli/stars_10.png","264.5","[""FO"",""HO"",""DO"",""SUR""]","[""BF06"",""HF04"",""WM07"",""HF02""]","[0,6,5,10]","[2,4,6,8]","","",""
"show-reward","154","436049","0.0-154.0","p704733","A1VFOKKVJ7B9D6","336OE47KI3QZCSCUXSQ8J11UOZXVWV","39ASUFLU6ZD0M1TS292LA0M4GITXE4","model","mismatch","uniform","","","","","","","","438036.2000000477","440043","","","","","","","","","","","","10","","stimuli/stars_10.png","264.5","","","","","stimuli/HF02_SUR.jpg","",""
"explore-choice","155","437634","0.0-155.0","p704733","A1VFOKKVJ7B9D6","336OE47KI3QZCSCUXSQ8J11UOZXVWV","39ASUFLU6ZD0M1TS292LA0M4GITXE4","model","mismatch","uniform","","","","","","","1076.5","440045.89999985695","441122.39999985695","[""stimuli/WM07_SUR.jpg"",""stimuli/HF02_HO.jpg"",""stimuli/BF06_FO.jpg"",""stimuli/HF04_DO.jpg""]","stimuli/WM07_SUR.jpg","stimuli/HF02_HO.jpg","stimuli/BF06_FO.jpg","stimuli/HF04_DO.jpg","pos2","stimuli/HF02_HO.jpg","HO","HF02","1","1","2","4","stimuli/stars_2.png","265.5","[""SUR"",""HO"",""FO"",""DO""]","[""WM07"",""HF02"",""BF06"",""HF04""]","[6,2,4,6]","[8,4,2,6]","","",""
"show-reward","156","439651","0.0-156.0","p704733","A1VFOKKVJ7B9D6","336OE47KI3QZCSCUXSQ8J11UOZXVWV","39ASUFLU6ZD0M1TS292LA0M4GITXE4","model","mismatch","uniform","","","","","","","","441630.7000000477","443645.39999985695","","","","","","","","","","","","2","","stimuli/stars_2.png","265.5","","","","","stimuli/HF02_HO.jpg","",""
"explore-choice","157","452233","0.0-157.0","p704733","A1VFOKKVJ7B9D6","336OE47KI3QZCSCUXSQ8J11UOZXVWV","39ASUFLU6ZD0M1TS292LA0M4GITXE4","model","mismatch","uniform","","","","","","","12066.899999856949","443648","455714.89999985695","[""stimuli/HF04_FO.jpg"",""stimuli/HF02_HO.jpg"",""stimuli/BF06_DO.jpg"",""stimuli/WM07_SUR.jpg""]","stimuli/HF04_FO.jpg","stimuli/HF02_HO.jpg","stimuli/BF06_DO.jpg","stimuli/WM07_SUR.jpg","pos3","stimuli/BF06_DO.jpg","DO","BF06","2","4","8","6","stimuli/stars_8.png","269.5","[""FO"",""HO"",""DO"",""SUR""]","[""HF04"",""HF02"",""BF06"",""WM07""]","[2,4,8,6]","[2,4,6,8]","","",""
"show-reward","158","454253","0.0-158.0","p704733","A1VFOKKVJ7B9D6","336OE47KI3QZCSCUXSQ8J11UOZXVWV","39ASUFLU6ZD0M1TS292LA0M4GITXE4","model","mismatch","uniform","","","","","","","","456229.89999985695","458246.7000000477","","","","","","","","","","","","8","","stimuli/stars_8.png","269.5","","","","","stimuli/BF06_DO.jpg","",""
"explore-choice","159","456572","0.0-159.0","p704733","A1VFOKKVJ7B9D6","336OE47KI3QZCSCUXSQ8J11UOZXVWV","39ASUFLU6ZD0M1TS292LA0M4GITXE4","model","mismatch","uniform","","","","","","","1811.5999999046326","458249.2999999523","460060.89999985695","[""stimuli/WM07_SUR.jpg"",""stimuli/HF04_DO.jpg"",""stimuli/HF02_FO.jpg"",""stimuli/BF06_HO.jpg""]","stimuli/WM07_SUR.jpg","stimuli/HF04_DO.jpg","stimuli/HF02_FO.jpg","stimuli/BF06_HO.jpg","pos4","stimuli/BF06_HO.jpg","HO","BF06","3","2","4","4","stimuli/stars_4.png","271.5","[""SUR"",""DO"",""FO"",""HO""]","[""WM07"",""HF04"",""HF02"",""BF06""]","[10,6,3,4]","[8,6,2,4]","","",""
"show-reward","160","458581","0.0-160.0","p704733","A1VFOKKVJ7B9D6","336OE47KI3QZCSCUXSQ8J11UOZXVWV","39ASUFLU6ZD0M1TS292LA0M4GITXE4","model","mismatch","uniform","","","","","","","","460569","462575.89999985695","","","","","","","","","","","","4","","stimuli/stars_4.png","271.5","","","","","stimuli/BF06_HO.jpg","",""
"explore-choice","161","460250","0.0-161.0","p704733","A1VFOKKVJ7B9D6","336OE47KI3QZCSCUXSQ8J11UOZXVWV","39ASUFLU6ZD0M1TS292LA0M4GITXE4","model","mismatch","uniform","","","","","","","1162.5999999046326","462578.2999999523","463740.89999985695","[""stimuli/HF02_SUR.jpg"",""stimuli/WM07_DO.jpg"",""stimuli/HF04_FO.jpg"",""stimuli/BF06_HO.jpg""]","stimuli/HF02_SUR.jpg","stimuli/WM07_DO.jpg","stimuli/HF04_FO.jpg","stimuli/BF06_HO.jpg","pos3","stimuli/HF04_FO.jpg","FO","HF04","2","1.5","3","2","stimuli/stars_3.png","273","[""SUR"",""DO"",""FO"",""HO""]","[""HF02"",""WM07"",""HF04"",""BF06""]","[9,4,3,6]","[8,6,2,4]","","",""
"show-reward","162","462270","0.0-162.0","p704733","A1VFOKKVJ7B9D6","336OE47KI3QZCSCUXSQ8J11UOZXVWV","39ASUFLU6ZD0M1TS292LA0M4GITXE4","model","mismatch","uniform","","","","","","","","464246.59999990463","466264.7999999523","","","","","","","","","","","","3","","stimuli/stars_3.png","273","","","","","stimuli/HF04_FO.jpg","",""
"explore-choice","163","466438","0.0-163.0","p704733","A1VFOKKVJ7B9D6","336OE47KI3QZCSCUXSQ8J11UOZXVWV","39ASUFLU6ZD0M1TS292LA0M4GITXE4","model","mismatch","uniform","","","","","","","3661.7000000476837","466266.89999985695","469928.59999990463","[""stimuli/HF02_FO.jpg"",""stimuli/WM07_HO.jpg"",""stimuli/HF04_SUR.jpg"",""stimuli/BF06_DO.jpg""]","stimuli/HF02_FO.jpg","stimuli/WM07_HO.jpg","stimuli/HF04_SUR.jpg","stimuli/BF06_DO.jpg","pos2","stimuli/WM07_HO.jpg","HO","WM07","1","1","2","4","stimuli/stars_2.png","274","[""FO"",""HO"",""SUR"",""DO""]","[""HF02"",""WM07"",""HF04"",""BF06""]","[2,2,9,5]","[2,4,8,6]","","",""
"show-reward","164","468457","0.0-164.0","p704733","A1VFOKKVJ7B9D6","336OE47KI3QZCSCUXSQ8J11UOZXVWV","39ASUFLU6ZD0M1TS292LA0M4GITXE4","model","mismatch","uniform","","","","","","","","470435.39999985695","472451.59999990463","","","","","","","","","","","","2","","stimuli/stars_2.png","274","","","","","stimuli/WM07_HO.jpg","",""
"explore-choice","165","469996","0.0-165.0","p704733","A1VFOKKVJ7B9D6","336OE47KI3QZCSCUXSQ8J11UOZXVWV","39ASUFLU6ZD0M1TS292LA0M4GITXE4","model","mismatch","uniform","","","","","","","1033.8000001907349","472453.89999985695","473487.7000000477","[""stimuli/HF04_FO.jpg"",""stimuli/WM07_DO.jpg"",""stimuli/HF02_HO.jpg"",""stimuli/BF06_SUR.jpg""]","stimuli/HF04_FO.jpg","stimuli/WM07_DO.jpg","stimuli/HF02_HO.jpg","stimuli/BF06_SUR.jpg","pos4","stimuli/BF06_SUR.jpg","SUR","BF06","3","5","10","8","stimuli/stars_10.png","279","[""FO"",""DO"",""HO"",""SUR""]","[""HF04"",""WM07"",""HF02"",""BF06""]","[4,6,4,10]","[2,6,4,8]","","",""
"show-reward","166","472019","0.0-166.0","p704733","A1VFOKKVJ7B9D6","336OE47KI3QZCSCUXSQ8J11UOZXVWV","39ASUFLU6ZD0M1TS292LA0M4GITXE4","model","mismatch","uniform","","","","","","","","473993.09999990463","476013.2999999523","","","","","","","","","","","","10","","stimuli/stars_10.png","279","","","","","stimuli/BF06_SUR.jpg","",""
"explore-choice","167","473227","0.0-167.0","p704733","A1VFOKKVJ7B9D6","336OE47KI3QZCSCUXSQ8J11UOZXVWV","39ASUFLU6ZD0M1TS292LA0M4GITXE4","model","mismatch","uniform","","","","","","","695.3999998569489","476015.7000000477","476711.09999990463","[""stimuli/HF02_HO.jpg"",""stimuli/WM07_FO.jpg"",""stimuli/HF04_DO.jpg"",""stimuli/BF06_SUR.jpg""]","stimuli/HF02_HO.jpg","stimuli/WM07_FO.jpg","stimuli/HF04_DO.jpg","stimuli/BF06_SUR.jpg","pos4","stimuli/BF06_SUR.jpg","SUR","BF06","3","3.5","7","8","stimuli/stars_7.png","282.5","[""HO"",""FO"",""DO"",""SUR""]","[""HF02"",""WM07"",""HF04"",""BF06""]","[5,0,6,7]","[4,2,6,8]","","",""
"show-reward","168","475242","0.0-168.0","p704733","A1VFOKKVJ7B9D6","336OE47KI3QZCSCUXSQ8J11UOZXVWV","39ASUFLU6ZD0M1TS292LA0M4GITXE4","model","mismatch","uniform","","","","","","","","477224.39999985695","479235.59999990463","","","","","","","","","","","","7","","stimuli/stars_7.png","282.5","","","","","stimuli/BF06_SUR.jpg","",""
"explore-choice","169","477377","0.0-169.0","p704733","A1VFOKKVJ7B9D6","336OE47KI3QZCSCUXSQ8J11UOZXVWV","39ASUFLU6ZD0M1TS292LA0M4GITXE4","model","mismatch","uniform","","","","","","","1624.2000000476837","479238.59999990463","480862.7999999523","[""stimuli/BF06_SUR.jpg"",""stimuli/HF02_FO.jpg"",""stimuli/WM07_HO.jpg"",""stimuli/HF04_DO.jpg""]","stimuli/BF06_SUR.jpg","stimuli/HF02_FO.jpg","stimuli/WM07_HO.jpg","stimuli/HF04_DO.jpg","pos1","stimuli/BF06_SUR.jpg","SUR","BF06","0","4.5","9","8","stimuli/stars_9.png","287","[""SUR"",""FO"",""HO"",""DO""]","[""BF06"",""HF02"",""WM07"",""HF04""]","[9,1,2,6]","[8,2,4,6]","","",""
"show-reward","170","479393","0.0-170.0","p704733","A1VFOKKVJ7B9D6","336OE47KI3QZCSCUXSQ8J11UOZXVWV","39ASUFLU6ZD0M1TS292LA0M4GITXE4","model","mismatch","uniform","","","","","","","","481373.89999985695","483387","","","","","","","","","","","","9","","stimuli/stars_9.png","287","","","","","stimuli/BF06_SUR.jpg","",""
"explore-choice","171","481664","0.0-171.0","p704733","A1VFOKKVJ7B9D6","336OE47KI3QZCSCUXSQ8J11UOZXVWV","39ASUFLU6ZD0M1TS292LA0M4GITXE4","model","mismatch","uniform","","","","","","","1761.5999999046326","483389.5","485151.09999990463","[""stimuli/WM07_DO.jpg"",""stimuli/HF02_FO.jpg"",""stimuli/BF06_SUR.jpg"",""stimuli/HF04_HO.jpg""]","stimuli/WM07_DO.jpg","stimuli/HF02_FO.jpg","stimuli/BF06_SUR.jpg","stimuli/HF04_HO.jpg","pos3","stimuli/BF06_SUR.jpg","SUR","BF06","2","3","6","8","stimuli/stars_6.png","290","[""DO"",""FO"",""SUR"",""HO""]","[""WM07"",""HF02"",""BF06"",""HF04""]","[7,0,6,3]","[6,2,8,4]","","",""
"show-reward","172","483672","0.0-172.0","p704733","A1VFOKKVJ7B9D6","336OE47KI3QZCSCUXSQ8J11UOZXVWV","39ASUFLU6ZD0M1TS292LA0M4GITXE4","model","mismatch","uniform","","","","","","","","485660.89999985695","487666.5","","","","","","","","","","","","6","","stimuli/stars_6.png","290","","","","","stimuli/BF06_SUR.jpg","",""
"explore-choice","173","485853","0.0-173.0","p704733","A1VFOKKVJ7B9D6","336OE47KI3QZCSCUXSQ8J11UOZXVWV","39ASUFLU6ZD0M1TS292LA0M4GITXE4","model","mismatch","uniform","","","","","","","1669.2000000476837","487669","489338.2000000477","[""stimuli/WM07_SUR.jpg"",""stimuli/BF06_HO.jpg"",""stimuli/HF02_DO.jpg"",""stimuli/HF04_FO.jpg""]","stimuli/WM07_SUR.jpg","stimuli/BF06_HO.jpg","stimuli/HF02_DO.jpg","stimuli/HF04_FO.jpg","pos2","stimuli/BF06_HO.jpg","HO","BF06","1","3","6","4","stimuli/stars_6.png","293","[""SUR"",""HO"",""DO"",""FO""]","[""WM07"",""BF06"",""HF02"",""HF04""]","[6,6,5,0]","[8,4,6,2]","","",""
"show-reward","174","487868","0.0-174.0","p704733","A1VFOKKVJ7B9D6","336OE47KI3QZCSCUXSQ8J11UOZXVWV","39ASUFLU6ZD0M1TS292LA0M4GITXE4","model","mismatch","uniform","","","","","","","","489850.2999999523","491862.09999990463","","","","","","","","","","","","6","","stimuli/stars_6.png","293","","","","","stimuli/BF06_HO.jpg","",""
"explore-choice","175","490871","0.0-175.0","p704733","A1VFOKKVJ7B9D6","336OE47KI3QZCSCUXSQ8J11UOZXVWV","39ASUFLU6ZD0M1TS292LA0M4GITXE4","model","mismatch","uniform","","","","","","","2494.2999999523163","491864.59999990463","494358.89999985695","[""stimuli/HF04_SUR.jpg"",""stimuli/WM07_DO.jpg"",""stimuli/HF02_HO.jpg"",""stimuli/BF06_FO.jpg""]","stimuli/HF04_SUR.jpg","stimuli/WM07_DO.jpg","stimuli/HF02_HO.jpg","stimuli/BF06_FO.jpg","pos4","stimuli/BF06_FO.jpg","FO","BF06","3","2","4","2","stimuli/stars_4.png","295","[""SUR"",""DO"",""HO"",""FO""]","[""HF04"",""WM07"",""HF02"",""BF06""]","[6,8,4,4]","[8,6,4,2]","","",""
"show-reward","176","492896","0.0-176.0","p704733","A1VFOKKVJ7B9D6","336OE47KI3QZCSCUXSQ8J11UOZXVWV","39ASUFLU6ZD0M1TS292LA0M4GITXE4","model","mismatch","uniform","","","","","","","","494868.09999990463","496889.7000000477","","","","","","","","","","","","4","","stimuli/stars_4.png","295","","","","","stimuli/BF06_FO.jpg","",""
"explore-choice","177","495279","0.0-177.0","p704733","A1VFOKKVJ7B9D6","336OE47KI3QZCSCUXSQ8J11UOZXVWV","39ASUFLU6ZD0M1TS292LA0M4GITXE4","model","mismatch","uniform","","","","","","","1876.7000000476837","496892.2999999523","498769","[""stimuli/HF02_DO.jpg"",""stimuli/BF06_HO.jpg"",""stimuli/HF04_SUR.jpg"",""stimuli/WM07_FO.jpg""]","stimuli/HF02_DO.jpg","stimuli/BF06_HO.jpg","stimuli/HF04_SUR.jpg","stimuli/WM07_FO.jpg","pos2","stimuli/BF06_HO.jpg","HO","BF06","1","3","6","4","stimuli/stars_6.png","298","[""DO"",""HO"",""SUR"",""FO""]","[""HF02"",""BF06"",""HF04"",""WM07""]","[7,6,6,1]","[6,4,8,2]","","",""
"show-reward","178","497288","0.0-178.0","p704733","A1VFOKKVJ7B9D6","336OE47KI3QZCSCUXSQ8J11UOZXVWV","39ASUFLU6ZD0M1TS292LA0M4GITXE4","model","mismatch","uniform","","","","","","","","499276.09999990463","501282.2000000477","","","","","","","","","","","","6","","stimuli/stars_6.png","298","","","","","stimuli/BF06_HO.jpg","",""
"explore-choice","179","499695","0.0-179.0","p704733","A1VFOKKVJ7B9D6","336OE47KI3QZCSCUXSQ8J11UOZXVWV","39ASUFLU6ZD0M1TS292LA0M4GITXE4","model","mismatch","uniform","","","","","","","1896.4000000953674","501284.89999985695","503181.2999999523","[""stimuli/WM07_HO.jpg"",""stimuli/HF04_SUR.jpg"",""stimuli/HF02_DO.jpg"",""stimuli/BF06_FO.jpg""]","stimuli/WM07_HO.jpg","stimuli/HF04_SUR.jpg","stimuli/HF02_DO.jpg","stimuli/BF06_FO.jpg","pos4","stimuli/BF06_FO.jpg","FO","BF06","3","0","0","2","stimuli/stars_0.png","298","[""HO"",""SUR"",""DO"",""FO""]","[""WM07"",""HF04"",""HF02"",""BF06""]","[6,10,7,0]","[4,8,6,2]","","",""
"show-reward","180","501714","0.0-180.0","p704733","A1VFOKKVJ7B9D6","336OE47KI3QZCSCUXSQ8J11UOZXVWV","39ASUFLU6ZD0M1TS292LA0M4GITXE4","model","mismatch","uniform","","","","","","","","503691.39999985695","505707.59999990463","","","","","","","","","","","","0","","stimuli/stars_0.png","298","","","","","stimuli/BF06_FO.jpg","",""
"explore-choice","181","504090","0.0-181.0","p704733","A1VFOKKVJ7B9D6","336OE47KI3QZCSCUXSQ8J11UOZXVWV","39ASUFLU6ZD0M1TS292LA0M4GITXE4","model","mismatch","uniform","","","","","","","1872.7999999523163","505710.2999999523","507583.09999990463","[""stimuli/HF04_DO.jpg"",""stimuli/HF02_SUR.jpg"",""stimuli/BF06_HO.jpg"",""stimuli/WM07_FO.jpg""]","stimuli/HF04_DO.jpg","stimuli/HF02_SUR.jpg","stimuli/BF06_HO.jpg","stimuli/WM07_FO.jpg","pos2","stimuli/HF02_SUR.jpg","SUR","HF02","1","3","6","8","stimuli/stars_6.png","301","[""DO"",""SUR"",""HO"",""FO""]","[""HF04"",""HF02"",""BF06"",""WM07""]","[4,6,2,1]","[6,8,4,2]","","",""
"show-reward","182","506100","0.0-182.0","p704733","A1VFOKKVJ7B9D6","336OE47KI3QZCSCUXSQ8J11UOZXVWV","39ASUFLU6ZD0M1TS292LA0M4GITXE4","model","mismatch","uniform","","","","","","","","508087.2000000477","510094.59999990463","","","","","","","","","","","","6","","stimuli/stars_6.png","301","","","","","stimuli/HF02_SUR.jpg","",""
"explore-choice","183","507612","0.0-183.0","p704733","A1VFOKKVJ7B9D6","336OE47KI3QZCSCUXSQ8J11UOZXVWV","39ASUFLU6ZD0M1TS292LA0M4GITXE4","model","mismatch","uniform","","","","","","","993.7999999523163","510096.7999999523","511090.59999990463","[""stimuli/HF04_FO.jpg"",""stimuli/WM07_HO.jpg"",""stimuli/HF02_SUR.jpg"",""stimuli/BF06_DO.jpg""]","stimuli/HF04_FO.jpg","stimuli/WM07_HO.jpg","stimuli/HF02_SUR.jpg","stimuli/BF06_DO.jpg","pos3","stimuli/HF02_SUR.jpg","SUR","HF02","2","4","8","8","stimuli/stars_8.png","305","[""FO"",""HO"",""SUR"",""DO""]","[""HF04"",""WM07"",""HF02"",""BF06""]","[4,3,8,7]","[2,4,8,6]","","",""
"show-reward","184","509630","0.0-184.0","p704733","A1VFOKKVJ7B9D6","336OE47KI3QZCSCUXSQ8J11UOZXVWV","39ASUFLU6ZD0M1TS292LA0M4GITXE4","model","mismatch","uniform","","","","","","","","511608.5","513624.7000000477","","","","","","","","","","","","8","","stimuli/stars_8.png","305","","","","","stimuli/HF02_SUR.jpg","",""
"explore-choice","185","511004","0.0-185.0","p704733","A1VFOKKVJ7B9D6","336OE47KI3QZCSCUXSQ8J11UOZXVWV","39ASUFLU6ZD0M1TS292LA0M4GITXE4","model","mismatch","uniform","","","","","","","863.2999999523163","513627.2000000477","514490.5","[""stimuli/BF06_SUR.jpg"",""stimuli/HF04_FO.jpg"",""stimuli/HF02_DO.jpg"",""stimuli/WM07_HO.jpg""]","stimuli/BF06_SUR.jpg","stimuli/HF04_FO.jpg","stimuli/HF02_DO.jpg","stimuli/WM07_HO.jpg","pos3","stimuli/HF02_DO.jpg","DO","HF02","2","3.5","7","6","stimuli/stars_7.png","308.5","[""SUR"",""FO"",""DO"",""HO""]","[""BF06"",""HF04"",""HF02"",""WM07""]","[9,2,7,5]","[8,2,6,4]","","",""
"show-reward","186","513018","0.0-186.0","p704733","A1VFOKKVJ7B9D6","336OE47KI3QZCSCUXSQ8J11UOZXVWV","39ASUFLU6ZD0M1TS292LA0M4GITXE4","model","mismatch","uniform","","","","","","","","515000.2000000477","517011.7999999523","","","","","","","","","","","","7","","stimuli/stars_7.png","308.5","","","","","stimuli/HF02_DO.jpg","",""
"explore-choice","187","515414","0.0-187.0","p704733","A1VFOKKVJ7B9D6","336OE47KI3QZCSCUXSQ8J11UOZXVWV","39ASUFLU6ZD0M1TS292LA0M4GITXE4","model","mismatch","uniform","","","","","","","1892.7999999523163","517014.09999990463","518906.89999985695","[""stimuli/WM07_FO.jpg"",""stimuli/BF06_DO.jpg"",""stimuli/HF04_SUR.jpg"",""stimuli/HF02_HO.jpg""]","stimuli/WM07_FO.jpg","stimuli/BF06_DO.jpg","stimuli/HF04_SUR.jpg","stimuli/HF02_HO.jpg","pos4","stimuli/HF02_HO.jpg","HO","HF02","3","1.5","3","4","stimuli/stars_3.png","310","[""FO"",""DO"",""SUR"",""HO""]","[""WM07"",""BF06"",""HF04"",""HF02""]","[1,8,6,3]","[2,6,8,4]","","",""
"show-reward","188","517425","0.0-188.0","p704733","A1VFOKKVJ7B9D6","336OE47KI3QZCSCUXSQ8J11UOZXVWV","39ASUFLU6ZD0M1TS292LA0M4GITXE4","model","mismatch","uniform","","","","","","","","519410.7000000477","521418.7999999523","","","","","","","","","","","","3","","stimuli/stars_3.png","310","","","","","stimuli/HF02_HO.jpg","",""
"explore-choice","189","520632","0.0-189.0","p704733","A1VFOKKVJ7B9D6","336OE47KI3QZCSCUXSQ8J11UOZXVWV","39ASUFLU6ZD0M1TS292LA0M4GITXE4","model","mismatch","uniform","","","","","","","2703.100000143051","521421.39999985695","524124.5","[""stimuli/BF06_FO.jpg"",""stimuli/HF02_DO.jpg"",""stimuli/WM07_SUR.jpg"",""stimuli/HF04_HO.jpg""]","stimuli/BF06_FO.jpg","stimuli/HF02_DO.jpg","stimuli/WM07_SUR.jpg","stimuli/HF04_HO.jpg","pos2","stimuli/HF02_DO.jpg","DO","HF02","1","2","4","6","stimuli/stars_4.png","312","[""FO"",""DO"",""SUR"",""HO""]","[""BF06"",""HF02"",""WM07"",""HF04""]","[4,4,10,6]","[2,6,8,4]","","",""
"show-reward","190","522640","0.0-190.0","p704733","A1VFOKKVJ7B9D6","336OE47KI3QZCSCUXSQ8J11UOZXVWV","39ASUFLU6ZD0M1TS292LA0M4GITXE4","model","mismatch","uniform","","","","","","","","524628.7000000477","526633.899999857","","","","","","","","","","","","4","","stimuli/stars_4.png","312","","","","","stimuli/HF02_DO.jpg","",""
"explore-choice","191","524633","0.0-191.0","p704733","A1VFOKKVJ7B9D6","336OE47KI3QZCSCUXSQ8J11UOZXVWV","39ASUFLU6ZD0M1TS292LA0M4GITXE4","model","mismatch","uniform","","","","","","","1486.3999998569489","526636.2000000477","528122.5999999046","[""stimuli/BF06_FO.jpg"",""stimuli/HF02_SUR.jpg"",""stimuli/HF04_DO.jpg"",""stimuli/WM07_HO.jpg""]","stimuli/BF06_FO.jpg","stimuli/HF02_SUR.jpg","stimuli/HF04_DO.jpg","stimuli/WM07_HO.jpg","pos3","stimuli/HF04_DO.jpg","DO","HF04","2","3.5","7","6","stimuli/stars_7.png","315.5","[""FO"",""SUR"",""DO"",""HO""]","[""BF06"",""HF02"",""HF04"",""WM07""]","[3,7,7,3]","[2,8,6,4]","","",""
"show-reward","192","526643","0.0-192.0","p704733","A1VFOKKVJ7B9D6","336OE47KI3QZCSCUXSQ8J11UOZXVWV","39ASUFLU6ZD0M1TS292LA0M4GITXE4","model","mismatch","uniform","","","","","","","","528629.5999999046","530637.5","","","","","","","","","","","","7","","stimuli/stars_7.png","315.5","","","","","stimuli/HF04_DO.jpg","",""
"explore-choice","193","534860","0.0-193.0","p704733","A1VFOKKVJ7B9D6","336OE47KI3QZCSCUXSQ8J11UOZXVWV","39ASUFLU6ZD0M1TS292LA0M4GITXE4","model","mismatch","uniform","","","","","","","7701","530639.899999857","538340.899999857","[""stimuli/HF02_SUR.jpg"",""stimuli/HF04_HO.jpg"",""stimuli/BF06_DO.jpg"",""stimuli/WM07_FO.jpg""]","stimuli/HF02_SUR.jpg","stimuli/HF04_HO.jpg","stimuli/BF06_DO.jpg","stimuli/WM07_FO.jpg","pos1","stimuli/HF02_SUR.jpg","SUR","HF02","0","3.5","7","8","stimuli/stars_7.png","319","[""SUR"",""HO"",""DO"",""FO""]","[""HF02"",""HF04"",""BF06"",""WM07""]","[7,5,4,2]","[8,4,6,2]","","",""
"show-reward","194","536871","0.0-194.0","p704733","A1VFOKKVJ7B9D6","336OE47KI3QZCSCUXSQ8J11UOZXVWV","39ASUFLU6ZD0M1TS292LA0M4GITXE4","model","mismatch","uniform","","","","","","","","538857.0999999046","540865.0999999046","","","","","","","","","","","","7","","stimuli/stars_7.png","319","","","","","stimuli/HF02_SUR.jpg","",""
"explore-choice","195","538623","0.0-195.0","p704733","A1VFOKKVJ7B9D6","336OE47KI3QZCSCUXSQ8J11UOZXVWV","39ASUFLU6ZD0M1TS292LA0M4GITXE4","model","mismatch","uniform","","","","","","","1235.5999999046326","540867.5","542103.0999999046","[""stimuli/BF06_SUR.jpg"",""stimuli/HF02_DO.jpg"",""stimuli/WM07_FO.jpg"",""stimuli/HF04_HO.jpg""]","stimuli/BF06_SUR.jpg","stimuli/HF02_DO.jpg","stimuli/WM07_FO.jpg","stimuli/HF04_HO.jpg","pos2","stimuli/HF02_DO.jpg","DO","HF02","1","4","8","6","stimuli/stars_8.png","323","[""SUR"",""DO"",""FO"",""HO""]","[""BF06"",""HF02"",""WM07"",""HF04""]","[8,8,1,2]","[8,6,2,4]","","",""
"show-reward","196","540644","0.0-196.0","p704733","A1VFOKKVJ7B9D6","336OE47KI3QZCSCUXSQ8J11UOZXVWV","39ASUFLU6ZD0M1TS292LA0M4GITXE4","model","mismatch","uniform","","","","","","","","542625.0999999046","544637.0999999046","","","","","","","","","","","","8","","stimuli/stars_8.png","323","","","","","stimuli/HF02_DO.jpg","",""
"explore-choice","197","544593","0.0-197.0","p704733","A1VFOKKVJ7B9D6","336OE47KI3QZCSCUXSQ8J11UOZXVWV","39ASUFLU6ZD0M1TS292LA0M4GITXE4","model","mismatch","uniform","","","","","","","3440.5","544640.2999999523","548080.7999999523","[""stimuli/BF06_DO.jpg"",""stimuli/HF04_HO.jpg"",""stimuli/HF02_FO.jpg"",""stimuli/WM07_SUR.jpg""]","stimuli/BF06_DO.jpg","stimuli/HF04_HO.jpg","stimuli/HF02_FO.jpg","stimuli/WM07_SUR.jpg","pos3","stimuli/HF02_FO.jpg","FO","HF02","2","1","2","2","stimuli/stars_2.png","324","[""DO"",""HO"",""FO"",""SUR""]","[""BF06"",""HF04"",""HF02"",""WM07""]","[6,5,2,6]","[6,4,2,8]","","",""
"show-reward","198","546602","0.0-198.0","p704733","A1VFOKKVJ7B9D6","336OE47KI3QZCSCUXSQ8J11UOZXVWV","39ASUFLU6ZD0M1TS292LA0M4GITXE4","model","mismatch","uniform","","","","","","","","548589.5999999046","550595.7999999523","","","","","","","","","","","","2","","stimuli/stars_2.png","324","","","","","stimuli/HF02_FO.jpg","",""
"instructions","199","551613","0.0-199.0","p704733","A1VFOKKVJ7B9D6","336OE47KI3QZCSCUXSQ8J11UOZXVWV","39ASUFLU6ZD0M1TS292LA0M4GITXE4","model","mismatch","uniform","","","","","","[{""page_index"":0,""viewing_time"":5005}]","5007.400000095367","","","","","","","","","","","","","","","","","","","","","","","",""
"survey-text","200","555107","0.0-200.0-0.0","p704733","A1VFOKKVJ7B9D6","336OE47KI3QZCSCUXSQ8J11UOZXVWV","39ASUFLU6ZD0M1TS292LA0M4GITXE4","model","mismatch","uniform","","","","","","","3483.600000143051","","","","","","","","","","","","","","","","","","","","","","","{""age"":""47""}",""
"survey-text","201","562496","0.0-200.0-1.0","p704733","A1VFOKKVJ7B9D6","336OE47KI3QZCSCUXSQ8J11UOZXVWV","39ASUFLU6ZD0M1TS292LA0M4GITXE4","model","mismatch","uniform","","","","","","","7383.200000047684","","","","","","","","","","","","","","","","","","","","","","","{""gender"":""Female""}",""
"survey-text","202","567726","0.0-200.0-2.0","p704733","A1VFOKKVJ7B9D6","336OE47KI3QZCSCUXSQ8J11UOZXVWV","39ASUFLU6ZD0M1TS292LA0M4GITXE4","model","mismatch","uniform","","","","","","","5223.100000143051","","","","","","","","","","","","","","","","","","","","","","","{""country"":""USA""}",""
"survey-text","203","577258","0.0-200.0-3.0","p704733","A1VFOKKVJ7B9D6","336OE47KI3QZCSCUXSQ8J11UOZXVWV","39ASUFLU6ZD0M1TS292LA0M4GITXE4","model","mismatch","uniform","","","","","","","9524.099999904633","","","","","","","","","","","","","","","","","","","","","","","{""language"":""English"",""other_languages"":""N/A""}",""
"survey-multi-select","204","580761","0.0-201.0","p704733","A1VFOKKVJ7B9D6","336OE47KI3QZCSCUXSQ8J11UOZXVWV","39ASUFLU6ZD0M1TS292LA0M4GITXE4","model","mismatch","uniform","","","","","","","3496.2999999523163","","","","","","","","","","","","","","","","","","","","","","","{""race"":[""White""]}","[0]"
"survey-multi-choice","205","587878","0.0-202.0","p704733","A1VFOKKVJ7B9D6","336OE47KI3QZCSCUXSQ8J11UOZXVWV","39ASUFLU6ZD0M1TS292LA0M4GITXE4","model","mismatch","uniform","","","","","","","7111.099999904633","","","","","","","","","","","","","","","","","","","","","","","{""education"":""Some college/ university""}","[0]"
"survey-text","206","627480","0.0-203.0","p704733","A1VFOKKVJ7B9D6","336OE47KI3QZCSCUXSQ8J11UOZXVWV","39ASUFLU6ZD0M1TS292LA0M4GITXE4","model","mismatch","uniform","","","","","","","39591.799999952316","","","","","","","","","","","","","","","","","","","","","","","{""patterns"":""For the first set the gentleman I kept choosing was the most consistent in stars."",""strategy"":""I tried to find the one that was most consistent with star points"",""comments"":""""}",""
