"trial_type","trial_index","time_elapsed","internal_node_id","subject","workerId","hitId","assignmentId","structure_condition","match_condition","noise_type","success","timeout","failed_images","failed_audio","failed_video","view_history","rt","start_time","end_time","stimuli","image1","image2","image3","image4","choiceLocation","choiceImage","choiceEmotion","choiceModel","choice_index","reward_score","reward","reward_score_unadjusted","reward_image","score_after_trial","emotions","models","rewards","rewards_unadjusted","stimulus","response","question_order"
"pavlovia","0","5","0.0-0.0","p252818","A2KW87ZD2ELYNG","3UUIU9GZC6BQMHTLWW3KSJ0W7IE5TB","3I02618YA2CC2OON6I79K5M407EPUP","emotion","mismatch","uniform","","","","","","","","","","","","","","","","","","","","","","","","","","","","","","",""
"preload","1","16079","0.0-1.0","p252818","A2KW87ZD2ELYNG","3UUIU9GZC6BQMHTLWW3KSJ0W7IE5TB","3I02618YA2CC2OON6I79K5M407EPUP","emotion","mismatch","uniform","true","false","[]","[]","[]","","","","","","","","","","","","","","","","","","","","","","","","","",""
"fullscreen","2","20471","0.0-2.0","p252818","A2KW87ZD2ELYNG","3UUIU9GZC6BQMHTLWW3KSJ0W7IE5TB","3I02618YA2CC2OON6I79K5M407EPUP","emotion","mismatch","uniform","true","","","","","","","","","","","","","","","","","","","","","","","","","","","","","",""
"instructions","3","27982","0.0-3.0","p252818","A2KW87ZD2ELYNG","3UUIU9GZC6BQMHTLWW3KSJ0W7IE5TB","3I02618YA2CC2OON6I79K5M407EPUP","emotion","mismatch","uniform","","","","","","[{""page_index"":0,""viewing_time"":7510.800000071526}]","7511.300000071526","","","","","","","","","","","","","","","","","","","","","","","",""
"explore-choice","4","31530","0.0-4.0","p252818","A2KW87ZD2ELYNG","3UUIU9GZC6BQMHTLWW3KSJ0W7IE5TB","3I02618YA2CC2OON6I79K5M407EPUP","emotion","mismatch","uniform","","","","","","","3045.5","29422.100000023842","32467.600000023842","[""stimuli/sheep.jpg"",""stimuli/hammer.jpg"",""stimuli/basketball.jpg"",""stimuli/horse.jpg""]","stimuli/sheep.jpg","stimuli/hammer.jpg","stimuli/basketball.jpg","stimuli/horse.jpg","pos4","stimuli/horse.jpg","","","3","64","64","64","stimuli/stars_8.png","65","","","","","","",""
"explore-choice","5","33639","0.0-5.0","p252818","A2KW87ZD2ELYNG","3UUIU9GZC6BQMHTLWW3KSJ0W7IE5TB","3I02618YA2CC2OON6I79K5M407EPUP","emotion","mismatch","uniform","","","","","","","1609.3999999761581","32969.10000002384","34578.5","[""stimuli/hammer.jpg"",""stimuli/basketball.jpg"",""stimuli/horse.jpg"",""stimuli/sheep.jpg""]","stimuli/hammer.jpg","stimuli/basketball.jpg","stimuli/horse.jpg","stimuli/sheep.jpg","pos1","stimuli/hammer.jpg","","","0","8","8","8","stimuli/stars_2.png","9","","","","","","",""
"instructions","6","56354","0.0-6.0","p252818","A2KW87ZD2ELYNG","3UUIU9GZC6BQMHTLWW3KSJ0W7IE5TB","3I02618YA2CC2OON6I79K5M407EPUP","emotion","mismatch","uniform","","","","","","[{""page_index"":0,""viewing_time"":22712.200000047684}]","22712.299999952316","","","","","","","","","","","","","","","","","","","","","","","",""
"explore-choice","7","59327","0.0-7.0","p252818","A2KW87ZD2ELYNG","3UUIU9GZC6BQMHTLWW3KSJ0W7IE5TB","3I02618YA2CC2OON6I79K5M407EPUP","emotion","mismatch","uniform","","","","","","","2471.600000023842","57792","60263.60000002384","[""stimuli/HM02_DO.jpg"",""stimuli/AM09_HO.jpg"",""stimuli/AM03_SUR.jpg"",""stimuli/BF08_CC.jpg""]","stimuli/HM02_DO.jpg","stimuli/AM09_HO.jpg","stimuli/AM03_SUR.jpg","stimuli/BF08_CC.jpg","pos2","stimuli/AM09_HO.jpg","HO","AM09","1","2","4","2","stimuli/stars_4.png","3","[""DO"",""HO"",""SUR"",""CC""]","[""HM02"",""AM09"",""AM03"",""BF08""]","[8,4,4,7]","[6,2,4,8]","","",""
"show-reward","8","61329","0.0-8.0","p252818","A2KW87ZD2ELYNG","3UUIU9GZC6BQMHTLWW3KSJ0W7IE5TB","3I02618YA2CC2OON6I79K5M407EPUP","emotion","mismatch","uniform","","","","","","","","60765.60000002384","62766.799999952316","","","","","","","","","","","","4","","stimuli/stars_4.png","3","","","","","stimuli/AM09_HO.jpg","",""
"explore-choice","9","65155","0.0-9.0","p252818","A2KW87ZD2ELYNG","3UUIU9GZC6BQMHTLWW3KSJ0W7IE5TB","3I02618YA2CC2OON6I79K5M407EPUP","emotion","mismatch","uniform","","","","","","","3324.5","62767.5","66092","[""stimuli/BF08_CC.jpg"",""stimuli/HM02_DO.jpg"",""stimuli/AM03_HO.jpg"",""stimuli/AM09_SUR.jpg""]","stimuli/BF08_CC.jpg","stimuli/HM02_DO.jpg","stimuli/AM03_HO.jpg","stimuli/AM09_SUR.jpg","pos1","stimuli/BF08_CC.jpg","CC","BF08","0","3.5","7","8","stimuli/stars_7.png","6.5","[""CC"",""DO"",""HO"",""SUR""]","[""BF08"",""HM02"",""AM03"",""AM09""]","[7,6,3,6]","[8,6,2,4]","","",""
"show-reward","10","67157","0.0-10.0","p252818","A2KW87ZD2ELYNG","3UUIU9GZC6BQMHTLWW3KSJ0W7IE5TB","3I02618YA2CC2OON6I79K5M407EPUP","emotion","mismatch","uniform","","","","","","","","66593.39999997616","68594.79999995232","","","","","","","","","","","","7","","stimuli/stars_7.png","6.5","","","","","stimuli/BF08_CC.jpg","",""
"explore-choice","11","69298","0.0-11.0","p252818","A2KW87ZD2ELYNG","3UUIU9GZC6BQMHTLWW3KSJ0W7IE5TB","3I02618YA2CC2OON6I79K5M407EPUP","emotion","mismatch","uniform","","","","","","","1639.7999999523163","68595.5","70235.29999995232","[""stimuli/HM02_SUR.jpg"",""stimuli/AM09_DO.jpg"",""stimuli/BF08_HO.jpg"",""stimuli/AM03_CC.jpg""]","stimuli/HM02_SUR.jpg","stimuli/AM09_DO.jpg","stimuli/BF08_HO.jpg","stimuli/AM03_CC.jpg","pos2","stimuli/AM09_DO.jpg","DO","AM09","1","2","4","6","stimuli/stars_4.png","8.5","[""SUR"",""DO"",""HO"",""CC""]","[""HM02"",""AM09"",""BF08"",""AM03""]","[5,4,3,9]","[4,6,2,8]","","",""
"show-reward","12","71300","0.0-12.0","p252818","A2KW87ZD2ELYNG","3UUIU9GZC6BQMHTLWW3KSJ0W7IE5TB","3I02618YA2CC2OON6I79K5M407EPUP","emotion","mismatch","uniform","","","","","","","","70736.10000002384","72737.29999995232","","","","","","","","","","","","4","","stimuli/stars_4.png","8.5","","","","","stimuli/AM09_DO.jpg","",""
"explore-choice","13","74010","0.0-13.0","p252818","A2KW87ZD2ELYNG","3UUIU9GZC6BQMHTLWW3KSJ0W7IE5TB","3I02618YA2CC2OON6I79K5M407EPUP","emotion","mismatch","uniform","","","","","","","2208.7000000476837","72737.79999995232","74946.5","[""stimuli/BF08_SUR.jpg"",""stimuli/AM03_HO.jpg"",""stimuli/AM09_CC.jpg"",""stimuli/HM02_DO.jpg""]","stimuli/BF08_SUR.jpg","stimuli/AM03_HO.jpg","stimuli/AM09_CC.jpg","stimuli/HM02_DO.jpg","pos4","stimuli/HM02_DO.jpg","DO","HM02","3","4","8","6","stimuli/stars_8.png","12.5","[""SUR"",""HO"",""CC"",""DO""]","[""BF08"",""AM03"",""AM09"",""HM02""]","[4,1,6,8]","[4,2,8,6]","","",""
"show-reward","14","76012","0.0-14.0","p252818","A2KW87ZD2ELYNG","3UUIU9GZC6BQMHTLWW3KSJ0W7IE5TB","3I02618YA2CC2OON6I79K5M407EPUP","emotion","mismatch","uniform","","","","","","","","75448.10000002384","77449.29999995232","","","","","","","","","","","","8","","stimuli/stars_8.png","12.5","","","","","stimuli/HM02_DO.jpg","",""
"explore-choice","15","79227","0.0-15.0","p252818","A2KW87ZD2ELYNG","3UUIU9GZC6BQMHTLWW3KSJ0W7IE5TB","3I02618YA2CC2OON6I79K5M407EPUP","emotion","mismatch","uniform","","","","","","","2713.3000000715256","77449.79999995232","80163.10000002384","[""stimuli/AM03_SUR.jpg"",""stimuli/BF08_DO.jpg"",""stimuli/AM09_CC.jpg"",""stimuli/HM02_HO.jpg""]","stimuli/AM03_SUR.jpg","stimuli/BF08_DO.jpg","stimuli/AM09_CC.jpg","stimuli/HM02_HO.jpg","pos2","stimuli/BF08_DO.jpg","DO","BF08","1","2","4","6","stimuli/stars_4.png","14.5","[""SUR"",""DO"",""CC"",""HO""]","[""AM03"",""BF08"",""AM09"",""HM02""]","[3,4,9,4]","[4,6,8,2]","","",""
"show-reward","16","81228","0.0-16.0","p252818","A2KW87ZD2ELYNG","3UUIU9GZC6BQMHTLWW3KSJ0W7IE5TB","3I02618YA2CC2OON6I79K5M407EPUP","emotion","mismatch","uniform","","","","","","","","80664.70000004768","82665.79999995232","","","","","","","","","","","","4","","stimuli/stars_4.png","14.5","","","","","stimuli/BF08_DO.jpg","",""
"explore-choice","17","83937","0.0-17.0","p252818","A2KW87ZD2ELYNG","3UUIU9GZC6BQMHTLWW3KSJ0W7IE5TB","3I02618YA2CC2OON6I79K5M407EPUP","emotion","mismatch","uniform","","","","","","","2207.1999999284744","82666.20000004768","84873.39999997616","[""stimuli/AM03_HO.jpg"",""stimuli/BF08_DO.jpg"",""stimuli/AM09_SUR.jpg"",""stimuli/HM02_CC.jpg""]","stimuli/AM03_HO.jpg","stimuli/BF08_DO.jpg","stimuli/AM09_SUR.jpg","stimuli/HM02_CC.jpg","pos1","stimuli/AM03_HO.jpg","HO","AM03","0","1","2","2","stimuli/stars_2.png","15.5","[""HO"",""DO"",""SUR"",""CC""]","[""AM03"",""BF08"",""AM09"",""HM02""]","[2,4,2,7]","[2,6,4,8]","","",""
"show-reward","18","85938","0.0-18.0","p252818","A2KW87ZD2ELYNG","3UUIU9GZC6BQMHTLWW3KSJ0W7IE5TB","3I02618YA2CC2OON6I79K5M407EPUP","emotion","mismatch","uniform","","","","","","","","85374.60000002384","87375.79999995232","","","","","","","","","","","","2","","stimuli/stars_2.png","15.5","","","","","stimuli/AM03_HO.jpg","",""
"explore-choice","19","89632","0.0-19.0","p252818","A2KW87ZD2ELYNG","3UUIU9GZC6BQMHTLWW3KSJ0W7IE5TB","3I02618YA2CC2OON6I79K5M407EPUP","emotion","mismatch","uniform","","","","","","","3192.600000023842","87376.39999997616","90569","[""stimuli/BF08_DO.jpg"",""stimuli/HM02_HO.jpg"",""stimuli/AM09_SUR.jpg"",""stimuli/AM03_CC.jpg""]","stimuli/BF08_DO.jpg","stimuli/HM02_HO.jpg","stimuli/AM09_SUR.jpg","stimuli/AM03_CC.jpg","pos1","stimuli/BF08_DO.jpg","DO","BF08","0","3.5","7","6","stimuli/stars_7.png","19","[""DO"",""HO"",""SUR"",""CC""]","[""BF08"",""HM02"",""AM09"",""AM03""]","[7,1,2,6]","[6,2,4,8]","","",""
"show-reward","20","91634","0.0-20.0","p252818","A2KW87ZD2ELYNG","3UUIU9GZC6BQMHTLWW3KSJ0W7IE5TB","3I02618YA2CC2OON6I79K5M407EPUP","emotion","mismatch","uniform","","","","","","","","91070.29999995232","93071.79999995232","","","","","","","","","","","","7","","stimuli/stars_7.png","19","","","","","stimuli/BF08_DO.jpg","",""
"explore-choice","21","96406","0.0-21.0","p252818","A2KW87ZD2ELYNG","3UUIU9GZC6BQMHTLWW3KSJ0W7IE5TB","3I02618YA2CC2OON6I79K5M407EPUP","emotion","mismatch","uniform","","","","","","","4270.100000023842","93072.39999997616","97342.5","[""stimuli/AM03_DO.jpg"",""stimuli/BF08_HO.jpg"",""stimuli/HM02_CC.jpg"",""stimuli/AM09_SUR.jpg""]","stimuli/AM03_DO.jpg","stimuli/BF08_HO.jpg","stimuli/HM02_CC.jpg","stimuli/AM09_SUR.jpg","pos1","stimuli/AM03_DO.jpg","DO","AM03","0","3.5","7","6","stimuli/stars_7.png","22.5","[""DO"",""HO"",""CC"",""SUR""]","[""AM03"",""BF08"",""HM02"",""AM09""]","[7,0,10,6]","[6,2,8,4]","","",""
"show-reward","22","98408","0.0-22.0","p252818","A2KW87ZD2ELYNG","3UUIU9GZC6BQMHTLWW3KSJ0W7IE5TB","3I02618YA2CC2OON6I79K5M407EPUP","emotion","mismatch","uniform","","","","","","","","97844","99845.5","","","","","","","","","","","","7","","stimuli/stars_7.png","22.5","","","","","stimuli/AM03_DO.jpg","",""
"explore-choice","23","101722","0.0-23.0","p252818","A2KW87ZD2ELYNG","3UUIU9GZC6BQMHTLWW3KSJ0W7IE5TB","3I02618YA2CC2OON6I79K5M407EPUP","emotion","mismatch","uniform","","","","","","","2813","99846","102659","[""stimuli/AM09_HO.jpg"",""stimuli/HM02_CC.jpg"",""stimuli/AM03_DO.jpg"",""stimuli/BF08_SUR.jpg""]","stimuli/AM09_HO.jpg","stimuli/HM02_CC.jpg","stimuli/AM03_DO.jpg","stimuli/BF08_SUR.jpg","pos3","stimuli/AM03_DO.jpg","DO","AM03","2","3","6","6","stimuli/stars_6.png","25.5","[""HO"",""CC"",""DO"",""SUR""]","[""AM09"",""HM02"",""AM03"",""BF08""]","[1,9,6,2]","[2,8,6,4]","","",""
"show-reward","24","103724","0.0-24.0","p252818","A2KW87ZD2ELYNG","3UUIU9GZC6BQMHTLWW3KSJ0W7IE5TB","3I02618YA2CC2OON6I79K5M407EPUP","emotion","mismatch","uniform","","","","","","","","103160","105161.60000002384","","","","","","","","","","","","6","","stimuli/stars_6.png","25.5","","","","","stimuli/AM03_DO.jpg","",""
"explore-choice","25","107495","0.0-25.0","p252818","A2KW87ZD2ELYNG","3UUIU9GZC6BQMHTLWW3KSJ0W7IE5TB","3I02618YA2CC2OON6I79K5M407EPUP","emotion","mismatch","uniform","","","","","","","3270.2000000476837","105162","108432.20000004768","[""stimuli/AM03_SUR.jpg"",""stimuli/HM02_CC.jpg"",""stimuli/BF08_DO.jpg"",""stimuli/AM09_HO.jpg""]","stimuli/AM03_SUR.jpg","stimuli/HM02_CC.jpg","stimuli/BF08_DO.jpg","stimuli/AM09_HO.jpg","pos3","stimuli/BF08_DO.jpg","DO","BF08","2","2.5","5","6","stimuli/stars_5.png","28","[""SUR"",""CC"",""DO"",""HO""]","[""AM03"",""HM02"",""BF08"",""AM09""]","[4,8,5,4]","[4,8,6,2]","","",""
"show-reward","26","109497","0.0-26.0","p252818","A2KW87ZD2ELYNG","3UUIU9GZC6BQMHTLWW3KSJ0W7IE5TB","3I02618YA2CC2OON6I79K5M407EPUP","emotion","mismatch","uniform","","","","","","","","108933.39999997616","110934.60000002384","","","","","","","","","","","","5","","stimuli/stars_5.png","28","","","","","stimuli/BF08_DO.jpg","",""
"explore-choice","27","112622","0.0-27.0","p252818","A2KW87ZD2ELYNG","3UUIU9GZC6BQMHTLWW3KSJ0W7IE5TB","3I02618YA2CC2OON6I79K5M407EPUP","emotion","mismatch","uniform","","","","","","","2622.5","110935.10000002384","113557.60000002384","[""stimuli/BF08_HO.jpg"",""stimuli/AM03_SUR.jpg"",""stimuli/AM09_DO.jpg"",""stimuli/HM02_CC.jpg""]","stimuli/BF08_HO.jpg","stimuli/AM03_SUR.jpg","stimuli/AM09_DO.jpg","stimuli/HM02_CC.jpg","pos3","stimuli/AM09_DO.jpg","DO","AM09","2","2.5","5","6","stimuli/stars_5.png","30.5","[""HO"",""SUR"",""DO"",""CC""]","[""BF08"",""AM03"",""AM09"",""HM02""]","[3,3,5,6]","[2,4,6,8]","","",""
"show-reward","28","114625","0.0-28.0","p252818","A2KW87ZD2ELYNG","3UUIU9GZC6BQMHTLWW3KSJ0W7IE5TB","3I02618YA2CC2OON6I79K5M407EPUP","emotion","mismatch","uniform","","","","","","","","114058.89999997616","116060.70000004768","","","","","","","","","","","","5","","stimuli/stars_5.png","30.5","","","","","stimuli/AM09_DO.jpg","",""
"explore-choice","29","117747","0.0-29.0","p252818","A2KW87ZD2ELYNG","3UUIU9GZC6BQMHTLWW3KSJ0W7IE5TB","3I02618YA2CC2OON6I79K5M407EPUP","emotion","mismatch","uniform","","","","","","","2620.7999999523163","116061.20000004768","118682","[""stimuli/AM03_CC.jpg"",""stimuli/BF08_HO.jpg"",""stimuli/AM09_SUR.jpg"",""stimuli/HM02_DO.jpg""]","stimuli/AM03_CC.jpg","stimuli/BF08_HO.jpg","stimuli/AM09_SUR.jpg","stimuli/HM02_DO.jpg","pos4","stimuli/HM02_DO.jpg","DO","HM02","3","3","6","6","stimuli/stars_6.png","33.5","[""CC"",""HO"",""SUR"",""DO""]","[""AM03"",""BF08"",""AM09"",""HM02""]","[7,1,5,6]","[8,2,4,6]","","",""
"show-reward","30","119749","0.0-30.0","p252818","A2KW87ZD2ELYNG","3UUIU9GZC6BQMHTLWW3KSJ0W7IE5TB","3I02618YA2CC2OON6I79K5M407EPUP","emotion","mismatch","uniform","","","","","","","","119183.39999997616","121185.20000004768","","","","","","","","","","","","6","","stimuli/stars_6.png","33.5","","","","","stimuli/HM02_DO.jpg","",""
"explore-choice","31","122042","0.0-31.0","p252818","A2KW87ZD2ELYNG","3UUIU9GZC6BQMHTLWW3KSJ0W7IE5TB","3I02618YA2CC2OON6I79K5M407EPUP","emotion","mismatch","uniform","","","","","","","1792.6999999284744","121185.60000002384","122978.29999995232","[""stimuli/BF08_CC.jpg"",""stimuli/HM02_HO.jpg"",""stimuli/AM09_DO.jpg"",""stimuli/AM03_SUR.jpg""]","stimuli/BF08_CC.jpg","stimuli/HM02_HO.jpg","stimuli/AM09_DO.jpg","stimuli/AM03_SUR.jpg","pos3","stimuli/AM09_DO.jpg","DO","AM09","2","2.5","5","6","stimuli/stars_5.png","36","[""CC"",""HO"",""DO"",""SUR""]","[""BF08"",""HM02"",""AM09"",""AM03""]","[6,4,5,5]","[8,2,6,4]","","",""
"show-reward","32","124044","0.0-32.0","p252818","A2KW87ZD2ELYNG","3UUIU9GZC6BQMHTLWW3KSJ0W7IE5TB","3I02618YA2CC2OON6I79K5M407EPUP","emotion","mismatch","uniform","","","","","","","","123478.89999997616","125480.10000002384","","","","","","","","","","","","5","","stimuli/stars_5.png","36","","","","","stimuli/AM09_DO.jpg","",""
"explore-choice","33","126666","0.0-33.0","p252818","A2KW87ZD2ELYNG","3UUIU9GZC6BQMHTLWW3KSJ0W7IE5TB","3I02618YA2CC2OON6I79K5M407EPUP","emotion","mismatch","uniform","","","","","","","2121.2000000476837","125480.5","127601.70000004768","[""stimuli/BF08_CC.jpg"",""stimuli/AM09_SUR.jpg"",""stimuli/HM02_HO.jpg"",""stimuli/AM03_DO.jpg""]","stimuli/BF08_CC.jpg","stimuli/AM09_SUR.jpg","stimuli/HM02_HO.jpg","stimuli/AM03_DO.jpg","pos4","stimuli/AM03_DO.jpg","DO","AM03","3","3.5","7","6","stimuli/stars_7.png","39.5","[""CC"",""SUR"",""HO"",""DO""]","[""BF08"",""AM09"",""HM02"",""AM03""]","[6,5,4,7]","[8,4,2,6]","","",""
"show-reward","34","128669","0.0-34.0","p252818","A2KW87ZD2ELYNG","3UUIU9GZC6BQMHTLWW3KSJ0W7IE5TB","3I02618YA2CC2OON6I79K5M407EPUP","emotion","mismatch","uniform","","","","","","","","128102.89999997616","130104.5","","","","","","","","","","","","7","","stimuli/stars_7.png","39.5","","","","","stimuli/AM03_DO.jpg","",""
"explore-choice","35","131831","0.0-35.0","p252818","A2KW87ZD2ELYNG","3UUIU9GZC6BQMHTLWW3KSJ0W7IE5TB","3I02618YA2CC2OON6I79K5M407EPUP","emotion","mismatch","uniform","","","","","","","2661.100000023842","130105","132766.10000002384","[""stimuli/AM03_CC.jpg"",""stimuli/HM02_SUR.jpg"",""stimuli/AM09_HO.jpg"",""stimuli/BF08_DO.jpg""]","stimuli/AM03_CC.jpg","stimuli/HM02_SUR.jpg","stimuli/AM09_HO.jpg","stimuli/BF08_DO.jpg","pos4","stimuli/BF08_DO.jpg","DO","BF08","3","3.5","7","6","stimuli/stars_7.png","43","[""CC"",""SUR"",""HO"",""DO""]","[""AM03"",""HM02"",""AM09"",""BF08""]","[10,3,2,7]","[8,4,2,6]","","",""
"show-reward","36","133833","0.0-36.0","p252818","A2KW87ZD2ELYNG","3UUIU9GZC6BQMHTLWW3KSJ0W7IE5TB","3I02618YA2CC2OON6I79K5M407EPUP","emotion","mismatch","uniform","","","","","","","","133267.39999997616","135269.10000002384","","","","","","","","","","","","7","","stimuli/stars_7.png","43","","","","","stimuli/BF08_DO.jpg","",""
"explore-choice","37","137385","0.0-37.0","p252818","A2KW87ZD2ELYNG","3UUIU9GZC6BQMHTLWW3KSJ0W7IE5TB","3I02618YA2CC2OON6I79K5M407EPUP","emotion","mismatch","uniform","","","","","","","3051.100000023842","135269.5","138320.60000002384","[""stimuli/AM03_DO.jpg"",""stimuli/BF08_SUR.jpg"",""stimuli/HM02_HO.jpg"",""stimuli/AM09_CC.jpg""]","stimuli/AM03_DO.jpg","stimuli/BF08_SUR.jpg","stimuli/HM02_HO.jpg","stimuli/AM09_CC.jpg","pos1","stimuli/AM03_DO.jpg","DO","AM03","0","3.5","7","6","stimuli/stars_7.png","46.5","[""DO"",""SUR"",""HO"",""CC""]","[""AM03"",""BF08"",""HM02"",""AM09""]","[7,2,3,6]","[6,4,2,8]","","",""
"show-reward","38","139387","0.0-38.0","p252818","A2KW87ZD2ELYNG","3UUIU9GZC6BQMHTLWW3KSJ0W7IE5TB","3I02618YA2CC2OON6I79K5M407EPUP","emotion","mismatch","uniform","","","","","","","","138821.5","140822.70000004768","","","","","","","","","","","","7","","stimuli/stars_7.png","46.5","","","","","stimuli/AM03_DO.jpg","",""
"explore-choice","39","143377","0.0-39.0","p252818","A2KW87ZD2ELYNG","3UUIU9GZC6BQMHTLWW3KSJ0W7IE5TB","3I02618YA2CC2OON6I79K5M407EPUP","emotion","mismatch","uniform","","","","","","","3489.899999976158","140823.10000002384","144313","[""stimuli/HM02_SUR.jpg"",""stimuli/BF08_CC.jpg"",""stimuli/AM03_HO.jpg"",""stimuli/AM09_DO.jpg""]","stimuli/HM02_SUR.jpg","stimuli/BF08_CC.jpg","stimuli/AM03_HO.jpg","stimuli/AM09_DO.jpg","pos1","stimuli/HM02_SUR.jpg","SUR","HM02","0","3","6","4","stimuli/stars_6.png","49.5","[""SUR"",""CC"",""HO"",""DO""]","[""HM02"",""BF08"",""AM03"",""AM09""]","[6,8,2,4]","[4,8,2,6]","","",""
"show-reward","40","145379","0.0-40.0","p252818","A2KW87ZD2ELYNG","3UUIU9GZC6BQMHTLWW3KSJ0W7IE5TB","3I02618YA2CC2OON6I79K5M407EPUP","emotion","mismatch","uniform","","","","","","","","144813.70000004768","146815.20000004768","","","","","","","","","","","","6","","stimuli/stars_6.png","49.5","","","","","stimuli/HM02_SUR.jpg","",""
"explore-choice","41","148293","0.0-41.0","p252818","A2KW87ZD2ELYNG","3UUIU9GZC6BQMHTLWW3KSJ0W7IE5TB","3I02618YA2CC2OON6I79K5M407EPUP","emotion","mismatch","uniform","","","","","","","2413","146815.70000004768","149228.70000004768","[""stimuli/HM02_SUR.jpg"",""stimuli/BF08_CC.jpg"",""stimuli/AM09_HO.jpg"",""stimuli/AM03_DO.jpg""]","stimuli/HM02_SUR.jpg","stimuli/BF08_CC.jpg","stimuli/AM09_HO.jpg","stimuli/AM03_DO.jpg","pos1","stimuli/HM02_SUR.jpg","SUR","HM02","0","1","2","4","stimuli/stars_2.png","50.5","[""SUR"",""CC"",""HO"",""DO""]","[""HM02"",""BF08"",""AM09"",""AM03""]","[2,7,1,5]","[4,8,2,6]","","",""
"show-reward","42","150295","0.0-42.0","p252818","A2KW87ZD2ELYNG","3UUIU9GZC6BQMHTLWW3KSJ0W7IE5TB","3I02618YA2CC2OON6I79K5M407EPUP","emotion","mismatch","uniform","","","","","","","","149729.60000002384","151730.79999995232","","","","","","","","","","","","2","","stimuli/stars_2.png","50.5","","","","","stimuli/HM02_SUR.jpg","",""
"explore-choice","43","154125","0.0-43.0","p252818","A2KW87ZD2ELYNG","3UUIU9GZC6BQMHTLWW3KSJ0W7IE5TB","3I02618YA2CC2OON6I79K5M407EPUP","emotion","mismatch","uniform","","","","","","","3328.5","151731.29999995232","155059.79999995232","[""stimuli/BF08_HO.jpg"",""stimuli/HM02_DO.jpg"",""stimuli/AM09_CC.jpg"",""stimuli/AM03_SUR.jpg""]","stimuli/BF08_HO.jpg","stimuli/HM02_DO.jpg","stimuli/AM09_CC.jpg","stimuli/AM03_SUR.jpg","pos4","stimuli/AM03_SUR.jpg","SUR","AM03","3","1.5","3","4","stimuli/stars_3.png","52","[""HO"",""DO"",""CC"",""SUR""]","[""BF08"",""HM02"",""AM09"",""AM03""]","[1,7,8,3]","[2,6,8,4]","","",""
"show-reward","44","156127","0.0-44.0","p252818","A2KW87ZD2ELYNG","3UUIU9GZC6BQMHTLWW3KSJ0W7IE5TB","3I02618YA2CC2OON6I79K5M407EPUP","emotion","mismatch","uniform","","","","","","","","155561.29999995232","157562.79999995232","","","","","","","","","","","","3","","stimuli/stars_3.png","52","","","","","stimuli/AM03_SUR.jpg","",""
"explore-choice","45","162834","0.0-45.0","p252818","A2KW87ZD2ELYNG","3UUIU9GZC6BQMHTLWW3KSJ0W7IE5TB","3I02618YA2CC2OON6I79K5M407EPUP","emotion","mismatch","uniform","","","","","","","6205.300000071526","157563.29999995232","163768.60000002384","[""stimuli/AM03_CC.jpg"",""stimuli/BF08_SUR.jpg"",""stimuli/AM09_HO.jpg"",""stimuli/HM02_DO.jpg""]","stimuli/AM03_CC.jpg","stimuli/BF08_SUR.jpg","stimuli/AM09_HO.jpg","stimuli/HM02_DO.jpg","pos4","stimuli/HM02_DO.jpg","DO","HM02","3","3.5","7","6","stimuli/stars_7.png","55.5","[""CC"",""SUR"",""HO"",""DO""]","[""AM03"",""BF08"",""AM09"",""HM02""]","[9,4,2,7]","[8,4,2,6]","","",""
"show-reward","46","164836","0.0-46.0","p252818","A2KW87ZD2ELYNG","3UUIU9GZC6BQMHTLWW3KSJ0W7IE5TB","3I02618YA2CC2OON6I79K5M407EPUP","emotion","mismatch","uniform","","","","","","","","164270.20000004768","166271.70000004768","","","","","","","","","","","","7","","stimuli/stars_7.png","55.5","","","","","stimuli/HM02_DO.jpg","",""
"explore-choice","47","170721","0.0-47.0","p252818","A2KW87ZD2ELYNG","3UUIU9GZC6BQMHTLWW3KSJ0W7IE5TB","3I02618YA2CC2OON6I79K5M407EPUP","emotion","mismatch","uniform","","","","","","","5383.700000047684","166272.29999995232","171656","[""stimuli/AM09_DO.jpg"",""stimuli/AM03_HO.jpg"",""stimuli/HM02_CC.jpg"",""stimuli/BF08_SUR.jpg""]","stimuli/AM09_DO.jpg","stimuli/AM03_HO.jpg","stimuli/HM02_CC.jpg","stimuli/BF08_SUR.jpg","pos4","stimuli/BF08_SUR.jpg","SUR","BF08","3","2","4","4","stimuli/stars_4.png","57.5","[""DO"",""HO"",""CC"",""SUR""]","[""AM09"",""AM03"",""HM02"",""BF08""]","[6,0,6,4]","[6,2,8,4]","","",""
"show-reward","48","172724","0.0-48.0","p252818","A2KW87ZD2ELYNG","3UUIU9GZC6BQMHTLWW3KSJ0W7IE5TB","3I02618YA2CC2OON6I79K5M407EPUP","emotion","mismatch","uniform","","","","","","","","172157.5","174158.60000002384","","","","","","","","","","","","4","","stimuli/stars_4.png","57.5","","","","","stimuli/BF08_SUR.jpg","",""
"explore-choice","49","176279","0.0-49.0","p252818","A2KW87ZD2ELYNG","3UUIU9GZC6BQMHTLWW3KSJ0W7IE5TB","3I02618YA2CC2OON6I79K5M407EPUP","emotion","mismatch","uniform","","","","","","","3053.600000023842","174159.10000002384","177212.70000004768","[""stimuli/AM09_DO.jpg"",""stimuli/BF08_SUR.jpg"",""stimuli/HM02_HO.jpg"",""stimuli/AM03_CC.jpg""]","stimuli/AM09_DO.jpg","stimuli/BF08_SUR.jpg","stimuli/HM02_HO.jpg","stimuli/AM03_CC.jpg","pos1","stimuli/AM09_DO.jpg","DO","AM09","0","2.5","5","6","stimuli/stars_5.png","60","[""DO"",""SUR"",""HO"",""CC""]","[""AM09"",""BF08"",""HM02"",""AM03""]","[5,6,2,10]","[6,4,2,8]","","",""
"show-reward","50","178280","0.0-50.0","p252818","A2KW87ZD2ELYNG","3UUIU9GZC6BQMHTLWW3KSJ0W7IE5TB","3I02618YA2CC2OON6I79K5M407EPUP","emotion","mismatch","uniform","","","","","","","","177713.39999997616","179714.60000002384","","","","","","","","","","","","5","","stimuli/stars_5.png","60","","","","","stimuli/AM09_DO.jpg","",""
"explore-choice","51","180685","0.0-51.0","p252818","A2KW87ZD2ELYNG","3UUIU9GZC6BQMHTLWW3KSJ0W7IE5TB","3I02618YA2CC2OON6I79K5M407EPUP","emotion","mismatch","uniform","","","","","","","1904","179715.10000002384","181619.10000002384","[""stimuli/AM03_DO.jpg"",""stimuli/AM09_CC.jpg"",""stimuli/HM02_SUR.jpg"",""stimuli/BF08_HO.jpg""]","stimuli/AM03_DO.jpg","stimuli/AM09_CC.jpg","stimuli/HM02_SUR.jpg","stimuli/BF08_HO.jpg","pos1","stimuli/AM03_DO.jpg","DO","AM03","0","3","6","6","stimuli/stars_6.png","63","[""DO"",""CC"",""SUR"",""HO""]","[""AM03"",""AM09"",""HM02"",""BF08""]","[6,10,2,0]","[6,8,4,2]","","",""
"show-reward","52","182687","0.0-52.0","p252818","A2KW87ZD2ELYNG","3UUIU9GZC6BQMHTLWW3KSJ0W7IE5TB","3I02618YA2CC2OON6I79K5M407EPUP","emotion","mismatch","uniform","","","","","","","","182119.89999997616","184121.60000002384","","","","","","","","","","","","6","","stimuli/stars_6.png","63","","","","","stimuli/AM03_DO.jpg","",""
"explore-choice","53","185875","0.0-53.0","p252818","A2KW87ZD2ELYNG","3UUIU9GZC6BQMHTLWW3KSJ0W7IE5TB","3I02618YA2CC2OON6I79K5M407EPUP","emotion","mismatch","uniform","","","","","","","2687.2000000476837","184122","186809.20000004768","[""stimuli/AM09_CC.jpg"",""stimuli/AM03_HO.jpg"",""stimuli/HM02_SUR.jpg"",""stimuli/BF08_DO.jpg""]","stimuli/AM09_CC.jpg","stimuli/AM03_HO.jpg","stimuli/HM02_SUR.jpg","stimuli/BF08_DO.jpg","pos4","stimuli/BF08_DO.jpg","DO","BF08","3","2.5","5","6","stimuli/stars_5.png","65.5","[""CC"",""HO"",""SUR"",""DO""]","[""AM09"",""AM03"",""HM02"",""BF08""]","[7,2,2,5]","[8,2,4,6]","","",""
"show-reward","54","187877","0.0-54.0","p252818","A2KW87ZD2ELYNG","3UUIU9GZC6BQMHTLWW3KSJ0W7IE5TB","3I02618YA2CC2OON6I79K5M407EPUP","emotion","mismatch","uniform","","","","","","","","187310","189311.5","","","","","","","","","","","","5","","stimuli/stars_5.png","65.5","","","","","stimuli/BF08_DO.jpg","",""
"explore-choice","55","190901","0.0-55.0","p252818","A2KW87ZD2ELYNG","3UUIU9GZC6BQMHTLWW3KSJ0W7IE5TB","3I02618YA2CC2OON6I79K5M407EPUP","emotion","mismatch","uniform","","","","","","","2522","189312.10000002384","191834.10000002384","[""stimuli/BF08_DO.jpg"",""stimuli/HM02_CC.jpg"",""stimuli/AM09_SUR.jpg"",""stimuli/AM03_HO.jpg""]","stimuli/BF08_DO.jpg","stimuli/HM02_CC.jpg","stimuli/AM09_SUR.jpg","stimuli/AM03_HO.jpg","pos1","stimuli/BF08_DO.jpg","DO","BF08","0","2","4","6","stimuli/stars_4.png","67.5","[""DO"",""CC"",""SUR"",""HO""]","[""BF08"",""HM02"",""AM09"",""AM03""]","[4,7,2,2]","[6,8,4,2]","","",""
"show-reward","56","192903","0.0-56.0","p252818","A2KW87ZD2ELYNG","3UUIU9GZC6BQMHTLWW3KSJ0W7IE5TB","3I02618YA2CC2OON6I79K5M407EPUP","emotion","mismatch","uniform","","","","","","","","192335.5","194337","","","","","","","","","","","","4","","stimuli/stars_4.png","67.5","","","","","stimuli/BF08_DO.jpg","",""
"explore-choice","57","195170","0.0-57.0","p252818","A2KW87ZD2ELYNG","3UUIU9GZC6BQMHTLWW3KSJ0W7IE5TB","3I02618YA2CC2OON6I79K5M407EPUP","emotion","mismatch","uniform","","","","","","","1766.3999999761581","194337.60000002384","196104","[""stimuli/BF08_CC.jpg"",""stimuli/HM02_HO.jpg"",""stimuli/AM03_DO.jpg"",""stimuli/AM09_SUR.jpg""]","stimuli/BF08_CC.jpg","stimuli/HM02_HO.jpg","stimuli/AM03_DO.jpg","stimuli/AM09_SUR.jpg","pos3","stimuli/AM03_DO.jpg","DO","AM03","2","3.5","7","6","stimuli/stars_7.png","71","[""CC"",""HO"",""DO"",""SUR""]","[""BF08"",""HM02"",""AM03"",""AM09""]","[6,4,7,5]","[8,2,6,4]","","",""
"show-reward","58","197172","0.0-58.0","p252818","A2KW87ZD2ELYNG","3UUIU9GZC6BQMHTLWW3KSJ0W7IE5TB","3I02618YA2CC2OON6I79K5M407EPUP","emotion","mismatch","uniform","","","","","","","","196604.89999997616","198606.5","","","","","","","","","","","","7","","stimuli/stars_7.png","71","","","","","stimuli/AM03_DO.jpg","",""
"explore-choice","59","199460","0.0-59.0","p252818","A2KW87ZD2ELYNG","3UUIU9GZC6BQMHTLWW3KSJ0W7IE5TB","3I02618YA2CC2OON6I79K5M407EPUP","emotion","mismatch","uniform","","","","","","","1786.1999999284744","198607.20000004768","200393.39999997616","[""stimuli/AM03_CC.jpg"",""stimuli/HM02_DO.jpg"",""stimuli/BF08_SUR.jpg"",""stimuli/AM09_HO.jpg""]","stimuli/AM03_CC.jpg","stimuli/HM02_DO.jpg","stimuli/BF08_SUR.jpg","stimuli/AM09_HO.jpg","pos3","stimuli/BF08_SUR.jpg","SUR","BF08","2","2","4","4","stimuli/stars_4.png","73","[""CC"",""DO"",""SUR"",""HO""]","[""AM03"",""HM02"",""BF08"",""AM09""]","[9,7,4,2]","[8,6,4,2]","","",""
"show-reward","60","201462","0.0-60.0","p252818","A2KW87ZD2ELYNG","3UUIU9GZC6BQMHTLWW3KSJ0W7IE5TB","3I02618YA2CC2OON6I79K5M407EPUP","emotion","mismatch","uniform","","","","","","","","200894.70000004768","202895.89999997616","","","","","","","","","","","","4","","stimuli/stars_4.png","73","","","","","stimuli/BF08_SUR.jpg","",""
"explore-choice","61","203096","0.0-61.0","p252818","A2KW87ZD2ELYNG","3UUIU9GZC6BQMHTLWW3KSJ0W7IE5TB","3I02618YA2CC2OON6I79K5M407EPUP","emotion","mismatch","uniform","","","","","","","1133.2000000476837","202896.39999997616","204029.60000002384","[""stimuli/HM02_DO.jpg"",""stimuli/AM09_CC.jpg"",""stimuli/AM03_HO.jpg"",""stimuli/BF08_SUR.jpg""]","stimuli/HM02_DO.jpg","stimuli/AM09_CC.jpg","stimuli/AM03_HO.jpg","stimuli/BF08_SUR.jpg","pos1","stimuli/HM02_DO.jpg","DO","HM02","0","4","8","6","stimuli/stars_8.png","77","[""DO"",""CC"",""HO"",""SUR""]","[""HM02"",""AM09"",""AM03"",""BF08""]","[8,6,1,4]","[6,8,2,4]","","",""
"show-reward","62","205097","0.0-62.0","p252818","A2KW87ZD2ELYNG","3UUIU9GZC6BQMHTLWW3KSJ0W7IE5TB","3I02618YA2CC2OON6I79K5M407EPUP","emotion","mismatch","uniform","","","","","","","","204530.60000002384","206531.79999995232","","","","","","","","","","","","8","","stimuli/stars_8.png","77","","","","","stimuli/HM02_DO.jpg","",""
"explore-choice","63","207609","0.0-63.0","p252818","A2KW87ZD2ELYNG","3UUIU9GZC6BQMHTLWW3KSJ0W7IE5TB","3I02618YA2CC2OON6I79K5M407EPUP","emotion","mismatch","uniform","","","","","","","2010.8000000715256","206532.29999995232","208543.10000002384","[""stimuli/AM03_SUR.jpg"",""stimuli/HM02_DO.jpg"",""stimuli/AM09_CC.jpg"",""stimuli/BF08_HO.jpg""]","stimuli/AM03_SUR.jpg","stimuli/HM02_DO.jpg","stimuli/AM09_CC.jpg","stimuli/BF08_HO.jpg","pos3","stimuli/AM09_CC.jpg","CC","AM09","2","4","8","8","stimuli/stars_8.png","81","[""SUR"",""DO"",""CC"",""HO""]","[""AM03"",""HM02"",""AM09"",""BF08""]","[3,7,8,1]","[4,6,8,2]","","",""
"show-reward","64","209611","0.0-64.0","p252818","A2KW87ZD2ELYNG","3UUIU9GZC6BQMHTLWW3KSJ0W7IE5TB","3I02618YA2CC2OON6I79K5M407EPUP","emotion","mismatch","uniform","","","","","","","","209044","211045.70000004768","","","","","","","","","","","","8","","stimuli/stars_8.png","81","","","","","stimuli/AM09_CC.jpg","",""
"explore-choice","65","213325","0.0-65.0","p252818","A2KW87ZD2ELYNG","3UUIU9GZC6BQMHTLWW3KSJ0W7IE5TB","3I02618YA2CC2OON6I79K5M407EPUP","emotion","mismatch","uniform","","","","","","","3213.399999976158","211046.10000002384","214259.5","[""stimuli/AM03_SUR.jpg"",""stimuli/AM09_DO.jpg"",""stimuli/BF08_CC.jpg"",""stimuli/HM02_HO.jpg""]","stimuli/AM03_SUR.jpg","stimuli/AM09_DO.jpg","stimuli/BF08_CC.jpg","stimuli/HM02_HO.jpg","pos3","stimuli/BF08_CC.jpg","CC","BF08","2","3","6","8","stimuli/stars_6.png","84","[""SUR"",""DO"",""CC"",""HO""]","[""AM03"",""AM09"",""BF08"",""HM02""]","[5,5,6,4]","[4,6,8,2]","","",""
"show-reward","66","215328","0.0-66.0","p252818","A2KW87ZD2ELYNG","3UUIU9GZC6BQMHTLWW3KSJ0W7IE5TB","3I02618YA2CC2OON6I79K5M407EPUP","emotion","mismatch","uniform","","","","","","","","214760.20000004768","216761.79999995232","","","","","","","","","","","","6","","stimuli/stars_6.png","84","","","","","stimuli/BF08_CC.jpg","",""
"explore-choice","67","218338","0.0-67.0","p252818","A2KW87ZD2ELYNG","3UUIU9GZC6BQMHTLWW3KSJ0W7IE5TB","3I02618YA2CC2OON6I79K5M407EPUP","emotion","mismatch","uniform","","","","","","","2509.600000023842","216762.39999997616","219272","[""stimuli/BF08_SUR.jpg"",""stimuli/AM03_DO.jpg"",""stimuli/HM02_HO.jpg"",""stimuli/AM09_CC.jpg""]","stimuli/BF08_SUR.jpg","stimuli/AM03_DO.jpg","stimuli/HM02_HO.jpg","stimuli/AM09_CC.jpg","pos4","stimuli/AM09_CC.jpg","CC","AM09","3","3","6","8","stimuli/stars_6.png","87","[""SUR"",""DO"",""HO"",""CC""]","[""BF08"",""AM03"",""HM02"",""AM09""]","[2,7,3,6]","[4,6,2,8]","","",""
"show-reward","68","220341","0.0-68.0","p252818","A2KW87ZD2ELYNG","3UUIU9GZC6BQMHTLWW3KSJ0W7IE5TB","3I02618YA2CC2OON6I79K5M407EPUP","emotion","mismatch","uniform","","","","","","","","219773.10000002384","221774.79999995232","","","","","","","","","","","","6","","stimuli/stars_6.png","87","","","","","stimuli/AM09_CC.jpg","",""
"explore-choice","69","223157","0.0-69.0","p252818","A2KW87ZD2ELYNG","3UUIU9GZC6BQMHTLWW3KSJ0W7IE5TB","3I02618YA2CC2OON6I79K5M407EPUP","emotion","mismatch","uniform","","","","","","","2314.899999976158","221775.39999997616","224090.29999995232","[""stimuli/HM02_DO.jpg"",""stimuli/AM09_SUR.jpg"",""stimuli/AM03_CC.jpg"",""stimuli/BF08_HO.jpg""]","stimuli/HM02_DO.jpg","stimuli/AM09_SUR.jpg","stimuli/AM03_CC.jpg","stimuli/BF08_HO.jpg","pos3","stimuli/AM03_CC.jpg","CC","AM03","2","3.5","7","8","stimuli/stars_7.png","90.5","[""DO"",""SUR"",""CC"",""HO""]","[""HM02"",""AM09"",""AM03"",""BF08""]","[6,5,7,1]","[6,4,8,2]","","",""
"show-reward","70","225159","0.0-70.0","p252818","A2KW87ZD2ELYNG","3UUIU9GZC6BQMHTLWW3KSJ0W7IE5TB","3I02618YA2CC2OON6I79K5M407EPUP","emotion","mismatch","uniform","","","","","","","","224591.70000004768","226593.29999995232","","","","","","","","","","","","7","","stimuli/stars_7.png","90.5","","","","","stimuli/AM03_CC.jpg","",""
"explore-choice","71","228910","0.0-71.0","p252818","A2KW87ZD2ELYNG","3UUIU9GZC6BQMHTLWW3KSJ0W7IE5TB","3I02618YA2CC2OON6I79K5M407EPUP","emotion","mismatch","uniform","","","","","","","3249.9000000953674","226593.79999995232","229843.70000004768","[""stimuli/AM09_HO.jpg"",""stimuli/BF08_CC.jpg"",""stimuli/AM03_DO.jpg"",""stimuli/HM02_SUR.jpg""]","stimuli/AM09_HO.jpg","stimuli/BF08_CC.jpg","stimuli/AM03_DO.jpg","stimuli/HM02_SUR.jpg","pos2","stimuli/BF08_CC.jpg","CC","BF08","1","3.5","7","8","stimuli/stars_7.png","94","[""HO"",""CC"",""DO"",""SUR""]","[""AM09"",""BF08"",""AM03"",""HM02""]","[1,7,5,2]","[2,8,6,4]","","",""
"show-reward","72","230912","0.0-72.0","p252818","A2KW87ZD2ELYNG","3UUIU9GZC6BQMHTLWW3KSJ0W7IE5TB","3I02618YA2CC2OON6I79K5M407EPUP","emotion","mismatch","uniform","","","","","","","","230344.29999995232","232346","","","","","","","","","","","","7","","stimuli/stars_7.png","94","","","","","stimuli/BF08_CC.jpg","",""
"explore-choice","73","234251","0.0-73.0","p252818","A2KW87ZD2ELYNG","3UUIU9GZC6BQMHTLWW3KSJ0W7IE5TB","3I02618YA2CC2OON6I79K5M407EPUP","emotion","mismatch","uniform","","","","","","","2836.899999976158","232346.5","235183.39999997616","[""stimuli/AM03_DO.jpg"",""stimuli/HM02_CC.jpg"",""stimuli/BF08_SUR.jpg"",""stimuli/AM09_HO.jpg""]","stimuli/AM03_DO.jpg","stimuli/HM02_CC.jpg","stimuli/BF08_SUR.jpg","stimuli/AM09_HO.jpg","pos2","stimuli/HM02_CC.jpg","CC","HM02","1","4.5","9","8","stimuli/stars_9.png","98.5","[""DO"",""CC"",""SUR"",""HO""]","[""AM03"",""HM02"",""BF08"",""AM09""]","[6,9,2,1]","[6,8,4,2]","","",""
"show-reward","74","236253","0.0-74.0","p252818","A2KW87ZD2ELYNG","3UUIU9GZC6BQMHTLWW3KSJ0W7IE5TB","3I02618YA2CC2OON6I79K5M407EPUP","emotion","mismatch","uniform","","","","","","","","235684.29999995232","237685.5","","","","","","","","","","","","9","","stimuli/stars_9.png","98.5","","","","","stimuli/HM02_CC.jpg","",""
"explore-choice","75","239468","0.0-75.0","p252818","A2KW87ZD2ELYNG","3UUIU9GZC6BQMHTLWW3KSJ0W7IE5TB","3I02618YA2CC2OON6I79K5M407EPUP","emotion","mismatch","uniform","","","","","","","2714.600000023842","237686","240400.60000002384","[""stimuli/HM02_DO.jpg"",""stimuli/AM09_HO.jpg"",""stimuli/AM03_SUR.jpg"",""stimuli/BF08_CC.jpg""]","stimuli/HM02_DO.jpg","stimuli/AM09_HO.jpg","stimuli/AM03_SUR.jpg","stimuli/BF08_CC.jpg","pos4","stimuli/BF08_CC.jpg","CC","BF08","3","3.5","7","8","stimuli/stars_7.png","102","[""DO"",""HO"",""SUR"",""CC""]","[""HM02"",""AM09"",""AM03"",""BF08""]","[8,4,4,7]","[6,2,4,8]","","",""
"show-reward","76","241470","0.0-76.0","p252818","A2KW87ZD2ELYNG","3UUIU9GZC6BQMHTLWW3KSJ0W7IE5TB","3I02618YA2CC2OON6I79K5M407EPUP","emotion","mismatch","uniform","","","","","","","","240901.39999997616","242902.89999997616","","","","","","","","","","","","7","","stimuli/stars_7.png","102","","","","","stimuli/BF08_CC.jpg","",""
"explore-choice","77","246303","0.0-77.0","p252818","A2KW87ZD2ELYNG","3UUIU9GZC6BQMHTLWW3KSJ0W7IE5TB","3I02618YA2CC2OON6I79K5M407EPUP","emotion","mismatch","uniform","","","","","","","4331.899999976158","242903.39999997616","247235.29999995232","[""stimuli/HM02_HO.jpg"",""stimuli/AM03_CC.jpg"",""stimuli/AM09_SUR.jpg"",""stimuli/BF08_DO.jpg""]","stimuli/HM02_HO.jpg","stimuli/AM03_CC.jpg","stimuli/AM09_SUR.jpg","stimuli/BF08_DO.jpg","pos2","stimuli/AM03_CC.jpg","CC","AM03","1","3","6","8","stimuli/stars_6.png","105","[""HO"",""CC"",""SUR"",""DO""]","[""HM02"",""AM03"",""AM09"",""BF08""]","[1,6,2,7]","[2,8,4,6]","","",""
"show-reward","78","248305","0.0-78.0","p252818","A2KW87ZD2ELYNG","3UUIU9GZC6BQMHTLWW3KSJ0W7IE5TB","3I02618YA2CC2OON6I79K5M407EPUP","emotion","mismatch","uniform","","","","","","","","247736.60000002384","249738.20000004768","","","","","","","","","","","","6","","stimuli/stars_6.png","105","","","","","stimuli/AM03_CC.jpg","",""
"explore-choice","79","251714","0.0-79.0","p252818","A2KW87ZD2ELYNG","3UUIU9GZC6BQMHTLWW3KSJ0W7IE5TB","3I02618YA2CC2OON6I79K5M407EPUP","emotion","mismatch","uniform","","","","","","","2907.899999976158","249738.70000004768","252646.60000002384","[""stimuli/HM02_SUR.jpg"",""stimuli/AM03_CC.jpg"",""stimuli/BF08_HO.jpg"",""stimuli/AM09_DO.jpg""]","stimuli/HM02_SUR.jpg","stimuli/AM03_CC.jpg","stimuli/BF08_HO.jpg","stimuli/AM09_DO.jpg","pos2","stimuli/AM03_CC.jpg","CC","AM03","1","4.5","9","8","stimuli/stars_9.png","109.5","[""SUR"",""CC"",""HO"",""DO""]","[""HM02"",""AM03"",""BF08"",""AM09""]","[5,9,3,4]","[4,8,2,6]","","",""
"show-reward","80","253716","0.0-80.0","p252818","A2KW87ZD2ELYNG","3UUIU9GZC6BQMHTLWW3KSJ0W7IE5TB","3I02618YA2CC2OON6I79K5M407EPUP","emotion","mismatch","uniform","","","","","","","","253147.70000004768","255149.20000004768","","","","","","","","","","","","9","","stimuli/stars_9.png","109.5","","","","","stimuli/AM03_CC.jpg","",""
"explore-choice","81","259541","0.0-81.0","p252818","A2KW87ZD2ELYNG","3UUIU9GZC6BQMHTLWW3KSJ0W7IE5TB","3I02618YA2CC2OON6I79K5M407EPUP","emotion","mismatch","uniform","","","","","","","5323.5","255149.79999995232","260473.29999995232","[""stimuli/AM09_SUR.jpg"",""stimuli/BF08_CC.jpg"",""stimuli/AM03_HO.jpg"",""stimuli/HM02_DO.jpg""]","stimuli/AM09_SUR.jpg","stimuli/BF08_CC.jpg","stimuli/AM03_HO.jpg","stimuli/HM02_DO.jpg","pos2","stimuli/BF08_CC.jpg","CC","BF08","1","3.5","7","8","stimuli/stars_7.png","113","[""SUR"",""CC"",""HO"",""DO""]","[""AM09"",""BF08"",""AM03"",""HM02""]","[6,7,3,6]","[4,8,2,6]","","",""
"show-reward","82","261545","0.0-82.0","p252818","A2KW87ZD2ELYNG","3UUIU9GZC6BQMHTLWW3KSJ0W7IE5TB","3I02618YA2CC2OON6I79K5M407EPUP","emotion","mismatch","uniform","","","","","","","","260974.29999995232","262978.10000002384","","","","","","","","","","","","7","","stimuli/stars_7.png","113","","","","","stimuli/BF08_CC.jpg","",""
"explore-choice","83","264421","0.0-83.0","p252818","A2KW87ZD2ELYNG","3UUIU9GZC6BQMHTLWW3KSJ0W7IE5TB","3I02618YA2CC2OON6I79K5M407EPUP","emotion","mismatch","uniform","","","","","","","2375","262978.5","265353.5","[""stimuli/AM09_DO.jpg"",""stimuli/HM02_SUR.jpg"",""stimuli/AM03_HO.jpg"",""stimuli/BF08_CC.jpg""]","stimuli/AM09_DO.jpg","stimuli/HM02_SUR.jpg","stimuli/AM03_HO.jpg","stimuli/BF08_CC.jpg","pos4","stimuli/BF08_CC.jpg","CC","BF08","3","4","8","8","stimuli/stars_8.png","117","[""DO"",""SUR"",""HO"",""CC""]","[""AM09"",""HM02"",""AM03"",""BF08""]","[4,6,2,8]","[6,4,2,8]","","",""
"show-reward","84","266423","0.0-84.0","p252818","A2KW87ZD2ELYNG","3UUIU9GZC6BQMHTLWW3KSJ0W7IE5TB","3I02618YA2CC2OON6I79K5M407EPUP","emotion","mismatch","uniform","","","","","","","","265854.39999997616","267855.5","","","","","","","","","","","","8","","stimuli/stars_8.png","117","","","","","stimuli/BF08_CC.jpg","",""
"explore-choice","85","269069","0.0-85.0","p252818","A2KW87ZD2ELYNG","3UUIU9GZC6BQMHTLWW3KSJ0W7IE5TB","3I02618YA2CC2OON6I79K5M407EPUP","emotion","mismatch","uniform","","","","","","","2144.899999976158","267856","270000.89999997616","[""stimuli/AM09_SUR.jpg"",""stimuli/HM02_CC.jpg"",""stimuli/AM03_DO.jpg"",""stimuli/BF08_HO.jpg""]","stimuli/AM09_SUR.jpg","stimuli/HM02_CC.jpg","stimuli/AM03_DO.jpg","stimuli/BF08_HO.jpg","pos2","stimuli/HM02_CC.jpg","CC","HM02","1","5","10","8","stimuli/stars_10.png","122","[""SUR"",""CC"",""DO"",""HO""]","[""AM09"",""HM02"",""AM03"",""BF08""]","[6,10,7,0]","[4,8,6,2]","","",""
"show-reward","86","271070","0.0-86.0","p252818","A2KW87ZD2ELYNG","3UUIU9GZC6BQMHTLWW3KSJ0W7IE5TB","3I02618YA2CC2OON6I79K5M407EPUP","emotion","mismatch","uniform","","","","","","","","270502.2999999523","272503","","","","","","","","","","","","10","","stimuli/stars_10.png","122","","","","","stimuli/HM02_CC.jpg","",""
"explore-choice","87","275061","0.0-87.0","p252818","A2KW87ZD2ELYNG","3UUIU9GZC6BQMHTLWW3KSJ0W7IE5TB","3I02618YA2CC2OON6I79K5M407EPUP","emotion","mismatch","uniform","","","","","","","3489.100000023842","272503.39999997616","275992.5","[""stimuli/AM03_HO.jpg"",""stimuli/HM02_CC.jpg"",""stimuli/AM09_DO.jpg"",""stimuli/BF08_SUR.jpg""]","stimuli/AM03_HO.jpg","stimuli/HM02_CC.jpg","stimuli/AM09_DO.jpg","stimuli/BF08_SUR.jpg","pos2","stimuli/HM02_CC.jpg","CC","HM02","1","3","6","8","stimuli/stars_6.png","125","[""HO"",""CC"",""DO"",""SUR""]","[""AM03"",""HM02"",""AM09"",""BF08""]","[0,6,6,4]","[2,8,6,4]","","",""
"show-reward","88","277062","0.0-88.0","p252818","A2KW87ZD2ELYNG","3UUIU9GZC6BQMHTLWW3KSJ0W7IE5TB","3I02618YA2CC2OON6I79K5M407EPUP","emotion","mismatch","uniform","","","","","","","","276494","278495.10000002384","","","","","","","","","","","","6","","stimuli/stars_6.png","125","","","","","stimuli/HM02_CC.jpg","",""
"explore-choice","89","280278","0.0-89.0","p252818","A2KW87ZD2ELYNG","3UUIU9GZC6BQMHTLWW3KSJ0W7IE5TB","3I02618YA2CC2OON6I79K5M407EPUP","emotion","mismatch","uniform","","","","","","","2714.5","278495.5","281210","[""stimuli/BF08_DO.jpg"",""stimuli/HM02_SUR.jpg"",""stimuli/AM09_CC.jpg"",""stimuli/AM03_HO.jpg""]","stimuli/BF08_DO.jpg","stimuli/HM02_SUR.jpg","stimuli/AM09_CC.jpg","stimuli/AM03_HO.jpg","pos3","stimuli/AM09_CC.jpg","CC","AM09","2","3.5","7","8","stimuli/stars_7.png","128.5","[""DO"",""SUR"",""CC"",""HO""]","[""BF08"",""HM02"",""AM09"",""AM03""]","[5,2,7,2]","[6,4,8,2]","","",""
"show-reward","90","282279","0.0-90.0","p252818","A2KW87ZD2ELYNG","3UUIU9GZC6BQMHTLWW3KSJ0W7IE5TB","3I02618YA2CC2OON6I79K5M407EPUP","emotion","mismatch","uniform","","","","","","","","281711.39999997616","283712.10000002384","","","","","","","","","","","","7","","stimuli/stars_7.png","128.5","","","","","stimuli/AM09_CC.jpg","",""
"explore-choice","91","285365","0.0-91.0","p252818","A2KW87ZD2ELYNG","3UUIU9GZC6BQMHTLWW3KSJ0W7IE5TB","3I02618YA2CC2OON6I79K5M407EPUP","emotion","mismatch","uniform","","","","","","","2584.600000023842","283712.60000002384","286297.2000000477","[""stimuli/AM03_DO.jpg"",""stimuli/AM09_CC.jpg"",""stimuli/HM02_SUR.jpg"",""stimuli/BF08_HO.jpg""]","stimuli/AM03_DO.jpg","stimuli/AM09_CC.jpg","stimuli/HM02_SUR.jpg","stimuli/BF08_HO.jpg","pos2","stimuli/AM09_CC.jpg","CC","AM09","1","5","10","8","stimuli/stars_10.png","133.5","[""DO"",""CC"",""SUR"",""HO""]","[""AM03"",""AM09"",""HM02"",""BF08""]","[6,10,2,0]","[6,8,4,2]","","",""
"show-reward","92","287367","0.0-92.0","p252818","A2KW87ZD2ELYNG","3UUIU9GZC6BQMHTLWW3KSJ0W7IE5TB","3I02618YA2CC2OON6I79K5M407EPUP","emotion","mismatch","uniform","","","","","","","","286798.2000000477","288799.60000002384","","","","","","","","","","","","10","","stimuli/stars_10.png","133.5","","","","","stimuli/AM09_CC.jpg","",""
"explore-choice","93","290129","0.0-93.0","p252818","A2KW87ZD2ELYNG","3UUIU9GZC6BQMHTLWW3KSJ0W7IE5TB","3I02618YA2CC2OON6I79K5M407EPUP","emotion","mismatch","uniform","","","","","","","2260.399999976158","288800.10000002384","291060.5","[""stimuli/AM03_SUR.jpg"",""stimuli/HM02_CC.jpg"",""stimuli/BF08_DO.jpg"",""stimuli/AM09_HO.jpg""]","stimuli/AM03_SUR.jpg","stimuli/HM02_CC.jpg","stimuli/BF08_DO.jpg","stimuli/AM09_HO.jpg","pos2","stimuli/HM02_CC.jpg","CC","HM02","1","4","8","8","stimuli/stars_8.png","137.5","[""SUR"",""CC"",""DO"",""HO""]","[""AM03"",""HM02"",""BF08"",""AM09""]","[4,8,5,4]","[4,8,6,2]","","",""
"show-reward","94","292131","0.0-94.0","p252818","A2KW87ZD2ELYNG","3UUIU9GZC6BQMHTLWW3KSJ0W7IE5TB","3I02618YA2CC2OON6I79K5M407EPUP","emotion","mismatch","uniform","","","","","","","","291561.89999997616","293563.60000002384","","","","","","","","","","","","8","","stimuli/stars_8.png","137.5","","","","","stimuli/HM02_CC.jpg","",""
"explore-choice","95","295130","0.0-95.0","p252818","A2KW87ZD2ELYNG","3UUIU9GZC6BQMHTLWW3KSJ0W7IE5TB","3I02618YA2CC2OON6I79K5M407EPUP","emotion","mismatch","uniform","","","","","","","2496.899999976158","293564.10000002384","296061","[""stimuli/AM03_SUR.jpg"",""stimuli/BF08_HO.jpg"",""stimuli/HM02_CC.jpg"",""stimuli/AM09_DO.jpg""]","stimuli/AM03_SUR.jpg","stimuli/BF08_HO.jpg","stimuli/HM02_CC.jpg","stimuli/AM09_DO.jpg","pos3","stimuli/HM02_CC.jpg","CC","HM02","2","3","6","8","stimuli/stars_6.png","140.5","[""SUR"",""HO"",""CC"",""DO""]","[""AM03"",""BF08"",""HM02"",""AM09""]","[3,3,6,5]","[4,2,8,6]","","",""
"show-reward","96","297133","0.0-96.0","p252818","A2KW87ZD2ELYNG","3UUIU9GZC6BQMHTLWW3KSJ0W7IE5TB","3I02618YA2CC2OON6I79K5M407EPUP","emotion","mismatch","uniform","","","","","","","","296562.10000002384","298563.60000002384","","","","","","","","","","","","6","","stimuli/stars_6.png","140.5","","","","","stimuli/HM02_CC.jpg","",""
"explore-choice","97","300036","0.0-97.0","p252818","A2KW87ZD2ELYNG","3UUIU9GZC6BQMHTLWW3KSJ0W7IE5TB","3I02618YA2CC2OON6I79K5M407EPUP","emotion","mismatch","uniform","","","","","","","2402.399999976158","298564.10000002384","300966.5","[""stimuli/AM09_HO.jpg"",""stimuli/AM03_CC.jpg"",""stimuli/BF08_DO.jpg"",""stimuli/HM02_SUR.jpg""]","stimuli/AM09_HO.jpg","stimuli/AM03_CC.jpg","stimuli/BF08_DO.jpg","stimuli/HM02_SUR.jpg","pos2","stimuli/AM03_CC.jpg","CC","AM03","1","5","10","8","stimuli/stars_10.png","145.5","[""HO"",""CC"",""DO"",""SUR""]","[""AM09"",""AM03"",""BF08"",""HM02""]","[2,10,7,3]","[2,8,6,4]","","",""
"show-reward","98","302038","0.0-98.0","p252818","A2KW87ZD2ELYNG","3UUIU9GZC6BQMHTLWW3KSJ0W7IE5TB","3I02618YA2CC2OON6I79K5M407EPUP","emotion","mismatch","uniform","","","","","","","","301467.39999997616","303469.10000002384","","","","","","","","","","","","10","","stimuli/stars_10.png","145.5","","","","","stimuli/AM03_CC.jpg","",""
"explore-choice","99","306286","0.0-99.0","p252818","A2KW87ZD2ELYNG","3UUIU9GZC6BQMHTLWW3KSJ0W7IE5TB","3I02618YA2CC2OON6I79K5M407EPUP","emotion","mismatch","uniform","","","","","","","3746.2999999523163","303469.60000002384","307215.89999997616","[""stimuli/AM03_SUR.jpg"",""stimuli/AM09_CC.jpg"",""stimuli/HM02_HO.jpg"",""stimuli/BF08_DO.jpg""]","stimuli/AM03_SUR.jpg","stimuli/AM09_CC.jpg","stimuli/HM02_HO.jpg","stimuli/BF08_DO.jpg","pos2","stimuli/AM09_CC.jpg","CC","AM09","1","4.5","9","8","stimuli/stars_9.png","150","[""SUR"",""CC"",""HO"",""DO""]","[""AM03"",""AM09"",""HM02"",""BF08""]","[3,9,4,4]","[4,8,2,6]","","",""
"show-reward","100","308288","0.0-100.0","p252818","A2KW87ZD2ELYNG","3UUIU9GZC6BQMHTLWW3KSJ0W7IE5TB","3I02618YA2CC2OON6I79K5M407EPUP","emotion","mismatch","uniform","","","","","","","","307717.10000002384","309718.7999999523","","","","","","","","","","","","9","","stimuli/stars_9.png","150","","","","","stimuli/AM09_CC.jpg","",""
"explore-choice","101","313209","0.0-101.0","p252818","A2KW87ZD2ELYNG","3UUIU9GZC6BQMHTLWW3KSJ0W7IE5TB","3I02618YA2CC2OON6I79K5M407EPUP","emotion","mismatch","uniform","","","","","","","4420.300000071526","309719.2999999523","314139.60000002384","[""stimuli/AM03_CC.jpg"",""stimuli/HM02_HO.jpg"",""stimuli/BF08_SUR.jpg"",""stimuli/AM09_DO.jpg""]","stimuli/AM03_CC.jpg","stimuli/HM02_HO.jpg","stimuli/BF08_SUR.jpg","stimuli/AM09_DO.jpg","pos1","stimuli/AM03_CC.jpg","CC","AM03","0","5","10","8","stimuli/stars_10.png","155","[""CC"",""HO"",""SUR"",""DO""]","[""AM03"",""HM02"",""BF08"",""AM09""]","[10,2,6,5]","[8,2,4,6]","","",""
"show-reward","102","315211","0.0-102.0","p252818","A2KW87ZD2ELYNG","3UUIU9GZC6BQMHTLWW3KSJ0W7IE5TB","3I02618YA2CC2OON6I79K5M407EPUP","emotion","mismatch","uniform","","","","","","","","314640.7999999523","316642.39999997616","","","","","","","","","","","","10","","stimuli/stars_10.png","155","","","","","stimuli/AM03_CC.jpg","",""
"explore-choice","103","320471","0.0-103.0","p252818","A2KW87ZD2ELYNG","3UUIU9GZC6BQMHTLWW3KSJ0W7IE5TB","3I02618YA2CC2OON6I79K5M407EPUP","emotion","mismatch","uniform","","","","","","","4759","316642.89999997616","321401.89999997616","[""stimuli/BM03_HE.jpg"",""stimuli/BF06_FO.jpg"",""stimuli/WF04_SC.jpg"",""stimuli/AM05_AO.jpg""]","stimuli/BM03_HE.jpg","stimuli/BF06_FO.jpg","stimuli/WF04_SC.jpg","stimuli/AM05_AO.jpg","pos3","stimuli/WF04_SC.jpg","SC","WF04","2","3","6","6","stimuli/stars_6.png","158","[""HE"",""FO"",""SC"",""AO""]","[""BM03"",""BF06"",""WF04"",""AM05""]","[1,5,6,9]","[2,4,6,8]","","",""
"show-reward","104","322473","0.0-104.0","p252818","A2KW87ZD2ELYNG","3UUIU9GZC6BQMHTLWW3KSJ0W7IE5TB","3I02618YA2CC2OON6I79K5M407EPUP","emotion","mismatch","uniform","","","","","","","","321902.60000002384","323903.7000000477","","","","","","","","","","","","6","","stimuli/stars_6.png","158","","","","","stimuli/WF04_SC.jpg","",""
"explore-choice","105","328572","0.0-105.0","p252818","A2KW87ZD2ELYNG","3UUIU9GZC6BQMHTLWW3KSJ0W7IE5TB","3I02618YA2CC2OON6I79K5M407EPUP","emotion","mismatch","uniform","","","","","","","5597.599999904633","323904.2000000477","329501.7999999523","[""stimuli/BM03_HE.jpg"",""stimuli/WF04_AO.jpg"",""stimuli/BF06_FO.jpg"",""stimuli/AM05_SC.jpg""]","stimuli/BM03_HE.jpg","stimuli/WF04_AO.jpg","stimuli/BF06_FO.jpg","stimuli/AM05_SC.jpg","pos4","stimuli/AM05_SC.jpg","SC","AM05","3","4.5","9","8","stimuli/stars_9.png","162.5","[""HE"",""AO"",""FO"",""SC""]","[""BM03"",""WF04"",""BF06"",""AM05""]","[4,4,2,9]","[2,6,4,8]","","",""
"show-reward","106","330574","0.0-106.0","p252818","A2KW87ZD2ELYNG","3UUIU9GZC6BQMHTLWW3KSJ0W7IE5TB","3I02618YA2CC2OON6I79K5M407EPUP","emotion","mismatch","uniform","","","","","","","","330003.39999997616","332004.89999997616","","","","","","","","","","","","9","","stimuli/stars_9.png","162.5","","","","","stimuli/AM05_SC.jpg","",""
"explore-choice","107","334078","0.0-107.0","p252818","A2KW87ZD2ELYNG","3UUIU9GZC6BQMHTLWW3KSJ0W7IE5TB","3I02618YA2CC2OON6I79K5M407EPUP","emotion","mismatch","uniform","","","","","","","3002.7000000476837","332005.39999997616","335008.10000002384","[""stimuli/AM05_HE.jpg"",""stimuli/BF06_AO.jpg"",""stimuli/BM03_SC.jpg"",""stimuli/WF04_FO.jpg""]","stimuli/AM05_HE.jpg","stimuli/BF06_AO.jpg","stimuli/BM03_SC.jpg","stimuli/WF04_FO.jpg","pos3","stimuli/BM03_SC.jpg","SC","BM03","2","1","2","2","stimuli/stars_2.png","163.5","[""HE"",""AO"",""SC"",""FO""]","[""AM05"",""BF06"",""BM03"",""WF04""]","[6,6,2,5]","[8,4,2,6]","","",""
"show-reward","108","336079","0.0-108.0","p252818","A2KW87ZD2ELYNG","3UUIU9GZC6BQMHTLWW3KSJ0W7IE5TB","3I02618YA2CC2OON6I79K5M407EPUP","emotion","mismatch","uniform","","","","","","","","335509.39999997616","337510.10000002384","","","","","","","","","","","","2","","stimuli/stars_2.png","163.5","","","","","stimuli/BM03_SC.jpg","",""
"explore-choice","109","339898","0.0-109.0","p252818","A2KW87ZD2ELYNG","3UUIU9GZC6BQMHTLWW3KSJ0W7IE5TB","3I02618YA2CC2OON6I79K5M407EPUP","emotion","mismatch","uniform","","","","","","","3318.2000000476837","337510.39999997616","340828.60000002384","[""stimuli/WF04_FO.jpg"",""stimuli/AM05_SC.jpg"",""stimuli/BF06_HE.jpg"",""stimuli/BM03_AO.jpg""]","stimuli/WF04_FO.jpg","stimuli/AM05_SC.jpg","stimuli/BF06_HE.jpg","stimuli/BM03_AO.jpg","pos2","stimuli/AM05_SC.jpg","SC","AM05","1","3","6","8","stimuli/stars_6.png","166.5","[""FO"",""SC"",""HE"",""AO""]","[""WF04"",""AM05"",""BF06"",""BM03""]","[5,6,5,2]","[6,8,4,2]","","",""
"show-reward","110","341900","0.0-110.0","p252818","A2KW87ZD2ELYNG","3UUIU9GZC6BQMHTLWW3KSJ0W7IE5TB","3I02618YA2CC2OON6I79K5M407EPUP","emotion","mismatch","uniform","","","","","","","","341329.39999997616","343330.60000002384","","","","","","","","","","","","6","","stimuli/stars_6.png","166.5","","","","","stimuli/AM05_SC.jpg","",""
"explore-choice","111","347248","0.0-111.0","p252818","A2KW87ZD2ELYNG","3UUIU9GZC6BQMHTLWW3KSJ0W7IE5TB","3I02618YA2CC2OON6I79K5M407EPUP","emotion","mismatch","uniform","","","","","","","4847.899999976158","343331.2000000477","348179.10000002384","[""stimuli/AM05_AO.jpg"",""stimuli/BF06_FO.jpg"",""stimuli/WF04_HE.jpg"",""stimuli/BM03_SC.jpg""]","stimuli/AM05_AO.jpg","stimuli/BF06_FO.jpg","stimuli/WF04_HE.jpg","stimuli/BM03_SC.jpg","pos3","stimuli/WF04_HE.jpg","HE","WF04","2","2","4","6","stimuli/stars_4.png","168.5","[""AO"",""FO"",""HE"",""SC""]","[""AM05"",""BF06"",""WF04"",""BM03""]","[9,6,4,3]","[8,4,6,2]","","",""
"show-reward","112","349250","0.0-112.0","p252818","A2KW87ZD2ELYNG","3UUIU9GZC6BQMHTLWW3KSJ0W7IE5TB","3I02618YA2CC2OON6I79K5M407EPUP","emotion","mismatch","uniform","","","","","","","","348679.7999999523","350680.7999999523","","","","","","","","","","","","4","","stimuli/stars_4.png","168.5","","","","","stimuli/WF04_HE.jpg","",""
"explore-choice","113","352906","0.0-113.0","p252818","A2KW87ZD2ELYNG","3UUIU9GZC6BQMHTLWW3KSJ0W7IE5TB","3I02618YA2CC2OON6I79K5M407EPUP","emotion","mismatch","uniform","","","","","","","3155.2000000476837","350681.2999999523","353836.5","[""stimuli/WF04_AO.jpg"",""stimuli/BF06_HE.jpg"",""stimuli/BM03_FO.jpg"",""stimuli/AM05_SC.jpg""]","stimuli/WF04_AO.jpg","stimuli/BF06_HE.jpg","stimuli/BM03_FO.jpg","stimuli/AM05_SC.jpg","pos3","stimuli/BM03_FO.jpg","FO","BM03","2","1","2","2","stimuli/stars_2.png","169.5","[""AO"",""HE"",""FO"",""SC""]","[""WF04"",""BF06"",""BM03"",""AM05""]","[5,4,2,9]","[6,4,2,8]","","",""
"show-reward","114","354910","0.0-114.0","p252818","A2KW87ZD2ELYNG","3UUIU9GZC6BQMHTLWW3KSJ0W7IE5TB","3I02618YA2CC2OON6I79K5M407EPUP","emotion","mismatch","uniform","","","","","","","","354337.2999999523","356339.39999997616","","","","","","","","","","","","2","","stimuli/stars_2.png","169.5","","","","","stimuli/BM03_FO.jpg","",""
"explore-choice","115","357433","0.0-115.0","p252818","A2KW87ZD2ELYNG","3UUIU9GZC6BQMHTLWW3KSJ0W7IE5TB","3I02618YA2CC2OON6I79K5M407EPUP","emotion","mismatch","uniform","","","","","","","2022.8999999761581","356339.89999997616","358362.7999999523","[""stimuli/AM05_HE.jpg"",""stimuli/WF04_SC.jpg"",""stimuli/BM03_FO.jpg"",""stimuli/BF06_AO.jpg""]","stimuli/AM05_HE.jpg","stimuli/WF04_SC.jpg","stimuli/BM03_FO.jpg","stimuli/BF06_AO.jpg","pos2","stimuli/WF04_SC.jpg","SC","WF04","1","2.5","5","6","stimuli/stars_5.png","172","[""HE"",""SC"",""FO"",""AO""]","[""AM05"",""WF04"",""BM03"",""BF06""]","[7,5,1,4]","[8,6,2,4]","","",""
"show-reward","116","359434","0.0-116.0","p252818","A2KW87ZD2ELYNG","3UUIU9GZC6BQMHTLWW3KSJ0W7IE5TB","3I02618YA2CC2OON6I79K5M407EPUP","emotion","mismatch","uniform","","","","","","","","358863.7000000477","360864.39999997616","","","","","","","","","","","","5","","stimuli/stars_5.png","172","","","","","stimuli/WF04_SC.jpg","",""
"explore-choice","117","361756","0.0-117.0","p252818","A2KW87ZD2ELYNG","3UUIU9GZC6BQMHTLWW3KSJ0W7IE5TB","3I02618YA2CC2OON6I79K5M407EPUP","emotion","mismatch","uniform","","","","","","","1821.2000000476837","360864.89999997616","362686.10000002384","[""stimuli/BF06_SC.jpg"",""stimuli/AM05_FO.jpg"",""stimuli/BM03_AO.jpg"",""stimuli/WF04_HE.jpg""]","stimuli/BF06_SC.jpg","stimuli/AM05_FO.jpg","stimuli/BM03_AO.jpg","stimuli/WF04_HE.jpg","pos1","stimuli/BF06_SC.jpg","SC","BF06","0","1.5","3","4","stimuli/stars_3.png","173.5","[""SC"",""FO"",""AO"",""HE""]","[""BF06"",""AM05"",""BM03"",""WF04""]","[3,8,3,6]","[4,8,2,6]","","",""
"show-reward","118","363758","0.0-118.0","p252818","A2KW87ZD2ELYNG","3UUIU9GZC6BQMHTLWW3KSJ0W7IE5TB","3I02618YA2CC2OON6I79K5M407EPUP","emotion","mismatch","uniform","","","","","","","","363186.7000000477","365187.7999999523","","","","","","","","","","","","3","","stimuli/stars_3.png","173.5","","","","","stimuli/BF06_SC.jpg","",""
"explore-choice","119","367129","0.0-119.0","p252818","A2KW87ZD2ELYNG","3UUIU9GZC6BQMHTLWW3KSJ0W7IE5TB","3I02618YA2CC2OON6I79K5M407EPUP","emotion","mismatch","uniform","","","","","","","2870.4000000953674","365188.2999999523","368058.7000000477","[""stimuli/AM05_FO.jpg"",""stimuli/WF04_AO.jpg"",""stimuli/BM03_SC.jpg"",""stimuli/BF06_HE.jpg""]","stimuli/AM05_FO.jpg","stimuli/WF04_AO.jpg","stimuli/BM03_SC.jpg","stimuli/BF06_HE.jpg","pos1","stimuli/AM05_FO.jpg","FO","AM05","0","5","10","8","stimuli/stars_10.png","178.5","[""FO"",""AO"",""SC"",""HE""]","[""AM05"",""WF04"",""BM03"",""BF06""]","[10,5,4,4]","[8,6,2,4]","","",""
"show-reward","120","369131","0.0-120.0","p252818","A2KW87ZD2ELYNG","3UUIU9GZC6BQMHTLWW3KSJ0W7IE5TB","3I02618YA2CC2OON6I79K5M407EPUP","emotion","mismatch","uniform","","","","","","","","368559.7999999523","370561.39999997616","","","","","","","","","","","","10","","stimuli/stars_10.png","178.5","","","","","stimuli/AM05_FO.jpg","",""
"explore-choice","121","371650","0.0-121.0","p252818","A2KW87ZD2ELYNG","3UUIU9GZC6BQMHTLWW3KSJ0W7IE5TB","3I02618YA2CC2OON6I79K5M407EPUP","emotion","mismatch","uniform","","","","","","","2017","370561.89999997616","372578.89999997616","[""stimuli/BM03_HE.jpg"",""stimuli/BF06_AO.jpg"",""stimuli/WF04_SC.jpg"",""stimuli/AM05_FO.jpg""]","stimuli/BM03_HE.jpg","stimuli/BF06_AO.jpg","stimuli/WF04_SC.jpg","stimuli/AM05_FO.jpg","pos4","stimuli/AM05_FO.jpg","FO","AM05","3","4","8","8","stimuli/stars_8.png","182.5","[""HE"",""AO"",""SC"",""FO""]","[""BM03"",""BF06"",""WF04"",""AM05""]","[4,5,8,8]","[2,4,6,8]","","",""
"show-reward","122","373651","0.0-122.0","p252818","A2KW87ZD2ELYNG","3UUIU9GZC6BQMHTLWW3KSJ0W7IE5TB","3I02618YA2CC2OON6I79K5M407EPUP","emotion","mismatch","uniform","","","","","","","","373080.2999999523","375081.2999999523","","","","","","","","","","","","8","","stimuli/stars_8.png","182.5","","","","","stimuli/AM05_FO.jpg","",""
"explore-choice","123","377115","0.0-123.0","p252818","A2KW87ZD2ELYNG","3UUIU9GZC6BQMHTLWW3KSJ0W7IE5TB","3I02618YA2CC2OON6I79K5M407EPUP","emotion","mismatch","uniform","","","","","","","2962.600000023842","375081.89999997616","378044.5","[""stimuli/WF04_AO.jpg"",""stimuli/BM03_HE.jpg"",""stimuli/AM05_FO.jpg"",""stimuli/BF06_SC.jpg""]","stimuli/WF04_AO.jpg","stimuli/BM03_HE.jpg","stimuli/AM05_FO.jpg","stimuli/BF06_SC.jpg","pos4","stimuli/BF06_SC.jpg","SC","BF06","3","2","4","4","stimuli/stars_4.png","184.5","[""AO"",""HE"",""FO"",""SC""]","[""WF04"",""BM03"",""AM05"",""BF06""]","[8,4,9,4]","[6,2,8,4]","","",""
"show-reward","124","379117","0.0-124.0","p252818","A2KW87ZD2ELYNG","3UUIU9GZC6BQMHTLWW3KSJ0W7IE5TB","3I02618YA2CC2OON6I79K5M407EPUP","emotion","mismatch","uniform","","","","","","","","378545.2999999523","380546.89999997616","","","","","","","","","","","","4","","stimuli/stars_4.png","184.5","","","","","stimuli/BF06_SC.jpg","",""
"explore-choice","125","382302","0.0-125.0","p252818","A2KW87ZD2ELYNG","3UUIU9GZC6BQMHTLWW3KSJ0W7IE5TB","3I02618YA2CC2OON6I79K5M407EPUP","emotion","mismatch","uniform","","","","","","","2684.399999976158","380547.39999997616","383231.7999999523","[""stimuli/BF06_FO.jpg"",""stimuli/WF04_SC.jpg"",""stimuli/AM05_HE.jpg"",""stimuli/BM03_AO.jpg""]","stimuli/BF06_FO.jpg","stimuli/WF04_SC.jpg","stimuli/AM05_HE.jpg","stimuli/BM03_AO.jpg","pos1","stimuli/BF06_FO.jpg","FO","BF06","0","1","2","4","stimuli/stars_2.png","185.5","[""FO"",""SC"",""HE"",""AO""]","[""BF06"",""WF04"",""AM05"",""BM03""]","[2,4,10,3]","[4,6,8,2]","","",""
"show-reward","126","384305","0.0-126.0","p252818","A2KW87ZD2ELYNG","3UUIU9GZC6BQMHTLWW3KSJ0W7IE5TB","3I02618YA2CC2OON6I79K5M407EPUP","emotion","mismatch","uniform","","","","","","","","383732.7000000477","385734.39999997616","","","","","","","","","","","","2","","stimuli/stars_2.png","185.5","","","","","stimuli/BF06_FO.jpg","",""
"explore-choice","127","387111","0.0-127.0","p252818","A2KW87ZD2ELYNG","3UUIU9GZC6BQMHTLWW3KSJ0W7IE5TB","3I02618YA2CC2OON6I79K5M407EPUP","emotion","mismatch","uniform","","","","","","","2305.2999999523163","385735","388040.2999999523","[""stimuli/WF04_SC.jpg"",""stimuli/BM03_FO.jpg"",""stimuli/BF06_HE.jpg"",""stimuli/AM05_AO.jpg""]","stimuli/WF04_SC.jpg","stimuli/BM03_FO.jpg","stimuli/BF06_HE.jpg","stimuli/AM05_AO.jpg","pos3","stimuli/BF06_HE.jpg","HE","BF06","2","1","2","4","stimuli/stars_2.png","186.5","[""SC"",""FO"",""HE"",""AO""]","[""WF04"",""BM03"",""BF06"",""AM05""]","[8,2,2,8]","[6,2,4,8]","","",""
"show-reward","128","389113","0.0-128.0","p252818","A2KW87ZD2ELYNG","3UUIU9GZC6BQMHTLWW3KSJ0W7IE5TB","3I02618YA2CC2OON6I79K5M407EPUP","emotion","mismatch","uniform","","","","","","","","388541.7999999523","390543.39999997616","","","","","","","","","","","","2","","stimuli/stars_2.png","186.5","","","","","stimuli/BF06_HE.jpg","",""
"explore-choice","129","390846","0.0-129.0","p252818","A2KW87ZD2ELYNG","3UUIU9GZC6BQMHTLWW3KSJ0W7IE5TB","3I02618YA2CC2OON6I79K5M407EPUP","emotion","mismatch","uniform","","","","","","","1231.8000000715256","390543.89999997616","391775.7000000477","[""stimuli/WF04_FO.jpg"",""stimuli/BF06_AO.jpg"",""stimuli/AM05_SC.jpg"",""stimuli/BM03_HE.jpg""]","stimuli/WF04_FO.jpg","stimuli/BF06_AO.jpg","stimuli/AM05_SC.jpg","stimuli/BM03_HE.jpg","pos4","stimuli/BM03_HE.jpg","HE","BM03","3","1.5","3","2","stimuli/stars_3.png","188","[""FO"",""AO"",""SC"",""HE""]","[""WF04"",""BF06"",""AM05"",""BM03""]","[8,2,10,3]","[6,4,8,2]","","",""
"show-reward","130","392847","0.0-130.0","p252818","A2KW87ZD2ELYNG","3UUIU9GZC6BQMHTLWW3KSJ0W7IE5TB","3I02618YA2CC2OON6I79K5M407EPUP","emotion","mismatch","uniform","","","","","","","","392276.60000002384","394277.2999999523","","","","","","","","","","","","3","","stimuli/stars_3.png","188","","","","","stimuli/BM03_HE.jpg","",""
"explore-choice","131","395579","0.0-131.0","p252818","A2KW87ZD2ELYNG","3UUIU9GZC6BQMHTLWW3KSJ0W7IE5TB","3I02618YA2CC2OON6I79K5M407EPUP","emotion","mismatch","uniform","","","","","","","2230","394277.7000000477","396507.7000000477","[""stimuli/AM05_HE.jpg"",""stimuli/BF06_SC.jpg"",""stimuli/WF04_AO.jpg"",""stimuli/BM03_FO.jpg""]","stimuli/AM05_HE.jpg","stimuli/BF06_SC.jpg","stimuli/WF04_AO.jpg","stimuli/BM03_FO.jpg","pos3","stimuli/WF04_AO.jpg","AO","WF04","2","2.5","5","6","stimuli/stars_5.png","190.5","[""HE"",""SC"",""AO"",""FO""]","[""AM05"",""BF06"",""WF04"",""BM03""]","[8,6,5,3]","[8,4,6,2]","","",""
"show-reward","132","397580","0.0-132.0","p252818","A2KW87ZD2ELYNG","3UUIU9GZC6BQMHTLWW3KSJ0W7IE5TB","3I02618YA2CC2OON6I79K5M407EPUP","emotion","mismatch","uniform","","","","","","","","397009","399010.2000000477","","","","","","","","","","","","5","","stimuli/stars_5.png","190.5","","","","","stimuli/WF04_AO.jpg","",""
"explore-choice","133","401843","0.0-133.0","p252818","A2KW87ZD2ELYNG","3UUIU9GZC6BQMHTLWW3KSJ0W7IE5TB","3I02618YA2CC2OON6I79K5M407EPUP","emotion","mismatch","uniform","","","","","","","3761.5","399010.7999999523","402772.2999999523","[""stimuli/BF06_SC.jpg"",""stimuli/AM05_HE.jpg"",""stimuli/BM03_AO.jpg"",""stimuli/WF04_FO.jpg""]","stimuli/BF06_SC.jpg","stimuli/AM05_HE.jpg","stimuli/BM03_AO.jpg","stimuli/WF04_FO.jpg","pos2","stimuli/AM05_HE.jpg","HE","AM05","1","3.5","7","8","stimuli/stars_7.png","194","[""SC"",""HE"",""AO"",""FO""]","[""BF06"",""AM05"",""BM03"",""WF04""]","[4,7,0,4]","[4,8,2,6]","","",""
"show-reward","134","403845","0.0-134.0","p252818","A2KW87ZD2ELYNG","3UUIU9GZC6BQMHTLWW3KSJ0W7IE5TB","3I02618YA2CC2OON6I79K5M407EPUP","emotion","mismatch","uniform","","","","","","","","403273.7999999523","405274.89999997616","","","","","","","","","","","","7","","stimuli/stars_7.png","194","","","","","stimuli/AM05_HE.jpg","",""
"explore-choice","135","407018","0.0-135.0","p252818","A2KW87ZD2ELYNG","3UUIU9GZC6BQMHTLWW3KSJ0W7IE5TB","3I02618YA2CC2OON6I79K5M407EPUP","emotion","mismatch","uniform","","","","","","","2671.399999976158","405275.39999997616","407946.7999999523","[""stimuli/BF06_AO.jpg"",""stimuli/AM05_SC.jpg"",""stimuli/BM03_FO.jpg"",""stimuli/WF04_HE.jpg""]","stimuli/BF06_AO.jpg","stimuli/AM05_SC.jpg","stimuli/BM03_FO.jpg","stimuli/WF04_HE.jpg","pos3","stimuli/BM03_FO.jpg","FO","BM03","2","1","2","2","stimuli/stars_2.png","195","[""AO"",""SC"",""FO"",""HE""]","[""BF06"",""AM05"",""BM03"",""WF04""]","[2,7,2,8]","[4,8,2,6]","","",""
"show-reward","136","409020","0.0-136.0","p252818","A2KW87ZD2ELYNG","3UUIU9GZC6BQMHTLWW3KSJ0W7IE5TB","3I02618YA2CC2OON6I79K5M407EPUP","emotion","mismatch","uniform","","","","","","","","408448.2999999523","410449.89999997616","","","","","","","","","","","","2","","stimuli/stars_2.png","195","","","","","stimuli/BM03_FO.jpg","",""
"explore-choice","137","411337","0.0-137.0","p252818","A2KW87ZD2ELYNG","3UUIU9GZC6BQMHTLWW3KSJ0W7IE5TB","3I02618YA2CC2OON6I79K5M407EPUP","emotion","mismatch","uniform","","","","","","","1816.6000000238419","410450.39999997616","412267","[""stimuli/AM05_AO.jpg"",""stimuli/BM03_HE.jpg"",""stimuli/WF04_FO.jpg"",""stimuli/BF06_SC.jpg""]","stimuli/AM05_AO.jpg","stimuli/BM03_HE.jpg","stimuli/WF04_FO.jpg","stimuli/BF06_SC.jpg","pos3","stimuli/WF04_FO.jpg","FO","WF04","2","3","6","6","stimuli/stars_6.png","198","[""AO"",""HE"",""FO"",""SC""]","[""AM05"",""BM03"",""WF04"",""BF06""]","[9,3,6,6]","[8,2,6,4]","","",""
"show-reward","138","413339","0.0-138.0","p252818","A2KW87ZD2ELYNG","3UUIU9GZC6BQMHTLWW3KSJ0W7IE5TB","3I02618YA2CC2OON6I79K5M407EPUP","emotion","mismatch","uniform","","","","","","","","412767.7000000477","414769.39999997616","","","","","","","","","","","","6","","stimuli/stars_6.png","198","","","","","stimuli/WF04_FO.jpg","",""
"explore-choice","139","415576","0.0-139.0","p252818","A2KW87ZD2ELYNG","3UUIU9GZC6BQMHTLWW3KSJ0W7IE5TB","3I02618YA2CC2OON6I79K5M407EPUP","emotion","mismatch","uniform","","","","","","","1733.5","414770","416503.5","[""stimuli/AM05_AO.jpg"",""stimuli/BM03_FO.jpg"",""stimuli/BF06_SC.jpg"",""stimuli/WF04_HE.jpg""]","stimuli/AM05_AO.jpg","stimuli/BM03_FO.jpg","stimuli/BF06_SC.jpg","stimuli/WF04_HE.jpg","pos2","stimuli/BM03_FO.jpg","FO","BM03","1","1.5","3","2","stimuli/stars_3.png","199.5","[""AO"",""FO"",""SC"",""HE""]","[""AM05"",""BM03"",""BF06"",""WF04""]","[9,3,6,5]","[8,2,4,6]","","",""
"show-reward","140","417578","0.0-140.0","p252818","A2KW87ZD2ELYNG","3UUIU9GZC6BQMHTLWW3KSJ0W7IE5TB","3I02618YA2CC2OON6I79K5M407EPUP","emotion","mismatch","uniform","","","","","","","","417004.7000000477","419006.2000000477","","","","","","","","","","","","3","","stimuli/stars_3.png","199.5","","","","","stimuli/BM03_FO.jpg","",""
"explore-choice","141","421234","0.0-141.0","p252818","A2KW87ZD2ELYNG","3UUIU9GZC6BQMHTLWW3KSJ0W7IE5TB","3I02618YA2CC2OON6I79K5M407EPUP","emotion","mismatch","uniform","","","","","","","3155","419006.89999997616","422161.89999997616","[""stimuli/AM05_FO.jpg"",""stimuli/WF04_SC.jpg"",""stimuli/BF06_HE.jpg"",""stimuli/BM03_AO.jpg""]","stimuli/AM05_FO.jpg","stimuli/WF04_SC.jpg","stimuli/BF06_HE.jpg","stimuli/BM03_AO.jpg","pos1","stimuli/AM05_FO.jpg","FO","AM05","0","3.5","7","8","stimuli/stars_7.png","203","[""FO"",""SC"",""HE"",""AO""]","[""AM05"",""WF04"",""BF06"",""BM03""]","[7,8,4,3]","[8,6,4,2]","","",""
"show-reward","142","423236","0.0-142.0","p252818","A2KW87ZD2ELYNG","3UUIU9GZC6BQMHTLWW3KSJ0W7IE5TB","3I02618YA2CC2OON6I79K5M407EPUP","emotion","mismatch","uniform","","","","","","","","422662.7000000477","424663.7999999523","","","","","","","","","","","","7","","stimuli/stars_7.png","203","","","","","stimuli/AM05_FO.jpg","",""
"explore-choice","143","426155","0.0-143.0","p252818","A2KW87ZD2ELYNG","3UUIU9GZC6BQMHTLWW3KSJ0W7IE5TB","3I02618YA2CC2OON6I79K5M407EPUP","emotion","mismatch","uniform","","","","","","","2417.8000000715256","424664.39999997616","427082.2000000477","[""stimuli/BM03_SC.jpg"",""stimuli/BF06_AO.jpg"",""stimuli/AM05_FO.jpg"",""stimuli/WF04_HE.jpg""]","stimuli/BM03_SC.jpg","stimuli/BF06_AO.jpg","stimuli/AM05_FO.jpg","stimuli/WF04_HE.jpg","pos3","stimuli/AM05_FO.jpg","FO","AM05","2","4","8","8","stimuli/stars_8.png","207","[""SC"",""AO"",""FO"",""HE""]","[""BM03"",""BF06"",""AM05"",""WF04""]","[1,6,8,7]","[2,4,8,6]","","",""
"show-reward","144","428156","0.0-144.0","p252818","A2KW87ZD2ELYNG","3UUIU9GZC6BQMHTLWW3KSJ0W7IE5TB","3I02618YA2CC2OON6I79K5M407EPUP","emotion","mismatch","uniform","","","","","","","","427583.10000002384","429584.39999997616","","","","","","","","","","","","8","","stimuli/stars_8.png","207","","","","","stimuli/AM05_FO.jpg","",""
"explore-choice","145","431022","0.0-145.0","p252818","A2KW87ZD2ELYNG","3UUIU9GZC6BQMHTLWW3KSJ0W7IE5TB","3I02618YA2CC2OON6I79K5M407EPUP","emotion","mismatch","uniform","","","","","","","2363.8000000715256","429584.7999999523","431948.60000002384","[""stimuli/BM03_SC.jpg"",""stimuli/BF06_FO.jpg"",""stimuli/AM05_HE.jpg"",""stimuli/WF04_AO.jpg""]","stimuli/BM03_SC.jpg","stimuli/BF06_FO.jpg","stimuli/AM05_HE.jpg","stimuli/WF04_AO.jpg","pos3","stimuli/AM05_HE.jpg","HE","AM05","2","4.5","9","8","stimuli/stars_9.png","211.5","[""SC"",""FO"",""HE"",""AO""]","[""BM03"",""BF06"",""AM05"",""WF04""]","[2,3,9,7]","[2,4,8,6]","","",""
"show-reward","146","433023","0.0-146.0","p252818","A2KW87ZD2ELYNG","3UUIU9GZC6BQMHTLWW3KSJ0W7IE5TB","3I02618YA2CC2OON6I79K5M407EPUP","emotion","mismatch","uniform","","","","","","","","432450.2000000477","434451.39999997616","","","","","","","","","","","","9","","stimuli/stars_9.png","211.5","","","","","stimuli/AM05_HE.jpg","",""
"explore-choice","147","435197","0.0-147.0","p252818","A2KW87ZD2ELYNG","3UUIU9GZC6BQMHTLWW3KSJ0W7IE5TB","3I02618YA2CC2OON6I79K5M407EPUP","emotion","mismatch","uniform","","","","","","","1672.3000000715256","434451.7999999523","436124.10000002384","[""stimuli/WF04_HE.jpg"",""stimuli/BF06_FO.jpg"",""stimuli/BM03_AO.jpg"",""stimuli/AM05_SC.jpg""]","stimuli/WF04_HE.jpg","stimuli/BF06_FO.jpg","stimuli/BM03_AO.jpg","stimuli/AM05_SC.jpg","pos1","stimuli/WF04_HE.jpg","HE","WF04","0","2.5","5","6","stimuli/stars_5.png","214","[""HE"",""FO"",""AO"",""SC""]","[""WF04"",""BF06"",""BM03"",""AM05""]","[5,3,1,9]","[6,4,2,8]","","",""
"show-reward","148","437198","0.0-148.0","p252818","A2KW87ZD2ELYNG","3UUIU9GZC6BQMHTLWW3KSJ0W7IE5TB","3I02618YA2CC2OON6I79K5M407EPUP","emotion","mismatch","uniform","","","","","","","","436625.10000002384","438626.2000000477","","","","","","","","","","","","5","","stimuli/stars_5.png","214","","","","","stimuli/WF04_HE.jpg","",""
"explore-choice","149","440151","0.0-149.0","p252818","A2KW87ZD2ELYNG","3UUIU9GZC6BQMHTLWW3KSJ0W7IE5TB","3I02618YA2CC2OON6I79K5M407EPUP","emotion","mismatch","uniform","","","","","","","2451.5","438626.7999999523","441078.2999999523","[""stimuli/WF04_FO.jpg"",""stimuli/BM03_SC.jpg"",""stimuli/BF06_HE.jpg"",""stimuli/AM05_AO.jpg""]","stimuli/WF04_FO.jpg","stimuli/BM03_SC.jpg","stimuli/BF06_HE.jpg","stimuli/AM05_AO.jpg","pos3","stimuli/BF06_HE.jpg","HE","BF06","2","1.5","3","4","stimuli/stars_3.png","215.5","[""FO"",""SC"",""HE"",""AO""]","[""WF04"",""BM03"",""BF06"",""AM05""]","[4,2,3,7]","[6,2,4,8]","","",""
"show-reward","150","442152","0.0-150.0","p252818","A2KW87ZD2ELYNG","3UUIU9GZC6BQMHTLWW3KSJ0W7IE5TB","3I02618YA2CC2OON6I79K5M407EPUP","emotion","mismatch","uniform","","","","","","","","441579.60000002384","443580.2999999523","","","","","","","","","","","","3","","stimuli/stars_3.png","215.5","","","","","stimuli/BF06_HE.jpg","",""
"explore-choice","151","443964","0.0-151.0","p252818","A2KW87ZD2ELYNG","3UUIU9GZC6BQMHTLWW3KSJ0W7IE5TB","3I02618YA2CC2OON6I79K5M407EPUP","emotion","mismatch","uniform","","","","","","","1309.8000000715256","443580.7999999523","444890.60000002384","[""stimuli/AM05_AO.jpg"",""stimuli/BF06_FO.jpg"",""stimuli/WF04_HE.jpg"",""stimuli/BM03_SC.jpg""]","stimuli/AM05_AO.jpg","stimuli/BF06_FO.jpg","stimuli/WF04_HE.jpg","stimuli/BM03_SC.jpg","pos2","stimuli/BF06_FO.jpg","FO","BF06","1","3","6","4","stimuli/stars_6.png","218.5","[""AO"",""FO"",""HE"",""SC""]","[""AM05"",""BF06"",""WF04"",""BM03""]","[9,6,4,3]","[8,4,6,2]","","",""
"show-reward","152","445966","0.0-152.0","p252818","A2KW87ZD2ELYNG","3UUIU9GZC6BQMHTLWW3KSJ0W7IE5TB","3I02618YA2CC2OON6I79K5M407EPUP","emotion","mismatch","uniform","","","","","","","","445392","447393.7000000477","","","","","","","","","","","","6","","stimuli/stars_6.png","218.5","","","","","stimuli/BF06_FO.jpg","",""
"explore-choice","153","449725","0.0-153.0","p252818","A2KW87ZD2ELYNG","3UUIU9GZC6BQMHTLWW3KSJ0W7IE5TB","3I02618YA2CC2OON6I79K5M407EPUP","emotion","mismatch","uniform","","","","","","","3258","447394.10000002384","450652.10000002384","[""stimuli/WF04_SC.jpg"",""stimuli/BM03_HE.jpg"",""stimuli/AM05_AO.jpg"",""stimuli/BF06_FO.jpg""]","stimuli/WF04_SC.jpg","stimuli/BM03_HE.jpg","stimuli/AM05_AO.jpg","stimuli/BF06_FO.jpg","pos4","stimuli/BF06_FO.jpg","FO","BF06","3","2.5","5","4","stimuli/stars_5.png","221","[""SC"",""HE"",""AO"",""FO""]","[""WF04"",""BM03"",""AM05"",""BF06""]","[6,1,9,5]","[6,2,8,4]","","",""
"show-reward","154","451727","0.0-154.0","p252818","A2KW87ZD2ELYNG","3UUIU9GZC6BQMHTLWW3KSJ0W7IE5TB","3I02618YA2CC2OON6I79K5M407EPUP","emotion","mismatch","uniform","","","","","","","","451153","453154.7000000477","","","","","","","","","","","","5","","stimuli/stars_5.png","221","","","","","stimuli/BF06_FO.jpg","",""
"explore-choice","155","454991","0.0-155.0","p252818","A2KW87ZD2ELYNG","3UUIU9GZC6BQMHTLWW3KSJ0W7IE5TB","3I02618YA2CC2OON6I79K5M407EPUP","emotion","mismatch","uniform","","","","","","","2763.2000000476837","453155.2999999523","455918.5","[""stimuli/AM05_HE.jpg"",""stimuli/WF04_AO.jpg"",""stimuli/BF06_SC.jpg"",""stimuli/BM03_FO.jpg""]","stimuli/AM05_HE.jpg","stimuli/WF04_AO.jpg","stimuli/BF06_SC.jpg","stimuli/BM03_FO.jpg","pos1","stimuli/AM05_HE.jpg","HE","AM05","0","4","8","8","stimuli/stars_8.png","225","[""HE"",""AO"",""SC"",""FO""]","[""AM05"",""WF04"",""BF06"",""BM03""]","[8,5,6,3]","[8,6,4,2]","","",""
"show-reward","156","456993","0.0-156.0","p252818","A2KW87ZD2ELYNG","3UUIU9GZC6BQMHTLWW3KSJ0W7IE5TB","3I02618YA2CC2OON6I79K5M407EPUP","emotion","mismatch","uniform","","","","","","","","456419.2000000477","458420.7999999523","","","","","","","","","","","","8","","stimuli/stars_8.png","225","","","","","stimuli/AM05_HE.jpg","",""
"explore-choice","157","460738","0.0-157.0","p252818","A2KW87ZD2ELYNG","3UUIU9GZC6BQMHTLWW3KSJ0W7IE5TB","3I02618YA2CC2OON6I79K5M407EPUP","emotion","mismatch","uniform","","","","","","","3243.8000000715256","458421.2999999523","461665.10000002384","[""stimuli/BF06_AO.jpg"",""stimuli/BM03_SC.jpg"",""stimuli/AM05_FO.jpg"",""stimuli/WF04_HE.jpg""]","stimuli/BF06_AO.jpg","stimuli/BM03_SC.jpg","stimuli/AM05_FO.jpg","stimuli/WF04_HE.jpg","pos3","stimuli/AM05_FO.jpg","FO","AM05","2","4","8","8","stimuli/stars_8.png","229","[""AO"",""SC"",""FO"",""HE""]","[""BF06"",""BM03"",""AM05"",""WF04""]","[6,1,8,7]","[4,2,8,6]","","",""
"show-reward","158","462739","0.0-158.0","p252818","A2KW87ZD2ELYNG","3UUIU9GZC6BQMHTLWW3KSJ0W7IE5TB","3I02618YA2CC2OON6I79K5M407EPUP","emotion","mismatch","uniform","","","","","","","","462166.2999999523","464167.2999999523","","","","","","","","","","","","8","","stimuli/stars_8.png","229","","","","","stimuli/AM05_FO.jpg","",""
"explore-choice","159","465395","0.0-159.0","p252818","A2KW87ZD2ELYNG","3UUIU9GZC6BQMHTLWW3KSJ0W7IE5TB","3I02618YA2CC2OON6I79K5M407EPUP","emotion","mismatch","uniform","","","","","","","2154.5","464167.7999999523","466322.2999999523","[""stimuli/AM05_HE.jpg"",""stimuli/BM03_SC.jpg"",""stimuli/WF04_AO.jpg"",""stimuli/BF06_FO.jpg""]","stimuli/AM05_HE.jpg","stimuli/BM03_SC.jpg","stimuli/WF04_AO.jpg","stimuli/BF06_FO.jpg","pos1","stimuli/AM05_HE.jpg","HE","AM05","0","4.5","9","8","stimuli/stars_9.png","233.5","[""HE"",""SC"",""AO"",""FO""]","[""AM05"",""BM03"",""WF04"",""BF06""]","[9,2,7,3]","[8,2,6,4]","","",""
"show-reward","160","467397","0.0-160.0","p252818","A2KW87ZD2ELYNG","3UUIU9GZC6BQMHTLWW3KSJ0W7IE5TB","3I02618YA2CC2OON6I79K5M407EPUP","emotion","mismatch","uniform","","","","","","","","466823.60000002384","468824.89999997616","","","","","","","","","","","","9","","stimuli/stars_9.png","233.5","","","","","stimuli/AM05_HE.jpg","",""
"explore-choice","161","470758","0.0-161.0","p252818","A2KW87ZD2ELYNG","3UUIU9GZC6BQMHTLWW3KSJ0W7IE5TB","3I02618YA2CC2OON6I79K5M407EPUP","emotion","mismatch","uniform","","","","","","","2859.5","468825.2999999523","471684.7999999523","[""stimuli/BM03_AO.jpg"",""stimuli/AM05_SC.jpg"",""stimuli/BF06_HE.jpg"",""stimuli/WF04_FO.jpg""]","stimuli/BM03_AO.jpg","stimuli/AM05_SC.jpg","stimuli/BF06_HE.jpg","stimuli/WF04_FO.jpg","pos2","stimuli/AM05_SC.jpg","SC","AM05","1","3","6","8","stimuli/stars_6.png","236.5","[""AO"",""SC"",""HE"",""FO""]","[""BM03"",""AM05"",""BF06"",""WF04""]","[2,6,5,5]","[2,8,4,6]","","",""
"show-reward","162","472760","0.0-162.0","p252818","A2KW87ZD2ELYNG","3UUIU9GZC6BQMHTLWW3KSJ0W7IE5TB","3I02618YA2CC2OON6I79K5M407EPUP","emotion","mismatch","uniform","","","","","","","","472186.2999999523","474187.89999997616","","","","","","","","","","","","6","","stimuli/stars_6.png","236.5","","","","","stimuli/AM05_SC.jpg","",""
"explore-choice","163","474223","0.0-163.0","p252818","A2KW87ZD2ELYNG","3UUIU9GZC6BQMHTLWW3KSJ0W7IE5TB","3I02618YA2CC2OON6I79K5M407EPUP","emotion","mismatch","uniform","","","","","","","959.8000000715256","474188.2999999523","475148.10000002384","[""stimuli/AM05_HE.jpg"",""stimuli/WF04_FO.jpg"",""stimuli/BM03_SC.jpg"",""stimuli/BF06_AO.jpg""]","stimuli/AM05_HE.jpg","stimuli/WF04_FO.jpg","stimuli/BM03_SC.jpg","stimuli/BF06_AO.jpg","pos1","stimuli/AM05_HE.jpg","HE","AM05","0","3","6","8","stimuli/stars_6.png","239.5","[""HE"",""FO"",""SC"",""AO""]","[""AM05"",""WF04"",""BM03"",""BF06""]","[6,5,2,6]","[8,6,2,4]","","",""
"show-reward","164","476224","0.0-164.0","p252818","A2KW87ZD2ELYNG","3UUIU9GZC6BQMHTLWW3KSJ0W7IE5TB","3I02618YA2CC2OON6I79K5M407EPUP","emotion","mismatch","uniform","","","","","","","","475649.5","477650.7000000477","","","","","","","","","","","","6","","stimuli/stars_6.png","239.5","","","","","stimuli/AM05_HE.jpg","",""
"explore-choice","165","480393","0.0-165.0","p252818","A2KW87ZD2ELYNG","3UUIU9GZC6BQMHTLWW3KSJ0W7IE5TB","3I02618YA2CC2OON6I79K5M407EPUP","emotion","mismatch","uniform","","","","","","","3667.5","477651.2000000477","481318.7000000477","[""stimuli/BF06_HE.jpg"",""stimuli/WF04_SC.jpg"",""stimuli/AM05_AO.jpg"",""stimuli/BM03_FO.jpg""]","stimuli/BF06_HE.jpg","stimuli/WF04_SC.jpg","stimuli/AM05_AO.jpg","stimuli/BM03_FO.jpg","pos2","stimuli/WF04_SC.jpg","SC","WF04","1","4","8","6","stimuli/stars_8.png","243.5","[""HE"",""SC"",""AO"",""FO""]","[""BF06"",""WF04"",""AM05"",""BM03""]","[2,8,8,2]","[4,6,8,2]","","",""
"show-reward","166","482394","0.0-166.0","p252818","A2KW87ZD2ELYNG","3UUIU9GZC6BQMHTLWW3KSJ0W7IE5TB","3I02618YA2CC2OON6I79K5M407EPUP","emotion","mismatch","uniform","","","","","","","","481819.7999999523","483820.89999997616","","","","","","","","","","","","8","","stimuli/stars_8.png","243.5","","","","","stimuli/WF04_SC.jpg","",""
"explore-choice","167","486386","0.0-167.0","p252818","A2KW87ZD2ELYNG","3UUIU9GZC6BQMHTLWW3KSJ0W7IE5TB","3I02618YA2CC2OON6I79K5M407EPUP","emotion","mismatch","uniform","","","","","","","3490.8000000715256","483821.2999999523","487312.10000002384","[""stimuli/WF04_AO.jpg"",""stimuli/AM05_SC.jpg"",""stimuli/BF06_HE.jpg"",""stimuli/BM03_FO.jpg""]","stimuli/WF04_AO.jpg","stimuli/AM05_SC.jpg","stimuli/BF06_HE.jpg","stimuli/BM03_FO.jpg","pos1","stimuli/WF04_AO.jpg","AO","WF04","0","2.5","5","6","stimuli/stars_5.png","246","[""AO"",""SC"",""HE"",""FO""]","[""WF04"",""AM05"",""BF06"",""BM03""]","[5,9,4,2]","[6,8,4,2]","","",""
"show-reward","168","488388","0.0-168.0","p252818","A2KW87ZD2ELYNG","3UUIU9GZC6BQMHTLWW3KSJ0W7IE5TB","3I02618YA2CC2OON6I79K5M407EPUP","emotion","mismatch","uniform","","","","","","","","487813.39999997616","489814.5","","","","","","","","","","","","5","","stimuli/stars_5.png","246","","","","","stimuli/WF04_AO.jpg","",""
"explore-choice","169","490744","0.0-169.0","p252818","A2KW87ZD2ELYNG","3UUIU9GZC6BQMHTLWW3KSJ0W7IE5TB","3I02618YA2CC2OON6I79K5M407EPUP","emotion","mismatch","uniform","","","","","","","1854.2999999523163","489815","491669.2999999523","[""stimuli/AM05_HE.jpg"",""stimuli/BF06_FO.jpg"",""stimuli/BM03_AO.jpg"",""stimuli/WF04_SC.jpg""]","stimuli/AM05_HE.jpg","stimuli/BF06_FO.jpg","stimuli/BM03_AO.jpg","stimuli/WF04_SC.jpg","pos4","stimuli/WF04_SC.jpg","SC","WF04","3","2","4","6","stimuli/stars_4.png","248","[""HE"",""FO"",""AO"",""SC""]","[""AM05"",""BF06"",""BM03"",""WF04""]","[10,2,3,4]","[8,4,2,6]","","",""
"show-reward","170","492746","0.0-170.0","p252818","A2KW87ZD2ELYNG","3UUIU9GZC6BQMHTLWW3KSJ0W7IE5TB","3I02618YA2CC2OON6I79K5M407EPUP","emotion","mismatch","uniform","","","","","","","","492170.7999999523","494171.89999997616","","","","","","","","","","","","4","","stimuli/stars_4.png","248","","","","","stimuli/WF04_SC.jpg","",""
"explore-choice","171","495388","0.0-171.0","p252818","A2KW87ZD2ELYNG","3UUIU9GZC6BQMHTLWW3KSJ0W7IE5TB","3I02618YA2CC2OON6I79K5M407EPUP","emotion","mismatch","uniform","","","","","","","2141.5","494172.39999997616","496313.89999997616","[""stimuli/BF06_SC.jpg"",""stimuli/WF04_AO.jpg"",""stimuli/AM05_FO.jpg"",""stimuli/BM03_HE.jpg""]","stimuli/BF06_SC.jpg","stimuli/WF04_AO.jpg","stimuli/AM05_FO.jpg","stimuli/BM03_HE.jpg","pos3","stimuli/AM05_FO.jpg","FO","AM05","2","4.5","9","8","stimuli/stars_9.png","252.5","[""SC"",""AO"",""FO"",""HE""]","[""BF06"",""WF04"",""AM05"",""BM03""]","[4,8,9,4]","[4,6,8,2]","","",""
"show-reward","172","497389","0.0-172.0","p252818","A2KW87ZD2ELYNG","3UUIU9GZC6BQMHTLWW3KSJ0W7IE5TB","3I02618YA2CC2OON6I79K5M407EPUP","emotion","mismatch","uniform","","","","","","","","496814.60000002384","498815.2999999523","","","","","","","","","","","","9","","stimuli/stars_9.png","252.5","","","","","stimuli/AM05_FO.jpg","",""
"explore-choice","173","498960","0.0-173.0","p252818","A2KW87ZD2ELYNG","3UUIU9GZC6BQMHTLWW3KSJ0W7IE5TB","3I02618YA2CC2OON6I79K5M407EPUP","emotion","mismatch","uniform","","","","","","","1070.1000000238419","498815.89999997616","499886","[""stimuli/BF06_AO.jpg"",""stimuli/BM03_HE.jpg"",""stimuli/AM05_FO.jpg"",""stimuli/WF04_SC.jpg""]","stimuli/BF06_AO.jpg","stimuli/BM03_HE.jpg","stimuli/AM05_FO.jpg","stimuli/WF04_SC.jpg","pos3","stimuli/AM05_FO.jpg","FO","AM05","2","4","8","8","stimuli/stars_8.png","256.5","[""AO"",""HE"",""FO"",""SC""]","[""BF06"",""BM03"",""AM05"",""WF04""]","[5,4,8,8]","[4,2,8,6]","","",""
"show-reward","174","500962","0.0-174.0","p252818","A2KW87ZD2ELYNG","3UUIU9GZC6BQMHTLWW3KSJ0W7IE5TB","3I02618YA2CC2OON6I79K5M407EPUP","emotion","mismatch","uniform","","","","","","","","500387.10000002384","502388.2000000477","","","","","","","","","","","","8","","stimuli/stars_8.png","256.5","","","","","stimuli/AM05_FO.jpg","",""
"explore-choice","175","504442","0.0-175.0","p252818","A2KW87ZD2ELYNG","3UUIU9GZC6BQMHTLWW3KSJ0W7IE5TB","3I02618YA2CC2OON6I79K5M407EPUP","emotion","mismatch","uniform","","","","","","","2979.7999999523163","502388.7000000477","505368.5","[""stimuli/BM03_FO.jpg"",""stimuli/WF04_HE.jpg"",""stimuli/BF06_AO.jpg"",""stimuli/AM05_SC.jpg""]","stimuli/BM03_FO.jpg","stimuli/WF04_HE.jpg","stimuli/BF06_AO.jpg","stimuli/AM05_SC.jpg","pos2","stimuli/WF04_HE.jpg","HE","WF04","1","4","8","6","stimuli/stars_8.png","260.5","[""FO"",""HE"",""AO"",""SC""]","[""BM03"",""WF04"",""BF06"",""AM05""]","[2,8,2,7]","[2,6,4,8]","","",""
"show-reward","176","506444","0.0-176.0","p252818","A2KW87ZD2ELYNG","3UUIU9GZC6BQMHTLWW3KSJ0W7IE5TB","3I02618YA2CC2OON6I79K5M407EPUP","emotion","mismatch","uniform","","","","","","","","505869.10000002384","507870.2000000477","","","","","","","","","","","","8","","stimuli/stars_8.png","260.5","","","","","stimuli/WF04_HE.jpg","",""
"explore-choice","177","509265","0.0-177.0","p252818","A2KW87ZD2ELYNG","3UUIU9GZC6BQMHTLWW3KSJ0W7IE5TB","3I02618YA2CC2OON6I79K5M407EPUP","emotion","mismatch","uniform","","","","","","","2320","507870.7999999523","510190.7999999523","[""stimuli/AM05_SC.jpg"",""stimuli/BF06_FO.jpg"",""stimuli/WF04_HE.jpg"",""stimuli/BM03_AO.jpg""]","stimuli/AM05_SC.jpg","stimuli/BF06_FO.jpg","stimuli/WF04_HE.jpg","stimuli/BM03_AO.jpg","pos3","stimuli/WF04_HE.jpg","HE","WF04","2","2.5","5","6","stimuli/stars_5.png","263","[""SC"",""FO"",""HE"",""AO""]","[""AM05"",""BF06"",""WF04"",""BM03""]","[9,3,5,1]","[8,4,6,2]","","",""
"show-reward","178","511267","0.0-178.0","p252818","A2KW87ZD2ELYNG","3UUIU9GZC6BQMHTLWW3KSJ0W7IE5TB","3I02618YA2CC2OON6I79K5M407EPUP","emotion","mismatch","uniform","","","","","","","","510692.10000002384","512693.7000000477","","","","","","","","","","","","5","","stimuli/stars_5.png","263","","","","","stimuli/WF04_HE.jpg","",""
"explore-choice","179","515150","0.0-179.0","p252818","A2KW87ZD2ELYNG","3UUIU9GZC6BQMHTLWW3KSJ0W7IE5TB","3I02618YA2CC2OON6I79K5M407EPUP","emotion","mismatch","uniform","","","","","","","3381.1999999284744","512694.2000000477","516075.39999997616","[""stimuli/AM05_FO.jpg"",""stimuli/WF04_HE.jpg"",""stimuli/BF06_SC.jpg"",""stimuli/BM03_AO.jpg""]","stimuli/AM05_FO.jpg","stimuli/WF04_HE.jpg","stimuli/BF06_SC.jpg","stimuli/BM03_AO.jpg","pos1","stimuli/AM05_FO.jpg","FO","AM05","0","4","8","8","stimuli/stars_8.png","267","[""FO"",""HE"",""SC"",""AO""]","[""AM05"",""WF04"",""BF06"",""BM03""]","[8,6,3,3]","[8,6,4,2]","","",""
"show-reward","180","517151","0.0-180.0","p252818","A2KW87ZD2ELYNG","3UUIU9GZC6BQMHTLWW3KSJ0W7IE5TB","3I02618YA2CC2OON6I79K5M407EPUP","emotion","mismatch","uniform","","","","","","","","516576.7999999523","518577.7999999523","","","","","","","","","","","","8","","stimuli/stars_8.png","267","","","","","stimuli/AM05_FO.jpg","",""
"explore-choice","181","519706","0.0-181.0","p252818","A2KW87ZD2ELYNG","3UUIU9GZC6BQMHTLWW3KSJ0W7IE5TB","3I02618YA2CC2OON6I79K5M407EPUP","emotion","mismatch","uniform","","","","","","","2053.600000023842","518578.2999999523","520631.89999997616","[""stimuli/BM03_SC.jpg"",""stimuli/WF04_AO.jpg"",""stimuli/BF06_HE.jpg"",""stimuli/AM05_FO.jpg""]","stimuli/BM03_SC.jpg","stimuli/WF04_AO.jpg","stimuli/BF06_HE.jpg","stimuli/AM05_FO.jpg","pos4","stimuli/AM05_FO.jpg","FO","AM05","3","5","10","8","stimuli/stars_10.png","272","[""SC"",""AO"",""HE"",""FO""]","[""BM03"",""WF04"",""BF06"",""AM05""]","[4,5,4,10]","[2,6,4,8]","","",""
"show-reward","182","521707","0.0-182.0","p252818","A2KW87ZD2ELYNG","3UUIU9GZC6BQMHTLWW3KSJ0W7IE5TB","3I02618YA2CC2OON6I79K5M407EPUP","emotion","mismatch","uniform","","","","","","","","521133.10000002384","523133.7999999523","","","","","","","","","","","","10","","stimuli/stars_10.png","272","","","","","stimuli/AM05_FO.jpg","",""
"explore-choice","183","524043","0.0-183.0","p252818","A2KW87ZD2ELYNG","3UUIU9GZC6BQMHTLWW3KSJ0W7IE5TB","3I02618YA2CC2OON6I79K5M407EPUP","emotion","mismatch","uniform","","","","","","","1833.8999999761581","523134.2000000477","524968.1000000238","[""stimuli/WF04_FO.jpg"",""stimuli/AM05_HE.jpg"",""stimuli/BM03_AO.jpg"",""stimuli/BF06_SC.jpg""]","stimuli/WF04_FO.jpg","stimuli/AM05_HE.jpg","stimuli/BM03_AO.jpg","stimuli/BF06_SC.jpg","pos2","stimuli/AM05_HE.jpg","HE","AM05","1","3.5","7","8","stimuli/stars_7.png","275.5","[""FO"",""HE"",""AO"",""SC""]","[""WF04"",""AM05"",""BM03"",""BF06""]","[4,7,0,4]","[6,8,2,4]","","",""
"show-reward","184","526045","0.0-184.0","p252818","A2KW87ZD2ELYNG","3UUIU9GZC6BQMHTLWW3KSJ0W7IE5TB","3I02618YA2CC2OON6I79K5M407EPUP","emotion","mismatch","uniform","","","","","","","","525469.7999999523","527471.2999999523","","","","","","","","","","","","7","","stimuli/stars_7.png","275.5","","","","","stimuli/AM05_HE.jpg","",""
"explore-choice","185","528070","0.0-185.0","p252818","A2KW87ZD2ELYNG","3UUIU9GZC6BQMHTLWW3KSJ0W7IE5TB","3I02618YA2CC2OON6I79K5M407EPUP","emotion","mismatch","uniform","","","","","","","1523.6000000238419","527471.8999999762","528995.5","[""stimuli/WF04_FO.jpg"",""stimuli/AM05_AO.jpg"",""stimuli/BM03_SC.jpg"",""stimuli/BF06_HE.jpg""]","stimuli/WF04_FO.jpg","stimuli/AM05_AO.jpg","stimuli/BM03_SC.jpg","stimuli/BF06_HE.jpg","pos1","stimuli/WF04_FO.jpg","FO","WF04","0","2","4","6","stimuli/stars_4.png","277.5","[""FO"",""AO"",""SC"",""HE""]","[""WF04"",""AM05"",""BM03"",""BF06""]","[4,7,2,3]","[6,8,2,4]","","",""
"show-reward","186","530073","0.0-186.0","p252818","A2KW87ZD2ELYNG","3UUIU9GZC6BQMHTLWW3KSJ0W7IE5TB","3I02618YA2CC2OON6I79K5M407EPUP","emotion","mismatch","uniform","","","","","","","","529497","531499.1000000238","","","","","","","","","","","","4","","stimuli/stars_4.png","277.5","","","","","stimuli/WF04_FO.jpg","",""
"explore-choice","187","533287","0.0-187.0","p252818","A2KW87ZD2ELYNG","3UUIU9GZC6BQMHTLWW3KSJ0W7IE5TB","3I02618YA2CC2OON6I79K5M407EPUP","emotion","mismatch","uniform","","","","","","","2713","531499.7000000477","534212.7000000477","[""stimuli/BF06_AO.jpg"",""stimuli/BM03_FO.jpg"",""stimuli/AM05_HE.jpg"",""stimuli/WF04_SC.jpg""]","stimuli/BF06_AO.jpg","stimuli/BM03_FO.jpg","stimuli/AM05_HE.jpg","stimuli/WF04_SC.jpg","pos3","stimuli/AM05_HE.jpg","HE","AM05","2","3.5","7","8","stimuli/stars_7.png","281","[""AO"",""FO"",""HE"",""SC""]","[""BF06"",""BM03"",""AM05"",""WF04""]","[4,1,7,5]","[4,2,8,6]","","",""
"show-reward","188","535291","0.0-188.0","p252818","A2KW87ZD2ELYNG","3UUIU9GZC6BQMHTLWW3KSJ0W7IE5TB","3I02618YA2CC2OON6I79K5M407EPUP","emotion","mismatch","uniform","","","","","","","","534714.1000000238","536715.6000000238","","","","","","","","","","","","7","","stimuli/stars_7.png","281","","","","","stimuli/AM05_HE.jpg","",""
"explore-choice","189","538932","0.0-189.0","p252818","A2KW87ZD2ELYNG","3UUIU9GZC6BQMHTLWW3KSJ0W7IE5TB","3I02618YA2CC2OON6I79K5M407EPUP","emotion","mismatch","uniform","","","","","","","3139.7999999523163","536716.2000000477","539856","[""stimuli/AM05_SC.jpg"",""stimuli/WF04_FO.jpg"",""stimuli/BF06_AO.jpg"",""stimuli/BM03_HE.jpg""]","stimuli/AM05_SC.jpg","stimuli/WF04_FO.jpg","stimuli/BF06_AO.jpg","stimuli/BM03_HE.jpg","pos1","stimuli/AM05_SC.jpg","SC","AM05","0","5","10","8","stimuli/stars_10.png","286","[""SC"",""FO"",""AO"",""HE""]","[""AM05"",""WF04"",""BF06"",""BM03""]","[10,8,2,3]","[8,6,4,2]","","",""
"show-reward","190","540933","0.0-190.0","p252818","A2KW87ZD2ELYNG","3UUIU9GZC6BQMHTLWW3KSJ0W7IE5TB","3I02618YA2CC2OON6I79K5M407EPUP","emotion","mismatch","uniform","","","","","","","","540357.1000000238","542358.2000000477","","","","","","","","","","","","10","","stimuli/stars_10.png","286","","","","","stimuli/AM05_SC.jpg","",""
"explore-choice","191","546656","0.0-191.0","p252818","A2KW87ZD2ELYNG","3UUIU9GZC6BQMHTLWW3KSJ0W7IE5TB","3I02618YA2CC2OON6I79K5M407EPUP","emotion","mismatch","uniform","","","","","","","5221.800000071526","542358.7999999523","547580.6000000238","[""stimuli/WF04_AO.jpg"",""stimuli/BF06_FO.jpg"",""stimuli/BM03_HE.jpg"",""stimuli/AM05_SC.jpg""]","stimuli/WF04_AO.jpg","stimuli/BF06_FO.jpg","stimuli/BM03_HE.jpg","stimuli/AM05_SC.jpg","pos2","stimuli/BF06_FO.jpg","FO","BF06","1","1","2","4","stimuli/stars_2.png","287","[""AO"",""FO"",""HE"",""SC""]","[""WF04"",""BF06"",""BM03"",""AM05""]","[4,2,4,9]","[6,4,2,8]","","",""
"show-reward","192","548659","0.0-192.0","p252818","A2KW87ZD2ELYNG","3UUIU9GZC6BQMHTLWW3KSJ0W7IE5TB","3I02618YA2CC2OON6I79K5M407EPUP","emotion","mismatch","uniform","","","","","","","","548082","550083.6000000238","","","","","","","","","","","","2","","stimuli/stars_2.png","287","","","","","stimuli/BF06_FO.jpg","",""
"explore-choice","193","550697","0.0-193.0","p252818","A2KW87ZD2ELYNG","3UUIU9GZC6BQMHTLWW3KSJ0W7IE5TB","3I02618YA2CC2OON6I79K5M407EPUP","emotion","mismatch","uniform","","","","","","","1537","550084.1000000238","551621.1000000238","[""stimuli/AM05_AO.jpg"",""stimuli/BF06_SC.jpg"",""stimuli/WF04_HE.jpg"",""stimuli/BM03_FO.jpg""]","stimuli/AM05_AO.jpg","stimuli/BF06_SC.jpg","stimuli/WF04_HE.jpg","stimuli/BM03_FO.jpg","pos3","stimuli/WF04_HE.jpg","HE","WF04","2","2.5","5","6","stimuli/stars_5.png","289.5","[""AO"",""SC"",""HE"",""FO""]","[""AM05"",""BF06"",""WF04"",""BM03""]","[9,6,5,3]","[8,4,6,2]","","",""
"show-reward","194","552699","0.0-194.0","p252818","A2KW87ZD2ELYNG","3UUIU9GZC6BQMHTLWW3KSJ0W7IE5TB","3I02618YA2CC2OON6I79K5M407EPUP","emotion","mismatch","uniform","","","","","","","","552122.2999999523","554123.3999999762","","","","","","","","","","","","5","","stimuli/stars_5.png","289.5","","","","","stimuli/WF04_HE.jpg","",""
"explore-choice","195","555174","0.0-195.0","p252818","A2KW87ZD2ELYNG","3UUIU9GZC6BQMHTLWW3KSJ0W7IE5TB","3I02618YA2CC2OON6I79K5M407EPUP","emotion","mismatch","uniform","","","","","","","1974.5","554123.8999999762","556098.3999999762","[""stimuli/WF04_SC.jpg"",""stimuli/BF06_HE.jpg"",""stimuli/BM03_AO.jpg"",""stimuli/AM05_FO.jpg""]","stimuli/WF04_SC.jpg","stimuli/BF06_HE.jpg","stimuli/BM03_AO.jpg","stimuli/AM05_FO.jpg","pos4","stimuli/AM05_FO.jpg","FO","AM05","3","3.5","7","8","stimuli/stars_7.png","293","[""SC"",""HE"",""AO"",""FO""]","[""WF04"",""BF06"",""BM03"",""AM05""]","[8,4,3,7]","[6,4,2,8]","","",""
"show-reward","196","557176","0.0-196.0","p252818","A2KW87ZD2ELYNG","3UUIU9GZC6BQMHTLWW3KSJ0W7IE5TB","3I02618YA2CC2OON6I79K5M407EPUP","emotion","mismatch","uniform","","","","","","","","556599.2999999523","558600.8999999762","","","","","","","","","","","","7","","stimuli/stars_7.png","293","","","","","stimuli/AM05_FO.jpg","",""
"explore-choice","197","558771","0.0-197.0","p252818","A2KW87ZD2ELYNG","3UUIU9GZC6BQMHTLWW3KSJ0W7IE5TB","3I02618YA2CC2OON6I79K5M407EPUP","emotion","mismatch","uniform","","","","","","","1093.1999999284744","558601.6000000238","559694.7999999523","[""stimuli/AM05_AO.jpg"",""stimuli/BF06_SC.jpg"",""stimuli/BM03_HE.jpg"",""stimuli/WF04_FO.jpg""]","stimuli/AM05_AO.jpg","stimuli/BF06_SC.jpg","stimuli/BM03_HE.jpg","stimuli/WF04_FO.jpg","pos1","stimuli/AM05_AO.jpg","AO","AM05","0","4.5","9","8","stimuli/stars_9.png","297.5","[""AO"",""SC"",""HE"",""FO""]","[""AM05"",""BF06"",""BM03"",""WF04""]","[9,6,3,6]","[8,4,2,6]","","",""
"show-reward","198","560773","0.0-198.0","p252818","A2KW87ZD2ELYNG","3UUIU9GZC6BQMHTLWW3KSJ0W7IE5TB","3I02618YA2CC2OON6I79K5M407EPUP","emotion","mismatch","uniform","","","","","","","","560196.1000000238","562197.7999999523","","","","","","","","","","","","9","","stimuli/stars_9.png","297.5","","","","","stimuli/AM05_AO.jpg","",""
"instructions","199","568656","0.0-199.0","p252818","A2KW87ZD2ELYNG","3UUIU9GZC6BQMHTLWW3KSJ0W7IE5TB","3I02618YA2CC2OON6I79K5M407EPUP","emotion","mismatch","uniform","","","","","","[{""page_index"":0,""viewing_time"":7881.700000047684}]","7882.300000071526","","","","","","","","","","","","","","","","","","","","","","","",""
"survey-text","200","571396","0.0-200.0-0.0","p252818","A2KW87ZD2ELYNG","3UUIU9GZC6BQMHTLWW3KSJ0W7IE5TB","3I02618YA2CC2OON6I79K5M407EPUP","emotion","mismatch","uniform","","","","","","","2737.3000000715256","","","","","","","","","","","","","","","","","","","","","","","{""age"":""42""}",""
"survey-text","201","574283","0.0-200.0-1.0","p252818","A2KW87ZD2ELYNG","3UUIU9GZC6BQMHTLWW3KSJ0W7IE5TB","3I02618YA2CC2OON6I79K5M407EPUP","emotion","mismatch","uniform","","","","","","","2885.5","","","","","","","","","","","","","","","","","","","","","","","{""gender"":""male""}",""
"survey-text","202","578213","0.0-200.0-2.0","p252818","A2KW87ZD2ELYNG","3UUIU9GZC6BQMHTLWW3KSJ0W7IE5TB","3I02618YA2CC2OON6I79K5M407EPUP","emotion","mismatch","uniform","","","","","","","3928.7000000476837","","","","","","","","","","","","","","","","","","","","","","","{""country"":""US""}",""
"survey-text","203","584440","0.0-200.0-3.0","p252818","A2KW87ZD2ELYNG","3UUIU9GZC6BQMHTLWW3KSJ0W7IE5TB","3I02618YA2CC2OON6I79K5M407EPUP","emotion","mismatch","uniform","","","","","","","6225.299999952316","","","","","","","","","","","","","","","","","","","","","","","{""language"":""English"",""other_languages"":""""}",""
"survey-multi-select","204","586089","0.0-201.0","p252818","A2KW87ZD2ELYNG","3UUIU9GZC6BQMHTLWW3KSJ0W7IE5TB","3I02618YA2CC2OON6I79K5M407EPUP","emotion","mismatch","uniform","","","","","","","1645.3999999761581","","","","","","","","","","","","","","","","","","","","","","","{""race"":[""White""]}","[0]"
"survey-multi-choice","205","587638","0.0-202.0","p252818","A2KW87ZD2ELYNG","3UUIU9GZC6BQMHTLWW3KSJ0W7IE5TB","3I02618YA2CC2OON6I79K5M407EPUP","emotion","mismatch","uniform","","","","","","","1547.2999999523163","","","","","","","","","","","","","","","","","","","","","","","{""education"":""High school""}","[0]"
"survey-text","206","630691","0.0-203.0","p252818","A2KW87ZD2ELYNG","3UUIU9GZC6BQMHTLWW3KSJ0W7IE5TB","3I02618YA2CC2OON6I79K5M407EPUP","emotion","mismatch","uniform","","","","","","","43049.60000002384","","","","","","","","","","","","","","","","","","","","","","","{""patterns"":""the eyes and mouths seemed to point to more points open vs closed at different times."",""strategy"":""eyes and mouth open vs closed seemed to predict points somewhat."",""comments"":""it was kinda fun!""}",""
