"trial_type","trial_index","time_elapsed","internal_node_id","subject","workerId","hitId","assignmentId","structure_condition","match_condition","noise_type","success","timeout","failed_images","failed_audio","failed_video","view_history","rt","start_time","end_time","stimuli","image1","image2","image3","image4","choiceLocation","choiceImage","choiceEmotion","choiceModel","choice_index","reward_score","reward","reward_score_unadjusted","reward_image","score_after_trial","emotions","models","rewards","rewards_unadjusted","stimulus","response","question_order"
"pavlovia","0","23","0.0-0.0","p476979","ANFWGSQ8BQRZ","3WPCIUYH1BELQU8EB2L3QVOOKYBTD4","3Y4W8Q93L1Q3Q6AX6ZQJGX7Y0VKVD6","model","match","uniform","","","","","","","","","","","","","","","","","","","","","","","","","","","","","","",""
"preload","1","17158","0.0-1.0","p476979","ANFWGSQ8BQRZ","3WPCIUYH1BELQU8EB2L3QVOOKYBTD4","3Y4W8Q93L1Q3Q6AX6ZQJGX7Y0VKVD6","model","match","uniform","true","false","[]","[]","[]","","","","","","","","","","","","","","","","","","","","","","","","","",""
"fullscreen","2","21180","0.0-2.0","p476979","ANFWGSQ8BQRZ","3WPCIUYH1BELQU8EB2L3QVOOKYBTD4","3Y4W8Q93L1Q3Q6AX6ZQJGX7Y0VKVD6","model","match","uniform","true","","","","","","","","","","","","","","","","","","","","","","","","","","","","","",""
"instructions","3","28183","0.0-3.0","p476979","ANFWGSQ8BQRZ","3WPCIUYH1BELQU8EB2L3QVOOKYBTD4","3Y4W8Q93L1Q3Q6AX6ZQJGX7Y0VKVD6","model","match","uniform","","","","","","[{""page_index"":0,""viewing_time"":7000}]","7001","","","","","","","","","","","","","","","","","","","","","","","",""
"explore-choice","4","31939","0.0-4.0","p476979","ANFWGSQ8BQRZ","3WPCIUYH1BELQU8EB2L3QVOOKYBTD4","3Y4W8Q93L1Q3Q6AX6ZQJGX7Y0VKVD6","model","match","uniform","","","","","","","3242.7000000476837","31140.199999809265","34382.89999985695","[""stimuli/sheep.jpg"",""stimuli/hammer.jpg"",""stimuli/basketball.jpg"",""stimuli/horse.jpg""]","stimuli/sheep.jpg","stimuli/hammer.jpg","stimuli/basketball.jpg","stimuli/horse.jpg","pos4","stimuli/horse.jpg","","","3","64","64","64","stimuli/stars_8.png","65","","","","","","",""
"explore-choice","5","33727","0.0-5.0","p476979","ANFWGSQ8BQRZ","3WPCIUYH1BELQU8EB2L3QVOOKYBTD4","3Y4W8Q93L1Q3Q6AX6ZQJGX7Y0VKVD6","model","match","uniform","","","","","","","1276.7999999523163","34897","36173.799999952316","[""stimuli/hammer.jpg"",""stimuli/basketball.jpg"",""stimuli/horse.jpg"",""stimuli/sheep.jpg""]","stimuli/hammer.jpg","stimuli/basketball.jpg","stimuli/horse.jpg","stimuli/sheep.jpg","pos1","stimuli/hammer.jpg","","","0","8","8","8","stimuli/stars_2.png","9","","","","","","",""
"instructions","6","60642","0.0-6.0","p476979","ANFWGSQ8BQRZ","3WPCIUYH1BELQU8EB2L3QVOOKYBTD4","3Y4W8Q93L1Q3Q6AX6ZQJGX7Y0VKVD6","model","match","uniform","","","","","","[{""page_index"":0,""viewing_time"":26913.900000095367}]","26914.300000190735","","","","","","","","","","","","","","","","","","","","","","","",""
"explore-choice","7","67687","0.0-7.0","p476979","ANFWGSQ8BQRZ","3WPCIUYH1BELQU8EB2L3QVOOKYBTD4","3Y4W8Q93L1Q3Q6AX6ZQJGX7Y0VKVD6","model","match","uniform","","","","","","","6533.799999952316","63600.299999952316","70134.09999990463","[""stimuli/HF10_FO.jpg"",""stimuli/AF09_HE.jpg"",""stimuli/WM09_HO.jpg"",""stimuli/BM16_SUR.jpg""]","stimuli/HF10_FO.jpg","stimuli/AF09_HE.jpg","stimuli/WM09_HO.jpg","stimuli/BM16_SUR.jpg","pos3","stimuli/WM09_HO.jpg","HO","WM09","2","2","4","2","stimuli/stars_4.png","3","[""FO"",""HE"",""HO"",""SUR""]","[""HF10"",""AF09"",""WM09"",""BM16""]","[6,8,4,7]","[4,8,2,6]","","",""
"show-reward","8","69708","0.0-8.0","p476979","ANFWGSQ8BQRZ","3WPCIUYH1BELQU8EB2L3QVOOKYBTD4","3Y4W8Q93L1Q3Q6AX6ZQJGX7Y0VKVD6","model","match","uniform","","","","","","","","70647.89999985695","72663.09999990463","","","","","","","","","","","","4","","stimuli/stars_4.png","3","","","","","stimuli/WM09_HO.jpg","",""
"explore-choice","9","74865","0.0-9.0","p476979","ANFWGSQ8BQRZ","3WPCIUYH1BELQU8EB2L3QVOOKYBTD4","3Y4W8Q93L1Q3Q6AX6ZQJGX7Y0VKVD6","model","match","uniform","","","","","","","4643.800000190735","72666.19999980927","77310","[""stimuli/BM16_HE.jpg"",""stimuli/HF10_HO.jpg"",""stimuli/WM09_SUR.jpg"",""stimuli/AF09_FO.jpg""]","stimuli/BM16_HE.jpg","stimuli/HF10_HO.jpg","stimuli/WM09_SUR.jpg","stimuli/AF09_FO.jpg","pos4","stimuli/AF09_FO.jpg","FO","AF09","3","3","6","8","stimuli/stars_6.png","6","[""HE"",""HO"",""SUR"",""FO""]","[""BM16"",""HF10"",""WM09"",""AF09""]","[6,2,4,6]","[6,4,2,8]","","",""
"show-reward","10","76888","0.0-10.0","p476979","ANFWGSQ8BQRZ","3WPCIUYH1BELQU8EB2L3QVOOKYBTD4","3Y4W8Q93L1Q3Q6AX6ZQJGX7Y0VKVD6","model","match","uniform","","","","","","","","77822.5","79842.5","","","","","","","","","","","","6","","stimuli/stars_6.png","6","","","","","stimuli/AF09_FO.jpg","",""
"explore-choice","11","80718","0.0-11.0","p476979","ANFWGSQ8BQRZ","3WPCIUYH1BELQU8EB2L3QVOOKYBTD4","3Y4W8Q93L1Q3Q6AX6ZQJGX7Y0VKVD6","model","match","uniform","","","","","","","3321.4000000953674","79844.59999990463","83166","[""stimuli/WM09_SUR.jpg"",""stimuli/HF10_HO.jpg"",""stimuli/AF09_HE.jpg"",""stimuli/BM16_FO.jpg""]","stimuli/WM09_SUR.jpg","stimuli/HF10_HO.jpg","stimuli/AF09_HE.jpg","stimuli/BM16_FO.jpg","pos4","stimuli/BM16_FO.jpg","FO","BM16","3","4","8","6","stimuli/stars_8.png","10","[""SUR"",""HO"",""HE"",""FO""]","[""WM09"",""HF10"",""AF09"",""BM16""]","[2,4,9,8]","[2,4,8,6]","","",""
"show-reward","12","82740","0.0-12.0","p476979","ANFWGSQ8BQRZ","3WPCIUYH1BELQU8EB2L3QVOOKYBTD4","3Y4W8Q93L1Q3Q6AX6ZQJGX7Y0VKVD6","model","match","uniform","","","","","","","","83675.19999980927","85694.79999995232","","","","","","","","","","","","8","","stimuli/stars_8.png","10","","","","","stimuli/BM16_FO.jpg","",""
"explore-choice","13","87664","0.0-13.0","p476979","ANFWGSQ8BQRZ","3WPCIUYH1BELQU8EB2L3QVOOKYBTD4","3Y4W8Q93L1Q3Q6AX6ZQJGX7Y0VKVD6","model","match","uniform","","","","","","","4413.099999904633","85696.79999995232","90109.89999985695","[""stimuli/WM09_SUR.jpg"",""stimuli/HF10_HE.jpg"",""stimuli/BM16_HO.jpg"",""stimuli/AF09_FO.jpg""]","stimuli/WM09_SUR.jpg","stimuli/HF10_HE.jpg","stimuli/BM16_HO.jpg","stimuli/AF09_FO.jpg","pos4","stimuli/AF09_FO.jpg","FO","AF09","3","3.5","7","8","stimuli/stars_7.png","13.5","[""SUR"",""HE"",""HO"",""FO""]","[""WM09"",""HF10"",""BM16"",""AF09""]","[0,6,5,7]","[2,4,6,8]","","",""
"show-reward","14","89670","0.0-14.0","p476979","ANFWGSQ8BQRZ","3WPCIUYH1BELQU8EB2L3QVOOKYBTD4","3Y4W8Q93L1Q3Q6AX6ZQJGX7Y0VKVD6","model","match","uniform","","","","","","","","90620.89999985695","92624.19999980927","","","","","","","","","","","","7","","stimuli/stars_7.png","13.5","","","","","stimuli/AF09_FO.jpg","",""
"explore-choice","15","92257","0.0-15.0","p476979","ANFWGSQ8BQRZ","3WPCIUYH1BELQU8EB2L3QVOOKYBTD4","3Y4W8Q93L1Q3Q6AX6ZQJGX7Y0VKVD6","model","match","uniform","","","","","","","2080.4000000953674","92629.39999985695","94709.79999995232","[""stimuli/BM16_SUR.jpg"",""stimuli/AF09_HO.jpg"",""stimuli/HF10_HE.jpg"",""stimuli/WM09_FO.jpg""]","stimuli/BM16_SUR.jpg","stimuli/AF09_HO.jpg","stimuli/HF10_HE.jpg","stimuli/WM09_FO.jpg","pos2","stimuli/AF09_HO.jpg","HO","AF09","1","4.5","9","8","stimuli/stars_9.png","18","[""SUR"",""HO"",""HE"",""FO""]","[""BM16"",""AF09"",""HF10"",""WM09""]","[6,9,4,0]","[6,8,4,2]","","",""
"show-reward","16","94279","0.0-16.0","p476979","ANFWGSQ8BQRZ","3WPCIUYH1BELQU8EB2L3QVOOKYBTD4","3Y4W8Q93L1Q3Q6AX6ZQJGX7Y0VKVD6","model","match","uniform","","","","","","","","95213.79999995232","97233.59999990463","","","","","","","","","","","","9","","stimuli/stars_9.png","18","","","","","stimuli/AF09_HO.jpg","",""
"explore-choice","17","101309","0.0-17.0","p476979","ANFWGSQ8BQRZ","3WPCIUYH1BELQU8EB2L3QVOOKYBTD4","3Y4W8Q93L1Q3Q6AX6ZQJGX7Y0VKVD6","model","match","uniform","","","","","","","6514.299999952316","97235.59999990463","103749.89999985695","[""stimuli/HF10_FO.jpg"",""stimuli/BM16_HO.jpg"",""stimuli/AF09_SUR.jpg"",""stimuli/WM09_HE.jpg""]","stimuli/HF10_FO.jpg","stimuli/BM16_HO.jpg","stimuli/AF09_SUR.jpg","stimuli/WM09_HE.jpg","pos1","stimuli/HF10_FO.jpg","FO","HF10","0","1.5","3","4","stimuli/stars_3.png","19.5","[""FO"",""HO"",""SUR"",""HE""]","[""HF10"",""BM16"",""AF09"",""WM09""]","[3,8,7,0]","[4,6,8,2]","","",""
"show-reward","18","103330","0.0-18.0","p476979","ANFWGSQ8BQRZ","3WPCIUYH1BELQU8EB2L3QVOOKYBTD4","3Y4W8Q93L1Q3Q6AX6ZQJGX7Y0VKVD6","model","match","uniform","","","","","","","","104266","106284.89999985695","","","","","","","","","","","","3","","stimuli/stars_3.png","19.5","","","","","stimuli/HF10_FO.jpg","",""
"explore-choice","19","106978","0.0-19.0","p476979","ANFWGSQ8BQRZ","3WPCIUYH1BELQU8EB2L3QVOOKYBTD4","3Y4W8Q93L1Q3Q6AX6ZQJGX7Y0VKVD6","model","match","uniform","","","","","","","3142.7000000476837","106287.19999980927","109429.89999985695","[""stimuli/BM16_HE.jpg"",""stimuli/WM09_HO.jpg"",""stimuli/HF10_FO.jpg"",""stimuli/AF09_SUR.jpg""]","stimuli/BM16_HE.jpg","stimuli/WM09_HO.jpg","stimuli/HF10_FO.jpg","stimuli/AF09_SUR.jpg","pos4","stimuli/AF09_SUR.jpg","SUR","AF09","3","4.5","9","8","stimuli/stars_9.png","24","[""HE"",""HO"",""FO"",""SUR""]","[""BM16"",""WM09"",""HF10"",""AF09""]","[4,3,2,9]","[6,2,4,8]","","",""
"show-reward","20","108993","0.0-20.0","p476979","ANFWGSQ8BQRZ","3WPCIUYH1BELQU8EB2L3QVOOKYBTD4","3Y4W8Q93L1Q3Q6AX6ZQJGX7Y0VKVD6","model","match","uniform","","","","","","","","109934.89999985695","111948.59999990463","","","","","","","","","","","","9","","stimuli/stars_9.png","24","","","","","stimuli/AF09_SUR.jpg","",""
"explore-choice","21","111100","0.0-21.0","p476979","ANFWGSQ8BQRZ","3WPCIUYH1BELQU8EB2L3QVOOKYBTD4","3Y4W8Q93L1Q3Q6AX6ZQJGX7Y0VKVD6","model","match","uniform","","","","","","","1591.5","111950.29999995232","113541.79999995232","[""stimuli/WM09_HE.jpg"",""stimuli/BM16_SUR.jpg"",""stimuli/HF10_HO.jpg"",""stimuli/AF09_FO.jpg""]","stimuli/WM09_HE.jpg","stimuli/BM16_SUR.jpg","stimuli/HF10_HO.jpg","stimuli/AF09_FO.jpg","pos4","stimuli/AF09_FO.jpg","FO","AF09","3","4.5","9","8","stimuli/stars_9.png","28.5","[""HE"",""SUR"",""HO"",""FO""]","[""WM09"",""BM16"",""HF10"",""AF09""]","[2,8,2,9]","[2,6,4,8]","","",""
"show-reward","22","113106","0.0-22.0","p476979","ANFWGSQ8BQRZ","3WPCIUYH1BELQU8EB2L3QVOOKYBTD4","3Y4W8Q93L1Q3Q6AX6ZQJGX7Y0VKVD6","model","match","uniform","","","","","","","","114057.19999980927","116061.5","","","","","","","","","","","","9","","stimuli/stars_9.png","28.5","","","","","stimuli/AF09_FO.jpg","",""
"explore-choice","23","115458","0.0-23.0","p476979","ANFWGSQ8BQRZ","3WPCIUYH1BELQU8EB2L3QVOOKYBTD4","3Y4W8Q93L1Q3Q6AX6ZQJGX7Y0VKVD6","model","match","uniform","","","","","","","1838.8999998569489","116063","117901.89999985695","[""stimuli/AF09_HO.jpg"",""stimuli/WM09_HE.jpg"",""stimuli/BM16_FO.jpg"",""stimuli/HF10_SUR.jpg""]","stimuli/AF09_HO.jpg","stimuli/WM09_HE.jpg","stimuli/BM16_FO.jpg","stimuli/HF10_SUR.jpg","pos1","stimuli/AF09_HO.jpg","HO","AF09","0","3","6","8","stimuli/stars_6.png","31.5","[""HO"",""HE"",""FO"",""SUR""]","[""AF09"",""WM09"",""BM16"",""HF10""]","[6,0,8,4]","[8,2,6,4]","","",""
"show-reward","24","117477","0.0-24.0","p476979","ANFWGSQ8BQRZ","3WPCIUYH1BELQU8EB2L3QVOOKYBTD4","3Y4W8Q93L1Q3Q6AX6ZQJGX7Y0VKVD6","model","match","uniform","","","","","","","","118415.29999995232","120432.29999995232","","","","","","","","","","","","6","","stimuli/stars_6.png","31.5","","","","","stimuli/AF09_HO.jpg","",""
"explore-choice","25","119782","0.0-25.0","p476979","ANFWGSQ8BQRZ","3WPCIUYH1BELQU8EB2L3QVOOKYBTD4","3Y4W8Q93L1Q3Q6AX6ZQJGX7Y0VKVD6","model","match","uniform","","","","","","","1787.8999998569489","120434","122221.89999985695","[""stimuli/BM16_HO.jpg"",""stimuli/HF10_HE.jpg"",""stimuli/AF09_SUR.jpg"",""stimuli/WM09_FO.jpg""]","stimuli/BM16_HO.jpg","stimuli/HF10_HE.jpg","stimuli/AF09_SUR.jpg","stimuli/WM09_FO.jpg","pos3","stimuli/AF09_SUR.jpg","SUR","AF09","2","5","10","8","stimuli/stars_10.png","36.5","[""HO"",""HE"",""SUR"",""FO""]","[""BM16"",""HF10"",""AF09"",""WM09""]","[5,2,10,1]","[6,4,8,2]","","",""
"show-reward","26","121810","0.0-26.0","p476979","ANFWGSQ8BQRZ","3WPCIUYH1BELQU8EB2L3QVOOKYBTD4","3Y4W8Q93L1Q3Q6AX6ZQJGX7Y0VKVD6","model","match","uniform","","","","","","","","122739.19999980927","124765.39999985695","","","","","","","","","","","","10","","stimuli/stars_10.png","36.5","","","","","stimuli/AF09_SUR.jpg","",""
"explore-choice","27","124362","0.0-27.0","p476979","ANFWGSQ8BQRZ","3WPCIUYH1BELQU8EB2L3QVOOKYBTD4","3Y4W8Q93L1Q3Q6AX6ZQJGX7Y0VKVD6","model","match","uniform","","","","","","","2039.4000000953674","124766.89999985695","126806.29999995232","[""stimuli/HF10_HO.jpg"",""stimuli/BM16_FO.jpg"",""stimuli/AF09_SUR.jpg"",""stimuli/WM09_HE.jpg""]","stimuli/HF10_HO.jpg","stimuli/BM16_FO.jpg","stimuli/AF09_SUR.jpg","stimuli/WM09_HE.jpg","pos3","stimuli/AF09_SUR.jpg","SUR","AF09","2","5","10","8","stimuli/stars_10.png","41.5","[""HO"",""FO"",""SUR"",""HE""]","[""HF10"",""BM16"",""AF09"",""WM09""]","[2,7,10,0]","[4,6,8,2]","","",""
"show-reward","28","126379","0.0-28.0","p476979","ANFWGSQ8BQRZ","3WPCIUYH1BELQU8EB2L3QVOOKYBTD4","3Y4W8Q93L1Q3Q6AX6ZQJGX7Y0VKVD6","model","match","uniform","","","","","","","","127319.29999995232","129334","","","","","","","","","","","","10","","stimuli/stars_10.png","41.5","","","","","stimuli/AF09_SUR.jpg","",""
"explore-choice","29","129104","0.0-29.0","p476979","ANFWGSQ8BQRZ","3WPCIUYH1BELQU8EB2L3QVOOKYBTD4","3Y4W8Q93L1Q3Q6AX6ZQJGX7Y0VKVD6","model","match","uniform","","","","","","","2214.4000000953674","129335.39999985695","131549.79999995232","[""stimuli/BM16_SUR.jpg"",""stimuli/WM09_HO.jpg"",""stimuli/AF09_FO.jpg"",""stimuli/HF10_HE.jpg""]","stimuli/BM16_SUR.jpg","stimuli/WM09_HO.jpg","stimuli/AF09_FO.jpg","stimuli/HF10_HE.jpg","pos3","stimuli/AF09_FO.jpg","FO","AF09","2","4","8","8","stimuli/stars_8.png","45.5","[""SUR"",""HO"",""FO"",""HE""]","[""BM16"",""WM09"",""AF09"",""HF10""]","[4,0,8,2]","[6,2,8,4]","","",""
"show-reward","30","131110","0.0-30.0","p476979","ANFWGSQ8BQRZ","3WPCIUYH1BELQU8EB2L3QVOOKYBTD4","3Y4W8Q93L1Q3Q6AX6ZQJGX7Y0VKVD6","model","match","uniform","","","","","","","","132061.5","134065.59999990463","","","","","","","","","","","","8","","stimuli/stars_8.png","45.5","","","","","stimuli/AF09_FO.jpg","",""
"explore-choice","31","133293","0.0-31.0","p476979","ANFWGSQ8BQRZ","3WPCIUYH1BELQU8EB2L3QVOOKYBTD4","3Y4W8Q93L1Q3Q6AX6ZQJGX7Y0VKVD6","model","match","uniform","","","","","","","1676.6000001430511","134066.89999985695","135743.5","[""stimuli/AF09_FO.jpg"",""stimuli/WM09_HO.jpg"",""stimuli/BM16_HE.jpg"",""stimuli/HF10_SUR.jpg""]","stimuli/AF09_FO.jpg","stimuli/WM09_HO.jpg","stimuli/BM16_HE.jpg","stimuli/HF10_SUR.jpg","pos4","stimuli/HF10_SUR.jpg","SUR","HF10","3","1","2","4","stimuli/stars_2.png","46.5","[""FO"",""HO"",""HE"",""SUR""]","[""AF09"",""WM09"",""BM16"",""HF10""]","[7,1,6,2]","[8,2,6,4]","","",""
"show-reward","32","135310","0.0-32.0","p476979","ANFWGSQ8BQRZ","3WPCIUYH1BELQU8EB2L3QVOOKYBTD4","3Y4W8Q93L1Q3Q6AX6ZQJGX7Y0VKVD6","model","match","uniform","","","","","","","","136249.5","138264.89999985695","","","","","","","","","","","","2","","stimuli/stars_2.png","46.5","","","","","stimuli/HF10_SUR.jpg","",""
"explore-choice","33","137159","0.0-33.0","p476979","ANFWGSQ8BQRZ","3WPCIUYH1BELQU8EB2L3QVOOKYBTD4","3Y4W8Q93L1Q3Q6AX6ZQJGX7Y0VKVD6","model","match","uniform","","","","","","","1338.9000000953674","138266.89999985695","139605.79999995232","[""stimuli/BM16_FO.jpg"",""stimuli/WM09_HO.jpg"",""stimuli/HF10_HE.jpg"",""stimuli/AF09_SUR.jpg""]","stimuli/BM16_FO.jpg","stimuli/WM09_HO.jpg","stimuli/HF10_HE.jpg","stimuli/AF09_SUR.jpg","pos4","stimuli/AF09_SUR.jpg","SUR","AF09","3","3.5","7","8","stimuli/stars_7.png","50","[""FO"",""HO"",""HE"",""SUR""]","[""BM16"",""WM09"",""HF10"",""AF09""]","[8,2,5,7]","[6,2,4,8]","","",""
"show-reward","34","139164","0.0-34.0","p476979","ANFWGSQ8BQRZ","3WPCIUYH1BELQU8EB2L3QVOOKYBTD4","3Y4W8Q93L1Q3Q6AX6ZQJGX7Y0VKVD6","model","match","uniform","","","","","","","","140116.29999995232","142120","","","","","","","","","","","","7","","stimuli/stars_7.png","50","","","","","stimuli/AF09_SUR.jpg","",""
"explore-choice","35","142388","0.0-35.0","p476979","ANFWGSQ8BQRZ","3WPCIUYH1BELQU8EB2L3QVOOKYBTD4","3Y4W8Q93L1Q3Q6AX6ZQJGX7Y0VKVD6","model","match","uniform","","","","","","","2708.2999999523163","142121.5","144829.79999995232","[""stimuli/BM16_HE.jpg"",""stimuli/WM09_SUR.jpg"",""stimuli/HF10_FO.jpg"",""stimuli/AF09_HO.jpg""]","stimuli/BM16_HE.jpg","stimuli/WM09_SUR.jpg","stimuli/HF10_FO.jpg","stimuli/AF09_HO.jpg","pos2","stimuli/WM09_SUR.jpg","SUR","WM09","1","2","4","2","stimuli/stars_4.png","52","[""HE"",""SUR"",""FO"",""HO""]","[""BM16"",""WM09"",""HF10"",""AF09""]","[7,4,4,6]","[6,2,4,8]","","",""
"show-reward","36","144413","0.0-36.0","p476979","ANFWGSQ8BQRZ","3WPCIUYH1BELQU8EB2L3QVOOKYBTD4","3Y4W8Q93L1Q3Q6AX6ZQJGX7Y0VKVD6","model","match","uniform","","","","","","","","145344.39999985695","147368.29999995232","","","","","","","","","","","","4","","stimuli/stars_4.png","52","","","","","stimuli/WM09_SUR.jpg","",""
"explore-choice","37","148056","0.0-37.0","p476979","ANFWGSQ8BQRZ","3WPCIUYH1BELQU8EB2L3QVOOKYBTD4","3Y4W8Q93L1Q3Q6AX6ZQJGX7Y0VKVD6","model","match","uniform","","","","","","","3132.4000000953674","147370.19999980927","150502.59999990463","[""stimuli/AF09_HE.jpg"",""stimuli/HF10_SUR.jpg"",""stimuli/BM16_FO.jpg"",""stimuli/WM09_HO.jpg""]","stimuli/AF09_HE.jpg","stimuli/HF10_SUR.jpg","stimuli/BM16_FO.jpg","stimuli/WM09_HO.jpg","pos1","stimuli/AF09_HE.jpg","HE","AF09","0","3","6","8","stimuli/stars_6.png","55","[""HE"",""SUR"",""FO"",""HO""]","[""AF09"",""HF10"",""BM16"",""WM09""]","[6,6,7,4]","[8,4,6,2]","","",""
"show-reward","38","150071","0.0-38.0","p476979","ANFWGSQ8BQRZ","3WPCIUYH1BELQU8EB2L3QVOOKYBTD4","3Y4W8Q93L1Q3Q6AX6ZQJGX7Y0VKVD6","model","match","uniform","","","","","","","","151014.09999990463","153026.39999985695","","","","","","","","","","","","6","","stimuli/stars_6.png","55","","","","","stimuli/AF09_HE.jpg","",""
"explore-choice","39","155135","0.0-39.0","p476979","ANFWGSQ8BQRZ","3WPCIUYH1BELQU8EB2L3QVOOKYBTD4","3Y4W8Q93L1Q3Q6AX6ZQJGX7Y0VKVD6","model","match","uniform","","","","","","","4561.699999809265","153028","157589.69999980927","[""stimuli/AF09_FO.jpg"",""stimuli/WM09_HE.jpg"",""stimuli/BM16_HO.jpg"",""stimuli/HF10_SUR.jpg""]","stimuli/AF09_FO.jpg","stimuli/WM09_HE.jpg","stimuli/BM16_HO.jpg","stimuli/HF10_SUR.jpg","pos1","stimuli/AF09_FO.jpg","FO","AF09","0","3.5","7","8","stimuli/stars_7.png","58.5","[""FO"",""HE"",""HO"",""SUR""]","[""AF09"",""WM09"",""BM16"",""HF10""]","[7,0,8,4]","[8,2,6,4]","","",""
"show-reward","40","157155","0.0-40.0","p476979","ANFWGSQ8BQRZ","3WPCIUYH1BELQU8EB2L3QVOOKYBTD4","3Y4W8Q93L1Q3Q6AX6ZQJGX7Y0VKVD6","model","match","uniform","","","","","","","","158092.39999985695","160110.5","","","","","","","","","","","","7","","stimuli/stars_7.png","58.5","","","","","stimuli/AF09_FO.jpg","",""
"explore-choice","41","158704","0.0-41.0","p476979","ANFWGSQ8BQRZ","3WPCIUYH1BELQU8EB2L3QVOOKYBTD4","3Y4W8Q93L1Q3Q6AX6ZQJGX7Y0VKVD6","model","match","uniform","","","","","","","1045.2999999523163","160112.29999995232","161157.59999990463","[""stimuli/BM16_HE.jpg"",""stimuli/HF10_HO.jpg"",""stimuli/WM09_FO.jpg"",""stimuli/AF09_SUR.jpg""]","stimuli/BM16_HE.jpg","stimuli/HF10_HO.jpg","stimuli/WM09_FO.jpg","stimuli/AF09_SUR.jpg","pos4","stimuli/AF09_SUR.jpg","SUR","AF09","3","5","10","8","stimuli/stars_10.png","63.5","[""HE"",""HO"",""FO"",""SUR""]","[""BM16"",""HF10"",""WM09"",""AF09""]","[8,4,1,10]","[6,4,2,8]","","",""
"show-reward","42","160723","0.0-42.0","p476979","ANFWGSQ8BQRZ","3WPCIUYH1BELQU8EB2L3QVOOKYBTD4","3Y4W8Q93L1Q3Q6AX6ZQJGX7Y0VKVD6","model","match","uniform","","","","","","","","161661.29999995232","163678.89999985695","","","","","","","","","","","","10","","stimuli/stars_10.png","63.5","","","","","stimuli/AF09_SUR.jpg","",""
"explore-choice","43","164634","0.0-43.0","p476979","ANFWGSQ8BQRZ","3WPCIUYH1BELQU8EB2L3QVOOKYBTD4","3Y4W8Q93L1Q3Q6AX6ZQJGX7Y0VKVD6","model","match","uniform","","","","","","","3404.9000000953674","163680.69999980927","167085.59999990463","[""stimuli/BM16_HO.jpg"",""stimuli/WM09_FO.jpg"",""stimuli/HF10_SUR.jpg"",""stimuli/AF09_HE.jpg""]","stimuli/BM16_HO.jpg","stimuli/WM09_FO.jpg","stimuli/HF10_SUR.jpg","stimuli/AF09_HE.jpg","pos1","stimuli/BM16_HO.jpg","HO","BM16","0","3.5","7","6","stimuli/stars_7.png","67","[""HO"",""FO"",""SUR"",""HE""]","[""BM16"",""WM09"",""HF10"",""AF09""]","[7,3,3,10]","[6,2,4,8]","","",""
"show-reward","44","166659","0.0-44.0","p476979","ANFWGSQ8BQRZ","3WPCIUYH1BELQU8EB2L3QVOOKYBTD4","3Y4W8Q93L1Q3Q6AX6ZQJGX7Y0VKVD6","model","match","uniform","","","","","","","","167591.5","169614.69999980927","","","","","","","","","","","","7","","stimuli/stars_7.png","67","","","","","stimuli/BM16_HO.jpg","",""
"explore-choice","45","168424","0.0-45.0","p476979","ANFWGSQ8BQRZ","3WPCIUYH1BELQU8EB2L3QVOOKYBTD4","3Y4W8Q93L1Q3Q6AX6ZQJGX7Y0VKVD6","model","match","uniform","","","","","","","1253.3999998569489","169616.29999995232","170869.69999980927","[""stimuli/BM16_HO.jpg"",""stimuli/HF10_FO.jpg"",""stimuli/WM09_SUR.jpg"",""stimuli/AF09_HE.jpg""]","stimuli/BM16_HO.jpg","stimuli/HF10_FO.jpg","stimuli/WM09_SUR.jpg","stimuli/AF09_HE.jpg","pos4","stimuli/AF09_HE.jpg","HE","AF09","3","3.5","7","8","stimuli/stars_7.png","70.5","[""HO"",""FO"",""SUR"",""HE""]","[""BM16"",""HF10"",""WM09"",""AF09""]","[6,2,4,7]","[6,4,2,8]","","",""
"show-reward","46","170446","0.0-46.0","p476979","ANFWGSQ8BQRZ","3WPCIUYH1BELQU8EB2L3QVOOKYBTD4","3Y4W8Q93L1Q3Q6AX6ZQJGX7Y0VKVD6","model","match","uniform","","","","","","","","171381.5","173400.19999980927","","","","","","","","","","","","7","","stimuli/stars_7.png","70.5","","","","","stimuli/AF09_HE.jpg","",""
"explore-choice","47","173119","0.0-47.0","p476979","ANFWGSQ8BQRZ","3WPCIUYH1BELQU8EB2L3QVOOKYBTD4","3Y4W8Q93L1Q3Q6AX6ZQJGX7Y0VKVD6","model","match","uniform","","","","","","","2170","173403.69999980927","175573.69999980927","[""stimuli/WM09_HE.jpg"",""stimuli/HF10_FO.jpg"",""stimuli/BM16_SUR.jpg"",""stimuli/AF09_HO.jpg""]","stimuli/WM09_HE.jpg","stimuli/HF10_FO.jpg","stimuli/BM16_SUR.jpg","stimuli/AF09_HO.jpg","pos3","stimuli/BM16_SUR.jpg","SUR","BM16","2","4","8","6","stimuli/stars_8.png","74.5","[""HE"",""FO"",""SUR"",""HO""]","[""WM09"",""HF10"",""BM16"",""AF09""]","[2,3,8,10]","[2,4,6,8]","","",""
"show-reward","48","175140","0.0-48.0","p476979","ANFWGSQ8BQRZ","3WPCIUYH1BELQU8EB2L3QVOOKYBTD4","3Y4W8Q93L1Q3Q6AX6ZQJGX7Y0VKVD6","model","match","uniform","","","","","","","","176076.59999990463","178095.19999980927","","","","","","","","","","","","8","","stimuli/stars_8.png","74.5","","","","","stimuli/BM16_SUR.jpg","",""
"explore-choice","49","179349","0.0-49.0","p476979","ANFWGSQ8BQRZ","3WPCIUYH1BELQU8EB2L3QVOOKYBTD4","3Y4W8Q93L1Q3Q6AX6ZQJGX7Y0VKVD6","model","match","uniform","","","","","","","3702.0999999046326","178097.09999990463","181799.19999980927","[""stimuli/AF09_HO.jpg"",""stimuli/HF10_HE.jpg"",""stimuli/BM16_FO.jpg"",""stimuli/WM09_SUR.jpg""]","stimuli/AF09_HO.jpg","stimuli/HF10_HE.jpg","stimuli/BM16_FO.jpg","stimuli/WM09_SUR.jpg","pos4","stimuli/WM09_SUR.jpg","SUR","WM09","3","2","4","2","stimuli/stars_4.png","76.5","[""HO"",""HE"",""FO"",""SUR""]","[""AF09"",""HF10"",""BM16"",""WM09""]","[7,3,4,4]","[8,4,6,2]","","",""
"show-reward","50","181369","0.0-50.0","p476979","ANFWGSQ8BQRZ","3WPCIUYH1BELQU8EB2L3QVOOKYBTD4","3Y4W8Q93L1Q3Q6AX6ZQJGX7Y0VKVD6","model","match","uniform","","","","","","","","182306.59999990463","184324.39999985695","","","","","","","","","","","","4","","stimuli/stars_4.png","76.5","","","","","stimuli/WM09_SUR.jpg","",""
"explore-choice","51","183712","0.0-51.0","p476979","ANFWGSQ8BQRZ","3WPCIUYH1BELQU8EB2L3QVOOKYBTD4","3Y4W8Q93L1Q3Q6AX6ZQJGX7Y0VKVD6","model","match","uniform","","","","","","","1840.0999999046326","184326.09999990463","186166.19999980927","[""stimuli/WM09_FO.jpg"",""stimuli/AF09_HE.jpg"",""stimuli/HF10_HO.jpg"",""stimuli/BM16_SUR.jpg""]","stimuli/WM09_FO.jpg","stimuli/AF09_HE.jpg","stimuli/HF10_HO.jpg","stimuli/BM16_SUR.jpg","pos4","stimuli/BM16_SUR.jpg","SUR","BM16","3","3.5","7","6","stimuli/stars_7.png","80","[""FO"",""HE"",""HO"",""SUR""]","[""WM09"",""AF09"",""HF10"",""BM16""]","[4,9,4,7]","[2,8,4,6]","","",""
"show-reward","52","185731","0.0-52.0","p476979","ANFWGSQ8BQRZ","3WPCIUYH1BELQU8EB2L3QVOOKYBTD4","3Y4W8Q93L1Q3Q6AX6ZQJGX7Y0VKVD6","model","match","uniform","","","","","","","","186668.79999995232","188686.5","","","","","","","","","","","","7","","stimuli/stars_7.png","80","","","","","stimuli/BM16_SUR.jpg","",""
"explore-choice","53","188569","0.0-53.0","p476979","ANFWGSQ8BQRZ","3WPCIUYH1BELQU8EB2L3QVOOKYBTD4","3Y4W8Q93L1Q3Q6AX6ZQJGX7Y0VKVD6","model","match","uniform","","","","","","","2332.9000000953674","188688.69999980927","191021.59999990463","[""stimuli/HF10_SUR.jpg"",""stimuli/WM09_FO.jpg"",""stimuli/BM16_HE.jpg"",""stimuli/AF09_HO.jpg""]","stimuli/HF10_SUR.jpg","stimuli/WM09_FO.jpg","stimuli/BM16_HE.jpg","stimuli/AF09_HO.jpg","pos4","stimuli/AF09_HO.jpg","HO","AF09","3","5","10","8","stimuli/stars_10.png","85","[""SUR"",""FO"",""HE"",""HO""]","[""HF10"",""WM09"",""BM16"",""AF09""]","[5,2,6,10]","[4,2,6,8]","","",""
"show-reward","54","190575","0.0-54.0","p476979","ANFWGSQ8BQRZ","3WPCIUYH1BELQU8EB2L3QVOOKYBTD4","3Y4W8Q93L1Q3Q6AX6ZQJGX7Y0VKVD6","model","match","uniform","","","","","","","","191526.29999995232","193530.29999995232","","","","","","","","","","","","10","","stimuli/stars_10.png","85","","","","","stimuli/AF09_HO.jpg","",""
"explore-choice","55","192151","0.0-55.0","p476979","ANFWGSQ8BQRZ","3WPCIUYH1BELQU8EB2L3QVOOKYBTD4","3Y4W8Q93L1Q3Q6AX6ZQJGX7Y0VKVD6","model","match","uniform","","","","","","","1074","193531.69999980927","194605.69999980927","[""stimuli/HF10_FO.jpg"",""stimuli/WM09_HO.jpg"",""stimuli/BM16_HE.jpg"",""stimuli/AF09_SUR.jpg""]","stimuli/HF10_FO.jpg","stimuli/WM09_HO.jpg","stimuli/BM16_HE.jpg","stimuli/AF09_SUR.jpg","pos4","stimuli/AF09_SUR.jpg","SUR","AF09","3","4.5","9","8","stimuli/stars_9.png","89.5","[""FO"",""HO"",""HE"",""SUR""]","[""HF10"",""WM09"",""BM16"",""AF09""]","[2,3,4,9]","[4,2,6,8]","","",""
"show-reward","56","194168","0.0-56.0","p476979","ANFWGSQ8BQRZ","3WPCIUYH1BELQU8EB2L3QVOOKYBTD4","3Y4W8Q93L1Q3Q6AX6ZQJGX7Y0VKVD6","model","match","uniform","","","","","","","","195108.19999980927","197123.29999995232","","","","","","","","","","","","9","","stimuli/stars_9.png","89.5","","","","","stimuli/AF09_SUR.jpg","",""
"explore-choice","57","197827","0.0-57.0","p476979","ANFWGSQ8BQRZ","3WPCIUYH1BELQU8EB2L3QVOOKYBTD4","3Y4W8Q93L1Q3Q6AX6ZQJGX7Y0VKVD6","model","match","uniform","","","","","","","3145.4000000953674","197124.59999990463","200270","[""stimuli/WM09_HO.jpg"",""stimuli/AF09_FO.jpg"",""stimuli/HF10_SUR.jpg"",""stimuli/BM16_HE.jpg""]","stimuli/WM09_HO.jpg","stimuli/AF09_FO.jpg","stimuli/HF10_SUR.jpg","stimuli/BM16_HE.jpg","pos4","stimuli/BM16_HE.jpg","HE","BM16","3","3","6","6","stimuli/stars_6.png","92.5","[""HO"",""FO"",""SUR"",""HE""]","[""WM09"",""AF09"",""HF10"",""BM16""]","[1,7,2,6]","[2,8,4,6]","","",""
"show-reward","58","199846","0.0-58.0","p476979","ANFWGSQ8BQRZ","3WPCIUYH1BELQU8EB2L3QVOOKYBTD4","3Y4W8Q93L1Q3Q6AX6ZQJGX7Y0VKVD6","model","match","uniform","","","","","","","","200784.69999980927","202801.79999995232","","","","","","","","","","","","6","","stimuli/stars_6.png","92.5","","","","","stimuli/BM16_HE.jpg","",""
"explore-choice","59","201899","0.0-59.0","p476979","ANFWGSQ8BQRZ","3WPCIUYH1BELQU8EB2L3QVOOKYBTD4","3Y4W8Q93L1Q3Q6AX6ZQJGX7Y0VKVD6","model","match","uniform","","","","","","","1538.7999999523163","202803.29999995232","204342.09999990463","[""stimuli/WM09_FO.jpg"",""stimuli/HF10_SUR.jpg"",""stimuli/BM16_HE.jpg"",""stimuli/AF09_HO.jpg""]","stimuli/WM09_FO.jpg","stimuli/HF10_SUR.jpg","stimuli/BM16_HE.jpg","stimuli/AF09_HO.jpg","pos4","stimuli/AF09_HO.jpg","HO","AF09","3","5","10","8","stimuli/stars_10.png","97.5","[""FO"",""SUR"",""HE"",""HO""]","[""WM09"",""HF10"",""BM16"",""AF09""]","[2,5,6,10]","[2,4,6,8]","","",""
"show-reward","60","203917","0.0-60.0","p476979","ANFWGSQ8BQRZ","3WPCIUYH1BELQU8EB2L3QVOOKYBTD4","3Y4W8Q93L1Q3Q6AX6ZQJGX7Y0VKVD6","model","match","uniform","","","","","","","","204856.39999985695","206873.09999990463","","","","","","","","","","","","10","","stimuli/stars_10.png","97.5","","","","","stimuli/AF09_HO.jpg","",""
"explore-choice","61","205902","0.0-61.0","p476979","ANFWGSQ8BQRZ","3WPCIUYH1BELQU8EB2L3QVOOKYBTD4","3Y4W8Q93L1Q3Q6AX6ZQJGX7Y0VKVD6","model","match","uniform","","","","","","","1482.6000001430511","206874.69999980927","208357.29999995232","[""stimuli/WM09_SUR.jpg"",""stimuli/AF09_HE.jpg"",""stimuli/BM16_FO.jpg"",""stimuli/HF10_HO.jpg""]","stimuli/WM09_SUR.jpg","stimuli/AF09_HE.jpg","stimuli/BM16_FO.jpg","stimuli/HF10_HO.jpg","pos2","stimuli/AF09_HE.jpg","HE","AF09","1","4.5","9","8","stimuli/stars_9.png","102","[""SUR"",""HE"",""FO"",""HO""]","[""WM09"",""AF09"",""BM16"",""HF10""]","[2,9,8,4]","[2,8,6,4]","","",""
"show-reward","62","207909","0.0-62.0","p476979","ANFWGSQ8BQRZ","3WPCIUYH1BELQU8EB2L3QVOOKYBTD4","3Y4W8Q93L1Q3Q6AX6ZQJGX7Y0VKVD6","model","match","uniform","","","","","","","","208859.89999985695","210864.59999990463","","","","","","","","","","","","9","","stimuli/stars_9.png","102","","","","","stimuli/AF09_HE.jpg","",""
"explore-choice","63","209782","0.0-63.0","p476979","ANFWGSQ8BQRZ","3WPCIUYH1BELQU8EB2L3QVOOKYBTD4","3Y4W8Q93L1Q3Q6AX6ZQJGX7Y0VKVD6","model","match","uniform","","","","","","","1371.0999999046326","210866.5","212237.59999990463","[""stimuli/WM09_SUR.jpg"",""stimuli/AF09_HO.jpg"",""stimuli/BM16_HE.jpg"",""stimuli/HF10_FO.jpg""]","stimuli/WM09_SUR.jpg","stimuli/AF09_HO.jpg","stimuli/BM16_HE.jpg","stimuli/HF10_FO.jpg","pos2","stimuli/AF09_HO.jpg","HO","AF09","1","3","6","8","stimuli/stars_6.png","105","[""SUR"",""HO"",""HE"",""FO""]","[""WM09"",""AF09"",""BM16"",""HF10""]","[4,6,7,4]","[2,8,6,4]","","",""
"show-reward","64","211798","0.0-64.0","p476979","ANFWGSQ8BQRZ","3WPCIUYH1BELQU8EB2L3QVOOKYBTD4","3Y4W8Q93L1Q3Q6AX6ZQJGX7Y0VKVD6","model","match","uniform","","","","","","","","212738.69999980927","214753.29999995232","","","","","","","","","","","","6","","stimuli/stars_6.png","105","","","","","stimuli/AF09_HO.jpg","",""
"explore-choice","65","215104","0.0-65.0","p476979","ANFWGSQ8BQRZ","3WPCIUYH1BELQU8EB2L3QVOOKYBTD4","3Y4W8Q93L1Q3Q6AX6ZQJGX7Y0VKVD6","model","match","uniform","","","","","","","2793.7000000476837","214755.79999995232","217549.5","[""stimuli/WM09_HO.jpg"",""stimuli/HF10_SUR.jpg"",""stimuli/BM16_FO.jpg"",""stimuli/AF09_HE.jpg""]","stimuli/WM09_HO.jpg","stimuli/HF10_SUR.jpg","stimuli/BM16_FO.jpg","stimuli/AF09_HE.jpg","pos3","stimuli/BM16_FO.jpg","FO","BM16","2","3.5","7","6","stimuli/stars_7.png","108.5","[""HO"",""SUR"",""FO"",""HE""]","[""WM09"",""HF10"",""BM16"",""AF09""]","[4,6,7,6]","[2,4,6,8]","","",""
"show-reward","66","217123","0.0-66.0","p476979","ANFWGSQ8BQRZ","3WPCIUYH1BELQU8EB2L3QVOOKYBTD4","3Y4W8Q93L1Q3Q6AX6ZQJGX7Y0VKVD6","model","match","uniform","","","","","","","","218061.69999980927","220079.09999990463","","","","","","","","","","","","7","","stimuli/stars_7.png","108.5","","","","","stimuli/BM16_FO.jpg","",""
"explore-choice","67","218965","0.0-67.0","p476979","ANFWGSQ8BQRZ","3WPCIUYH1BELQU8EB2L3QVOOKYBTD4","3Y4W8Q93L1Q3Q6AX6ZQJGX7Y0VKVD6","model","match","uniform","","","","","","","1324.7999999523163","220080.79999995232","221405.59999990463","[""stimuli/WM09_HO.jpg"",""stimuli/AF09_FO.jpg"",""stimuli/BM16_SUR.jpg"",""stimuli/HF10_HE.jpg""]","stimuli/WM09_HO.jpg","stimuli/AF09_FO.jpg","stimuli/BM16_SUR.jpg","stimuli/HF10_HE.jpg","pos2","stimuli/AF09_FO.jpg","FO","AF09","1","4","8","8","stimuli/stars_8.png","112.5","[""HO"",""FO"",""SUR"",""HE""]","[""WM09"",""AF09"",""BM16"",""HF10""]","[0,8,4,2]","[2,8,6,4]","","",""
"show-reward","68","220985","0.0-68.0","p476979","ANFWGSQ8BQRZ","3WPCIUYH1BELQU8EB2L3QVOOKYBTD4","3Y4W8Q93L1Q3Q6AX6ZQJGX7Y0VKVD6","model","match","uniform","","","","","","","","221922.59999990463","223940.89999985695","","","","","","","","","","","","8","","stimuli/stars_8.png","112.5","","","","","stimuli/AF09_FO.jpg","",""
"explore-choice","69","223876","0.0-69.0","p476979","ANFWGSQ8BQRZ","3WPCIUYH1BELQU8EB2L3QVOOKYBTD4","3Y4W8Q93L1Q3Q6AX6ZQJGX7Y0VKVD6","model","match","uniform","","","","","","","2367","223942.69999980927","226309.69999980927","[""stimuli/HF10_HO.jpg"",""stimuli/WM09_FO.jpg"",""stimuli/AF09_SUR.jpg"",""stimuli/BM16_HE.jpg""]","stimuli/HF10_HO.jpg","stimuli/WM09_FO.jpg","stimuli/AF09_SUR.jpg","stimuli/BM16_HE.jpg","pos3","stimuli/AF09_SUR.jpg","SUR","AF09","2","5","10","8","stimuli/stars_10.png","117.5","[""HO"",""FO"",""SUR"",""HE""]","[""HF10"",""WM09"",""AF09"",""BM16""]","[4,1,10,8]","[4,2,8,6]","","",""
"show-reward","70","225894","0.0-70.0","p476979","ANFWGSQ8BQRZ","3WPCIUYH1BELQU8EB2L3QVOOKYBTD4","3Y4W8Q93L1Q3Q6AX6ZQJGX7Y0VKVD6","model","match","uniform","","","","","","","","226833.69999980927","228849.59999990463","","","","","","","","","","","","10","","stimuli/stars_10.png","117.5","","","","","stimuli/AF09_SUR.jpg","",""
"explore-choice","71","227599","0.0-71.0","p476979","ANFWGSQ8BQRZ","3WPCIUYH1BELQU8EB2L3QVOOKYBTD4","3Y4W8Q93L1Q3Q6AX6ZQJGX7Y0VKVD6","model","match","uniform","","","","","","","1202.5","228851.19999980927","230053.69999980927","[""stimuli/AF09_SUR.jpg"",""stimuli/HF10_HO.jpg"",""stimuli/BM16_FO.jpg"",""stimuli/WM09_HE.jpg""]","stimuli/AF09_SUR.jpg","stimuli/HF10_HO.jpg","stimuli/BM16_FO.jpg","stimuli/WM09_HE.jpg","pos1","stimuli/AF09_SUR.jpg","SUR","AF09","0","5","10","8","stimuli/stars_10.png","122.5","[""SUR"",""HO"",""FO"",""HE""]","[""AF09"",""HF10"",""BM16"",""WM09""]","[10,2,7,0]","[8,4,6,2]","","",""
"show-reward","72","229604","0.0-72.0","p476979","ANFWGSQ8BQRZ","3WPCIUYH1BELQU8EB2L3QVOOKYBTD4","3Y4W8Q93L1Q3Q6AX6ZQJGX7Y0VKVD6","model","match","uniform","","","","","","","","230555.59999990463","232559.5","","","","","","","","","","","","10","","stimuli/stars_10.png","122.5","","","","","stimuli/AF09_SUR.jpg","",""
"explore-choice","73","232125","0.0-73.0","p476979","ANFWGSQ8BQRZ","3WPCIUYH1BELQU8EB2L3QVOOKYBTD4","3Y4W8Q93L1Q3Q6AX6ZQJGX7Y0VKVD6","model","match","uniform","","","","","","","2004.5","232561.09999990463","234565.59999990463","[""stimuli/AF09_HE.jpg"",""stimuli/HF10_FO.jpg"",""stimuli/WM09_HO.jpg"",""stimuli/BM16_SUR.jpg""]","stimuli/AF09_HE.jpg","stimuli/HF10_FO.jpg","stimuli/WM09_HO.jpg","stimuli/BM16_SUR.jpg","pos1","stimuli/AF09_HE.jpg","HE","AF09","0","4","8","8","stimuli/stars_8.png","126.5","[""HE"",""FO"",""HO"",""SUR""]","[""AF09"",""HF10"",""WM09"",""BM16""]","[8,6,4,7]","[8,4,2,6]","","",""
"show-reward","74","234144","0.0-74.0","p476979","ANFWGSQ8BQRZ","3WPCIUYH1BELQU8EB2L3QVOOKYBTD4","3Y4W8Q93L1Q3Q6AX6ZQJGX7Y0VKVD6","model","match","uniform","","","","","","","","235082.19999980927","237099.69999980927","","","","","","","","","","","","8","","stimuli/stars_8.png","126.5","","","","","stimuli/AF09_HE.jpg","",""
"explore-choice","75","236047","0.0-75.0","p476979","ANFWGSQ8BQRZ","3WPCIUYH1BELQU8EB2L3QVOOKYBTD4","3Y4W8Q93L1Q3Q6AX6ZQJGX7Y0VKVD6","model","match","uniform","","","","","","","1392.2999999523163","237101.09999990463","238493.39999985695","[""stimuli/BM16_HO.jpg"",""stimuli/WM09_SUR.jpg"",""stimuli/AF09_HE.jpg"",""stimuli/HF10_FO.jpg""]","stimuli/BM16_HO.jpg","stimuli/WM09_SUR.jpg","stimuli/AF09_HE.jpg","stimuli/HF10_FO.jpg","pos3","stimuli/AF09_HE.jpg","HE","AF09","2","3.5","7","8","stimuli/stars_7.png","130","[""HO"",""SUR"",""HE"",""FO""]","[""BM16"",""WM09"",""AF09"",""HF10""]","[6,4,7,2]","[6,2,8,4]","","",""
"show-reward","76","238067","0.0-76.0","p476979","ANFWGSQ8BQRZ","3WPCIUYH1BELQU8EB2L3QVOOKYBTD4","3Y4W8Q93L1Q3Q6AX6ZQJGX7Y0VKVD6","model","match","uniform","","","","","","","","239004.79999995232","241022.89999985695","","","","","","","","","","","","7","","stimuli/stars_7.png","130","","","","","stimuli/AF09_HE.jpg","",""
"explore-choice","77","241861","0.0-77.0","p476979","ANFWGSQ8BQRZ","3WPCIUYH1BELQU8EB2L3QVOOKYBTD4","3Y4W8Q93L1Q3Q6AX6ZQJGX7Y0VKVD6","model","match","uniform","","","","","","","3284.4000000953674","241025.09999990463","244309.5","[""stimuli/AF09_FO.jpg"",""stimuli/HF10_HO.jpg"",""stimuli/BM16_SUR.jpg"",""stimuli/WM09_HE.jpg""]","stimuli/AF09_FO.jpg","stimuli/HF10_HO.jpg","stimuli/BM16_SUR.jpg","stimuli/WM09_HE.jpg","pos3","stimuli/BM16_SUR.jpg","SUR","BM16","2","4","8","6","stimuli/stars_8.png","134","[""FO"",""HO"",""SUR"",""HE""]","[""AF09"",""HF10"",""BM16"",""WM09""]","[9,2,8,2]","[8,4,6,2]","","",""
"show-reward","78","243882","0.0-78.0","p476979","ANFWGSQ8BQRZ","3WPCIUYH1BELQU8EB2L3QVOOKYBTD4","3Y4W8Q93L1Q3Q6AX6ZQJGX7Y0VKVD6","model","match","uniform","","","","","","","","244818.19999980927","246837.39999985695","","","","","","","","","","","","8","","stimuli/stars_8.png","134","","","","","stimuli/BM16_SUR.jpg","",""
"explore-choice","79","245540","0.0-79.0","p476979","ANFWGSQ8BQRZ","3WPCIUYH1BELQU8EB2L3QVOOKYBTD4","3Y4W8Q93L1Q3Q6AX6ZQJGX7Y0VKVD6","model","match","uniform","","","","","","","1142.8999998569489","246839","247981.89999985695","[""stimuli/AF09_HO.jpg"",""stimuli/WM09_SUR.jpg"",""stimuli/BM16_FO.jpg"",""stimuli/HF10_HE.jpg""]","stimuli/AF09_HO.jpg","stimuli/WM09_SUR.jpg","stimuli/BM16_FO.jpg","stimuli/HF10_HE.jpg","pos1","stimuli/AF09_HO.jpg","HO","AF09","0","3.5","7","8","stimuli/stars_7.png","137.5","[""HO"",""SUR"",""FO"",""HE""]","[""AF09"",""WM09"",""BM16"",""HF10""]","[7,4,4,3]","[8,2,6,4]","","",""
"show-reward","80","247561","0.0-80.0","p476979","ANFWGSQ8BQRZ","3WPCIUYH1BELQU8EB2L3QVOOKYBTD4","3Y4W8Q93L1Q3Q6AX6ZQJGX7Y0VKVD6","model","match","uniform","","","","","","","","248497.29999995232","250516.19999980927","","","","","","","","","","","","7","","stimuli/stars_7.png","137.5","","","","","stimuli/AF09_HO.jpg","",""
"explore-choice","81","250584","0.0-81.0","p476979","ANFWGSQ8BQRZ","3WPCIUYH1BELQU8EB2L3QVOOKYBTD4","3Y4W8Q93L1Q3Q6AX6ZQJGX7Y0VKVD6","model","match","uniform","","","","","","","2511.5","250518.09999990463","253029.59999990463","[""stimuli/BM16_HE.jpg"",""stimuli/WM09_SUR.jpg"",""stimuli/HF10_HO.jpg"",""stimuli/AF09_FO.jpg""]","stimuli/BM16_HE.jpg","stimuli/WM09_SUR.jpg","stimuli/HF10_HO.jpg","stimuli/AF09_FO.jpg","pos4","stimuli/AF09_FO.jpg","FO","AF09","3","3","6","8","stimuli/stars_6.png","140.5","[""HE"",""SUR"",""HO"",""FO""]","[""BM16"",""WM09"",""HF10"",""AF09""]","[6,4,2,6]","[6,2,4,8]","","",""
"show-reward","82","252604","0.0-82.0","p476979","ANFWGSQ8BQRZ","3WPCIUYH1BELQU8EB2L3QVOOKYBTD4","3Y4W8Q93L1Q3Q6AX6ZQJGX7Y0VKVD6","model","match","uniform","","","","","","","","253540.59999990463","255558.89999985695","","","","","","","","","","","","6","","stimuli/stars_6.png","140.5","","","","","stimuli/AF09_FO.jpg","",""
"explore-choice","83","255044","0.0-83.0","p476979","ANFWGSQ8BQRZ","3WPCIUYH1BELQU8EB2L3QVOOKYBTD4","3Y4W8Q93L1Q3Q6AX6ZQJGX7Y0VKVD6","model","match","uniform","","","","","","","1916.5","255560.79999995232","257477.29999995232","[""stimuli/WM09_FO.jpg"",""stimuli/HF10_HE.jpg"",""stimuli/BM16_SUR.jpg"",""stimuli/AF09_HO.jpg""]","stimuli/WM09_FO.jpg","stimuli/HF10_HE.jpg","stimuli/BM16_SUR.jpg","stimuli/AF09_HO.jpg","pos4","stimuli/AF09_HO.jpg","HO","AF09","3","4.5","9","8","stimuli/stars_9.png","145","[""FO"",""HE"",""SUR"",""HO""]","[""WM09"",""HF10"",""BM16"",""AF09""]","[0,4,6,9]","[2,4,6,8]","","",""
"show-reward","84","257063","0.0-84.0","p476979","ANFWGSQ8BQRZ","3WPCIUYH1BELQU8EB2L3QVOOKYBTD4","3Y4W8Q93L1Q3Q6AX6ZQJGX7Y0VKVD6","model","match","uniform","","","","","","","","258000.5","260017.79999995232","","","","","","","","","","","","9","","stimuli/stars_9.png","145","","","","","stimuli/AF09_HO.jpg","",""
"explore-choice","85","261132","0.0-85.0","p476979","ANFWGSQ8BQRZ","3WPCIUYH1BELQU8EB2L3QVOOKYBTD4","3Y4W8Q93L1Q3Q6AX6ZQJGX7Y0VKVD6","model","match","uniform","","","","","","","3562","260019.59999990463","263581.59999990463","[""stimuli/WM09_FO.jpg"",""stimuli/AF09_HE.jpg"",""stimuli/BM16_HO.jpg"",""stimuli/HF10_SUR.jpg""]","stimuli/WM09_FO.jpg","stimuli/AF09_HE.jpg","stimuli/BM16_HO.jpg","stimuli/HF10_SUR.jpg","pos4","stimuli/HF10_SUR.jpg","SUR","HF10","3","1.5","3","4","stimuli/stars_3.png","146.5","[""FO"",""HE"",""HO"",""SUR""]","[""WM09"",""AF09"",""BM16"",""HF10""]","[3,10,7,3]","[2,8,6,4]","","",""
"show-reward","86","263157","0.0-86.0","p476979","ANFWGSQ8BQRZ","3WPCIUYH1BELQU8EB2L3QVOOKYBTD4","3Y4W8Q93L1Q3Q6AX6ZQJGX7Y0VKVD6","model","match","uniform","","","","","","","","264089.59999990463","266112.59999990463","","","","","","","","","","","","3","","stimuli/stars_3.png","146.5","","","","","stimuli/HF10_SUR.jpg","",""
"explore-choice","87","266326","0.0-87.0","p476979","ANFWGSQ8BQRZ","3WPCIUYH1BELQU8EB2L3QVOOKYBTD4","3Y4W8Q93L1Q3Q6AX6ZQJGX7Y0VKVD6","model","match","uniform","","","","","","","2651.0999999046326","266114.5","268765.59999990463","[""stimuli/HF10_HE.jpg"",""stimuli/AF09_FO.jpg"",""stimuli/BM16_HO.jpg"",""stimuli/WM09_SUR.jpg""]","stimuli/HF10_HE.jpg","stimuli/AF09_FO.jpg","stimuli/BM16_HO.jpg","stimuli/WM09_SUR.jpg","pos3","stimuli/BM16_HO.jpg","HO","BM16","2","2.5","5","6","stimuli/stars_5.png","149","[""HE"",""FO"",""HO"",""SUR""]","[""HF10"",""AF09"",""BM16"",""WM09""]","[6,7,5,0]","[4,8,6,2]","","",""
"show-reward","88","268344","0.0-88.0","p476979","ANFWGSQ8BQRZ","3WPCIUYH1BELQU8EB2L3QVOOKYBTD4","3Y4W8Q93L1Q3Q6AX6ZQJGX7Y0VKVD6","model","match","uniform","","","","","","","","269283","271299.59999990463","","","","","","","","","","","","5","","stimuli/stars_5.png","149","","","","","stimuli/BM16_HO.jpg","",""
"explore-choice","89","270408","0.0-89.0","p476979","ANFWGSQ8BQRZ","3WPCIUYH1BELQU8EB2L3QVOOKYBTD4","3Y4W8Q93L1Q3Q6AX6ZQJGX7Y0VKVD6","model","match","uniform","","","","","","","1559.7000000476837","271301.69999980927","272861.39999985695","[""stimuli/HF10_SUR.jpg"",""stimuli/BM16_FO.jpg"",""stimuli/AF09_HO.jpg"",""stimuli/WM09_HE.jpg""]","stimuli/HF10_SUR.jpg","stimuli/BM16_FO.jpg","stimuli/AF09_HO.jpg","stimuli/WM09_HE.jpg","pos2","stimuli/BM16_FO.jpg","FO","BM16","1","4","8","6","stimuli/stars_8.png","153","[""SUR"",""FO"",""HO"",""HE""]","[""HF10"",""BM16"",""AF09"",""WM09""]","[4,8,6,0]","[4,6,8,2]","","",""
"show-reward","90","272422","0.0-90.0","p476979","ANFWGSQ8BQRZ","3WPCIUYH1BELQU8EB2L3QVOOKYBTD4","3Y4W8Q93L1Q3Q6AX6ZQJGX7Y0VKVD6","model","match","uniform","","","","","","","","273365.19999980927","275377.7999999523","","","","","","","","","","","","8","","stimuli/stars_8.png","153","","","","","stimuli/BM16_FO.jpg","",""
"explore-choice","91","274058","0.0-91.0","p476979","ANFWGSQ8BQRZ","3WPCIUYH1BELQU8EB2L3QVOOKYBTD4","3Y4W8Q93L1Q3Q6AX6ZQJGX7Y0VKVD6","model","match","uniform","","","","","","","1122.2000000476837","275379.19999980927","276501.39999985695","[""stimuli/BM16_FO.jpg"",""stimuli/WM09_HO.jpg"",""stimuli/AF09_SUR.jpg"",""stimuli/HF10_HE.jpg""]","stimuli/BM16_FO.jpg","stimuli/WM09_HO.jpg","stimuli/AF09_SUR.jpg","stimuli/HF10_HE.jpg","pos3","stimuli/AF09_SUR.jpg","SUR","AF09","2","3.5","7","8","stimuli/stars_7.png","156.5","[""FO"",""HO"",""SUR"",""HE""]","[""BM16"",""WM09"",""AF09"",""HF10""]","[8,2,7,5]","[6,2,8,4]","","",""
"show-reward","92","276064","0.0-92.0","p476979","ANFWGSQ8BQRZ","3WPCIUYH1BELQU8EB2L3QVOOKYBTD4","3Y4W8Q93L1Q3Q6AX6ZQJGX7Y0VKVD6","model","match","uniform","","","","","","","","277014.89999985695","279019.59999990463","","","","","","","","","","","","7","","stimuli/stars_7.png","156.5","","","","","stimuli/AF09_SUR.jpg","",""
"explore-choice","93","279095","0.0-93.0","p476979","ANFWGSQ8BQRZ","3WPCIUYH1BELQU8EB2L3QVOOKYBTD4","3Y4W8Q93L1Q3Q6AX6ZQJGX7Y0VKVD6","model","match","uniform","","","","","","","2528.399999856949","279021.2999999523","281549.69999980927","[""stimuli/AF09_SUR.jpg"",""stimuli/BM16_HO.jpg"",""stimuli/HF10_HE.jpg"",""stimuli/WM09_FO.jpg""]","stimuli/AF09_SUR.jpg","stimuli/BM16_HO.jpg","stimuli/HF10_HE.jpg","stimuli/WM09_FO.jpg","pos1","stimuli/AF09_SUR.jpg","SUR","AF09","0","5","10","8","stimuli/stars_10.png","161.5","[""SUR"",""HO"",""HE"",""FO""]","[""AF09"",""BM16"",""HF10"",""WM09""]","[10,5,2,1]","[8,6,4,2]","","",""
"show-reward","94","281114","0.0-94.0","p476979","ANFWGSQ8BQRZ","3WPCIUYH1BELQU8EB2L3QVOOKYBTD4","3Y4W8Q93L1Q3Q6AX6ZQJGX7Y0VKVD6","model","match","uniform","","","","","","","","282051.5","284069.39999985695","","","","","","","","","","","","10","","stimuli/stars_10.png","161.5","","","","","stimuli/AF09_SUR.jpg","",""
"explore-choice","95","283203","0.0-95.0","p476979","ANFWGSQ8BQRZ","3WPCIUYH1BELQU8EB2L3QVOOKYBTD4","3Y4W8Q93L1Q3Q6AX6ZQJGX7Y0VKVD6","model","match","uniform","","","","","","","1566.4000000953674","284071.09999990463","285637.5","[""stimuli/AF09_HE.jpg"",""stimuli/HF10_HO.jpg"",""stimuli/WM09_FO.jpg"",""stimuli/BM16_SUR.jpg""]","stimuli/AF09_HE.jpg","stimuli/HF10_HO.jpg","stimuli/WM09_FO.jpg","stimuli/BM16_SUR.jpg","pos1","stimuli/AF09_HE.jpg","HE","AF09","0","4.5","9","8","stimuli/stars_9.png","166","[""HE"",""HO"",""FO"",""SUR""]","[""AF09"",""HF10"",""WM09"",""BM16""]","[9,4,4,7]","[8,4,2,6]","","",""
"show-reward","96","285210","0.0-96.0","p476979","ANFWGSQ8BQRZ","3WPCIUYH1BELQU8EB2L3QVOOKYBTD4","3Y4W8Q93L1Q3Q6AX6ZQJGX7Y0VKVD6","model","match","uniform","","","","","","","","286160.09999990463","288165","","","","","","","","","","","","9","","stimuli/stars_9.png","166","","","","","stimuli/AF09_HE.jpg","",""
"explore-choice","97","288095","0.0-97.0","p476979","ANFWGSQ8BQRZ","3WPCIUYH1BELQU8EB2L3QVOOKYBTD4","3Y4W8Q93L1Q3Q6AX6ZQJGX7Y0VKVD6","model","match","uniform","","","","","","","2382.899999856949","288166.5","290549.39999985695","[""stimuli/BM16_HO.jpg"",""stimuli/AF09_FO.jpg"",""stimuli/HF10_SUR.jpg"",""stimuli/WM09_HE.jpg""]","stimuli/BM16_HO.jpg","stimuli/AF09_FO.jpg","stimuli/HF10_SUR.jpg","stimuli/WM09_HE.jpg","pos2","stimuli/AF09_FO.jpg","FO","AF09","1","3.5","7","8","stimuli/stars_7.png","169.5","[""HO"",""FO"",""SUR"",""HE""]","[""BM16"",""AF09"",""HF10"",""WM09""]","[8,7,4,0]","[6,8,4,2]","","",""
"show-reward","98","290122","0.0-98.0","p476979","ANFWGSQ8BQRZ","3WPCIUYH1BELQU8EB2L3QVOOKYBTD4","3Y4W8Q93L1Q3Q6AX6ZQJGX7Y0VKVD6","model","match","uniform","","","","","","","","291052.09999990463","293077.09999990463","","","","","","","","","","","","7","","stimuli/stars_7.png","169.5","","","","","stimuli/AF09_FO.jpg","",""
"explore-choice","99","292847","0.0-99.0","p476979","ANFWGSQ8BQRZ","3WPCIUYH1BELQU8EB2L3QVOOKYBTD4","3Y4W8Q93L1Q3Q6AX6ZQJGX7Y0VKVD6","model","match","uniform","","","","","","","2222.5999999046326","293078.59999990463","295301.19999980927","[""stimuli/WM09_HE.jpg"",""stimuli/AF09_HO.jpg"",""stimuli/BM16_SUR.jpg"",""stimuli/HF10_FO.jpg""]","stimuli/WM09_HE.jpg","stimuli/AF09_HO.jpg","stimuli/BM16_SUR.jpg","stimuli/HF10_FO.jpg","pos2","stimuli/AF09_HO.jpg","HO","AF09","1","5","10","8","stimuli/stars_10.png","174.5","[""HE"",""HO"",""SUR"",""FO""]","[""WM09"",""AF09"",""BM16"",""HF10""]","[2,10,8,3]","[2,8,6,4]","","",""
"show-reward","100","294864","0.0-100.0","p476979","ANFWGSQ8BQRZ","3WPCIUYH1BELQU8EB2L3QVOOKYBTD4","3Y4W8Q93L1Q3Q6AX6ZQJGX7Y0VKVD6","model","match","uniform","","","","","","","","295803.39999985695","297819.5","","","","","","","","","","","","10","","stimuli/stars_10.png","174.5","","","","","stimuli/AF09_HO.jpg","",""
"explore-choice","101","296413","0.0-101.0","p476979","ANFWGSQ8BQRZ","3WPCIUYH1BELQU8EB2L3QVOOKYBTD4","3Y4W8Q93L1Q3Q6AX6ZQJGX7Y0VKVD6","model","match","uniform","","","","","","","1040","297821.2999999523","298861.2999999523","[""stimuli/AF09_SUR.jpg"",""stimuli/WM09_HE.jpg"",""stimuli/HF10_FO.jpg"",""stimuli/BM16_HO.jpg""]","stimuli/AF09_SUR.jpg","stimuli/WM09_HE.jpg","stimuli/HF10_FO.jpg","stimuli/BM16_HO.jpg","pos1","stimuli/AF09_SUR.jpg","SUR","AF09","0","3.5","7","8","stimuli/stars_7.png","178","[""SUR"",""HE"",""FO"",""HO""]","[""AF09"",""WM09"",""HF10"",""BM16""]","[7,0,3,8]","[8,2,4,6]","","",""
"show-reward","102","298419","0.0-102.0","p476979","ANFWGSQ8BQRZ","3WPCIUYH1BELQU8EB2L3QVOOKYBTD4","3Y4W8Q93L1Q3Q6AX6ZQJGX7Y0VKVD6","model","match","uniform","","","","","","","","299370.2999999523","301374.39999985695","","","","","","","","","","","","7","","stimuli/stars_7.png","178","","","","","stimuli/AF09_SUR.jpg","",""
"explore-choice","103","306990","0.0-103.0","p476979","ANFWGSQ8BQRZ","3WPCIUYH1BELQU8EB2L3QVOOKYBTD4","3Y4W8Q93L1Q3Q6AX6ZQJGX7Y0VKVD6","model","match","uniform","","","","","","","8053.900000095367","301375.59999990463","309429.5","[""stimuli/HF04_DO.jpg"",""stimuli/WF14_SC.jpg"",""stimuli/HM07_AO.jpg"",""stimuli/HM09_CC.jpg""]","stimuli/HF04_DO.jpg","stimuli/WF14_SC.jpg","stimuli/HM07_AO.jpg","stimuli/HM09_CC.jpg","pos1","stimuli/HF04_DO.jpg","DO","HF04","0","0","0","2","stimuli/stars_0.png","178","[""DO"",""SC"",""AO"",""CC""]","[""HF04"",""WF14"",""HM07"",""HM09""]","[0,4,4,6]","[2,6,4,8]","","",""
"show-reward","104","309009","0.0-104.0","p476979","ANFWGSQ8BQRZ","3WPCIUYH1BELQU8EB2L3QVOOKYBTD4","3Y4W8Q93L1Q3Q6AX6ZQJGX7Y0VKVD6","model","match","uniform","","","","","","","","309948.39999985695","311964.59999990463","","","","","","","","","","","","0","","stimuli/stars_0.png","178","","","","","stimuli/HF04_DO.jpg","",""
"explore-choice","105","313098","0.0-105.0","p476979","ANFWGSQ8BQRZ","3WPCIUYH1BELQU8EB2L3QVOOKYBTD4","3Y4W8Q93L1Q3Q6AX6ZQJGX7Y0VKVD6","model","match","uniform","","","","","","","3583.5","311965.7999999523","315549.2999999523","[""stimuli/HF04_SC.jpg"",""stimuli/HM09_CC.jpg"",""stimuli/HM07_DO.jpg"",""stimuli/WF14_AO.jpg""]","stimuli/HF04_SC.jpg","stimuli/HM09_CC.jpg","stimuli/HM07_DO.jpg","stimuli/WF14_AO.jpg","pos3","stimuli/HM07_DO.jpg","DO","HM07","2","2.5","5","4","stimuli/stars_5.png","180.5","[""SC"",""CC"",""DO"",""AO""]","[""HF04"",""HM09"",""HM07"",""WF14""]","[0,6,5,8]","[2,8,4,6]","","",""
"show-reward","106","315104","0.0-106.0","p476979","ANFWGSQ8BQRZ","3WPCIUYH1BELQU8EB2L3QVOOKYBTD4","3Y4W8Q93L1Q3Q6AX6ZQJGX7Y0VKVD6","model","match","uniform","","","","","","","","316054.7999999523","318058.89999985695","","","","","","","","","","","","5","","stimuli/stars_5.png","180.5","","","","","stimuli/HM07_DO.jpg","",""
"explore-choice","107","317123","0.0-107.0","p476979","ANFWGSQ8BQRZ","3WPCIUYH1BELQU8EB2L3QVOOKYBTD4","3Y4W8Q93L1Q3Q6AX6ZQJGX7Y0VKVD6","model","match","uniform","","","","","","","1511.7000000476837","318061.89999985695","319573.59999990463","[""stimuli/WF14_SC.jpg"",""stimuli/HF04_CC.jpg"",""stimuli/HM07_AO.jpg"",""stimuli/HM09_DO.jpg""]","stimuli/WF14_SC.jpg","stimuli/HF04_CC.jpg","stimuli/HM07_AO.jpg","stimuli/HM09_DO.jpg","pos2","stimuli/HF04_CC.jpg","CC","HF04","1","0.5","1","2","stimuli/stars_1.png","181","[""SC"",""CC"",""AO"",""DO""]","[""WF14"",""HF04"",""HM07"",""HM09""]","[6,1,2,7]","[6,2,4,8]","","",""
"show-reward","108","319128","0.0-108.0","p476979","ANFWGSQ8BQRZ","3WPCIUYH1BELQU8EB2L3QVOOKYBTD4","3Y4W8Q93L1Q3Q6AX6ZQJGX7Y0VKVD6","model","match","uniform","","","","","","","","320079.69999980927","322082.89999985695","","","","","","","","","","","","1","","stimuli/stars_1.png","181","","","","","stimuli/HF04_CC.jpg","",""
"explore-choice","109","323224","0.0-109.0","p476979","ANFWGSQ8BQRZ","3WPCIUYH1BELQU8EB2L3QVOOKYBTD4","3Y4W8Q93L1Q3Q6AX6ZQJGX7Y0VKVD6","model","match","uniform","","","","","","","3592.5","322084.7999999523","325677.2999999523","[""stimuli/WF14_CC.jpg"",""stimuli/HM09_AO.jpg"",""stimuli/HF04_SC.jpg"",""stimuli/HM07_DO.jpg""]","stimuli/WF14_CC.jpg","stimuli/HM09_AO.jpg","stimuli/HF04_SC.jpg","stimuli/HM07_DO.jpg","pos2","stimuli/HM09_AO.jpg","AO","HM09","1","4.5","9","8","stimuli/stars_9.png","185.5","[""CC"",""AO"",""SC"",""DO""]","[""WF14"",""HM09"",""HF04"",""HM07""]","[7,9,4,6]","[6,8,2,4]","","",""
"show-reward","110","325237","0.0-110.0","p476979","ANFWGSQ8BQRZ","3WPCIUYH1BELQU8EB2L3QVOOKYBTD4","3Y4W8Q93L1Q3Q6AX6ZQJGX7Y0VKVD6","model","match","uniform","","","","","","","","326180.2999999523","328192.09999990463","","","","","","","","","","","","9","","stimuli/stars_9.png","185.5","","","","","stimuli/HM09_AO.jpg","",""
"explore-choice","111","328543","0.0-111.0","p476979","ANFWGSQ8BQRZ","3WPCIUYH1BELQU8EB2L3QVOOKYBTD4","3Y4W8Q93L1Q3Q6AX6ZQJGX7Y0VKVD6","model","match","uniform","","","","","","","2803.2000000476837","328194.09999990463","330997.2999999523","[""stimuli/HM07_CC.jpg"",""stimuli/HF04_AO.jpg"",""stimuli/WF14_SC.jpg"",""stimuli/HM09_DO.jpg""]","stimuli/HM07_CC.jpg","stimuli/HF04_AO.jpg","stimuli/WF14_SC.jpg","stimuli/HM09_DO.jpg","pos4","stimuli/HM09_DO.jpg","DO","HM09","3","4.5","9","8","stimuli/stars_9.png","190","[""CC"",""AO"",""SC"",""DO""]","[""HM07"",""HF04"",""WF14"",""HM09""]","[5,4,8,9]","[4,2,6,8]","","",""
"show-reward","112","330564","0.0-112.0","p476979","ANFWGSQ8BQRZ","3WPCIUYH1BELQU8EB2L3QVOOKYBTD4","3Y4W8Q93L1Q3Q6AX6ZQJGX7Y0VKVD6","model","match","uniform","","","","","","","","331500","333519.09999990463","","","","","","","","","","","","9","","stimuli/stars_9.png","190","","","","","stimuli/HM09_DO.jpg","",""
"explore-choice","113","333108","0.0-113.0","p476979","ANFWGSQ8BQRZ","3WPCIUYH1BELQU8EB2L3QVOOKYBTD4","3Y4W8Q93L1Q3Q6AX6ZQJGX7Y0VKVD6","model","match","uniform","","","","","","","2035.7000000476837","333521.39999985695","335557.09999990463","[""stimuli/WF14_DO.jpg"",""stimuli/HF04_SC.jpg"",""stimuli/HM09_CC.jpg"",""stimuli/HM07_AO.jpg""]","stimuli/WF14_DO.jpg","stimuli/HF04_SC.jpg","stimuli/HM09_CC.jpg","stimuli/HM07_AO.jpg","pos3","stimuli/HM09_CC.jpg","CC","HM09","2","5","10","8","stimuli/stars_10.png","195","[""DO"",""SC"",""CC"",""AO""]","[""WF14"",""HF04"",""HM09"",""HM07""]","[8,2,10,2]","[6,2,8,4]","","",""
"show-reward","114","335129","0.0-114.0","p476979","ANFWGSQ8BQRZ","3WPCIUYH1BELQU8EB2L3QVOOKYBTD4","3Y4W8Q93L1Q3Q6AX6ZQJGX7Y0VKVD6","model","match","uniform","","","","","","","","336065.2999999523","338084.39999985695","","","","","","","","","","","","10","","stimuli/stars_10.png","195","","","","","stimuli/HM09_CC.jpg","",""
"explore-choice","115","336779","0.0-115.0","p476979","ANFWGSQ8BQRZ","3WPCIUYH1BELQU8EB2L3QVOOKYBTD4","3Y4W8Q93L1Q3Q6AX6ZQJGX7Y0VKVD6","model","match","uniform","","","","","","","1142.7999999523163","338086.2999999523","339229.09999990463","[""stimuli/HM07_SC.jpg"",""stimuli/WF14_CC.jpg"",""stimuli/HM09_DO.jpg"",""stimuli/HF04_AO.jpg""]","stimuli/HM07_SC.jpg","stimuli/WF14_CC.jpg","stimuli/HM09_DO.jpg","stimuli/HF04_AO.jpg","pos3","stimuli/HM09_DO.jpg","DO","HM09","2","3.5","7","8","stimuli/stars_7.png","198.5","[""SC"",""CC"",""DO"",""AO""]","[""HM07"",""WF14"",""HM09"",""HF04""]","[2,6,7,2]","[4,6,8,2]","","",""
"show-reward","116","338784","0.0-116.0","p476979","ANFWGSQ8BQRZ","3WPCIUYH1BELQU8EB2L3QVOOKYBTD4","3Y4W8Q93L1Q3Q6AX6ZQJGX7Y0VKVD6","model","match","uniform","","","","","","","","339735.2999999523","341739.19999980927","","","","","","","","","","","","7","","stimuli/stars_7.png","198.5","","","","","stimuli/HM09_DO.jpg","",""
"explore-choice","117","340574","0.0-117.0","p476979","ANFWGSQ8BQRZ","3WPCIUYH1BELQU8EB2L3QVOOKYBTD4","3Y4W8Q93L1Q3Q6AX6ZQJGX7Y0VKVD6","model","match","uniform","","","","","","","1288.0999999046326","341741.09999990463","343029.19999980927","[""stimuli/WF14_AO.jpg"",""stimuli/HF04_DO.jpg"",""stimuli/HM07_CC.jpg"",""stimuli/HM09_SC.jpg""]","stimuli/WF14_AO.jpg","stimuli/HF04_DO.jpg","stimuli/HM07_CC.jpg","stimuli/HM09_SC.jpg","pos4","stimuli/HM09_SC.jpg","SC","HM09","3","4.5","9","8","stimuli/stars_9.png","203","[""AO"",""DO"",""CC"",""SC""]","[""WF14"",""HF04"",""HM07"",""HM09""]","[5,3,5,9]","[6,2,4,8]","","",""
"show-reward","118","342589","0.0-118.0","p476979","ANFWGSQ8BQRZ","3WPCIUYH1BELQU8EB2L3QVOOKYBTD4","3Y4W8Q93L1Q3Q6AX6ZQJGX7Y0VKVD6","model","match","uniform","","","","","","","","343531.2999999523","345544.19999980927","","","","","","","","","","","","9","","stimuli/stars_9.png","203","","","","","stimuli/HM09_SC.jpg","",""
"explore-choice","119","344207","0.0-119.0","p476979","ANFWGSQ8BQRZ","3WPCIUYH1BELQU8EB2L3QVOOKYBTD4","3Y4W8Q93L1Q3Q6AX6ZQJGX7Y0VKVD6","model","match","uniform","","","","","","","1115.6000001430511","345545.69999980927","346661.2999999523","[""stimuli/HM07_CC.jpg"",""stimuli/WF14_SC.jpg"",""stimuli/HM09_AO.jpg"",""stimuli/HF04_DO.jpg""]","stimuli/HM07_CC.jpg","stimuli/WF14_SC.jpg","stimuli/HM09_AO.jpg","stimuli/HF04_DO.jpg","pos3","stimuli/HM09_AO.jpg","AO","HM09","2","4.5","9","8","stimuli/stars_9.png","207.5","[""CC"",""SC"",""AO"",""DO""]","[""HM07"",""WF14"",""HM09"",""HF04""]","[5,7,9,3]","[4,6,8,2]","","",""
"show-reward","120","346233","0.0-120.0","p476979","ANFWGSQ8BQRZ","3WPCIUYH1BELQU8EB2L3QVOOKYBTD4","3Y4W8Q93L1Q3Q6AX6ZQJGX7Y0VKVD6","model","match","uniform","","","","","","","","347163.39999985695","349187.89999985695","","","","","","","","","","","","9","","stimuli/stars_9.png","207.5","","","","","stimuli/HM09_AO.jpg","",""
"explore-choice","121","348223","0.0-121.0","p476979","ANFWGSQ8BQRZ","3WPCIUYH1BELQU8EB2L3QVOOKYBTD4","3Y4W8Q93L1Q3Q6AX6ZQJGX7Y0VKVD6","model","match","uniform","","","","","","","1487.5999999046326","349189.5","350677.09999990463","[""stimuli/WF14_CC.jpg"",""stimuli/HM09_DO.jpg"",""stimuli/HM07_AO.jpg"",""stimuli/HF04_SC.jpg""]","stimuli/WF14_CC.jpg","stimuli/HM09_DO.jpg","stimuli/HM07_AO.jpg","stimuli/HF04_SC.jpg","pos2","stimuli/HM09_DO.jpg","DO","HM09","1","5","10","8","stimuli/stars_10.png","212.5","[""CC"",""DO"",""AO"",""SC""]","[""WF14"",""HM09"",""HM07"",""HF04""]","[8,10,3,0]","[6,8,4,2]","","",""
"show-reward","122","350241","0.0-122.0","p476979","ANFWGSQ8BQRZ","3WPCIUYH1BELQU8EB2L3QVOOKYBTD4","3Y4W8Q93L1Q3Q6AX6ZQJGX7Y0VKVD6","model","match","uniform","","","","","","","","351180.2999999523","353196.69999980927","","","","","","","","","","","","10","","stimuli/stars_10.png","212.5","","","","","stimuli/HM09_DO.jpg","",""
"explore-choice","123","351921","0.0-123.0","p476979","ANFWGSQ8BQRZ","3WPCIUYH1BELQU8EB2L3QVOOKYBTD4","3Y4W8Q93L1Q3Q6AX6ZQJGX7Y0VKVD6","model","match","uniform","","","","","","","1167","353198.19999980927","354365.19999980927","[""stimuli/WF14_DO.jpg"",""stimuli/HF04_SC.jpg"",""stimuli/HM09_AO.jpg"",""stimuli/HM07_CC.jpg""]","stimuli/WF14_DO.jpg","stimuli/HF04_SC.jpg","stimuli/HM09_AO.jpg","stimuli/HM07_CC.jpg","pos3","stimuli/HM09_AO.jpg","AO","HM09","2","3","6","8","stimuli/stars_6.png","215.5","[""DO"",""SC"",""AO"",""CC""]","[""WF14"",""HF04"",""HM09"",""HM07""]","[8,2,6,2]","[6,2,8,4]","","",""
"show-reward","124","353927","0.0-124.0","p476979","ANFWGSQ8BQRZ","3WPCIUYH1BELQU8EB2L3QVOOKYBTD4","3Y4W8Q93L1Q3Q6AX6ZQJGX7Y0VKVD6","model","match","uniform","","","","","","","","354878","356881.89999985695","","","","","","","","","","","","6","","stimuli/stars_6.png","215.5","","","","","stimuli/HM09_AO.jpg","",""
"explore-choice","125","355406","0.0-125.0","p476979","ANFWGSQ8BQRZ","3WPCIUYH1BELQU8EB2L3QVOOKYBTD4","3Y4W8Q93L1Q3Q6AX6ZQJGX7Y0VKVD6","model","match","uniform","","","","","","","977.5","356883.69999980927","357861.19999980927","[""stimuli/HF04_DO.jpg"",""stimuli/HM09_AO.jpg"",""stimuli/HM07_SC.jpg"",""stimuli/WF14_CC.jpg""]","stimuli/HF04_DO.jpg","stimuli/HM09_AO.jpg","stimuli/HM07_SC.jpg","stimuli/WF14_CC.jpg","pos2","stimuli/HM09_AO.jpg","AO","HM09","1","5","10","8","stimuli/stars_10.png","220.5","[""DO"",""AO"",""SC"",""CC""]","[""HF04"",""HM09"",""HM07"",""WF14""]","[4,10,3,7]","[2,8,4,6]","","",""
"show-reward","126","357415","0.0-126.0","p476979","ANFWGSQ8BQRZ","3WPCIUYH1BELQU8EB2L3QVOOKYBTD4","3Y4W8Q93L1Q3Q6AX6ZQJGX7Y0VKVD6","model","match","uniform","","","","","","","","358363.2999999523","360370.19999980927","","","","","","","","","","","","10","","stimuli/stars_10.png","220.5","","","","","stimuli/HM09_AO.jpg","",""
"explore-choice","127","360062","0.0-127.0","p476979","ANFWGSQ8BQRZ","3WPCIUYH1BELQU8EB2L3QVOOKYBTD4","3Y4W8Q93L1Q3Q6AX6ZQJGX7Y0VKVD6","model","match","uniform","","","","","","","2145.2999999523163","360371.89999985695","362517.19999980927","[""stimuli/HM07_CC.jpg"",""stimuli/HM09_DO.jpg"",""stimuli/WF14_AO.jpg"",""stimuli/HF04_SC.jpg""]","stimuli/HM07_CC.jpg","stimuli/HM09_DO.jpg","stimuli/WF14_AO.jpg","stimuli/HF04_SC.jpg","pos2","stimuli/HM09_DO.jpg","DO","HM09","1","3.5","7","8","stimuli/stars_7.png","224","[""CC"",""DO"",""AO"",""SC""]","[""HM07"",""HM09"",""WF14"",""HF04""]","[2,7,7,0]","[4,8,6,2]","","",""
"show-reward","128","362075","0.0-128.0","p476979","ANFWGSQ8BQRZ","3WPCIUYH1BELQU8EB2L3QVOOKYBTD4","3Y4W8Q93L1Q3Q6AX6ZQJGX7Y0VKVD6","model","match","uniform","","","","","","","","363019.2999999523","365030.5","","","","","","","","","","","","7","","stimuli/stars_7.png","224","","","","","stimuli/HM09_DO.jpg","",""
"explore-choice","129","363593","0.0-129.0","p476979","ANFWGSQ8BQRZ","3WPCIUYH1BELQU8EB2L3QVOOKYBTD4","3Y4W8Q93L1Q3Q6AX6ZQJGX7Y0VKVD6","model","match","uniform","","","","","","","1013.2000000476837","365032.09999990463","366045.2999999523","[""stimuli/HM07_SC.jpg"",""stimuli/HF04_AO.jpg"",""stimuli/HM09_CC.jpg"",""stimuli/WF14_DO.jpg""]","stimuli/HM07_SC.jpg","stimuli/HF04_AO.jpg","stimuli/HM09_CC.jpg","stimuli/WF14_DO.jpg","pos3","stimuli/HM09_CC.jpg","CC","HM09","2","5","10","8","stimuli/stars_10.png","229","[""SC"",""AO"",""CC"",""DO""]","[""HM07"",""HF04"",""HM09"",""WF14""]","[4,4,10,6]","[4,2,8,6]","","",""
"show-reward","130","365613","0.0-130.0","p476979","ANFWGSQ8BQRZ","3WPCIUYH1BELQU8EB2L3QVOOKYBTD4","3Y4W8Q93L1Q3Q6AX6ZQJGX7Y0VKVD6","model","match","uniform","","","","","","","","366549.59999990463","368568.19999980927","","","","","","","","","","","","10","","stimuli/stars_10.png","229","","","","","stimuli/HM09_CC.jpg","",""
"explore-choice","131","367214","0.0-131.0","p476979","ANFWGSQ8BQRZ","3WPCIUYH1BELQU8EB2L3QVOOKYBTD4","3Y4W8Q93L1Q3Q6AX6ZQJGX7Y0VKVD6","model","match","uniform","","","","","","","1099.5","368569.69999980927","369669.19999980927","[""stimuli/WF14_SC.jpg"",""stimuli/HF04_CC.jpg"",""stimuli/HM07_DO.jpg"",""stimuli/HM09_AO.jpg""]","stimuli/WF14_SC.jpg","stimuli/HF04_CC.jpg","stimuli/HM07_DO.jpg","stimuli/HM09_AO.jpg","pos4","stimuli/HM09_AO.jpg","AO","HM09","3","5","10","8","stimuli/stars_10.png","234","[""SC"",""CC"",""DO"",""AO""]","[""WF14"",""HF04"",""HM07"",""HM09""]","[6,4,6,10]","[6,2,4,8]","","",""
"show-reward","132","369233","0.0-132.0","p476979","ANFWGSQ8BQRZ","3WPCIUYH1BELQU8EB2L3QVOOKYBTD4","3Y4W8Q93L1Q3Q6AX6ZQJGX7Y0VKVD6","model","match","uniform","","","","","","","","370170.7999999523","372188.09999990463","","","","","","","","","","","","10","","stimuli/stars_10.png","234","","","","","stimuli/HM09_AO.jpg","",""
"explore-choice","133","370799","0.0-133.0","p476979","ANFWGSQ8BQRZ","3WPCIUYH1BELQU8EB2L3QVOOKYBTD4","3Y4W8Q93L1Q3Q6AX6ZQJGX7Y0VKVD6","model","match","uniform","","","","","","","1063.5","372189.69999980927","373253.19999980927","[""stimuli/HM07_AO.jpg"",""stimuli/WF14_DO.jpg"",""stimuli/HF04_CC.jpg"",""stimuli/HM09_SC.jpg""]","stimuli/HM07_AO.jpg","stimuli/WF14_DO.jpg","stimuli/HF04_CC.jpg","stimuli/HM09_SC.jpg","pos4","stimuli/HM09_SC.jpg","SC","HM09","3","3","6","8","stimuli/stars_6.png","237","[""AO"",""DO"",""CC"",""SC""]","[""HM07"",""WF14"",""HF04"",""HM09""]","[3,5,3,6]","[4,6,2,8]","","",""
"show-reward","134","372808","0.0-134.0","p476979","ANFWGSQ8BQRZ","3WPCIUYH1BELQU8EB2L3QVOOKYBTD4","3Y4W8Q93L1Q3Q6AX6ZQJGX7Y0VKVD6","model","match","uniform","","","","","","","","373755.59999990463","375763","","","","","","","","","","","","6","","stimuli/stars_6.png","237","","","","","stimuli/HM09_SC.jpg","",""
"explore-choice","135","376246","0.0-135.0","p476979","ANFWGSQ8BQRZ","3WPCIUYH1BELQU8EB2L3QVOOKYBTD4","3Y4W8Q93L1Q3Q6AX6ZQJGX7Y0VKVD6","model","match","uniform","","","","","","","2936.300000190735","375764.69999980927","378701","[""stimuli/HM09_SC.jpg"",""stimuli/WF14_CC.jpg"",""stimuli/HF04_DO.jpg"",""stimuli/HM07_AO.jpg""]","stimuli/HM09_SC.jpg","stimuli/WF14_CC.jpg","stimuli/HF04_DO.jpg","stimuli/HM07_AO.jpg","pos4","stimuli/HM07_AO.jpg","AO","HM07","3","1","2","4","stimuli/stars_2.png","238","[""SC"",""CC"",""DO"",""AO""]","[""HM09"",""WF14"",""HF04"",""HM07""]","[10,4,1,2]","[8,6,2,4]","","",""
"show-reward","136","378258","0.0-136.0","p476979","ANFWGSQ8BQRZ","3WPCIUYH1BELQU8EB2L3QVOOKYBTD4","3Y4W8Q93L1Q3Q6AX6ZQJGX7Y0VKVD6","model","match","uniform","","","","","","","","379203.7999999523","381213.2999999523","","","","","","","","","","","","2","","stimuli/stars_2.png","238","","","","","stimuli/HM07_AO.jpg","",""
"explore-choice","137","379782","0.0-137.0","p476979","ANFWGSQ8BQRZ","3WPCIUYH1BELQU8EB2L3QVOOKYBTD4","3Y4W8Q93L1Q3Q6AX6ZQJGX7Y0VKVD6","model","match","uniform","","","","","","","1022.2999999523163","381214.89999985695","382237.19999980927","[""stimuli/HF04_AO.jpg"",""stimuli/WF14_CC.jpg"",""stimuli/HM07_DO.jpg"",""stimuli/HM09_SC.jpg""]","stimuli/HF04_AO.jpg","stimuli/WF14_CC.jpg","stimuli/HM07_DO.jpg","stimuli/HM09_SC.jpg","pos4","stimuli/HM09_SC.jpg","SC","HM09","3","4.5","9","8","stimuli/stars_9.png","242.5","[""AO"",""CC"",""DO"",""SC""]","[""HF04"",""WF14"",""HM07"",""HM09""]","[4,5,2,9]","[2,6,4,8]","","",""
"show-reward","138","381800","0.0-138.0","p476979","ANFWGSQ8BQRZ","3WPCIUYH1BELQU8EB2L3QVOOKYBTD4","3Y4W8Q93L1Q3Q6AX6ZQJGX7Y0VKVD6","model","match","uniform","","","","","","","","382739","384755.5","","","","","","","","","","","","9","","stimuli/stars_9.png","242.5","","","","","stimuli/HM09_SC.jpg","",""
"explore-choice","139","383608","0.0-139.0","p476979","ANFWGSQ8BQRZ","3WPCIUYH1BELQU8EB2L3QVOOKYBTD4","3Y4W8Q93L1Q3Q6AX6ZQJGX7Y0VKVD6","model","match","uniform","","","","","","","1304.5","384757.09999990463","386061.59999990463","[""stimuli/HM09_AO.jpg"",""stimuli/HM07_SC.jpg"",""stimuli/HF04_CC.jpg"",""stimuli/WF14_DO.jpg""]","stimuli/HM09_AO.jpg","stimuli/HM07_SC.jpg","stimuli/HF04_CC.jpg","stimuli/WF14_DO.jpg","pos1","stimuli/HM09_AO.jpg","AO","HM09","0","4","8","8","stimuli/stars_8.png","246.5","[""AO"",""SC"",""CC"",""DO""]","[""HM09"",""HM07"",""HF04"",""WF14""]","[8,4,0,8]","[8,4,2,6]","","",""
"show-reward","140","385622","0.0-140.0","p476979","ANFWGSQ8BQRZ","3WPCIUYH1BELQU8EB2L3QVOOKYBTD4","3Y4W8Q93L1Q3Q6AX6ZQJGX7Y0VKVD6","model","match","uniform","","","","","","","","386565.09999990463","388577","","","","","","","","","","","","8","","stimuli/stars_8.png","246.5","","","","","stimuli/HM09_AO.jpg","",""
"explore-choice","141","387309","0.0-141.0","p476979","ANFWGSQ8BQRZ","3WPCIUYH1BELQU8EB2L3QVOOKYBTD4","3Y4W8Q93L1Q3Q6AX6ZQJGX7Y0VKVD6","model","match","uniform","","","","","","","1162.2999999523163","388579.2999999523","389741.59999990463","[""stimuli/HM07_SC.jpg"",""stimuli/HF04_DO.jpg"",""stimuli/HM09_CC.jpg"",""stimuli/WF14_AO.jpg""]","stimuli/HM07_SC.jpg","stimuli/HF04_DO.jpg","stimuli/HM09_CC.jpg","stimuli/WF14_AO.jpg","pos3","stimuli/HM09_CC.jpg","CC","HM09","2","3","6","8","stimuli/stars_6.png","249.5","[""SC"",""DO"",""CC"",""AO""]","[""HM07"",""HF04"",""HM09"",""WF14""]","[4,2,6,6]","[4,2,8,6]","","",""
"show-reward","142","389328","0.0-142.0","p476979","ANFWGSQ8BQRZ","3WPCIUYH1BELQU8EB2L3QVOOKYBTD4","3Y4W8Q93L1Q3Q6AX6ZQJGX7Y0VKVD6","model","match","uniform","","","","","","","","390265.69999980927","392283.39999985695","","","","","","","","","","","","6","","stimuli/stars_6.png","249.5","","","","","stimuli/HM09_CC.jpg","",""
"explore-choice","143","391710","0.0-143.0","p476979","ANFWGSQ8BQRZ","3WPCIUYH1BELQU8EB2L3QVOOKYBTD4","3Y4W8Q93L1Q3Q6AX6ZQJGX7Y0VKVD6","model","match","uniform","","","","","","","1876.7999999523163","392288.39999985695","394165.19999980927","[""stimuli/HM07_DO.jpg"",""stimuli/WF14_SC.jpg"",""stimuli/HM09_CC.jpg"",""stimuli/HF04_AO.jpg""]","stimuli/HM07_DO.jpg","stimuli/WF14_SC.jpg","stimuli/HM09_CC.jpg","stimuli/HF04_AO.jpg","pos2","stimuli/WF14_SC.jpg","SC","WF14","1","2.5","5","6","stimuli/stars_5.png","252","[""DO"",""SC"",""CC"",""AO""]","[""HM07"",""WF14"",""HM09"",""HF04""]","[6,5,7,4]","[4,6,8,2]","","",""
"show-reward","144","393721","0.0-144.0","p476979","ANFWGSQ8BQRZ","3WPCIUYH1BELQU8EB2L3QVOOKYBTD4","3Y4W8Q93L1Q3Q6AX6ZQJGX7Y0VKVD6","model","match","uniform","","","","","","","","394667.39999985695","396675.89999985695","","","","","","","","","","","","5","","stimuli/stars_5.png","252","","","","","stimuli/WF14_SC.jpg","",""
"explore-choice","145","396391","0.0-145.0","p476979","ANFWGSQ8BQRZ","3WPCIUYH1BELQU8EB2L3QVOOKYBTD4","3Y4W8Q93L1Q3Q6AX6ZQJGX7Y0VKVD6","model","match","uniform","","","","","","","2167.7000000476837","396677.69999980927","398845.39999985695","[""stimuli/HM09_SC.jpg"",""stimuli/WF14_AO.jpg"",""stimuli/HF04_CC.jpg"",""stimuli/HM07_DO.jpg""]","stimuli/HM09_SC.jpg","stimuli/WF14_AO.jpg","stimuli/HF04_CC.jpg","stimuli/HM07_DO.jpg","pos1","stimuli/HM09_SC.jpg","SC","HM09","0","5","10","8","stimuli/stars_10.png","257","[""SC"",""AO"",""CC"",""DO""]","[""HM09"",""WF14"",""HF04"",""HM07""]","[10,8,2,6]","[8,6,2,4]","","",""
"show-reward","146","398409","0.0-146.0","p476979","ANFWGSQ8BQRZ","3WPCIUYH1BELQU8EB2L3QVOOKYBTD4","3Y4W8Q93L1Q3Q6AX6ZQJGX7Y0VKVD6","model","match","uniform","","","","","","","","399347.89999985695","401364.59999990463","","","","","","","","","","","","10","","stimuli/stars_10.png","257","","","","","stimuli/HM09_SC.jpg","",""
"explore-choice","147","399862","0.0-147.0","p476979","ANFWGSQ8BQRZ","3WPCIUYH1BELQU8EB2L3QVOOKYBTD4","3Y4W8Q93L1Q3Q6AX6ZQJGX7Y0VKVD6","model","match","uniform","","","","","","","950.7000000476837","401366.2999999523","402317","[""stimuli/HF04_AO.jpg"",""stimuli/WF14_DO.jpg"",""stimuli/HM07_CC.jpg"",""stimuli/HM09_SC.jpg""]","stimuli/HF04_AO.jpg","stimuli/WF14_DO.jpg","stimuli/HM07_CC.jpg","stimuli/HM09_SC.jpg","pos4","stimuli/HM09_SC.jpg","SC","HM09","3","3","6","8","stimuli/stars_6.png","260","[""AO"",""DO"",""CC"",""SC""]","[""HF04"",""WF14"",""HM07"",""HM09""]","[1,8,4,6]","[2,6,4,8]","","",""
"show-reward","148","401870","0.0-148.0","p476979","ANFWGSQ8BQRZ","3WPCIUYH1BELQU8EB2L3QVOOKYBTD4","3Y4W8Q93L1Q3Q6AX6ZQJGX7Y0VKVD6","model","match","uniform","","","","","","","","402818.59999990463","404825","","","","","","","","","","","","6","","stimuli/stars_6.png","260","","","","","stimuli/HM09_SC.jpg","",""
"explore-choice","149","403341","0.0-149.0","p476979","ANFWGSQ8BQRZ","3WPCIUYH1BELQU8EB2L3QVOOKYBTD4","3Y4W8Q93L1Q3Q6AX6ZQJGX7Y0VKVD6","model","match","uniform","","","","","","","954.7999999523163","404826.7999999523","405781.59999990463","[""stimuli/HF04_CC.jpg"",""stimuli/HM07_SC.jpg"",""stimuli/HM09_DO.jpg"",""stimuli/WF14_AO.jpg""]","stimuli/HF04_CC.jpg","stimuli/HM07_SC.jpg","stimuli/HM09_DO.jpg","stimuli/WF14_AO.jpg","pos3","stimuli/HM09_DO.jpg","DO","HM09","2","3.5","7","8","stimuli/stars_7.png","263.5","[""CC"",""SC"",""DO"",""AO""]","[""HF04"",""HM07"",""HM09"",""WF14""]","[0,4,7,5]","[2,4,8,6]","","",""
"show-reward","150","405360","0.0-150.0","p476979","ANFWGSQ8BQRZ","3WPCIUYH1BELQU8EB2L3QVOOKYBTD4","3Y4W8Q93L1Q3Q6AX6ZQJGX7Y0VKVD6","model","match","uniform","","","","","","","","406298.39999985695","408315.19999980927","","","","","","","","","","","","7","","stimuli/stars_7.png","263.5","","","","","stimuli/HM09_DO.jpg","",""
"explore-choice","151","406814","0.0-151.0","p476979","ANFWGSQ8BQRZ","3WPCIUYH1BELQU8EB2L3QVOOKYBTD4","3Y4W8Q93L1Q3Q6AX6ZQJGX7Y0VKVD6","model","match","uniform","","","","","","","952.4000000953674","408316.69999980927","409269.09999990463","[""stimuli/HF04_AO.jpg"",""stimuli/HM07_DO.jpg"",""stimuli/HM09_SC.jpg"",""stimuli/WF14_CC.jpg""]","stimuli/HF04_AO.jpg","stimuli/HM07_DO.jpg","stimuli/HM09_SC.jpg","stimuli/WF14_CC.jpg","pos3","stimuli/HM09_SC.jpg","SC","HM09","2","4.5","9","8","stimuli/stars_9.png","268","[""AO"",""DO"",""SC"",""CC""]","[""HF04"",""HM07"",""HM09"",""WF14""]","[4,2,9,5]","[2,4,8,6]","","",""
"show-reward","152","408830","0.0-152.0","p476979","ANFWGSQ8BQRZ","3WPCIUYH1BELQU8EB2L3QVOOKYBTD4","3Y4W8Q93L1Q3Q6AX6ZQJGX7Y0VKVD6","model","match","uniform","","","","","","","","409771.5","411784.89999985695","","","","","","","","","","","","9","","stimuli/stars_9.png","268","","","","","stimuli/HM09_SC.jpg","",""
"explore-choice","153","410742","0.0-153.0","p476979","ANFWGSQ8BQRZ","3WPCIUYH1BELQU8EB2L3QVOOKYBTD4","3Y4W8Q93L1Q3Q6AX6ZQJGX7Y0VKVD6","model","match","uniform","","","","","","","1409.8000001907349","411787.19999980927","413197","[""stimuli/HF04_AO.jpg"",""stimuli/WF14_DO.jpg"",""stimuli/HM07_SC.jpg"",""stimuli/HM09_CC.jpg""]","stimuli/HF04_AO.jpg","stimuli/WF14_DO.jpg","stimuli/HM07_SC.jpg","stimuli/HM09_CC.jpg","pos4","stimuli/HM09_CC.jpg","CC","HM09","3","5","10","8","stimuli/stars_10.png","273","[""AO"",""DO"",""SC"",""CC""]","[""HF04"",""WF14"",""HM07"",""HM09""]","[4,6,4,10]","[2,6,4,8]","","",""
"show-reward","154","412761","0.0-154.0","p476979","ANFWGSQ8BQRZ","3WPCIUYH1BELQU8EB2L3QVOOKYBTD4","3Y4W8Q93L1Q3Q6AX6ZQJGX7Y0VKVD6","model","match","uniform","","","","","","","","413699.5","415716.5","","","","","","","","","","","","10","","stimuli/stars_10.png","273","","","","","stimuli/HM09_CC.jpg","",""
"explore-choice","155","415174","0.0-155.0","p476979","ANFWGSQ8BQRZ","3WPCIUYH1BELQU8EB2L3QVOOKYBTD4","3Y4W8Q93L1Q3Q6AX6ZQJGX7Y0VKVD6","model","match","uniform","","","","","","","1910.8000001907349","415718.19999980927","417629","[""stimuli/HM09_CC.jpg"",""stimuli/HF04_AO.jpg"",""stimuli/HM07_DO.jpg"",""stimuli/WF14_SC.jpg""]","stimuli/HM09_CC.jpg","stimuli/HF04_AO.jpg","stimuli/HM07_DO.jpg","stimuli/WF14_SC.jpg","pos1","stimuli/HM09_CC.jpg","CC","HM09","0","3.5","7","8","stimuli/stars_7.png","276.5","[""CC"",""AO"",""DO"",""SC""]","[""HM09"",""HF04"",""HM07"",""WF14""]","[7,4,6,5]","[8,2,4,6]","","",""
"show-reward","156","417184","0.0-156.0","p476979","ANFWGSQ8BQRZ","3WPCIUYH1BELQU8EB2L3QVOOKYBTD4","3Y4W8Q93L1Q3Q6AX6ZQJGX7Y0VKVD6","model","match","uniform","","","","","","","","418130.39999985695","420139.09999990463","","","","","","","","","","","","7","","stimuli/stars_7.png","276.5","","","","","stimuli/HM09_CC.jpg","",""
"explore-choice","157","418710","0.0-157.0","p476979","ANFWGSQ8BQRZ","3WPCIUYH1BELQU8EB2L3QVOOKYBTD4","3Y4W8Q93L1Q3Q6AX6ZQJGX7Y0VKVD6","model","match","uniform","","","","","","","1024.2000000476837","420140.7999999523","421165","[""stimuli/HM09_DO.jpg"",""stimuli/WF14_SC.jpg"",""stimuli/HF04_CC.jpg"",""stimuli/HM07_AO.jpg""]","stimuli/HM09_DO.jpg","stimuli/WF14_SC.jpg","stimuli/HF04_CC.jpg","stimuli/HM07_AO.jpg","pos1","stimuli/HM09_DO.jpg","DO","HM09","0","3.5","7","8","stimuli/stars_7.png","280","[""DO"",""SC"",""CC"",""AO""]","[""HM09"",""WF14"",""HF04"",""HM07""]","[7,6,1,2]","[8,6,2,4]","","",""
"show-reward","158","420723","0.0-158.0","p476979","ANFWGSQ8BQRZ","3WPCIUYH1BELQU8EB2L3QVOOKYBTD4","3Y4W8Q93L1Q3Q6AX6ZQJGX7Y0VKVD6","model","match","uniform","","","","","","","","421666.89999985695","423678.2999999523","","","","","","","","","","","","7","","stimuli/stars_7.png","280","","","","","stimuli/HM09_DO.jpg","",""
"explore-choice","159","421992","0.0-159.0","p476979","ANFWGSQ8BQRZ","3WPCIUYH1BELQU8EB2L3QVOOKYBTD4","3Y4W8Q93L1Q3Q6AX6ZQJGX7Y0VKVD6","model","match","uniform","","","","","","","764.9000000953674","423679.89999985695","424444.7999999523","[""stimuli/HF04_DO.jpg"",""stimuli/HM07_SC.jpg"",""stimuli/WF14_AO.jpg"",""stimuli/HM09_CC.jpg""]","stimuli/HF04_DO.jpg","stimuli/HM07_SC.jpg","stimuli/WF14_AO.jpg","stimuli/HM09_CC.jpg","pos4","stimuli/HM09_CC.jpg","CC","HM09","3","3","6","8","stimuli/stars_6.png","283","[""DO"",""SC"",""AO"",""CC""]","[""HF04"",""HM07"",""WF14"",""HM09""]","[2,4,6,6]","[2,4,6,8]","","",""
"show-reward","160","423996","0.0-160.0","p476979","ANFWGSQ8BQRZ","3WPCIUYH1BELQU8EB2L3QVOOKYBTD4","3Y4W8Q93L1Q3Q6AX6ZQJGX7Y0VKVD6","model","match","uniform","","","","","","","","424948.89999985695","426951","","","","","","","","","","","","6","","stimuli/stars_6.png","283","","","","","stimuli/HM09_CC.jpg","",""
"explore-choice","161","425931","0.0-161.0","p476979","ANFWGSQ8BQRZ","3WPCIUYH1BELQU8EB2L3QVOOKYBTD4","3Y4W8Q93L1Q3Q6AX6ZQJGX7Y0VKVD6","model","match","uniform","","","","","","","1420.4000000953674","426952.69999980927","428373.09999990463","[""stimuli/WF14_AO.jpg"",""stimuli/HM09_SC.jpg"",""stimuli/HF04_CC.jpg"",""stimuli/HM07_DO.jpg""]","stimuli/WF14_AO.jpg","stimuli/HM09_SC.jpg","stimuli/HF04_CC.jpg","stimuli/HM07_DO.jpg","pos2","stimuli/HM09_SC.jpg","SC","HM09","1","5","10","8","stimuli/stars_10.png","288","[""AO"",""SC"",""CC"",""DO""]","[""WF14"",""HM09"",""HF04"",""HM07""]","[8,10,2,6]","[6,8,2,4]","","",""
"show-reward","162","427951","0.0-162.0","p476979","ANFWGSQ8BQRZ","3WPCIUYH1BELQU8EB2L3QVOOKYBTD4","3Y4W8Q93L1Q3Q6AX6ZQJGX7Y0VKVD6","model","match","uniform","","","","","","","","428887.7999999523","430906.5","","","","","","","","","","","","10","","stimuli/stars_10.png","288","","","","","stimuli/HM09_SC.jpg","",""
"explore-choice","163","429702","0.0-163.0","p476979","ANFWGSQ8BQRZ","3WPCIUYH1BELQU8EB2L3QVOOKYBTD4","3Y4W8Q93L1Q3Q6AX6ZQJGX7Y0VKVD6","model","match","uniform","","","","","","","1248.6000001430511","430908.19999980927","432156.7999999523","[""stimuli/HM09_DO.jpg"",""stimuli/HM07_CC.jpg"",""stimuli/HF04_AO.jpg"",""stimuli/WF14_SC.jpg""]","stimuli/HM09_DO.jpg","stimuli/HM07_CC.jpg","stimuli/HF04_AO.jpg","stimuli/WF14_SC.jpg","pos1","stimuli/HM09_DO.jpg","DO","HM09","0","4.5","9","8","stimuli/stars_9.png","292.5","[""DO"",""CC"",""AO"",""SC""]","[""HM09"",""HM07"",""HF04"",""WF14""]","[9,5,4,8]","[8,4,2,6]","","",""
"show-reward","164","431714","0.0-164.0","p476979","ANFWGSQ8BQRZ","3WPCIUYH1BELQU8EB2L3QVOOKYBTD4","3Y4W8Q93L1Q3Q6AX6ZQJGX7Y0VKVD6","model","match","uniform","","","","","","","","432659","434668.89999985695","","","","","","","","","","","","9","","stimuli/stars_9.png","292.5","","","","","stimuli/HM09_DO.jpg","",""
"explore-choice","165","433381","0.0-165.0","p476979","ANFWGSQ8BQRZ","3WPCIUYH1BELQU8EB2L3QVOOKYBTD4","3Y4W8Q93L1Q3Q6AX6ZQJGX7Y0VKVD6","model","match","uniform","","","","","","","1153.1000001430511","434670.69999980927","435823.7999999523","[""stimuli/HF04_SC.jpg"",""stimuli/HM09_AO.jpg"",""stimuli/HM07_CC.jpg"",""stimuli/WF14_DO.jpg""]","stimuli/HF04_SC.jpg","stimuli/HM09_AO.jpg","stimuli/HM07_CC.jpg","stimuli/WF14_DO.jpg","pos2","stimuli/HM09_AO.jpg","AO","HM09","1","3","6","8","stimuli/stars_6.png","295.5","[""SC"",""AO"",""CC"",""DO""]","[""HF04"",""HM09"",""HM07"",""WF14""]","[2,6,2,8]","[2,8,4,6]","","",""
"show-reward","166","435408","0.0-166.0","p476979","ANFWGSQ8BQRZ","3WPCIUYH1BELQU8EB2L3QVOOKYBTD4","3Y4W8Q93L1Q3Q6AX6ZQJGX7Y0VKVD6","model","match","uniform","","","","","","","","436338.2999999523","438363.59999990463","","","","","","","","","","","","6","","stimuli/stars_6.png","295.5","","","","","stimuli/HM09_AO.jpg","",""
"explore-choice","167","436944","0.0-167.0","p476979","ANFWGSQ8BQRZ","3WPCIUYH1BELQU8EB2L3QVOOKYBTD4","3Y4W8Q93L1Q3Q6AX6ZQJGX7Y0VKVD6","model","match","uniform","","","","","","","1021.0999999046326","438365","439386.09999990463","[""stimuli/HF04_DO.jpg"",""stimuli/HM07_AO.jpg"",""stimuli/HM09_SC.jpg"",""stimuli/WF14_CC.jpg""]","stimuli/HF04_DO.jpg","stimuli/HM07_AO.jpg","stimuli/HM09_SC.jpg","stimuli/WF14_CC.jpg","pos3","stimuli/HM09_SC.jpg","SC","HM09","2","5","10","8","stimuli/stars_10.png","300.5","[""DO"",""AO"",""SC"",""CC""]","[""HF04"",""HM07"",""HM09"",""WF14""]","[1,2,10,4]","[2,4,8,6]","","",""
"show-reward","168","438965","0.0-168.0","p476979","ANFWGSQ8BQRZ","3WPCIUYH1BELQU8EB2L3QVOOKYBTD4","3Y4W8Q93L1Q3Q6AX6ZQJGX7Y0VKVD6","model","match","uniform","","","","","","","","439901.19999980927","441920.59999990463","","","","","","","","","","","","10","","stimuli/stars_10.png","300.5","","","","","stimuli/HM09_SC.jpg","",""
"explore-choice","169","440454","0.0-169.0","p476979","ANFWGSQ8BQRZ","3WPCIUYH1BELQU8EB2L3QVOOKYBTD4","3Y4W8Q93L1Q3Q6AX6ZQJGX7Y0VKVD6","model","match","uniform","","","","","","","984.8999998569489","441922.5","442907.39999985695","[""stimuli/WF14_CC.jpg"",""stimuli/HM07_DO.jpg"",""stimuli/HM09_AO.jpg"",""stimuli/HF04_SC.jpg""]","stimuli/WF14_CC.jpg","stimuli/HM07_DO.jpg","stimuli/HM09_AO.jpg","stimuli/HF04_SC.jpg","pos3","stimuli/HM09_AO.jpg","AO","HM09","2","4.5","9","8","stimuli/stars_9.png","305","[""CC"",""DO"",""AO"",""SC""]","[""WF14"",""HM07"",""HM09"",""HF04""]","[7,6,9,4]","[6,4,8,2]","","",""
"show-reward","170","442459","0.0-170.0","p476979","ANFWGSQ8BQRZ","3WPCIUYH1BELQU8EB2L3QVOOKYBTD4","3Y4W8Q93L1Q3Q6AX6ZQJGX7Y0VKVD6","model","match","uniform","","","","","","","","443410.5","445414","","","","","","","","","","","","9","","stimuli/stars_9.png","305","","","","","stimuli/HM09_AO.jpg","",""
"explore-choice","171","444248","0.0-171.0","p476979","ANFWGSQ8BQRZ","3WPCIUYH1BELQU8EB2L3QVOOKYBTD4","3Y4W8Q93L1Q3Q6AX6ZQJGX7Y0VKVD6","model","match","uniform","","","","","","","1277.5999999046326","445415.59999990463","446693.19999980927","[""stimuli/HM09_CC.jpg"",""stimuli/WF14_SC.jpg"",""stimuli/HF04_DO.jpg"",""stimuli/HM07_AO.jpg""]","stimuli/HM09_CC.jpg","stimuli/WF14_SC.jpg","stimuli/HF04_DO.jpg","stimuli/HM07_AO.jpg","pos1","stimuli/HM09_CC.jpg","CC","HM09","0","3","6","8","stimuli/stars_6.png","308","[""CC"",""SC"",""DO"",""AO""]","[""HM09"",""WF14"",""HF04"",""HM07""]","[6,4,0,4]","[8,6,2,4]","","",""
"show-reward","172","446254","0.0-172.0","p476979","ANFWGSQ8BQRZ","3WPCIUYH1BELQU8EB2L3QVOOKYBTD4","3Y4W8Q93L1Q3Q6AX6ZQJGX7Y0VKVD6","model","match","uniform","","","","","","","","447205.2999999523","449209.09999990463","","","","","","","","","","","","6","","stimuli/stars_6.png","308","","","","","stimuli/HM09_CC.jpg","",""
"explore-choice","173","447943","0.0-173.0","p476979","ANFWGSQ8BQRZ","3WPCIUYH1BELQU8EB2L3QVOOKYBTD4","3Y4W8Q93L1Q3Q6AX6ZQJGX7Y0VKVD6","model","match","uniform","","","","","","","1177.8999998569489","449210.5","450388.39999985695","[""stimuli/HM09_SC.jpg"",""stimuli/HM07_AO.jpg"",""stimuli/WF14_DO.jpg"",""stimuli/HF04_CC.jpg""]","stimuli/HM09_SC.jpg","stimuli/HM07_AO.jpg","stimuli/WF14_DO.jpg","stimuli/HF04_CC.jpg","pos1","stimuli/HM09_SC.jpg","SC","HM09","0","3","6","8","stimuli/stars_6.png","311","[""SC"",""AO"",""DO"",""CC""]","[""HM09"",""HM07"",""WF14"",""HF04""]","[6,3,5,3]","[8,4,6,2]","","",""
"show-reward","174","449948","0.0-174.0","p476979","ANFWGSQ8BQRZ","3WPCIUYH1BELQU8EB2L3QVOOKYBTD4","3Y4W8Q93L1Q3Q6AX6ZQJGX7Y0VKVD6","model","match","uniform","","","","","","","","450899.5","452903.89999985695","","","","","","","","","","","","6","","stimuli/stars_6.png","311","","","","","stimuli/HM09_SC.jpg","",""
"explore-choice","175","451314","0.0-175.0","p476979","ANFWGSQ8BQRZ","3WPCIUYH1BELQU8EB2L3QVOOKYBTD4","3Y4W8Q93L1Q3Q6AX6ZQJGX7Y0VKVD6","model","match","uniform","","","","","","","851.2000000476837","452905.39999985695","453756.59999990463","[""stimuli/HF04_AO.jpg"",""stimuli/HM07_SC.jpg"",""stimuli/WF14_CC.jpg"",""stimuli/HM09_DO.jpg""]","stimuli/HF04_AO.jpg","stimuli/HM07_SC.jpg","stimuli/WF14_CC.jpg","stimuli/HM09_DO.jpg","pos4","stimuli/HM09_DO.jpg","DO","HM09","3","3.5","7","8","stimuli/stars_7.png","314.5","[""AO"",""SC"",""CC"",""DO""]","[""HF04"",""HM07"",""WF14"",""HM09""]","[2,2,6,7]","[2,4,6,8]","","",""
"show-reward","176","453335","0.0-176.0","p476979","ANFWGSQ8BQRZ","3WPCIUYH1BELQU8EB2L3QVOOKYBTD4","3Y4W8Q93L1Q3Q6AX6ZQJGX7Y0VKVD6","model","match","uniform","","","","","","","","454271","456290.09999990463","","","","","","","","","","","","7","","stimuli/stars_7.png","314.5","","","","","stimuli/HM09_DO.jpg","",""
"explore-choice","177","454893","0.0-177.0","p476979","ANFWGSQ8BQRZ","3WPCIUYH1BELQU8EB2L3QVOOKYBTD4","3Y4W8Q93L1Q3Q6AX6ZQJGX7Y0VKVD6","model","match","uniform","","","","","","","1047.8999998569489","456291.2999999523","457339.19999980927","[""stimuli/HF04_CC.jpg"",""stimuli/HM07_DO.jpg"",""stimuli/HM09_AO.jpg"",""stimuli/WF14_SC.jpg""]","stimuli/HF04_CC.jpg","stimuli/HM07_DO.jpg","stimuli/HM09_AO.jpg","stimuli/WF14_SC.jpg","pos3","stimuli/HM09_AO.jpg","AO","HM09","2","5","10","8","stimuli/stars_10.png","319.5","[""CC"",""DO"",""AO"",""SC""]","[""HF04"",""HM07"",""HM09"",""WF14""]","[4,6,10,6]","[2,4,8,6]","","",""
"show-reward","178","456899","0.0-178.0","p476979","ANFWGSQ8BQRZ","3WPCIUYH1BELQU8EB2L3QVOOKYBTD4","3Y4W8Q93L1Q3Q6AX6ZQJGX7Y0VKVD6","model","match","uniform","","","","","","","","457850.2999999523","459854.59999990463","","","","","","","","","","","","10","","stimuli/stars_10.png","319.5","","","","","stimuli/HM09_AO.jpg","",""
"explore-choice","179","458890","0.0-179.0","p476979","ANFWGSQ8BQRZ","3WPCIUYH1BELQU8EB2L3QVOOKYBTD4","3Y4W8Q93L1Q3Q6AX6ZQJGX7Y0VKVD6","model","match","uniform","","","","","","","1473.2999999523163","459856.2999999523","461329.59999990463","[""stimuli/HF04_SC.jpg"",""stimuli/WF14_DO.jpg"",""stimuli/HM07_AO.jpg"",""stimuli/HM09_CC.jpg""]","stimuli/HF04_SC.jpg","stimuli/WF14_DO.jpg","stimuli/HM07_AO.jpg","stimuli/HM09_CC.jpg","pos4","stimuli/HM09_CC.jpg","CC","HM09","3","5","10","8","stimuli/stars_10.png","324.5","[""SC"",""DO"",""AO"",""CC""]","[""HF04"",""WF14"",""HM07"",""HM09""]","[2,8,2,10]","[2,6,4,8]","","",""
"show-reward","180","460895","0.0-180.0","p476979","ANFWGSQ8BQRZ","3WPCIUYH1BELQU8EB2L3QVOOKYBTD4","3Y4W8Q93L1Q3Q6AX6ZQJGX7Y0VKVD6","model","match","uniform","","","","","","","","461846.59999990463","463850.59999990463","","","","","","","","","","","","10","","stimuli/stars_10.png","324.5","","","","","stimuli/HM09_CC.jpg","",""
"explore-choice","181","462416","0.0-181.0","p476979","ANFWGSQ8BQRZ","3WPCIUYH1BELQU8EB2L3QVOOKYBTD4","3Y4W8Q93L1Q3Q6AX6ZQJGX7Y0VKVD6","model","match","uniform","","","","","","","1010.3999998569489","463852.2999999523","464862.69999980927","[""stimuli/HF04_AO.jpg"",""stimuli/WF14_DO.jpg"",""stimuli/HM09_SC.jpg"",""stimuli/HM07_CC.jpg""]","stimuli/HF04_AO.jpg","stimuli/WF14_DO.jpg","stimuli/HM09_SC.jpg","stimuli/HM07_CC.jpg","pos3","stimuli/HM09_SC.jpg","SC","HM09","2","3","6","8","stimuli/stars_6.png","327.5","[""AO"",""DO"",""SC"",""CC""]","[""HF04"",""WF14"",""HM09"",""HM07""]","[1,8,6,4]","[2,6,8,4]","","",""
"show-reward","182","464436","0.0-182.0","p476979","ANFWGSQ8BQRZ","3WPCIUYH1BELQU8EB2L3QVOOKYBTD4","3Y4W8Q93L1Q3Q6AX6ZQJGX7Y0VKVD6","model","match","uniform","","","","","","","","465372.7999999523","467391.59999990463","","","","","","","","","","","","6","","stimuli/stars_6.png","327.5","","","","","stimuli/HM09_SC.jpg","",""
"explore-choice","183","465940","0.0-183.0","p476979","ANFWGSQ8BQRZ","3WPCIUYH1BELQU8EB2L3QVOOKYBTD4","3Y4W8Q93L1Q3Q6AX6ZQJGX7Y0VKVD6","model","match","uniform","","","","","","","998.2000000476837","467393.09999990463","468391.2999999523","[""stimuli/HF04_SC.jpg"",""stimuli/WF14_AO.jpg"",""stimuli/HM09_CC.jpg"",""stimuli/HM07_DO.jpg""]","stimuli/HF04_SC.jpg","stimuli/WF14_AO.jpg","stimuli/HM09_CC.jpg","stimuli/HM07_DO.jpg","pos3","stimuli/HM09_CC.jpg","CC","HM09","2","3","6","8","stimuli/stars_6.png","330.5","[""SC"",""AO"",""CC"",""DO""]","[""HF04"",""WF14"",""HM09"",""HM07""]","[0,8,6,5]","[2,6,8,4]","","",""
"show-reward","184","467946","0.0-184.0","p476979","ANFWGSQ8BQRZ","3WPCIUYH1BELQU8EB2L3QVOOKYBTD4","3Y4W8Q93L1Q3Q6AX6ZQJGX7Y0VKVD6","model","match","uniform","","","","","","","","468897.19999980927","470901.2999999523","","","","","","","","","","","","6","","stimuli/stars_6.png","330.5","","","","","stimuli/HM09_CC.jpg","",""
"explore-choice","185","469635","0.0-185.0","p476979","ANFWGSQ8BQRZ","3WPCIUYH1BELQU8EB2L3QVOOKYBTD4","3Y4W8Q93L1Q3Q6AX6ZQJGX7Y0VKVD6","model","match","uniform","","","","","","","1182.2000000476837","470902.7999999523","472085","[""stimuli/HM09_DO.jpg"",""stimuli/WF14_AO.jpg"",""stimuli/HM07_SC.jpg"",""stimuli/HF04_CC.jpg""]","stimuli/HM09_DO.jpg","stimuli/WF14_AO.jpg","stimuli/HM07_SC.jpg","stimuli/HF04_CC.jpg","pos1","stimuli/HM09_DO.jpg","DO","HM09","0","3.5","7","8","stimuli/stars_7.png","334","[""DO"",""AO"",""SC"",""CC""]","[""HM09"",""WF14"",""HM07"",""HF04""]","[7,5,4,0]","[8,6,4,2]","","",""
"show-reward","186","471657","0.0-186.0","p476979","ANFWGSQ8BQRZ","3WPCIUYH1BELQU8EB2L3QVOOKYBTD4","3Y4W8Q93L1Q3Q6AX6ZQJGX7Y0VKVD6","model","match","uniform","","","","","","","","472592.2999999523","474611.89999985695","","","","","","","","","","","","7","","stimuli/stars_7.png","334","","","","","stimuli/HM09_DO.jpg","",""
"explore-choice","187","473261","0.0-187.0","p476979","ANFWGSQ8BQRZ","3WPCIUYH1BELQU8EB2L3QVOOKYBTD4","3Y4W8Q93L1Q3Q6AX6ZQJGX7Y0VKVD6","model","match","uniform","","","","","","","1087.5","474613.39999985695","475700.89999985695","[""stimuli/WF14_AO.jpg"",""stimuli/HF04_DO.jpg"",""stimuli/HM09_SC.jpg"",""stimuli/HM07_CC.jpg""]","stimuli/WF14_AO.jpg","stimuli/HF04_DO.jpg","stimuli/HM09_SC.jpg","stimuli/HM07_CC.jpg","pos3","stimuli/HM09_SC.jpg","SC","HM09","2","4.5","9","8","stimuli/stars_9.png","338.5","[""AO"",""DO"",""SC"",""CC""]","[""WF14"",""HF04"",""HM09"",""HM07""]","[5,3,9,5]","[6,2,8,4]","","",""
"show-reward","188","475266","0.0-188.0","p476979","ANFWGSQ8BQRZ","3WPCIUYH1BELQU8EB2L3QVOOKYBTD4","3Y4W8Q93L1Q3Q6AX6ZQJGX7Y0VKVD6","model","match","uniform","","","","","","","","476217.5","478221.69999980927","","","","","","","","","","","","9","","stimuli/stars_9.png","338.5","","","","","stimuli/HM09_SC.jpg","",""
"explore-choice","189","477141","0.0-189.0","p476979","ANFWGSQ8BQRZ","3WPCIUYH1BELQU8EB2L3QVOOKYBTD4","3Y4W8Q93L1Q3Q6AX6ZQJGX7Y0VKVD6","model","match","uniform","","","","","","","1363.2000000476837","478223.39999985695","479586.59999990463","[""stimuli/HM09_DO.jpg"",""stimuli/HF04_SC.jpg"",""stimuli/HM07_CC.jpg"",""stimuli/WF14_AO.jpg""]","stimuli/HM09_DO.jpg","stimuli/HF04_SC.jpg","stimuli/HM07_CC.jpg","stimuli/WF14_AO.jpg","pos1","stimuli/HM09_DO.jpg","DO","HM09","0","3.5","7","8","stimuli/stars_7.png","342","[""DO"",""SC"",""CC"",""AO""]","[""HM09"",""HF04"",""HM07"",""WF14""]","[7,0,2,7]","[8,2,4,6]","","",""
"show-reward","190","479147","0.0-190.0","p476979","ANFWGSQ8BQRZ","3WPCIUYH1BELQU8EB2L3QVOOKYBTD4","3Y4W8Q93L1Q3Q6AX6ZQJGX7Y0VKVD6","model","match","uniform","","","","","","","","480097.69999980927","482102.09999990463","","","","","","","","","","","","7","","stimuli/stars_7.png","342","","","","","stimuli/HM09_DO.jpg","",""
"explore-choice","191","480953","0.0-191.0","p476979","ANFWGSQ8BQRZ","3WPCIUYH1BELQU8EB2L3QVOOKYBTD4","3Y4W8Q93L1Q3Q6AX6ZQJGX7Y0VKVD6","model","match","uniform","","","","","","","1298","482103.7999999523","483401.7999999523","[""stimuli/WF14_DO.jpg"",""stimuli/HM07_SC.jpg"",""stimuli/HF04_CC.jpg"",""stimuli/HM09_AO.jpg""]","stimuli/WF14_DO.jpg","stimuli/HM07_SC.jpg","stimuli/HF04_CC.jpg","stimuli/HM09_AO.jpg","pos4","stimuli/HM09_AO.jpg","AO","HM09","3","4","8","8","stimuli/stars_8.png","346","[""DO"",""SC"",""CC"",""AO""]","[""WF14"",""HM07"",""HF04"",""HM09""]","[8,4,0,8]","[6,4,2,8]","","",""
"show-reward","192","482958","0.0-192.0","p476979","ANFWGSQ8BQRZ","3WPCIUYH1BELQU8EB2L3QVOOKYBTD4","3Y4W8Q93L1Q3Q6AX6ZQJGX7Y0VKVD6","model","match","uniform","","","","","","","","483909.2999999523","485913.5","","","","","","","","","","","","8","","stimuli/stars_8.png","346","","","","","stimuli/HM09_AO.jpg","",""
"explore-choice","193","484562","0.0-193.0","p476979","ANFWGSQ8BQRZ","3WPCIUYH1BELQU8EB2L3QVOOKYBTD4","3Y4W8Q93L1Q3Q6AX6ZQJGX7Y0VKVD6","model","match","uniform","","","","","","","1100.5999999046326","485915.2999999523","487015.89999985695","[""stimuli/HM09_DO.jpg"",""stimuli/WF14_CC.jpg"",""stimuli/HM07_AO.jpg"",""stimuli/HF04_SC.jpg""]","stimuli/HM09_DO.jpg","stimuli/WF14_CC.jpg","stimuli/HM07_AO.jpg","stimuli/HF04_SC.jpg","pos1","stimuli/HM09_DO.jpg","DO","HM09","0","5","10","8","stimuli/stars_10.png","351","[""DO"",""CC"",""AO"",""SC""]","[""HM09"",""WF14"",""HM07"",""HF04""]","[10,8,3,0]","[8,6,4,2]","","",""
"show-reward","194","486569","0.0-194.0","p476979","ANFWGSQ8BQRZ","3WPCIUYH1BELQU8EB2L3QVOOKYBTD4","3Y4W8Q93L1Q3Q6AX6ZQJGX7Y0VKVD6","model","match","uniform","","","","","","","","487518.69999980927","489523.89999985695","","","","","","","","","","","","10","","stimuli/stars_10.png","351","","","","","stimuli/HM09_DO.jpg","",""
"explore-choice","195","488389","0.0-195.0","p476979","ANFWGSQ8BQRZ","3WPCIUYH1BELQU8EB2L3QVOOKYBTD4","3Y4W8Q93L1Q3Q6AX6ZQJGX7Y0VKVD6","model","match","uniform","","","","","","","1317.1000001430511","489525.69999980927","490842.7999999523","[""stimuli/HF04_DO.jpg"",""stimuli/HM07_SC.jpg"",""stimuli/HM09_AO.jpg"",""stimuli/WF14_CC.jpg""]","stimuli/HF04_DO.jpg","stimuli/HM07_SC.jpg","stimuli/HM09_AO.jpg","stimuli/WF14_CC.jpg","pos3","stimuli/HM09_AO.jpg","AO","HM09","2","5","10","8","stimuli/stars_10.png","356","[""DO"",""SC"",""AO"",""CC""]","[""HF04"",""HM07"",""HM09"",""WF14""]","[4,3,10,7]","[2,4,8,6]","","",""
"show-reward","196","490395","0.0-196.0","p476979","ANFWGSQ8BQRZ","3WPCIUYH1BELQU8EB2L3QVOOKYBTD4","3Y4W8Q93L1Q3Q6AX6ZQJGX7Y0VKVD6","model","match","uniform","","","","","","","","491345.89999985695","493350.59999990463","","","","","","","","","","","","10","","stimuli/stars_10.png","356","","","","","stimuli/HM09_AO.jpg","",""
"explore-choice","197","491815","0.0-197.0","p476979","ANFWGSQ8BQRZ","3WPCIUYH1BELQU8EB2L3QVOOKYBTD4","3Y4W8Q93L1Q3Q6AX6ZQJGX7Y0VKVD6","model","match","uniform","","","","","","","908.3999998569489","493351.7999999523","494260.19999980927","[""stimuli/WF14_SC.jpg"",""stimuli/HM07_CC.jpg"",""stimuli/HM09_AO.jpg"",""stimuli/HF04_DO.jpg""]","stimuli/WF14_SC.jpg","stimuli/HM07_CC.jpg","stimuli/HM09_AO.jpg","stimuli/HF04_DO.jpg","pos3","stimuli/HM09_AO.jpg","AO","HM09","2","4.5","9","8","stimuli/stars_9.png","360.5","[""SC"",""CC"",""AO"",""DO""]","[""WF14"",""HM07"",""HM09"",""HF04""]","[7,5,9,3]","[6,4,8,2]","","",""
"show-reward","198","493821","0.0-198.0","p476979","ANFWGSQ8BQRZ","3WPCIUYH1BELQU8EB2L3QVOOKYBTD4","3Y4W8Q93L1Q3Q6AX6ZQJGX7Y0VKVD6","model","match","uniform","","","","","","","","494772","496776.39999985695","","","","","","","","","","","","9","","stimuli/stars_9.png","360.5","","","","","stimuli/HM09_AO.jpg","",""
"instructions","199","498847","0.0-199.0","p476979","ANFWGSQ8BQRZ","3WPCIUYH1BELQU8EB2L3QVOOKYBTD4","3Y4W8Q93L1Q3Q6AX6ZQJGX7Y0VKVD6","model","match","uniform","","","","","","[{""page_index"":0,""viewing_time"":5023.899999856949}]","5024.5","","","","","","","","","","","","","","","","","","","","","","","",""
"survey-text","200","504548","0.0-200.0-0.0","p476979","ANFWGSQ8BQRZ","3WPCIUYH1BELQU8EB2L3QVOOKYBTD4","3Y4W8Q93L1Q3Q6AX6ZQJGX7Y0VKVD6","model","match","uniform","","","","","","","5693","","","","","","","","","","","","","","","","","","","","","","","{""age"":""47""}",""
"survey-text","201","509466","0.0-200.0-1.0","p476979","ANFWGSQ8BQRZ","3WPCIUYH1BELQU8EB2L3QVOOKYBTD4","3Y4W8Q93L1Q3Q6AX6ZQJGX7Y0VKVD6","model","match","uniform","","","","","","","4909.399999856949","","","","","","","","","","","","","","","","","","","","","","","{""gender"":""male""}",""
"survey-text","202","518666","0.0-200.0-2.0","p476979","ANFWGSQ8BQRZ","3WPCIUYH1BELQU8EB2L3QVOOKYBTD4","3Y4W8Q93L1Q3Q6AX6ZQJGX7Y0VKVD6","model","match","uniform","","","","","","","9196.400000095367","","","","","","","","","","","","","","","","","","","","","","","{""country"":""United States""}",""
"survey-text","203","525514","0.0-200.0-3.0","p476979","ANFWGSQ8BQRZ","3WPCIUYH1BELQU8EB2L3QVOOKYBTD4","3Y4W8Q93L1Q3Q6AX6ZQJGX7Y0VKVD6","model","match","uniform","","","","","","","6842.899999856949","","","","","","","","","","","","","","","","","","","","","","","{""language"":""English"",""other_languages"":""""}",""
"survey-multi-select","204","529251","0.0-201.0","p476979","ANFWGSQ8BQRZ","3WPCIUYH1BELQU8EB2L3QVOOKYBTD4","3Y4W8Q93L1Q3Q6AX6ZQJGX7Y0VKVD6","model","match","uniform","","","","","","","3726.7000000476837","","","","","","","","","","","","","","","","","","","","","","","{""race"":[""White""]}","[0]"
"survey-multi-choice","205","532538","0.0-202.0","p476979","ANFWGSQ8BQRZ","3WPCIUYH1BELQU8EB2L3QVOOKYBTD4","3Y4W8Q93L1Q3Q6AX6ZQJGX7Y0VKVD6","model","match","uniform","","","","","","","3283.5","","","","","","","","","","","","","","","","","","","","","","","{""education"":""Master's degree""}","[0]"
"survey-text","206","665353","0.0-203.0","p476979","ANFWGSQ8BQRZ","3WPCIUYH1BELQU8EB2L3QVOOKYBTD4","3Y4W8Q93L1Q3Q6AX6ZQJGX7Y0VKVD6","model","match","uniform","","","","","","","132797.20000004768","","","","","","","","","","","","","","","","","","","","","","","{""patterns"":""The stars seemed to be more associated with the people than their expressions. For a given person, it did seem like some expressions provided more stars than others."",""strategy"":""I mostly just chose the person who most consistently provided a lot of stars."",""comments"":""""}",""
