"trial_type","trial_index","time_elapsed","internal_node_id","subject","workerId","hitId","assignmentId","structure_condition","match_condition","noise_type","success","timeout","failed_images","failed_audio","failed_video","view_history","rt","start_time","end_time","stimuli","image1","image2","image3","image4","choiceLocation","choiceImage","choiceEmotion","choiceModel","choice_index","reward_score","reward","reward_score_unadjusted","reward_image","score_after_trial","emotions","models","rewards","rewards_unadjusted","stimulus","response","question_order"
"pavlovia","0","9","0.0-0.0","p569079","A1JM5XNB4NCZR6","336OE47KI3QZCSCUXSQ8J11UOZXVWV","3H7XDTSHKEXJHFKTYZWN8KT9KW5WGU","model","mismatch","uniform","","","","","","","","","","","","","","","","","","","","","","","","","","","","","","",""
"preload","1","2758","0.0-1.0","p569079","A1JM5XNB4NCZR6","336OE47KI3QZCSCUXSQ8J11UOZXVWV","3H7XDTSHKEXJHFKTYZWN8KT9KW5WGU","model","mismatch","uniform","true","false","[]","[]","[]","","","","","","","","","","","","","","","","","","","","","","","","","",""
"fullscreen","2","26479","0.0-2.0","p569079","A1JM5XNB4NCZR6","336OE47KI3QZCSCUXSQ8J11UOZXVWV","3H7XDTSHKEXJHFKTYZWN8KT9KW5WGU","model","mismatch","uniform","true","","","","","","","","","","","","","","","","","","","","","","","","","","","","","",""
"instructions","3","30749","0.0-3.0","p569079","A1JM5XNB4NCZR6","336OE47KI3QZCSCUXSQ8J11UOZXVWV","3H7XDTSHKEXJHFKTYZWN8KT9KW5WGU","model","mismatch","uniform","","","","","","[{""page_index"":0,""viewing_time"":4266.5}]","4267.70000000298","","","","","","","","","","","","","","","","","","","","","","","",""
"explore-choice","4","33391","0.0-4.0","p569079","A1JM5XNB4NCZR6","336OE47KI3QZCSCUXSQ8J11UOZXVWV","3H7XDTSHKEXJHFKTYZWN8KT9KW5WGU","model","mismatch","uniform","","","","","","","2139.800000011921","33337","35476.80000001192","[""stimuli/sheep.jpg"",""stimuli/hammer.jpg"",""stimuli/basketball.jpg"",""stimuli/horse.jpg""]","stimuli/sheep.jpg","stimuli/hammer.jpg","stimuli/basketball.jpg","stimuli/horse.jpg","pos4","stimuli/horse.jpg","","","3","64","64","64","stimuli/stars_8.png","65","","","","","","",""
"explore-choice","5","35644","0.0-5.0","p569079","A1JM5XNB4NCZR6","336OE47KI3QZCSCUXSQ8J11UOZXVWV","3H7XDTSHKEXJHFKTYZWN8KT9KW5WGU","model","mismatch","uniform","","","","","","","1747.7999999970198","35978.20000000298","37726","[""stimuli/hammer.jpg"",""stimuli/basketball.jpg"",""stimuli/horse.jpg"",""stimuli/sheep.jpg""]","stimuli/hammer.jpg","stimuli/basketball.jpg","stimuli/horse.jpg","stimuli/sheep.jpg","pos1","stimuli/hammer.jpg","","","0","8","8","8","stimuli/stars_2.png","9","","","","","","",""
"instructions","6","44375","0.0-6.0","p569079","A1JM5XNB4NCZR6","336OE47KI3QZCSCUXSQ8J11UOZXVWV","3H7XDTSHKEXJHFKTYZWN8KT9KW5WGU","model","mismatch","uniform","","","","","","[{""page_index"":0,""viewing_time"":8728.800000011921}]","8729.70000000298","","","","","","","","","","","","","","","","","","","","","","","",""
"explore-choice","7","48735","0.0-7.0","p569079","A1JM5XNB4NCZR6","336OE47KI3QZCSCUXSQ8J11UOZXVWV","3H7XDTSHKEXJHFKTYZWN8KT9KW5WGU","model","mismatch","uniform","","","","","","","3857.6000000089407","46964","50821.60000000894","[""stimuli/BM07_CC.jpg"",""stimuli/BF05_AO.jpg"",""stimuli/HM09_FO.jpg"",""stimuli/WM11_HO.jpg""]","stimuli/BM07_CC.jpg","stimuli/BF05_AO.jpg","stimuli/HM09_FO.jpg","stimuli/WM11_HO.jpg","pos4","stimuli/WM11_HO.jpg","HO","WM11","3","4.5","9","8","stimuli/stars_9.png","5.5","[""CC"",""AO"",""FO"",""HO""]","[""BM07"",""BF05"",""HM09"",""WM11""]","[7,6,2,9]","[6,4,2,8]","","",""
"show-reward","8","50742","0.0-8.0","p569079","A1JM5XNB4NCZR6","336OE47KI3QZCSCUXSQ8J11UOZXVWV","3H7XDTSHKEXJHFKTYZWN8KT9KW5WGU","model","mismatch","uniform","","","","","","","","51322.90000000596","53328.80000001192","","","","","","","","","","","","9","","stimuli/stars_9.png","5.5","","","","","stimuli/WM11_HO.jpg","",""
"explore-choice","9","55495","0.0-9.0","p569079","A1JM5XNB4NCZR6","336OE47KI3QZCSCUXSQ8J11UOZXVWV","3H7XDTSHKEXJHFKTYZWN8KT9KW5WGU","model","mismatch","uniform","","","","","","","4246.5999999940395","53329.80000001192","57576.40000000596","[""stimuli/BF05_AO.jpg"",""stimuli/HM09_FO.jpg"",""stimuli/BM07_HO.jpg"",""stimuli/WM11_CC.jpg""]","stimuli/BF05_AO.jpg","stimuli/HM09_FO.jpg","stimuli/BM07_HO.jpg","stimuli/WM11_CC.jpg","pos3","stimuli/BM07_HO.jpg","HO","BM07","2","4","8","6","stimuli/stars_8.png","9.5","[""AO"",""FO"",""HO"",""CC""]","[""BF05"",""HM09"",""BM07"",""WM11""]","[4,4,8,8]","[4,2,6,8]","","",""
"show-reward","10","57505","0.0-10.0","p569079","A1JM5XNB4NCZR6","336OE47KI3QZCSCUXSQ8J11UOZXVWV","3H7XDTSHKEXJHFKTYZWN8KT9KW5WGU","model","mismatch","uniform","","","","","","","","58083.40000000596","60090.90000000596","","","","","","","","","","","","8","","stimuli/stars_8.png","9.5","","","","","stimuli/BM07_HO.jpg","",""
"explore-choice","11","60396","0.0-11.0","p569079","A1JM5XNB4NCZR6","336OE47KI3QZCSCUXSQ8J11UOZXVWV","3H7XDTSHKEXJHFKTYZWN8KT9KW5WGU","model","mismatch","uniform","","","","","","","2389.0999999940395","60092.80000001192","62481.90000000596","[""stimuli/BM07_FO.jpg"",""stimuli/HM09_AO.jpg"",""stimuli/WM11_CC.jpg"",""stimuli/BF05_HO.jpg""]","stimuli/BM07_FO.jpg","stimuli/HM09_AO.jpg","stimuli/WM11_CC.jpg","stimuli/BF05_HO.jpg","pos4","stimuli/BF05_HO.jpg","HO","BF05","3","2.5","5","4","stimuli/stars_5.png","12","[""FO"",""AO"",""CC"",""HO""]","[""BM07"",""HM09"",""WM11"",""BF05""]","[8,1,8,5]","[6,2,8,4]","","",""
"show-reward","12","62400","0.0-12.0","p569079","A1JM5XNB4NCZR6","336OE47KI3QZCSCUXSQ8J11UOZXVWV","3H7XDTSHKEXJHFKTYZWN8KT9KW5WGU","model","mismatch","uniform","","","","","","","","62983.70000000298","64986.20000000298","","","","","","","","","","","","5","","stimuli/stars_5.png","12","","","","","stimuli/BF05_HO.jpg","",""
"explore-choice","13","65857","0.0-13.0","p569079","A1JM5XNB4NCZR6","336OE47KI3QZCSCUXSQ8J11UOZXVWV","3H7XDTSHKEXJHFKTYZWN8KT9KW5WGU","model","mismatch","uniform","","","","","","","2954.2999999970198","64988.30000001192","67942.60000000894","[""stimuli/BM07_CC.jpg"",""stimuli/HM09_AO.jpg"",""stimuli/WM11_FO.jpg"",""stimuli/BF05_HO.jpg""]","stimuli/BM07_CC.jpg","stimuli/HM09_AO.jpg","stimuli/WM11_FO.jpg","stimuli/BF05_HO.jpg","pos4","stimuli/BF05_HO.jpg","HO","BF05","3","1.5","3","4","stimuli/stars_3.png","13.5","[""CC"",""AO"",""FO"",""HO""]","[""BM07"",""HM09"",""WM11"",""BF05""]","[5,1,7,3]","[6,2,8,4]","","",""
"show-reward","14","67862","0.0-14.0","p569079","A1JM5XNB4NCZR6","336OE47KI3QZCSCUXSQ8J11UOZXVWV","3H7XDTSHKEXJHFKTYZWN8KT9KW5WGU","model","mismatch","uniform","","","","","","","","68444.5","70448.90000000596","","","","","","","","","","","","3","","stimuli/stars_3.png","13.5","","","","","stimuli/BF05_HO.jpg","",""
"explore-choice","15","72117","0.0-15.0","p569079","A1JM5XNB4NCZR6","336OE47KI3QZCSCUXSQ8J11UOZXVWV","3H7XDTSHKEXJHFKTYZWN8KT9KW5WGU","model","mismatch","uniform","","","","","","","3749","70449.5","74198.5","[""stimuli/BF05_HO.jpg"",""stimuli/HM09_CC.jpg"",""stimuli/WM11_FO.jpg"",""stimuli/BM07_AO.jpg""]","stimuli/BF05_HO.jpg","stimuli/HM09_CC.jpg","stimuli/WM11_FO.jpg","stimuli/BM07_AO.jpg","pos3","stimuli/WM11_FO.jpg","FO","WM11","2","4","8","8","stimuli/stars_8.png","17.5","[""HO"",""CC"",""FO"",""AO""]","[""BF05"",""HM09"",""WM11"",""BM07""]","[3,2,8,8]","[4,2,8,6]","","",""
"show-reward","16","74119","0.0-16.0","p569079","A1JM5XNB4NCZR6","336OE47KI3QZCSCUXSQ8J11UOZXVWV","3H7XDTSHKEXJHFKTYZWN8KT9KW5WGU","model","mismatch","uniform","","","","","","","","74704.40000000596","76706","","","","","","","","","","","","8","","stimuli/stars_8.png","17.5","","","","","stimuli/WM11_FO.jpg","",""
"explore-choice","17","78567","0.0-17.0","p569079","A1JM5XNB4NCZR6","336OE47KI3QZCSCUXSQ8J11UOZXVWV","3H7XDTSHKEXJHFKTYZWN8KT9KW5WGU","model","mismatch","uniform","","","","","","","3946.2000000029802","76706.70000000298","80652.90000000596","[""stimuli/HM09_HO.jpg"",""stimuli/BM07_FO.jpg"",""stimuli/BF05_CC.jpg"",""stimuli/WM11_AO.jpg""]","stimuli/HM09_HO.jpg","stimuli/BM07_FO.jpg","stimuli/BF05_CC.jpg","stimuli/WM11_AO.jpg","pos1","stimuli/HM09_HO.jpg","HO","HM09","0","0","0","2","stimuli/stars_0.png","17.5","[""HO"",""FO"",""CC"",""AO""]","[""HM09"",""BM07"",""BF05"",""WM11""]","[0,7,6,10]","[2,6,4,8]","","",""
"show-reward","18","80571","0.0-18.0","p569079","A1JM5XNB4NCZR6","336OE47KI3QZCSCUXSQ8J11UOZXVWV","3H7XDTSHKEXJHFKTYZWN8KT9KW5WGU","model","mismatch","uniform","","","","","","","","81155.20000000298","83157.70000000298","","","","","","","","","","","","0","","stimuli/stars_0.png","17.5","","","","","stimuli/HM09_HO.jpg","",""
"explore-choice","19","83727","0.0-19.0","p569079","A1JM5XNB4NCZR6","336OE47KI3QZCSCUXSQ8J11UOZXVWV","3H7XDTSHKEXJHFKTYZWN8KT9KW5WGU","model","mismatch","uniform","","","","","","","2650.300000011921","83159.5","85809.80000001192","[""stimuli/BM07_HO.jpg"",""stimuli/BF05_AO.jpg"",""stimuli/WM11_FO.jpg"",""stimuli/HM09_CC.jpg""]","stimuli/BM07_HO.jpg","stimuli/BF05_AO.jpg","stimuli/WM11_FO.jpg","stimuli/HM09_CC.jpg","pos3","stimuli/WM11_FO.jpg","FO","WM11","2","4","8","8","stimuli/stars_8.png","21.5","[""HO"",""AO"",""FO"",""CC""]","[""BM07"",""BF05"",""WM11"",""HM09""]","[5,4,8,1]","[6,4,8,2]","","",""
"show-reward","20","85730","0.0-20.0","p569079","A1JM5XNB4NCZR6","336OE47KI3QZCSCUXSQ8J11UOZXVWV","3H7XDTSHKEXJHFKTYZWN8KT9KW5WGU","model","mismatch","uniform","","","","","","","","86314.10000000894","88316.10000000894","","","","","","","","","","","","8","","stimuli/stars_8.png","21.5","","","","","stimuli/WM11_FO.jpg","",""
"explore-choice","21","87750","0.0-21.0","p569079","A1JM5XNB4NCZR6","336OE47KI3QZCSCUXSQ8J11UOZXVWV","3H7XDTSHKEXJHFKTYZWN8KT9KW5WGU","model","mismatch","uniform","","","","","","","1519.300000011921","88317.5","89836.80000001192","[""stimuli/BM07_AO.jpg"",""stimuli/WM11_HO.jpg"",""stimuli/BF05_CC.jpg"",""stimuli/HM09_FO.jpg""]","stimuli/BM07_AO.jpg","stimuli/WM11_HO.jpg","stimuli/BF05_CC.jpg","stimuli/HM09_FO.jpg","pos2","stimuli/WM11_HO.jpg","HO","WM11","1","5","10","8","stimuli/stars_10.png","26.5","[""AO"",""HO"",""CC"",""FO""]","[""BM07"",""WM11"",""BF05"",""HM09""]","[5,10,4,3]","[6,8,4,2]","","",""
"show-reward","22","89754","0.0-22.0","p569079","A1JM5XNB4NCZR6","336OE47KI3QZCSCUXSQ8J11UOZXVWV","3H7XDTSHKEXJHFKTYZWN8KT9KW5WGU","model","mismatch","uniform","","","","","","","","90337.40000000596","92340.30000001192","","","","","","","","","","","","10","","stimuli/stars_10.png","26.5","","","","","stimuli/WM11_HO.jpg","",""
"explore-choice","23","93418","0.0-23.0","p569079","A1JM5XNB4NCZR6","336OE47KI3QZCSCUXSQ8J11UOZXVWV","3H7XDTSHKEXJHFKTYZWN8KT9KW5WGU","model","mismatch","uniform","","","","","","","3159","92342","95501","[""stimuli/BM07_CC.jpg"",""stimuli/WM11_AO.jpg"",""stimuli/BF05_FO.jpg"",""stimuli/HM09_HO.jpg""]","stimuli/BM07_CC.jpg","stimuli/WM11_AO.jpg","stimuli/BF05_FO.jpg","stimuli/HM09_HO.jpg","pos1","stimuli/BM07_CC.jpg","CC","BM07","0","3.5","7","6","stimuli/stars_7.png","30","[""CC"",""AO"",""FO"",""HO""]","[""BM07"",""WM11"",""BF05"",""HM09""]","[7,6,3,2]","[6,8,4,2]","","",""
"show-reward","24","95423","0.0-24.0","p569079","A1JM5XNB4NCZR6","336OE47KI3QZCSCUXSQ8J11UOZXVWV","3H7XDTSHKEXJHFKTYZWN8KT9KW5WGU","model","mismatch","uniform","","","","","","","","96005.90000000596","98009.5","","","","","","","","","","","","7","","stimuli/stars_7.png","30","","","","","stimuli/BM07_CC.jpg","",""
"explore-choice","25","99113","0.0-25.0","p569079","A1JM5XNB4NCZR6","336OE47KI3QZCSCUXSQ8J11UOZXVWV","3H7XDTSHKEXJHFKTYZWN8KT9KW5WGU","model","mismatch","uniform","","","","","","","3189","98010.10000000894","101199.10000000894","[""stimuli/HM09_FO.jpg"",""stimuli/BM07_AO.jpg"",""stimuli/WM11_CC.jpg"",""stimuli/BF05_HO.jpg""]","stimuli/HM09_FO.jpg","stimuli/BM07_AO.jpg","stimuli/WM11_CC.jpg","stimuli/BF05_HO.jpg","pos3","stimuli/WM11_CC.jpg","CC","WM11","2","4","8","8","stimuli/stars_8.png","34","[""FO"",""AO"",""CC"",""HO""]","[""HM09"",""BM07"",""WM11"",""BF05""]","[1,8,8,4]","[2,6,8,4]","","",""
"show-reward","26","101121","0.0-26.0","p569079","A1JM5XNB4NCZR6","336OE47KI3QZCSCUXSQ8J11UOZXVWV","3H7XDTSHKEXJHFKTYZWN8KT9KW5WGU","model","mismatch","uniform","","","","","","","","101701.10000000894","103708","","","","","","","","","","","","8","","stimuli/stars_8.png","34","","","","","stimuli/WM11_CC.jpg","",""
"explore-choice","27","105063","0.0-27.0","p569079","A1JM5XNB4NCZR6","336OE47KI3QZCSCUXSQ8J11UOZXVWV","3H7XDTSHKEXJHFKTYZWN8KT9KW5WGU","model","mismatch","uniform","","","","","","","3440.2999999970198","103708.80000001192","107149.10000000894","[""stimuli/BM07_HO.jpg"",""stimuli/HM09_CC.jpg"",""stimuli/BF05_FO.jpg"",""stimuli/WM11_AO.jpg""]","stimuli/BM07_HO.jpg","stimuli/HM09_CC.jpg","stimuli/BF05_FO.jpg","stimuli/WM11_AO.jpg","pos1","stimuli/BM07_HO.jpg","HO","BM07","0","4","8","6","stimuli/stars_8.png","38","[""HO"",""CC"",""FO"",""AO""]","[""BM07"",""HM09"",""BF05"",""WM11""]","[8,2,3,10]","[6,2,4,8]","","",""
"show-reward","28","107069","0.0-28.0","p569079","A1JM5XNB4NCZR6","336OE47KI3QZCSCUXSQ8J11UOZXVWV","3H7XDTSHKEXJHFKTYZWN8KT9KW5WGU","model","mismatch","uniform","","","","","","","","107650.40000000596","109655.60000000894","","","","","","","","","","","","8","","stimuli/stars_8.png","38","","","","","stimuli/BM07_HO.jpg","",""
"explore-choice","29","111372","0.0-29.0","p569079","A1JM5XNB4NCZR6","336OE47KI3QZCSCUXSQ8J11UOZXVWV","3H7XDTSHKEXJHFKTYZWN8KT9KW5WGU","model","mismatch","uniform","","","","","","","3801.5","109656.5","113458","[""stimuli/HM09_CC.jpg"",""stimuli/WM11_HO.jpg"",""stimuli/BM07_FO.jpg"",""stimuli/BF05_AO.jpg""]","stimuli/HM09_CC.jpg","stimuli/WM11_HO.jpg","stimuli/BM07_FO.jpg","stimuli/BF05_AO.jpg","pos1","stimuli/HM09_CC.jpg","CC","HM09","0","0","0","2","stimuli/stars_0.png","38","[""CC"",""HO"",""FO"",""AO""]","[""HM09"",""WM11"",""BM07"",""BF05""]","[0,8,7,5]","[2,8,6,4]","","",""
"show-reward","30","113376","0.0-30.0","p569079","A1JM5XNB4NCZR6","336OE47KI3QZCSCUXSQ8J11UOZXVWV","3H7XDTSHKEXJHFKTYZWN8KT9KW5WGU","model","mismatch","uniform","","","","","","","","113959.80000001192","115962.90000000596","","","","","","","","","","","","0","","stimuli/stars_0.png","38","","","","","stimuli/HM09_CC.jpg","",""
"explore-choice","31","116381","0.0-31.0","p569079","A1JM5XNB4NCZR6","336OE47KI3QZCSCUXSQ8J11UOZXVWV","3H7XDTSHKEXJHFKTYZWN8KT9KW5WGU","model","mismatch","uniform","","","","","","","2500.5999999940395","115964.40000000596","118465","[""stimuli/BF05_CC.jpg"",""stimuli/HM09_FO.jpg"",""stimuli/WM11_AO.jpg"",""stimuli/BM07_HO.jpg""]","stimuli/BF05_CC.jpg","stimuli/HM09_FO.jpg","stimuli/WM11_AO.jpg","stimuli/BM07_HO.jpg","pos4","stimuli/BM07_HO.jpg","HO","BM07","3","3","6","6","stimuli/stars_6.png","41","[""CC"",""FO"",""AO"",""HO""]","[""BF05"",""HM09"",""WM11"",""BM07""]","[2,2,10,6]","[4,2,8,6]","","",""
"show-reward","32","118384","0.0-32.0","p569079","A1JM5XNB4NCZR6","336OE47KI3QZCSCUXSQ8J11UOZXVWV","3H7XDTSHKEXJHFKTYZWN8KT9KW5WGU","model","mismatch","uniform","","","","","","","","118968.70000000298","120971.10000000894","","","","","","","","","","","","6","","stimuli/stars_6.png","41","","","","","stimuli/BM07_HO.jpg","",""
"explore-choice","33","121627","0.0-33.0","p569079","A1JM5XNB4NCZR6","336OE47KI3QZCSCUXSQ8J11UOZXVWV","3H7XDTSHKEXJHFKTYZWN8KT9KW5WGU","model","mismatch","uniform","","","","","","","2737.7999999970198","120972.60000000894","123710.40000000596","[""stimuli/BM07_HO.jpg"",""stimuli/WM11_CC.jpg"",""stimuli/BF05_FO.jpg"",""stimuli/HM09_AO.jpg""]","stimuli/BM07_HO.jpg","stimuli/WM11_CC.jpg","stimuli/BF05_FO.jpg","stimuli/HM09_AO.jpg","pos2","stimuli/WM11_CC.jpg","CC","WM11","1","3","6","8","stimuli/stars_6.png","44","[""HO"",""CC"",""FO"",""AO""]","[""BM07"",""WM11"",""BF05"",""HM09""]","[4,6,6,0]","[6,8,4,2]","","",""
"show-reward","34","123636","0.0-34.0","p569079","A1JM5XNB4NCZR6","336OE47KI3QZCSCUXSQ8J11UOZXVWV","3H7XDTSHKEXJHFKTYZWN8KT9KW5WGU","model","mismatch","uniform","","","","","","","","124215.70000000298","126222.90000000596","","","","","","","","","","","","6","","stimuli/stars_6.png","44","","","","","stimuli/WM11_CC.jpg","",""
"explore-choice","35","127877","0.0-35.0","p569079","A1JM5XNB4NCZR6","336OE47KI3QZCSCUXSQ8J11UOZXVWV","3H7XDTSHKEXJHFKTYZWN8KT9KW5WGU","model","mismatch","uniform","","","","","","","3738.8999999910593","126224.60000000894","129963.5","[""stimuli/BF05_FO.jpg"",""stimuli/WM11_HO.jpg"",""stimuli/HM09_CC.jpg"",""stimuli/BM07_AO.jpg""]","stimuli/BF05_FO.jpg","stimuli/WM11_HO.jpg","stimuli/HM09_CC.jpg","stimuli/BM07_AO.jpg","pos2","stimuli/WM11_HO.jpg","HO","WM11","1","3","6","8","stimuli/stars_6.png","47","[""FO"",""HO"",""CC"",""AO""]","[""BF05"",""WM11"",""HM09"",""BM07""]","[5,6,2,8]","[4,8,2,6]","","",""
"show-reward","36","129881","0.0-36.0","p569079","A1JM5XNB4NCZR6","336OE47KI3QZCSCUXSQ8J11UOZXVWV","3H7XDTSHKEXJHFKTYZWN8KT9KW5WGU","model","mismatch","uniform","","","","","","","","130465.40000000596","132468.10000000894","","","","","","","","","","","","6","","stimuli/stars_6.png","47","","","","","stimuli/WM11_HO.jpg","",""
"explore-choice","37","134489","0.0-37.0","p569079","A1JM5XNB4NCZR6","336OE47KI3QZCSCUXSQ8J11UOZXVWV","3H7XDTSHKEXJHFKTYZWN8KT9KW5WGU","model","mismatch","uniform","","","","","","","4104.5999999940395","132469.10000000894","136573.70000000298","[""stimuli/BM07_AO.jpg"",""stimuli/BF05_FO.jpg"",""stimuli/WM11_CC.jpg"",""stimuli/HM09_HO.jpg""]","stimuli/BM07_AO.jpg","stimuli/BF05_FO.jpg","stimuli/WM11_CC.jpg","stimuli/HM09_HO.jpg","pos3","stimuli/WM11_CC.jpg","CC","WM11","2","3.5","7","8","stimuli/stars_7.png","50.5","[""AO"",""FO"",""CC"",""HO""]","[""BM07"",""BF05"",""WM11"",""HM09""]","[5,2,7,1]","[6,4,8,2]","","",""
"show-reward","38","136494","0.0-38.0","p569079","A1JM5XNB4NCZR6","336OE47KI3QZCSCUXSQ8J11UOZXVWV","3H7XDTSHKEXJHFKTYZWN8KT9KW5WGU","model","mismatch","uniform","","","","","","","","137077.40000000596","139080.80000001192","","","","","","","","","","","","7","","stimuli/stars_7.png","50.5","","","","","stimuli/WM11_CC.jpg","",""
"explore-choice","39","140840","0.0-39.0","p569079","A1JM5XNB4NCZR6","336OE47KI3QZCSCUXSQ8J11UOZXVWV","3H7XDTSHKEXJHFKTYZWN8KT9KW5WGU","model","mismatch","uniform","","","","","","","3841.800000011921","139082","142923.80000001192","[""stimuli/WM11_AO.jpg"",""stimuli/BM07_FO.jpg"",""stimuli/BF05_HO.jpg"",""stimuli/HM09_CC.jpg""]","stimuli/WM11_AO.jpg","stimuli/BM07_FO.jpg","stimuli/BF05_HO.jpg","stimuli/HM09_CC.jpg","pos3","stimuli/BF05_HO.jpg","HO","BF05","2","2","4","4","stimuli/stars_4.png","52.5","[""AO"",""FO"",""HO"",""CC""]","[""WM11"",""BM07"",""BF05"",""HM09""]","[6,4,4,2]","[8,6,4,2]","","",""
"show-reward","40","142845","0.0-40.0","p569079","A1JM5XNB4NCZR6","336OE47KI3QZCSCUXSQ8J11UOZXVWV","3H7XDTSHKEXJHFKTYZWN8KT9KW5WGU","model","mismatch","uniform","","","","","","","","143428.30000001192","145432.5","","","","","","","","","","","","4","","stimuli/stars_4.png","52.5","","","","","stimuli/BF05_HO.jpg","",""
"explore-choice","41","145775","0.0-41.0","p569079","A1JM5XNB4NCZR6","336OE47KI3QZCSCUXSQ8J11UOZXVWV","3H7XDTSHKEXJHFKTYZWN8KT9KW5WGU","model","mismatch","uniform","","","","","","","2428.5","145433.20000000298","147861.70000000298","[""stimuli/BF05_AO.jpg"",""stimuli/WM11_CC.jpg"",""stimuli/HM09_HO.jpg"",""stimuli/BM07_FO.jpg""]","stimuli/BF05_AO.jpg","stimuli/WM11_CC.jpg","stimuli/HM09_HO.jpg","stimuli/BM07_FO.jpg","pos2","stimuli/WM11_CC.jpg","CC","WM11","1","4.5","9","8","stimuli/stars_9.png","57","[""AO"",""CC"",""HO"",""FO""]","[""BF05"",""WM11"",""HM09"",""BM07""]","[5,9,0,4]","[4,8,2,6]","","",""
"show-reward","42","147781","0.0-42.0","p569079","A1JM5XNB4NCZR6","336OE47KI3QZCSCUXSQ8J11UOZXVWV","3H7XDTSHKEXJHFKTYZWN8KT9KW5WGU","model","mismatch","uniform","","","","","","","","148362.80000001192","150367.70000000298","","","","","","","","","","","","9","","stimuli/stars_9.png","57","","","","","stimuli/WM11_CC.jpg","",""
"explore-choice","43","150405","0.0-43.0","p569079","A1JM5XNB4NCZR6","336OE47KI3QZCSCUXSQ8J11UOZXVWV","3H7XDTSHKEXJHFKTYZWN8KT9KW5WGU","model","mismatch","uniform","","","","","","","2118.9000000059605","150369.5","152488.40000000596","[""stimuli/HM09_AO.jpg"",""stimuli/WM11_FO.jpg"",""stimuli/BM07_HO.jpg"",""stimuli/BF05_CC.jpg""]","stimuli/HM09_AO.jpg","stimuli/WM11_FO.jpg","stimuli/BM07_HO.jpg","stimuli/BF05_CC.jpg","pos3","stimuli/BM07_HO.jpg","HO","BM07","2","4","8","6","stimuli/stars_8.png","61","[""AO"",""FO"",""HO"",""CC""]","[""HM09"",""WM11"",""BM07"",""BF05""]","[1,8,8,5]","[2,8,6,4]","","",""
"show-reward","44","152414","0.0-44.0","p569079","A1JM5XNB4NCZR6","336OE47KI3QZCSCUXSQ8J11UOZXVWV","3H7XDTSHKEXJHFKTYZWN8KT9KW5WGU","model","mismatch","uniform","","","","","","","","152993.70000000298","155000.80000001192","","","","","","","","","","","","8","","stimuli/stars_8.png","61","","","","","stimuli/BM07_HO.jpg","",""
"explore-choice","45","158967","0.0-45.0","p569079","A1JM5XNB4NCZR6","336OE47KI3QZCSCUXSQ8J11UOZXVWV","3H7XDTSHKEXJHFKTYZWN8KT9KW5WGU","model","mismatch","uniform","","","","","","","6047.0999999940395","155002.30000001192","161049.40000000596","[""stimuli/WM11_AO.jpg"",""stimuli/BM07_CC.jpg"",""stimuli/HM09_FO.jpg"",""stimuli/BF05_HO.jpg""]","stimuli/WM11_AO.jpg","stimuli/BM07_CC.jpg","stimuli/HM09_FO.jpg","stimuli/BF05_HO.jpg","pos4","stimuli/BF05_HO.jpg","HO","BF05","3","2.5","5","4","stimuli/stars_5.png","63.5","[""AO"",""CC"",""FO"",""HO""]","[""WM11"",""BM07"",""HM09"",""BF05""]","[6,7,4,5]","[8,6,2,4]","","",""
"show-reward","46","160969","0.0-46.0","p569079","A1JM5XNB4NCZR6","336OE47KI3QZCSCUXSQ8J11UOZXVWV","3H7XDTSHKEXJHFKTYZWN8KT9KW5WGU","model","mismatch","uniform","","","","","","","","161555","163556.40000000596","","","","","","","","","","","","5","","stimuli/stars_5.png","63.5","","","","","stimuli/BF05_HO.jpg","",""
"explore-choice","47","164123","0.0-47.0","p569079","A1JM5XNB4NCZR6","336OE47KI3QZCSCUXSQ8J11UOZXVWV","3H7XDTSHKEXJHFKTYZWN8KT9KW5WGU","model","mismatch","uniform","","","","","","","2652.8999999910593","163556.80000001192","166209.70000000298","[""stimuli/WM11_FO.jpg"",""stimuli/BM07_AO.jpg"",""stimuli/HM09_HO.jpg"",""stimuli/BF05_CC.jpg""]","stimuli/WM11_FO.jpg","stimuli/BM07_AO.jpg","stimuli/HM09_HO.jpg","stimuli/BF05_CC.jpg","pos3","stimuli/HM09_HO.jpg","HO","HM09","2","1.5","3","2","stimuli/stars_3.png","65","[""FO"",""AO"",""HO"",""CC""]","[""WM11"",""BM07"",""HM09"",""BF05""]","[10,5,3,4]","[8,6,2,4]","","",""
"show-reward","48","166125","0.0-48.0","p569079","A1JM5XNB4NCZR6","336OE47KI3QZCSCUXSQ8J11UOZXVWV","3H7XDTSHKEXJHFKTYZWN8KT9KW5WGU","model","mismatch","uniform","","","","","","","","166710.5","168712.60000000894","","","","","","","","","","","","3","","stimuli/stars_3.png","65","","","","","stimuli/HM09_HO.jpg","",""
"explore-choice","49","168264","0.0-49.0","p569079","A1JM5XNB4NCZR6","336OE47KI3QZCSCUXSQ8J11UOZXVWV","3H7XDTSHKEXJHFKTYZWN8KT9KW5WGU","model","mismatch","uniform","","","","","","","1634","168713.30000001192","170347.30000001192","[""stimuli/HM09_HO.jpg"",""stimuli/BM07_CC.jpg"",""stimuli/BF05_AO.jpg"",""stimuli/WM11_FO.jpg""]","stimuli/HM09_HO.jpg","stimuli/BM07_CC.jpg","stimuli/BF05_AO.jpg","stimuli/WM11_FO.jpg","pos2","stimuli/BM07_CC.jpg","CC","BM07","1","2.5","5","6","stimuli/stars_5.png","67.5","[""HO"",""CC"",""AO"",""FO""]","[""HM09"",""BM07"",""BF05"",""WM11""]","[4,5,6,10]","[2,6,4,8]","","",""
"show-reward","50","170272","0.0-50.0","p569079","A1JM5XNB4NCZR6","336OE47KI3QZCSCUXSQ8J11UOZXVWV","3H7XDTSHKEXJHFKTYZWN8KT9KW5WGU","model","mismatch","uniform","","","","","","","","170851.80000001192","172859.20000000298","","","","","","","","","","","","5","","stimuli/stars_5.png","67.5","","","","","stimuli/BM07_CC.jpg","",""
"explore-choice","51","172306","0.0-51.0","p569079","A1JM5XNB4NCZR6","336OE47KI3QZCSCUXSQ8J11UOZXVWV","3H7XDTSHKEXJHFKTYZWN8KT9KW5WGU","model","mismatch","uniform","","","","","","","1528.4000000059605","172860.70000000298","174389.10000000894","[""stimuli/HM09_AO.jpg"",""stimuli/WM11_HO.jpg"",""stimuli/BM07_FO.jpg"",""stimuli/BF05_CC.jpg""]","stimuli/HM09_AO.jpg","stimuli/WM11_HO.jpg","stimuli/BM07_FO.jpg","stimuli/BF05_CC.jpg","pos4","stimuli/BF05_CC.jpg","CC","BF05","3","2","4","4","stimuli/stars_4.png","69.5","[""AO"",""HO"",""FO"",""CC""]","[""HM09"",""WM11"",""BM07"",""BF05""]","[1,9,5,4]","[2,8,6,4]","","",""
"show-reward","52","174314","0.0-52.0","p569079","A1JM5XNB4NCZR6","336OE47KI3QZCSCUXSQ8J11UOZXVWV","3H7XDTSHKEXJHFKTYZWN8KT9KW5WGU","model","mismatch","uniform","","","","","","","","174894.20000000298","176901.30000001192","","","","","","","","","","","","4","","stimuli/stars_4.png","69.5","","","","","stimuli/BF05_CC.jpg","",""
"explore-choice","53","176231","0.0-53.0","p569079","A1JM5XNB4NCZR6","336OE47KI3QZCSCUXSQ8J11UOZXVWV","3H7XDTSHKEXJHFKTYZWN8KT9KW5WGU","model","mismatch","uniform","","","","","","","1414.5","176902.10000000894","178316.60000000894","[""stimuli/BF05_FO.jpg"",""stimuli/HM09_AO.jpg"",""stimuli/BM07_CC.jpg"",""stimuli/WM11_HO.jpg""]","stimuli/BF05_FO.jpg","stimuli/HM09_AO.jpg","stimuli/BM07_CC.jpg","stimuli/WM11_HO.jpg","pos3","stimuli/BM07_CC.jpg","CC","BM07","2","4","8","6","stimuli/stars_8.png","73.5","[""FO"",""AO"",""CC"",""HO""]","[""BF05"",""HM09"",""BM07"",""WM11""]","[3,0,8,7]","[4,2,6,8]","","",""
"show-reward","54","178239","0.0-54.0","p569079","A1JM5XNB4NCZR6","336OE47KI3QZCSCUXSQ8J11UOZXVWV","3H7XDTSHKEXJHFKTYZWN8KT9KW5WGU","model","mismatch","uniform","","","","","","","","178819.60000000894","180826.40000000596","","","","","","","","","","","","8","","stimuli/stars_8.png","73.5","","","","","stimuli/BM07_CC.jpg","",""
"explore-choice","55","181681","0.0-55.0","p569079","A1JM5XNB4NCZR6","336OE47KI3QZCSCUXSQ8J11UOZXVWV","3H7XDTSHKEXJHFKTYZWN8KT9KW5WGU","model","mismatch","uniform","","","","","","","2939.2000000029802","180828.20000000298","183767.40000000596","[""stimuli/WM11_AO.jpg"",""stimuli/BM07_HO.jpg"",""stimuli/BF05_FO.jpg"",""stimuli/HM09_CC.jpg""]","stimuli/WM11_AO.jpg","stimuli/BM07_HO.jpg","stimuli/BF05_FO.jpg","stimuli/HM09_CC.jpg","pos3","stimuli/BF05_FO.jpg","FO","BF05","2","1.5","3","4","stimuli/stars_3.png","75","[""AO"",""HO"",""FO"",""CC""]","[""WM11"",""BM07"",""BF05"",""HM09""]","[10,8,3,2]","[8,6,4,2]","","",""
"show-reward","56","183685","0.0-56.0","p569079","A1JM5XNB4NCZR6","336OE47KI3QZCSCUXSQ8J11UOZXVWV","3H7XDTSHKEXJHFKTYZWN8KT9KW5WGU","model","mismatch","uniform","","","","","","","","184269.10000000894","186272.30000001192","","","","","","","","","","","","3","","stimuli/stars_3.png","75","","","","","stimuli/BF05_FO.jpg","",""
"explore-choice","57","186327","0.0-57.0","p569079","A1JM5XNB4NCZR6","336OE47KI3QZCSCUXSQ8J11UOZXVWV","3H7XDTSHKEXJHFKTYZWN8KT9KW5WGU","model","mismatch","uniform","","","","","","","2140.7999999970198","186272.90000000596","188413.70000000298","[""stimuli/BF05_CC.jpg"",""stimuli/BM07_FO.jpg"",""stimuli/WM11_HO.jpg"",""stimuli/HM09_AO.jpg""]","stimuli/BF05_CC.jpg","stimuli/BM07_FO.jpg","stimuli/WM11_HO.jpg","stimuli/HM09_AO.jpg","pos1","stimuli/BF05_CC.jpg","CC","BF05","0","2","4","4","stimuli/stars_4.png","77","[""CC"",""FO"",""HO"",""AO""]","[""BF05"",""BM07"",""WM11"",""HM09""]","[4,5,9,1]","[4,6,8,2]","","",""
"show-reward","58","188337","0.0-58.0","p569079","A1JM5XNB4NCZR6","336OE47KI3QZCSCUXSQ8J11UOZXVWV","3H7XDTSHKEXJHFKTYZWN8KT9KW5WGU","model","mismatch","uniform","","","","","","","","188915.70000000298","190923.60000000894","","","","","","","","","","","","4","","stimuli/stars_4.png","77","","","","","stimuli/BF05_CC.jpg","",""
"explore-choice","59","190982","0.0-59.0","p569079","A1JM5XNB4NCZR6","336OE47KI3QZCSCUXSQ8J11UOZXVWV","3H7XDTSHKEXJHFKTYZWN8KT9KW5WGU","model","mismatch","uniform","","","","","","","2143","190925.40000000596","193068.40000000596","[""stimuli/BM07_AO.jpg"",""stimuli/WM11_FO.jpg"",""stimuli/BF05_CC.jpg"",""stimuli/HM09_HO.jpg""]","stimuli/BM07_AO.jpg","stimuli/WM11_FO.jpg","stimuli/BF05_CC.jpg","stimuli/HM09_HO.jpg","pos2","stimuli/WM11_FO.jpg","FO","WM11","1","5","10","8","stimuli/stars_10.png","82","[""AO"",""FO"",""CC"",""HO""]","[""BM07"",""WM11"",""BF05"",""HM09""]","[5,10,4,3]","[6,8,4,2]","","",""
"show-reward","60","192986","0.0-60.0","p569079","A1JM5XNB4NCZR6","336OE47KI3QZCSCUXSQ8J11UOZXVWV","3H7XDTSHKEXJHFKTYZWN8KT9KW5WGU","model","mismatch","uniform","","","","","","","","193570.40000000596","195573.10000000894","","","","","","","","","","","","10","","stimuli/stars_10.png","82","","","","","stimuli/WM11_FO.jpg","",""
"explore-choice","61","196108","0.0-61.0","p569079","A1JM5XNB4NCZR6","336OE47KI3QZCSCUXSQ8J11UOZXVWV","3H7XDTSHKEXJHFKTYZWN8KT9KW5WGU","model","mismatch","uniform","","","","","","","2620.800000011921","195574","198194.80000001192","[""stimuli/BM07_CC.jpg"",""stimuli/BF05_AO.jpg"",""stimuli/HM09_HO.jpg"",""stimuli/WM11_FO.jpg""]","stimuli/BM07_CC.jpg","stimuli/BF05_AO.jpg","stimuli/HM09_HO.jpg","stimuli/WM11_FO.jpg","pos1","stimuli/BM07_CC.jpg","CC","BM07","0","2.5","5","6","stimuli/stars_5.png","84.5","[""CC"",""AO"",""HO"",""FO""]","[""BM07"",""BF05"",""HM09"",""WM11""]","[5,6,4,10]","[6,4,2,8]","","",""
"show-reward","62","198114","0.0-62.0","p569079","A1JM5XNB4NCZR6","336OE47KI3QZCSCUXSQ8J11UOZXVWV","3H7XDTSHKEXJHFKTYZWN8KT9KW5WGU","model","mismatch","uniform","","","","","","","","198696.40000000596","200701.80000001192","","","","","","","","","","","","5","","stimuli/stars_5.png","84.5","","","","","stimuli/BM07_CC.jpg","",""
"explore-choice","63","201600","0.0-63.0","p569079","A1JM5XNB4NCZR6","336OE47KI3QZCSCUXSQ8J11UOZXVWV","3H7XDTSHKEXJHFKTYZWN8KT9KW5WGU","model","mismatch","uniform","","","","","","","2984.2999999970198","200702.40000000596","203686.70000000298","[""stimuli/WM11_HO.jpg"",""stimuli/BM07_AO.jpg"",""stimuli/HM09_FO.jpg"",""stimuli/BF05_CC.jpg""]","stimuli/WM11_HO.jpg","stimuli/BM07_AO.jpg","stimuli/HM09_FO.jpg","stimuli/BF05_CC.jpg","pos1","stimuli/WM11_HO.jpg","HO","WM11","0","5","10","8","stimuli/stars_10.png","89.5","[""HO"",""AO"",""FO"",""CC""]","[""WM11"",""BM07"",""HM09"",""BF05""]","[10,5,3,4]","[8,6,2,4]","","",""
"show-reward","64","203606","0.0-64.0","p569079","A1JM5XNB4NCZR6","336OE47KI3QZCSCUXSQ8J11UOZXVWV","3H7XDTSHKEXJHFKTYZWN8KT9KW5WGU","model","mismatch","uniform","","","","","","","","204188.70000000298","206193.80000001192","","","","","","","","","","","","10","","stimuli/stars_10.png","89.5","","","","","stimuli/WM11_HO.jpg","",""
"explore-choice","65","206734","0.0-65.0","p569079","A1JM5XNB4NCZR6","336OE47KI3QZCSCUXSQ8J11UOZXVWV","3H7XDTSHKEXJHFKTYZWN8KT9KW5WGU","model","mismatch","uniform","","","","","","","2625.8999999910593","206195.10000000894","208821","[""stimuli/BM07_CC.jpg"",""stimuli/BF05_HO.jpg"",""stimuli/WM11_FO.jpg"",""stimuli/HM09_AO.jpg""]","stimuli/BM07_CC.jpg","stimuli/BF05_HO.jpg","stimuli/WM11_FO.jpg","stimuli/HM09_AO.jpg","pos3","stimuli/WM11_FO.jpg","FO","WM11","2","3.5","7","8","stimuli/stars_7.png","93","[""CC"",""HO"",""FO"",""AO""]","[""BM07"",""BF05"",""WM11"",""HM09""]","[5,3,7,1]","[6,4,8,2]","","",""
"show-reward","66","208740","0.0-66.0","p569079","A1JM5XNB4NCZR6","336OE47KI3QZCSCUXSQ8J11UOZXVWV","3H7XDTSHKEXJHFKTYZWN8KT9KW5WGU","model","mismatch","uniform","","","","","","","","209322.60000000894","211327.20000000298","","","","","","","","","","","","7","","stimuli/stars_7.png","93","","","","","stimuli/WM11_FO.jpg","",""
"explore-choice","67","211089","0.0-67.0","p569079","A1JM5XNB4NCZR6","336OE47KI3QZCSCUXSQ8J11UOZXVWV","3H7XDTSHKEXJHFKTYZWN8KT9KW5WGU","model","mismatch","uniform","","","","","","","1847.199999988079","211328.30000001192","213175.5","[""stimuli/HM09_FO.jpg"",""stimuli/BM07_AO.jpg"",""stimuli/BF05_HO.jpg"",""stimuli/WM11_CC.jpg""]","stimuli/HM09_FO.jpg","stimuli/BM07_AO.jpg","stimuli/BF05_HO.jpg","stimuli/WM11_CC.jpg","pos4","stimuli/WM11_CC.jpg","CC","WM11","3","4","8","8","stimuli/stars_8.png","97","[""FO"",""AO"",""HO"",""CC""]","[""HM09"",""BM07"",""BF05"",""WM11""]","[1,8,4,8]","[2,6,4,8]","","",""
"show-reward","68","213092","0.0-68.0","p569079","A1JM5XNB4NCZR6","336OE47KI3QZCSCUXSQ8J11UOZXVWV","3H7XDTSHKEXJHFKTYZWN8KT9KW5WGU","model","mismatch","uniform","","","","","","","","213677.5","215679.70000000298","","","","","","","","","","","","8","","stimuli/stars_8.png","97","","","","","stimuli/WM11_CC.jpg","",""
"explore-choice","69","215740","0.0-69.0","p569079","A1JM5XNB4NCZR6","336OE47KI3QZCSCUXSQ8J11UOZXVWV","3H7XDTSHKEXJHFKTYZWN8KT9KW5WGU","model","mismatch","uniform","","","","","","","2145.9000000059605","215680.5","217826.40000000596","[""stimuli/BF05_AO.jpg"",""stimuli/HM09_CC.jpg"",""stimuli/BM07_FO.jpg"",""stimuli/WM11_HO.jpg""]","stimuli/BF05_AO.jpg","stimuli/HM09_CC.jpg","stimuli/BM07_FO.jpg","stimuli/WM11_HO.jpg","pos4","stimuli/WM11_HO.jpg","HO","WM11","3","4","8","8","stimuli/stars_8.png","101","[""AO"",""CC"",""FO"",""HO""]","[""BF05"",""HM09"",""BM07"",""WM11""]","[5,0,7,8]","[4,2,6,8]","","",""
"show-reward","70","217745","0.0-70.0","p569079","A1JM5XNB4NCZR6","336OE47KI3QZCSCUXSQ8J11UOZXVWV","3H7XDTSHKEXJHFKTYZWN8KT9KW5WGU","model","mismatch","uniform","","","","","","","","218329.10000000894","220332.80000001192","","","","","","","","","","","","8","","stimuli/stars_8.png","101","","","","","stimuli/WM11_HO.jpg","",""
"explore-choice","71","221073","0.0-71.0","p569079","A1JM5XNB4NCZR6","336OE47KI3QZCSCUXSQ8J11UOZXVWV","3H7XDTSHKEXJHFKTYZWN8KT9KW5WGU","model","mismatch","uniform","","","","","","","2826.7999999970198","220333.40000000596","223160.20000000298","[""stimuli/BM07_HO.jpg"",""stimuli/HM09_CC.jpg"",""stimuli/WM11_FO.jpg"",""stimuli/BF05_AO.jpg""]","stimuli/BM07_HO.jpg","stimuli/HM09_CC.jpg","stimuli/WM11_FO.jpg","stimuli/BF05_AO.jpg","pos1","stimuli/BM07_HO.jpg","HO","BM07","0","2.5","5","6","stimuli/stars_5.png","103.5","[""HO"",""CC"",""FO"",""AO""]","[""BM07"",""HM09"",""WM11"",""BF05""]","[5,1,8,4]","[6,2,8,4]","","",""
"show-reward","72","223080","0.0-72.0","p569079","A1JM5XNB4NCZR6","336OE47KI3QZCSCUXSQ8J11UOZXVWV","3H7XDTSHKEXJHFKTYZWN8KT9KW5WGU","model","mismatch","uniform","","","","","","","","223662.40000000596","225668.10000000894","","","","","","","","","","","","5","","stimuli/stars_5.png","103.5","","","","","stimuli/BM07_HO.jpg","",""
"explore-choice","73","233265","0.0-73.0","p569079","A1JM5XNB4NCZR6","336OE47KI3QZCSCUXSQ8J11UOZXVWV","3H7XDTSHKEXJHFKTYZWN8KT9KW5WGU","model","mismatch","uniform","","","","","","","9683.29999999702","225668.90000000596","235352.20000000298","[""stimuli/WM11_FO.jpg"",""stimuli/BM07_AO.jpg"",""stimuli/BF05_HO.jpg"",""stimuli/HM09_CC.jpg""]","stimuli/WM11_FO.jpg","stimuli/BM07_AO.jpg","stimuli/BF05_HO.jpg","stimuli/HM09_CC.jpg","pos1","stimuli/WM11_FO.jpg","FO","WM11","0","4","8","8","stimuli/stars_8.png","107.5","[""FO"",""AO"",""HO"",""CC""]","[""WM11"",""BM07"",""BF05"",""HM09""]","[8,8,3,2]","[8,6,4,2]","","",""
"show-reward","74","235271","0.0-74.0","p569079","A1JM5XNB4NCZR6","336OE47KI3QZCSCUXSQ8J11UOZXVWV","3H7XDTSHKEXJHFKTYZWN8KT9KW5WGU","model","mismatch","uniform","","","","","","","","235854.30000001192","237857.90000000596","","","","","","","","","","","","8","","stimuli/stars_8.png","107.5","","","","","stimuli/WM11_FO.jpg","",""
"explore-choice","75","238557","0.0-75.0","p569079","A1JM5XNB4NCZR6","336OE47KI3QZCSCUXSQ8J11UOZXVWV","3H7XDTSHKEXJHFKTYZWN8KT9KW5WGU","model","mismatch","uniform","","","","","","","2784.0999999940395","237859.60000000894","240643.70000000298","[""stimuli/WM11_CC.jpg"",""stimuli/HM09_HO.jpg"",""stimuli/BM07_FO.jpg"",""stimuli/BF05_AO.jpg""]","stimuli/WM11_CC.jpg","stimuli/HM09_HO.jpg","stimuli/BM07_FO.jpg","stimuli/BF05_AO.jpg","pos1","stimuli/WM11_CC.jpg","CC","WM11","0","4.5","9","8","stimuli/stars_9.png","112","[""CC"",""HO"",""FO"",""AO""]","[""WM11"",""HM09"",""BM07"",""BF05""]","[9,0,4,5]","[8,2,6,4]","","",""
"show-reward","76","240564","0.0-76.0","p569079","A1JM5XNB4NCZR6","336OE47KI3QZCSCUXSQ8J11UOZXVWV","3H7XDTSHKEXJHFKTYZWN8KT9KW5WGU","model","mismatch","uniform","","","","","","","","241145.40000000596","243152.20000000298","","","","","","","","","","","","9","","stimuli/stars_9.png","112","","","","","stimuli/WM11_CC.jpg","",""
"explore-choice","77","243723","0.0-77.0","p569079","A1JM5XNB4NCZR6","336OE47KI3QZCSCUXSQ8J11UOZXVWV","3H7XDTSHKEXJHFKTYZWN8KT9KW5WGU","model","mismatch","uniform","","","","","","","2658.1000000089407","243152.70000000298","245810.80000001192","[""stimuli/BF05_CC.jpg"",""stimuli/HM09_FO.jpg"",""stimuli/BM07_HO.jpg"",""stimuli/WM11_AO.jpg""]","stimuli/BF05_CC.jpg","stimuli/HM09_FO.jpg","stimuli/BM07_HO.jpg","stimuli/WM11_AO.jpg","pos3","stimuli/BM07_HO.jpg","HO","BM07","2","3","6","6","stimuli/stars_6.png","115","[""CC"",""FO"",""HO"",""AO""]","[""BF05"",""HM09"",""BM07"",""WM11""]","[2,2,6,10]","[4,2,6,8]","","",""
"show-reward","78","245725","0.0-78.0","p569079","A1JM5XNB4NCZR6","336OE47KI3QZCSCUXSQ8J11UOZXVWV","3H7XDTSHKEXJHFKTYZWN8KT9KW5WGU","model","mismatch","uniform","","","","","","","","246311.90000000596","248313.40000000596","","","","","","","","","","","","6","","stimuli/stars_6.png","115","","","","","stimuli/BM07_HO.jpg","",""
"explore-choice","79","248867","0.0-79.0","p569079","A1JM5XNB4NCZR6","336OE47KI3QZCSCUXSQ8J11UOZXVWV","3H7XDTSHKEXJHFKTYZWN8KT9KW5WGU","model","mismatch","uniform","","","","","","","2640.2999999970198","248314.10000000894","250954.40000000596","[""stimuli/BM07_FO.jpg"",""stimuli/WM11_CC.jpg"",""stimuli/BF05_HO.jpg"",""stimuli/HM09_AO.jpg""]","stimuli/BM07_FO.jpg","stimuli/WM11_CC.jpg","stimuli/BF05_HO.jpg","stimuli/HM09_AO.jpg","pos2","stimuli/WM11_CC.jpg","CC","WM11","1","4","8","8","stimuli/stars_8.png","119","[""FO"",""CC"",""HO"",""AO""]","[""BM07"",""WM11"",""BF05"",""HM09""]","[8,8,5,1]","[6,8,4,2]","","",""
"show-reward","80","250870","0.0-80.0","p569079","A1JM5XNB4NCZR6","336OE47KI3QZCSCUXSQ8J11UOZXVWV","3H7XDTSHKEXJHFKTYZWN8KT9KW5WGU","model","mismatch","uniform","","","","","","","","251455.20000000298","253457.90000000596","","","","","","","","","","","","8","","stimuli/stars_8.png","119","","","","","stimuli/WM11_CC.jpg","",""
"explore-choice","81","256030","0.0-81.0","p569079","A1JM5XNB4NCZR6","336OE47KI3QZCSCUXSQ8J11UOZXVWV","3H7XDTSHKEXJHFKTYZWN8KT9KW5WGU","model","mismatch","uniform","","","","","","","4658.4000000059605","253458.90000000596","258117.30000001192","[""stimuli/HM09_CC.jpg"",""stimuli/BF05_HO.jpg"",""stimuli/BM07_FO.jpg"",""stimuli/WM11_AO.jpg""]","stimuli/HM09_CC.jpg","stimuli/BF05_HO.jpg","stimuli/BM07_FO.jpg","stimuli/WM11_AO.jpg","pos2","stimuli/BF05_HO.jpg","HO","BF05","1","2","4","4","stimuli/stars_4.png","121","[""CC"",""HO"",""FO"",""AO""]","[""HM09"",""BF05"",""BM07"",""WM11""]","[2,4,4,6]","[2,4,6,8]","","",""
"show-reward","82","258032","0.0-82.0","p569079","A1JM5XNB4NCZR6","336OE47KI3QZCSCUXSQ8J11UOZXVWV","3H7XDTSHKEXJHFKTYZWN8KT9KW5WGU","model","mismatch","uniform","","","","","","","","258618.60000000894","260619.90000000596","","","","","","","","","","","","4","","stimuli/stars_4.png","121","","","","","stimuli/BF05_HO.jpg","",""
"explore-choice","83","260444","0.0-83.0","p569079","A1JM5XNB4NCZR6","336OE47KI3QZCSCUXSQ8J11UOZXVWV","3H7XDTSHKEXJHFKTYZWN8KT9KW5WGU","model","mismatch","uniform","","","","","","","1911.2999999970198","260620.70000000298","262532","[""stimuli/BF05_FO.jpg"",""stimuli/WM11_AO.jpg"",""stimuli/BM07_CC.jpg"",""stimuli/HM09_HO.jpg""]","stimuli/BF05_FO.jpg","stimuli/WM11_AO.jpg","stimuli/BM07_CC.jpg","stimuli/HM09_HO.jpg","pos4","stimuli/HM09_HO.jpg","HO","HM09","3","1","2","2","stimuli/stars_2.png","122","[""FO"",""AO"",""CC"",""HO""]","[""BF05"",""WM11"",""BM07"",""HM09""]","[3,6,7,2]","[4,8,6,2]","","",""
"show-reward","84","262450","0.0-84.0","p569079","A1JM5XNB4NCZR6","336OE47KI3QZCSCUXSQ8J11UOZXVWV","3H7XDTSHKEXJHFKTYZWN8KT9KW5WGU","model","mismatch","uniform","","","","","","","","263032.8000000119","265037.700000003","","","","","","","","","","","","2","","stimuli/stars_2.png","122","","","","","stimuli/HM09_HO.jpg","",""
"explore-choice","85","266419","0.0-85.0","p569079","A1JM5XNB4NCZR6","336OE47KI3QZCSCUXSQ8J11UOZXVWV","3H7XDTSHKEXJHFKTYZWN8KT9KW5WGU","model","mismatch","uniform","","","","","","","3467.5","265039.60000000894","268507.10000000894","[""stimuli/HM09_HO.jpg"",""stimuli/BM07_AO.jpg"",""stimuli/WM11_CC.jpg"",""stimuli/BF05_FO.jpg""]","stimuli/HM09_HO.jpg","stimuli/BM07_AO.jpg","stimuli/WM11_CC.jpg","stimuli/BF05_FO.jpg","pos3","stimuli/WM11_CC.jpg","CC","WM11","2","3.5","7","8","stimuli/stars_7.png","125.5","[""HO"",""AO"",""CC"",""FO""]","[""HM09"",""BM07"",""WM11"",""BF05""]","[1,5,7,2]","[2,6,8,4]","","",""
"show-reward","86","268424","0.0-86.0","p569079","A1JM5XNB4NCZR6","336OE47KI3QZCSCUXSQ8J11UOZXVWV","3H7XDTSHKEXJHFKTYZWN8KT9KW5WGU","model","mismatch","uniform","","","","","","","","269008.200000003","271011.700000003","","","","","","","","","","","","7","","stimuli/stars_7.png","125.5","","","","","stimuli/WM11_CC.jpg","",""
"explore-choice","87","271723","0.0-87.0","p569079","A1JM5XNB4NCZR6","336OE47KI3QZCSCUXSQ8J11UOZXVWV","3H7XDTSHKEXJHFKTYZWN8KT9KW5WGU","model","mismatch","uniform","","","","","","","2797.3999999910593","271012.60000000894","273810","[""stimuli/BF05_AO.jpg"",""stimuli/BM07_HO.jpg"",""stimuli/WM11_CC.jpg"",""stimuli/HM09_FO.jpg""]","stimuli/BF05_AO.jpg","stimuli/BM07_HO.jpg","stimuli/WM11_CC.jpg","stimuli/HM09_FO.jpg","pos2","stimuli/BM07_HO.jpg","HO","BM07","1","4","8","6","stimuli/stars_8.png","129.5","[""AO"",""HO"",""CC"",""FO""]","[""BF05"",""BM07"",""WM11"",""HM09""]","[4,8,8,4]","[4,6,8,2]","","",""
"show-reward","88","273727","0.0-88.0","p569079","A1JM5XNB4NCZR6","336OE47KI3QZCSCUXSQ8J11UOZXVWV","3H7XDTSHKEXJHFKTYZWN8KT9KW5WGU","model","mismatch","uniform","","","","","","","","274312.10000000894","276314.40000000596","","","","","","","","","","","","8","","stimuli/stars_8.png","129.5","","","","","stimuli/BM07_HO.jpg","",""
"explore-choice","89","280393","0.0-89.0","p569079","A1JM5XNB4NCZR6","336OE47KI3QZCSCUXSQ8J11UOZXVWV","3H7XDTSHKEXJHFKTYZWN8KT9KW5WGU","model","mismatch","uniform","","","","","","","6163.100000008941","276316.200000003","282479.3000000119","[""stimuli/WM11_HO.jpg"",""stimuli/HM09_CC.jpg"",""stimuli/BF05_FO.jpg"",""stimuli/BM07_AO.jpg""]","stimuli/WM11_HO.jpg","stimuli/HM09_CC.jpg","stimuli/BF05_FO.jpg","stimuli/BM07_AO.jpg","pos1","stimuli/WM11_HO.jpg","HO","WM11","0","3","6","8","stimuli/stars_6.png","132.5","[""HO"",""CC"",""FO"",""AO""]","[""WM11"",""HM09"",""BF05"",""BM07""]","[6,2,5,8]","[8,2,4,6]","","",""
"show-reward","90","282399","0.0-90.0","p569079","A1JM5XNB4NCZR6","336OE47KI3QZCSCUXSQ8J11UOZXVWV","3H7XDTSHKEXJHFKTYZWN8KT9KW5WGU","model","mismatch","uniform","","","","","","","","282983","284987","","","","","","","","","","","","6","","stimuli/stars_6.png","132.5","","","","","stimuli/WM11_HO.jpg","",""
"explore-choice","91","286027","0.0-91.0","p569079","A1JM5XNB4NCZR6","336OE47KI3QZCSCUXSQ8J11UOZXVWV","3H7XDTSHKEXJHFKTYZWN8KT9KW5WGU","model","mismatch","uniform","","","","","","","3126","284988.700000003","288114.700000003","[""stimuli/WM11_CC.jpg"",""stimuli/BM07_HO.jpg"",""stimuli/BF05_FO.jpg"",""stimuli/HM09_AO.jpg""]","stimuli/WM11_CC.jpg","stimuli/BM07_HO.jpg","stimuli/BF05_FO.jpg","stimuli/HM09_AO.jpg","pos2","stimuli/BM07_HO.jpg","HO","BM07","1","2","4","6","stimuli/stars_4.png","134.5","[""CC"",""HO"",""FO"",""AO""]","[""WM11"",""BM07"",""BF05"",""HM09""]","[6,4,6,0]","[8,6,4,2]","","",""
"show-reward","92","288033","0.0-92.0","p569079","A1JM5XNB4NCZR6","336OE47KI3QZCSCUXSQ8J11UOZXVWV","3H7XDTSHKEXJHFKTYZWN8KT9KW5WGU","model","mismatch","uniform","","","","","","","","288615.700000003","290620.5","","","","","","","","","","","","4","","stimuli/stars_4.png","134.5","","","","","stimuli/BM07_HO.jpg","",""
"explore-choice","93","290925","0.0-93.0","p569079","A1JM5XNB4NCZR6","336OE47KI3QZCSCUXSQ8J11UOZXVWV","3H7XDTSHKEXJHFKTYZWN8KT9KW5WGU","model","mismatch","uniform","","","","","","","2390","290622.3000000119","293012.3000000119","[""stimuli/BF05_CC.jpg"",""stimuli/BM07_FO.jpg"",""stimuli/WM11_AO.jpg"",""stimuli/HM09_HO.jpg""]","stimuli/BF05_CC.jpg","stimuli/BM07_FO.jpg","stimuli/WM11_AO.jpg","stimuli/HM09_HO.jpg","pos4","stimuli/HM09_HO.jpg","HO","HM09","3","0","0","2","stimuli/stars_0.png","134.5","[""CC"",""FO"",""AO"",""HO""]","[""BF05"",""BM07"",""WM11"",""HM09""]","[6,7,10,0]","[4,6,8,2]","","",""
"show-reward","94","292932","0.0-94.0","p569079","A1JM5XNB4NCZR6","336OE47KI3QZCSCUXSQ8J11UOZXVWV","3H7XDTSHKEXJHFKTYZWN8KT9KW5WGU","model","mismatch","uniform","","","","","","","","293515.90000000596","295520.60000000894","","","","","","","","","","","","0","","stimuli/stars_0.png","134.5","","","","","stimuli/HM09_HO.jpg","",""
"explore-choice","95","296658","0.0-95.0","p569079","A1JM5XNB4NCZR6","336OE47KI3QZCSCUXSQ8J11UOZXVWV","3H7XDTSHKEXJHFKTYZWN8KT9KW5WGU","model","mismatch","uniform","","","","","","","3220.0999999940395","295521.10000000894","298741.200000003","[""stimuli/WM11_FO.jpg"",""stimuli/BF05_CC.jpg"",""stimuli/HM09_AO.jpg"",""stimuli/BM07_HO.jpg""]","stimuli/WM11_FO.jpg","stimuli/BF05_CC.jpg","stimuli/HM09_AO.jpg","stimuli/BM07_HO.jpg","pos4","stimuli/BM07_HO.jpg","HO","BM07","3","4","8","6","stimuli/stars_8.png","138.5","[""FO"",""CC"",""AO"",""HO""]","[""WM11"",""BF05"",""HM09"",""BM07""]","[8,5,1,8]","[8,4,2,6]","","",""
"show-reward","96","298665","0.0-96.0","p569079","A1JM5XNB4NCZR6","336OE47KI3QZCSCUXSQ8J11UOZXVWV","3H7XDTSHKEXJHFKTYZWN8KT9KW5WGU","model","mismatch","uniform","","","","","","","","299248.10000000894","301252.90000000596","","","","","","","","","","","","8","","stimuli/stars_8.png","138.5","","","","","stimuli/BM07_HO.jpg","",""
"explore-choice","97","301282","0.0-97.0","p569079","A1JM5XNB4NCZR6","336OE47KI3QZCSCUXSQ8J11UOZXVWV","3H7XDTSHKEXJHFKTYZWN8KT9KW5WGU","model","mismatch","uniform","","","","","","","2115.199999988079","301254.8000000119","303370","[""stimuli/WM11_AO.jpg"",""stimuli/BF05_HO.jpg"",""stimuli/BM07_CC.jpg"",""stimuli/HM09_FO.jpg""]","stimuli/WM11_AO.jpg","stimuli/BF05_HO.jpg","stimuli/BM07_CC.jpg","stimuli/HM09_FO.jpg","pos1","stimuli/WM11_AO.jpg","AO","WM11","0","3","6","8","stimuli/stars_6.png","141.5","[""AO"",""HO"",""CC"",""FO""]","[""WM11"",""BF05"",""BM07"",""HM09""]","[6,5,7,4]","[8,4,6,2]","","",""
"show-reward","98","303289","0.0-98.0","p569079","A1JM5XNB4NCZR6","336OE47KI3QZCSCUXSQ8J11UOZXVWV","3H7XDTSHKEXJHFKTYZWN8KT9KW5WGU","model","mismatch","uniform","","","","","","","","303871.5","305877.40000000596","","","","","","","","","","","","6","","stimuli/stars_6.png","141.5","","","","","stimuli/WM11_AO.jpg","",""
"explore-choice","99","305393","0.0-99.0","p569079","A1JM5XNB4NCZR6","336OE47KI3QZCSCUXSQ8J11UOZXVWV","3H7XDTSHKEXJHFKTYZWN8KT9KW5WGU","model","mismatch","uniform","","","","","","","1601.5999999940395","305879.10000000894","307480.700000003","[""stimuli/BM07_CC.jpg"",""stimuli/WM11_HO.jpg"",""stimuli/BF05_AO.jpg"",""stimuli/HM09_FO.jpg""]","stimuli/BM07_CC.jpg","stimuli/WM11_HO.jpg","stimuli/BF05_AO.jpg","stimuli/HM09_FO.jpg","pos2","stimuli/WM11_HO.jpg","HO","WM11","1","4.5","9","8","stimuli/stars_9.png","146","[""CC"",""HO"",""AO"",""FO""]","[""BM07"",""WM11"",""BF05"",""HM09""]","[7,9,6,2]","[6,8,4,2]","","",""
"show-reward","100","307400","0.0-100.0","p569079","A1JM5XNB4NCZR6","336OE47KI3QZCSCUXSQ8J11UOZXVWV","3H7XDTSHKEXJHFKTYZWN8KT9KW5WGU","model","mismatch","uniform","","","","","","","","307983.10000000894","309987.60000000894","","","","","","","","","","","","9","","stimuli/stars_9.png","146","","","","","stimuli/WM11_HO.jpg","",""
"explore-choice","101","309783","0.0-101.0","p569079","A1JM5XNB4NCZR6","336OE47KI3QZCSCUXSQ8J11UOZXVWV","3H7XDTSHKEXJHFKTYZWN8KT9KW5WGU","model","mismatch","uniform","","","","","","","1882","309989.5","311871.5","[""stimuli/BF05_FO.jpg"",""stimuli/BM07_CC.jpg"",""stimuli/WM11_HO.jpg"",""stimuli/HM09_AO.jpg""]","stimuli/BF05_FO.jpg","stimuli/BM07_CC.jpg","stimuli/WM11_HO.jpg","stimuli/HM09_AO.jpg","pos3","stimuli/WM11_HO.jpg","HO","WM11","2","3.5","7","8","stimuli/stars_7.png","149.5","[""FO"",""CC"",""HO"",""AO""]","[""BF05"",""BM07"",""WM11"",""HM09""]","[3,8,7,0]","[4,6,8,2]","","",""
"show-reward","102","311786","0.0-102.0","p569079","A1JM5XNB4NCZR6","336OE47KI3QZCSCUXSQ8J11UOZXVWV","3H7XDTSHKEXJHFKTYZWN8KT9KW5WGU","model","mismatch","uniform","","","","","","","","312372.60000000894","314374.200000003","","","","","","","","","","","","7","","stimuli/stars_7.png","149.5","","","","","stimuli/WM11_HO.jpg","",""
"explore-choice","103","319085","0.0-103.0","p569079","A1JM5XNB4NCZR6","336OE47KI3QZCSCUXSQ8J11UOZXVWV","3H7XDTSHKEXJHFKTYZWN8KT9KW5WGU","model","mismatch","uniform","","","","","","","6797.5999999940395","314374.90000000596","321172.5","[""stimuli/AF11_HE.jpg"",""stimuli/AF02_SC.jpg"",""stimuli/AM06_SUR.jpg"",""stimuli/HM10_DO.jpg""]","stimuli/AF11_HE.jpg","stimuli/AF02_SC.jpg","stimuli/AM06_SUR.jpg","stimuli/HM10_DO.jpg","pos1","stimuli/AF11_HE.jpg","HE","AF11","0","4","8","8","stimuli/stars_8.png","153.5","[""HE"",""SC"",""SUR"",""DO""]","[""AF11"",""AF02"",""AM06"",""HM10""]","[8,4,3,2]","[8,6,4,2]","","",""
"show-reward","104","321091","0.0-104.0","p569079","A1JM5XNB4NCZR6","336OE47KI3QZCSCUXSQ8J11UOZXVWV","3H7XDTSHKEXJHFKTYZWN8KT9KW5WGU","model","mismatch","uniform","","","","","","","","321674.60000000894","323679.60000000894","","","","","","","","","","","","8","","stimuli/stars_8.png","153.5","","","","","stimuli/AF11_HE.jpg","",""
"explore-choice","105","324023","0.0-105.0","p569079","A1JM5XNB4NCZR6","336OE47KI3QZCSCUXSQ8J11UOZXVWV","3H7XDTSHKEXJHFKTYZWN8KT9KW5WGU","model","mismatch","uniform","","","","","","","2430.7999999970198","323680.40000000596","326111.200000003","[""stimuli/AF02_SUR.jpg"",""stimuli/AF11_DO.jpg"",""stimuli/HM10_SC.jpg"",""stimuli/AM06_HE.jpg""]","stimuli/AF02_SUR.jpg","stimuli/AF11_DO.jpg","stimuli/HM10_SC.jpg","stimuli/AM06_HE.jpg","pos3","stimuli/HM10_SC.jpg","SC","HM10","2","2","4","6","stimuli/stars_4.png","155.5","[""SUR"",""DO"",""SC"",""HE""]","[""AF02"",""AF11"",""HM10"",""AM06""]","[5,0,4,6]","[4,2,6,8]","","",""
"show-reward","106","326027","0.0-106.0","p569079","A1JM5XNB4NCZR6","336OE47KI3QZCSCUXSQ8J11UOZXVWV","3H7XDTSHKEXJHFKTYZWN8KT9KW5WGU","model","mismatch","uniform","","","","","","","","326612.10000000894","328615.5","","","","","","","","","","","","4","","stimuli/stars_4.png","155.5","","","","","stimuli/HM10_SC.jpg","",""
"explore-choice","107","328815","0.0-107.0","p569079","A1JM5XNB4NCZR6","336OE47KI3QZCSCUXSQ8J11UOZXVWV","3H7XDTSHKEXJHFKTYZWN8KT9KW5WGU","model","mismatch","uniform","","","","","","","2286.3999999910593","328616.10000000894","330902.5","[""stimuli/AM06_DO.jpg"",""stimuli/AF02_HE.jpg"",""stimuli/HM10_SC.jpg"",""stimuli/AF11_SUR.jpg""]","stimuli/AM06_DO.jpg","stimuli/AF02_HE.jpg","stimuli/HM10_SC.jpg","stimuli/AF11_SUR.jpg","pos2","stimuli/AF02_HE.jpg","HE","AF02","1","5","10","8","stimuli/stars_10.png","160.5","[""DO"",""HE"",""SC"",""SUR""]","[""AM06"",""AF02"",""HM10"",""AF11""]","[4,10,7,2]","[2,8,6,4]","","",""
"show-reward","108","330822","0.0-108.0","p569079","A1JM5XNB4NCZR6","336OE47KI3QZCSCUXSQ8J11UOZXVWV","3H7XDTSHKEXJHFKTYZWN8KT9KW5WGU","model","mismatch","uniform","","","","","","","","331404.200000003","333410.10000000894","","","","","","","","","","","","10","","stimuli/stars_10.png","160.5","","","","","stimuli/AF02_HE.jpg","",""
"explore-choice","109","334673","0.0-109.0","p569079","A1JM5XNB4NCZR6","336OE47KI3QZCSCUXSQ8J11UOZXVWV","3H7XDTSHKEXJHFKTYZWN8KT9KW5WGU","model","mismatch","uniform","","","","","","","3347.9000000059605","333410.90000000596","336758.8000000119","[""stimuli/AF02_HE.jpg"",""stimuli/HM10_SUR.jpg"",""stimuli/AF11_SC.jpg"",""stimuli/AM06_DO.jpg""]","stimuli/AF02_HE.jpg","stimuli/HM10_SUR.jpg","stimuli/AF11_SC.jpg","stimuli/AM06_DO.jpg","pos2","stimuli/HM10_SUR.jpg","SUR","HM10","1","3","6","4","stimuli/stars_6.png","163.5","[""HE"",""SUR"",""SC"",""DO""]","[""AF02"",""HM10"",""AF11"",""AM06""]","[9,6,4,1]","[8,4,6,2]","","",""
"show-reward","110","336677","0.0-110.0","p569079","A1JM5XNB4NCZR6","336OE47KI3QZCSCUXSQ8J11UOZXVWV","3H7XDTSHKEXJHFKTYZWN8KT9KW5WGU","model","mismatch","uniform","","","","","","","","337262.700000003","339265.3000000119","","","","","","","","","","","","6","","stimuli/stars_6.png","163.5","","","","","stimuli/HM10_SUR.jpg","",""
"explore-choice","111","339537","0.0-111.0","p569079","A1JM5XNB4NCZR6","336OE47KI3QZCSCUXSQ8J11UOZXVWV","3H7XDTSHKEXJHFKTYZWN8KT9KW5WGU","model","mismatch","uniform","","","","","","","2359.0999999940395","339266.3000000119","341625.40000000596","[""stimuli/AF02_SUR.jpg"",""stimuli/AM06_DO.jpg"",""stimuli/HM10_SC.jpg"",""stimuli/AF11_HE.jpg""]","stimuli/AF02_SUR.jpg","stimuli/AM06_DO.jpg","stimuli/HM10_SC.jpg","stimuli/AF11_HE.jpg","pos3","stimuli/HM10_SC.jpg","SC","HM10","2","3","6","6","stimuli/stars_6.png","166.5","[""SUR"",""DO"",""SC"",""HE""]","[""AF02"",""AM06"",""HM10"",""AF11""]","[2,4,6,6]","[4,2,6,8]","","",""
"show-reward","112","341549","0.0-112.0","p569079","A1JM5XNB4NCZR6","336OE47KI3QZCSCUXSQ8J11UOZXVWV","3H7XDTSHKEXJHFKTYZWN8KT9KW5WGU","model","mismatch","uniform","","","","","","","","342127.700000003","344136.90000000596","","","","","","","","","","","","6","","stimuli/stars_6.png","166.5","","","","","stimuli/HM10_SC.jpg","",""
"explore-choice","113","344768","0.0-113.0","p569079","A1JM5XNB4NCZR6","336OE47KI3QZCSCUXSQ8J11UOZXVWV","3H7XDTSHKEXJHFKTYZWN8KT9KW5WGU","model","mismatch","uniform","","","","","","","2718","344138.8000000119","346856.8000000119","[""stimuli/HM10_SUR.jpg"",""stimuli/AM06_HE.jpg"",""stimuli/AF11_SC.jpg"",""stimuli/AF02_DO.jpg""]","stimuli/HM10_SUR.jpg","stimuli/AM06_HE.jpg","stimuli/AF11_SC.jpg","stimuli/AF02_DO.jpg","pos2","stimuli/AM06_HE.jpg","HE","AM06","1","4.5","9","8","stimuli/stars_9.png","171","[""SUR"",""HE"",""SC"",""DO""]","[""HM10"",""AM06"",""AF11"",""AF02""]","[3,9,8,3]","[4,8,6,2]","","",""
"show-reward","114","346775","0.0-114.0","p569079","A1JM5XNB4NCZR6","336OE47KI3QZCSCUXSQ8J11UOZXVWV","3H7XDTSHKEXJHFKTYZWN8KT9KW5WGU","model","mismatch","uniform","","","","","","","","347357.700000003","349363.60000000894","","","","","","","","","","","","9","","stimuli/stars_9.png","171","","","","","stimuli/AM06_HE.jpg","",""
"explore-choice","115","350617","0.0-115.0","p569079","A1JM5XNB4NCZR6","336OE47KI3QZCSCUXSQ8J11UOZXVWV","3H7XDTSHKEXJHFKTYZWN8KT9KW5WGU","model","mismatch","uniform","","","","","","","3339.199999988079","349364.3000000119","352703.5","[""stimuli/AF02_DO.jpg"",""stimuli/AF11_HE.jpg"",""stimuli/HM10_SC.jpg"",""stimuli/AM06_SUR.jpg""]","stimuli/AF02_DO.jpg","stimuli/AF11_HE.jpg","stimuli/HM10_SC.jpg","stimuli/AM06_SUR.jpg","pos4","stimuli/AM06_SUR.jpg","SUR","AM06","3","2.5","5","4","stimuli/stars_5.png","173.5","[""DO"",""HE"",""SC"",""SUR""]","[""AF02"",""AF11"",""HM10"",""AM06""]","[0,8,4,5]","[2,8,6,4]","","",""
"show-reward","116","352624","0.0-116.0","p569079","A1JM5XNB4NCZR6","336OE47KI3QZCSCUXSQ8J11UOZXVWV","3H7XDTSHKEXJHFKTYZWN8KT9KW5WGU","model","mismatch","uniform","","","","","","","","353207.60000000894","355212","","","","","","","","","","","","5","","stimuli/stars_5.png","173.5","","","","","stimuli/AM06_SUR.jpg","",""
"explore-choice","117","355404","0.0-117.0","p569079","A1JM5XNB4NCZR6","336OE47KI3QZCSCUXSQ8J11UOZXVWV","3H7XDTSHKEXJHFKTYZWN8KT9KW5WGU","model","mismatch","uniform","","","","","","","2278.2000000029802","355214.10000000894","357492.3000000119","[""stimuli/AF02_DO.jpg"",""stimuli/AF11_SUR.jpg"",""stimuli/AM06_SC.jpg"",""stimuli/HM10_HE.jpg""]","stimuli/AF02_DO.jpg","stimuli/AF11_SUR.jpg","stimuli/AM06_SC.jpg","stimuli/HM10_HE.jpg","pos3","stimuli/AM06_SC.jpg","SC","AM06","2","4","8","6","stimuli/stars_8.png","177.5","[""DO"",""SUR"",""SC"",""HE""]","[""AF02"",""AF11"",""AM06"",""HM10""]","[3,3,8,6]","[2,4,6,8]","","",""
"show-reward","118","357409","0.0-118.0","p569079","A1JM5XNB4NCZR6","336OE47KI3QZCSCUXSQ8J11UOZXVWV","3H7XDTSHKEXJHFKTYZWN8KT9KW5WGU","model","mismatch","uniform","","","","","","","","357994.200000003","359997.200000003","","","","","","","","","","","","8","","stimuli/stars_8.png","177.5","","","","","stimuli/AM06_SC.jpg","",""
"explore-choice","119","362548","0.0-119.0","p569079","A1JM5XNB4NCZR6","336OE47KI3QZCSCUXSQ8J11UOZXVWV","3H7XDTSHKEXJHFKTYZWN8KT9KW5WGU","model","mismatch","uniform","","","","","","","4632.100000008941","359999.200000003","364631.3000000119","[""stimuli/AF02_HE.jpg"",""stimuli/AM06_SC.jpg"",""stimuli/HM10_DO.jpg"",""stimuli/AF11_SUR.jpg""]","stimuli/AF02_HE.jpg","stimuli/AM06_SC.jpg","stimuli/HM10_DO.jpg","stimuli/AF11_SUR.jpg","pos2","stimuli/AM06_SC.jpg","SC","AM06","1","4","8","6","stimuli/stars_8.png","181.5","[""HE"",""SC"",""DO"",""SUR""]","[""AF02"",""AM06"",""HM10"",""AF11""]","[8,8,4,4]","[8,6,2,4]","","",""
"show-reward","120","364558","0.0-120.0","p569079","A1JM5XNB4NCZR6","336OE47KI3QZCSCUXSQ8J11UOZXVWV","3H7XDTSHKEXJHFKTYZWN8KT9KW5WGU","model","mismatch","uniform","","","","","","","","365138.700000003","367146.40000000596","","","","","","","","","","","","8","","stimuli/stars_8.png","181.5","","","","","stimuli/AM06_SC.jpg","",""
"explore-choice","121","366920","0.0-121.0","p569079","A1JM5XNB4NCZR6","336OE47KI3QZCSCUXSQ8J11UOZXVWV","3H7XDTSHKEXJHFKTYZWN8KT9KW5WGU","model","mismatch","uniform","","","","","","","1860","367148.5","369008.5","[""stimuli/AF02_DO.jpg"",""stimuli/AM06_HE.jpg"",""stimuli/HM10_SC.jpg"",""stimuli/AF11_SUR.jpg""]","stimuli/AF02_DO.jpg","stimuli/AM06_HE.jpg","stimuli/HM10_SC.jpg","stimuli/AF11_SUR.jpg","pos3","stimuli/HM10_SC.jpg","SC","HM10","2","2","4","6","stimuli/stars_4.png","183.5","[""DO"",""HE"",""SC"",""SUR""]","[""AF02"",""AM06"",""HM10"",""AF11""]","[4,7,4,4]","[2,8,6,4]","","",""
"show-reward","122","368925","0.0-122.0","p569079","A1JM5XNB4NCZR6","336OE47KI3QZCSCUXSQ8J11UOZXVWV","3H7XDTSHKEXJHFKTYZWN8KT9KW5WGU","model","mismatch","uniform","","","","","","","","369509.200000003","371514.10000000894","","","","","","","","","","","","4","","stimuli/stars_4.png","183.5","","","","","stimuli/HM10_SC.jpg","",""
"explore-choice","123","371820","0.0-123.0","p569079","A1JM5XNB4NCZR6","336OE47KI3QZCSCUXSQ8J11UOZXVWV","3H7XDTSHKEXJHFKTYZWN8KT9KW5WGU","model","mismatch","uniform","","","","","","","2394.0999999940395","371514.90000000596","373909","[""stimuli/AM06_HE.jpg"",""stimuli/AF11_SC.jpg"",""stimuli/AF02_SUR.jpg"",""stimuli/HM10_DO.jpg""]","stimuli/AM06_HE.jpg","stimuli/AF11_SC.jpg","stimuli/AF02_SUR.jpg","stimuli/HM10_DO.jpg","pos1","stimuli/AM06_HE.jpg","HE","AM06","0","4.5","9","8","stimuli/stars_9.png","188","[""HE"",""SC"",""SUR"",""DO""]","[""AM06"",""AF11"",""AF02"",""HM10""]","[9,7,4,4]","[8,6,4,2]","","",""
"show-reward","124","373825","0.0-124.0","p569079","A1JM5XNB4NCZR6","336OE47KI3QZCSCUXSQ8J11UOZXVWV","3H7XDTSHKEXJHFKTYZWN8KT9KW5WGU","model","mismatch","uniform","","","","","","","","374409.8000000119","376414.200000003","","","","","","","","","","","","9","","stimuli/stars_9.png","188","","","","","stimuli/AM06_HE.jpg","",""
"explore-choice","125","376690","0.0-125.0","p569079","A1JM5XNB4NCZR6","336OE47KI3QZCSCUXSQ8J11UOZXVWV","3H7XDTSHKEXJHFKTYZWN8KT9KW5WGU","model","mismatch","uniform","","","","","","","2363.3999999910593","376414.60000000894","378778","[""stimuli/HM10_HE.jpg"",""stimuli/AF02_SC.jpg"",""stimuli/AM06_DO.jpg"",""stimuli/AF11_SUR.jpg""]","stimuli/HM10_HE.jpg","stimuli/AF02_SC.jpg","stimuli/AM06_DO.jpg","stimuli/AF11_SUR.jpg","pos4","stimuli/AF11_SUR.jpg","SUR","AF11","3","1.5","3","4","stimuli/stars_3.png","189.5","[""HE"",""SC"",""DO"",""SUR""]","[""HM10"",""AF02"",""AM06"",""AF11""]","[8,4,2,3]","[8,6,2,4]","","",""
"show-reward","126","378696","0.0-126.0","p569079","A1JM5XNB4NCZR6","336OE47KI3QZCSCUXSQ8J11UOZXVWV","3H7XDTSHKEXJHFKTYZWN8KT9KW5WGU","model","mismatch","uniform","","","","","","","","379280","381284.3000000119","","","","","","","","","","","","3","","stimuli/stars_3.png","189.5","","","","","stimuli/AF11_SUR.jpg","",""
"explore-choice","127","384949","0.0-127.0","p569079","A1JM5XNB4NCZR6","336OE47KI3QZCSCUXSQ8J11UOZXVWV","3H7XDTSHKEXJHFKTYZWN8KT9KW5WGU","model","mismatch","uniform","","","","","","","5749.5","381286","387035.5","[""stimuli/HM10_SUR.jpg"",""stimuli/AF11_DO.jpg"",""stimuli/AF02_SC.jpg"",""stimuli/AM06_HE.jpg""]","stimuli/HM10_SUR.jpg","stimuli/AF11_DO.jpg","stimuli/AF02_SC.jpg","stimuli/AM06_HE.jpg","pos4","stimuli/AM06_HE.jpg","HE","AM06","3","3","6","8","stimuli/stars_6.png","192.5","[""SUR"",""DO"",""SC"",""HE""]","[""HM10"",""AF11"",""AF02"",""AM06""]","[5,3,5,6]","[4,2,6,8]","","",""
"show-reward","128","386950","0.0-128.0","p569079","A1JM5XNB4NCZR6","336OE47KI3QZCSCUXSQ8J11UOZXVWV","3H7XDTSHKEXJHFKTYZWN8KT9KW5WGU","model","mismatch","uniform","","","","","","","","387538.40000000596","389539.40000000596","","","","","","","","","","","","6","","stimuli/stars_6.png","192.5","","","","","stimuli/AM06_HE.jpg","",""
"explore-choice","129","395404","0.0-129.0","p569079","A1JM5XNB4NCZR6","336OE47KI3QZCSCUXSQ8J11UOZXVWV","3H7XDTSHKEXJHFKTYZWN8KT9KW5WGU","model","mismatch","uniform","","","","","","","7952.70000000298","389540.10000000894","397492.8000000119","[""stimuli/AM06_SC.jpg"",""stimuli/AF02_HE.jpg"",""stimuli/HM10_SUR.jpg"",""stimuli/AF11_DO.jpg""]","stimuli/AM06_SC.jpg","stimuli/AF02_HE.jpg","stimuli/HM10_SUR.jpg","stimuli/AF11_DO.jpg","pos2","stimuli/AF02_HE.jpg","HE","AF02","1","4","8","8","stimuli/stars_8.png","196.5","[""SC"",""HE"",""SUR"",""DO""]","[""AM06"",""AF02"",""HM10"",""AF11""]","[4,8,3,2]","[6,8,4,2]","","",""
"show-reward","130","397409","0.0-130.0","p569079","A1JM5XNB4NCZR6","336OE47KI3QZCSCUXSQ8J11UOZXVWV","3H7XDTSHKEXJHFKTYZWN8KT9KW5WGU","model","mismatch","uniform","","","","","","","","397995.200000003","399998.10000000894","","","","","","","","","","","","8","","stimuli/stars_8.png","196.5","","","","","stimuli/AF02_HE.jpg","",""
"explore-choice","131","400027","0.0-131.0","p569079","A1JM5XNB4NCZR6","336OE47KI3QZCSCUXSQ8J11UOZXVWV","3H7XDTSHKEXJHFKTYZWN8KT9KW5WGU","model","mismatch","uniform","","","","","","","2116","399999.3000000119","402115.3000000119","[""stimuli/HM10_HE.jpg"",""stimuli/AF02_SC.jpg"",""stimuli/AF11_DO.jpg"",""stimuli/AM06_SUR.jpg""]","stimuli/HM10_HE.jpg","stimuli/AF02_SC.jpg","stimuli/AF11_DO.jpg","stimuli/AM06_SUR.jpg","pos1","stimuli/HM10_HE.jpg","HE","HM10","0","4.5","9","8","stimuli/stars_9.png","201","[""HE"",""SC"",""DO"",""SUR""]","[""HM10"",""AF02"",""AF11"",""AM06""]","[9,5,2,3]","[8,6,2,4]","","",""
"show-reward","132","402034","0.0-132.0","p569079","A1JM5XNB4NCZR6","336OE47KI3QZCSCUXSQ8J11UOZXVWV","3H7XDTSHKEXJHFKTYZWN8KT9KW5WGU","model","mismatch","uniform","","","","","","","","402616.40000000596","404622.60000000894","","","","","","","","","","","","9","","stimuli/stars_9.png","201","","","","","stimuli/HM10_HE.jpg","",""
"explore-choice","133","408807","0.0-133.0","p569079","A1JM5XNB4NCZR6","336OE47KI3QZCSCUXSQ8J11UOZXVWV","3H7XDTSHKEXJHFKTYZWN8KT9KW5WGU","model","mismatch","uniform","","","","","","","6267.5999999940395","404624.60000000894","410892.200000003","[""stimuli/AF11_HE.jpg"",""stimuli/AM06_DO.jpg"",""stimuli/AF02_SC.jpg"",""stimuli/HM10_SUR.jpg""]","stimuli/AF11_HE.jpg","stimuli/AM06_DO.jpg","stimuli/AF02_SC.jpg","stimuli/HM10_SUR.jpg","pos4","stimuli/HM10_SUR.jpg","SUR","HM10","3","2.5","5","4","stimuli/stars_5.png","203.5","[""HE"",""DO"",""SC"",""SUR""]","[""AF11"",""AM06"",""AF02"",""HM10""]","[10,2,8,5]","[8,2,6,4]","","",""
"show-reward","134","410809","0.0-134.0","p569079","A1JM5XNB4NCZR6","336OE47KI3QZCSCUXSQ8J11UOZXVWV","3H7XDTSHKEXJHFKTYZWN8KT9KW5WGU","model","mismatch","uniform","","","","","","","","411396.8000000119","413398.3000000119","","","","","","","","","","","","5","","stimuli/stars_5.png","203.5","","","","","stimuli/HM10_SUR.jpg","",""
"explore-choice","135","413751","0.0-135.0","p569079","A1JM5XNB4NCZR6","336OE47KI3QZCSCUXSQ8J11UOZXVWV","3H7XDTSHKEXJHFKTYZWN8KT9KW5WGU","model","mismatch","uniform","","","","","","","2440.7000000029802","413399","415839.700000003","[""stimuli/AF02_SUR.jpg"",""stimuli/AM06_SC.jpg"",""stimuli/HM10_DO.jpg"",""stimuli/AF11_HE.jpg""]","stimuli/AF02_SUR.jpg","stimuli/AM06_SC.jpg","stimuli/HM10_DO.jpg","stimuli/AF11_HE.jpg","pos1","stimuli/AF02_SUR.jpg","SUR","AF02","0","1","2","4","stimuli/stars_2.png","204.5","[""SUR"",""SC"",""DO"",""HE""]","[""AF02"",""AM06"",""HM10"",""AF11""]","[2,7,3,8]","[4,6,2,8]","","",""
"show-reward","136","415753","0.0-136.0","p569079","A1JM5XNB4NCZR6","336OE47KI3QZCSCUXSQ8J11UOZXVWV","3H7XDTSHKEXJHFKTYZWN8KT9KW5WGU","model","mismatch","uniform","","","","","","","","416340.700000003","418341.60000000894","","","","","","","","","","","","2","","stimuli/stars_2.png","204.5","","","","","stimuli/AF02_SUR.jpg","",""
"explore-choice","137","419852","0.0-137.0","p569079","A1JM5XNB4NCZR6","336OE47KI3QZCSCUXSQ8J11UOZXVWV","3H7XDTSHKEXJHFKTYZWN8KT9KW5WGU","model","mismatch","uniform","","","","","","","3597.4000000059605","418343.200000003","421940.60000000894","[""stimuli/AM06_DO.jpg"",""stimuli/AF02_SUR.jpg"",""stimuli/HM10_HE.jpg"",""stimuli/AF11_SC.jpg""]","stimuli/AM06_DO.jpg","stimuli/AF02_SUR.jpg","stimuli/HM10_HE.jpg","stimuli/AF11_SC.jpg","pos3","stimuli/HM10_HE.jpg","HE","HM10","2","5","10","8","stimuli/stars_10.png","209.5","[""DO"",""SUR"",""HE"",""SC""]","[""AM06"",""AF02"",""HM10"",""AF11""]","[1,3,10,4]","[2,4,8,6]","","",""
"show-reward","138","421853","0.0-138.0","p569079","A1JM5XNB4NCZR6","336OE47KI3QZCSCUXSQ8J11UOZXVWV","3H7XDTSHKEXJHFKTYZWN8KT9KW5WGU","model","mismatch","uniform","","","","","","","","422441.8000000119","424442.5","","","","","","","","","","","","10","","stimuli/stars_10.png","209.5","","","","","stimuli/HM10_HE.jpg","",""
"explore-choice","139","424221","0.0-139.0","p569079","A1JM5XNB4NCZR6","336OE47KI3QZCSCUXSQ8J11UOZXVWV","3H7XDTSHKEXJHFKTYZWN8KT9KW5WGU","model","mismatch","uniform","","","","","","","1866.7000000029802","424443","426309.700000003","[""stimuli/AM06_SC.jpg"",""stimuli/HM10_HE.jpg"",""stimuli/AF02_SUR.jpg"",""stimuli/AF11_DO.jpg""]","stimuli/AM06_SC.jpg","stimuli/HM10_HE.jpg","stimuli/AF02_SUR.jpg","stimuli/AF11_DO.jpg","pos2","stimuli/HM10_HE.jpg","HE","HM10","1","3.5","7","8","stimuli/stars_7.png","213","[""SC"",""HE"",""SUR"",""DO""]","[""AM06"",""HM10"",""AF02"",""AF11""]","[7,7,6,1]","[6,8,4,2]","","",""
"show-reward","140","426223","0.0-140.0","p569079","A1JM5XNB4NCZR6","336OE47KI3QZCSCUXSQ8J11UOZXVWV","3H7XDTSHKEXJHFKTYZWN8KT9KW5WGU","model","mismatch","uniform","","","","","","","","426810.5","428812","","","","","","","","","","","","7","","stimuli/stars_7.png","213","","","","","stimuli/HM10_HE.jpg","",""
"explore-choice","141","429303","0.0-141.0","p569079","A1JM5XNB4NCZR6","336OE47KI3QZCSCUXSQ8J11UOZXVWV","3H7XDTSHKEXJHFKTYZWN8KT9KW5WGU","model","mismatch","uniform","","","","","","","2577.7000000029802","428814.10000000894","431391.8000000119","[""stimuli/AF02_HE.jpg"",""stimuli/HM10_SC.jpg"",""stimuli/AM06_SUR.jpg"",""stimuli/AF11_DO.jpg""]","stimuli/AF02_HE.jpg","stimuli/HM10_SC.jpg","stimuli/AM06_SUR.jpg","stimuli/AF11_DO.jpg","pos1","stimuli/AF02_HE.jpg","HE","AF02","0","5","10","8","stimuli/stars_10.png","218","[""HE"",""SC"",""SUR"",""DO""]","[""AF02"",""HM10"",""AM06"",""AF11""]","[10,6,4,1]","[8,6,4,2]","","",""
"show-reward","142","431305","0.0-142.0","p569079","A1JM5XNB4NCZR6","336OE47KI3QZCSCUXSQ8J11UOZXVWV","3H7XDTSHKEXJHFKTYZWN8KT9KW5WGU","model","mismatch","uniform","","","","","","","","431892.700000003","433894.3000000119","","","","","","","","","","","","10","","stimuli/stars_10.png","218","","","","","stimuli/AF02_HE.jpg","",""
"explore-choice","143","433483","0.0-143.0","p569079","A1JM5XNB4NCZR6","336OE47KI3QZCSCUXSQ8J11UOZXVWV","3H7XDTSHKEXJHFKTYZWN8KT9KW5WGU","model","mismatch","uniform","","","","","","","1674.5","433895.5","435570","[""stimuli/AF11_SC.jpg"",""stimuli/AF02_HE.jpg"",""stimuli/AM06_SUR.jpg"",""stimuli/HM10_DO.jpg""]","stimuli/AF11_SC.jpg","stimuli/AF02_HE.jpg","stimuli/AM06_SUR.jpg","stimuli/HM10_DO.jpg","pos2","stimuli/AF02_HE.jpg","HE","AF02","1","4","8","8","stimuli/stars_8.png","222","[""SC"",""HE"",""SUR"",""DO""]","[""AF11"",""AF02"",""AM06"",""HM10""]","[6,8,6,2]","[6,8,4,2]","","",""
"show-reward","144","435492","0.0-144.0","p569079","A1JM5XNB4NCZR6","336OE47KI3QZCSCUXSQ8J11UOZXVWV","3H7XDTSHKEXJHFKTYZWN8KT9KW5WGU","model","mismatch","uniform","","","","","","","","436073.40000000596","438080.90000000596","","","","","","","","","","","","8","","stimuli/stars_8.png","222","","","","","stimuli/AF02_HE.jpg","",""
"explore-choice","145","438280","0.0-145.0","p569079","A1JM5XNB4NCZR6","336OE47KI3QZCSCUXSQ8J11UOZXVWV","3H7XDTSHKEXJHFKTYZWN8KT9KW5WGU","model","mismatch","uniform","","","","","","","2285.5999999940395","438083.10000000894","440368.700000003","[""stimuli/AF02_DO.jpg"",""stimuli/AM06_SUR.jpg"",""stimuli/HM10_HE.jpg"",""stimuli/AF11_SC.jpg""]","stimuli/AF02_DO.jpg","stimuli/AM06_SUR.jpg","stimuli/HM10_HE.jpg","stimuli/AF11_SC.jpg","pos3","stimuli/HM10_HE.jpg","HE","HM10","2","3.5","7","8","stimuli/stars_7.png","225.5","[""DO"",""SUR"",""HE"",""SC""]","[""AF02"",""AM06"",""HM10"",""AF11""]","[0,3,7,8]","[2,4,8,6]","","",""
"show-reward","146","440285","0.0-146.0","p569079","A1JM5XNB4NCZR6","336OE47KI3QZCSCUXSQ8J11UOZXVWV","3H7XDTSHKEXJHFKTYZWN8KT9KW5WGU","model","mismatch","uniform","","","","","","","","440871","442874","","","","","","","","","","","","7","","stimuli/stars_7.png","225.5","","","","","stimuli/HM10_HE.jpg","",""
"explore-choice","147","442882","0.0-147.0","p569079","A1JM5XNB4NCZR6","336OE47KI3QZCSCUXSQ8J11UOZXVWV","3H7XDTSHKEXJHFKTYZWN8KT9KW5WGU","model","mismatch","uniform","","","","","","","2090.2999999970198","442876.3000000119","444966.60000000894","[""stimuli/HM10_SUR.jpg"",""stimuli/AM06_SC.jpg"",""stimuli/AF02_DO.jpg"",""stimuli/AF11_HE.jpg""]","stimuli/HM10_SUR.jpg","stimuli/AM06_SC.jpg","stimuli/AF02_DO.jpg","stimuli/AF11_HE.jpg","pos4","stimuli/AF11_HE.jpg","HE","AF11","3","3","6","8","stimuli/stars_6.png","228.5","[""SUR"",""SC"",""DO"",""HE""]","[""HM10"",""AM06"",""AF02"",""AF11""]","[5,7,3,6]","[4,6,2,8]","","",""
"show-reward","148","444888","0.0-148.0","p569079","A1JM5XNB4NCZR6","336OE47KI3QZCSCUXSQ8J11UOZXVWV","3H7XDTSHKEXJHFKTYZWN8KT9KW5WGU","model","mismatch","uniform","","","","","","","","445473.3000000119","447477.200000003","","","","","","","","","","","","6","","stimuli/stars_6.png","228.5","","","","","stimuli/AF11_HE.jpg","",""
"explore-choice","149","447152","0.0-149.0","p569079","A1JM5XNB4NCZR6","336OE47KI3QZCSCUXSQ8J11UOZXVWV","3H7XDTSHKEXJHFKTYZWN8KT9KW5WGU","model","mismatch","uniform","","","","","","","1762.5999999940395","447478.10000000894","449240.700000003","[""stimuli/AF02_SC.jpg"",""stimuli/HM10_DO.jpg"",""stimuli/AF11_SUR.jpg"",""stimuli/AM06_HE.jpg""]","stimuli/AF02_SC.jpg","stimuli/HM10_DO.jpg","stimuli/AF11_SUR.jpg","stimuli/AM06_HE.jpg","pos4","stimuli/AM06_HE.jpg","HE","AM06","3","4","8","8","stimuli/stars_8.png","232.5","[""SC"",""DO"",""SUR"",""HE""]","[""AF02"",""HM10"",""AF11"",""AM06""]","[4,4,3,8]","[6,2,4,8]","","",""
"show-reward","150","449160","0.0-150.0","p569079","A1JM5XNB4NCZR6","336OE47KI3QZCSCUXSQ8J11UOZXVWV","3H7XDTSHKEXJHFKTYZWN8KT9KW5WGU","model","mismatch","uniform","","","","","","","","449742.40000000596","451749.200000003","","","","","","","","","","","","8","","stimuli/stars_8.png","232.5","","","","","stimuli/AM06_HE.jpg","",""
"explore-choice","151","452390","0.0-151.0","p569079","A1JM5XNB4NCZR6","336OE47KI3QZCSCUXSQ8J11UOZXVWV","3H7XDTSHKEXJHFKTYZWN8KT9KW5WGU","model","mismatch","uniform","","","","","","","2729.7000000029802","451749.60000000894","454479.3000000119","[""stimuli/HM10_SC.jpg"",""stimuli/AF11_SUR.jpg"",""stimuli/AF02_DO.jpg"",""stimuli/AM06_HE.jpg""]","stimuli/HM10_SC.jpg","stimuli/AF11_SUR.jpg","stimuli/AF02_DO.jpg","stimuli/AM06_HE.jpg","pos1","stimuli/HM10_SC.jpg","SC","HM10","0","2","4","6","stimuli/stars_4.png","234.5","[""SC"",""SUR"",""DO"",""HE""]","[""HM10"",""AF11"",""AF02"",""AM06""]","[4,4,4,7]","[6,4,2,8]","","",""
"show-reward","152","454393","0.0-152.0","p569079","A1JM5XNB4NCZR6","336OE47KI3QZCSCUXSQ8J11UOZXVWV","3H7XDTSHKEXJHFKTYZWN8KT9KW5WGU","model","mismatch","uniform","","","","","","","","454981","456982.700000003","","","","","","","","","","","","4","","stimuli/stars_4.png","234.5","","","","","stimuli/HM10_SC.jpg","",""
"explore-choice","153","457077","0.0-153.0","p569079","A1JM5XNB4NCZR6","336OE47KI3QZCSCUXSQ8J11UOZXVWV","3H7XDTSHKEXJHFKTYZWN8KT9KW5WGU","model","mismatch","uniform","","","","","","","2177.9000000059605","456984","459161.90000000596","[""stimuli/HM10_SUR.jpg"",""stimuli/AF11_DO.jpg"",""stimuli/AM06_HE.jpg"",""stimuli/AF02_SC.jpg""]","stimuli/HM10_SUR.jpg","stimuli/AF11_DO.jpg","stimuli/AM06_HE.jpg","stimuli/AF02_SC.jpg","pos3","stimuli/AM06_HE.jpg","HE","AM06","2","3","6","8","stimuli/stars_6.png","237.5","[""SUR"",""DO"",""HE"",""SC""]","[""HM10"",""AF11"",""AM06"",""AF02""]","[5,3,6,5]","[4,2,8,6]","","",""
"show-reward","154","459085","0.0-154.0","p569079","A1JM5XNB4NCZR6","336OE47KI3QZCSCUXSQ8J11UOZXVWV","3H7XDTSHKEXJHFKTYZWN8KT9KW5WGU","model","mismatch","uniform","","","","","","","","459667.700000003","461674.40000000596","","","","","","","","","","","","6","","stimuli/stars_6.png","237.5","","","","","stimuli/AM06_HE.jpg","",""
"explore-choice","155","461139","0.0-155.0","p569079","A1JM5XNB4NCZR6","336OE47KI3QZCSCUXSQ8J11UOZXVWV","3H7XDTSHKEXJHFKTYZWN8KT9KW5WGU","model","mismatch","uniform","","","","","","","1550.2000000029802","461674.90000000596","463225.10000000894","[""stimuli/AM06_DO.jpg"",""stimuli/AF02_HE.jpg"",""stimuli/AF11_SUR.jpg"",""stimuli/HM10_SC.jpg""]","stimuli/AM06_DO.jpg","stimuli/AF02_HE.jpg","stimuli/AF11_SUR.jpg","stimuli/HM10_SC.jpg","pos2","stimuli/AF02_HE.jpg","HE","AF02","1","5","10","8","stimuli/stars_10.png","242.5","[""DO"",""HE"",""SUR"",""SC""]","[""AM06"",""AF02"",""AF11"",""HM10""]","[4,10,2,7]","[2,8,4,6]","","",""
"show-reward","156","463147","0.0-156.0","p569079","A1JM5XNB4NCZR6","336OE47KI3QZCSCUXSQ8J11UOZXVWV","3H7XDTSHKEXJHFKTYZWN8KT9KW5WGU","model","mismatch","uniform","","","","","","","","463729.60000000894","465736","","","","","","","","","","","","10","","stimuli/stars_10.png","242.5","","","","","stimuli/AF02_HE.jpg","",""
"explore-choice","157","465094","0.0-157.0","p569079","A1JM5XNB4NCZR6","336OE47KI3QZCSCUXSQ8J11UOZXVWV","3H7XDTSHKEXJHFKTYZWN8KT9KW5WGU","model","mismatch","uniform","","","","","","","1445.6000000089407","465737.5","467183.10000000894","[""stimuli/AF11_SC.jpg"",""stimuli/AM06_DO.jpg"",""stimuli/HM10_SUR.jpg"",""stimuli/AF02_HE.jpg""]","stimuli/AF11_SC.jpg","stimuli/AM06_DO.jpg","stimuli/HM10_SUR.jpg","stimuli/AF02_HE.jpg","pos4","stimuli/AF02_HE.jpg","HE","AF02","3","4.5","9","8","stimuli/stars_9.png","247","[""SC"",""DO"",""SUR"",""HE""]","[""AF11"",""AM06"",""HM10"",""AF02""]","[4,1,6,9]","[6,2,4,8]","","",""
"show-reward","158","467100","0.0-158.0","p569079","A1JM5XNB4NCZR6","336OE47KI3QZCSCUXSQ8J11UOZXVWV","3H7XDTSHKEXJHFKTYZWN8KT9KW5WGU","model","mismatch","uniform","","","","","","","","467683.90000000596","469690.10000000894","","","","","","","","","","","","9","","stimuli/stars_9.png","247","","","","","stimuli/AF02_HE.jpg","",""
"explore-choice","159","469909","0.0-159.0","p569079","A1JM5XNB4NCZR6","336OE47KI3QZCSCUXSQ8J11UOZXVWV","3H7XDTSHKEXJHFKTYZWN8KT9KW5WGU","model","mismatch","uniform","","","","","","","2307.1000000089407","469690.700000003","471997.8000000119","[""stimuli/AM06_SUR.jpg"",""stimuli/HM10_HE.jpg"",""stimuli/AF11_SC.jpg"",""stimuli/AF02_DO.jpg""]","stimuli/AM06_SUR.jpg","stimuli/HM10_HE.jpg","stimuli/AF11_SC.jpg","stimuli/AF02_DO.jpg","pos2","stimuli/HM10_HE.jpg","HE","HM10","1","3.5","7","8","stimuli/stars_7.png","250.5","[""SUR"",""HE"",""SC"",""DO""]","[""AM06"",""HM10"",""AF11"",""AF02""]","[3,7,8,0]","[4,8,6,2]","","",""
"show-reward","160","471917","0.0-160.0","p569079","A1JM5XNB4NCZR6","336OE47KI3QZCSCUXSQ8J11UOZXVWV","3H7XDTSHKEXJHFKTYZWN8KT9KW5WGU","model","mismatch","uniform","","","","","","","","472499.700000003","474506.3000000119","","","","","","","","","","","","7","","stimuli/stars_7.png","250.5","","","","","stimuli/HM10_HE.jpg","",""
"explore-choice","161","474011","0.0-161.0","p569079","A1JM5XNB4NCZR6","336OE47KI3QZCSCUXSQ8J11UOZXVWV","3H7XDTSHKEXJHFKTYZWN8KT9KW5WGU","model","mismatch","uniform","","","","","","","1592.5","474508.200000003","476100.700000003","[""stimuli/HM10_HE.jpg"",""stimuli/AF02_SUR.jpg"",""stimuli/AM06_DO.jpg"",""stimuli/AF11_SC.jpg""]","stimuli/HM10_HE.jpg","stimuli/AF02_SUR.jpg","stimuli/AM06_DO.jpg","stimuli/AF11_SC.jpg","pos1","stimuli/HM10_HE.jpg","HE","HM10","0","5","10","8","stimuli/stars_10.png","255.5","[""HE"",""SUR"",""DO"",""SC""]","[""HM10"",""AF02"",""AM06"",""AF11""]","[10,3,1,4]","[8,4,2,6]","","",""
"show-reward","162","476014","0.0-162.0","p569079","A1JM5XNB4NCZR6","336OE47KI3QZCSCUXSQ8J11UOZXVWV","3H7XDTSHKEXJHFKTYZWN8KT9KW5WGU","model","mismatch","uniform","","","","","","","","476601.3000000119","478603.90000000596","","","","","","","","","","","","10","","stimuli/stars_10.png","255.5","","","","","stimuli/HM10_HE.jpg","",""
"explore-choice","163","478546","0.0-163.0","p569079","A1JM5XNB4NCZR6","336OE47KI3QZCSCUXSQ8J11UOZXVWV","3H7XDTSHKEXJHFKTYZWN8KT9KW5WGU","model","mismatch","uniform","","","","","","","2029.800000011921","478605","480634.8000000119","[""stimuli/HM10_SC.jpg"",""stimuli/AF02_SUR.jpg"",""stimuli/AF11_HE.jpg"",""stimuli/AM06_DO.jpg""]","stimuli/HM10_SC.jpg","stimuli/AF02_SUR.jpg","stimuli/AF11_HE.jpg","stimuli/AM06_DO.jpg","pos3","stimuli/AF11_HE.jpg","HE","AF11","2","3","6","8","stimuli/stars_6.png","258.5","[""SC"",""SUR"",""HE"",""DO""]","[""HM10"",""AF02"",""AF11"",""AM06""]","[6,2,6,4]","[6,4,8,2]","","",""
"show-reward","164","480551","0.0-164.0","p569079","A1JM5XNB4NCZR6","336OE47KI3QZCSCUXSQ8J11UOZXVWV","3H7XDTSHKEXJHFKTYZWN8KT9KW5WGU","model","mismatch","uniform","","","","","","","","481137.3000000119","483140.90000000596","","","","","","","","","","","","6","","stimuli/stars_6.png","258.5","","","","","stimuli/AF11_HE.jpg","",""
"explore-choice","165","483284","0.0-165.0","p569079","A1JM5XNB4NCZR6","336OE47KI3QZCSCUXSQ8J11UOZXVWV","3H7XDTSHKEXJHFKTYZWN8KT9KW5WGU","model","mismatch","uniform","","","","","","","2227.6000000089407","483141.5","485369.10000000894","[""stimuli/AF02_SC.jpg"",""stimuli/AM06_HE.jpg"",""stimuli/HM10_DO.jpg"",""stimuli/AF11_SUR.jpg""]","stimuli/AF02_SC.jpg","stimuli/AM06_HE.jpg","stimuli/HM10_DO.jpg","stimuli/AF11_SUR.jpg","pos2","stimuli/AM06_HE.jpg","HE","AM06","1","4","8","8","stimuli/stars_8.png","262.5","[""SC"",""HE"",""DO"",""SUR""]","[""AF02"",""AM06"",""HM10"",""AF11""]","[4,8,4,3]","[6,8,2,4]","","",""
"show-reward","166","485286","0.0-166.0","p569079","A1JM5XNB4NCZR6","336OE47KI3QZCSCUXSQ8J11UOZXVWV","3H7XDTSHKEXJHFKTYZWN8KT9KW5WGU","model","mismatch","uniform","","","","","","","","485874.5","487876.200000003","","","","","","","","","","","","8","","stimuli/stars_8.png","262.5","","","","","stimuli/AM06_HE.jpg","",""
"explore-choice","167","492569","0.0-167.0","p569079","A1JM5XNB4NCZR6","336OE47KI3QZCSCUXSQ8J11UOZXVWV","3H7XDTSHKEXJHFKTYZWN8KT9KW5WGU","model","mismatch","uniform","","","","","","","6780","487876.90000000596","494656.90000000596","[""stimuli/AM06_HE.jpg"",""stimuli/AF11_SC.jpg"",""stimuli/HM10_DO.jpg"",""stimuli/AF02_SUR.jpg""]","stimuli/AM06_HE.jpg","stimuli/AF11_SC.jpg","stimuli/HM10_DO.jpg","stimuli/AF02_SUR.jpg","pos4","stimuli/AF02_SUR.jpg","SUR","AF02","3","2","4","4","stimuli/stars_4.png","264.5","[""HE"",""SC"",""DO"",""SUR""]","[""AM06"",""AF11"",""HM10"",""AF02""]","[9,7,4,4]","[8,6,2,4]","","",""
"show-reward","168","494577","0.0-168.0","p569079","A1JM5XNB4NCZR6","336OE47KI3QZCSCUXSQ8J11UOZXVWV","3H7XDTSHKEXJHFKTYZWN8KT9KW5WGU","model","mismatch","uniform","","","","","","","","495160.90000000596","497166.90000000596","","","","","","","","","","","","4","","stimuli/stars_4.png","264.5","","","","","stimuli/AF02_SUR.jpg","",""
"explore-choice","169","496616","0.0-169.0","p569079","A1JM5XNB4NCZR6","336OE47KI3QZCSCUXSQ8J11UOZXVWV","3H7XDTSHKEXJHFKTYZWN8KT9KW5WGU","model","mismatch","uniform","","","","","","","1534.2999999970198","497168.700000003","498703","[""stimuli/AF11_DO.jpg"",""stimuli/AF02_HE.jpg"",""stimuli/AM06_SUR.jpg"",""stimuli/HM10_SC.jpg""]","stimuli/AF11_DO.jpg","stimuli/AF02_HE.jpg","stimuli/AM06_SUR.jpg","stimuli/HM10_SC.jpg","pos2","stimuli/AF02_HE.jpg","HE","AF02","1","5","10","8","stimuli/stars_10.png","269.5","[""DO"",""HE"",""SUR"",""SC""]","[""AF11"",""AF02"",""AM06"",""HM10""]","[1,10,4,6]","[2,8,4,6]","","",""
"show-reward","170","498625","0.0-170.0","p569079","A1JM5XNB4NCZR6","336OE47KI3QZCSCUXSQ8J11UOZXVWV","3H7XDTSHKEXJHFKTYZWN8KT9KW5WGU","model","mismatch","uniform","","","","","","","","499207.10000000894","501214.60000000894","","","","","","","","","","","","10","","stimuli/stars_10.png","269.5","","","","","stimuli/AF02_HE.jpg","",""
"explore-choice","171","501798","0.0-171.0","p569079","A1JM5XNB4NCZR6","336OE47KI3QZCSCUXSQ8J11UOZXVWV","3H7XDTSHKEXJHFKTYZWN8KT9KW5WGU","model","mismatch","uniform","","","","","","","2671.5","501216.5","503888","[""stimuli/AF02_DO.jpg"",""stimuli/HM10_HE.jpg"",""stimuli/AM06_SC.jpg"",""stimuli/AF11_SUR.jpg""]","stimuli/AF02_DO.jpg","stimuli/HM10_HE.jpg","stimuli/AM06_SC.jpg","stimuli/AF11_SUR.jpg","pos2","stimuli/HM10_HE.jpg","HE","HM10","1","3","6","8","stimuli/stars_6.png","272.5","[""DO"",""HE"",""SC"",""SUR""]","[""AF02"",""HM10"",""AM06"",""AF11""]","[3,6,8,3]","[2,8,6,4]","","",""
"show-reward","172","503801","0.0-172.0","p569079","A1JM5XNB4NCZR6","336OE47KI3QZCSCUXSQ8J11UOZXVWV","3H7XDTSHKEXJHFKTYZWN8KT9KW5WGU","model","mismatch","uniform","","","","","","","","504389","506390.60000000894","","","","","","","","","","","","6","","stimuli/stars_6.png","272.5","","","","","stimuli/HM10_HE.jpg","",""
"explore-choice","173","509196","0.0-173.0","p569079","A1JM5XNB4NCZR6","336OE47KI3QZCSCUXSQ8J11UOZXVWV","3H7XDTSHKEXJHFKTYZWN8KT9KW5WGU","model","mismatch","uniform","","","","","","","4894.29999999702","506391.40000000596","511285.700000003","[""stimuli/AF02_HE.jpg"",""stimuli/AM06_SUR.jpg"",""stimuli/AF11_SC.jpg"",""stimuli/HM10_DO.jpg""]","stimuli/AF02_HE.jpg","stimuli/AM06_SUR.jpg","stimuli/AF11_SC.jpg","stimuli/HM10_DO.jpg","pos1","stimuli/AF02_HE.jpg","HE","AF02","0","4","8","8","stimuli/stars_8.png","276.5","[""HE"",""SUR"",""SC"",""DO""]","[""AF02"",""AM06"",""AF11"",""HM10""]","[8,6,6,2]","[8,4,6,2]","","",""
"show-reward","174","511201","0.0-174.0","p569079","A1JM5XNB4NCZR6","336OE47KI3QZCSCUXSQ8J11UOZXVWV","3H7XDTSHKEXJHFKTYZWN8KT9KW5WGU","model","mismatch","uniform","","","","","","","","511786.700000003","513790.3000000119","","","","","","","","","","","","8","","stimuli/stars_8.png","276.5","","","","","stimuli/AF02_HE.jpg","",""
"explore-choice","175","513336","0.0-175.0","p569079","A1JM5XNB4NCZR6","336OE47KI3QZCSCUXSQ8J11UOZXVWV","3H7XDTSHKEXJHFKTYZWN8KT9KW5WGU","model","mismatch","uniform","","","","","","","1632.9000000059605","513792.200000003","515425.10000000894","[""stimuli/AF11_HE.jpg"",""stimuli/AM06_DO.jpg"",""stimuli/AF02_SC.jpg"",""stimuli/HM10_SUR.jpg""]","stimuli/AF11_HE.jpg","stimuli/AM06_DO.jpg","stimuli/AF02_SC.jpg","stimuli/HM10_SUR.jpg","pos1","stimuli/AF11_HE.jpg","HE","AF11","0","5","10","8","stimuli/stars_10.png","281.5","[""HE"",""DO"",""SC"",""SUR""]","[""AF11"",""AM06"",""AF02"",""HM10""]","[10,2,8,5]","[8,2,6,4]","","",""
"show-reward","176","515338","0.0-176.0","p569079","A1JM5XNB4NCZR6","336OE47KI3QZCSCUXSQ8J11UOZXVWV","3H7XDTSHKEXJHFKTYZWN8KT9KW5WGU","model","mismatch","uniform","","","","","","","","515926.40000000596","517927.90000000596","","","","","","","","","","","","10","","stimuli/stars_10.png","281.5","","","","","stimuli/AF11_HE.jpg","",""
"explore-choice","177","517717","0.0-177.0","p569079","A1JM5XNB4NCZR6","336OE47KI3QZCSCUXSQ8J11UOZXVWV","3H7XDTSHKEXJHFKTYZWN8KT9KW5WGU","model","mismatch","uniform","","","","","","","1875.2000000029802","517929.5","519804.700000003","[""stimuli/AF02_SUR.jpg"",""stimuli/HM10_HE.jpg"",""stimuli/AF11_DO.jpg"",""stimuli/AM06_SC.jpg""]","stimuli/AF02_SUR.jpg","stimuli/HM10_HE.jpg","stimuli/AF11_DO.jpg","stimuli/AM06_SC.jpg","pos2","stimuli/HM10_HE.jpg","HE","HM10","1","3.5","7","8","stimuli/stars_7.png","285","[""SUR"",""HE"",""DO"",""SC""]","[""AF02"",""HM10"",""AF11"",""AM06""]","[6,7,1,7]","[4,8,2,6]","","",""
"show-reward","178","519721","0.0-178.0","p569079","A1JM5XNB4NCZR6","336OE47KI3QZCSCUXSQ8J11UOZXVWV","3H7XDTSHKEXJHFKTYZWN8KT9KW5WGU","model","mismatch","uniform","","","","","","","","520308.8000000119","522311.10000000894","","","","","","","","","","","","7","","stimuli/stars_7.png","285","","","","","stimuli/HM10_HE.jpg","",""
"explore-choice","179","522060","0.0-179.0","p569079","A1JM5XNB4NCZR6","336OE47KI3QZCSCUXSQ8J11UOZXVWV","3H7XDTSHKEXJHFKTYZWN8KT9KW5WGU","model","mismatch","uniform","","","","","","","1837","522312.90000000596","524149.90000000596","[""stimuli/AM06_SUR.jpg"",""stimuli/AF02_SC.jpg"",""stimuli/AF11_HE.jpg"",""stimuli/HM10_DO.jpg""]","stimuli/AM06_SUR.jpg","stimuli/AF02_SC.jpg","stimuli/AF11_HE.jpg","stimuli/HM10_DO.jpg","pos3","stimuli/AF11_HE.jpg","HE","AF11","2","4","8","8","stimuli/stars_8.png","289","[""SUR"",""SC"",""HE"",""DO""]","[""AM06"",""AF02"",""AF11"",""HM10""]","[3,4,8,2]","[4,6,8,2]","","",""
"show-reward","180","524065","0.0-180.0","p569079","A1JM5XNB4NCZR6","336OE47KI3QZCSCUXSQ8J11UOZXVWV","3H7XDTSHKEXJHFKTYZWN8KT9KW5WGU","model","mismatch","uniform","","","","","","","","524650.8000000119","526655.3000000119","","","","","","","","","","","","8","","stimuli/stars_8.png","289","","","","","stimuli/AF11_HE.jpg","",""
"explore-choice","181","527390","0.0-181.0","p569079","A1JM5XNB4NCZR6","336OE47KI3QZCSCUXSQ8J11UOZXVWV","3H7XDTSHKEXJHFKTYZWN8KT9KW5WGU","model","mismatch","uniform","","","","","","","2823.4000000059605","526656.400000006","529479.8000000119","[""stimuli/AF02_HE.jpg"",""stimuli/AF11_DO.jpg"",""stimuli/AM06_SC.jpg"",""stimuli/HM10_SUR.jpg""]","stimuli/AF02_HE.jpg","stimuli/AF11_DO.jpg","stimuli/AM06_SC.jpg","stimuli/HM10_SUR.jpg","pos1","stimuli/AF02_HE.jpg","HE","AF02","0","4","8","8","stimuli/stars_8.png","293","[""HE"",""DO"",""SC"",""SUR""]","[""AF02"",""AF11"",""AM06"",""HM10""]","[8,2,4,3]","[8,2,6,4]","","",""
"show-reward","182","529395","0.0-182.0","p569079","A1JM5XNB4NCZR6","336OE47KI3QZCSCUXSQ8J11UOZXVWV","3H7XDTSHKEXJHFKTYZWN8KT9KW5WGU","model","mismatch","uniform","","","","","","","","529981.8000000119","531984.3000000119","","","","","","","","","","","","8","","stimuli/stars_8.png","293","","","","","stimuli/AF02_HE.jpg","",""
"explore-choice","183","538866","0.0-183.0","p569079","A1JM5XNB4NCZR6","336OE47KI3QZCSCUXSQ8J11UOZXVWV","3H7XDTSHKEXJHFKTYZWN8KT9KW5WGU","model","mismatch","uniform","","","","","","","8969.199999988079","531985.8000000119","540955","[""stimuli/AM06_HE.jpg"",""stimuli/AF02_SUR.jpg"",""stimuli/AF11_DO.jpg"",""stimuli/HM10_SC.jpg""]","stimuli/AM06_HE.jpg","stimuli/AF02_SUR.jpg","stimuli/AF11_DO.jpg","stimuli/HM10_SC.jpg","pos1","stimuli/AM06_HE.jpg","HE","AM06","0","3","6","8","stimuli/stars_6.png","296","[""HE"",""SUR"",""DO"",""SC""]","[""AM06"",""AF02"",""AF11"",""HM10""]","[6,5,0,4]","[8,4,2,6]","","",""
"show-reward","184","540870","0.0-184.0","p569079","A1JM5XNB4NCZR6","336OE47KI3QZCSCUXSQ8J11UOZXVWV","3H7XDTSHKEXJHFKTYZWN8KT9KW5WGU","model","mismatch","uniform","","","","","","","","541457.3000000119","543459.6000000089","","","","","","","","","","","","6","","stimuli/stars_6.png","296","","","","","stimuli/AM06_HE.jpg","",""
"explore-choice","185","548982","0.0-185.0","p569079","A1JM5XNB4NCZR6","336OE47KI3QZCSCUXSQ8J11UOZXVWV","3H7XDTSHKEXJHFKTYZWN8KT9KW5WGU","model","mismatch","uniform","","","","","","","7610.0999999940395","543461.400000006","551071.5","[""stimuli/AF02_DO.jpg"",""stimuli/AF11_SC.jpg"",""stimuli/AM06_HE.jpg"",""stimuli/HM10_SUR.jpg""]","stimuli/AF02_DO.jpg","stimuli/AF11_SC.jpg","stimuli/AM06_HE.jpg","stimuli/HM10_SUR.jpg","pos3","stimuli/AM06_HE.jpg","HE","AM06","2","4.5","9","8","stimuli/stars_9.png","300.5","[""DO"",""SC"",""HE"",""SUR""]","[""AF02"",""AF11"",""AM06"",""HM10""]","[3,8,9,3]","[2,6,8,4]","","",""
"show-reward","186","550984","0.0-186.0","p569079","A1JM5XNB4NCZR6","336OE47KI3QZCSCUXSQ8J11UOZXVWV","3H7XDTSHKEXJHFKTYZWN8KT9KW5WGU","model","mismatch","uniform","","","","","","","","551572.6000000089","553573.8000000119","","","","","","","","","","","","9","","stimuli/stars_9.png","300.5","","","","","stimuli/AM06_HE.jpg","",""
"explore-choice","187","555689","0.0-187.0","p569079","A1JM5XNB4NCZR6","336OE47KI3QZCSCUXSQ8J11UOZXVWV","3H7XDTSHKEXJHFKTYZWN8KT9KW5WGU","model","mismatch","uniform","","","","","","","4203.9000000059605","553574.400000006","557778.3000000119","[""stimuli/HM10_SUR.jpg"",""stimuli/AM06_SC.jpg"",""stimuli/AF11_HE.jpg"",""stimuli/AF02_DO.jpg""]","stimuli/HM10_SUR.jpg","stimuli/AM06_SC.jpg","stimuli/AF11_HE.jpg","stimuli/AF02_DO.jpg","pos3","stimuli/AF11_HE.jpg","HE","AF11","2","3","6","8","stimuli/stars_6.png","303.5","[""SUR"",""SC"",""HE"",""DO""]","[""HM10"",""AM06"",""AF11"",""AF02""]","[5,7,6,3]","[4,6,8,2]","","",""
"show-reward","188","557694","0.0-188.0","p569079","A1JM5XNB4NCZR6","336OE47KI3QZCSCUXSQ8J11UOZXVWV","3H7XDTSHKEXJHFKTYZWN8KT9KW5WGU","model","mismatch","uniform","","","","","","","","558280.3000000119","560283.3000000119","","","","","","","","","","","","6","","stimuli/stars_6.png","303.5","","","","","stimuli/AF11_HE.jpg","",""
"explore-choice","189","561235","0.0-189.0","p569079","A1JM5XNB4NCZR6","336OE47KI3QZCSCUXSQ8J11UOZXVWV","3H7XDTSHKEXJHFKTYZWN8KT9KW5WGU","model","mismatch","uniform","","","","","","","3035.0999999940395","560285.1000000089","563320.200000003","[""stimuli/AM06_SUR.jpg"",""stimuli/AF11_DO.jpg"",""stimuli/AF02_SC.jpg"",""stimuli/HM10_HE.jpg""]","stimuli/AM06_SUR.jpg","stimuli/AF11_DO.jpg","stimuli/AF02_SC.jpg","stimuli/HM10_HE.jpg","pos4","stimuli/HM10_HE.jpg","HE","HM10","3","4.5","9","8","stimuli/stars_9.png","308","[""SUR"",""DO"",""SC"",""HE""]","[""AM06"",""AF11"",""AF02"",""HM10""]","[3,2,5,9]","[4,2,6,8]","","",""
"show-reward","190","563244","0.0-190.0","p569079","A1JM5XNB4NCZR6","336OE47KI3QZCSCUXSQ8J11UOZXVWV","3H7XDTSHKEXJHFKTYZWN8KT9KW5WGU","model","mismatch","uniform","","","","","","","","563826.8000000119","565833.900000006","","","","","","","","","","","","9","","stimuli/stars_9.png","308","","","","","stimuli/HM10_HE.jpg","",""
"explore-choice","191","565283","0.0-191.0","p569079","A1JM5XNB4NCZR6","336OE47KI3QZCSCUXSQ8J11UOZXVWV","3H7XDTSHKEXJHFKTYZWN8KT9KW5WGU","model","mismatch","uniform","","","","","","","1535.5999999940395","565835.900000006","567371.5","[""stimuli/AF02_DO.jpg"",""stimuli/AF11_HE.jpg"",""stimuli/AM06_SUR.jpg"",""stimuli/HM10_SC.jpg""]","stimuli/AF02_DO.jpg","stimuli/AF11_HE.jpg","stimuli/AM06_SUR.jpg","stimuli/HM10_SC.jpg","pos2","stimuli/AF11_HE.jpg","HE","AF11","1","4","8","8","stimuli/stars_8.png","312","[""DO"",""HE"",""SUR"",""SC""]","[""AF02"",""AF11"",""AM06"",""HM10""]","[0,8,5,4]","[2,8,4,6]","","",""
"show-reward","192","567290","0.0-192.0","p569079","A1JM5XNB4NCZR6","336OE47KI3QZCSCUXSQ8J11UOZXVWV","3H7XDTSHKEXJHFKTYZWN8KT9KW5WGU","model","mismatch","uniform","","","","","","","","567874.700000003","569879.700000003","","","","","","","","","","","","8","","stimuli/stars_8.png","312","","","","","stimuli/AF11_HE.jpg","",""
"explore-choice","193","569707","0.0-193.0","p569079","A1JM5XNB4NCZR6","336OE47KI3QZCSCUXSQ8J11UOZXVWV","3H7XDTSHKEXJHFKTYZWN8KT9KW5WGU","model","mismatch","uniform","","","","","","","1911.6000000089407","569881.200000003","571792.8000000119","[""stimuli/AF02_SUR.jpg"",""stimuli/AM06_SC.jpg"",""stimuli/HM10_DO.jpg"",""stimuli/AF11_HE.jpg""]","stimuli/AF02_SUR.jpg","stimuli/AM06_SC.jpg","stimuli/HM10_DO.jpg","stimuli/AF11_HE.jpg","pos4","stimuli/AF11_HE.jpg","HE","AF11","3","4","8","8","stimuli/stars_8.png","316","[""SUR"",""SC"",""DO"",""HE""]","[""AF02"",""AM06"",""HM10"",""AF11""]","[2,7,3,8]","[4,6,2,8]","","",""
"show-reward","194","571712","0.0-194.0","p569079","A1JM5XNB4NCZR6","336OE47KI3QZCSCUXSQ8J11UOZXVWV","3H7XDTSHKEXJHFKTYZWN8KT9KW5WGU","model","mismatch","uniform","","","","","","","","572298.8000000119","574302.1000000089","","","","","","","","","","","","8","","stimuli/stars_8.png","316","","","","","stimuli/AF11_HE.jpg","",""
"explore-choice","195","577245","0.0-195.0","p569079","A1JM5XNB4NCZR6","336OE47KI3QZCSCUXSQ8J11UOZXVWV","3H7XDTSHKEXJHFKTYZWN8KT9KW5WGU","model","mismatch","uniform","","","","","","","5027.20000000298","574303.700000003","579330.900000006","[""stimuli/HM10_HE.jpg"",""stimuli/AM06_DO.jpg"",""stimuli/AF11_SUR.jpg"",""stimuli/AF02_SC.jpg""]","stimuli/HM10_HE.jpg","stimuli/AM06_DO.jpg","stimuli/AF11_SUR.jpg","stimuli/AF02_SC.jpg","pos1","stimuli/HM10_HE.jpg","HE","HM10","0","4","8","8","stimuli/stars_8.png","320","[""HE"",""DO"",""SUR"",""SC""]","[""HM10"",""AM06"",""AF11"",""AF02""]","[8,2,3,4]","[8,2,4,6]","","",""
"show-reward","196","579254","0.0-196.0","p569079","A1JM5XNB4NCZR6","336OE47KI3QZCSCUXSQ8J11UOZXVWV","3H7XDTSHKEXJHFKTYZWN8KT9KW5WGU","model","mismatch","uniform","","","","","","","","579837.200000003","581843.900000006","","","","","","","","","","","","8","","stimuli/stars_8.png","320","","","","","stimuli/HM10_HE.jpg","",""
"explore-choice","197","581041","0.0-197.0","p569079","A1JM5XNB4NCZR6","336OE47KI3QZCSCUXSQ8J11UOZXVWV","3H7XDTSHKEXJHFKTYZWN8KT9KW5WGU","model","mismatch","uniform","","","","","","","1286","581845.3000000119","583131.3000000119","[""stimuli/AF11_SUR.jpg"",""stimuli/HM10_DO.jpg"",""stimuli/AM06_SC.jpg"",""stimuli/AF02_HE.jpg""]","stimuli/AF11_SUR.jpg","stimuli/HM10_DO.jpg","stimuli/AM06_SC.jpg","stimuli/AF02_HE.jpg","pos4","stimuli/AF02_HE.jpg","HE","AF02","3","4","8","8","stimuli/stars_8.png","324","[""SUR"",""DO"",""SC"",""HE""]","[""AF11"",""HM10"",""AM06"",""AF02""]","[4,4,8,8]","[4,2,6,8]","","",""
"show-reward","198","583045","0.0-198.0","p569079","A1JM5XNB4NCZR6","336OE47KI3QZCSCUXSQ8J11UOZXVWV","3H7XDTSHKEXJHFKTYZWN8KT9KW5WGU","model","mismatch","uniform","","","","","","","","583632.400000006","585635.5","","","","","","","","","","","","8","","stimuli/stars_8.png","324","","","","","stimuli/AF02_HE.jpg","",""
"instructions","199","588840","0.0-199.0","p569079","A1JM5XNB4NCZR6","336OE47KI3QZCSCUXSQ8J11UOZXVWV","3H7XDTSHKEXJHFKTYZWN8KT9KW5WGU","model","mismatch","uniform","","","","","","[{""page_index"":0,""viewing_time"":5793.899999991059}]","5794.699999988079","","","","","","","","","","","","","","","","","","","","","","","",""
"survey-text","200","593772","0.0-200.0-0.0","p569079","A1JM5XNB4NCZR6","336OE47KI3QZCSCUXSQ8J11UOZXVWV","3H7XDTSHKEXJHFKTYZWN8KT9KW5WGU","model","mismatch","uniform","","","","","","","4929.600000008941","","","","","","","","","","","","","","","","","","","","","","","{""age"":""68""}",""
"survey-text","201","601140","0.0-200.0-1.0","p569079","A1JM5XNB4NCZR6","336OE47KI3QZCSCUXSQ8J11UOZXVWV","3H7XDTSHKEXJHFKTYZWN8KT9KW5WGU","model","mismatch","uniform","","","","","","","7366","","","","","","","","","","","","","","","","","","","","","","","{""gender"":""male""}",""
"survey-text","202","606882","0.0-200.0-2.0","p569079","A1JM5XNB4NCZR6","336OE47KI3QZCSCUXSQ8J11UOZXVWV","3H7XDTSHKEXJHFKTYZWN8KT9KW5WGU","model","mismatch","uniform","","","","","","","5741","","","","","","","","","","","","","","","","","","","","","","","{""country"":""usa""}",""
"survey-text","203","615864","0.0-200.0-3.0","p569079","A1JM5XNB4NCZR6","336OE47KI3QZCSCUXSQ8J11UOZXVWV","3H7XDTSHKEXJHFKTYZWN8KT9KW5WGU","model","mismatch","uniform","","","","","","","8979.20000000298","","","","","","","","","","","","","","","","","","","","","","","{""language"":""english"",""other_languages"":""""}",""
"survey-multi-select","204","620479","0.0-201.0","p569079","A1JM5XNB4NCZR6","336OE47KI3QZCSCUXSQ8J11UOZXVWV","3H7XDTSHKEXJHFKTYZWN8KT9KW5WGU","model","mismatch","uniform","","","","","","","4611.100000008941","","","","","","","","","","","","","","","","","","","","","","","{""race"":[""White""]}","[0]"
"survey-multi-choice","205","716241","0.0-202.0","p569079","A1JM5XNB4NCZR6","336OE47KI3QZCSCUXSQ8J11UOZXVWV","3H7XDTSHKEXJHFKTYZWN8KT9KW5WGU","model","mismatch","uniform","","","","","","","95760.29999999702","","","","","","","","","","","","","","","","","","","","","","","{""education"":""Master's degree""}","[0]"
"survey-text","206","778837","0.0-203.0","p569079","A1JM5XNB4NCZR6","336OE47KI3QZCSCUXSQ8J11UOZXVWV","3H7XDTSHKEXJHFKTYZWN8KT9KW5WGU","model","mismatch","uniform","","","","","","","62590.79999999702","","","","","","","","","","","","","","","","","","","","","","","{""patterns"":""Happy faces"",""strategy"":""happy faces"",""comments"":""no""}",""
