"trial_type","trial_index","time_elapsed","internal_node_id","subject","workerId","hitId","assignmentId","structure_condition","match_condition","noise_type","success","timeout","failed_images","failed_audio","failed_video","view_history","rt","start_time","end_time","stimuli","image1","image2","image3","image4","choiceLocation","choiceImage","choiceEmotion","choiceModel","choice_index","reward_score","reward","reward_score_unadjusted","reward_image","score_after_trial","emotions","models","rewards","rewards_unadjusted","stimulus","response","question_order"
"pavlovia","0","44","0.0-0.0","p980243","A34YDGVZKRJ0LZ","3RZS0FBRWLGDTA9TUPH81F59AWHPC0","354P56DE9M97H5SJLRIS5IDVFHS7SR","model","mismatch","uniform","","","","","","","","","","","","","","","","","","","","","","","","","","","","","","",""
"preload","1","5125","0.0-1.0","p980243","A34YDGVZKRJ0LZ","3RZS0FBRWLGDTA9TUPH81F59AWHPC0","354P56DE9M97H5SJLRIS5IDVFHS7SR","model","mismatch","uniform","true","false","[]","[]","[]","","","","","","","","","","","","","","","","","","","","","","","","","",""
"fullscreen","2","14355","0.0-2.0","p980243","A34YDGVZKRJ0LZ","3RZS0FBRWLGDTA9TUPH81F59AWHPC0","354P56DE9M97H5SJLRIS5IDVFHS7SR","model","mismatch","uniform","true","","","","","","","","","","","","","","","","","","","","","","","","","","","","","",""
"instructions","3","19405","0.0-3.0","p980243","A34YDGVZKRJ0LZ","3RZS0FBRWLGDTA9TUPH81F59AWHPC0","354P56DE9M97H5SJLRIS5IDVFHS7SR","model","mismatch","uniform","","","","","","[{""page_index"":0,""viewing_time"":5048.100000023842}]","5048.800000011921","","","","","","","","","","","","","","","","","","","","","","","",""
"explore-choice","4","22904","0.0-4.0","p980243","A34YDGVZKRJ0LZ","3RZS0FBRWLGDTA9TUPH81F59AWHPC0","354P56DE9M97H5SJLRIS5IDVFHS7SR","model","mismatch","uniform","","","","","","","2992.900000035763","23059.30000001192","26052.200000047684","[""stimuli/sheep.jpg"",""stimuli/hammer.jpg"",""stimuli/basketball.jpg"",""stimuli/horse.jpg""]","stimuli/sheep.jpg","stimuli/hammer.jpg","stimuli/basketball.jpg","stimuli/horse.jpg","pos4","stimuli/horse.jpg","","","3","64","64","64","stimuli/stars_8.png","65","","","","","","",""
"explore-choice","5","24725","0.0-5.0","p980243","A34YDGVZKRJ0LZ","3RZS0FBRWLGDTA9TUPH81F59AWHPC0","354P56DE9M97H5SJLRIS5IDVFHS7SR","model","mismatch","uniform","","","","","","","1319.9000000357628","26557.30000001192","27877.200000047684","[""stimuli/hammer.jpg"",""stimuli/basketball.jpg"",""stimuli/horse.jpg"",""stimuli/sheep.jpg""]","stimuli/hammer.jpg","stimuli/basketball.jpg","stimuli/horse.jpg","stimuli/sheep.jpg","pos1","stimuli/hammer.jpg","","","0","8","8","8","stimuli/stars_2.png","9","","","","","","",""
"instructions","6","48859","0.0-6.0","p980243","A34YDGVZKRJ0LZ","3RZS0FBRWLGDTA9TUPH81F59AWHPC0","354P56DE9M97H5SJLRIS5IDVFHS7SR","model","mismatch","uniform","","","","","","[{""page_index"":0,""viewing_time"":24129.099999964237}]","24130.899999976158","","","","","","","","","","","","","","","","","","","","","","","",""
"explore-choice","7","51436","0.0-7.0","p980243","A34YDGVZKRJ0LZ","3RZS0FBRWLGDTA9TUPH81F59AWHPC0","354P56DE9M97H5SJLRIS5IDVFHS7SR","model","mismatch","uniform","","","","","","","2058.5","52523.700000047684","54582.200000047684","[""stimuli/AM03_FO.jpg"",""stimuli/AM06_HO.jpg"",""stimuli/BM03_AO.jpg"",""stimuli/HF02_SC.jpg""]","stimuli/AM03_FO.jpg","stimuli/AM06_HO.jpg","stimuli/BM03_AO.jpg","stimuli/HF02_SC.jpg","pos4","stimuli/HF02_SC.jpg","SC","HF02","3","2","4","4","stimuli/stars_4.png","3","[""FO"",""HO"",""AO"",""SC""]","[""AM03"",""AM06"",""BM03"",""HF02""]","[1,4,6,4]","[2,6,8,4]","","",""
"show-reward","8","53446","0.0-8.0","p980243","A34YDGVZKRJ0LZ","3RZS0FBRWLGDTA9TUPH81F59AWHPC0","354P56DE9M97H5SJLRIS5IDVFHS7SR","model","mismatch","uniform","","","","","","","","55090.90000003576","57097","","","","","","","","","","","","4","","stimuli/stars_4.png","3","","","","","stimuli/HF02_SC.jpg","",""
"explore-choice","9","55175","0.0-9.0","p980243","A34YDGVZKRJ0LZ","3RZS0FBRWLGDTA9TUPH81F59AWHPC0","354P56DE9M97H5SJLRIS5IDVFHS7SR","model","mismatch","uniform","","","","","","","1225.5999999642372","57098.700000047684","58324.30000001192","[""stimuli/AM06_SC.jpg"",""stimuli/BM03_FO.jpg"",""stimuli/AM03_AO.jpg"",""stimuli/HF02_HO.jpg""]","stimuli/AM06_SC.jpg","stimuli/BM03_FO.jpg","stimuli/AM03_AO.jpg","stimuli/HF02_HO.jpg","pos2","stimuli/BM03_FO.jpg","FO","BM03","1","3.5","7","8","stimuli/stars_7.png","6.5","[""SC"",""FO"",""AO"",""HO""]","[""AM06"",""BM03"",""AM03"",""HF02""]","[8,7,4,5]","[6,8,2,4]","","",""
"show-reward","10","57184","0.0-10.0","p980243","A34YDGVZKRJ0LZ","3RZS0FBRWLGDTA9TUPH81F59AWHPC0","354P56DE9M97H5SJLRIS5IDVFHS7SR","model","mismatch","uniform","","","","","","","","58828.5","60835.80000001192","","","","","","","","","","","","7","","stimuli/stars_7.png","6.5","","","","","stimuli/BM03_FO.jpg","",""
"explore-choice","11","60519","0.0-11.0","p980243","A34YDGVZKRJ0LZ","3RZS0FBRWLGDTA9TUPH81F59AWHPC0","354P56DE9M97H5SJLRIS5IDVFHS7SR","model","mismatch","uniform","","","","","","","2830.300000011921","60836.90000003576","63667.200000047684","[""stimuli/HF02_SC.jpg"",""stimuli/BM03_HO.jpg"",""stimuli/AM03_AO.jpg"",""stimuli/AM06_FO.jpg""]","stimuli/HF02_SC.jpg","stimuli/BM03_HO.jpg","stimuli/AM03_AO.jpg","stimuli/AM06_FO.jpg","pos1","stimuli/HF02_SC.jpg","SC","HF02","0","3","6","4","stimuli/stars_6.png","9.5","[""SC"",""HO"",""AO"",""FO""]","[""HF02"",""BM03"",""AM03"",""AM06""]","[6,6,2,8]","[4,8,2,6]","","",""
"show-reward","12","62528","0.0-12.0","p980243","A34YDGVZKRJ0LZ","3RZS0FBRWLGDTA9TUPH81F59AWHPC0","354P56DE9M97H5SJLRIS5IDVFHS7SR","model","mismatch","uniform","","","","","","","","64171.10000002384","66178.70000004768","","","","","","","","","","","","6","","stimuli/stars_6.png","9.5","","","","","stimuli/HF02_SC.jpg","",""
"explore-choice","13","64145","0.0-13.0","p980243","A34YDGVZKRJ0LZ","3RZS0FBRWLGDTA9TUPH81F59AWHPC0","354P56DE9M97H5SJLRIS5IDVFHS7SR","model","mismatch","uniform","","","","","","","1114.9000000357628","66179.80000001192","67294.70000004768","[""stimuli/AM06_HO.jpg"",""stimuli/BM03_SC.jpg"",""stimuli/HF02_FO.jpg"",""stimuli/AM03_AO.jpg""]","stimuli/AM06_HO.jpg","stimuli/BM03_SC.jpg","stimuli/HF02_FO.jpg","stimuli/AM03_AO.jpg","pos2","stimuli/BM03_SC.jpg","SC","BM03","1","3.5","7","8","stimuli/stars_7.png","13","[""HO"",""SC"",""FO"",""AO""]","[""AM06"",""BM03"",""HF02"",""AM03""]","[7,7,4,4]","[6,8,4,2]","","",""
"show-reward","14","66157","0.0-14.0","p980243","A34YDGVZKRJ0LZ","3RZS0FBRWLGDTA9TUPH81F59AWHPC0","354P56DE9M97H5SJLRIS5IDVFHS7SR","model","mismatch","uniform","","","","","","","","67797.10000002384","69808","","","","","","","","","","","","7","","stimuli/stars_7.png","13","","","","","stimuli/BM03_SC.jpg","",""
"explore-choice","15","67685","0.0-15.0","p980243","A34YDGVZKRJ0LZ","3RZS0FBRWLGDTA9TUPH81F59AWHPC0","354P56DE9M97H5SJLRIS5IDVFHS7SR","model","mismatch","uniform","","","","","","","1024.699999988079","69809.30000001192","70834","[""stimuli/HF02_AO.jpg"",""stimuli/BM03_HO.jpg"",""stimuli/AM03_FO.jpg"",""stimuli/AM06_SC.jpg""]","stimuli/HF02_AO.jpg","stimuli/BM03_HO.jpg","stimuli/AM03_FO.jpg","stimuli/AM06_SC.jpg","pos4","stimuli/AM06_SC.jpg","SC","AM06","3","2.5","5","6","stimuli/stars_5.png","15.5","[""AO"",""HO"",""FO"",""SC""]","[""HF02"",""BM03"",""AM03"",""AM06""]","[4,8,2,5]","[4,8,2,6]","","",""
"show-reward","16","69692","0.0-16.0","p980243","A34YDGVZKRJ0LZ","3RZS0FBRWLGDTA9TUPH81F59AWHPC0","354P56DE9M97H5SJLRIS5IDVFHS7SR","model","mismatch","uniform","","","","","","","","71337.10000002384","73343.30000001192","","","","","","","","","","","","5","","stimuli/stars_5.png","15.5","","","","","stimuli/AM06_SC.jpg","",""
"explore-choice","17","71698","0.0-17.0","p980243","A34YDGVZKRJ0LZ","3RZS0FBRWLGDTA9TUPH81F59AWHPC0","354P56DE9M97H5SJLRIS5IDVFHS7SR","model","mismatch","uniform","","","","","","","1501.1000000238419","73344.60000002384","74845.70000004768","[""stimuli/AM03_HO.jpg"",""stimuli/BM03_AO.jpg"",""stimuli/HF02_SC.jpg"",""stimuli/AM06_FO.jpg""]","stimuli/AM03_HO.jpg","stimuli/BM03_AO.jpg","stimuli/HF02_SC.jpg","stimuli/AM06_FO.jpg","pos1","stimuli/AM03_HO.jpg","HO","AM03","0","0.5","1","2","stimuli/stars_1.png","16","[""HO"",""AO"",""SC"",""FO""]","[""AM03"",""BM03"",""HF02"",""AM06""]","[1,9,4,5]","[2,8,4,6]","","",""
"show-reward","18","73707","0.0-18.0","p980243","A34YDGVZKRJ0LZ","3RZS0FBRWLGDTA9TUPH81F59AWHPC0","354P56DE9M97H5SJLRIS5IDVFHS7SR","model","mismatch","uniform","","","","","","","","75350.10000002384","77357.40000003576","","","","","","","","","","","","1","","stimuli/stars_1.png","16","","","","","stimuli/AM03_HO.jpg","",""
"explore-choice","19","75449","0.0-19.0","p980243","A34YDGVZKRJ0LZ","3RZS0FBRWLGDTA9TUPH81F59AWHPC0","354P56DE9M97H5SJLRIS5IDVFHS7SR","model","mismatch","uniform","","","","","","","1240.2999999523163","77358.70000004768","78599","[""stimuli/AM03_AO.jpg"",""stimuli/AM06_SC.jpg"",""stimuli/HF02_FO.jpg"",""stimuli/BM03_HO.jpg""]","stimuli/AM03_AO.jpg","stimuli/AM06_SC.jpg","stimuli/HF02_FO.jpg","stimuli/BM03_HO.jpg","pos4","stimuli/BM03_HO.jpg","HO","BM03","3","4","8","8","stimuli/stars_8.png","20","[""AO"",""SC"",""FO"",""HO""]","[""AM03"",""AM06"",""HF02"",""BM03""]","[3,6,3,8]","[2,6,4,8]","","",""
"show-reward","20","77458","0.0-20.0","p980243","A34YDGVZKRJ0LZ","3RZS0FBRWLGDTA9TUPH81F59AWHPC0","354P56DE9M97H5SJLRIS5IDVFHS7SR","model","mismatch","uniform","","","","","","","","79100.90000003576","81108.40000003576","","","","","","","","","","","","8","","stimuli/stars_8.png","20","","","","","stimuli/BM03_HO.jpg","",""
"explore-choice","21","78943","0.0-21.0","p980243","A34YDGVZKRJ0LZ","3RZS0FBRWLGDTA9TUPH81F59AWHPC0","354P56DE9M97H5SJLRIS5IDVFHS7SR","model","mismatch","uniform","","","","","","","981.2000000476837","81109.5","82090.70000004768","[""stimuli/AM06_AO.jpg"",""stimuli/HF02_SC.jpg"",""stimuli/AM03_FO.jpg"",""stimuli/BM03_HO.jpg""]","stimuli/AM06_AO.jpg","stimuli/HF02_SC.jpg","stimuli/AM03_FO.jpg","stimuli/BM03_HO.jpg","pos4","stimuli/BM03_HO.jpg","HO","BM03","3","4.5","9","8","stimuli/stars_9.png","24.5","[""AO"",""SC"",""FO"",""HO""]","[""AM06"",""HF02"",""AM03"",""BM03""]","[5,6,3,9]","[6,4,2,8]","","",""
"show-reward","22","80952","0.0-22.0","p980243","A34YDGVZKRJ0LZ","3RZS0FBRWLGDTA9TUPH81F59AWHPC0","354P56DE9M97H5SJLRIS5IDVFHS7SR","model","mismatch","uniform","","","","","","","","82594.90000003576","84602.5","","","","","","","","","","","","9","","stimuli/stars_9.png","24.5","","","","","stimuli/BM03_HO.jpg","",""
"explore-choice","23","82353","0.0-23.0","p980243","A34YDGVZKRJ0LZ","3RZS0FBRWLGDTA9TUPH81F59AWHPC0","354P56DE9M97H5SJLRIS5IDVFHS7SR","model","mismatch","uniform","","","","","","","896.1999999880791","84603.60000002384","85499.80000001192","[""stimuli/AM03_HO.jpg"",""stimuli/BM03_FO.jpg"",""stimuli/HF02_AO.jpg"",""stimuli/AM06_SC.jpg""]","stimuli/AM03_HO.jpg","stimuli/BM03_FO.jpg","stimuli/HF02_AO.jpg","stimuli/AM06_SC.jpg","pos4","stimuli/AM06_SC.jpg","SC","AM06","3","2.5","5","6","stimuli/stars_5.png","27","[""HO"",""FO"",""AO"",""SC""]","[""AM03"",""BM03"",""HF02"",""AM06""]","[1,6,2,5]","[2,8,4,6]","","",""
"show-reward","24","84362","0.0-24.0","p980243","A34YDGVZKRJ0LZ","3RZS0FBRWLGDTA9TUPH81F59AWHPC0","354P56DE9M97H5SJLRIS5IDVFHS7SR","model","mismatch","uniform","","","","","","","","86004.70000004768","88012.10000002384","","","","","","","","","","","","5","","stimuli/stars_5.png","27","","","","","stimuli/AM06_SC.jpg","",""
"explore-choice","25","85705","0.0-25.0","p980243","A34YDGVZKRJ0LZ","3RZS0FBRWLGDTA9TUPH81F59AWHPC0","354P56DE9M97H5SJLRIS5IDVFHS7SR","model","mismatch","uniform","","","","","","","842","88013.40000003576","88855.40000003576","[""stimuli/AM03_FO.jpg"",""stimuli/BM03_SC.jpg"",""stimuli/AM06_AO.jpg"",""stimuli/HF02_HO.jpg""]","stimuli/AM03_FO.jpg","stimuli/BM03_SC.jpg","stimuli/AM06_AO.jpg","stimuli/HF02_HO.jpg","pos2","stimuli/BM03_SC.jpg","SC","BM03","1","3","6","8","stimuli/stars_6.png","30","[""FO"",""SC"",""AO"",""HO""]","[""AM03"",""BM03"",""AM06"",""HF02""]","[0,6,7,4]","[2,8,6,4]","","",""
"show-reward","26","87714","0.0-26.0","p980243","A34YDGVZKRJ0LZ","3RZS0FBRWLGDTA9TUPH81F59AWHPC0","354P56DE9M97H5SJLRIS5IDVFHS7SR","model","mismatch","uniform","","","","","","","","89356.90000003576","91364.40000003576","","","","","","","","","","","","6","","stimuli/stars_6.png","30","","","","","stimuli/BM03_SC.jpg","",""
"explore-choice","27","90023","0.0-27.0","p980243","A34YDGVZKRJ0LZ","3RZS0FBRWLGDTA9TUPH81F59AWHPC0","354P56DE9M97H5SJLRIS5IDVFHS7SR","model","mismatch","uniform","","","","","","","1803.2000000476837","91365.5","93168.70000004768","[""stimuli/AM03_SC.jpg"",""stimuli/HF02_AO.jpg"",""stimuli/AM06_HO.jpg"",""stimuli/BM03_FO.jpg""]","stimuli/AM03_SC.jpg","stimuli/HF02_AO.jpg","stimuli/AM06_HO.jpg","stimuli/BM03_FO.jpg","pos4","stimuli/BM03_FO.jpg","FO","BM03","3","4","8","8","stimuli/stars_8.png","34","[""SC"",""AO"",""HO"",""FO""]","[""AM03"",""HF02"",""AM06"",""BM03""]","[0,3,4,8]","[2,4,6,8]","","",""
"show-reward","28","92031","0.0-28.0","p980243","A34YDGVZKRJ0LZ","3RZS0FBRWLGDTA9TUPH81F59AWHPC0","354P56DE9M97H5SJLRIS5IDVFHS7SR","model","mismatch","uniform","","","","","","","","93674.20000004768","95681.70000004768","","","","","","","","","","","","8","","stimuli/stars_8.png","34","","","","","stimuli/BM03_FO.jpg","",""
"explore-choice","29","93771","0.0-29.0","p980243","A34YDGVZKRJ0LZ","3RZS0FBRWLGDTA9TUPH81F59AWHPC0","354P56DE9M97H5SJLRIS5IDVFHS7SR","model","mismatch","uniform","","","","","","","1233.699999988079","95682.80000001192","96916.5","[""stimuli/HF02_AO.jpg"",""stimuli/AM03_SC.jpg"",""stimuli/AM06_FO.jpg"",""stimuli/BM03_HO.jpg""]","stimuli/HF02_AO.jpg","stimuli/AM03_SC.jpg","stimuli/AM06_FO.jpg","stimuli/BM03_HO.jpg","pos4","stimuli/BM03_HO.jpg","HO","BM03","3","4.5","9","8","stimuli/stars_9.png","38.5","[""AO"",""SC"",""FO"",""HO""]","[""HF02"",""AM03"",""AM06"",""BM03""]","[3,0,6,9]","[4,2,6,8]","","",""
"show-reward","30","95779","0.0-30.0","p980243","A34YDGVZKRJ0LZ","3RZS0FBRWLGDTA9TUPH81F59AWHPC0","354P56DE9M97H5SJLRIS5IDVFHS7SR","model","mismatch","uniform","","","","","","","","97422.20000004768","99429.5","","","","","","","","","","","","9","","stimuli/stars_9.png","38.5","","","","","stimuli/BM03_HO.jpg","",""
"explore-choice","31","98245","0.0-31.0","p980243","A34YDGVZKRJ0LZ","3RZS0FBRWLGDTA9TUPH81F59AWHPC0","354P56DE9M97H5SJLRIS5IDVFHS7SR","model","mismatch","uniform","","","","","","","1959.6000000238419","99430.5","101390.10000002384","[""stimuli/AM06_AO.jpg"",""stimuli/AM03_HO.jpg"",""stimuli/BM03_FO.jpg"",""stimuli/HF02_SC.jpg""]","stimuli/AM06_AO.jpg","stimuli/AM03_HO.jpg","stimuli/BM03_FO.jpg","stimuli/HF02_SC.jpg","pos2","stimuli/AM03_HO.jpg","HO","AM03","1","1","2","2","stimuli/stars_2.png","39.5","[""AO"",""HO"",""FO"",""SC""]","[""AM06"",""AM03"",""BM03"",""HF02""]","[5,2,9,3]","[6,2,8,4]","","",""
"show-reward","32","100248","0.0-32.0","p980243","A34YDGVZKRJ0LZ","3RZS0FBRWLGDTA9TUPH81F59AWHPC0","354P56DE9M97H5SJLRIS5IDVFHS7SR","model","mismatch","uniform","","","","","","","","101895.80000001192","103898.40000003576","","","","","","","","","","","","2","","stimuli/stars_2.png","39.5","","","","","stimuli/AM03_HO.jpg","",""
"explore-choice","33","101910","0.0-33.0","p980243","A34YDGVZKRJ0LZ","3RZS0FBRWLGDTA9TUPH81F59AWHPC0","354P56DE9M97H5SJLRIS5IDVFHS7SR","model","mismatch","uniform","","","","","","","1156.1000000238419","103899.10000002384","105055.20000004768","[""stimuli/BM03_SC.jpg"",""stimuli/AM06_AO.jpg"",""stimuli/HF02_FO.jpg"",""stimuli/AM03_HO.jpg""]","stimuli/BM03_SC.jpg","stimuli/AM06_AO.jpg","stimuli/HF02_FO.jpg","stimuli/AM03_HO.jpg","pos1","stimuli/BM03_SC.jpg","SC","BM03","0","3","6","8","stimuli/stars_6.png","42.5","[""SC"",""AO"",""FO"",""HO""]","[""BM03"",""AM06"",""HF02"",""AM03""]","[6,7,2,4]","[8,6,4,2]","","",""
"show-reward","34","103919","0.0-34.0","p980243","A34YDGVZKRJ0LZ","3RZS0FBRWLGDTA9TUPH81F59AWHPC0","354P56DE9M97H5SJLRIS5IDVFHS7SR","model","mismatch","uniform","","","","","","","","105561","107568.5","","","","","","","","","","","","6","","stimuli/stars_6.png","42.5","","","","","stimuli/BM03_SC.jpg","",""
"explore-choice","35","105887","0.0-35.0","p980243","A34YDGVZKRJ0LZ","3RZS0FBRWLGDTA9TUPH81F59AWHPC0","354P56DE9M97H5SJLRIS5IDVFHS7SR","model","mismatch","uniform","","","","","","","1463.2000000476837","107569.5","109032.70000004768","[""stimuli/AM06_HO.jpg"",""stimuli/AM03_FO.jpg"",""stimuli/HF02_AO.jpg"",""stimuli/BM03_SC.jpg""]","stimuli/AM06_HO.jpg","stimuli/AM03_FO.jpg","stimuli/HF02_AO.jpg","stimuli/BM03_SC.jpg","pos3","stimuli/HF02_AO.jpg","AO","HF02","2","1.5","3","4","stimuli/stars_3.png","44","[""HO"",""FO"",""AO"",""SC""]","[""AM06"",""AM03"",""HF02"",""BM03""]","[5,2,3,7]","[6,2,4,8]","","",""
"show-reward","36","107896","0.0-36.0","p980243","A34YDGVZKRJ0LZ","3RZS0FBRWLGDTA9TUPH81F59AWHPC0","354P56DE9M97H5SJLRIS5IDVFHS7SR","model","mismatch","uniform","","","","","","","","109538","111545.5","","","","","","","","","","","","3","","stimuli/stars_3.png","44","","","","","stimuli/HF02_AO.jpg","",""
"explore-choice","37","110119","0.0-37.0","p980243","A34YDGVZKRJ0LZ","3RZS0FBRWLGDTA9TUPH81F59AWHPC0","354P56DE9M97H5SJLRIS5IDVFHS7SR","model","mismatch","uniform","","","","","","","1721.6000000238419","111546.60000002384","113268.20000004768","[""stimuli/HF02_AO.jpg"",""stimuli/AM06_FO.jpg"",""stimuli/BM03_SC.jpg"",""stimuli/AM03_HO.jpg""]","stimuli/HF02_AO.jpg","stimuli/AM06_FO.jpg","stimuli/BM03_SC.jpg","stimuli/AM03_HO.jpg","pos3","stimuli/BM03_SC.jpg","SC","BM03","2","5","10","8","stimuli/stars_10.png","49","[""AO"",""FO"",""SC"",""HO""]","[""HF02"",""AM06"",""BM03"",""AM03""]","[5,8,10,2]","[4,6,8,2]","","",""
"show-reward","38","112123","0.0-38.0","p980243","A34YDGVZKRJ0LZ","3RZS0FBRWLGDTA9TUPH81F59AWHPC0","354P56DE9M97H5SJLRIS5IDVFHS7SR","model","mismatch","uniform","","","","","","","","113769.90000003576","115773","","","","","","","","","","","","10","","stimuli/stars_10.png","49","","","","","stimuli/BM03_SC.jpg","",""
"explore-choice","39","113730","0.0-39.0","p980243","A34YDGVZKRJ0LZ","3RZS0FBRWLGDTA9TUPH81F59AWHPC0","354P56DE9M97H5SJLRIS5IDVFHS7SR","model","mismatch","uniform","","","","","","","1104.3999999761581","115774.10000002384","116878.5","[""stimuli/AM03_AO.jpg"",""stimuli/HF02_SC.jpg"",""stimuli/BM03_FO.jpg"",""stimuli/AM06_HO.jpg""]","stimuli/AM03_AO.jpg","stimuli/HF02_SC.jpg","stimuli/BM03_FO.jpg","stimuli/AM06_HO.jpg","pos3","stimuli/BM03_FO.jpg","FO","BM03","2","3.5","7","8","stimuli/stars_7.png","52.5","[""AO"",""SC"",""FO"",""HO""]","[""AM03"",""HF02"",""BM03"",""AM06""]","[3,2,7,4]","[2,4,8,6]","","",""
"show-reward","40","115739","0.0-40.0","p980243","A34YDGVZKRJ0LZ","3RZS0FBRWLGDTA9TUPH81F59AWHPC0","354P56DE9M97H5SJLRIS5IDVFHS7SR","model","mismatch","uniform","","","","","","","","117381","119388.5","","","","","","","","","","","","7","","stimuli/stars_7.png","52.5","","","","","stimuli/BM03_FO.jpg","",""
"explore-choice","41","117344","0.0-41.0","p980243","A34YDGVZKRJ0LZ","3RZS0FBRWLGDTA9TUPH81F59AWHPC0","354P56DE9M97H5SJLRIS5IDVFHS7SR","model","mismatch","uniform","","","","","","","1100.1000000238419","119389.60000002384","120489.70000004768","[""stimuli/BM03_HO.jpg"",""stimuli/AM03_SC.jpg"",""stimuli/AM06_AO.jpg"",""stimuli/HF02_FO.jpg""]","stimuli/BM03_HO.jpg","stimuli/AM03_SC.jpg","stimuli/AM06_AO.jpg","stimuli/HF02_FO.jpg","pos1","stimuli/BM03_HO.jpg","HO","BM03","0","3.5","7","8","stimuli/stars_7.png","56","[""HO"",""SC"",""AO"",""FO""]","[""BM03"",""AM03"",""AM06"",""HF02""]","[7,0,4,2]","[8,2,6,4]","","",""
"show-reward","42","119353","0.0-42.0","p980243","A34YDGVZKRJ0LZ","3RZS0FBRWLGDTA9TUPH81F59AWHPC0","354P56DE9M97H5SJLRIS5IDVFHS7SR","model","mismatch","uniform","","","","","","","","120994.80000001192","123002.40000003576","","","","","","","","","","","","7","","stimuli/stars_7.png","56","","","","","stimuli/BM03_HO.jpg","",""
"explore-choice","43","121367","0.0-43.0","p980243","A34YDGVZKRJ0LZ","3RZS0FBRWLGDTA9TUPH81F59AWHPC0","354P56DE9M97H5SJLRIS5IDVFHS7SR","model","mismatch","uniform","","","","","","","1512.5","123003.5","124516","[""stimuli/HF02_HO.jpg"",""stimuli/AM06_FO.jpg"",""stimuli/AM03_SC.jpg"",""stimuli/BM03_AO.jpg""]","stimuli/HF02_HO.jpg","stimuli/AM06_FO.jpg","stimuli/AM03_SC.jpg","stimuli/BM03_AO.jpg","pos4","stimuli/BM03_AO.jpg","AO","BM03","3","4","8","8","stimuli/stars_8.png","60","[""HO"",""FO"",""SC"",""AO""]","[""HF02"",""AM06"",""AM03"",""BM03""]","[2,7,0,8]","[4,6,2,8]","","",""
"show-reward","44","123376","0.0-44.0","p980243","A34YDGVZKRJ0LZ","3RZS0FBRWLGDTA9TUPH81F59AWHPC0","354P56DE9M97H5SJLRIS5IDVFHS7SR","model","mismatch","uniform","","","","","","","","125017.60000002384","127025.10000002384","","","","","","","","","","","","8","","stimuli/stars_8.png","60","","","","","stimuli/BM03_AO.jpg","",""
"explore-choice","45","125741","0.0-45.0","p980243","A34YDGVZKRJ0LZ","3RZS0FBRWLGDTA9TUPH81F59AWHPC0","354P56DE9M97H5SJLRIS5IDVFHS7SR","model","mismatch","uniform","","","","","","","1860.2999999523163","127026.20000004768","128886.5","[""stimuli/AM06_SC.jpg"",""stimuli/AM03_HO.jpg"",""stimuli/BM03_AO.jpg"",""stimuli/HF02_FO.jpg""]","stimuli/AM06_SC.jpg","stimuli/AM03_HO.jpg","stimuli/BM03_AO.jpg","stimuli/HF02_FO.jpg","pos3","stimuli/BM03_AO.jpg","AO","BM03","2","3","6","8","stimuli/stars_6.png","63","[""SC"",""HO"",""AO"",""FO""]","[""AM06"",""AM03"",""BM03"",""HF02""]","[5,3,6,3]","[6,2,8,4]","","",""
"show-reward","46","127750","0.0-46.0","p980243","A34YDGVZKRJ0LZ","3RZS0FBRWLGDTA9TUPH81F59AWHPC0","354P56DE9M97H5SJLRIS5IDVFHS7SR","model","mismatch","uniform","","","","","","","","129391.5","131399","","","","","","","","","","","","6","","stimuli/stars_6.png","63","","","","","stimuli/BM03_AO.jpg","",""
"explore-choice","47","129563","0.0-47.0","p980243","A34YDGVZKRJ0LZ","3RZS0FBRWLGDTA9TUPH81F59AWHPC0","354P56DE9M97H5SJLRIS5IDVFHS7SR","model","mismatch","uniform","","","","","","","1312.199999988079","131400.10000002384","132712.30000001192","[""stimuli/AM06_SC.jpg"",""stimuli/AM03_FO.jpg"",""stimuli/HF02_HO.jpg"",""stimuli/BM03_AO.jpg""]","stimuli/AM06_SC.jpg","stimuli/AM03_FO.jpg","stimuli/HF02_HO.jpg","stimuli/BM03_AO.jpg","pos4","stimuli/BM03_AO.jpg","AO","BM03","3","3","6","8","stimuli/stars_6.png","66","[""SC"",""FO"",""HO"",""AO""]","[""AM06"",""AM03"",""HF02"",""BM03""]","[5,3,5,6]","[6,2,4,8]","","",""
"show-reward","48","131572","0.0-48.0","p980243","A34YDGVZKRJ0LZ","3RZS0FBRWLGDTA9TUPH81F59AWHPC0","354P56DE9M97H5SJLRIS5IDVFHS7SR","model","mismatch","uniform","","","","","","","","133213.70000004768","135221","","","","","","","","","","","","6","","stimuli/stars_6.png","66","","","","","stimuli/BM03_AO.jpg","",""
"explore-choice","49","133521","0.0-49.0","p980243","A34YDGVZKRJ0LZ","3RZS0FBRWLGDTA9TUPH81F59AWHPC0","354P56DE9M97H5SJLRIS5IDVFHS7SR","model","mismatch","uniform","","","","","","","1445.5","135222","136667.5","[""stimuli/HF02_HO.jpg"",""stimuli/AM03_SC.jpg"",""stimuli/BM03_FO.jpg"",""stimuli/AM06_AO.jpg""]","stimuli/HF02_HO.jpg","stimuli/AM03_SC.jpg","stimuli/BM03_FO.jpg","stimuli/AM06_AO.jpg","pos3","stimuli/BM03_FO.jpg","FO","BM03","2","3","6","8","stimuli/stars_6.png","69","[""HO"",""SC"",""FO"",""AO""]","[""HF02"",""AM03"",""BM03"",""AM06""]","[5,3,6,7]","[4,2,8,6]","","",""
"show-reward","50","135529","0.0-50.0","p980243","A34YDGVZKRJ0LZ","3RZS0FBRWLGDTA9TUPH81F59AWHPC0","354P56DE9M97H5SJLRIS5IDVFHS7SR","model","mismatch","uniform","","","","","","","","137171","139178.30000001192","","","","","","","","","","","","6","","stimuli/stars_6.png","69","","","","","stimuli/BM03_FO.jpg","",""
"explore-choice","51","137426","0.0-51.0","p980243","A34YDGVZKRJ0LZ","3RZS0FBRWLGDTA9TUPH81F59AWHPC0","354P56DE9M97H5SJLRIS5IDVFHS7SR","model","mismatch","uniform","","","","","","","1395.3999999761581","139179.20000004768","140574.60000002384","[""stimuli/BM03_SC.jpg"",""stimuli/AM03_AO.jpg"",""stimuli/HF02_HO.jpg"",""stimuli/AM06_FO.jpg""]","stimuli/BM03_SC.jpg","stimuli/AM03_AO.jpg","stimuli/HF02_HO.jpg","stimuli/AM06_FO.jpg","pos4","stimuli/AM06_FO.jpg","FO","AM06","3","2","4","6","stimuli/stars_4.png","71","[""SC"",""AO"",""HO"",""FO""]","[""BM03"",""AM03"",""HF02"",""AM06""]","[7,1,5,4]","[8,2,4,6]","","",""
"show-reward","52","139435","0.0-52.0","p980243","A34YDGVZKRJ0LZ","3RZS0FBRWLGDTA9TUPH81F59AWHPC0","354P56DE9M97H5SJLRIS5IDVFHS7SR","model","mismatch","uniform","","","","","","","","141076.30000001192","143083.80000001192","","","","","","","","","","","","4","","stimuli/stars_4.png","71","","","","","stimuli/AM06_FO.jpg","",""
"explore-choice","53","141857","0.0-53.0","p980243","A34YDGVZKRJ0LZ","3RZS0FBRWLGDTA9TUPH81F59AWHPC0","354P56DE9M97H5SJLRIS5IDVFHS7SR","model","mismatch","uniform","","","","","","","1916.5","143084.70000004768","145001.20000004768","[""stimuli/AM03_SC.jpg"",""stimuli/BM03_AO.jpg"",""stimuli/AM06_HO.jpg"",""stimuli/HF02_FO.jpg""]","stimuli/AM03_SC.jpg","stimuli/BM03_AO.jpg","stimuli/AM06_HO.jpg","stimuli/HF02_FO.jpg","pos2","stimuli/BM03_AO.jpg","AO","BM03","1","3.5","7","8","stimuli/stars_7.png","74.5","[""SC"",""AO"",""HO"",""FO""]","[""AM03"",""BM03"",""AM06"",""HF02""]","[3,7,6,2]","[2,8,6,4]","","",""
"show-reward","54","143865","0.0-54.0","p980243","A34YDGVZKRJ0LZ","3RZS0FBRWLGDTA9TUPH81F59AWHPC0","354P56DE9M97H5SJLRIS5IDVFHS7SR","model","mismatch","uniform","","","","","","","","145507","147514.30000001192","","","","","","","","","","","","7","","stimuli/stars_7.png","74.5","","","","","stimuli/BM03_AO.jpg","",""
"explore-choice","55","145268","0.0-55.0","p980243","A34YDGVZKRJ0LZ","3RZS0FBRWLGDTA9TUPH81F59AWHPC0","354P56DE9M97H5SJLRIS5IDVFHS7SR","model","mismatch","uniform","","","","","","","897.6999999880791","147515.30000001192","148413","[""stimuli/AM06_AO.jpg"",""stimuli/AM03_HO.jpg"",""stimuli/BM03_SC.jpg"",""stimuli/HF02_FO.jpg""]","stimuli/AM06_AO.jpg","stimuli/AM03_HO.jpg","stimuli/BM03_SC.jpg","stimuli/HF02_FO.jpg","pos4","stimuli/HF02_FO.jpg","FO","HF02","3","1","2","4","stimuli/stars_2.png","75.5","[""AO"",""HO"",""SC"",""FO""]","[""AM06"",""AM03"",""BM03"",""HF02""]","[7,4,6,2]","[6,2,8,4]","","",""
"show-reward","56","147278","0.0-56.0","p980243","A34YDGVZKRJ0LZ","3RZS0FBRWLGDTA9TUPH81F59AWHPC0","354P56DE9M97H5SJLRIS5IDVFHS7SR","model","mismatch","uniform","","","","","","","","148918","150926.60000002384","","","","","","","","","","","","2","","stimuli/stars_2.png","75.5","","","","","stimuli/HF02_FO.jpg","",""
"explore-choice","57","148945","0.0-57.0","p980243","A34YDGVZKRJ0LZ","3RZS0FBRWLGDTA9TUPH81F59AWHPC0","354P56DE9M97H5SJLRIS5IDVFHS7SR","model","mismatch","uniform","","","","","","","1161.5","150927.60000002384","152089.10000002384","[""stimuli/AM06_FO.jpg"",""stimuli/BM03_SC.jpg"",""stimuli/HF02_HO.jpg"",""stimuli/AM03_AO.jpg""]","stimuli/AM06_FO.jpg","stimuli/BM03_SC.jpg","stimuli/HF02_HO.jpg","stimuli/AM03_AO.jpg","pos2","stimuli/BM03_SC.jpg","SC","BM03","1","3.5","7","8","stimuli/stars_7.png","79","[""FO"",""SC"",""HO"",""AO""]","[""AM06"",""BM03"",""HF02"",""AM03""]","[4,7,5,1]","[6,8,4,2]","","",""
"show-reward","58","150953","0.0-58.0","p980243","A34YDGVZKRJ0LZ","3RZS0FBRWLGDTA9TUPH81F59AWHPC0","354P56DE9M97H5SJLRIS5IDVFHS7SR","model","mismatch","uniform","","","","","","","","152594.80000001192","154602.10000002384","","","","","","","","","","","","7","","stimuli/stars_7.png","79","","","","","stimuli/BM03_SC.jpg","",""
"explore-choice","59","153507","0.0-59.0","p980243","A34YDGVZKRJ0LZ","3RZS0FBRWLGDTA9TUPH81F59AWHPC0","354P56DE9M97H5SJLRIS5IDVFHS7SR","model","mismatch","uniform","","","","","","","2047.0999999642372","154603.20000004768","156650.30000001192","[""stimuli/AM06_AO.jpg"",""stimuli/AM03_HO.jpg"",""stimuli/BM03_FO.jpg"",""stimuli/HF02_SC.jpg""]","stimuli/AM06_AO.jpg","stimuli/AM03_HO.jpg","stimuli/BM03_FO.jpg","stimuli/HF02_SC.jpg","pos3","stimuli/BM03_FO.jpg","FO","BM03","2","4.5","9","8","stimuli/stars_9.png","83.5","[""AO"",""HO"",""FO"",""SC""]","[""AM06"",""AM03"",""BM03"",""HF02""]","[5,2,9,3]","[6,2,8,4]","","",""
"show-reward","60","155515","0.0-60.0","p980243","A34YDGVZKRJ0LZ","3RZS0FBRWLGDTA9TUPH81F59AWHPC0","354P56DE9M97H5SJLRIS5IDVFHS7SR","model","mismatch","uniform","","","","","","","","157156.40000003576","159163.70000004768","","","","","","","","","","","","9","","stimuli/stars_9.png","83.5","","","","","stimuli/BM03_FO.jpg","",""
"explore-choice","61","157123","0.0-61.0","p980243","A34YDGVZKRJ0LZ","3RZS0FBRWLGDTA9TUPH81F59AWHPC0","354P56DE9M97H5SJLRIS5IDVFHS7SR","model","mismatch","uniform","","","","","","","1106.3999999761581","159164.70000004768","160271.10000002384","[""stimuli/HF02_FO.jpg"",""stimuli/AM03_AO.jpg"",""stimuli/BM03_SC.jpg"",""stimuli/AM06_HO.jpg""]","stimuli/HF02_FO.jpg","stimuli/AM03_AO.jpg","stimuli/BM03_SC.jpg","stimuli/AM06_HO.jpg","pos3","stimuli/BM03_SC.jpg","SC","BM03","2","3.5","7","8","stimuli/stars_7.png","87","[""FO"",""AO"",""SC"",""HO""]","[""HF02"",""AM03"",""BM03"",""AM06""]","[4,4,7,7]","[4,2,8,6]","","",""
"show-reward","62","159131","0.0-62.0","p980243","A34YDGVZKRJ0LZ","3RZS0FBRWLGDTA9TUPH81F59AWHPC0","354P56DE9M97H5SJLRIS5IDVFHS7SR","model","mismatch","uniform","","","","","","","","160772.5","162779.80000001192","","","","","","","","","","","","7","","stimuli/stars_7.png","87","","","","","stimuli/BM03_SC.jpg","",""
"explore-choice","63","161401","0.0-63.0","p980243","A34YDGVZKRJ0LZ","3RZS0FBRWLGDTA9TUPH81F59AWHPC0","354P56DE9M97H5SJLRIS5IDVFHS7SR","model","mismatch","uniform","","","","","","","1763.5","162780.90000003576","164544.40000003576","[""stimuli/BM03_HO.jpg"",""stimuli/AM06_SC.jpg"",""stimuli/AM03_FO.jpg"",""stimuli/HF02_AO.jpg""]","stimuli/BM03_HO.jpg","stimuli/AM06_SC.jpg","stimuli/AM03_FO.jpg","stimuli/HF02_AO.jpg","pos1","stimuli/BM03_HO.jpg","HO","BM03","0","4","8","8","stimuli/stars_8.png","91","[""HO"",""SC"",""FO"",""AO""]","[""BM03"",""AM06"",""AM03"",""HF02""]","[8,5,2,4]","[8,6,2,4]","","",""
"show-reward","64","163405","0.0-64.0","p980243","A34YDGVZKRJ0LZ","3RZS0FBRWLGDTA9TUPH81F59AWHPC0","354P56DE9M97H5SJLRIS5IDVFHS7SR","model","mismatch","uniform","","","","","","","","165050.30000001192","167053","","","","","","","","","","","","8","","stimuli/stars_8.png","91","","","","","stimuli/BM03_HO.jpg","",""
"explore-choice","65","165155","0.0-65.0","p980243","A34YDGVZKRJ0LZ","3RZS0FBRWLGDTA9TUPH81F59AWHPC0","354P56DE9M97H5SJLRIS5IDVFHS7SR","model","mismatch","uniform","","","","","","","1244.7000000476837","167054","168298.70000004768","[""stimuli/AM03_SC.jpg"",""stimuli/HF02_FO.jpg"",""stimuli/BM03_HO.jpg"",""stimuli/AM06_AO.jpg""]","stimuli/AM03_SC.jpg","stimuli/HF02_FO.jpg","stimuli/BM03_HO.jpg","stimuli/AM06_AO.jpg","pos3","stimuli/BM03_HO.jpg","HO","BM03","2","3.5","7","8","stimuli/stars_7.png","94.5","[""SC"",""FO"",""HO"",""AO""]","[""AM03"",""HF02"",""BM03"",""AM06""]","[0,2,7,4]","[2,4,8,6]","","",""
"show-reward","66","167161","0.0-66.0","p980243","A34YDGVZKRJ0LZ","3RZS0FBRWLGDTA9TUPH81F59AWHPC0","354P56DE9M97H5SJLRIS5IDVFHS7SR","model","mismatch","uniform","","","","","","","","168804.40000003576","170809.20000004768","","","","","","","","","","","","7","","stimuli/stars_7.png","94.5","","","","","stimuli/BM03_HO.jpg","",""
"explore-choice","67","168845","0.0-67.0","p980243","A34YDGVZKRJ0LZ","3RZS0FBRWLGDTA9TUPH81F59AWHPC0","354P56DE9M97H5SJLRIS5IDVFHS7SR","model","mismatch","uniform","","","","","","","1178.9000000357628","170810.30000001192","171989.20000004768","[""stimuli/AM03_AO.jpg"",""stimuli/HF02_HO.jpg"",""stimuli/AM06_SC.jpg"",""stimuli/BM03_FO.jpg""]","stimuli/AM03_AO.jpg","stimuli/HF02_HO.jpg","stimuli/AM06_SC.jpg","stimuli/BM03_FO.jpg","pos4","stimuli/BM03_FO.jpg","FO","BM03","3","3.5","7","8","stimuli/stars_7.png","98","[""AO"",""HO"",""SC"",""FO""]","[""AM03"",""HF02"",""AM06"",""BM03""]","[4,5,8,7]","[2,4,6,8]","","",""
"show-reward","68","170854","0.0-68.0","p980243","A34YDGVZKRJ0LZ","3RZS0FBRWLGDTA9TUPH81F59AWHPC0","354P56DE9M97H5SJLRIS5IDVFHS7SR","model","mismatch","uniform","","","","","","","","172494.70000004768","174502.10000002384","","","","","","","","","","","","7","","stimuli/stars_7.png","98","","","","","stimuli/BM03_FO.jpg","",""
"explore-choice","69","172951","0.0-69.0","p980243","A34YDGVZKRJ0LZ","3RZS0FBRWLGDTA9TUPH81F59AWHPC0","354P56DE9M97H5SJLRIS5IDVFHS7SR","model","mismatch","uniform","","","","","","","1591.800000011921","174503.10000002384","176094.90000003576","[""stimuli/AM03_AO.jpg"",""stimuli/HF02_SC.jpg"",""stimuli/BM03_HO.jpg"",""stimuli/AM06_FO.jpg""]","stimuli/AM03_AO.jpg","stimuli/HF02_SC.jpg","stimuli/BM03_HO.jpg","stimuli/AM06_FO.jpg","pos3","stimuli/BM03_HO.jpg","HO","BM03","2","3","6","8","stimuli/stars_6.png","101","[""AO"",""SC"",""HO"",""FO""]","[""AM03"",""HF02"",""BM03"",""AM06""]","[2,6,6,8]","[2,4,8,6]","","",""
"show-reward","70","174960","0.0-70.0","p980243","A34YDGVZKRJ0LZ","3RZS0FBRWLGDTA9TUPH81F59AWHPC0","354P56DE9M97H5SJLRIS5IDVFHS7SR","model","mismatch","uniform","","","","","","","","176600.60000002384","178607.90000003576","","","","","","","","","","","","6","","stimuli/stars_6.png","101","","","","","stimuli/BM03_HO.jpg","",""
"explore-choice","71","176651","0.0-71.0","p980243","A34YDGVZKRJ0LZ","3RZS0FBRWLGDTA9TUPH81F59AWHPC0","354P56DE9M97H5SJLRIS5IDVFHS7SR","model","mismatch","uniform","","","","","","","1185.5","178608.90000003576","179794.40000003576","[""stimuli/HF02_AO.jpg"",""stimuli/AM03_HO.jpg"",""stimuli/AM06_SC.jpg"",""stimuli/BM03_FO.jpg""]","stimuli/HF02_AO.jpg","stimuli/AM03_HO.jpg","stimuli/AM06_SC.jpg","stimuli/BM03_FO.jpg","pos4","stimuli/BM03_FO.jpg","FO","BM03","3","3","6","8","stimuli/stars_6.png","104","[""AO"",""HO"",""SC"",""FO""]","[""HF02"",""AM03"",""AM06"",""BM03""]","[2,1,5,6]","[4,2,6,8]","","",""
"show-reward","72","178657","0.0-72.0","p980243","A34YDGVZKRJ0LZ","3RZS0FBRWLGDTA9TUPH81F59AWHPC0","354P56DE9M97H5SJLRIS5IDVFHS7SR","model","mismatch","uniform","","","","","","","","180300.30000001192","182305.30000001192","","","","","","","","","","","","6","","stimuli/stars_6.png","104","","","","","stimuli/BM03_FO.jpg","",""
"explore-choice","73","180752","0.0-73.0","p980243","A34YDGVZKRJ0LZ","3RZS0FBRWLGDTA9TUPH81F59AWHPC0","354P56DE9M97H5SJLRIS5IDVFHS7SR","model","mismatch","uniform","","","","","","","1593.300000011921","182306.30000001192","183899.60000002384","[""stimuli/AM06_FO.jpg"",""stimuli/BM03_AO.jpg"",""stimuli/HF02_SC.jpg"",""stimuli/AM03_HO.jpg""]","stimuli/AM06_FO.jpg","stimuli/BM03_AO.jpg","stimuli/HF02_SC.jpg","stimuli/AM03_HO.jpg","pos4","stimuli/AM03_HO.jpg","HO","AM03","3","0.5","1","2","stimuli/stars_1.png","104.5","[""FO"",""AO"",""SC"",""HO""]","[""AM06"",""BM03"",""HF02"",""AM03""]","[5,9,4,1]","[6,8,4,2]","","",""
"show-reward","74","182758","0.0-74.0","p980243","A34YDGVZKRJ0LZ","3RZS0FBRWLGDTA9TUPH81F59AWHPC0","354P56DE9M97H5SJLRIS5IDVFHS7SR","model","mismatch","uniform","","","","","","","","184401","186405.30000001192","","","","","","","","","","","","1","","stimuli/stars_1.png","104.5","","","","","stimuli/AM03_HO.jpg","",""
"explore-choice","75","184606","0.0-75.0","p980243","A34YDGVZKRJ0LZ","3RZS0FBRWLGDTA9TUPH81F59AWHPC0","354P56DE9M97H5SJLRIS5IDVFHS7SR","model","mismatch","uniform","","","","","","","1345","186406.90000003576","187751.90000003576","[""stimuli/AM06_AO.jpg"",""stimuli/HF02_HO.jpg"",""stimuli/AM03_FO.jpg"",""stimuli/BM03_SC.jpg""]","stimuli/AM06_AO.jpg","stimuli/HF02_HO.jpg","stimuli/AM03_FO.jpg","stimuli/BM03_SC.jpg","pos4","stimuli/BM03_SC.jpg","SC","BM03","3","3","6","8","stimuli/stars_6.png","107.5","[""AO"",""HO"",""FO"",""SC""]","[""AM06"",""HF02"",""AM03"",""BM03""]","[7,4,0,6]","[6,4,2,8]","","",""
"show-reward","76","186615","0.0-76.0","p980243","A34YDGVZKRJ0LZ","3RZS0FBRWLGDTA9TUPH81F59AWHPC0","354P56DE9M97H5SJLRIS5IDVFHS7SR","model","mismatch","uniform","","","","","","","","188254.5","190262.40000003576","","","","","","","","","","","","6","","stimuli/stars_6.png","107.5","","","","","stimuli/BM03_SC.jpg","",""
"explore-choice","77","188272","0.0-77.0","p980243","A34YDGVZKRJ0LZ","3RZS0FBRWLGDTA9TUPH81F59AWHPC0","354P56DE9M97H5SJLRIS5IDVFHS7SR","model","mismatch","uniform","","","","","","","1156.2000000476837","190263.5","191419.70000004768","[""stimuli/AM03_SC.jpg"",""stimuli/AM06_FO.jpg"",""stimuli/BM03_HO.jpg"",""stimuli/HF02_AO.jpg""]","stimuli/AM03_SC.jpg","stimuli/AM06_FO.jpg","stimuli/BM03_HO.jpg","stimuli/HF02_AO.jpg","pos2","stimuli/AM06_FO.jpg","FO","AM06","1","3","6","6","stimuli/stars_6.png","110.5","[""SC"",""FO"",""HO"",""AO""]","[""AM03"",""AM06"",""BM03"",""HF02""]","[0,6,9,3]","[2,6,8,4]","","",""
"show-reward","78","190281","0.0-78.0","p980243","A34YDGVZKRJ0LZ","3RZS0FBRWLGDTA9TUPH81F59AWHPC0","354P56DE9M97H5SJLRIS5IDVFHS7SR","model","mismatch","uniform","","","","","","","","191921.40000003576","193928.80000001192","","","","","","","","","","","","6","","stimuli/stars_6.png","110.5","","","","","stimuli/AM06_FO.jpg","",""
"explore-choice","79","192004","0.0-79.0","p980243","A34YDGVZKRJ0LZ","3RZS0FBRWLGDTA9TUPH81F59AWHPC0","354P56DE9M97H5SJLRIS5IDVFHS7SR","model","mismatch","uniform","","","","","","","1220.699999988079","193929.90000003576","195150.60000002384","[""stimuli/HF02_AO.jpg"",""stimuli/AM06_FO.jpg"",""stimuli/BM03_SC.jpg"",""stimuli/AM03_HO.jpg""]","stimuli/HF02_AO.jpg","stimuli/AM06_FO.jpg","stimuli/BM03_SC.jpg","stimuli/AM03_HO.jpg","pos3","stimuli/BM03_SC.jpg","SC","BM03","2","5","10","8","stimuli/stars_10.png","115.5","[""AO"",""FO"",""SC"",""HO""]","[""HF02"",""AM06"",""BM03"",""AM03""]","[5,8,10,2]","[4,6,8,2]","","",""
"show-reward","80","194008","0.0-80.0","p980243","A34YDGVZKRJ0LZ","3RZS0FBRWLGDTA9TUPH81F59AWHPC0","354P56DE9M97H5SJLRIS5IDVFHS7SR","model","mismatch","uniform","","","","","","","","195652.10000002384","197655.5","","","","","","","","","","","","10","","stimuli/stars_10.png","115.5","","","","","stimuli/BM03_SC.jpg","",""
"explore-choice","81","195636","0.0-81.0","p980243","A34YDGVZKRJ0LZ","3RZS0FBRWLGDTA9TUPH81F59AWHPC0","354P56DE9M97H5SJLRIS5IDVFHS7SR","model","mismatch","uniform","","","","","","","1121.800000011921","197656.60000002384","198778.40000003576","[""stimuli/AM03_FO.jpg"",""stimuli/HF02_SC.jpg"",""stimuli/BM03_AO.jpg"",""stimuli/AM06_HO.jpg""]","stimuli/AM03_FO.jpg","stimuli/HF02_SC.jpg","stimuli/BM03_AO.jpg","stimuli/AM06_HO.jpg","pos3","stimuli/BM03_AO.jpg","AO","BM03","2","3","6","8","stimuli/stars_6.png","118.5","[""FO"",""SC"",""AO"",""HO""]","[""AM03"",""HF02"",""BM03"",""AM06""]","[1,4,6,4]","[2,4,8,6]","","",""
"show-reward","82","197645","0.0-82.0","p980243","A34YDGVZKRJ0LZ","3RZS0FBRWLGDTA9TUPH81F59AWHPC0","354P56DE9M97H5SJLRIS5IDVFHS7SR","model","mismatch","uniform","","","","","","","","199284.30000001192","201291.70000004768","","","","","","","","","","","","6","","stimuli/stars_6.png","118.5","","","","","stimuli/BM03_AO.jpg","",""
"explore-choice","83","199221","0.0-83.0","p980243","A34YDGVZKRJ0LZ","3RZS0FBRWLGDTA9TUPH81F59AWHPC0","354P56DE9M97H5SJLRIS5IDVFHS7SR","model","mismatch","uniform","","","","","","","1072.800000011921","201292.90000003576","202365.70000004768","[""stimuli/HF02_FO.jpg"",""stimuli/AM06_SC.jpg"",""stimuli/BM03_AO.jpg"",""stimuli/AM03_HO.jpg""]","stimuli/HF02_FO.jpg","stimuli/AM06_SC.jpg","stimuli/BM03_AO.jpg","stimuli/AM03_HO.jpg","pos2","stimuli/AM06_SC.jpg","SC","AM06","1","2.5","5","6","stimuli/stars_5.png","121","[""FO"",""SC"",""AO"",""HO""]","[""HF02"",""AM06"",""BM03"",""AM03""]","[3,5,6,3]","[4,6,8,2]","","",""
"show-reward","84","201225","0.0-84.0","p980243","A34YDGVZKRJ0LZ","3RZS0FBRWLGDTA9TUPH81F59AWHPC0","354P56DE9M97H5SJLRIS5IDVFHS7SR","model","mismatch","uniform","","","","","","","","202869.5","204872.40000003576","","","","","","","","","","","","5","","stimuli/stars_5.png","121","","","","","stimuli/AM06_SC.jpg","",""
"explore-choice","85","202624","0.0-85.0","p980243","A34YDGVZKRJ0LZ","3RZS0FBRWLGDTA9TUPH81F59AWHPC0","354P56DE9M97H5SJLRIS5IDVFHS7SR","model","mismatch","uniform","","","","","","","895.6000000238419","204873.5","205769.10000002384","[""stimuli/AM03_SC.jpg"",""stimuli/AM06_FO.jpg"",""stimuli/BM03_AO.jpg"",""stimuli/HF02_HO.jpg""]","stimuli/AM03_SC.jpg","stimuli/AM06_FO.jpg","stimuli/BM03_AO.jpg","stimuli/HF02_HO.jpg","pos3","stimuli/BM03_AO.jpg","AO","BM03","2","4","8","8","stimuli/stars_8.png","125","[""SC"",""FO"",""AO"",""HO""]","[""AM03"",""AM06"",""BM03"",""HF02""]","[0,7,8,2]","[2,6,8,4]","","",""
"show-reward","86","204633","0.0-86.0","p980243","A34YDGVZKRJ0LZ","3RZS0FBRWLGDTA9TUPH81F59AWHPC0","354P56DE9M97H5SJLRIS5IDVFHS7SR","model","mismatch","uniform","","","","","","","","206272.90000003576","208279.60000002384","","","","","","","","","","","","8","","stimuli/stars_8.png","125","","","","","stimuli/BM03_AO.jpg","",""
"explore-choice","87","206492","0.0-87.0","p980243","A34YDGVZKRJ0LZ","3RZS0FBRWLGDTA9TUPH81F59AWHPC0","354P56DE9M97H5SJLRIS5IDVFHS7SR","model","mismatch","uniform","","","","","","","1355.800000011921","208280.5","209636.30000001192","[""stimuli/BM03_FO.jpg"",""stimuli/AM03_SC.jpg"",""stimuli/AM06_AO.jpg"",""stimuli/HF02_HO.jpg""]","stimuli/BM03_FO.jpg","stimuli/AM03_SC.jpg","stimuli/AM06_AO.jpg","stimuli/HF02_HO.jpg","pos1","stimuli/BM03_FO.jpg","FO","BM03","0","3","6","8","stimuli/stars_6.png","128","[""FO"",""SC"",""AO"",""HO""]","[""BM03"",""AM03"",""AM06"",""HF02""]","[6,3,7,5]","[8,2,6,4]","","",""
"show-reward","88","208499","0.0-88.0","p980243","A34YDGVZKRJ0LZ","3RZS0FBRWLGDTA9TUPH81F59AWHPC0","354P56DE9M97H5SJLRIS5IDVFHS7SR","model","mismatch","uniform","","","","","","","","210139.90000003576","212145.70000004768","","","","","","","","","","","","6","","stimuli/stars_6.png","128","","","","","stimuli/BM03_FO.jpg","",""
"explore-choice","89","210059","0.0-89.0","p980243","A34YDGVZKRJ0LZ","3RZS0FBRWLGDTA9TUPH81F59AWHPC0","354P56DE9M97H5SJLRIS5IDVFHS7SR","model","mismatch","uniform","","","","","","","1054.300000011921","212146.60000002384","213200.90000003576","[""stimuli/HF02_AO.jpg"",""stimuli/BM03_SC.jpg"",""stimuli/AM06_HO.jpg"",""stimuli/AM03_FO.jpg""]","stimuli/HF02_AO.jpg","stimuli/BM03_SC.jpg","stimuli/AM06_HO.jpg","stimuli/AM03_FO.jpg","pos2","stimuli/BM03_SC.jpg","SC","BM03","1","3.5","7","8","stimuli/stars_7.png","131.5","[""AO"",""SC"",""HO"",""FO""]","[""HF02"",""BM03"",""AM06"",""AM03""]","[3,7,5,2]","[4,8,6,2]","","",""
"show-reward","90","212064","0.0-90.0","p980243","A34YDGVZKRJ0LZ","3RZS0FBRWLGDTA9TUPH81F59AWHPC0","354P56DE9M97H5SJLRIS5IDVFHS7SR","model","mismatch","uniform","","","","","","","","213706.70000004768","215710.90000003576","","","","","","","","","","","","7","","stimuli/stars_7.png","131.5","","","","","stimuli/BM03_SC.jpg","",""
"explore-choice","91","213990","0.0-91.0","p980243","A34YDGVZKRJ0LZ","3RZS0FBRWLGDTA9TUPH81F59AWHPC0","354P56DE9M97H5SJLRIS5IDVFHS7SR","model","mismatch","uniform","","","","","","","1423","215711.80000001192","217134.80000001192","[""stimuli/AM03_FO.jpg"",""stimuli/AM06_AO.jpg"",""stimuli/HF02_SC.jpg"",""stimuli/BM03_HO.jpg""]","stimuli/AM03_FO.jpg","stimuli/AM06_AO.jpg","stimuli/HF02_SC.jpg","stimuli/BM03_HO.jpg","pos4","stimuli/BM03_HO.jpg","HO","BM03","3","4.5","9","8","stimuli/stars_9.png","136","[""FO"",""AO"",""SC"",""HO""]","[""AM03"",""AM06"",""HF02"",""BM03""]","[3,5,6,9]","[2,6,4,8]","","",""
"show-reward","92","215998","0.0-92.0","p980243","A34YDGVZKRJ0LZ","3RZS0FBRWLGDTA9TUPH81F59AWHPC0","354P56DE9M97H5SJLRIS5IDVFHS7SR","model","mismatch","uniform","","","","","","","","217637.40000003576","219644.60000002384","","","","","","","","","","","","9","","stimuli/stars_9.png","136","","","","","stimuli/BM03_HO.jpg","",""
"explore-choice","93","218448","0.0-93.0","p980243","A34YDGVZKRJ0LZ","3RZS0FBRWLGDTA9TUPH81F59AWHPC0","354P56DE9M97H5SJLRIS5IDVFHS7SR","model","mismatch","uniform","","","","","","","1948.6000000238419","219645.60000002384","221594.20000004768","[""stimuli/AM03_FO.jpg"",""stimuli/BM03_AO.jpg"",""stimuli/HF02_HO.jpg"",""stimuli/AM06_SC.jpg""]","stimuli/AM03_FO.jpg","stimuli/BM03_AO.jpg","stimuli/HF02_HO.jpg","stimuli/AM06_SC.jpg","pos2","stimuli/BM03_AO.jpg","AO","BM03","1","3","6","8","stimuli/stars_6.png","139","[""FO"",""AO"",""HO"",""SC""]","[""AM03"",""BM03"",""HF02"",""AM06""]","[3,6,5,5]","[2,8,4,6]","","",""
"show-reward","94","220456","0.0-94.0","p980243","A34YDGVZKRJ0LZ","3RZS0FBRWLGDTA9TUPH81F59AWHPC0","354P56DE9M97H5SJLRIS5IDVFHS7SR","model","mismatch","uniform","","","","","","","","222095.40000003576","224102.40000003576","","","","","","","","","","","","6","","stimuli/stars_6.png","139","","","","","stimuli/BM03_AO.jpg","",""
"explore-choice","95","222164","0.0-95.0","p980243","A34YDGVZKRJ0LZ","3RZS0FBRWLGDTA9TUPH81F59AWHPC0","354P56DE9M97H5SJLRIS5IDVFHS7SR","model","mismatch","uniform","","","","","","","1207.1000000238419","224103.30000001192","225310.40000003576","[""stimuli/AM06_SC.jpg"",""stimuli/BM03_HO.jpg"",""stimuli/AM03_AO.jpg"",""stimuli/HF02_FO.jpg""]","stimuli/AM06_SC.jpg","stimuli/BM03_HO.jpg","stimuli/AM03_AO.jpg","stimuli/HF02_FO.jpg","pos2","stimuli/BM03_HO.jpg","HO","BM03","1","4","8","8","stimuli/stars_8.png","143","[""SC"",""HO"",""AO"",""FO""]","[""AM06"",""BM03"",""AM03"",""HF02""]","[6,8,3,3]","[6,8,2,4]","","",""
"show-reward","96","224168","0.0-96.0","p980243","A34YDGVZKRJ0LZ","3RZS0FBRWLGDTA9TUPH81F59AWHPC0","354P56DE9M97H5SJLRIS5IDVFHS7SR","model","mismatch","uniform","","","","","","","","225811.90000003576","227814.80000001192","","","","","","","","","","","","8","","stimuli/stars_8.png","143","","","","","stimuli/BM03_HO.jpg","",""
"explore-choice","97","225924","0.0-97.0","p980243","A34YDGVZKRJ0LZ","3RZS0FBRWLGDTA9TUPH81F59AWHPC0","354P56DE9M97H5SJLRIS5IDVFHS7SR","model","mismatch","uniform","","","","","","","1253.300000011921","227815.80000001192","229069.10000002384","[""stimuli/BM03_FO.jpg"",""stimuli/AM06_HO.jpg"",""stimuli/AM03_SC.jpg"",""stimuli/HF02_AO.jpg""]","stimuli/BM03_FO.jpg","stimuli/AM06_HO.jpg","stimuli/AM03_SC.jpg","stimuli/HF02_AO.jpg","pos1","stimuli/BM03_FO.jpg","FO","BM03","0","4","8","8","stimuli/stars_8.png","147","[""FO"",""HO"",""SC"",""AO""]","[""BM03"",""AM06"",""AM03"",""HF02""]","[8,4,0,3]","[8,6,2,4]","","",""
"show-reward","98","227932","0.0-98.0","p980243","A34YDGVZKRJ0LZ","3RZS0FBRWLGDTA9TUPH81F59AWHPC0","354P56DE9M97H5SJLRIS5IDVFHS7SR","model","mismatch","uniform","","","","","","","","229571","231578.30000001192","","","","","","","","","","","","8","","stimuli/stars_8.png","147","","","","","stimuli/BM03_FO.jpg","",""
"explore-choice","99","229371","0.0-99.0","p980243","A34YDGVZKRJ0LZ","3RZS0FBRWLGDTA9TUPH81F59AWHPC0","354P56DE9M97H5SJLRIS5IDVFHS7SR","model","mismatch","uniform","","","","","","","933.3999999761581","231579.40000003576","232512.80000001192","[""stimuli/AM03_SC.jpg"",""stimuli/BM03_AO.jpg"",""stimuli/HF02_FO.jpg"",""stimuli/AM06_HO.jpg""]","stimuli/AM03_SC.jpg","stimuli/BM03_AO.jpg","stimuli/HF02_FO.jpg","stimuli/AM06_HO.jpg","pos2","stimuli/BM03_AO.jpg","AO","BM03","1","3.5","7","8","stimuli/stars_7.png","150.5","[""SC"",""AO"",""FO"",""HO""]","[""AM03"",""BM03"",""HF02"",""AM06""]","[3,7,2,6]","[2,8,4,6]","","",""
"show-reward","100","231376","0.0-100.0","p980243","A34YDGVZKRJ0LZ","3RZS0FBRWLGDTA9TUPH81F59AWHPC0","354P56DE9M97H5SJLRIS5IDVFHS7SR","model","mismatch","uniform","","","","","","","","233017.90000003576","235022.30000001192","","","","","","","","","","","","7","","stimuli/stars_7.png","150.5","","","","","stimuli/BM03_AO.jpg","",""
"explore-choice","101","232956","0.0-101.0","p980243","A34YDGVZKRJ0LZ","3RZS0FBRWLGDTA9TUPH81F59AWHPC0","354P56DE9M97H5SJLRIS5IDVFHS7SR","model","mismatch","uniform","","","","","","","1078.0999999642372","235023.40000003576","236101.5","[""stimuli/AM03_AO.jpg"",""stimuli/BM03_FO.jpg"",""stimuli/AM06_HO.jpg"",""stimuli/HF02_SC.jpg""]","stimuli/AM03_AO.jpg","stimuli/BM03_FO.jpg","stimuli/AM06_HO.jpg","stimuli/HF02_SC.jpg","pos2","stimuli/BM03_FO.jpg","FO","BM03","1","3.5","7","8","stimuli/stars_7.png","154","[""AO"",""FO"",""HO"",""SC""]","[""AM03"",""BM03"",""AM06"",""HF02""]","[3,7,4,2]","[2,8,6,4]","","",""
"show-reward","102","234964","0.0-102.0","p980243","A34YDGVZKRJ0LZ","3RZS0FBRWLGDTA9TUPH81F59AWHPC0","354P56DE9M97H5SJLRIS5IDVFHS7SR","model","mismatch","uniform","","","","","","","","236603.40000003576","238609.90000003576","","","","","","","","","","","","7","","stimuli/stars_7.png","154","","","","","stimuli/BM03_FO.jpg","",""
"explore-choice","103","237082","0.0-103.0","p980243","A34YDGVZKRJ0LZ","3RZS0FBRWLGDTA9TUPH81F59AWHPC0","354P56DE9M97H5SJLRIS5IDVFHS7SR","model","mismatch","uniform","","","","","","","1615.300000011921","238610.90000003576","240226.20000004768","[""stimuli/AF02_HE.jpg"",""stimuli/HF09_SUR.jpg"",""stimuli/WF14_DO.jpg"",""stimuli/HF04_CC.jpg""]","stimuli/AF02_HE.jpg","stimuli/HF09_SUR.jpg","stimuli/WF14_DO.jpg","stimuli/HF04_CC.jpg","pos2","stimuli/HF09_SUR.jpg","SUR","HF09","1","2","4","2","stimuli/stars_4.png","156","[""HE"",""SUR"",""DO"",""CC""]","[""AF02"",""HF09"",""WF14"",""HF04""]","[3,4,7,7]","[4,2,8,6]","","",""
"show-reward","104","239091","0.0-104.0","p980243","A34YDGVZKRJ0LZ","3RZS0FBRWLGDTA9TUPH81F59AWHPC0","354P56DE9M97H5SJLRIS5IDVFHS7SR","model","mismatch","uniform","","","","","","","","240728.90000003576","242736.90000003576","","","","","","","","","","","","4","","stimuli/stars_4.png","156","","","","","stimuli/HF09_SUR.jpg","",""
"explore-choice","105","240818","0.0-105.0","p980243","A34YDGVZKRJ0LZ","3RZS0FBRWLGDTA9TUPH81F59AWHPC0","354P56DE9M97H5SJLRIS5IDVFHS7SR","model","mismatch","uniform","","","","","","","1224.699999988079","242737.90000003576","243962.60000002384","[""stimuli/AF02_CC.jpg"",""stimuli/WF14_DO.jpg"",""stimuli/HF04_SUR.jpg"",""stimuli/HF09_HE.jpg""]","stimuli/AF02_CC.jpg","stimuli/WF14_DO.jpg","stimuli/HF04_SUR.jpg","stimuli/HF09_HE.jpg","pos4","stimuli/HF09_HE.jpg","HE","HF09","3","1.5","3","4","stimuli/stars_3.png","157.5","[""CC"",""DO"",""SUR"",""HE""]","[""AF02"",""WF14"",""HF04"",""HF09""]","[5,10,0,3]","[6,8,2,4]","","",""
"show-reward","106","242823","0.0-106.0","p980243","A34YDGVZKRJ0LZ","3RZS0FBRWLGDTA9TUPH81F59AWHPC0","354P56DE9M97H5SJLRIS5IDVFHS7SR","model","mismatch","uniform","","","","","","","","244465.20000004768","246469.20000004768","","","","","","","","","","","","3","","stimuli/stars_3.png","157.5","","","","","stimuli/HF09_HE.jpg","",""
"explore-choice","107","245373","0.0-107.0","p980243","A34YDGVZKRJ0LZ","3RZS0FBRWLGDTA9TUPH81F59AWHPC0","354P56DE9M97H5SJLRIS5IDVFHS7SR","model","mismatch","uniform","","","","","","","2048.399999976158","246470.20000004768","248518.60000002384","[""stimuli/HF04_DO.jpg"",""stimuli/AF02_SUR.jpg"",""stimuli/WF14_HE.jpg"",""stimuli/HF09_CC.jpg""]","stimuli/HF04_DO.jpg","stimuli/AF02_SUR.jpg","stimuli/WF14_HE.jpg","stimuli/HF09_CC.jpg","pos3","stimuli/WF14_HE.jpg","HE","WF14","2","2.5","5","4","stimuli/stars_5.png","160","[""DO"",""SUR"",""HE"",""CC""]","[""HF04"",""AF02"",""WF14"",""HF09""]","[7,4,5,8]","[8,2,4,6]","","",""
"show-reward","108","247381","0.0-108.0","p980243","A34YDGVZKRJ0LZ","3RZS0FBRWLGDTA9TUPH81F59AWHPC0","354P56DE9M97H5SJLRIS5IDVFHS7SR","model","mismatch","uniform","","","","","","","","249020.5","251026.90000003576","","","","","","","","","","","","5","","stimuli/stars_5.png","160","","","","","stimuli/WF14_HE.jpg","",""
"explore-choice","109","249330","0.0-109.0","p980243","A34YDGVZKRJ0LZ","3RZS0FBRWLGDTA9TUPH81F59AWHPC0","354P56DE9M97H5SJLRIS5IDVFHS7SR","model","mismatch","uniform","","","","","","","1445.699999988079","251027.90000003576","252473.60000002384","[""stimuli/HF09_SUR.jpg"",""stimuli/WF14_HE.jpg"",""stimuli/HF04_CC.jpg"",""stimuli/AF02_DO.jpg""]","stimuli/HF09_SUR.jpg","stimuli/WF14_HE.jpg","stimuli/HF04_CC.jpg","stimuli/AF02_DO.jpg","pos2","stimuli/WF14_HE.jpg","HE","WF14","1","2","4","4","stimuli/stars_4.png","162","[""SUR"",""HE"",""CC"",""DO""]","[""HF09"",""WF14"",""HF04"",""AF02""]","[4,4,8,7]","[2,4,6,8]","","",""
"show-reward","110","251341","0.0-110.0","p980243","A34YDGVZKRJ0LZ","3RZS0FBRWLGDTA9TUPH81F59AWHPC0","354P56DE9M97H5SJLRIS5IDVFHS7SR","model","mismatch","uniform","","","","","","","","252978.40000003576","254986.20000004768","","","","","","","","","","","","4","","stimuli/stars_4.png","162","","","","","stimuli/WF14_HE.jpg","",""
"explore-choice","111","254327","0.0-111.0","p980243","A34YDGVZKRJ0LZ","3RZS0FBRWLGDTA9TUPH81F59AWHPC0","354P56DE9M97H5SJLRIS5IDVFHS7SR","model","mismatch","uniform","","","","","","","2485.199999988079","254987.30000001192","257472.5","[""stimuli/HF04_CC.jpg"",""stimuli/WF14_SUR.jpg"",""stimuli/AF02_HE.jpg"",""stimuli/HF09_DO.jpg""]","stimuli/HF04_CC.jpg","stimuli/WF14_SUR.jpg","stimuli/AF02_HE.jpg","stimuli/HF09_DO.jpg","pos1","stimuli/HF04_CC.jpg","CC","HF04","0","2.5","5","6","stimuli/stars_5.png","164.5","[""CC"",""SUR"",""HE"",""DO""]","[""HF04"",""WF14"",""AF02"",""HF09""]","[5,2,3,9]","[6,2,4,8]","","",""
"show-reward","112","256333","0.0-112.0","p980243","A34YDGVZKRJ0LZ","3RZS0FBRWLGDTA9TUPH81F59AWHPC0","354P56DE9M97H5SJLRIS5IDVFHS7SR","model","mismatch","uniform","","","","","","","","257973.90000003576","259978.20000004768","","","","","","","","","","","","5","","stimuli/stars_5.png","164.5","","","","","stimuli/HF04_CC.jpg","",""
"explore-choice","113","259403","0.0-113.0","p980243","A34YDGVZKRJ0LZ","3RZS0FBRWLGDTA9TUPH81F59AWHPC0","354P56DE9M97H5SJLRIS5IDVFHS7SR","model","mismatch","uniform","","","","","","","2564.199999988079","259979.30000001192","262543.5","[""stimuli/HF09_DO.jpg"",""stimuli/AF02_SUR.jpg"",""stimuli/HF04_CC.jpg"",""stimuli/WF14_HE.jpg""]","stimuli/HF09_DO.jpg","stimuli/AF02_SUR.jpg","stimuli/HF04_CC.jpg","stimuli/WF14_HE.jpg","pos2","stimuli/AF02_SUR.jpg","SUR","AF02","1","0","0","2","stimuli/stars_0.png","164.5","[""DO"",""SUR"",""CC"",""HE""]","[""HF09"",""AF02"",""HF04"",""WF14""]","[6,0,7,4]","[8,2,6,4]","","",""
"show-reward","114","261413","0.0-114.0","p980243","A34YDGVZKRJ0LZ","3RZS0FBRWLGDTA9TUPH81F59AWHPC0","354P56DE9M97H5SJLRIS5IDVFHS7SR","model","mismatch","uniform","","","","","","","","263049.5","265058.60000002384","","","","","","","","","","","","0","","stimuli/stars_0.png","164.5","","","","","stimuli/AF02_SUR.jpg","",""
"explore-choice","115","265235","0.0-115.0","p980243","A34YDGVZKRJ0LZ","3RZS0FBRWLGDTA9TUPH81F59AWHPC0","354P56DE9M97H5SJLRIS5IDVFHS7SR","model","mismatch","uniform","","","","","","","3319.699999988079","265059.7000000477","268379.40000003576","[""stimuli/HF04_DO.jpg"",""stimuli/WF14_CC.jpg"",""stimuli/HF09_SUR.jpg"",""stimuli/AF02_HE.jpg""]","stimuli/HF04_DO.jpg","stimuli/WF14_CC.jpg","stimuli/HF09_SUR.jpg","stimuli/AF02_HE.jpg","pos1","stimuli/HF04_DO.jpg","DO","HF04","0","3.5","7","8","stimuli/stars_7.png","168","[""DO"",""CC"",""SUR"",""HE""]","[""HF04"",""WF14"",""HF09"",""AF02""]","[7,8,3,3]","[8,6,2,4]","","",""
"show-reward","116","267246","0.0-116.0","p980243","A34YDGVZKRJ0LZ","3RZS0FBRWLGDTA9TUPH81F59AWHPC0","354P56DE9M97H5SJLRIS5IDVFHS7SR","model","mismatch","uniform","","","","","","","","268883.5","270891.40000003576","","","","","","","","","","","","7","","stimuli/stars_7.png","168","","","","","stimuli/HF04_DO.jpg","",""
"explore-choice","117","269481","0.0-117.0","p980243","A34YDGVZKRJ0LZ","3RZS0FBRWLGDTA9TUPH81F59AWHPC0","354P56DE9M97H5SJLRIS5IDVFHS7SR","model","mismatch","uniform","","","","","","","1733.5","270892.60000002384","272626.10000002384","[""stimuli/AF02_DO.jpg"",""stimuli/WF14_SUR.jpg"",""stimuli/HF09_CC.jpg"",""stimuli/HF04_HE.jpg""]","stimuli/AF02_DO.jpg","stimuli/WF14_SUR.jpg","stimuli/HF09_CC.jpg","stimuli/HF04_HE.jpg","pos4","stimuli/HF04_HE.jpg","HE","HF04","3","1.5","3","4","stimuli/stars_3.png","169.5","[""DO"",""SUR"",""CC"",""HE""]","[""AF02"",""WF14"",""HF09"",""HF04""]","[10,1,6,3]","[8,2,6,4]","","",""
"show-reward","118","271488","0.0-118.0","p980243","A34YDGVZKRJ0LZ","3RZS0FBRWLGDTA9TUPH81F59AWHPC0","354P56DE9M97H5SJLRIS5IDVFHS7SR","model","mismatch","uniform","","","","","","","","273127.90000003576","275132.8000000119","","","","","","","","","","","","3","","stimuli/stars_3.png","169.5","","","","","stimuli/HF04_HE.jpg","",""
"explore-choice","119","273713","0.0-119.0","p980243","A34YDGVZKRJ0LZ","3RZS0FBRWLGDTA9TUPH81F59AWHPC0","354P56DE9M97H5SJLRIS5IDVFHS7SR","model","mismatch","uniform","","","","","","","1720.5","275133.90000003576","276854.40000003576","[""stimuli/WF14_CC.jpg"",""stimuli/AF02_SUR.jpg"",""stimuli/HF04_DO.jpg"",""stimuli/HF09_HE.jpg""]","stimuli/WF14_CC.jpg","stimuli/AF02_SUR.jpg","stimuli/HF04_DO.jpg","stimuli/HF09_HE.jpg","pos3","stimuli/HF04_DO.jpg","DO","HF04","2","3.5","7","8","stimuli/stars_7.png","173","[""CC"",""SUR"",""DO"",""HE""]","[""WF14"",""AF02"",""HF04"",""HF09""]","[8,2,7,2]","[6,2,8,4]","","",""
"show-reward","120","275721","0.0-120.0","p980243","A34YDGVZKRJ0LZ","3RZS0FBRWLGDTA9TUPH81F59AWHPC0","354P56DE9M97H5SJLRIS5IDVFHS7SR","model","mismatch","uniform","","","","","","","","277358.8000000119","279366.3000000119","","","","","","","","","","","","7","","stimuli/stars_7.png","173","","","","","stimuli/HF04_DO.jpg","",""
"explore-choice","121","279458","0.0-121.0","p980243","A34YDGVZKRJ0LZ","3RZS0FBRWLGDTA9TUPH81F59AWHPC0","354P56DE9M97H5SJLRIS5IDVFHS7SR","model","mismatch","uniform","","","","","","","3231","279367.40000003576","282598.40000003576","[""stimuli/HF04_DO.jpg"",""stimuli/WF14_SUR.jpg"",""stimuli/AF02_CC.jpg"",""stimuli/HF09_HE.jpg""]","stimuli/HF04_DO.jpg","stimuli/WF14_SUR.jpg","stimuli/AF02_CC.jpg","stimuli/HF09_HE.jpg","pos3","stimuli/AF02_CC.jpg","CC","AF02","2","2.5","5","6","stimuli/stars_5.png","175.5","[""DO"",""SUR"",""CC"",""HE""]","[""HF04"",""WF14"",""AF02"",""HF09""]","[10,1,5,6]","[8,2,6,4]","","",""
"show-reward","122","281461","0.0-122.0","p980243","A34YDGVZKRJ0LZ","3RZS0FBRWLGDTA9TUPH81F59AWHPC0","354P56DE9M97H5SJLRIS5IDVFHS7SR","model","mismatch","uniform","","","","","","","","283103.7000000477","285106","","","","","","","","","","","","5","","stimuli/stars_5.png","175.5","","","","","stimuli/AF02_CC.jpg","",""
"explore-choice","123","283726","0.0-123.0","p980243","A34YDGVZKRJ0LZ","3RZS0FBRWLGDTA9TUPH81F59AWHPC0","354P56DE9M97H5SJLRIS5IDVFHS7SR","model","mismatch","uniform","","","","","","","1761.699999988079","285106.90000003576","286868.60000002384","[""stimuli/WF14_HE.jpg"",""stimuli/HF09_CC.jpg"",""stimuli/AF02_DO.jpg"",""stimuli/HF04_SUR.jpg""]","stimuli/WF14_HE.jpg","stimuli/HF09_CC.jpg","stimuli/AF02_DO.jpg","stimuli/HF04_SUR.jpg","pos4","stimuli/HF04_SUR.jpg","SUR","HF04","3","0","0","2","stimuli/stars_0.png","175.5","[""HE"",""CC"",""DO"",""SUR""]","[""WF14"",""HF09"",""AF02"",""HF04""]","[4,7,10,0]","[4,6,8,2]","","",""
"show-reward","124","285736","0.0-124.0","p980243","A34YDGVZKRJ0LZ","3RZS0FBRWLGDTA9TUPH81F59AWHPC0","354P56DE9M97H5SJLRIS5IDVFHS7SR","model","mismatch","uniform","","","","","","","","287371.8000000119","289380.90000003576","","","","","","","","","","","","0","","stimuli/stars_0.png","175.5","","","","","stimuli/HF04_SUR.jpg","",""
"explore-choice","125","287286","0.0-125.0","p980243","A34YDGVZKRJ0LZ","3RZS0FBRWLGDTA9TUPH81F59AWHPC0","354P56DE9M97H5SJLRIS5IDVFHS7SR","model","mismatch","uniform","","","","","","","1048.4000000357628","289381.8000000119","290430.2000000477","[""stimuli/HF04_HE.jpg"",""stimuli/HF09_DO.jpg"",""stimuli/WF14_SUR.jpg"",""stimuli/AF02_CC.jpg""]","stimuli/HF04_HE.jpg","stimuli/HF09_DO.jpg","stimuli/WF14_SUR.jpg","stimuli/AF02_CC.jpg","pos1","stimuli/HF04_HE.jpg","HE","HF04","0","2.5","5","4","stimuli/stars_5.png","178","[""HE"",""DO"",""SUR"",""CC""]","[""HF04"",""HF09"",""WF14"",""AF02""]","[5,7,4,7]","[4,8,2,6]","","",""
"show-reward","126","289290","0.0-126.0","p980243","A34YDGVZKRJ0LZ","3RZS0FBRWLGDTA9TUPH81F59AWHPC0","354P56DE9M97H5SJLRIS5IDVFHS7SR","model","mismatch","uniform","","","","","","","","290931.3000000119","292934.90000003576","","","","","","","","","","","","5","","stimuli/stars_5.png","178","","","","","stimuli/HF04_HE.jpg","",""
"explore-choice","127","291015","0.0-127.0","p980243","A34YDGVZKRJ0LZ","3RZS0FBRWLGDTA9TUPH81F59AWHPC0","354P56DE9M97H5SJLRIS5IDVFHS7SR","model","mismatch","uniform","","","","","","","1221.2000000476837","292936","294157.2000000477","[""stimuli/AF02_DO.jpg"",""stimuli/HF04_HE.jpg"",""stimuli/WF14_CC.jpg"",""stimuli/HF09_SUR.jpg""]","stimuli/AF02_DO.jpg","stimuli/HF04_HE.jpg","stimuli/WF14_CC.jpg","stimuli/HF09_SUR.jpg","pos2","stimuli/HF04_HE.jpg","HE","HF04","1","1","2","4","stimuli/stars_2.png","179","[""DO"",""HE"",""CC"",""SUR""]","[""AF02"",""HF04"",""WF14"",""HF09""]","[7,2,6,2]","[8,4,6,2]","","",""
"show-reward","128","293022","0.0-128.0","p980243","A34YDGVZKRJ0LZ","3RZS0FBRWLGDTA9TUPH81F59AWHPC0","354P56DE9M97H5SJLRIS5IDVFHS7SR","model","mismatch","uniform","","","","","","","","294660.7000000477","296666.8000000119","","","","","","","","","","","","2","","stimuli/stars_2.png","179","","","","","stimuli/HF04_HE.jpg","",""
"explore-choice","129","294562","0.0-129.0","p980243","A34YDGVZKRJ0LZ","3RZS0FBRWLGDTA9TUPH81F59AWHPC0","354P56DE9M97H5SJLRIS5IDVFHS7SR","model","mismatch","uniform","","","","","","","1035.5","296667.90000003576","297703.40000003576","[""stimuli/AF02_DO.jpg"",""stimuli/HF09_HE.jpg"",""stimuli/HF04_SUR.jpg"",""stimuli/WF14_CC.jpg""]","stimuli/AF02_DO.jpg","stimuli/HF09_HE.jpg","stimuli/HF04_SUR.jpg","stimuli/WF14_CC.jpg","pos1","stimuli/AF02_DO.jpg","DO","AF02","0","4","8","8","stimuli/stars_8.png","183","[""DO"",""HE"",""SUR"",""CC""]","[""AF02"",""HF09"",""HF04"",""WF14""]","[8,4,4,7]","[8,4,2,6]","","",""
"show-reward","130","296566","0.0-130.0","p980243","A34YDGVZKRJ0LZ","3RZS0FBRWLGDTA9TUPH81F59AWHPC0","354P56DE9M97H5SJLRIS5IDVFHS7SR","model","mismatch","uniform","","","","","","","","298207.2000000477","300210.7000000477","","","","","","","","","","","","8","","stimuli/stars_8.png","183","","","","","stimuli/AF02_DO.jpg","",""
"explore-choice","131","299354","0.0-131.0","p980243","A34YDGVZKRJ0LZ","3RZS0FBRWLGDTA9TUPH81F59AWHPC0","354P56DE9M97H5SJLRIS5IDVFHS7SR","model","mismatch","uniform","","","","","","","2285.300000011921","300211.60000002384","302496.90000003576","[""stimuli/WF14_HE.jpg"",""stimuli/HF09_DO.jpg"",""stimuli/HF04_SUR.jpg"",""stimuli/AF02_CC.jpg""]","stimuli/WF14_HE.jpg","stimuli/HF09_DO.jpg","stimuli/HF04_SUR.jpg","stimuli/AF02_CC.jpg","pos4","stimuli/AF02_CC.jpg","CC","AF02","3","3.5","7","6","stimuli/stars_7.png","186.5","[""HE"",""DO"",""SUR"",""CC""]","[""WF14"",""HF09"",""HF04"",""AF02""]","[4,9,2,7]","[4,8,2,6]","","",""
"show-reward","132","301359","0.0-132.0","p980243","A34YDGVZKRJ0LZ","3RZS0FBRWLGDTA9TUPH81F59AWHPC0","354P56DE9M97H5SJLRIS5IDVFHS7SR","model","mismatch","uniform","","","","","","","","302999.2000000477","305002.8000000119","","","","","","","","","","","","7","","stimuli/stars_7.png","186.5","","","","","stimuli/AF02_CC.jpg","",""
"explore-choice","133","303015","0.0-133.0","p980243","A34YDGVZKRJ0LZ","3RZS0FBRWLGDTA9TUPH81F59AWHPC0","354P56DE9M97H5SJLRIS5IDVFHS7SR","model","mismatch","uniform","","","","","","","1153.300000011921","305003.8000000119","306157.10000002384","[""stimuli/AF02_SUR.jpg"",""stimuli/WF14_DO.jpg"",""stimuli/HF09_HE.jpg"",""stimuli/HF04_CC.jpg""]","stimuli/AF02_SUR.jpg","stimuli/WF14_DO.jpg","stimuli/HF09_HE.jpg","stimuli/HF04_CC.jpg","pos1","stimuli/AF02_SUR.jpg","SUR","AF02","0","1.5","3","2","stimuli/stars_3.png","188","[""SUR"",""DO"",""HE"",""CC""]","[""AF02"",""WF14"",""HF09"",""HF04""]","[3,9,6,8]","[2,8,4,6]","","",""
"show-reward","134","305022","0.0-134.0","p980243","A34YDGVZKRJ0LZ","3RZS0FBRWLGDTA9TUPH81F59AWHPC0","354P56DE9M97H5SJLRIS5IDVFHS7SR","model","mismatch","uniform","","","","","","","","306660","308665.8000000119","","","","","","","","","","","","3","","stimuli/stars_3.png","188","","","","","stimuli/AF02_SUR.jpg","",""
"explore-choice","135","306673","0.0-135.0","p980243","A34YDGVZKRJ0LZ","3RZS0FBRWLGDTA9TUPH81F59AWHPC0","354P56DE9M97H5SJLRIS5IDVFHS7SR","model","mismatch","uniform","","","","","","","1148.800000011921","308666.8000000119","309815.60000002384","[""stimuli/WF14_DO.jpg"",""stimuli/HF04_SUR.jpg"",""stimuli/HF09_CC.jpg"",""stimuli/AF02_HE.jpg""]","stimuli/WF14_DO.jpg","stimuli/HF04_SUR.jpg","stimuli/HF09_CC.jpg","stimuli/AF02_HE.jpg","pos4","stimuli/AF02_HE.jpg","HE","AF02","3","2.5","5","4","stimuli/stars_5.png","190.5","[""DO"",""SUR"",""CC"",""HE""]","[""WF14"",""HF04"",""HF09"",""AF02""]","[7,1,8,5]","[8,2,6,4]","","",""
"show-reward","136","308681","0.0-136.0","p980243","A34YDGVZKRJ0LZ","3RZS0FBRWLGDTA9TUPH81F59AWHPC0","354P56DE9M97H5SJLRIS5IDVFHS7SR","model","mismatch","uniform","","","","","","","","310317.5","312324.60000002384","","","","","","","","","","","","5","","stimuli/stars_5.png","190.5","","","","","stimuli/AF02_HE.jpg","",""
"explore-choice","137","310267","0.0-137.0","p980243","A34YDGVZKRJ0LZ","3RZS0FBRWLGDTA9TUPH81F59AWHPC0","354P56DE9M97H5SJLRIS5IDVFHS7SR","model","mismatch","uniform","","","","","","","1083.699999988079","312325.60000002384","313409.3000000119","[""stimuli/HF04_CC.jpg"",""stimuli/AF02_DO.jpg"",""stimuli/HF09_HE.jpg"",""stimuli/WF14_SUR.jpg""]","stimuli/HF04_CC.jpg","stimuli/AF02_DO.jpg","stimuli/HF09_HE.jpg","stimuli/WF14_SUR.jpg","pos2","stimuli/AF02_DO.jpg","DO","AF02","1","3.5","7","8","stimuli/stars_7.png","194","[""CC"",""DO"",""HE"",""SUR""]","[""HF04"",""AF02"",""HF09"",""WF14""]","[7,7,4,2]","[6,8,4,2]","","",""
"show-reward","138","312276","0.0-138.0","p980243","A34YDGVZKRJ0LZ","3RZS0FBRWLGDTA9TUPH81F59AWHPC0","354P56DE9M97H5SJLRIS5IDVFHS7SR","model","mismatch","uniform","","","","","","","","313912.3000000119","315919.60000002384","","","","","","","","","","","","7","","stimuli/stars_7.png","194","","","","","stimuli/AF02_DO.jpg","",""
"explore-choice","139","314821","0.0-139.0","p980243","A34YDGVZKRJ0LZ","3RZS0FBRWLGDTA9TUPH81F59AWHPC0","354P56DE9M97H5SJLRIS5IDVFHS7SR","model","mismatch","uniform","","","","","","","2039.800000011921","315920.5","317960.3000000119","[""stimuli/HF09_SUR.jpg"",""stimuli/WF14_DO.jpg"",""stimuli/AF02_CC.jpg"",""stimuli/HF04_HE.jpg""]","stimuli/HF09_SUR.jpg","stimuli/WF14_DO.jpg","stimuli/AF02_CC.jpg","stimuli/HF04_HE.jpg","pos3","stimuli/AF02_CC.jpg","CC","AF02","2","3","6","6","stimuli/stars_6.png","197","[""SUR"",""DO"",""CC"",""HE""]","[""HF09"",""WF14"",""AF02"",""HF04""]","[1,9,6,5]","[2,8,6,4]","","",""
"show-reward","140","316826","0.0-140.0","p980243","A34YDGVZKRJ0LZ","3RZS0FBRWLGDTA9TUPH81F59AWHPC0","354P56DE9M97H5SJLRIS5IDVFHS7SR","model","mismatch","uniform","","","","","","","","318465.90000003576","320469.8000000119","","","","","","","","","","","","6","","stimuli/stars_6.png","197","","","","","stimuli/AF02_CC.jpg","",""
"explore-choice","141","318774","0.0-141.0","p980243","A34YDGVZKRJ0LZ","3RZS0FBRWLGDTA9TUPH81F59AWHPC0","354P56DE9M97H5SJLRIS5IDVFHS7SR","model","mismatch","uniform","","","","","","","1445.699999988079","320470.90000003576","321916.60000002384","[""stimuli/WF14_HE.jpg"",""stimuli/HF04_DO.jpg"",""stimuli/AF02_CC.jpg"",""stimuli/HF09_SUR.jpg""]","stimuli/WF14_HE.jpg","stimuli/HF04_DO.jpg","stimuli/AF02_CC.jpg","stimuli/HF09_SUR.jpg","pos4","stimuli/HF09_SUR.jpg","SUR","HF09","3","0","0","2","stimuli/stars_0.png","197","[""HE"",""DO"",""CC"",""SUR""]","[""WF14"",""HF04"",""AF02"",""HF09""]","[2,9,5,0]","[4,8,6,2]","","",""
"show-reward","142","320782","0.0-142.0","p980243","A34YDGVZKRJ0LZ","3RZS0FBRWLGDTA9TUPH81F59AWHPC0","354P56DE9M97H5SJLRIS5IDVFHS7SR","model","mismatch","uniform","","","","","","","","322418.5","324425.90000003576","","","","","","","","","","","","0","","stimuli/stars_0.png","197","","","","","stimuli/HF09_SUR.jpg","",""
"explore-choice","143","322477","0.0-143.0","p980243","A34YDGVZKRJ0LZ","3RZS0FBRWLGDTA9TUPH81F59AWHPC0","354P56DE9M97H5SJLRIS5IDVFHS7SR","model","mismatch","uniform","","","","","","","1187","324428.40000003576","325615.40000003576","[""stimuli/AF02_HE.jpg"",""stimuli/HF04_DO.jpg"",""stimuli/WF14_SUR.jpg"",""stimuli/HF09_CC.jpg""]","stimuli/AF02_HE.jpg","stimuli/HF04_DO.jpg","stimuli/WF14_SUR.jpg","stimuli/HF09_CC.jpg","pos1","stimuli/AF02_HE.jpg","HE","AF02","0","2.5","5","4","stimuli/stars_5.png","199.5","[""HE"",""DO"",""SUR"",""CC""]","[""AF02"",""HF04"",""WF14"",""HF09""]","[5,7,0,5]","[4,8,2,6]","","",""
"show-reward","144","324485","0.0-144.0","p980243","A34YDGVZKRJ0LZ","3RZS0FBRWLGDTA9TUPH81F59AWHPC0","354P56DE9M97H5SJLRIS5IDVFHS7SR","model","mismatch","uniform","","","","","","","","326121.3000000119","328128.5","","","","","","","","","","","","5","","stimuli/stars_5.png","199.5","","","","","stimuli/AF02_HE.jpg","",""
"explore-choice","145","325956","0.0-145.0","p980243","A34YDGVZKRJ0LZ","3RZS0FBRWLGDTA9TUPH81F59AWHPC0","354P56DE9M97H5SJLRIS5IDVFHS7SR","model","mismatch","uniform","","","","","","","969","328129.60000002384","329098.60000002384","[""stimuli/HF09_DO.jpg"",""stimuli/HF04_HE.jpg"",""stimuli/WF14_CC.jpg"",""stimuli/AF02_SUR.jpg""]","stimuli/HF09_DO.jpg","stimuli/HF04_HE.jpg","stimuli/WF14_CC.jpg","stimuli/AF02_SUR.jpg","pos2","stimuli/HF04_HE.jpg","HE","HF04","1","2","4","4","stimuli/stars_4.png","201.5","[""DO"",""HE"",""CC"",""SUR""]","[""HF09"",""HF04"",""WF14"",""AF02""]","[6,4,6,2]","[8,4,6,2]","","",""
"show-reward","146","327965","0.0-146.0","p980243","A34YDGVZKRJ0LZ","3RZS0FBRWLGDTA9TUPH81F59AWHPC0","354P56DE9M97H5SJLRIS5IDVFHS7SR","model","mismatch","uniform","","","","","","","","329600.5","331608.10000002384","","","","","","","","","","","","4","","stimuli/stars_4.png","201.5","","","","","stimuli/HF04_HE.jpg","",""
"explore-choice","147","329927","0.0-147.0","p980243","A34YDGVZKRJ0LZ","3RZS0FBRWLGDTA9TUPH81F59AWHPC0","354P56DE9M97H5SJLRIS5IDVFHS7SR","model","mismatch","uniform","","","","","","","1459.199999988079","331609.10000002384","333068.3000000119","[""stimuli/HF09_DO.jpg"",""stimuli/WF14_CC.jpg"",""stimuli/AF02_HE.jpg"",""stimuli/HF04_SUR.jpg""]","stimuli/HF09_DO.jpg","stimuli/WF14_CC.jpg","stimuli/AF02_HE.jpg","stimuli/HF04_SUR.jpg","pos3","stimuli/AF02_HE.jpg","HE","AF02","2","2.5","5","4","stimuli/stars_5.png","204","[""DO"",""CC"",""HE"",""SUR""]","[""HF09"",""WF14"",""AF02"",""HF04""]","[9,7,5,3]","[8,6,4,2]","","",""
"show-reward","148","331935","0.0-148.0","p980243","A34YDGVZKRJ0LZ","3RZS0FBRWLGDTA9TUPH81F59AWHPC0","354P56DE9M97H5SJLRIS5IDVFHS7SR","model","mismatch","uniform","","","","","","","","333571","335578.7000000477","","","","","","","","","","","","5","","stimuli/stars_5.png","204","","","","","stimuli/AF02_HE.jpg","",""
"explore-choice","149","333668","0.0-149.0","p980243","A34YDGVZKRJ0LZ","3RZS0FBRWLGDTA9TUPH81F59AWHPC0","354P56DE9M97H5SJLRIS5IDVFHS7SR","model","mismatch","uniform","","","","","","","1230.5","335579.7000000477","336810.2000000477","[""stimuli/WF14_DO.jpg"",""stimuli/AF02_SUR.jpg"",""stimuli/HF04_HE.jpg"",""stimuli/HF09_CC.jpg""]","stimuli/WF14_DO.jpg","stimuli/AF02_SUR.jpg","stimuli/HF04_HE.jpg","stimuli/HF09_CC.jpg","pos2","stimuli/AF02_SUR.jpg","SUR","AF02","1","2","4","2","stimuli/stars_4.png","206","[""DO"",""SUR"",""HE"",""CC""]","[""WF14"",""AF02"",""HF04"",""HF09""]","[8,4,3,5]","[8,2,4,6]","","",""
"show-reward","150","335675","0.0-150.0","p980243","A34YDGVZKRJ0LZ","3RZS0FBRWLGDTA9TUPH81F59AWHPC0","354P56DE9M97H5SJLRIS5IDVFHS7SR","model","mismatch","uniform","","","","","","","","337312.40000003576","339317.5","","","","","","","","","","","","4","","stimuli/stars_4.png","206","","","","","stimuli/AF02_SUR.jpg","",""
"explore-choice","151","337473","0.0-151.0","p980243","A34YDGVZKRJ0LZ","3RZS0FBRWLGDTA9TUPH81F59AWHPC0","354P56DE9M97H5SJLRIS5IDVFHS7SR","model","mismatch","uniform","","","","","","","1293.199999988079","339318.7000000477","340611.90000003576","[""stimuli/HF09_SUR.jpg"",""stimuli/AF02_CC.jpg"",""stimuli/WF14_DO.jpg"",""stimuli/HF04_HE.jpg""]","stimuli/HF09_SUR.jpg","stimuli/AF02_CC.jpg","stimuli/WF14_DO.jpg","stimuli/HF04_HE.jpg","pos2","stimuli/AF02_CC.jpg","CC","AF02","1","3","6","6","stimuli/stars_6.png","209","[""SUR"",""CC"",""DO"",""HE""]","[""HF09"",""AF02"",""WF14"",""HF04""]","[1,6,9,5]","[2,6,8,4]","","",""
"show-reward","152","339480","0.0-152.0","p980243","A34YDGVZKRJ0LZ","3RZS0FBRWLGDTA9TUPH81F59AWHPC0","354P56DE9M97H5SJLRIS5IDVFHS7SR","model","mismatch","uniform","","","","","","","","341117.40000003576","343123","","","","","","","","","","","","6","","stimuli/stars_6.png","209","","","","","stimuli/AF02_CC.jpg","",""
"explore-choice","153","341475","0.0-153.0","p980243","A34YDGVZKRJ0LZ","3RZS0FBRWLGDTA9TUPH81F59AWHPC0","354P56DE9M97H5SJLRIS5IDVFHS7SR","model","mismatch","uniform","","","","","","","1488.699999988079","343124.2000000477","344612.90000003576","[""stimuli/AF02_CC.jpg"",""stimuli/HF04_HE.jpg"",""stimuli/HF09_DO.jpg"",""stimuli/WF14_SUR.jpg""]","stimuli/AF02_CC.jpg","stimuli/HF04_HE.jpg","stimuli/HF09_DO.jpg","stimuli/WF14_SUR.jpg","pos1","stimuli/AF02_CC.jpg","CC","AF02","0","3.5","7","6","stimuli/stars_7.png","212.5","[""CC"",""HE"",""DO"",""SUR""]","[""AF02"",""HF04"",""HF09"",""WF14""]","[7,5,7,4]","[6,4,8,2]","","",""
"show-reward","154","343482","0.0-154.0","p980243","A34YDGVZKRJ0LZ","3RZS0FBRWLGDTA9TUPH81F59AWHPC0","354P56DE9M97H5SJLRIS5IDVFHS7SR","model","mismatch","uniform","","","","","","","","345118.8000000119","347124.7000000477","","","","","","","","","","","","7","","stimuli/stars_7.png","212.5","","","","","stimuli/AF02_CC.jpg","",""
"explore-choice","155","345027","0.0-155.0","p980243","A34YDGVZKRJ0LZ","3RZS0FBRWLGDTA9TUPH81F59AWHPC0","354P56DE9M97H5SJLRIS5IDVFHS7SR","model","mismatch","uniform","","","","","","","1043.7999999523163","347125.7000000477","348169.5","[""stimuli/AF02_SUR.jpg"",""stimuli/HF09_HE.jpg"",""stimuli/HF04_CC.jpg"",""stimuli/WF14_DO.jpg""]","stimuli/AF02_SUR.jpg","stimuli/HF09_HE.jpg","stimuli/HF04_CC.jpg","stimuli/WF14_DO.jpg","pos1","stimuli/AF02_SUR.jpg","SUR","AF02","0","1.5","3","2","stimuli/stars_3.png","214","[""SUR"",""HE"",""CC"",""DO""]","[""AF02"",""HF09"",""HF04"",""WF14""]","[3,6,8,9]","[2,4,6,8]","","",""
"show-reward","156","347036","0.0-156.0","p980243","A34YDGVZKRJ0LZ","3RZS0FBRWLGDTA9TUPH81F59AWHPC0","354P56DE9M97H5SJLRIS5IDVFHS7SR","model","mismatch","uniform","","","","","","","","348671.10000002384","350678.60000002384","","","","","","","","","","","","3","","stimuli/stars_3.png","214","","","","","stimuli/AF02_SUR.jpg","",""
"explore-choice","157","348832","0.0-157.0","p980243","A34YDGVZKRJ0LZ","3RZS0FBRWLGDTA9TUPH81F59AWHPC0","354P56DE9M97H5SJLRIS5IDVFHS7SR","model","mismatch","uniform","","","","","","","1290.5","350679.8000000119","351970.3000000119","[""stimuli/WF14_SUR.jpg"",""stimuli/AF02_HE.jpg"",""stimuli/HF04_DO.jpg"",""stimuli/HF09_CC.jpg""]","stimuli/WF14_SUR.jpg","stimuli/AF02_HE.jpg","stimuli/HF04_DO.jpg","stimuli/HF09_CC.jpg","pos1","stimuli/WF14_SUR.jpg","SUR","WF14","0","0","0","2","stimuli/stars_0.png","214","[""SUR"",""HE"",""DO"",""CC""]","[""WF14"",""AF02"",""HF04"",""HF09""]","[0,5,7,5]","[2,4,8,6]","","",""
"show-reward","158","350838","0.0-158.0","p980243","A34YDGVZKRJ0LZ","3RZS0FBRWLGDTA9TUPH81F59AWHPC0","354P56DE9M97H5SJLRIS5IDVFHS7SR","model","mismatch","uniform","","","","","","","","352476.3000000119","354480.40000003576","","","","","","","","","","","","0","","stimuli/stars_0.png","214","","","","","stimuli/WF14_SUR.jpg","",""
"explore-choice","159","353144","0.0-159.0","p980243","A34YDGVZKRJ0LZ","3RZS0FBRWLGDTA9TUPH81F59AWHPC0","354P56DE9M97H5SJLRIS5IDVFHS7SR","model","mismatch","uniform","","","","","","","1803.699999988079","354481.60000002384","356285.3000000119","[""stimuli/HF04_SUR.jpg"",""stimuli/HF09_CC.jpg"",""stimuli/AF02_HE.jpg"",""stimuli/WF14_DO.jpg""]","stimuli/HF04_SUR.jpg","stimuli/HF09_CC.jpg","stimuli/AF02_HE.jpg","stimuli/WF14_DO.jpg","pos3","stimuli/AF02_HE.jpg","HE","AF02","2","2.5","5","4","stimuli/stars_5.png","216.5","[""SUR"",""CC"",""HE"",""DO""]","[""HF04"",""HF09"",""AF02"",""WF14""]","[1,8,5,7]","[2,6,4,8]","","",""
"show-reward","160","355153","0.0-160.0","p980243","A34YDGVZKRJ0LZ","3RZS0FBRWLGDTA9TUPH81F59AWHPC0","354P56DE9M97H5SJLRIS5IDVFHS7SR","model","mismatch","uniform","","","","","","","","356787.7000000477","358795.2000000477","","","","","","","","","","","","5","","stimuli/stars_5.png","216.5","","","","","stimuli/AF02_HE.jpg","",""
"explore-choice","161","357009","0.0-161.0","p980243","A34YDGVZKRJ0LZ","3RZS0FBRWLGDTA9TUPH81F59AWHPC0","354P56DE9M97H5SJLRIS5IDVFHS7SR","model","mismatch","uniform","","","","","","","1355","358796.40000003576","360151.40000003576","[""stimuli/AF02_SUR.jpg"",""stimuli/HF04_HE.jpg"",""stimuli/HF09_DO.jpg"",""stimuli/WF14_CC.jpg""]","stimuli/AF02_SUR.jpg","stimuli/HF04_HE.jpg","stimuli/HF09_DO.jpg","stimuli/WF14_CC.jpg","pos1","stimuli/AF02_SUR.jpg","SUR","AF02","0","1","2","2","stimuli/stars_2.png","217.5","[""SUR"",""HE"",""DO"",""CC""]","[""AF02"",""HF04"",""HF09"",""WF14""]","[2,4,6,6]","[2,4,8,6]","","",""
"show-reward","162","359015","0.0-162.0","p980243","A34YDGVZKRJ0LZ","3RZS0FBRWLGDTA9TUPH81F59AWHPC0","354P56DE9M97H5SJLRIS5IDVFHS7SR","model","mismatch","uniform","","","","","","","","360653","362657.10000002384","","","","","","","","","","","","2","","stimuli/stars_2.png","217.5","","","","","stimuli/AF02_SUR.jpg","",""
"explore-choice","163","361459","0.0-163.0","p980243","A34YDGVZKRJ0LZ","3RZS0FBRWLGDTA9TUPH81F59AWHPC0","354P56DE9M97H5SJLRIS5IDVFHS7SR","model","mismatch","uniform","","","","","","","1943.3999999761581","362658.2000000477","364601.60000002384","[""stimuli/WF14_SUR.jpg"",""stimuli/HF09_CC.jpg"",""stimuli/HF04_HE.jpg"",""stimuli/AF02_DO.jpg""]","stimuli/WF14_SUR.jpg","stimuli/HF09_CC.jpg","stimuli/HF04_HE.jpg","stimuli/AF02_DO.jpg","pos4","stimuli/AF02_DO.jpg","DO","AF02","3","5","10","8","stimuli/stars_10.png","222.5","[""SUR"",""CC"",""HE"",""DO""]","[""WF14"",""HF09"",""HF04"",""AF02""]","[1,6,3,10]","[2,6,4,8]","","",""
"show-reward","164","363468","0.0-164.0","p980243","A34YDGVZKRJ0LZ","3RZS0FBRWLGDTA9TUPH81F59AWHPC0","354P56DE9M97H5SJLRIS5IDVFHS7SR","model","mismatch","uniform","","","","","","","","365102.90000003576","367110.40000003576","","","","","","","","","","","","10","","stimuli/stars_10.png","222.5","","","","","stimuli/AF02_DO.jpg","",""
"explore-choice","165","365411","0.0-165.0","p980243","A34YDGVZKRJ0LZ","3RZS0FBRWLGDTA9TUPH81F59AWHPC0","354P56DE9M97H5SJLRIS5IDVFHS7SR","model","mismatch","uniform","","","","","","","1437.300000011921","367111.40000003576","368548.7000000477","[""stimuli/WF14_SUR.jpg"",""stimuli/AF02_DO.jpg"",""stimuli/HF04_CC.jpg"",""stimuli/HF09_HE.jpg""]","stimuli/WF14_SUR.jpg","stimuli/AF02_DO.jpg","stimuli/HF04_CC.jpg","stimuli/HF09_HE.jpg","pos2","stimuli/AF02_DO.jpg","DO","AF02","1","3.5","7","8","stimuli/stars_7.png","226","[""SUR"",""DO"",""CC"",""HE""]","[""WF14"",""AF02"",""HF04"",""HF09""]","[2,7,7,4]","[2,8,6,4]","","",""
"show-reward","166","367419","0.0-166.0","p980243","A34YDGVZKRJ0LZ","3RZS0FBRWLGDTA9TUPH81F59AWHPC0","354P56DE9M97H5SJLRIS5IDVFHS7SR","model","mismatch","uniform","","","","","","","","369054.5","371061.60000002384","","","","","","","","","","","","7","","stimuli/stars_7.png","226","","","","","stimuli/AF02_DO.jpg","",""
"explore-choice","167","369165","0.0-167.0","p980243","A34YDGVZKRJ0LZ","3RZS0FBRWLGDTA9TUPH81F59AWHPC0","354P56DE9M97H5SJLRIS5IDVFHS7SR","model","mismatch","uniform","","","","","","","1239.3999999761581","371062.7000000477","372302.10000002384","[""stimuli/HF04_SUR.jpg"",""stimuli/WF14_DO.jpg"",""stimuli/HF09_HE.jpg"",""stimuli/AF02_CC.jpg""]","stimuli/HF04_SUR.jpg","stimuli/WF14_DO.jpg","stimuli/HF09_HE.jpg","stimuli/AF02_CC.jpg","pos4","stimuli/AF02_CC.jpg","CC","AF02","3","2.5","5","6","stimuli/stars_5.png","228.5","[""SUR"",""DO"",""HE"",""CC""]","[""HF04"",""WF14"",""HF09"",""AF02""]","[0,10,3,5]","[2,8,4,6]","","",""
"show-reward","168","371173","0.0-168.0","p980243","A34YDGVZKRJ0LZ","3RZS0FBRWLGDTA9TUPH81F59AWHPC0","354P56DE9M97H5SJLRIS5IDVFHS7SR","model","mismatch","uniform","","","","","","","","372807.90000003576","374815.2000000477","","","","","","","","","","","","5","","stimuli/stars_5.png","228.5","","","","","stimuli/AF02_CC.jpg","",""
"explore-choice","169","372793","0.0-169.0","p980243","A34YDGVZKRJ0LZ","3RZS0FBRWLGDTA9TUPH81F59AWHPC0","354P56DE9M97H5SJLRIS5IDVFHS7SR","model","mismatch","uniform","","","","","","","1114.3999999761581","374816.10000002384","375930.5","[""stimuli/AF02_SUR.jpg"",""stimuli/HF04_HE.jpg"",""stimuli/HF09_CC.jpg"",""stimuli/WF14_DO.jpg""]","stimuli/AF02_SUR.jpg","stimuli/HF04_HE.jpg","stimuli/HF09_CC.jpg","stimuli/WF14_DO.jpg","pos1","stimuli/AF02_SUR.jpg","SUR","AF02","0","2","4","2","stimuli/stars_4.png","230.5","[""SUR"",""HE"",""CC"",""DO""]","[""AF02"",""HF04"",""HF09"",""WF14""]","[4,3,5,8]","[2,4,6,8]","","",""
"show-reward","170","374802","0.0-170.0","p980243","A34YDGVZKRJ0LZ","3RZS0FBRWLGDTA9TUPH81F59AWHPC0","354P56DE9M97H5SJLRIS5IDVFHS7SR","model","mismatch","uniform","","","","","","","","376436.3000000119","378443.40000003576","","","","","","","","","","","","4","","stimuli/stars_4.png","230.5","","","","","stimuli/AF02_SUR.jpg","",""
"explore-choice","171","376884","0.0-171.0","p980243","A34YDGVZKRJ0LZ","3RZS0FBRWLGDTA9TUPH81F59AWHPC0","354P56DE9M97H5SJLRIS5IDVFHS7SR","model","mismatch","uniform","","","","","","","1577.0999999642372","378444.40000003576","380021.5","[""stimuli/AF02_DO.jpg"",""stimuli/HF09_SUR.jpg"",""stimuli/WF14_HE.jpg"",""stimuli/HF04_CC.jpg""]","stimuli/AF02_DO.jpg","stimuli/HF09_SUR.jpg","stimuli/WF14_HE.jpg","stimuli/HF04_CC.jpg","pos1","stimuli/AF02_DO.jpg","DO","AF02","0","3.5","7","8","stimuli/stars_7.png","234","[""DO"",""SUR"",""HE"",""CC""]","[""AF02"",""HF09"",""WF14"",""HF04""]","[7,4,4,8]","[8,2,4,6]","","",""
"show-reward","172","378893","0.0-172.0","p980243","A34YDGVZKRJ0LZ","3RZS0FBRWLGDTA9TUPH81F59AWHPC0","354P56DE9M97H5SJLRIS5IDVFHS7SR","model","mismatch","uniform","","","","","","","","380527.3000000119","382534.40000003576","","","","","","","","","","","","7","","stimuli/stars_7.png","234","","","","","stimuli/AF02_DO.jpg","",""
"explore-choice","173","380914","0.0-173.0","p980243","A34YDGVZKRJ0LZ","3RZS0FBRWLGDTA9TUPH81F59AWHPC0","354P56DE9M97H5SJLRIS5IDVFHS7SR","model","mismatch","uniform","","","","","","","1518.6000000238419","382535.5","384054.10000002384","[""stimuli/WF14_HE.jpg"",""stimuli/AF02_CC.jpg"",""stimuli/HF09_DO.jpg"",""stimuli/HF04_SUR.jpg""]","stimuli/WF14_HE.jpg","stimuli/AF02_CC.jpg","stimuli/HF09_DO.jpg","stimuli/HF04_SUR.jpg","pos2","stimuli/AF02_CC.jpg","CC","AF02","1","3.5","7","6","stimuli/stars_7.png","237.5","[""HE"",""CC"",""DO"",""SUR""]","[""WF14"",""AF02"",""HF09"",""HF04""]","[4,7,9,2]","[4,6,8,2]","","",""
"show-reward","174","382918","0.0-174.0","p980243","A34YDGVZKRJ0LZ","3RZS0FBRWLGDTA9TUPH81F59AWHPC0","354P56DE9M97H5SJLRIS5IDVFHS7SR","model","mismatch","uniform","","","","","","","","384556.5","386559.3000000119","","","","","","","","","","","","7","","stimuli/stars_7.png","237.5","","","","","stimuli/AF02_CC.jpg","",""
"explore-choice","175","384441","0.0-175.0","p980243","A34YDGVZKRJ0LZ","3RZS0FBRWLGDTA9TUPH81F59AWHPC0","354P56DE9M97H5SJLRIS5IDVFHS7SR","model","mismatch","uniform","","","","","","","1017.8000000119209","386560.40000003576","387578.2000000477","[""stimuli/AF02_DO.jpg"",""stimuli/HF04_HE.jpg"",""stimuli/HF09_SUR.jpg"",""stimuli/WF14_CC.jpg""]","stimuli/AF02_DO.jpg","stimuli/HF04_HE.jpg","stimuli/HF09_SUR.jpg","stimuli/WF14_CC.jpg","pos1","stimuli/AF02_DO.jpg","DO","AF02","0","3.5","7","8","stimuli/stars_7.png","241","[""DO"",""HE"",""SUR"",""CC""]","[""AF02"",""HF04"",""HF09"",""WF14""]","[7,2,2,6]","[8,4,2,6]","","",""
"show-reward","176","386450","0.0-176.0","p980243","A34YDGVZKRJ0LZ","3RZS0FBRWLGDTA9TUPH81F59AWHPC0","354P56DE9M97H5SJLRIS5IDVFHS7SR","model","mismatch","uniform","","","","","","","","388084.10000002384","390091.3000000119","","","","","","","","","","","","7","","stimuli/stars_7.png","241","","","","","stimuli/AF02_DO.jpg","",""
"explore-choice","177","388313","0.0-177.0","p980243","A34YDGVZKRJ0LZ","3RZS0FBRWLGDTA9TUPH81F59AWHPC0","354P56DE9M97H5SJLRIS5IDVFHS7SR","model","mismatch","uniform","","","","","","","1358.8999999761581","390092.2000000477","391451.10000002384","[""stimuli/WF14_SUR.jpg"",""stimuli/HF09_DO.jpg"",""stimuli/AF02_HE.jpg"",""stimuli/HF04_CC.jpg""]","stimuli/WF14_SUR.jpg","stimuli/HF09_DO.jpg","stimuli/AF02_HE.jpg","stimuli/HF04_CC.jpg","pos3","stimuli/AF02_HE.jpg","HE","AF02","2","1.5","3","4","stimuli/stars_3.png","242.5","[""SUR"",""DO"",""HE"",""CC""]","[""WF14"",""HF09"",""AF02"",""HF04""]","[2,9,3,5]","[2,8,4,6]","","",""
"show-reward","178","390319","0.0-178.0","p980243","A34YDGVZKRJ0LZ","3RZS0FBRWLGDTA9TUPH81F59AWHPC0","354P56DE9M97H5SJLRIS5IDVFHS7SR","model","mismatch","uniform","","","","","","","","391956.10000002384","393958.7000000477","","","","","","","","","","","","3","","stimuli/stars_3.png","242.5","","","","","stimuli/AF02_HE.jpg","",""
"explore-choice","179","392320","0.0-179.0","p980243","A34YDGVZKRJ0LZ","3RZS0FBRWLGDTA9TUPH81F59AWHPC0","354P56DE9M97H5SJLRIS5IDVFHS7SR","model","mismatch","uniform","","","","","","","1472.1000000238419","393985.60000002384","395457.7000000477","[""stimuli/WF14_CC.jpg"",""stimuli/HF04_DO.jpg"",""stimuli/AF02_SUR.jpg"",""stimuli/HF09_HE.jpg""]","stimuli/WF14_CC.jpg","stimuli/HF04_DO.jpg","stimuli/AF02_SUR.jpg","stimuli/HF09_HE.jpg","pos3","stimuli/AF02_SUR.jpg","SUR","AF02","2","1","2","2","stimuli/stars_2.png","243.5","[""CC"",""DO"",""SUR"",""HE""]","[""WF14"",""HF04"",""AF02"",""HF09""]","[8,7,2,2]","[6,8,2,4]","","",""
"show-reward","180","394338","0.0-180.0","p980243","A34YDGVZKRJ0LZ","3RZS0FBRWLGDTA9TUPH81F59AWHPC0","354P56DE9M97H5SJLRIS5IDVFHS7SR","model","mismatch","uniform","","","","","","","","395970.2000000477","397979.10000002384","","","","","","","","","","","","2","","stimuli/stars_2.png","243.5","","","","","stimuli/AF02_SUR.jpg","",""
"explore-choice","181","396503","0.0-181.0","p980243","A34YDGVZKRJ0LZ","3RZS0FBRWLGDTA9TUPH81F59AWHPC0","354P56DE9M97H5SJLRIS5IDVFHS7SR","model","mismatch","uniform","","","","","","","1659.1000000238419","397980.3000000119","399639.40000003576","[""stimuli/WF14_HE.jpg"",""stimuli/HF09_SUR.jpg"",""stimuli/HF04_DO.jpg"",""stimuli/AF02_CC.jpg""]","stimuli/WF14_HE.jpg","stimuli/HF09_SUR.jpg","stimuli/HF04_DO.jpg","stimuli/AF02_CC.jpg","pos4","stimuli/AF02_CC.jpg","CC","AF02","3","2.5","5","6","stimuli/stars_5.png","246","[""HE"",""SUR"",""DO"",""CC""]","[""WF14"",""HF09"",""HF04"",""AF02""]","[2,0,9,5]","[4,2,8,6]","","",""
"show-reward","182","398512","0.0-182.0","p980243","A34YDGVZKRJ0LZ","3RZS0FBRWLGDTA9TUPH81F59AWHPC0","354P56DE9M97H5SJLRIS5IDVFHS7SR","model","mismatch","uniform","","","","","","","","400145.40000003576","402153","","","","","","","","","","","","5","","stimuli/stars_5.png","246","","","","","stimuli/AF02_CC.jpg","",""
"explore-choice","183","402079","0.0-183.0","p980243","A34YDGVZKRJ0LZ","3RZS0FBRWLGDTA9TUPH81F59AWHPC0","354P56DE9M97H5SJLRIS5IDVFHS7SR","model","mismatch","uniform","","","","","","","3060.899999976158","402154.2000000477","405215.10000002384","[""stimuli/HF04_DO.jpg"",""stimuli/HF09_CC.jpg"",""stimuli/AF02_SUR.jpg"",""stimuli/WF14_HE.jpg""]","stimuli/HF04_DO.jpg","stimuli/HF09_CC.jpg","stimuli/AF02_SUR.jpg","stimuli/WF14_HE.jpg","pos1","stimuli/HF04_DO.jpg","DO","HF04","0","3.5","7","8","stimuli/stars_7.png","249.5","[""DO"",""CC"",""SUR"",""HE""]","[""HF04"",""HF09"",""AF02"",""WF14""]","[7,8,4,5]","[8,6,2,4]","","",""
"show-reward","184","404087","0.0-184.0","p980243","A34YDGVZKRJ0LZ","3RZS0FBRWLGDTA9TUPH81F59AWHPC0","354P56DE9M97H5SJLRIS5IDVFHS7SR","model","mismatch","uniform","","","","","","","","405721.3000000119","407728.40000003576","","","","","","","","","","","","7","","stimuli/stars_7.png","249.5","","","","","stimuli/HF04_DO.jpg","",""
"explore-choice","185","406261","0.0-185.0","p980243","A34YDGVZKRJ0LZ","3RZS0FBRWLGDTA9TUPH81F59AWHPC0","354P56DE9M97H5SJLRIS5IDVFHS7SR","model","mismatch","uniform","","","","","","","1671.7000000476837","407729.5","409401.2000000477","[""stimuli/WF14_HE.jpg"",""stimuli/AF02_SUR.jpg"",""stimuli/HF09_DO.jpg"",""stimuli/HF04_CC.jpg""]","stimuli/WF14_HE.jpg","stimuli/AF02_SUR.jpg","stimuli/HF09_DO.jpg","stimuli/HF04_CC.jpg","pos2","stimuli/AF02_SUR.jpg","SUR","AF02","1","0","0","2","stimuli/stars_0.png","249.5","[""HE"",""SUR"",""DO"",""CC""]","[""WF14"",""AF02"",""HF09"",""HF04""]","[4,0,6,7]","[4,2,8,6]","","",""
"show-reward","186","408266","0.0-186.0","p980243","A34YDGVZKRJ0LZ","3RZS0FBRWLGDTA9TUPH81F59AWHPC0","354P56DE9M97H5SJLRIS5IDVFHS7SR","model","mismatch","uniform","","","","","","","","409903.40000003576","411906.5","","","","","","","","","","","","0","","stimuli/stars_0.png","249.5","","","","","stimuli/AF02_SUR.jpg","",""
"explore-choice","187","410123","0.0-187.0","p980243","A34YDGVZKRJ0LZ","3RZS0FBRWLGDTA9TUPH81F59AWHPC0","354P56DE9M97H5SJLRIS5IDVFHS7SR","model","mismatch","uniform","","","","","","","1351","411907.7000000477","413258.7000000477","[""stimuli/HF04_SUR.jpg"",""stimuli/WF14_CC.jpg"",""stimuli/AF02_DO.jpg"",""stimuli/HF09_HE.jpg""]","stimuli/HF04_SUR.jpg","stimuli/WF14_CC.jpg","stimuli/AF02_DO.jpg","stimuli/HF09_HE.jpg","pos3","stimuli/AF02_DO.jpg","DO","AF02","2","4","8","8","stimuli/stars_8.png","253.5","[""SUR"",""CC"",""DO"",""HE""]","[""HF04"",""WF14"",""AF02"",""HF09""]","[4,7,8,4]","[2,6,8,4]","","",""
"show-reward","188","412129","0.0-188.0","p980243","A34YDGVZKRJ0LZ","3RZS0FBRWLGDTA9TUPH81F59AWHPC0","354P56DE9M97H5SJLRIS5IDVFHS7SR","model","mismatch","uniform","","","","","","","","413764.5","415769.8000000119","","","","","","","","","","","","8","","stimuli/stars_8.png","253.5","","","","","stimuli/AF02_DO.jpg","",""
"explore-choice","189","414176","0.0-189.0","p980243","A34YDGVZKRJ0LZ","3RZS0FBRWLGDTA9TUPH81F59AWHPC0","354P56DE9M97H5SJLRIS5IDVFHS7SR","model","mismatch","uniform","","","","","","","1545.0999999642372","415770.90000003576","417316","[""stimuli/WF14_CC.jpg"",""stimuli/AF02_HE.jpg"",""stimuli/HF09_SUR.jpg"",""stimuli/HF04_DO.jpg""]","stimuli/WF14_CC.jpg","stimuli/AF02_HE.jpg","stimuli/HF09_SUR.jpg","stimuli/HF04_DO.jpg","pos2","stimuli/AF02_HE.jpg","HE","AF02","1","1.5","3","4","stimuli/stars_3.png","255","[""CC"",""HE"",""SUR"",""DO""]","[""WF14"",""AF02"",""HF09"",""HF04""]","[8,3,3,7]","[6,4,2,8]","","",""
"show-reward","190","416184","0.0-190.0","p980243","A34YDGVZKRJ0LZ","3RZS0FBRWLGDTA9TUPH81F59AWHPC0","354P56DE9M97H5SJLRIS5IDVFHS7SR","model","mismatch","uniform","","","","","","","","417817.60000002384","419824.40000003576","","","","","","","","","","","","3","","stimuli/stars_3.png","255","","","","","stimuli/AF02_HE.jpg","",""
"explore-choice","191","418266","0.0-191.0","p980243","A34YDGVZKRJ0LZ","3RZS0FBRWLGDTA9TUPH81F59AWHPC0","354P56DE9M97H5SJLRIS5IDVFHS7SR","model","mismatch","uniform","","","","","","","1580.5","419825.5","421406","[""stimuli/AF02_HE.jpg"",""stimuli/HF04_SUR.jpg"",""stimuli/WF14_CC.jpg"",""stimuli/HF09_DO.jpg""]","stimuli/AF02_HE.jpg","stimuli/HF04_SUR.jpg","stimuli/WF14_CC.jpg","stimuli/HF09_DO.jpg","pos1","stimuli/AF02_HE.jpg","HE","AF02","0","2.5","5","4","stimuli/stars_5.png","257.5","[""HE"",""SUR"",""CC"",""DO""]","[""AF02"",""HF04"",""WF14"",""HF09""]","[5,3,7,9]","[4,2,6,8]","","",""
"show-reward","192","420274","0.0-192.0","p980243","A34YDGVZKRJ0LZ","3RZS0FBRWLGDTA9TUPH81F59AWHPC0","354P56DE9M97H5SJLRIS5IDVFHS7SR","model","mismatch","uniform","","","","","","","","421907.7000000477","423914.8000000119","","","","","","","","","","","","5","","stimuli/stars_5.png","257.5","","","","","stimuli/AF02_HE.jpg","",""
"explore-choice","193","422452","0.0-193.0","p980243","A34YDGVZKRJ0LZ","3RZS0FBRWLGDTA9TUPH81F59AWHPC0","354P56DE9M97H5SJLRIS5IDVFHS7SR","model","mismatch","uniform","","","","","","","1675.5","423915.90000003576","425591.40000003576","[""stimuli/AF02_HE.jpg"",""stimuli/HF04_CC.jpg"",""stimuli/WF14_DO.jpg"",""stimuli/HF09_SUR.jpg""]","stimuli/AF02_HE.jpg","stimuli/HF04_CC.jpg","stimuli/WF14_DO.jpg","stimuli/HF09_SUR.jpg","pos1","stimuli/AF02_HE.jpg","HE","AF02","0","1.5","3","4","stimuli/stars_3.png","259","[""HE"",""CC"",""DO"",""SUR""]","[""AF02"",""HF04"",""WF14"",""HF09""]","[3,7,7,4]","[4,6,8,2]","","",""
"show-reward","194","424460","0.0-194.0","p980243","A34YDGVZKRJ0LZ","3RZS0FBRWLGDTA9TUPH81F59AWHPC0","354P56DE9M97H5SJLRIS5IDVFHS7SR","model","mismatch","uniform","","","","","","","","426093.40000003576","428100.8000000119","","","","","","","","","","","","3","","stimuli/stars_3.png","259","","","","","stimuli/AF02_HE.jpg","",""
"explore-choice","195","426256","0.0-195.0","p980243","A34YDGVZKRJ0LZ","3RZS0FBRWLGDTA9TUPH81F59AWHPC0","354P56DE9M97H5SJLRIS5IDVFHS7SR","model","mismatch","uniform","","","","","","","1290.300000011921","428101.90000003576","429392.2000000477","[""stimuli/HF09_HE.jpg"",""stimuli/AF02_CC.jpg"",""stimuli/WF14_SUR.jpg"",""stimuli/HF04_DO.jpg""]","stimuli/HF09_HE.jpg","stimuli/AF02_CC.jpg","stimuli/WF14_SUR.jpg","stimuli/HF04_DO.jpg","pos2","stimuli/AF02_CC.jpg","CC","AF02","1","2.5","5","6","stimuli/stars_5.png","261.5","[""HE"",""CC"",""SUR"",""DO""]","[""HF09"",""AF02"",""WF14"",""HF04""]","[6,5,1,10]","[4,6,2,8]","","",""
"show-reward","196","428262","0.0-196.0","p980243","A34YDGVZKRJ0LZ","3RZS0FBRWLGDTA9TUPH81F59AWHPC0","354P56DE9M97H5SJLRIS5IDVFHS7SR","model","mismatch","uniform","","","","","","","","429897.40000003576","431902.10000002384","","","","","","","","","","","","5","","stimuli/stars_5.png","261.5","","","","","stimuli/AF02_CC.jpg","",""
"explore-choice","197","430408","0.0-197.0","p980243","A34YDGVZKRJ0LZ","3RZS0FBRWLGDTA9TUPH81F59AWHPC0","354P56DE9M97H5SJLRIS5IDVFHS7SR","model","mismatch","uniform","","","","","","","1642.6000000238419","431903.3000000119","433545.90000003576","[""stimuli/HF04_SUR.jpg"",""stimuli/WF14_HE.jpg"",""stimuli/AF02_DO.jpg"",""stimuli/HF09_CC.jpg""]","stimuli/HF04_SUR.jpg","stimuli/WF14_HE.jpg","stimuli/AF02_DO.jpg","stimuli/HF09_CC.jpg","pos3","stimuli/AF02_DO.jpg","DO","AF02","2","5","10","8","stimuli/stars_10.png","266.5","[""SUR"",""HE"",""DO"",""CC""]","[""HF04"",""WF14"",""AF02"",""HF09""]","[0,4,10,7]","[2,4,8,6]","","",""
"show-reward","198","432419","0.0-198.0","p980243","A34YDGVZKRJ0LZ","3RZS0FBRWLGDTA9TUPH81F59AWHPC0","354P56DE9M97H5SJLRIS5IDVFHS7SR","model","mismatch","uniform","","","","","","","","434051.40000003576","436058.8000000119","","","","","","","","","","","","10","","stimuli/stars_10.png","266.5","","","","","stimuli/AF02_DO.jpg","",""
"instructions","199","440555","0.0-199.0","p980243","A34YDGVZKRJ0LZ","3RZS0FBRWLGDTA9TUPH81F59AWHPC0","354P56DE9M97H5SJLRIS5IDVFHS7SR","model","mismatch","uniform","","","","","","[{""page_index"":0,""viewing_time"":8133.899999976158}]","8134.199999988079","","","","","","","","","","","","","","","","","","","","","","","",""
"survey-text","200","444540","0.0-200.0-0.0","p980243","A34YDGVZKRJ0LZ","3RZS0FBRWLGDTA9TUPH81F59AWHPC0","354P56DE9M97H5SJLRIS5IDVFHS7SR","model","mismatch","uniform","","","","","","","3961.199999988079","","","","","","","","","","","","","","","","","","","","","","","{""age"":""51""}",""
"survey-text","201","452900","0.0-200.0-1.0","p980243","A34YDGVZKRJ0LZ","3RZS0FBRWLGDTA9TUPH81F59AWHPC0","354P56DE9M97H5SJLRIS5IDVFHS7SR","model","mismatch","uniform","","","","","","","8357.099999964237","","","","","","","","","","","","","","","","","","","","","","","{""gender"":""female""}",""
"survey-text","202","462917","0.0-200.0-2.0","p980243","A34YDGVZKRJ0LZ","3RZS0FBRWLGDTA9TUPH81F59AWHPC0","354P56DE9M97H5SJLRIS5IDVFHS7SR","model","mismatch","uniform","","","","","","","10012.5","","","","","","","","","","","","","","","","","","","","","","","{""country"":""United States""}",""
"survey-text","203","470610","0.0-200.0-3.0","p980243","A34YDGVZKRJ0LZ","3RZS0FBRWLGDTA9TUPH81F59AWHPC0","354P56DE9M97H5SJLRIS5IDVFHS7SR","model","mismatch","uniform","","","","","","","7690.199999988079","","","","","","","","","","","","","","","","","","","","","","","{""language"":""English"",""other_languages"":""English""}",""
"survey-multi-select","204","476405","0.0-201.0","p980243","A34YDGVZKRJ0LZ","3RZS0FBRWLGDTA9TUPH81F59AWHPC0","354P56DE9M97H5SJLRIS5IDVFHS7SR","model","mismatch","uniform","","","","","","","5785.199999988079","","","","","","","","","","","","","","","","","","","","","","","{""race"":[""White""]}","[0]"
"survey-multi-choice","205","481935","0.0-202.0","p980243","A34YDGVZKRJ0LZ","3RZS0FBRWLGDTA9TUPH81F59AWHPC0","354P56DE9M97H5SJLRIS5IDVFHS7SR","model","mismatch","uniform","","","","","","","5523.699999988079","","","","","","","","","","","","","","","","","","","","","","","{""education"":""Other professional degree""}","[0]"
"survey-text","206","512154","0.0-203.0","p980243","A34YDGVZKRJ0LZ","3RZS0FBRWLGDTA9TUPH81F59AWHPC0","354P56DE9M97H5SJLRIS5IDVFHS7SR","model","mismatch","uniform","","","","","","","30158.5","","","","","","","","","","","","","","","","","","","","","","","{""patterns"":""No"",""strategy"":""I just tried to see which person would provide more stars. "",""comments"":""n/a""}",""
