"trial_type","trial_index","time_elapsed","internal_node_id","subject","workerId","hitId","assignmentId","structure_condition","match_condition","noise_type","success","timeout","failed_images","failed_audio","failed_video","view_history","rt","start_time","end_time","stimuli","image1","image2","image3","image4","choiceLocation","choiceImage","choiceEmotion","choiceModel","choice_index","reward_score","reward","reward_score_unadjusted","reward_image","score_after_trial","emotions","models","rewards","rewards_unadjusted","stimulus","response","question_order"
"pavlovia","0","28","0.0-0.0","p666877","AZXBVNZF65D8K","3087LXLJ6NMH85PJ46SJUKP4Z1V0FD","3VW04L3ZLVC9S1K9XESDYP7BWO4XXD","emotion","mismatch","uniform","","","","","","","","","","","","","","","","","","","","","","","","","","","","","","",""
"preload","1","3190","0.0-1.0","p666877","AZXBVNZF65D8K","3087LXLJ6NMH85PJ46SJUKP4Z1V0FD","3VW04L3ZLVC9S1K9XESDYP7BWO4XXD","emotion","mismatch","uniform","true","false","[]","[]","[]","","","","","","","","","","","","","","","","","","","","","","","","","",""
"fullscreen","2","5905","0.0-2.0","p666877","AZXBVNZF65D8K","3087LXLJ6NMH85PJ46SJUKP4Z1V0FD","3VW04L3ZLVC9S1K9XESDYP7BWO4XXD","emotion","mismatch","uniform","true","","","","","","","","","","","","","","","","","","","","","","","","","","","","","",""
"instructions","3","7994","0.0-3.0","p666877","AZXBVNZF65D8K","3087LXLJ6NMH85PJ46SJUKP4Z1V0FD","3VW04L3ZLVC9S1K9XESDYP7BWO4XXD","emotion","mismatch","uniform","","","","","","[{""page_index"":0,""viewing_time"":2086.7999999821186}]","2087.2999999821186","","","","","","","","","","","","","","","","","","","","","","","",""
"explore-choice","4","11681","0.0-4.0","p666877","AZXBVNZF65D8K","3087LXLJ6NMH85PJ46SJUKP4Z1V0FD","3VW04L3ZLVC9S1K9XESDYP7BWO4XXD","emotion","mismatch","uniform","","","","","","","3175","10475.09999999404","13650.09999999404","[""stimuli/sheep.jpg"",""stimuli/hammer.jpg"",""stimuli/basketball.jpg"",""stimuli/horse.jpg""]","stimuli/sheep.jpg","stimuli/hammer.jpg","stimuli/basketball.jpg","stimuli/horse.jpg","pos4","stimuli/horse.jpg","","","3","64","64","64","stimuli/stars_8.png","65","","","","","","",""
"explore-choice","5","14242","0.0-5.0","p666877","AZXBVNZF65D8K","3087LXLJ6NMH85PJ46SJUKP4Z1V0FD","3VW04L3ZLVC9S1K9XESDYP7BWO4XXD","emotion","mismatch","uniform","","","","","","","2024.4000000059605","14161.199999988079","16185.59999999404","[""stimuli/hammer.jpg"",""stimuli/basketball.jpg"",""stimuli/horse.jpg"",""stimuli/sheep.jpg""]","stimuli/hammer.jpg","stimuli/basketball.jpg","stimuli/horse.jpg","stimuli/sheep.jpg","pos1","stimuli/hammer.jpg","","","0","8","8","8","stimuli/stars_2.png","9","","","","","","",""
"instructions","6","24879","0.0-6.0","p666877","AZXBVNZF65D8K","3087LXLJ6NMH85PJ46SJUKP4Z1V0FD","3VW04L3ZLVC9S1K9XESDYP7BWO4XXD","emotion","mismatch","uniform","","","","","","[{""page_index"":0,""viewing_time"":10635.600000023842}]","10636","","","","","","","","","","","","","","","","","","","","","","","",""
"explore-choice","7","32429","0.0-7.0","p666877","AZXBVNZF65D8K","3087LXLJ6NMH85PJ46SJUKP4Z1V0FD","3VW04L3ZLVC9S1K9XESDYP7BWO4XXD","emotion","mismatch","uniform","","","","","","","6889.4000000059605","27361.19999998808","34250.59999999404","[""stimuli/BM16_CC.jpg"",""stimuli/BM07_FO.jpg"",""stimuli/WF04_SC.jpg"",""stimuli/BM03_SUR.jpg""]","stimuli/BM16_CC.jpg","stimuli/BM07_FO.jpg","stimuli/WF04_SC.jpg","stimuli/BM03_SUR.jpg","pos1","stimuli/BM16_CC.jpg","CC","BM16","0","4","8","8","stimuli/stars_8.png","5","[""CC"",""FO"",""SC"",""SUR""]","[""BM16"",""BM07"",""WF04"",""BM03""]","[8,4,6,2]","[8,4,6,2]","","",""
"show-reward","8","34516","0.0-8.0","p666877","AZXBVNZF65D8K","3087LXLJ6NMH85PJ46SJUKP4Z1V0FD","3VW04L3ZLVC9S1K9XESDYP7BWO4XXD","emotion","mismatch","uniform","","","","","","","","34911.40000000596","36995.69999998808","","","","","","","","","","","","8","","stimuli/stars_8.png","5","","","","","stimuli/BM16_CC.jpg","",""
"explore-choice","9","39151","0.0-9.0","p666877","AZXBVNZF65D8K","3087LXLJ6NMH85PJ46SJUKP4Z1V0FD","3VW04L3ZLVC9S1K9XESDYP7BWO4XXD","emotion","mismatch","uniform","","","","","","","4127.5999999940395","36997.19999998808","41124.79999998212","[""stimuli/BM03_CC.jpg"",""stimuli/BM07_FO.jpg"",""stimuli/WF04_SUR.jpg"",""stimuli/BM16_SC.jpg""]","stimuli/BM03_CC.jpg","stimuli/BM07_FO.jpg","stimuli/WF04_SUR.jpg","stimuli/BM16_SC.jpg","pos3","stimuli/WF04_SUR.jpg","SUR","WF04","2","0.5","1","2","stimuli/stars_1.png","5.5","[""CC"",""FO"",""SUR"",""SC""]","[""BM03"",""BM07"",""WF04"",""BM16""]","[10,5,1,4]","[8,4,2,6]","","",""
"show-reward","10","41165","0.0-10.0","p666877","AZXBVNZF65D8K","3087LXLJ6NMH85PJ46SJUKP4Z1V0FD","3VW04L3ZLVC9S1K9XESDYP7BWO4XXD","emotion","mismatch","uniform","","","","","","","","41631.69999998808","43644.79999998212","","","","","","","","","","","","1","","stimuli/stars_1.png","5.5","","","","","stimuli/WF04_SUR.jpg","",""
"explore-choice","11","45119","0.0-11.0","p666877","AZXBVNZF65D8K","3087LXLJ6NMH85PJ46SJUKP4Z1V0FD","3VW04L3ZLVC9S1K9XESDYP7BWO4XXD","emotion","mismatch","uniform","","","","","","","3441.300000011921","43645.79999998212","47087.09999999404","[""stimuli/BM07_SC.jpg"",""stimuli/WF04_CC.jpg"",""stimuli/BM16_SUR.jpg"",""stimuli/BM03_FO.jpg""]","stimuli/BM07_SC.jpg","stimuli/WF04_CC.jpg","stimuli/BM16_SUR.jpg","stimuli/BM03_FO.jpg","pos2","stimuli/WF04_CC.jpg","CC","WF04","1","4","8","8","stimuli/stars_8.png","9.5","[""SC"",""CC"",""SUR"",""FO""]","[""BM07"",""WF04"",""BM16"",""BM03""]","[5,8,3,5]","[6,8,2,4]","","",""
"show-reward","12","47191","0.0-12.0","p666877","AZXBVNZF65D8K","3087LXLJ6NMH85PJ46SJUKP4Z1V0FD","3VW04L3ZLVC9S1K9XESDYP7BWO4XXD","emotion","mismatch","uniform","","","","","","","","47599.79999998212","49670.69999998808","","","","","","","","","","","","8","","stimuli/stars_8.png","9.5","","","","","stimuli/WF04_CC.jpg","",""
"explore-choice","13","50154","0.0-13.0","p666877","AZXBVNZF65D8K","3087LXLJ6NMH85PJ46SJUKP4Z1V0FD","3VW04L3ZLVC9S1K9XESDYP7BWO4XXD","emotion","mismatch","uniform","","","","","","","2454.5999999940395","49672","52126.59999999404","[""stimuli/BM03_FO.jpg"",""stimuli/BM16_SUR.jpg"",""stimuli/BM07_CC.jpg"",""stimuli/WF04_SC.jpg""]","stimuli/BM03_FO.jpg","stimuli/BM16_SUR.jpg","stimuli/BM07_CC.jpg","stimuli/WF04_SC.jpg","pos3","stimuli/BM07_CC.jpg","CC","BM07","2","3","6","8","stimuli/stars_6.png","12.5","[""FO"",""SUR"",""CC"",""SC""]","[""BM03"",""BM16"",""BM07"",""WF04""]","[4,1,6,8]","[4,2,8,6]","","",""
"show-reward","14","52172","0.0-14.0","p666877","AZXBVNZF65D8K","3087LXLJ6NMH85PJ46SJUKP4Z1V0FD","3VW04L3ZLVC9S1K9XESDYP7BWO4XXD","emotion","mismatch","uniform","","","","","","","","52634.90000000596","54650.69999998808","","","","","","","","","","","","6","","stimuli/stars_6.png","12.5","","","","","stimuli/BM07_CC.jpg","",""
"explore-choice","15","56017","0.0-15.0","p666877","AZXBVNZF65D8K","3087LXLJ6NMH85PJ46SJUKP4Z1V0FD","3VW04L3ZLVC9S1K9XESDYP7BWO4XXD","emotion","mismatch","uniform","","","","","","","3341.5","54652.09999999404","57993.59999999404","[""stimuli/BM16_SUR.jpg"",""stimuli/BM07_CC.jpg"",""stimuli/BM03_SC.jpg"",""stimuli/WF04_FO.jpg""]","stimuli/BM16_SUR.jpg","stimuli/BM07_CC.jpg","stimuli/BM03_SC.jpg","stimuli/WF04_FO.jpg","pos2","stimuli/BM07_CC.jpg","CC","BM07","1","3.5","7","8","stimuli/stars_7.png","16","[""SUR"",""CC"",""SC"",""FO""]","[""BM16"",""BM07"",""BM03"",""WF04""]","[0,7,7,4]","[2,8,6,4]","","",""
"show-reward","16","58024","0.0-16.0","p666877","AZXBVNZF65D8K","3087LXLJ6NMH85PJ46SJUKP4Z1V0FD","3VW04L3ZLVC9S1K9XESDYP7BWO4XXD","emotion","mismatch","uniform","","","","","","","","58497.90000000596","60502.40000000596","","","","","","","","","","","","7","","stimuli/stars_7.png","16","","","","","stimuli/BM07_CC.jpg","",""
"explore-choice","17","60755","0.0-17.0","p666877","AZXBVNZF65D8K","3087LXLJ6NMH85PJ46SJUKP4Z1V0FD","3VW04L3ZLVC9S1K9XESDYP7BWO4XXD","emotion","mismatch","uniform","","","","","","","2202","60503.90000000596","62705.90000000596","[""stimuli/BM03_SUR.jpg"",""stimuli/WF04_FO.jpg"",""stimuli/BM16_SC.jpg"",""stimuli/BM07_CC.jpg""]","stimuli/BM03_SUR.jpg","stimuli/WF04_FO.jpg","stimuli/BM16_SC.jpg","stimuli/BM07_CC.jpg","pos4","stimuli/BM07_CC.jpg","CC","BM07","3","4","8","8","stimuli/stars_8.png","20","[""SUR"",""FO"",""SC"",""CC""]","[""BM03"",""WF04"",""BM16"",""BM07""]","[4,2,7,8]","[2,4,6,8]","","",""
"show-reward","18","62773","0.0-18.0","p666877","AZXBVNZF65D8K","3087LXLJ6NMH85PJ46SJUKP4Z1V0FD","3VW04L3ZLVC9S1K9XESDYP7BWO4XXD","emotion","mismatch","uniform","","","","","","","","63234.90000000596","65251.79999998212","","","","","","","","","","","","8","","stimuli/stars_8.png","20","","","","","stimuli/BM07_CC.jpg","",""
"explore-choice","19","65556","0.0-19.0","p666877","AZXBVNZF65D8K","3087LXLJ6NMH85PJ46SJUKP4Z1V0FD","3VW04L3ZLVC9S1K9XESDYP7BWO4XXD","emotion","mismatch","uniform","","","","","","","2270.100000023842","65253.29999998212","67523.40000000596","[""stimuli/BM07_SUR.jpg"",""stimuli/BM16_CC.jpg"",""stimuli/BM03_FO.jpg"",""stimuli/WF04_SC.jpg""]","stimuli/BM07_SUR.jpg","stimuli/BM16_CC.jpg","stimuli/BM03_FO.jpg","stimuli/WF04_SC.jpg","pos2","stimuli/BM16_CC.jpg","CC","BM16","1","3","6","8","stimuli/stars_6.png","23","[""SUR"",""CC"",""FO"",""SC""]","[""BM07"",""BM16"",""BM03"",""WF04""]","[4,6,4,6]","[2,8,4,6]","","",""
"show-reward","20","67562","0.0-20.0","p666877","AZXBVNZF65D8K","3087LXLJ6NMH85PJ46SJUKP4Z1V0FD","3VW04L3ZLVC9S1K9XESDYP7BWO4XXD","emotion","mismatch","uniform","","","","","","","","68036.79999998212","70040.79999998212","","","","","","","","","","","","6","","stimuli/stars_6.png","23","","","","","stimuli/BM16_CC.jpg","",""
"explore-choice","21","70017","0.0-21.0","p666877","AZXBVNZF65D8K","3087LXLJ6NMH85PJ46SJUKP4Z1V0FD","3VW04L3ZLVC9S1K9XESDYP7BWO4XXD","emotion","mismatch","uniform","","","","","","","1941.5999999940395","70042.40000000596","71984","[""stimuli/BM16_SUR.jpg"",""stimuli/BM03_CC.jpg"",""stimuli/BM07_FO.jpg"",""stimuli/WF04_SC.jpg""]","stimuli/BM16_SUR.jpg","stimuli/BM03_CC.jpg","stimuli/BM07_FO.jpg","stimuli/WF04_SC.jpg","pos2","stimuli/BM03_CC.jpg","CC","BM03","1","5","10","8","stimuli/stars_10.png","28","[""SUR"",""CC"",""FO"",""SC""]","[""BM16"",""BM03"",""BM07"",""WF04""]","[4,10,2,8]","[2,8,4,6]","","",""
"show-reward","22","72032","0.0-22.0","p666877","AZXBVNZF65D8K","3087LXLJ6NMH85PJ46SJUKP4Z1V0FD","3VW04L3ZLVC9S1K9XESDYP7BWO4XXD","emotion","mismatch","uniform","","","","","","","","72497","74510.5","","","","","","","","","","","","10","","stimuli/stars_10.png","28","","","","","stimuli/BM03_CC.jpg","",""
"explore-choice","23","74264","0.0-23.0","p666877","AZXBVNZF65D8K","3087LXLJ6NMH85PJ46SJUKP4Z1V0FD","3VW04L3ZLVC9S1K9XESDYP7BWO4XXD","emotion","mismatch","uniform","","","","","","","1725","74511.5","76236.5","[""stimuli/BM03_SC.jpg"",""stimuli/BM07_FO.jpg"",""stimuli/WF04_SUR.jpg"",""stimuli/BM16_CC.jpg""]","stimuli/BM03_SC.jpg","stimuli/BM07_FO.jpg","stimuli/WF04_SUR.jpg","stimuli/BM16_CC.jpg","pos4","stimuli/BM16_CC.jpg","CC","BM16","3","3","6","8","stimuli/stars_6.png","31","[""SC"",""FO"",""SUR"",""CC""]","[""BM03"",""BM07"",""WF04"",""BM16""]","[6,4,2,6]","[6,4,2,8]","","",""
"show-reward","24","76383","0.0-24.0","p666877","AZXBVNZF65D8K","3087LXLJ6NMH85PJ46SJUKP4Z1V0FD","3VW04L3ZLVC9S1K9XESDYP7BWO4XXD","emotion","mismatch","uniform","","","","","","","","76743.59999999404","78862.19999998808","","","","","","","","","","","","6","","stimuli/stars_6.png","31","","","","","stimuli/BM16_CC.jpg","",""
"explore-choice","25","79209","0.0-25.0","p666877","AZXBVNZF65D8K","3087LXLJ6NMH85PJ46SJUKP4Z1V0FD","3VW04L3ZLVC9S1K9XESDYP7BWO4XXD","emotion","mismatch","uniform","","","","","","","2308.9000000059605","78863.5","81172.40000000596","[""stimuli/WF04_SUR.jpg"",""stimuli/BM03_FO.jpg"",""stimuli/BM07_SC.jpg"",""stimuli/BM16_CC.jpg""]","stimuli/WF04_SUR.jpg","stimuli/BM03_FO.jpg","stimuli/BM07_SC.jpg","stimuli/BM16_CC.jpg","pos4","stimuli/BM16_CC.jpg","CC","BM16","3","4","8","8","stimuli/stars_8.png","35","[""SUR"",""FO"",""SC"",""CC""]","[""WF04"",""BM03"",""BM07"",""BM16""]","[4,3,8,8]","[2,4,6,8]","","",""
"show-reward","26","81211","0.0-26.0","p666877","AZXBVNZF65D8K","3087LXLJ6NMH85PJ46SJUKP4Z1V0FD","3VW04L3ZLVC9S1K9XESDYP7BWO4XXD","emotion","mismatch","uniform","","","","","","","","81689","83690.29999998212","","","","","","","","","","","","8","","stimuli/stars_8.png","35","","","","","stimuli/BM16_CC.jpg","",""
"explore-choice","27","83906","0.0-27.0","p666877","AZXBVNZF65D8K","3087LXLJ6NMH85PJ46SJUKP4Z1V0FD","3VW04L3ZLVC9S1K9XESDYP7BWO4XXD","emotion","mismatch","uniform","","","","","","","2185.399999976158","83691.40000000596","85876.79999998212","[""stimuli/BM07_SC.jpg"",""stimuli/BM16_SUR.jpg"",""stimuli/BM03_CC.jpg"",""stimuli/WF04_FO.jpg""]","stimuli/BM07_SC.jpg","stimuli/BM16_SUR.jpg","stimuli/BM03_CC.jpg","stimuli/WF04_FO.jpg","pos3","stimuli/BM03_CC.jpg","CC","BM03","2","4","8","8","stimuli/stars_8.png","39","[""SC"",""SUR"",""CC"",""FO""]","[""BM07"",""BM16"",""BM03"",""WF04""]","[7,3,8,4]","[6,2,8,4]","","",""
"show-reward","28","85917","0.0-28.0","p666877","AZXBVNZF65D8K","3087LXLJ6NMH85PJ46SJUKP4Z1V0FD","3VW04L3ZLVC9S1K9XESDYP7BWO4XXD","emotion","mismatch","uniform","","","","","","","","86386.29999998212","88395.5","","","","","","","","","","","","8","","stimuli/stars_8.png","39","","","","","stimuli/BM03_CC.jpg","",""
"explore-choice","29","88697","0.0-29.0","p666877","AZXBVNZF65D8K","3087LXLJ6NMH85PJ46SJUKP4Z1V0FD","3VW04L3ZLVC9S1K9XESDYP7BWO4XXD","emotion","mismatch","uniform","","","","","","","2277.5999999940395","88397.40000000596","90675","[""stimuli/BM07_SUR.jpg"",""stimuli/BM16_CC.jpg"",""stimuli/WF04_FO.jpg"",""stimuli/BM03_SC.jpg""]","stimuli/BM07_SUR.jpg","stimuli/BM16_CC.jpg","stimuli/WF04_FO.jpg","stimuli/BM03_SC.jpg","pos2","stimuli/BM16_CC.jpg","CC","BM16","1","3.5","7","8","stimuli/stars_7.png","42.5","[""SUR"",""CC"",""FO"",""SC""]","[""BM07"",""BM16"",""WF04"",""BM03""]","[2,7,3,6]","[2,8,4,6]","","",""
"show-reward","30","90703","0.0-30.0","p666877","AZXBVNZF65D8K","3087LXLJ6NMH85PJ46SJUKP4Z1V0FD","3VW04L3ZLVC9S1K9XESDYP7BWO4XXD","emotion","mismatch","uniform","","","","","","","","91177.59999999404","93181.79999998212","","","","","","","","","","","","7","","stimuli/stars_7.png","42.5","","","","","stimuli/BM16_CC.jpg","",""
"explore-choice","31","93255","0.0-31.0","p666877","AZXBVNZF65D8K","3087LXLJ6NMH85PJ46SJUKP4Z1V0FD","3VW04L3ZLVC9S1K9XESDYP7BWO4XXD","emotion","mismatch","uniform","","","","","","","2041.2999999821186","93183","95224.29999998212","[""stimuli/BM07_SUR.jpg"",""stimuli/BM16_SC.jpg"",""stimuli/BM03_FO.jpg"",""stimuli/WF04_CC.jpg""]","stimuli/BM07_SUR.jpg","stimuli/BM16_SC.jpg","stimuli/BM03_FO.jpg","stimuli/WF04_CC.jpg","pos2","stimuli/BM16_SC.jpg","SC","BM16","1","2.5","5","6","stimuli/stars_5.png","45","[""SUR"",""SC"",""FO"",""CC""]","[""BM07"",""BM16"",""BM03"",""WF04""]","[1,5,2,10]","[2,6,4,8]","","",""
"show-reward","32","95258","0.0-32.0","p666877","AZXBVNZF65D8K","3087LXLJ6NMH85PJ46SJUKP4Z1V0FD","3VW04L3ZLVC9S1K9XESDYP7BWO4XXD","emotion","mismatch","uniform","","","","","","","","95734.90000000596","97737.29999998212","","","","","","","","","","","","5","","stimuli/stars_5.png","45","","","","","stimuli/BM16_SC.jpg","",""
"explore-choice","33","97716","0.0-33.0","p666877","AZXBVNZF65D8K","3087LXLJ6NMH85PJ46SJUKP4Z1V0FD","3VW04L3ZLVC9S1K9XESDYP7BWO4XXD","emotion","mismatch","uniform","","","","","","","1955.5","97738.19999998808","99693.69999998808","[""stimuli/BM07_FO.jpg"",""stimuli/BM03_SUR.jpg"",""stimuli/WF04_CC.jpg"",""stimuli/BM16_SC.jpg""]","stimuli/BM07_FO.jpg","stimuli/BM03_SUR.jpg","stimuli/WF04_CC.jpg","stimuli/BM16_SC.jpg","pos3","stimuli/WF04_CC.jpg","CC","WF04","2","5","10","8","stimuli/stars_10.png","50","[""FO"",""SUR"",""CC"",""SC""]","[""BM07"",""BM03"",""WF04"",""BM16""]","[4,1,10,5]","[4,2,8,6]","","",""
"show-reward","34","99720","0.0-34.0","p666877","AZXBVNZF65D8K","3087LXLJ6NMH85PJ46SJUKP4Z1V0FD","3VW04L3ZLVC9S1K9XESDYP7BWO4XXD","emotion","mismatch","uniform","","","","","","","","100196.09999999404","102198.59999999404","","","","","","","","","","","","10","","stimuli/stars_10.png","50","","","","","stimuli/WF04_CC.jpg","",""
"explore-choice","35","101872","0.0-35.0","p666877","AZXBVNZF65D8K","3087LXLJ6NMH85PJ46SJUKP4Z1V0FD","3VW04L3ZLVC9S1K9XESDYP7BWO4XXD","emotion","mismatch","uniform","","","","","","","1643.5","102199.59999999404","103843.09999999404","[""stimuli/BM03_SC.jpg"",""stimuli/BM16_FO.jpg"",""stimuli/WF04_CC.jpg"",""stimuli/BM07_SUR.jpg""]","stimuli/BM03_SC.jpg","stimuli/BM16_FO.jpg","stimuli/WF04_CC.jpg","stimuli/BM07_SUR.jpg","pos3","stimuli/WF04_CC.jpg","CC","WF04","2","3.5","7","8","stimuli/stars_7.png","53.5","[""SC"",""FO"",""CC"",""SUR""]","[""BM03"",""BM16"",""WF04"",""BM07""]","[7,4,7,0]","[6,4,8,2]","","",""
"show-reward","36","103882","0.0-36.0","p666877","AZXBVNZF65D8K","3087LXLJ6NMH85PJ46SJUKP4Z1V0FD","3VW04L3ZLVC9S1K9XESDYP7BWO4XXD","emotion","mismatch","uniform","","","","","","","","104352","106360.69999998808","","","","","","","","","","","","7","","stimuli/stars_7.png","53.5","","","","","stimuli/WF04_CC.jpg","",""
"explore-choice","37","106958","0.0-37.0","p666877","AZXBVNZF65D8K","3087LXLJ6NMH85PJ46SJUKP4Z1V0FD","3VW04L3ZLVC9S1K9XESDYP7BWO4XXD","emotion","mismatch","uniform","","","","","","","2446.800000011921","106361.79999998212","108808.59999999404","[""stimuli/BM07_CC.jpg"",""stimuli/BM03_FO.jpg"",""stimuli/BM16_SC.jpg"",""stimuli/WF04_SUR.jpg""]","stimuli/BM07_CC.jpg","stimuli/BM03_FO.jpg","stimuli/BM16_SC.jpg","stimuli/WF04_SUR.jpg","pos1","stimuli/BM07_CC.jpg","CC","BM07","0","4.5","9","8","stimuli/stars_9.png","58","[""CC"",""FO"",""SC"",""SUR""]","[""BM07"",""BM03"",""BM16"",""WF04""]","[9,2,6,0]","[8,4,6,2]","","",""
"show-reward","38","108965","0.0-38.0","p666877","AZXBVNZF65D8K","3087LXLJ6NMH85PJ46SJUKP4Z1V0FD","3VW04L3ZLVC9S1K9XESDYP7BWO4XXD","emotion","mismatch","uniform","","","","","","","","109438.29999998212","111443.90000000596","","","","","","","","","","","","9","","stimuli/stars_9.png","58","","","","","stimuli/BM07_CC.jpg","",""
"explore-choice","39","112394","0.0-39.0","p666877","AZXBVNZF65D8K","3087LXLJ6NMH85PJ46SJUKP4Z1V0FD","3VW04L3ZLVC9S1K9XESDYP7BWO4XXD","emotion","mismatch","uniform","","","","","","","2911.199999988079","111445.40000000596","114356.59999999404","[""stimuli/WF04_SC.jpg"",""stimuli/BM16_FO.jpg"",""stimuli/BM03_SUR.jpg"",""stimuli/BM07_CC.jpg""]","stimuli/WF04_SC.jpg","stimuli/BM16_FO.jpg","stimuli/BM03_SUR.jpg","stimuli/BM07_CC.jpg","pos1","stimuli/WF04_SC.jpg","SC","WF04","0","2.5","5","6","stimuli/stars_5.png","60.5","[""SC"",""FO"",""SUR"",""CC""]","[""WF04"",""BM16"",""BM03"",""BM07""]","[5,6,3,10]","[6,4,2,8]","","",""
"show-reward","40","114418","0.0-40.0","p666877","AZXBVNZF65D8K","3087LXLJ6NMH85PJ46SJUKP4Z1V0FD","3VW04L3ZLVC9S1K9XESDYP7BWO4XXD","emotion","mismatch","uniform","","","","","","","","114874.40000000596","116896.59999999404","","","","","","","","","","","","5","","stimuli/stars_5.png","60.5","","","","","stimuli/WF04_SC.jpg","",""
"explore-choice","41","116726","0.0-41.0","p666877","AZXBVNZF65D8K","3087LXLJ6NMH85PJ46SJUKP4Z1V0FD","3VW04L3ZLVC9S1K9XESDYP7BWO4XXD","emotion","mismatch","uniform","","","","","","","1805.5","116898","118703.5","[""stimuli/BM16_FO.jpg"",""stimuli/BM07_SUR.jpg"",""stimuli/BM03_CC.jpg"",""stimuli/WF04_SC.jpg""]","stimuli/BM16_FO.jpg","stimuli/BM07_SUR.jpg","stimuli/BM03_CC.jpg","stimuli/WF04_SC.jpg","pos3","stimuli/BM03_CC.jpg","CC","BM03","2","3","6","8","stimuli/stars_6.png","63.5","[""FO"",""SUR"",""CC"",""SC""]","[""BM16"",""BM07"",""BM03"",""WF04""]","[5,4,6,7]","[4,2,8,6]","","",""
"show-reward","42","118984","0.0-42.0","p666877","AZXBVNZF65D8K","3087LXLJ6NMH85PJ46SJUKP4Z1V0FD","3VW04L3ZLVC9S1K9XESDYP7BWO4XXD","emotion","mismatch","uniform","","","","","","","","119205.69999998808","121462.19999998808","","","","","","","","","","","","6","","stimuli/stars_6.png","63.5","","","","","stimuli/BM03_CC.jpg","",""
"explore-choice","43","127057","0.0-43.0","p666877","AZXBVNZF65D8K","3087LXLJ6NMH85PJ46SJUKP4Z1V0FD","3VW04L3ZLVC9S1K9XESDYP7BWO4XXD","emotion","mismatch","uniform","","","","","","","7565.5999999940395","121463.59999999404","129029.19999998808","[""stimuli/BM07_CC.jpg"",""stimuli/WF04_SUR.jpg"",""stimuli/BM03_SC.jpg"",""stimuli/BM16_FO.jpg""]","stimuli/BM07_CC.jpg","stimuli/WF04_SUR.jpg","stimuli/BM03_SC.jpg","stimuli/BM16_FO.jpg","pos1","stimuli/BM07_CC.jpg","CC","BM07","0","3.5","7","8","stimuli/stars_7.png","67","[""CC"",""SUR"",""SC"",""FO""]","[""BM07"",""WF04"",""BM03"",""BM16""]","[7,4,6,5]","[8,2,6,4]","","",""
"show-reward","44","129071","0.0-44.0","p666877","AZXBVNZF65D8K","3087LXLJ6NMH85PJ46SJUKP4Z1V0FD","3VW04L3ZLVC9S1K9XESDYP7BWO4XXD","emotion","mismatch","uniform","","","","","","","","129536.40000000596","131549.5","","","","","","","","","","","","7","","stimuli/stars_7.png","67","","","","","stimuli/BM07_CC.jpg","",""
"explore-choice","45","132303","0.0-45.0","p666877","AZXBVNZF65D8K","3087LXLJ6NMH85PJ46SJUKP4Z1V0FD","3VW04L3ZLVC9S1K9XESDYP7BWO4XXD","emotion","mismatch","uniform","","","","","","","2532.9000000059605","131550.5","134083.40000000596","[""stimuli/BM16_FO.jpg"",""stimuli/BM07_SC.jpg"",""stimuli/BM03_SUR.jpg"",""stimuli/WF04_CC.jpg""]","stimuli/BM16_FO.jpg","stimuli/BM07_SC.jpg","stimuli/BM03_SUR.jpg","stimuli/WF04_CC.jpg","pos4","stimuli/WF04_CC.jpg","CC","WF04","3","3","6","8","stimuli/stars_6.png","70","[""FO"",""SC"",""SUR"",""CC""]","[""BM16"",""BM07"",""BM03"",""WF04""]","[3,8,2,6]","[4,6,2,8]","","",""
"show-reward","46","134328","0.0-46.0","p666877","AZXBVNZF65D8K","3087LXLJ6NMH85PJ46SJUKP4Z1V0FD","3VW04L3ZLVC9S1K9XESDYP7BWO4XXD","emotion","mismatch","uniform","","","","","","","","134782.5","136807.19999998808","","","","","","","","","","","","6","","stimuli/stars_6.png","70","","","","","stimuli/WF04_CC.jpg","",""
"explore-choice","47","142269","0.0-47.0","p666877","AZXBVNZF65D8K","3087LXLJ6NMH85PJ46SJUKP4Z1V0FD","3VW04L3ZLVC9S1K9XESDYP7BWO4XXD","emotion","mismatch","uniform","","","","","","","7437.100000023842","136808.29999998212","144245.40000000596","[""stimuli/BM07_FO.jpg"",""stimuli/BM03_SC.jpg"",""stimuli/WF04_CC.jpg"",""stimuli/BM16_SUR.jpg""]","stimuli/BM07_FO.jpg","stimuli/BM03_SC.jpg","stimuli/WF04_CC.jpg","stimuli/BM16_SUR.jpg","pos4","stimuli/BM16_SUR.jpg","SUR","BM16","3","1.5","3","2","stimuli/stars_3.png","71.5","[""FO"",""SC"",""CC"",""SUR""]","[""BM07"",""BM03"",""WF04"",""BM16""]","[4,8,6,3]","[4,6,8,2]","","",""
"show-reward","48","144288","0.0-48.0","p666877","AZXBVNZF65D8K","3087LXLJ6NMH85PJ46SJUKP4Z1V0FD","3VW04L3ZLVC9S1K9XESDYP7BWO4XXD","emotion","mismatch","uniform","","","","","","","","144748.5","146766.69999998808","","","","","","","","","","","","3","","stimuli/stars_3.png","71.5","","","","","stimuli/BM16_SUR.jpg","",""
"explore-choice","49","147991","0.0-49.0","p666877","AZXBVNZF65D8K","3087LXLJ6NMH85PJ46SJUKP4Z1V0FD","3VW04L3ZLVC9S1K9XESDYP7BWO4XXD","emotion","mismatch","uniform","","","","","","","3200.5999999940395","146767.69999998808","149968.29999998212","[""stimuli/BM07_SC.jpg"",""stimuli/WF04_FO.jpg"",""stimuli/BM03_SUR.jpg"",""stimuli/BM16_CC.jpg""]","stimuli/BM07_SC.jpg","stimuli/WF04_FO.jpg","stimuli/BM03_SUR.jpg","stimuli/BM16_CC.jpg","pos1","stimuli/BM07_SC.jpg","SC","BM07","0","4","8","6","stimuli/stars_8.png","75.5","[""SC"",""FO"",""SUR"",""CC""]","[""BM07"",""WF04"",""BM03"",""BM16""]","[8,4,1,7]","[6,4,2,8]","","",""
"show-reward","50","150001","0.0-50.0","p666877","AZXBVNZF65D8K","3087LXLJ6NMH85PJ46SJUKP4Z1V0FD","3VW04L3ZLVC9S1K9XESDYP7BWO4XXD","emotion","mismatch","uniform","","","","","","","","150470.29999998212","152479.69999998808","","","","","","","","","","","","8","","stimuli/stars_8.png","75.5","","","","","stimuli/BM07_SC.jpg","",""
"explore-choice","51","153679","0.0-51.0","p666877","AZXBVNZF65D8K","3087LXLJ6NMH85PJ46SJUKP4Z1V0FD","3VW04L3ZLVC9S1K9XESDYP7BWO4XXD","emotion","mismatch","uniform","","","","","","","3172.300000011921","152480.69999998808","155653","[""stimuli/WF04_FO.jpg"",""stimuli/BM03_CC.jpg"",""stimuli/BM07_SUR.jpg"",""stimuli/BM16_SC.jpg""]","stimuli/WF04_FO.jpg","stimuli/BM03_CC.jpg","stimuli/BM07_SUR.jpg","stimuli/BM16_SC.jpg","pos2","stimuli/BM03_CC.jpg","CC","BM03","1","4.5","9","8","stimuli/stars_9.png","80","[""FO"",""CC"",""SUR"",""SC""]","[""WF04"",""BM03"",""BM07"",""BM16""]","[6,9,3,6]","[4,8,2,6]","","",""
"show-reward","52","155687","0.0-52.0","p666877","AZXBVNZF65D8K","3087LXLJ6NMH85PJ46SJUKP4Z1V0FD","3VW04L3ZLVC9S1K9XESDYP7BWO4XXD","emotion","mismatch","uniform","","","","","","","","156160.19999998808","158165.69999998808","","","","","","","","","","","","9","","stimuli/stars_9.png","80","","","","","stimuli/BM03_CC.jpg","",""
"explore-choice","53","159222","0.0-53.0","p666877","AZXBVNZF65D8K","3087LXLJ6NMH85PJ46SJUKP4Z1V0FD","3VW04L3ZLVC9S1K9XESDYP7BWO4XXD","emotion","mismatch","uniform","","","","","","","2916.5","158166.40000000596","161082.90000000596","[""stimuli/BM16_FO.jpg"",""stimuli/BM03_CC.jpg"",""stimuli/BM07_SC.jpg"",""stimuli/WF04_SUR.jpg""]","stimuli/BM16_FO.jpg","stimuli/BM03_CC.jpg","stimuli/BM07_SC.jpg","stimuli/WF04_SUR.jpg","pos3","stimuli/BM07_SC.jpg","SC","BM07","2","4","8","6","stimuli/stars_8.png","84","[""FO"",""CC"",""SC"",""SUR""]","[""BM16"",""BM03"",""BM07"",""WF04""]","[2,9,8,1]","[4,8,6,2]","","",""
"show-reward","54","161235","0.0-54.0","p666877","AZXBVNZF65D8K","3087LXLJ6NMH85PJ46SJUKP4Z1V0FD","3VW04L3ZLVC9S1K9XESDYP7BWO4XXD","emotion","mismatch","uniform","","","","","","","","161701.79999998212","163713.90000000596","","","","","","","","","","","","8","","stimuli/stars_8.png","84","","","","","stimuli/BM07_SC.jpg","",""
"explore-choice","55","163787","0.0-55.0","p666877","AZXBVNZF65D8K","3087LXLJ6NMH85PJ46SJUKP4Z1V0FD","3VW04L3ZLVC9S1K9XESDYP7BWO4XXD","emotion","mismatch","uniform","","","","","","","2048.100000023842","163714.79999998212","165762.90000000596","[""stimuli/BM03_SUR.jpg"",""stimuli/BM07_CC.jpg"",""stimuli/BM16_SC.jpg"",""stimuli/WF04_FO.jpg""]","stimuli/BM03_SUR.jpg","stimuli/BM07_CC.jpg","stimuli/BM16_SC.jpg","stimuli/WF04_FO.jpg","pos2","stimuli/BM07_CC.jpg","CC","BM07","1","4","8","8","stimuli/stars_8.png","88","[""SUR"",""CC"",""SC"",""FO""]","[""BM03"",""BM07"",""BM16"",""WF04""]","[4,8,7,2]","[2,8,6,4]","","",""
"show-reward","56","165802","0.0-56.0","p666877","AZXBVNZF65D8K","3087LXLJ6NMH85PJ46SJUKP4Z1V0FD","3VW04L3ZLVC9S1K9XESDYP7BWO4XXD","emotion","mismatch","uniform","","","","","","","","166267.09999999404","168280.40000000596","","","","","","","","","","","","8","","stimuli/stars_8.png","88","","","","","stimuli/BM07_CC.jpg","",""
"explore-choice","57","168687","0.0-57.0","p666877","AZXBVNZF65D8K","3087LXLJ6NMH85PJ46SJUKP4Z1V0FD","3VW04L3ZLVC9S1K9XESDYP7BWO4XXD","emotion","mismatch","uniform","","","","","","","2381.0999999940395","168281.90000000596","170663","[""stimuli/WF04_CC.jpg"",""stimuli/BM07_FO.jpg"",""stimuli/BM03_SUR.jpg"",""stimuli/BM16_SC.jpg""]","stimuli/WF04_CC.jpg","stimuli/BM07_FO.jpg","stimuli/BM03_SUR.jpg","stimuli/BM16_SC.jpg","pos1","stimuli/WF04_CC.jpg","CC","WF04","0","5","10","8","stimuli/stars_10.png","93","[""CC"",""FO"",""SUR"",""SC""]","[""WF04"",""BM07"",""BM03"",""BM16""]","[10,4,1,5]","[8,4,2,6]","","",""
"show-reward","58","170707","0.0-58.0","p666877","AZXBVNZF65D8K","3087LXLJ6NMH85PJ46SJUKP4Z1V0FD","3VW04L3ZLVC9S1K9XESDYP7BWO4XXD","emotion","mismatch","uniform","","","","","","","","171169.79999998212","173185.29999998212","","","","","","","","","","","","10","","stimuli/stars_10.png","93","","","","","stimuli/WF04_CC.jpg","",""
"explore-choice","59","173165","0.0-59.0","p666877","AZXBVNZF65D8K","3087LXLJ6NMH85PJ46SJUKP4Z1V0FD","3VW04L3ZLVC9S1K9XESDYP7BWO4XXD","emotion","mismatch","uniform","","","","","","","1879.7000000178814","173186.19999998808","175065.90000000596","[""stimuli/WF04_SC.jpg"",""stimuli/BM16_CC.jpg"",""stimuli/BM03_FO.jpg"",""stimuli/BM07_SUR.jpg""]","stimuli/WF04_SC.jpg","stimuli/BM16_CC.jpg","stimuli/BM03_FO.jpg","stimuli/BM07_SUR.jpg","pos2","stimuli/BM16_CC.jpg","CC","BM16","1","3","6","8","stimuli/stars_6.png","96","[""SC"",""CC"",""FO"",""SUR""]","[""WF04"",""BM16"",""BM03"",""BM07""]","[6,6,4,4]","[6,8,4,2]","","",""
"show-reward","60","175179","0.0-60.0","p666877","AZXBVNZF65D8K","3087LXLJ6NMH85PJ46SJUKP4Z1V0FD","3VW04L3ZLVC9S1K9XESDYP7BWO4XXD","emotion","mismatch","uniform","","","","","","","","175644.5","177658","","","","","","","","","","","","6","","stimuli/stars_6.png","96","","","","","stimuli/BM16_CC.jpg","",""
"explore-choice","61","177526","0.0-61.0","p666877","AZXBVNZF65D8K","3087LXLJ6NMH85PJ46SJUKP4Z1V0FD","3VW04L3ZLVC9S1K9XESDYP7BWO4XXD","emotion","mismatch","uniform","","","","","","","1833.6000000238419","177659.29999998212","179492.90000000596","[""stimuli/BM03_SUR.jpg"",""stimuli/BM07_FO.jpg"",""stimuli/BM16_CC.jpg"",""stimuli/WF04_SC.jpg""]","stimuli/BM03_SUR.jpg","stimuli/BM07_FO.jpg","stimuli/BM16_CC.jpg","stimuli/WF04_SC.jpg","pos3","stimuli/BM16_CC.jpg","CC","BM16","2","4","8","8","stimuli/stars_8.png","100","[""SUR"",""FO"",""CC"",""SC""]","[""BM03"",""BM07"",""BM16"",""WF04""]","[2,4,8,6]","[2,4,8,6]","","",""
"show-reward","62","179539","0.0-62.0","p666877","AZXBVNZF65D8K","3087LXLJ6NMH85PJ46SJUKP4Z1V0FD","3VW04L3ZLVC9S1K9XESDYP7BWO4XXD","emotion","mismatch","uniform","","","","","","","","180006","182015.5","","","","","","","","","","","","8","","stimuli/stars_8.png","100","","","","","stimuli/BM16_CC.jpg","",""
"explore-choice","63","181888","0.0-63.0","p666877","AZXBVNZF65D8K","3087LXLJ6NMH85PJ46SJUKP4Z1V0FD","3VW04L3ZLVC9S1K9XESDYP7BWO4XXD","emotion","mismatch","uniform","","","","","","","1838.0999999940395","182016.69999998808","183854.79999998212","[""stimuli/BM03_SUR.jpg"",""stimuli/WF04_SC.jpg"",""stimuli/BM07_CC.jpg"",""stimuli/BM16_FO.jpg""]","stimuli/BM03_SUR.jpg","stimuli/WF04_SC.jpg","stimuli/BM07_CC.jpg","stimuli/BM16_FO.jpg","pos3","stimuli/BM07_CC.jpg","CC","BM07","2","5","10","8","stimuli/stars_10.png","105","[""SUR"",""SC"",""CC"",""FO""]","[""BM03"",""WF04"",""BM07"",""BM16""]","[3,5,10,6]","[2,6,8,4]","","",""
"show-reward","64","183921","0.0-64.0","p666877","AZXBVNZF65D8K","3087LXLJ6NMH85PJ46SJUKP4Z1V0FD","3VW04L3ZLVC9S1K9XESDYP7BWO4XXD","emotion","mismatch","uniform","","","","","","","","184384.79999998212","186398","","","","","","","","","","","","10","","stimuli/stars_10.png","105","","","","","stimuli/BM07_CC.jpg","",""
"explore-choice","65","189109","0.0-65.0","p666877","AZXBVNZF65D8K","3087LXLJ6NMH85PJ46SJUKP4Z1V0FD","3VW04L3ZLVC9S1K9XESDYP7BWO4XXD","emotion","mismatch","uniform","","","","","","","4674.800000011921","186399.09999999404","191073.90000000596","[""stimuli/BM03_SC.jpg"",""stimuli/BM16_FO.jpg"",""stimuli/BM07_CC.jpg"",""stimuli/WF04_SUR.jpg""]","stimuli/BM03_SC.jpg","stimuli/BM16_FO.jpg","stimuli/BM07_CC.jpg","stimuli/WF04_SUR.jpg","pos3","stimuli/BM07_CC.jpg","CC","BM07","2","3.5","7","8","stimuli/stars_7.png","108.5","[""SC"",""FO"",""CC"",""SUR""]","[""BM03"",""BM16"",""BM07"",""WF04""]","[6,5,7,4]","[6,4,8,2]","","",""
"show-reward","66","191122","0.0-66.0","p666877","AZXBVNZF65D8K","3087LXLJ6NMH85PJ46SJUKP4Z1V0FD","3VW04L3ZLVC9S1K9XESDYP7BWO4XXD","emotion","mismatch","uniform","","","","","","","","191586.40000000596","193598.29999998212","","","","","","","","","","","","7","","stimuli/stars_7.png","108.5","","","","","stimuli/BM07_CC.jpg","",""
"explore-choice","67","199145","0.0-67.0","p666877","AZXBVNZF65D8K","3087LXLJ6NMH85PJ46SJUKP4Z1V0FD","3VW04L3ZLVC9S1K9XESDYP7BWO4XXD","emotion","mismatch","uniform","","","","","","","7460.799999982119","193599.40000000596","201060.19999998808","[""stimuli/BM07_SC.jpg"",""stimuli/BM16_CC.jpg"",""stimuli/WF04_FO.jpg"",""stimuli/BM03_SUR.jpg""]","stimuli/BM07_SC.jpg","stimuli/BM16_CC.jpg","stimuli/WF04_FO.jpg","stimuli/BM03_SUR.jpg","pos2","stimuli/BM16_CC.jpg","CC","BM16","1","3.5","7","8","stimuli/stars_7.png","112","[""SC"",""CC"",""FO"",""SUR""]","[""BM07"",""BM16"",""WF04"",""BM03""]","[8,7,4,1]","[6,8,4,2]","","",""
"show-reward","68","201172","0.0-68.0","p666877","AZXBVNZF65D8K","3087LXLJ6NMH85PJ46SJUKP4Z1V0FD","3VW04L3ZLVC9S1K9XESDYP7BWO4XXD","emotion","mismatch","uniform","","","","","","","","201634.59999999404","203648.90000000596","","","","","","","","","","","","7","","stimuli/stars_7.png","112","","","","","stimuli/BM16_CC.jpg","",""
"explore-choice","69","204951","0.0-69.0","p666877","AZXBVNZF65D8K","3087LXLJ6NMH85PJ46SJUKP4Z1V0FD","3VW04L3ZLVC9S1K9XESDYP7BWO4XXD","emotion","mismatch","uniform","","","","","","","3272.7000000178814","203650.29999998212","206923","[""stimuli/WF04_SUR.jpg"",""stimuli/BM07_FO.jpg"",""stimuli/BM03_SC.jpg"",""stimuli/BM16_CC.jpg""]","stimuli/WF04_SUR.jpg","stimuli/BM07_FO.jpg","stimuli/BM03_SC.jpg","stimuli/BM16_CC.jpg","pos4","stimuli/BM16_CC.jpg","CC","BM16","3","3","6","8","stimuli/stars_6.png","115","[""SUR"",""FO"",""SC"",""CC""]","[""WF04"",""BM07"",""BM03"",""BM16""]","[2,4,6,6]","[2,4,6,8]","","",""
"show-reward","70","206957","0.0-70.0","p666877","AZXBVNZF65D8K","3087LXLJ6NMH85PJ46SJUKP4Z1V0FD","3VW04L3ZLVC9S1K9XESDYP7BWO4XXD","emotion","mismatch","uniform","","","","","","","","207428.40000000596","209433.69999998808","","","","","","","","","","","","6","","stimuli/stars_6.png","115","","","","","stimuli/BM16_CC.jpg","",""
"explore-choice","71","214471","0.0-71.0","p666877","AZXBVNZF65D8K","3087LXLJ6NMH85PJ46SJUKP4Z1V0FD","3VW04L3ZLVC9S1K9XESDYP7BWO4XXD","emotion","mismatch","uniform","","","","","","","6997.5","209434.59999999404","216432.09999999404","[""stimuli/BM16_SUR.jpg"",""stimuli/BM07_SC.jpg"",""stimuli/BM03_CC.jpg"",""stimuli/WF04_FO.jpg""]","stimuli/BM16_SUR.jpg","stimuli/BM07_SC.jpg","stimuli/BM03_CC.jpg","stimuli/WF04_FO.jpg","pos3","stimuli/BM03_CC.jpg","CC","BM03","2","4","8","8","stimuli/stars_8.png","119","[""SUR"",""SC"",""CC"",""FO""]","[""BM16"",""BM07"",""BM03"",""WF04""]","[3,7,8,4]","[2,6,8,4]","","",""
"show-reward","72","216482","0.0-72.0","p666877","AZXBVNZF65D8K","3087LXLJ6NMH85PJ46SJUKP4Z1V0FD","3VW04L3ZLVC9S1K9XESDYP7BWO4XXD","emotion","mismatch","uniform","","","","","","","","216948.69999998808","218959.09999999404","","","","","","","","","","","","8","","stimuli/stars_8.png","119","","","","","stimuli/BM03_CC.jpg","",""
"explore-choice","73","224563","0.0-73.0","p666877","AZXBVNZF65D8K","3087LXLJ6NMH85PJ46SJUKP4Z1V0FD","3VW04L3ZLVC9S1K9XESDYP7BWO4XXD","emotion","mismatch","uniform","","","","","","","7541.200000017881","218960.19999998808","226501.40000000596","[""stimuli/BM16_CC.jpg"",""stimuli/BM03_SC.jpg"",""stimuli/WF04_FO.jpg"",""stimuli/BM07_SUR.jpg""]","stimuli/BM16_CC.jpg","stimuli/BM03_SC.jpg","stimuli/WF04_FO.jpg","stimuli/BM07_SUR.jpg","pos1","stimuli/BM16_CC.jpg","CC","BM16","0","3.5","7","8","stimuli/stars_7.png","122.5","[""CC"",""SC"",""FO"",""SUR""]","[""BM16"",""BM03"",""WF04"",""BM07""]","[7,6,3,2]","[8,6,4,2]","","",""
"show-reward","74","226576","0.0-74.0","p666877","AZXBVNZF65D8K","3087LXLJ6NMH85PJ46SJUKP4Z1V0FD","3VW04L3ZLVC9S1K9XESDYP7BWO4XXD","emotion","mismatch","uniform","","","","","","","","227041.5","229052.5","","","","","","","","","","","","7","","stimuli/stars_7.png","122.5","","","","","stimuli/BM16_CC.jpg","",""
"explore-choice","75","231392","0.0-75.0","p666877","AZXBVNZF65D8K","3087LXLJ6NMH85PJ46SJUKP4Z1V0FD","3VW04L3ZLVC9S1K9XESDYP7BWO4XXD","emotion","mismatch","uniform","","","","","","","4308.5999999940395","229054.09999999404","233362.69999998808","[""stimuli/BM16_SUR.jpg"",""stimuli/BM07_FO.jpg"",""stimuli/WF04_SC.jpg"",""stimuli/BM03_CC.jpg""]","stimuli/BM16_SUR.jpg","stimuli/BM07_FO.jpg","stimuli/WF04_SC.jpg","stimuli/BM03_CC.jpg","pos4","stimuli/BM03_CC.jpg","CC","BM03","3","5","10","8","stimuli/stars_10.png","127.5","[""SUR"",""FO"",""SC"",""CC""]","[""BM16"",""BM07"",""WF04"",""BM03""]","[4,2,8,10]","[2,4,6,8]","","",""
"show-reward","76","233406","0.0-76.0","p666877","AZXBVNZF65D8K","3087LXLJ6NMH85PJ46SJUKP4Z1V0FD","3VW04L3ZLVC9S1K9XESDYP7BWO4XXD","emotion","mismatch","uniform","","","","","","","","233870.59999999404","235882.19999998808","","","","","","","","","","","","10","","stimuli/stars_10.png","127.5","","","","","stimuli/BM03_CC.jpg","",""
"explore-choice","77","237347","0.0-77.0","p666877","AZXBVNZF65D8K","3087LXLJ6NMH85PJ46SJUKP4Z1V0FD","3VW04L3ZLVC9S1K9XESDYP7BWO4XXD","emotion","mismatch","uniform","","","","","","","3439.2999999821186","235883.90000000596","239323.19999998808","[""stimuli/BM07_FO.jpg"",""stimuli/BM16_SUR.jpg"",""stimuli/BM03_SC.jpg"",""stimuli/WF04_CC.jpg""]","stimuli/BM07_FO.jpg","stimuli/BM16_SUR.jpg","stimuli/BM03_SC.jpg","stimuli/WF04_CC.jpg","pos4","stimuli/WF04_CC.jpg","CC","WF04","3","3","6","8","stimuli/stars_6.png","130.5","[""FO"",""SUR"",""SC"",""CC""]","[""BM07"",""BM16"",""BM03"",""WF04""]","[4,3,8,6]","[4,2,6,8]","","",""
"show-reward","78","239357","0.0-78.0","p666877","AZXBVNZF65D8K","3087LXLJ6NMH85PJ46SJUKP4Z1V0FD","3VW04L3ZLVC9S1K9XESDYP7BWO4XXD","emotion","mismatch","uniform","","","","","","","","239824.5","241834","","","","","","","","","","","","6","","stimuli/stars_6.png","130.5","","","","","stimuli/WF04_CC.jpg","",""
"explore-choice","79","242051","0.0-79.0","p666877","AZXBVNZF65D8K","3087LXLJ6NMH85PJ46SJUKP4Z1V0FD","3VW04L3ZLVC9S1K9XESDYP7BWO4XXD","emotion","mismatch","uniform","","","","","","","2177.5","241835.19999998808","244012.69999998808","[""stimuli/BM03_SUR.jpg"",""stimuli/WF04_CC.jpg"",""stimuli/BM16_FO.jpg"",""stimuli/BM07_SC.jpg""]","stimuli/BM03_SUR.jpg","stimuli/WF04_CC.jpg","stimuli/BM16_FO.jpg","stimuli/BM07_SC.jpg","pos2","stimuli/WF04_CC.jpg","CC","WF04","1","3","6","8","stimuli/stars_6.png","133.5","[""SUR"",""CC"",""FO"",""SC""]","[""BM03"",""WF04"",""BM16"",""BM07""]","[2,6,3,8]","[2,8,4,6]","","",""
"show-reward","80","244070","0.0-80.0","p666877","AZXBVNZF65D8K","3087LXLJ6NMH85PJ46SJUKP4Z1V0FD","3VW04L3ZLVC9S1K9XESDYP7BWO4XXD","emotion","mismatch","uniform","","","","","","","","244529.19999998808","246546.19999998808","","","","","","","","","","","","6","","stimuli/stars_6.png","133.5","","","","","stimuli/WF04_CC.jpg","",""
"explore-choice","81","255245","0.0-81.0","p666877","AZXBVNZF65D8K","3087LXLJ6NMH85PJ46SJUKP4Z1V0FD","3VW04L3ZLVC9S1K9XESDYP7BWO4XXD","emotion","mismatch","uniform","","","","","","","10658.90000000596","246547.69999998808","257206.59999999404","[""stimuli/BM03_CC.jpg"",""stimuli/WF04_SUR.jpg"",""stimuli/BM07_FO.jpg"",""stimuli/BM16_SC.jpg""]","stimuli/BM03_CC.jpg","stimuli/WF04_SUR.jpg","stimuli/BM07_FO.jpg","stimuli/BM16_SC.jpg","pos1","stimuli/BM03_CC.jpg","CC","BM03","0","5","10","8","stimuli/stars_10.png","138.5","[""CC"",""SUR"",""FO"",""SC""]","[""BM03"",""WF04"",""BM07"",""BM16""]","[10,1,5,4]","[8,2,4,6]","","",""
"show-reward","82","257259","0.0-82.0","p666877","AZXBVNZF65D8K","3087LXLJ6NMH85PJ46SJUKP4Z1V0FD","3VW04L3ZLVC9S1K9XESDYP7BWO4XXD","emotion","mismatch","uniform","","","","","","","","257722.79999998212","259736.09999999404","","","","","","","","","","","","10","","stimuli/stars_10.png","138.5","","","","","stimuli/BM03_CC.jpg","",""
"explore-choice","83","261985","0.0-83.0","p666877","AZXBVNZF65D8K","3087LXLJ6NMH85PJ46SJUKP4Z1V0FD","3VW04L3ZLVC9S1K9XESDYP7BWO4XXD","emotion","mismatch","uniform","","","","","","","4122.9000000059605","259738.69999998808","263861.59999999404","[""stimuli/BM07_SC.jpg"",""stimuli/BM03_CC.jpg"",""stimuli/BM16_FO.jpg"",""stimuli/WF04_SUR.jpg""]","stimuli/BM07_SC.jpg","stimuli/BM03_CC.jpg","stimuli/BM16_FO.jpg","stimuli/WF04_SUR.jpg","pos1","stimuli/BM07_SC.jpg","SC","BM07","0","4","8","6","stimuli/stars_8.png","142.5","[""SC"",""CC"",""FO"",""SUR""]","[""BM07"",""BM03"",""BM16"",""WF04""]","[8,9,2,1]","[6,8,4,2]","","",""
"show-reward","84","264003","0.0-84.0","p666877","AZXBVNZF65D8K","3087LXLJ6NMH85PJ46SJUKP4Z1V0FD","3VW04L3ZLVC9S1K9XESDYP7BWO4XXD","emotion","mismatch","uniform","","","","","","","","264462.90000000596","266480.1999999881","","","","","","","","","","","","8","","stimuli/stars_8.png","142.5","","","","","stimuli/BM07_SC.jpg","",""
"explore-choice","85","271157","0.0-85.0","p666877","AZXBVNZF65D8K","3087LXLJ6NMH85PJ46SJUKP4Z1V0FD","3VW04L3ZLVC9S1K9XESDYP7BWO4XXD","emotion","mismatch","uniform","","","","","","","6651.700000017881","266481.1999999881","273132.90000000596","[""stimuli/WF04_SC.jpg"",""stimuli/BM16_FO.jpg"",""stimuli/BM07_SUR.jpg"",""stimuli/BM03_CC.jpg""]","stimuli/WF04_SC.jpg","stimuli/BM16_FO.jpg","stimuli/BM07_SUR.jpg","stimuli/BM03_CC.jpg","pos1","stimuli/WF04_SC.jpg","SC","WF04","0","3.5","7","6","stimuli/stars_7.png","146","[""SC"",""FO"",""SUR"",""CC""]","[""WF04"",""BM16"",""BM07"",""BM03""]","[7,5,4,6]","[6,4,2,8]","","",""
"show-reward","86","273184","0.0-86.0","p666877","AZXBVNZF65D8K","3087LXLJ6NMH85PJ46SJUKP4Z1V0FD","3VW04L3ZLVC9S1K9XESDYP7BWO4XXD","emotion","mismatch","uniform","","","","","","","","273634.40000000596","275660.90000000596","","","","","","","","","","","","7","","stimuli/stars_7.png","146","","","","","stimuli/WF04_SC.jpg","",""
"explore-choice","87","277319","0.0-87.0","p666877","AZXBVNZF65D8K","3087LXLJ6NMH85PJ46SJUKP4Z1V0FD","3VW04L3ZLVC9S1K9XESDYP7BWO4XXD","emotion","mismatch","uniform","","","","","","","3622.5","275671","279293.5","[""stimuli/BM07_CC.jpg"",""stimuli/BM16_SUR.jpg"",""stimuli/WF04_SC.jpg"",""stimuli/BM03_FO.jpg""]","stimuli/BM07_CC.jpg","stimuli/BM16_SUR.jpg","stimuli/WF04_SC.jpg","stimuli/BM03_FO.jpg","pos3","stimuli/WF04_SC.jpg","SC","WF04","2","4","8","6","stimuli/stars_8.png","150","[""CC"",""SUR"",""SC"",""FO""]","[""BM07"",""BM16"",""WF04"",""BM03""]","[6,1,8,4]","[8,2,6,4]","","",""
"show-reward","88","279325","0.0-88.0","p666877","AZXBVNZF65D8K","3087LXLJ6NMH85PJ46SJUKP4Z1V0FD","3VW04L3ZLVC9S1K9XESDYP7BWO4XXD","emotion","mismatch","uniform","","","","","","","","279796.7999999821","281801.7999999821","","","","","","","","","","","","8","","stimuli/stars_8.png","150","","","","","stimuli/WF04_SC.jpg","",""
"explore-choice","89","282421","0.0-89.0","p666877","AZXBVNZF65D8K","3087LXLJ6NMH85PJ46SJUKP4Z1V0FD","3VW04L3ZLVC9S1K9XESDYP7BWO4XXD","emotion","mismatch","uniform","","","","","","","2580.0999999940395","281802.59999999404","284382.6999999881","[""stimuli/BM07_SC.jpg"",""stimuli/BM16_SUR.jpg"",""stimuli/BM03_FO.jpg"",""stimuli/WF04_CC.jpg""]","stimuli/BM07_SC.jpg","stimuli/BM16_SUR.jpg","stimuli/BM03_FO.jpg","stimuli/WF04_CC.jpg","pos1","stimuli/BM07_SC.jpg","SC","BM07","0","2.5","5","6","stimuli/stars_5.png","152.5","[""SC"",""SUR"",""FO"",""CC""]","[""BM07"",""BM16"",""BM03"",""WF04""]","[5,3,5,8]","[6,2,4,8]","","",""
"show-reward","90","284498","0.0-90.0","p666877","AZXBVNZF65D8K","3087LXLJ6NMH85PJ46SJUKP4Z1V0FD","3VW04L3ZLVC9S1K9XESDYP7BWO4XXD","emotion","mismatch","uniform","","","","","","","","284898.6999999881","286974.6999999881","","","","","","","","","","","","5","","stimuli/stars_5.png","152.5","","","","","stimuli/BM07_SC.jpg","",""
"explore-choice","91","287497","0.0-91.0","p666877","AZXBVNZF65D8K","3087LXLJ6NMH85PJ46SJUKP4Z1V0FD","3VW04L3ZLVC9S1K9XESDYP7BWO4XXD","emotion","mismatch","uniform","","","","","","","2489.9000000059605","286976","289465.90000000596","[""stimuli/BM07_SUR.jpg"",""stimuli/WF04_CC.jpg"",""stimuli/BM03_FO.jpg"",""stimuli/BM16_SC.jpg""]","stimuli/BM07_SUR.jpg","stimuli/WF04_CC.jpg","stimuli/BM03_FO.jpg","stimuli/BM16_SC.jpg","pos2","stimuli/WF04_CC.jpg","CC","WF04","1","5","10","8","stimuli/stars_10.png","157.5","[""SUR"",""CC"",""FO"",""SC""]","[""BM07"",""WF04"",""BM03"",""BM16""]","[1,10,2,5]","[2,8,4,6]","","",""
"show-reward","92","289503","0.0-92.0","p666877","AZXBVNZF65D8K","3087LXLJ6NMH85PJ46SJUKP4Z1V0FD","3VW04L3ZLVC9S1K9XESDYP7BWO4XXD","emotion","mismatch","uniform","","","","","","","","289975.09999999404","291979.40000000596","","","","","","","","","","","","10","","stimuli/stars_10.png","157.5","","","","","stimuli/WF04_CC.jpg","",""
"explore-choice","93","298443","0.0-93.0","p666877","AZXBVNZF65D8K","3087LXLJ6NMH85PJ46SJUKP4Z1V0FD","3VW04L3ZLVC9S1K9XESDYP7BWO4XXD","emotion","mismatch","uniform","","","","","","","8188.700000017881","291980.2999999821","300169","[""stimuli/BM03_SC.jpg"",""stimuli/BM07_SUR.jpg"",""stimuli/BM16_FO.jpg"",""stimuli/WF04_CC.jpg""]","stimuli/BM03_SC.jpg","stimuli/BM07_SUR.jpg","stimuli/BM16_FO.jpg","stimuli/WF04_CC.jpg","pos4","stimuli/WF04_CC.jpg","CC","WF04","3","3.5","7","8","stimuli/stars_7.png","161","[""SC"",""SUR"",""FO"",""CC""]","[""BM03"",""BM07"",""BM16"",""WF04""]","[7,0,4,7]","[6,2,4,8]","","",""
"show-reward","94","300454","0.0-94.0","p666877","AZXBVNZF65D8K","3087LXLJ6NMH85PJ46SJUKP4Z1V0FD","3VW04L3ZLVC9S1K9XESDYP7BWO4XXD","emotion","mismatch","uniform","","","","","","","","300921.1999999881","302930.6999999881","","","","","","","","","","","","7","","stimuli/stars_7.png","161","","","","","stimuli/WF04_CC.jpg","",""
"explore-choice","95","302730","0.0-95.0","p666877","AZXBVNZF65D8K","3087LXLJ6NMH85PJ46SJUKP4Z1V0FD","3VW04L3ZLVC9S1K9XESDYP7BWO4XXD","emotion","mismatch","uniform","","","","","","","1774","302931.6999999881","304705.6999999881","[""stimuli/BM03_SC.jpg"",""stimuli/BM16_SUR.jpg"",""stimuli/BM07_CC.jpg"",""stimuli/WF04_FO.jpg""]","stimuli/BM03_SC.jpg","stimuli/BM16_SUR.jpg","stimuli/BM07_CC.jpg","stimuli/WF04_FO.jpg","pos2","stimuli/BM16_SUR.jpg","SUR","BM16","1","0","0","2","stimuli/stars_0.png","161","[""SC"",""SUR"",""CC"",""FO""]","[""BM03"",""BM16"",""BM07"",""WF04""]","[7,0,7,4]","[6,2,8,4]","","",""
"show-reward","96","304734","0.0-96.0","p666877","AZXBVNZF65D8K","3087LXLJ6NMH85PJ46SJUKP4Z1V0FD","3VW04L3ZLVC9S1K9XESDYP7BWO4XXD","emotion","mismatch","uniform","","","","","","","","305207.2999999821","307210.5","","","","","","","","","","","","0","","stimuli/stars_0.png","161","","","","","stimuli/BM16_SUR.jpg","",""
"explore-choice","97","306941","0.0-97.0","p666877","AZXBVNZF65D8K","3087LXLJ6NMH85PJ46SJUKP4Z1V0FD","3VW04L3ZLVC9S1K9XESDYP7BWO4XXD","emotion","mismatch","uniform","","","","","","","1690.699999988079","307212","308902.6999999881","[""stimuli/BM07_CC.jpg"",""stimuli/BM03_FO.jpg"",""stimuli/BM16_SC.jpg"",""stimuli/WF04_SUR.jpg""]","stimuli/BM07_CC.jpg","stimuli/BM03_FO.jpg","stimuli/BM16_SC.jpg","stimuli/WF04_SUR.jpg","pos1","stimuli/BM07_CC.jpg","CC","BM07","0","4.5","9","8","stimuli/stars_9.png","165.5","[""CC"",""FO"",""SC"",""SUR""]","[""BM07"",""BM03"",""BM16"",""WF04""]","[9,2,6,0]","[8,4,6,2]","","",""
"show-reward","98","308954","0.0-98.0","p666877","AZXBVNZF65D8K","3087LXLJ6NMH85PJ46SJUKP4Z1V0FD","3VW04L3ZLVC9S1K9XESDYP7BWO4XXD","emotion","mismatch","uniform","","","","","","","","309418.59999999404","311430","","","","","","","","","","","","9","","stimuli/stars_9.png","165.5","","","","","stimuli/BM07_CC.jpg","",""
"explore-choice","99","311069","0.0-99.0","p666877","AZXBVNZF65D8K","3087LXLJ6NMH85PJ46SJUKP4Z1V0FD","3VW04L3ZLVC9S1K9XESDYP7BWO4XXD","emotion","mismatch","uniform","","","","","","","1607.7000000178814","311431.1999999881","313038.90000000596","[""stimuli/BM03_CC.jpg"",""stimuli/BM07_SUR.jpg"",""stimuli/WF04_FO.jpg"",""stimuli/BM16_SC.jpg""]","stimuli/BM03_CC.jpg","stimuli/BM07_SUR.jpg","stimuli/WF04_FO.jpg","stimuli/BM16_SC.jpg","pos1","stimuli/BM03_CC.jpg","CC","BM03","0","4.5","9","8","stimuli/stars_9.png","170","[""CC"",""SUR"",""FO"",""SC""]","[""BM03"",""BM07"",""WF04"",""BM16""]","[9,3,6,6]","[8,2,4,6]","","",""
"show-reward","100","313079","0.0-100.0","p666877","AZXBVNZF65D8K","3087LXLJ6NMH85PJ46SJUKP4Z1V0FD","3VW04L3ZLVC9S1K9XESDYP7BWO4XXD","emotion","mismatch","uniform","","","","","","","","313546.90000000596","315555","","","","","","","","","","","","9","","stimuli/stars_9.png","170","","","","","stimuli/BM03_CC.jpg","",""
"explore-choice","101","314969","0.0-101.0","p666877","AZXBVNZF65D8K","3087LXLJ6NMH85PJ46SJUKP4Z1V0FD","3VW04L3ZLVC9S1K9XESDYP7BWO4XXD","emotion","mismatch","uniform","","","","","","","1376.7000000178814","315556.1999999881","316932.90000000596","[""stimuli/BM07_SC.jpg"",""stimuli/WF04_SUR.jpg"",""stimuli/BM03_FO.jpg"",""stimuli/BM16_CC.jpg""]","stimuli/BM07_SC.jpg","stimuli/WF04_SUR.jpg","stimuli/BM03_FO.jpg","stimuli/BM16_CC.jpg","pos1","stimuli/BM07_SC.jpg","SC","BM07","0","4","8","6","stimuli/stars_8.png","174","[""SC"",""SUR"",""FO"",""CC""]","[""BM07"",""WF04"",""BM03"",""BM16""]","[8,4,3,8]","[6,2,4,8]","","",""
"show-reward","102","316981","0.0-102.0","p666877","AZXBVNZF65D8K","3087LXLJ6NMH85PJ46SJUKP4Z1V0FD","3VW04L3ZLVC9S1K9XESDYP7BWO4XXD","emotion","mismatch","uniform","","","","","","","","317446.7999999821","319457.2999999821","","","","","","","","","","","","8","","stimuli/stars_8.png","174","","","","","stimuli/BM07_SC.jpg","",""
"explore-choice","103","320741","0.0-103.0","p666877","AZXBVNZF65D8K","3087LXLJ6NMH85PJ46SJUKP4Z1V0FD","3VW04L3ZLVC9S1K9XESDYP7BWO4XXD","emotion","mismatch","uniform","","","","","","","3258.199999988079","319458.40000000596","322716.59999999404","[""stimuli/AM05_HO.jpg"",""stimuli/AF10_HE.jpg"",""stimuli/WM11_AO.jpg"",""stimuli/BF04_DO.jpg""]","stimuli/AM05_HO.jpg","stimuli/AF10_HE.jpg","stimuli/WM11_AO.jpg","stimuli/BF04_DO.jpg","pos2","stimuli/AF10_HE.jpg","HE","AF10","1","5","10","8","stimuli/stars_10.png","179","[""HO"",""HE"",""AO"",""DO""]","[""AM05"",""AF10"",""WM11"",""BF04""]","[4,10,4,0]","[6,8,4,2]","","",""
"show-reward","104","322745","0.0-104.0","p666877","AZXBVNZF65D8K","3087LXLJ6NMH85PJ46SJUKP4Z1V0FD","3VW04L3ZLVC9S1K9XESDYP7BWO4XXD","emotion","mismatch","uniform","","","","","","","","323218.09999999404","325221","","","","","","","","","","","","10","","stimuli/stars_10.png","179","","","","","stimuli/AF10_HE.jpg","",""
"explore-choice","105","327078","0.0-105.0","p666877","AZXBVNZF65D8K","3087LXLJ6NMH85PJ46SJUKP4Z1V0FD","3VW04L3ZLVC9S1K9XESDYP7BWO4XXD","emotion","mismatch","uniform","","","","","","","3687.7000000178814","325222.2999999821","328910","[""stimuli/WM11_HE.jpg"",""stimuli/BF04_HO.jpg"",""stimuli/AF10_AO.jpg"",""stimuli/AM05_DO.jpg""]","stimuli/WM11_HE.jpg","stimuli/BF04_HO.jpg","stimuli/AF10_AO.jpg","stimuli/AM05_DO.jpg","pos2","stimuli/BF04_HO.jpg","HO","BF04","1","1.5","3","2","stimuli/stars_3.png","180.5","[""HE"",""HO"",""AO"",""DO""]","[""WM11"",""BF04"",""AF10"",""AM05""]","[4,3,6,5]","[4,2,8,6]","","",""
"show-reward","106","329086","0.0-106.0","p666877","AZXBVNZF65D8K","3087LXLJ6NMH85PJ46SJUKP4Z1V0FD","3VW04L3ZLVC9S1K9XESDYP7BWO4XXD","emotion","mismatch","uniform","","","","","","","","329556.09999999404","331562.2999999821","","","","","","","","","","","","3","","stimuli/stars_3.png","180.5","","","","","stimuli/BF04_HO.jpg","",""
"explore-choice","107","331049","0.0-107.0","p666877","AZXBVNZF65D8K","3087LXLJ6NMH85PJ46SJUKP4Z1V0FD","3VW04L3ZLVC9S1K9XESDYP7BWO4XXD","emotion","mismatch","uniform","","","","","","","1459","331564","333023","[""stimuli/AF10_AO.jpg"",""stimuli/BF04_HO.jpg"",""stimuli/WM11_DO.jpg"",""stimuli/AM05_HE.jpg""]","stimuli/AF10_AO.jpg","stimuli/BF04_HO.jpg","stimuli/WM11_DO.jpg","stimuli/AM05_HE.jpg","pos1","stimuli/AF10_AO.jpg","AO","AF10","0","3.5","7","8","stimuli/stars_7.png","184","[""AO"",""HO"",""DO"",""HE""]","[""AF10"",""BF04"",""WM11"",""AM05""]","[7,2,6,6]","[8,2,4,6]","","",""
"show-reward","108","333051","0.0-108.0","p666877","AZXBVNZF65D8K","3087LXLJ6NMH85PJ46SJUKP4Z1V0FD","3VW04L3ZLVC9S1K9XESDYP7BWO4XXD","emotion","mismatch","uniform","","","","","","","","333526.1999999881","335527.90000000596","","","","","","","","","","","","7","","stimuli/stars_7.png","184","","","","","stimuli/AF10_AO.jpg","",""
"explore-choice","109","335044","0.0-109.0","p666877","AZXBVNZF65D8K","3087LXLJ6NMH85PJ46SJUKP4Z1V0FD","3VW04L3ZLVC9S1K9XESDYP7BWO4XXD","emotion","mismatch","uniform","","","","","","","1487.2000000178814","335528.6999999881","337015.90000000596","[""stimuli/WM11_AO.jpg"",""stimuli/BF04_HO.jpg"",""stimuli/AF10_DO.jpg"",""stimuli/AM05_HE.jpg""]","stimuli/WM11_AO.jpg","stimuli/BF04_HO.jpg","stimuli/AF10_DO.jpg","stimuli/AM05_HE.jpg","pos3","stimuli/AF10_DO.jpg","DO","AF10","2","5","10","8","stimuli/stars_10.png","189","[""AO"",""HO"",""DO"",""HE""]","[""WM11"",""BF04"",""AF10"",""AM05""]","[6,2,10,7]","[4,2,8,6]","","",""
"show-reward","110","337275","0.0-110.0","p666877","AZXBVNZF65D8K","3087LXLJ6NMH85PJ46SJUKP4Z1V0FD","3VW04L3ZLVC9S1K9XESDYP7BWO4XXD","emotion","mismatch","uniform","","","","","","","","337521.6999999881","339750.6999999881","","","","","","","","","","","","10","","stimuli/stars_10.png","189","","","","","stimuli/AF10_DO.jpg","",""
"explore-choice","111","339827","0.0-111.0","p666877","AZXBVNZF65D8K","3087LXLJ6NMH85PJ46SJUKP4Z1V0FD","3VW04L3ZLVC9S1K9XESDYP7BWO4XXD","emotion","mismatch","uniform","","","","","","","2048.5999999940395","339752.90000000596","341801.5","[""stimuli/AM05_DO.jpg"",""stimuli/AF10_HO.jpg"",""stimuli/BF04_HE.jpg"",""stimuli/WM11_AO.jpg""]","stimuli/AM05_DO.jpg","stimuli/AF10_HO.jpg","stimuli/BF04_HE.jpg","stimuli/WM11_AO.jpg","pos2","stimuli/AF10_HO.jpg","HO","AF10","1","4.5","9","8","stimuli/stars_9.png","193.5","[""DO"",""HO"",""HE"",""AO""]","[""AM05"",""AF10"",""BF04"",""WM11""]","[5,9,1,6]","[6,8,2,4]","","",""
"show-reward","112","341841","0.0-112.0","p666877","AZXBVNZF65D8K","3087LXLJ6NMH85PJ46SJUKP4Z1V0FD","3VW04L3ZLVC9S1K9XESDYP7BWO4XXD","emotion","mismatch","uniform","","","","","","","","342305.2999999821","344316.59999999404","","","","","","","","","","","","9","","stimuli/stars_9.png","193.5","","","","","stimuli/AF10_HO.jpg","",""
"explore-choice","113","343900","0.0-113.0","p666877","AZXBVNZF65D8K","3087LXLJ6NMH85PJ46SJUKP4Z1V0FD","3VW04L3ZLVC9S1K9XESDYP7BWO4XXD","emotion","mismatch","uniform","","","","","","","1554.3999999761581","344318.40000000596","345872.7999999821","[""stimuli/AM05_HO.jpg"",""stimuli/WM11_HE.jpg"",""stimuli/AF10_DO.jpg"",""stimuli/BF04_AO.jpg""]","stimuli/AM05_HO.jpg","stimuli/WM11_HE.jpg","stimuli/AF10_DO.jpg","stimuli/BF04_AO.jpg","pos3","stimuli/AF10_DO.jpg","DO","AF10","2","5","10","8","stimuli/stars_10.png","198.5","[""HO"",""HE"",""DO"",""AO""]","[""AM05"",""WM11"",""AF10"",""BF04""]","[6,5,10,3]","[6,4,8,2]","","",""
"show-reward","114","345905","0.0-114.0","p666877","AZXBVNZF65D8K","3087LXLJ6NMH85PJ46SJUKP4Z1V0FD","3VW04L3ZLVC9S1K9XESDYP7BWO4XXD","emotion","mismatch","uniform","","","","","","","","346377.09999999404","348381.5","","","","","","","","","","","","10","","stimuli/stars_10.png","198.5","","","","","stimuli/AF10_DO.jpg","",""
"explore-choice","115","348327","0.0-115.0","p666877","AZXBVNZF65D8K","3087LXLJ6NMH85PJ46SJUKP4Z1V0FD","3VW04L3ZLVC9S1K9XESDYP7BWO4XXD","emotion","mismatch","uniform","","","","","","","1920","348382.6999999881","350302.6999999881","[""stimuli/BF04_AO.jpg"",""stimuli/AF10_HO.jpg"",""stimuli/WM11_DO.jpg"",""stimuli/AM05_HE.jpg""]","stimuli/BF04_AO.jpg","stimuli/AF10_HO.jpg","stimuli/WM11_DO.jpg","stimuli/AM05_HE.jpg","pos2","stimuli/AF10_HO.jpg","HO","AF10","1","3.5","7","8","stimuli/stars_7.png","202","[""AO"",""HO"",""DO"",""HE""]","[""BF04"",""AF10"",""WM11"",""AM05""]","[1,7,4,7]","[2,8,4,6]","","",""
"show-reward","116","350355","0.0-116.0","p666877","AZXBVNZF65D8K","3087LXLJ6NMH85PJ46SJUKP4Z1V0FD","3VW04L3ZLVC9S1K9XESDYP7BWO4XXD","emotion","mismatch","uniform","","","","","","","","350804.2999999821","352831.6999999881","","","","","","","","","","","","7","","stimuli/stars_7.png","202","","","","","stimuli/AF10_HO.jpg","",""
"explore-choice","117","352859","0.0-117.0","p666877","AZXBVNZF65D8K","3087LXLJ6NMH85PJ46SJUKP4Z1V0FD","3VW04L3ZLVC9S1K9XESDYP7BWO4XXD","emotion","mismatch","uniform","","","","","","","1691.4000000059605","352832.6999999881","354524.09999999404","[""stimuli/AM05_HE.jpg"",""stimuli/BF04_AO.jpg"",""stimuli/WM11_HO.jpg"",""stimuli/AF10_DO.jpg""]","stimuli/AM05_HE.jpg","stimuli/BF04_AO.jpg","stimuli/WM11_HO.jpg","stimuli/AF10_DO.jpg","pos4","stimuli/AF10_DO.jpg","DO","AF10","3","3.5","7","8","stimuli/stars_7.png","205.5","[""HE"",""AO"",""HO"",""DO""]","[""AM05"",""BF04"",""WM11"",""AF10""]","[4,1,3,7]","[6,2,4,8]","","",""
"show-reward","118","354862","0.0-118.0","p666877","AZXBVNZF65D8K","3087LXLJ6NMH85PJ46SJUKP4Z1V0FD","3VW04L3ZLVC9S1K9XESDYP7BWO4XXD","emotion","mismatch","uniform","","","","","","","","355336.1999999881","357338.2999999821","","","","","","","","","","","","7","","stimuli/stars_7.png","205.5","","","","","stimuli/AF10_DO.jpg","",""
"explore-choice","119","356954","0.0-119.0","p666877","AZXBVNZF65D8K","3087LXLJ6NMH85PJ46SJUKP4Z1V0FD","3VW04L3ZLVC9S1K9XESDYP7BWO4XXD","emotion","mismatch","uniform","","","","","","","1582.7000000178814","357339.7999999821","358922.5","[""stimuli/WM11_HE.jpg"",""stimuli/AF10_HO.jpg"",""stimuli/AM05_AO.jpg"",""stimuli/BF04_DO.jpg""]","stimuli/WM11_HE.jpg","stimuli/AF10_HO.jpg","stimuli/AM05_AO.jpg","stimuli/BF04_DO.jpg","pos2","stimuli/AF10_HO.jpg","HO","AF10","1","4","8","8","stimuli/stars_8.png","209.5","[""HE"",""HO"",""AO"",""DO""]","[""WM11"",""AF10"",""AM05"",""BF04""]","[4,8,6,3]","[4,8,6,2]","","",""
"show-reward","120","358971","0.0-120.0","p666877","AZXBVNZF65D8K","3087LXLJ6NMH85PJ46SJUKP4Z1V0FD","3VW04L3ZLVC9S1K9XESDYP7BWO4XXD","emotion","mismatch","uniform","","","","","","","","359431.5","361446.90000000596","","","","","","","","","","","","8","","stimuli/stars_8.png","209.5","","","","","stimuli/AF10_HO.jpg","",""
"explore-choice","121","360740","0.0-121.0","p666877","AZXBVNZF65D8K","3087LXLJ6NMH85PJ46SJUKP4Z1V0FD","3VW04L3ZLVC9S1K9XESDYP7BWO4XXD","emotion","mismatch","uniform","","","","","","","1264.9000000059605","361448.2999999821","362713.1999999881","[""stimuli/WM11_HO.jpg"",""stimuli/AF10_AO.jpg"",""stimuli/AM05_DO.jpg"",""stimuli/BF04_HE.jpg""]","stimuli/WM11_HO.jpg","stimuli/AF10_AO.jpg","stimuli/AM05_DO.jpg","stimuli/BF04_HE.jpg","pos2","stimuli/AF10_AO.jpg","AO","AF10","1","3.5","7","8","stimuli/stars_7.png","213","[""HO"",""AO"",""DO"",""HE""]","[""WM11"",""AF10"",""AM05"",""BF04""]","[5,7,5,3]","[4,8,6,2]","","",""
"show-reward","122","362745","0.0-122.0","p666877","AZXBVNZF65D8K","3087LXLJ6NMH85PJ46SJUKP4Z1V0FD","3VW04L3ZLVC9S1K9XESDYP7BWO4XXD","emotion","mismatch","uniform","","","","","","","","363218.40000000596","365221.1999999881","","","","","","","","","","","","7","","stimuli/stars_7.png","213","","","","","stimuli/AF10_AO.jpg","",""
"explore-choice","123","365320","0.0-123.0","p666877","AZXBVNZF65D8K","3087LXLJ6NMH85PJ46SJUKP4Z1V0FD","3VW04L3ZLVC9S1K9XESDYP7BWO4XXD","emotion","mismatch","uniform","","","","","","","2043.4000000059605","365222","367265.40000000596","[""stimuli/WM11_DO.jpg"",""stimuli/BF04_HE.jpg"",""stimuli/AM05_AO.jpg"",""stimuli/AF10_HO.jpg""]","stimuli/WM11_DO.jpg","stimuli/BF04_HE.jpg","stimuli/AM05_AO.jpg","stimuli/AF10_HO.jpg","pos4","stimuli/AF10_HO.jpg","HO","AF10","3","3","6","8","stimuli/stars_6.png","216","[""DO"",""HE"",""AO"",""HO""]","[""WM11"",""BF04"",""AM05"",""AF10""]","[6,1,8,6]","[4,2,6,8]","","",""
"show-reward","124","367326","0.0-124.0","p666877","AZXBVNZF65D8K","3087LXLJ6NMH85PJ46SJUKP4Z1V0FD","3VW04L3ZLVC9S1K9XESDYP7BWO4XXD","emotion","mismatch","uniform","","","","","","","","367799.6999999881","369802.1999999881","","","","","","","","","","","","6","","stimuli/stars_6.png","216","","","","","stimuli/AF10_HO.jpg","",""
"explore-choice","125","369083","0.0-125.0","p666877","AZXBVNZF65D8K","3087LXLJ6NMH85PJ46SJUKP4Z1V0FD","3VW04L3ZLVC9S1K9XESDYP7BWO4XXD","emotion","mismatch","uniform","","","","","","","1253.2999999821186","369803.5","371056.7999999821","[""stimuli/BF04_HO.jpg"",""stimuli/AM05_AO.jpg"",""stimuli/AF10_DO.jpg"",""stimuli/WM11_HE.jpg""]","stimuli/BF04_HO.jpg","stimuli/AM05_AO.jpg","stimuli/AF10_DO.jpg","stimuli/WM11_HE.jpg","pos3","stimuli/AF10_DO.jpg","DO","AF10","2","5","10","8","stimuli/stars_10.png","221","[""HO"",""AO"",""DO"",""HE""]","[""BF04"",""AM05"",""AF10"",""WM11""]","[0,7,10,3]","[2,6,8,4]","","",""
"show-reward","126","371090","0.0-126.0","p666877","AZXBVNZF65D8K","3087LXLJ6NMH85PJ46SJUKP4Z1V0FD","3VW04L3ZLVC9S1K9XESDYP7BWO4XXD","emotion","mismatch","uniform","","","","","","","","371565.1999999881","373566.90000000596","","","","","","","","","","","","10","","stimuli/stars_10.png","221","","","","","stimuli/AF10_DO.jpg","",""
"explore-choice","127","372798","0.0-127.0","p666877","AZXBVNZF65D8K","3087LXLJ6NMH85PJ46SJUKP4Z1V0FD","3VW04L3ZLVC9S1K9XESDYP7BWO4XXD","emotion","mismatch","uniform","","","","","","","1205","373567.59999999404","374772.59999999404","[""stimuli/WM11_HE.jpg"",""stimuli/AM05_HO.jpg"",""stimuli/AF10_AO.jpg"",""stimuli/BF04_DO.jpg""]","stimuli/WM11_HE.jpg","stimuli/AM05_HO.jpg","stimuli/AF10_AO.jpg","stimuli/BF04_DO.jpg","pos3","stimuli/AF10_AO.jpg","AO","AF10","2","3.5","7","8","stimuli/stars_7.png","224.5","[""HE"",""HO"",""AO"",""DO""]","[""WM11"",""AM05"",""AF10"",""BF04""]","[5,8,7,3]","[4,6,8,2]","","",""
"show-reward","128","374803","0.0-128.0","p666877","AZXBVNZF65D8K","3087LXLJ6NMH85PJ46SJUKP4Z1V0FD","3VW04L3ZLVC9S1K9XESDYP7BWO4XXD","emotion","mismatch","uniform","","","","","","","","375275.5","377279.2999999821","","","","","","","","","","","","7","","stimuli/stars_7.png","224.5","","","","","stimuli/AF10_AO.jpg","",""
"explore-choice","129","376970","0.0-129.0","p666877","AZXBVNZF65D8K","3087LXLJ6NMH85PJ46SJUKP4Z1V0FD","3VW04L3ZLVC9S1K9XESDYP7BWO4XXD","emotion","mismatch","uniform","","","","","","","1652.699999988079","377280.5","378933.1999999881","[""stimuli/AM05_HE.jpg"",""stimuli/AF10_HO.jpg"",""stimuli/BF04_DO.jpg"",""stimuli/WM11_AO.jpg""]","stimuli/AM05_HE.jpg","stimuli/AF10_HO.jpg","stimuli/BF04_DO.jpg","stimuli/WM11_AO.jpg","pos2","stimuli/AF10_HO.jpg","HO","AF10","1","4","8","8","stimuli/stars_8.png","228.5","[""HE"",""HO"",""DO"",""AO""]","[""AM05"",""AF10"",""BF04"",""WM11""]","[6,8,0,4]","[6,8,2,4]","","",""
"show-reward","130","379244","0.0-130.0","p666877","AZXBVNZF65D8K","3087LXLJ6NMH85PJ46SJUKP4Z1V0FD","3VW04L3ZLVC9S1K9XESDYP7BWO4XXD","emotion","mismatch","uniform","","","","","","","","379447.59999999404","381720.09999999404","","","","","","","","","","","","8","","stimuli/stars_8.png","228.5","","","","","stimuli/AF10_HO.jpg","",""
"explore-choice","131","381097","0.0-131.0","p666877","AZXBVNZF65D8K","3087LXLJ6NMH85PJ46SJUKP4Z1V0FD","3VW04L3ZLVC9S1K9XESDYP7BWO4XXD","emotion","mismatch","uniform","","","","","","","1272.9000000059605","381721.1999999881","382994.09999999404","[""stimuli/WM11_AO.jpg"",""stimuli/AM05_HO.jpg"",""stimuli/AF10_DO.jpg"",""stimuli/BF04_HE.jpg""]","stimuli/WM11_AO.jpg","stimuli/AM05_HO.jpg","stimuli/AF10_DO.jpg","stimuli/BF04_HE.jpg","pos3","stimuli/AF10_DO.jpg","DO","AF10","2","3","6","8","stimuli/stars_6.png","231.5","[""AO"",""HO"",""DO"",""HE""]","[""WM11"",""AM05"",""AF10"",""BF04""]","[3,8,6,0]","[4,6,8,2]","","",""
"show-reward","132","383102","0.0-132.0","p666877","AZXBVNZF65D8K","3087LXLJ6NMH85PJ46SJUKP4Z1V0FD","3VW04L3ZLVC9S1K9XESDYP7BWO4XXD","emotion","mismatch","uniform","","","","","","","","383574.6999999881","385578","","","","","","","","","","","","6","","stimuli/stars_6.png","231.5","","","","","stimuli/AF10_DO.jpg","",""
"explore-choice","133","390507","0.0-133.0","p666877","AZXBVNZF65D8K","3087LXLJ6NMH85PJ46SJUKP4Z1V0FD","3VW04L3ZLVC9S1K9XESDYP7BWO4XXD","emotion","mismatch","uniform","","","","","","","6892.9000000059605","385579.5","392472.40000000596","[""stimuli/AM05_DO.jpg"",""stimuli/BF04_HO.jpg"",""stimuli/WM11_AO.jpg"",""stimuli/AF10_HE.jpg""]","stimuli/AM05_DO.jpg","stimuli/BF04_HO.jpg","stimuli/WM11_AO.jpg","stimuli/AF10_HE.jpg","pos4","stimuli/AF10_HE.jpg","HE","AF10","3","3.5","7","8","stimuli/stars_7.png","235","[""DO"",""HO"",""AO"",""HE""]","[""AM05"",""BF04"",""WM11"",""AF10""]","[6,1,2,7]","[6,2,4,8]","","",""
"show-reward","134","392512","0.0-134.0","p666877","AZXBVNZF65D8K","3087LXLJ6NMH85PJ46SJUKP4Z1V0FD","3VW04L3ZLVC9S1K9XESDYP7BWO4XXD","emotion","mismatch","uniform","","","","","","","","392985.1999999881","394987.90000000596","","","","","","","","","","","","7","","stimuli/stars_7.png","235","","","","","stimuli/AF10_HE.jpg","",""
"explore-choice","135","398256","0.0-135.0","p666877","AZXBVNZF65D8K","3087LXLJ6NMH85PJ46SJUKP4Z1V0FD","3VW04L3ZLVC9S1K9XESDYP7BWO4XXD","emotion","mismatch","uniform","","","","","","","5232.299999982119","394988.90000000596","400221.1999999881","[""stimuli/WM11_HO.jpg"",""stimuli/BF04_AO.jpg"",""stimuli/AM05_DO.jpg"",""stimuli/AF10_HE.jpg""]","stimuli/WM11_HO.jpg","stimuli/BF04_AO.jpg","stimuli/AM05_DO.jpg","stimuli/AF10_HE.jpg","pos4","stimuli/AF10_HE.jpg","HE","AF10","3","5","10","8","stimuli/stars_10.png","240","[""HO"",""AO"",""DO"",""HE""]","[""WM11"",""BF04"",""AM05"",""AF10""]","[3,3,7,10]","[4,2,6,8]","","",""
"show-reward","136","400276","0.0-136.0","p666877","AZXBVNZF65D8K","3087LXLJ6NMH85PJ46SJUKP4Z1V0FD","3VW04L3ZLVC9S1K9XESDYP7BWO4XXD","emotion","mismatch","uniform","","","","","","","","400734.2999999821","402752.59999999404","","","","","","","","","","","","10","","stimuli/stars_10.png","240","","","","","stimuli/AF10_HE.jpg","",""
"explore-choice","137","402297","0.0-137.0","p666877","AZXBVNZF65D8K","3087LXLJ6NMH85PJ46SJUKP4Z1V0FD","3VW04L3ZLVC9S1K9XESDYP7BWO4XXD","emotion","mismatch","uniform","","","","","","","1518.9000000059605","402753.6999999881","404272.59999999404","[""stimuli/WM11_HE.jpg"",""stimuli/AM05_DO.jpg"",""stimuli/AF10_HO.jpg"",""stimuli/BF04_AO.jpg""]","stimuli/WM11_HE.jpg","stimuli/AM05_DO.jpg","stimuli/AF10_HO.jpg","stimuli/BF04_AO.jpg","pos3","stimuli/AF10_HO.jpg","HO","AF10","2","3","6","8","stimuli/stars_6.png","243","[""HE"",""DO"",""HO"",""AO""]","[""WM11"",""AM05"",""AF10"",""BF04""]","[3,8,6,4]","[4,6,8,2]","","",""
"show-reward","138","404301","0.0-138.0","p666877","AZXBVNZF65D8K","3087LXLJ6NMH85PJ46SJUKP4Z1V0FD","3VW04L3ZLVC9S1K9XESDYP7BWO4XXD","emotion","mismatch","uniform","","","","","","","","404774.6999999881","406777.1999999881","","","","","","","","","","","","6","","stimuli/stars_6.png","243","","","","","stimuli/AF10_HO.jpg","",""
"explore-choice","139","407200","0.0-139.0","p666877","AZXBVNZF65D8K","3087LXLJ6NMH85PJ46SJUKP4Z1V0FD","3VW04L3ZLVC9S1K9XESDYP7BWO4XXD","emotion","mismatch","uniform","","","","","","","1892","406778","408670","[""stimuli/WM11_DO.jpg"",""stimuli/AF10_AO.jpg"",""stimuli/AM05_HO.jpg"",""stimuli/BF04_HE.jpg""]","stimuli/WM11_DO.jpg","stimuli/AF10_AO.jpg","stimuli/AM05_HO.jpg","stimuli/BF04_HE.jpg","pos2","stimuli/AF10_AO.jpg","AO","AF10","1","3","6","8","stimuli/stars_6.png","246","[""DO"",""AO"",""HO"",""HE""]","[""WM11"",""AF10"",""AM05"",""BF04""]","[4,6,5,2]","[4,8,6,2]","","",""
"show-reward","140","409214","0.0-140.0","p666877","AZXBVNZF65D8K","3087LXLJ6NMH85PJ46SJUKP4Z1V0FD","3VW04L3ZLVC9S1K9XESDYP7BWO4XXD","emotion","mismatch","uniform","","","","","","","","409677.09999999404","411690","","","","","","","","","","","","6","","stimuli/stars_6.png","246","","","","","stimuli/AF10_AO.jpg","",""
"explore-choice","141","411568","0.0-141.0","p666877","AZXBVNZF65D8K","3087LXLJ6NMH85PJ46SJUKP4Z1V0FD","3VW04L3ZLVC9S1K9XESDYP7BWO4XXD","emotion","mismatch","uniform","","","","","","","1841","411691.2999999821","413532.2999999821","[""stimuli/BF04_HO.jpg"",""stimuli/WM11_DO.jpg"",""stimuli/AM05_AO.jpg"",""stimuli/AF10_HE.jpg""]","stimuli/BF04_HO.jpg","stimuli/WM11_DO.jpg","stimuli/AM05_AO.jpg","stimuli/AF10_HE.jpg","pos4","stimuli/AF10_HE.jpg","HE","AF10","3","4","8","8","stimuli/stars_8.png","250","[""HO"",""DO"",""AO"",""HE""]","[""BF04"",""WM11"",""AM05"",""AF10""]","[1,4,8,8]","[2,4,6,8]","","",""
"show-reward","142","413581","0.0-142.0","p666877","AZXBVNZF65D8K","3087LXLJ6NMH85PJ46SJUKP4Z1V0FD","3VW04L3ZLVC9S1K9XESDYP7BWO4XXD","emotion","mismatch","uniform","","","","","","","","414045.6999999881","416057.7999999821","","","","","","","","","","","","8","","stimuli/stars_8.png","250","","","","","stimuli/AF10_HE.jpg","",""
"explore-choice","143","415438","0.0-143.0","p666877","AZXBVNZF65D8K","3087LXLJ6NMH85PJ46SJUKP4Z1V0FD","3VW04L3ZLVC9S1K9XESDYP7BWO4XXD","emotion","mismatch","uniform","","","","","","","1343.0999999940395","416059","417402.09999999404","[""stimuli/BF04_AO.jpg"",""stimuli/AM05_HO.jpg"",""stimuli/AF10_HE.jpg"",""stimuli/WM11_DO.jpg""]","stimuli/BF04_AO.jpg","stimuli/AM05_HO.jpg","stimuli/AF10_HE.jpg","stimuli/WM11_DO.jpg","pos3","stimuli/AF10_HE.jpg","HE","AF10","2","3.5","7","8","stimuli/stars_7.png","253.5","[""AO"",""HO"",""HE"",""DO""]","[""BF04"",""AM05"",""AF10"",""WM11""]","[4,8,7,5]","[2,6,8,4]","","",""
"show-reward","144","417446","0.0-144.0","p666877","AZXBVNZF65D8K","3087LXLJ6NMH85PJ46SJUKP4Z1V0FD","3VW04L3ZLVC9S1K9XESDYP7BWO4XXD","emotion","mismatch","uniform","","","","","","","","417915.2999999821","419922","","","","","","","","","","","","7","","stimuli/stars_7.png","253.5","","","","","stimuli/AF10_HE.jpg","",""
"explore-choice","145","419982","0.0-145.0","p666877","AZXBVNZF65D8K","3087LXLJ6NMH85PJ46SJUKP4Z1V0FD","3VW04L3ZLVC9S1K9XESDYP7BWO4XXD","emotion","mismatch","uniform","","","","","","","2028.7000000178814","419923.7999999821","421952.5","[""stimuli/AM05_AO.jpg"",""stimuli/WM11_HO.jpg"",""stimuli/BF04_HE.jpg"",""stimuli/AF10_DO.jpg""]","stimuli/AM05_AO.jpg","stimuli/WM11_HO.jpg","stimuli/BF04_HE.jpg","stimuli/AF10_DO.jpg","pos4","stimuli/AF10_DO.jpg","DO","AF10","3","3.5","7","8","stimuli/stars_7.png","257","[""AO"",""HO"",""HE"",""DO""]","[""AM05"",""WM11"",""BF04"",""AF10""]","[4,2,3,7]","[6,4,2,8]","","",""
"show-reward","146","422002","0.0-146.0","p666877","AZXBVNZF65D8K","3087LXLJ6NMH85PJ46SJUKP4Z1V0FD","3VW04L3ZLVC9S1K9XESDYP7BWO4XXD","emotion","mismatch","uniform","","","","","","","","422459.59999999404","424478.59999999404","","","","","","","","","","","","7","","stimuli/stars_7.png","257","","","","","stimuli/AF10_DO.jpg","",""
"explore-choice","147","424932","0.0-147.0","p666877","AZXBVNZF65D8K","3087LXLJ6NMH85PJ46SJUKP4Z1V0FD","3VW04L3ZLVC9S1K9XESDYP7BWO4XXD","emotion","mismatch","uniform","","","","","","","2407","424479.7999999821","426886.7999999821","[""stimuli/WM11_HO.jpg"",""stimuli/BF04_DO.jpg"",""stimuli/AF10_HE.jpg"",""stimuli/AM05_AO.jpg""]","stimuli/WM11_HO.jpg","stimuli/BF04_DO.jpg","stimuli/AF10_HE.jpg","stimuli/AM05_AO.jpg","pos3","stimuli/AF10_HE.jpg","HE","AF10","2","4.5","9","8","stimuli/stars_9.png","261.5","[""HO"",""DO"",""HE"",""AO""]","[""WM11"",""BF04"",""AF10"",""AM05""]","[4,4,9,5]","[4,2,8,6]","","",""
"show-reward","148","426939","0.0-148.0","p666877","AZXBVNZF65D8K","3087LXLJ6NMH85PJ46SJUKP4Z1V0FD","3VW04L3ZLVC9S1K9XESDYP7BWO4XXD","emotion","mismatch","uniform","","","","","","","","427410.09999999404","429415.6999999881","","","","","","","","","","","","9","","stimuli/stars_9.png","261.5","","","","","stimuli/AF10_HE.jpg","",""
"explore-choice","149","429376","0.0-149.0","p666877","AZXBVNZF65D8K","3087LXLJ6NMH85PJ46SJUKP4Z1V0FD","3VW04L3ZLVC9S1K9XESDYP7BWO4XXD","emotion","mismatch","uniform","","","","","","","1922.2000000178814","429419.7999999821","431342","[""stimuli/BF04_DO.jpg"",""stimuli/AM05_HE.jpg"",""stimuli/AF10_AO.jpg"",""stimuli/WM11_HO.jpg""]","stimuli/BF04_DO.jpg","stimuli/AM05_HE.jpg","stimuli/AF10_AO.jpg","stimuli/WM11_HO.jpg","pos3","stimuli/AF10_AO.jpg","AO","AF10","2","3","6","8","stimuli/stars_6.png","264.5","[""DO"",""HE"",""AO"",""HO""]","[""BF04"",""AM05"",""AF10"",""WM11""]","[4,8,6,4]","[2,6,8,4]","","",""
"show-reward","150","431382","0.0-150.0","p666877","AZXBVNZF65D8K","3087LXLJ6NMH85PJ46SJUKP4Z1V0FD","3VW04L3ZLVC9S1K9XESDYP7BWO4XXD","emotion","mismatch","uniform","","","","","","","","431854.09999999404","433858.90000000596","","","","","","","","","","","","6","","stimuli/stars_6.png","264.5","","","","","stimuli/AF10_AO.jpg","",""
"explore-choice","151","433143","0.0-151.0","p666877","AZXBVNZF65D8K","3087LXLJ6NMH85PJ46SJUKP4Z1V0FD","3VW04L3ZLVC9S1K9XESDYP7BWO4XXD","emotion","mismatch","uniform","","","","","","","1258.8999999761581","433860.40000000596","435119.2999999821","[""stimuli/AM05_HE.jpg"",""stimuli/WM11_DO.jpg"",""stimuli/AF10_AO.jpg"",""stimuli/BF04_HO.jpg""]","stimuli/AM05_HE.jpg","stimuli/WM11_DO.jpg","stimuli/AF10_AO.jpg","stimuli/BF04_HO.jpg","pos3","stimuli/AF10_AO.jpg","AO","AF10","2","3.5","7","8","stimuli/stars_7.png","268","[""HE"",""DO"",""AO"",""HO""]","[""AM05"",""WM11"",""AF10"",""BF04""]","[6,6,7,2]","[6,4,8,2]","","",""
"show-reward","152","435146","0.0-152.0","p666877","AZXBVNZF65D8K","3087LXLJ6NMH85PJ46SJUKP4Z1V0FD","3VW04L3ZLVC9S1K9XESDYP7BWO4XXD","emotion","mismatch","uniform","","","","","","","","435620.6999999881","437622.59999999404","","","","","","","","","","","","7","","stimuli/stars_7.png","268","","","","","stimuli/AF10_AO.jpg","",""
"explore-choice","153","437300","0.0-153.0","p666877","AZXBVNZF65D8K","3087LXLJ6NMH85PJ46SJUKP4Z1V0FD","3VW04L3ZLVC9S1K9XESDYP7BWO4XXD","emotion","mismatch","uniform","","","","","","","1651.9000000059605","437623.59999999404","439275.5","[""stimuli/AM05_HE.jpg"",""stimuli/BF04_AO.jpg"",""stimuli/WM11_DO.jpg"",""stimuli/AF10_HO.jpg""]","stimuli/AM05_HE.jpg","stimuli/BF04_AO.jpg","stimuli/WM11_DO.jpg","stimuli/AF10_HO.jpg","pos4","stimuli/AF10_HO.jpg","HO","AF10","3","3.5","7","8","stimuli/stars_7.png","271.5","[""HE"",""AO"",""DO"",""HO""]","[""AM05"",""BF04"",""WM11"",""AF10""]","[7,1,4,7]","[6,2,4,8]","","",""
"show-reward","154","439783","0.0-154.0","p666877","AZXBVNZF65D8K","3087LXLJ6NMH85PJ46SJUKP4Z1V0FD","3VW04L3ZLVC9S1K9XESDYP7BWO4XXD","emotion","mismatch","uniform","","","","","","","","439777.7999999821","442259.7999999821","","","","","","","","","","","","7","","stimuli/stars_7.png","271.5","","","","","stimuli/AF10_HO.jpg","",""
"explore-choice","155","441363","0.0-155.0","p666877","AZXBVNZF65D8K","3087LXLJ6NMH85PJ46SJUKP4Z1V0FD","3VW04L3ZLVC9S1K9XESDYP7BWO4XXD","emotion","mismatch","uniform","","","","","","","1071.800000011921","442260.7999999821","443332.59999999404","[""stimuli/WM11_HO.jpg"",""stimuli/BF04_HE.jpg"",""stimuli/AM05_AO.jpg"",""stimuli/AF10_DO.jpg""]","stimuli/WM11_HO.jpg","stimuli/BF04_HE.jpg","stimuli/AM05_AO.jpg","stimuli/AF10_DO.jpg","pos4","stimuli/AF10_DO.jpg","DO","AF10","3","3.5","7","8","stimuli/stars_7.png","275","[""HO"",""HE"",""AO"",""DO""]","[""WM11"",""BF04"",""AM05"",""AF10""]","[2,3,4,7]","[4,2,6,8]","","",""
"show-reward","156","443368","0.0-156.0","p666877","AZXBVNZF65D8K","3087LXLJ6NMH85PJ46SJUKP4Z1V0FD","3VW04L3ZLVC9S1K9XESDYP7BWO4XXD","emotion","mismatch","uniform","","","","","","","","443841.5","445844.40000000596","","","","","","","","","","","","7","","stimuli/stars_7.png","275","","","","","stimuli/AF10_DO.jpg","",""
"explore-choice","157","445043","0.0-157.0","p666877","AZXBVNZF65D8K","3087LXLJ6NMH85PJ46SJUKP4Z1V0FD","3VW04L3ZLVC9S1K9XESDYP7BWO4XXD","emotion","mismatch","uniform","","","","","","","1168.8999999761581","445845.40000000596","447014.2999999821","[""stimuli/BF04_AO.jpg"",""stimuli/WM11_DO.jpg"",""stimuli/AM05_HO.jpg"",""stimuli/AF10_HE.jpg""]","stimuli/BF04_AO.jpg","stimuli/WM11_DO.jpg","stimuli/AM05_HO.jpg","stimuli/AF10_HE.jpg","pos4","stimuli/AF10_HE.jpg","HE","AF10","3","3.5","7","8","stimuli/stars_7.png","278.5","[""AO"",""DO"",""HO"",""HE""]","[""BF04"",""WM11"",""AM05"",""AF10""]","[4,5,8,7]","[2,4,6,8]","","",""
"show-reward","158","447057","0.0-158.0","p666877","AZXBVNZF65D8K","3087LXLJ6NMH85PJ46SJUKP4Z1V0FD","3VW04L3ZLVC9S1K9XESDYP7BWO4XXD","emotion","mismatch","uniform","","","","","","","","447520.5","449533.2999999821","","","","","","","","","","","","7","","stimuli/stars_7.png","278.5","","","","","stimuli/AF10_HE.jpg","",""
"explore-choice","159","452847","0.0-159.0","p666877","AZXBVNZF65D8K","3087LXLJ6NMH85PJ46SJUKP4Z1V0FD","3VW04L3ZLVC9S1K9XESDYP7BWO4XXD","emotion","mismatch","uniform","","","","","","","5104","449534.1999999881","454638.1999999881","[""stimuli/BF04_DO.jpg"",""stimuli/AF10_HO.jpg"",""stimuli/AM05_AO.jpg"",""stimuli/WM11_HE.jpg""]","stimuli/BF04_DO.jpg","stimuli/AF10_HO.jpg","stimuli/AM05_AO.jpg","stimuli/WM11_HE.jpg","pos2","stimuli/AF10_HO.jpg","HO","AF10","1","4","8","8","stimuli/stars_8.png","282.5","[""DO"",""HO"",""AO"",""HE""]","[""BF04"",""AF10"",""AM05"",""WM11""]","[3,8,6,4]","[2,8,6,4]","","",""
"show-reward","160","454862","0.0-160.0","p666877","AZXBVNZF65D8K","3087LXLJ6NMH85PJ46SJUKP4Z1V0FD","3VW04L3ZLVC9S1K9XESDYP7BWO4XXD","emotion","mismatch","uniform","","","","","","","","455325.2999999821","457338.7999999821","","","","","","","","","","","","8","","stimuli/stars_8.png","282.5","","","","","stimuli/AF10_HO.jpg","",""
"explore-choice","161","457320","0.0-161.0","p666877","AZXBVNZF65D8K","3087LXLJ6NMH85PJ46SJUKP4Z1V0FD","3VW04L3ZLVC9S1K9XESDYP7BWO4XXD","emotion","mismatch","uniform","","","","","","","1937.300000011921","457345.09999999404","459282.40000000596","[""stimuli/WM11_DO.jpg"",""stimuli/AF10_HO.jpg"",""stimuli/BF04_HE.jpg"",""stimuli/AM05_AO.jpg""]","stimuli/WM11_DO.jpg","stimuli/AF10_HO.jpg","stimuli/BF04_HE.jpg","stimuli/AM05_AO.jpg","pos2","stimuli/AF10_HO.jpg","HO","AF10","1","3","6","8","stimuli/stars_6.png","285.5","[""DO"",""HO"",""HE"",""AO""]","[""WM11"",""AF10"",""BF04"",""AM05""]","[6,6,1,8]","[4,8,2,6]","","",""
"show-reward","162","459325","0.0-162.0","p666877","AZXBVNZF65D8K","3087LXLJ6NMH85PJ46SJUKP4Z1V0FD","3VW04L3ZLVC9S1K9XESDYP7BWO4XXD","emotion","mismatch","uniform","","","","","","","","459797.6999999881","461801.2999999821","","","","","","","","","","","","6","","stimuli/stars_6.png","285.5","","","","","stimuli/AF10_HO.jpg","",""
"explore-choice","163","462874","0.0-163.0","p666877","AZXBVNZF65D8K","3087LXLJ6NMH85PJ46SJUKP4Z1V0FD","3VW04L3ZLVC9S1K9XESDYP7BWO4XXD","emotion","mismatch","uniform","","","","","","","3039","461802.40000000596","464841.40000000596","[""stimuli/BF04_DO.jpg"",""stimuli/WM11_HO.jpg"",""stimuli/AF10_AO.jpg"",""stimuli/AM05_HE.jpg""]","stimuli/BF04_DO.jpg","stimuli/WM11_HO.jpg","stimuli/AF10_AO.jpg","stimuli/AM05_HE.jpg","pos3","stimuli/AF10_AO.jpg","AO","AF10","2","3","6","8","stimuli/stars_6.png","288.5","[""DO"",""HO"",""AO"",""HE""]","[""BF04"",""WM11"",""AF10"",""AM05""]","[4,4,6,8]","[2,4,8,6]","","",""
"show-reward","164","464882","0.0-164.0","p666877","AZXBVNZF65D8K","3087LXLJ6NMH85PJ46SJUKP4Z1V0FD","3VW04L3ZLVC9S1K9XESDYP7BWO4XXD","emotion","mismatch","uniform","","","","","","","","465351.40000000596","467358.5","","","","","","","","","","","","6","","stimuli/stars_6.png","288.5","","","","","stimuli/AF10_AO.jpg","",""
"explore-choice","165","471001","0.0-165.0","p666877","AZXBVNZF65D8K","3087LXLJ6NMH85PJ46SJUKP4Z1V0FD","3VW04L3ZLVC9S1K9XESDYP7BWO4XXD","emotion","mismatch","uniform","","","","","","","5614.200000017881","467359.6999999881","472973.90000000596","[""stimuli/WM11_AO.jpg"",""stimuli/AM05_HE.jpg"",""stimuli/AF10_HO.jpg"",""stimuli/BF04_DO.jpg""]","stimuli/WM11_AO.jpg","stimuli/AM05_HE.jpg","stimuli/AF10_HO.jpg","stimuli/BF04_DO.jpg","pos3","stimuli/AF10_HO.jpg","HO","AF10","2","4","8","8","stimuli/stars_8.png","292.5","[""AO"",""HE"",""HO"",""DO""]","[""WM11"",""AM05"",""AF10"",""BF04""]","[4,6,8,0]","[4,6,8,2]","","",""
"show-reward","166","473006","0.0-166.0","p666877","AZXBVNZF65D8K","3087LXLJ6NMH85PJ46SJUKP4Z1V0FD","3VW04L3ZLVC9S1K9XESDYP7BWO4XXD","emotion","mismatch","uniform","","","","","","","","473479.40000000596","475482.59999999404","","","","","","","","","","","","8","","stimuli/stars_8.png","292.5","","","","","stimuli/AF10_HO.jpg","",""
"explore-choice","167","475121","0.0-167.0","p666877","AZXBVNZF65D8K","3087LXLJ6NMH85PJ46SJUKP4Z1V0FD","3VW04L3ZLVC9S1K9XESDYP7BWO4XXD","emotion","mismatch","uniform","","","","","","","1612.4000000059605","475483.6999999881","477096.09999999404","[""stimuli/AM05_AO.jpg"",""stimuli/WM11_HE.jpg"",""stimuli/BF04_HO.jpg"",""stimuli/AF10_DO.jpg""]","stimuli/AM05_AO.jpg","stimuli/WM11_HE.jpg","stimuli/BF04_HO.jpg","stimuli/AF10_DO.jpg","pos4","stimuli/AF10_DO.jpg","DO","AF10","3","5","10","8","stimuli/stars_10.png","297.5","[""AO"",""HE"",""HO"",""DO""]","[""AM05"",""WM11"",""BF04"",""AF10""]","[7,3,0,10]","[6,4,2,8]","","",""
"show-reward","168","477127","0.0-168.0","p666877","AZXBVNZF65D8K","3087LXLJ6NMH85PJ46SJUKP4Z1V0FD","3VW04L3ZLVC9S1K9XESDYP7BWO4XXD","emotion","mismatch","uniform","","","","","","","","477599","479604.2999999821","","","","","","","","","","","","10","","stimuli/stars_10.png","297.5","","","","","stimuli/AF10_DO.jpg","",""
"explore-choice","169","479551","0.0-169.0","p666877","AZXBVNZF65D8K","3087LXLJ6NMH85PJ46SJUKP4Z1V0FD","3VW04L3ZLVC9S1K9XESDYP7BWO4XXD","emotion","mismatch","uniform","","","","","","","1910.5","479605.5","481516","[""stimuli/AM05_DO.jpg"",""stimuli/AF10_AO.jpg"",""stimuli/WM11_HO.jpg"",""stimuli/BF04_HE.jpg""]","stimuli/AM05_DO.jpg","stimuli/AF10_AO.jpg","stimuli/WM11_HO.jpg","stimuli/BF04_HE.jpg","pos2","stimuli/AF10_AO.jpg","AO","AF10","1","3.5","7","8","stimuli/stars_7.png","301","[""DO"",""AO"",""HO"",""HE""]","[""AM05"",""AF10"",""WM11"",""BF04""]","[5,7,5,3]","[6,8,4,2]","","",""
"show-reward","170","481557","0.0-170.0","p666877","AZXBVNZF65D8K","3087LXLJ6NMH85PJ46SJUKP4Z1V0FD","3VW04L3ZLVC9S1K9XESDYP7BWO4XXD","emotion","mismatch","uniform","","","","","","","","482028.7999999821","484033.5","","","","","","","","","","","","7","","stimuli/stars_7.png","301","","","","","stimuli/AF10_AO.jpg","",""
"explore-choice","171","486513","0.0-171.0","p666877","AZXBVNZF65D8K","3087LXLJ6NMH85PJ46SJUKP4Z1V0FD","3VW04L3ZLVC9S1K9XESDYP7BWO4XXD","emotion","mismatch","uniform","","","","","","","4450.4000000059605","484034.59999999404","488485","[""stimuli/WM11_HO.jpg"",""stimuli/BF04_AO.jpg"",""stimuli/AM05_DO.jpg"",""stimuli/AF10_HE.jpg""]","stimuli/WM11_HO.jpg","stimuli/BF04_AO.jpg","stimuli/AM05_DO.jpg","stimuli/AF10_HE.jpg","pos4","stimuli/AF10_HE.jpg","HE","AF10","3","5","10","8","stimuli/stars_10.png","306","[""HO"",""AO"",""DO"",""HE""]","[""WM11"",""BF04"",""AM05"",""AF10""]","[3,3,7,10]","[4,2,6,8]","","",""
"show-reward","172","488606","0.0-172.0","p666877","AZXBVNZF65D8K","3087LXLJ6NMH85PJ46SJUKP4Z1V0FD","3VW04L3ZLVC9S1K9XESDYP7BWO4XXD","emotion","mismatch","uniform","","","","","","","","488991","491082.2999999821","","","","","","","","","","","","10","","stimuli/stars_10.png","306","","","","","stimuli/AF10_HE.jpg","",""
"explore-choice","173","490985","0.0-173.0","p666877","AZXBVNZF65D8K","3087LXLJ6NMH85PJ46SJUKP4Z1V0FD","3VW04L3ZLVC9S1K9XESDYP7BWO4XXD","emotion","mismatch","uniform","","","","","","","1871.9000000059605","491083.59999999404","492955.5","[""stimuli/AF10_HO.jpg"",""stimuli/BF04_AO.jpg"",""stimuli/AM05_DO.jpg"",""stimuli/WM11_HE.jpg""]","stimuli/AF10_HO.jpg","stimuli/BF04_AO.jpg","stimuli/AM05_DO.jpg","stimuli/WM11_HE.jpg","pos1","stimuli/AF10_HO.jpg","HO","AF10","0","3","6","8","stimuli/stars_6.png","309","[""HO"",""AO"",""DO"",""HE""]","[""AF10"",""BF04"",""AM05"",""WM11""]","[6,4,8,3]","[8,2,6,4]","","",""
"show-reward","174","492987","0.0-174.0","p666877","AZXBVNZF65D8K","3087LXLJ6NMH85PJ46SJUKP4Z1V0FD","3VW04L3ZLVC9S1K9XESDYP7BWO4XXD","emotion","mismatch","uniform","","","","","","","","493462.90000000596","495464.1999999881","","","","","","","","","","","","6","","stimuli/stars_6.png","309","","","","","stimuli/AF10_HO.jpg","",""
"explore-choice","175","495080","0.0-175.0","p666877","AZXBVNZF65D8K","3087LXLJ6NMH85PJ46SJUKP4Z1V0FD","3VW04L3ZLVC9S1K9XESDYP7BWO4XXD","emotion","mismatch","uniform","","","","","","","1588","495465.1999999881","497053.1999999881","[""stimuli/AF10_HE.jpg"",""stimuli/BF04_DO.jpg"",""stimuli/WM11_AO.jpg"",""stimuli/AM05_HO.jpg""]","stimuli/AF10_HE.jpg","stimuli/BF04_DO.jpg","stimuli/WM11_AO.jpg","stimuli/AM05_HO.jpg","pos1","stimuli/AF10_HE.jpg","HE","AF10","0","5","10","8","stimuli/stars_10.png","314","[""HE"",""DO"",""AO"",""HO""]","[""AF10"",""BF04"",""WM11"",""AM05""]","[10,0,4,4]","[8,2,4,6]","","",""
"show-reward","176","497093","0.0-176.0","p666877","AZXBVNZF65D8K","3087LXLJ6NMH85PJ46SJUKP4Z1V0FD","3VW04L3ZLVC9S1K9XESDYP7BWO4XXD","emotion","mismatch","uniform","","","","","","","","497558.09999999404","499569.40000000596","","","","","","","","","","","","10","","stimuli/stars_10.png","314","","","","","stimuli/AF10_HE.jpg","",""
"explore-choice","177","498957","0.0-177.0","p666877","AZXBVNZF65D8K","3087LXLJ6NMH85PJ46SJUKP4Z1V0FD","3VW04L3ZLVC9S1K9XESDYP7BWO4XXD","emotion","mismatch","uniform","","","","","","","1361.800000011921","499570.2999999821","500932.09999999404","[""stimuli/BF04_HO.jpg"",""stimuli/AM05_DO.jpg"",""stimuli/WM11_AO.jpg"",""stimuli/AF10_HE.jpg""]","stimuli/BF04_HO.jpg","stimuli/AM05_DO.jpg","stimuli/WM11_AO.jpg","stimuli/AF10_HE.jpg","pos4","stimuli/AF10_HE.jpg","HE","AF10","3","3.5","7","8","stimuli/stars_7.png","317.5","[""HO"",""DO"",""AO"",""HE""]","[""BF04"",""AM05"",""WM11"",""AF10""]","[1,6,2,7]","[2,6,4,8]","","",""
"show-reward","178","500972","0.0-178.0","p666877","AZXBVNZF65D8K","3087LXLJ6NMH85PJ46SJUKP4Z1V0FD","3VW04L3ZLVC9S1K9XESDYP7BWO4XXD","emotion","mismatch","uniform","","","","","","","","501434.2999999821","503448.40000000596","","","","","","","","","","","","7","","stimuli/stars_7.png","317.5","","","","","stimuli/AF10_HE.jpg","",""
"explore-choice","179","503262","0.0-179.0","p666877","AZXBVNZF65D8K","3087LXLJ6NMH85PJ46SJUKP4Z1V0FD","3VW04L3ZLVC9S1K9XESDYP7BWO4XXD","emotion","mismatch","uniform","","","","","","","1663.199999988079","503449.40000000596","505112.59999999404","[""stimuli/WM11_HO.jpg"",""stimuli/AM05_HE.jpg"",""stimuli/BF04_AO.jpg"",""stimuli/AF10_DO.jpg""]","stimuli/WM11_HO.jpg","stimuli/AM05_HE.jpg","stimuli/BF04_AO.jpg","stimuli/AF10_DO.jpg","pos4","stimuli/AF10_DO.jpg","DO","AF10","3","3.5","7","8","stimuli/stars_7.png","321","[""HO"",""HE"",""AO"",""DO""]","[""WM11"",""AM05"",""BF04"",""AF10""]","[3,4,1,7]","[4,6,2,8]","","",""
"show-reward","180","505275","0.0-180.0","p666877","AZXBVNZF65D8K","3087LXLJ6NMH85PJ46SJUKP4Z1V0FD","3VW04L3ZLVC9S1K9XESDYP7BWO4XXD","emotion","mismatch","uniform","","","","","","","","505740.1999999881","507751.5","","","","","","","","","","","","7","","stimuli/stars_7.png","321","","","","","stimuli/AF10_DO.jpg","",""
"explore-choice","181","507472","0.0-181.0","p666877","AZXBVNZF65D8K","3087LXLJ6NMH85PJ46SJUKP4Z1V0FD","3VW04L3ZLVC9S1K9XESDYP7BWO4XXD","emotion","mismatch","uniform","","","","","","","1689.699999988079","507752.40000000596","509442.09999999404","[""stimuli/AF10_DO.jpg"",""stimuli/WM11_AO.jpg"",""stimuli/BF04_HE.jpg"",""stimuli/AM05_HO.jpg""]","stimuli/AF10_DO.jpg","stimuli/WM11_AO.jpg","stimuli/BF04_HE.jpg","stimuli/AM05_HO.jpg","pos1","stimuli/AF10_DO.jpg","DO","AF10","0","3","6","8","stimuli/stars_6.png","324","[""DO"",""AO"",""HE"",""HO""]","[""AF10"",""WM11"",""BF04"",""AM05""]","[6,3,0,8]","[8,4,2,6]","","",""
"show-reward","182","509482","0.0-182.0","p666877","AZXBVNZF65D8K","3087LXLJ6NMH85PJ46SJUKP4Z1V0FD","3VW04L3ZLVC9S1K9XESDYP7BWO4XXD","emotion","mismatch","uniform","","","","","","","","509950.40000000596","511957.7999999821","","","","","","","","","","","","6","","stimuli/stars_6.png","324","","","","","stimuli/AF10_DO.jpg","",""
"explore-choice","183","515478","0.0-183.0","p666877","AZXBVNZF65D8K","3087LXLJ6NMH85PJ46SJUKP4Z1V0FD","3VW04L3ZLVC9S1K9XESDYP7BWO4XXD","emotion","mismatch","uniform","","","","","","","5315.100000023842","511959.7999999821","517274.90000000596","[""stimuli/AM05_HO.jpg"",""stimuli/WM11_HE.jpg"",""stimuli/BF04_DO.jpg"",""stimuli/AF10_AO.jpg""]","stimuli/AM05_HO.jpg","stimuli/WM11_HE.jpg","stimuli/BF04_DO.jpg","stimuli/AF10_AO.jpg","pos4","stimuli/AF10_AO.jpg","AO","AF10","3","3.5","7","8","stimuli/stars_7.png","327.5","[""HO"",""HE"",""DO"",""AO""]","[""AM05"",""WM11"",""BF04"",""AF10""]","[8,5,3,7]","[6,4,2,8]","","",""
"show-reward","184","517496","0.0-184.0","p666877","AZXBVNZF65D8K","3087LXLJ6NMH85PJ46SJUKP4Z1V0FD","3VW04L3ZLVC9S1K9XESDYP7BWO4XXD","emotion","mismatch","uniform","","","","","","","","517956.2999999821","519972.59999999404","","","","","","","","","","","","7","","stimuli/stars_7.png","327.5","","","","","stimuli/AF10_AO.jpg","",""
"explore-choice","185","519548","0.0-185.0","p666877","AZXBVNZF65D8K","3087LXLJ6NMH85PJ46SJUKP4Z1V0FD","3VW04L3ZLVC9S1K9XESDYP7BWO4XXD","emotion","mismatch","uniform","","","","","","","1550.699999988079","519973.90000000596","521524.59999999404","[""stimuli/BF04_HE.jpg"",""stimuli/AF10_HO.jpg"",""stimuli/WM11_AO.jpg"",""stimuli/AM05_DO.jpg""]","stimuli/BF04_HE.jpg","stimuli/AF10_HO.jpg","stimuli/WM11_AO.jpg","stimuli/AM05_DO.jpg","pos2","stimuli/AF10_HO.jpg","HO","AF10","1","4.5","9","8","stimuli/stars_9.png","332","[""HE"",""HO"",""AO"",""DO""]","[""BF04"",""AF10"",""WM11"",""AM05""]","[1,9,6,5]","[2,8,4,6]","","",""
"show-reward","186","521560","0.0-186.0","p666877","AZXBVNZF65D8K","3087LXLJ6NMH85PJ46SJUKP4Z1V0FD","3VW04L3ZLVC9S1K9XESDYP7BWO4XXD","emotion","mismatch","uniform","","","","","","","","522026.59999999404","524036.59999999404","","","","","","","","","","","","9","","stimuli/stars_9.png","332","","","","","stimuli/AF10_HO.jpg","",""
"explore-choice","187","523841","0.0-187.0","p666877","AZXBVNZF65D8K","3087LXLJ6NMH85PJ46SJUKP4Z1V0FD","3VW04L3ZLVC9S1K9XESDYP7BWO4XXD","emotion","mismatch","uniform","","","","","","","1754.5","524037.90000000596","525792.400000006","[""stimuli/AF10_HE.jpg"",""stimuli/AM05_AO.jpg"",""stimuli/BF04_HO.jpg"",""stimuli/WM11_DO.jpg""]","stimuli/AF10_HE.jpg","stimuli/AM05_AO.jpg","stimuli/BF04_HO.jpg","stimuli/WM11_DO.jpg","pos1","stimuli/AF10_HE.jpg","HE","AF10","0","4","8","8","stimuli/stars_8.png","336","[""HE"",""AO"",""HO"",""DO""]","[""AF10"",""AM05"",""BF04"",""WM11""]","[8,8,1,4]","[8,6,2,4]","","",""
"show-reward","188","525860","0.0-188.0","p666877","AZXBVNZF65D8K","3087LXLJ6NMH85PJ46SJUKP4Z1V0FD","3VW04L3ZLVC9S1K9XESDYP7BWO4XXD","emotion","mismatch","uniform","","","","","","","","526318.7999999821","528336.599999994","","","","","","","","","","","","8","","stimuli/stars_8.png","336","","","","","stimuli/AF10_HE.jpg","",""
"explore-choice","189","528164","0.0-189.0","p666877","AZXBVNZF65D8K","3087LXLJ6NMH85PJ46SJUKP4Z1V0FD","3VW04L3ZLVC9S1K9XESDYP7BWO4XXD","emotion","mismatch","uniform","","","","","","","1794","528338.2999999821","530132.2999999821","[""stimuli/WM11_HE.jpg"",""stimuli/AF10_DO.jpg"",""stimuli/AM05_HO.jpg"",""stimuli/BF04_AO.jpg""]","stimuli/WM11_HE.jpg","stimuli/AF10_DO.jpg","stimuli/AM05_HO.jpg","stimuli/BF04_AO.jpg","pos2","stimuli/AF10_DO.jpg","DO","AF10","1","5","10","8","stimuli/stars_10.png","341","[""HE"",""DO"",""HO"",""AO""]","[""WM11"",""AF10"",""AM05"",""BF04""]","[5,10,6,3]","[4,8,6,2]","","",""
"show-reward","190","530281","0.0-190.0","p666877","AZXBVNZF65D8K","3087LXLJ6NMH85PJ46SJUKP4Z1V0FD","3VW04L3ZLVC9S1K9XESDYP7BWO4XXD","emotion","mismatch","uniform","","","","","","","","530641.7999999821","532757.6999999881","","","","","","","","","","","","10","","stimuli/stars_10.png","341","","","","","stimuli/AF10_DO.jpg","",""
"explore-choice","191","532242","0.0-191.0","p666877","AZXBVNZF65D8K","3087LXLJ6NMH85PJ46SJUKP4Z1V0FD","3VW04L3ZLVC9S1K9XESDYP7BWO4XXD","emotion","mismatch","uniform","","","","","","","1444.699999988079","532759","534203.6999999881","[""stimuli/WM11_HE.jpg"",""stimuli/AF10_AO.jpg"",""stimuli/AM05_DO.jpg"",""stimuli/BF04_HO.jpg""]","stimuli/WM11_HE.jpg","stimuli/AF10_AO.jpg","stimuli/AM05_DO.jpg","stimuli/BF04_HO.jpg","pos2","stimuli/AF10_AO.jpg","AO","AF10","1","3","6","8","stimuli/stars_6.png","344","[""HE"",""AO"",""DO"",""HO""]","[""WM11"",""AF10"",""AM05"",""BF04""]","[4,6,5,3]","[4,8,6,2]","","",""
"show-reward","192","534253","0.0-192.0","p666877","AZXBVNZF65D8K","3087LXLJ6NMH85PJ46SJUKP4Z1V0FD","3VW04L3ZLVC9S1K9XESDYP7BWO4XXD","emotion","mismatch","uniform","","","","","","","","534720","536729.2999999821","","","","","","","","","","","","6","","stimuli/stars_6.png","344","","","","","stimuli/AF10_AO.jpg","",""
"explore-choice","193","542469","0.0-193.0","p666877","AZXBVNZF65D8K","3087LXLJ6NMH85PJ46SJUKP4Z1V0FD","3VW04L3ZLVC9S1K9XESDYP7BWO4XXD","emotion","mismatch","uniform","","","","","","","7711.199999988079","536731","544442.1999999881","[""stimuli/BF04_HE.jpg"",""stimuli/AF10_AO.jpg"",""stimuli/WM11_DO.jpg"",""stimuli/AM05_HO.jpg""]","stimuli/BF04_HE.jpg","stimuli/AF10_AO.jpg","stimuli/WM11_DO.jpg","stimuli/AM05_HO.jpg","pos2","stimuli/AF10_AO.jpg","AO","AF10","1","3","6","8","stimuli/stars_6.png","347","[""HE"",""AO"",""DO"",""HO""]","[""BF04"",""AF10"",""WM11"",""AM05""]","[2,6,4,5]","[2,8,4,6]","","",""
"show-reward","194","544486","0.0-194.0","p666877","AZXBVNZF65D8K","3087LXLJ6NMH85PJ46SJUKP4Z1V0FD","3VW04L3ZLVC9S1K9XESDYP7BWO4XXD","emotion","mismatch","uniform","","","","","","","","544952.2999999821","546967.5","","","","","","","","","","","","6","","stimuli/stars_6.png","347","","","","","stimuli/AF10_AO.jpg","",""
"explore-choice","195","548562","0.0-195.0","p666877","AZXBVNZF65D8K","3087LXLJ6NMH85PJ46SJUKP4Z1V0FD","3VW04L3ZLVC9S1K9XESDYP7BWO4XXD","emotion","mismatch","uniform","","","","","","","3573.5","546968.599999994","550542.099999994","[""stimuli/WM11_AO.jpg"",""stimuli/BF04_HO.jpg"",""stimuli/AM05_HE.jpg"",""stimuli/AF10_DO.jpg""]","stimuli/WM11_AO.jpg","stimuli/BF04_HO.jpg","stimuli/AM05_HE.jpg","stimuli/AF10_DO.jpg","pos4","stimuli/AF10_DO.jpg","DO","AF10","3","5","10","8","stimuli/stars_10.png","352","[""AO"",""HO"",""HE"",""DO""]","[""WM11"",""BF04"",""AM05"",""AF10""]","[6,2,7,10]","[4,2,6,8]","","",""
"show-reward","196","550724","0.0-196.0","p666877","AZXBVNZF65D8K","3087LXLJ6NMH85PJ46SJUKP4Z1V0FD","3VW04L3ZLVC9S1K9XESDYP7BWO4XXD","emotion","mismatch","uniform","","","","","","","","551045","553205.400000006","","","","","","","","","","","","10","","stimuli/stars_10.png","352","","","","","stimuli/AF10_DO.jpg","",""
"explore-choice","197","555723","0.0-197.0","p666877","AZXBVNZF65D8K","3087LXLJ6NMH85PJ46SJUKP4Z1V0FD","3VW04L3ZLVC9S1K9XESDYP7BWO4XXD","emotion","mismatch","uniform","","","","","","","4497.5","553206.599999994","557704.099999994","[""stimuli/AM05_AO.jpg"",""stimuli/AF10_HE.jpg"",""stimuli/WM11_HO.jpg"",""stimuli/BF04_DO.jpg""]","stimuli/AM05_AO.jpg","stimuli/AF10_HE.jpg","stimuli/WM11_HO.jpg","stimuli/BF04_DO.jpg","pos2","stimuli/AF10_HE.jpg","HE","AF10","1","4.5","9","8","stimuli/stars_9.png","356.5","[""AO"",""HE"",""HO"",""DO""]","[""AM05"",""AF10"",""WM11"",""BF04""]","[5,9,4,4]","[6,8,4,2]","","",""
"show-reward","198","557726","0.0-198.0","p666877","AZXBVNZF65D8K","3087LXLJ6NMH85PJ46SJUKP4Z1V0FD","3VW04L3ZLVC9S1K9XESDYP7BWO4XXD","emotion","mismatch","uniform","","","","","","","","558205.6999999881","560207.900000006","","","","","","","","","","","","9","","stimuli/stars_9.png","356.5","","","","","stimuli/AF10_HE.jpg","",""
"instructions","199","571980","0.0-199.0","p666877","AZXBVNZF65D8K","3087LXLJ6NMH85PJ46SJUKP4Z1V0FD","3VW04L3ZLVC9S1K9XESDYP7BWO4XXD","emotion","mismatch","uniform","","","","","","[{""page_index"":0,""viewing_time"":14252.800000011921}]","14253.40000000596","","","","","","","","","","","","","","","","","","","","","","","",""
"survey-text","200","576333","0.0-200.0-0.0","p666877","AZXBVNZF65D8K","3087LXLJ6NMH85PJ46SJUKP4Z1V0FD","3VW04L3ZLVC9S1K9XESDYP7BWO4XXD","emotion","mismatch","uniform","","","","","","","4345.699999988079","","","","","","","","","","","","","","","","","","","","","","","{""age"":""29""}",""
"survey-text","201","585541","0.0-200.0-1.0","p666877","AZXBVNZF65D8K","3087LXLJ6NMH85PJ46SJUKP4Z1V0FD","3VW04L3ZLVC9S1K9XESDYP7BWO4XXD","emotion","mismatch","uniform","","","","","","","9205","","","","","","","","","","","","","","","","","","","","","","","{""gender"":""Female""}",""
"survey-text","202","594618","0.0-200.0-2.0","p666877","AZXBVNZF65D8K","3087LXLJ6NMH85PJ46SJUKP4Z1V0FD","3VW04L3ZLVC9S1K9XESDYP7BWO4XXD","emotion","mismatch","uniform","","","","","","","9074.300000011921","","","","","","","","","","","","","","","","","","","","","","","{""country"":""United States""}",""
"survey-text","203","608200","0.0-200.0-3.0","p666877","AZXBVNZF65D8K","3087LXLJ6NMH85PJ46SJUKP4Z1V0FD","3VW04L3ZLVC9S1K9XESDYP7BWO4XXD","emotion","mismatch","uniform","","","","","","","13572.700000017881","","","","","","","","","","","","","","","","","","","","","","","{""language"":""English"",""other_languages"":""""}",""
"survey-multi-select","204","615069","0.0-201.0","p666877","AZXBVNZF65D8K","3087LXLJ6NMH85PJ46SJUKP4Z1V0FD","3VW04L3ZLVC9S1K9XESDYP7BWO4XXD","emotion","mismatch","uniform","","","","","","","6862.699999988079","","","","","","","","","","","","","","","","","","","","","","","{""race"":[""White""]}","[0]"
"survey-multi-choice","205","618106","0.0-202.0","p666877","AZXBVNZF65D8K","3087LXLJ6NMH85PJ46SJUKP4Z1V0FD","3VW04L3ZLVC9S1K9XESDYP7BWO4XXD","emotion","mismatch","uniform","","","","","","","3029","","","","","","","","","","","","","","","","","","","","","","","{""education"":""Bachelor's degree""}","[0]"
"survey-text","206","645758","0.0-203.0","p666877","AZXBVNZF65D8K","3087LXLJ6NMH85PJ46SJUKP4Z1V0FD","3VW04L3ZLVC9S1K9XESDYP7BWO4XXD","emotion","mismatch","uniform","","","","","","","27639.69999998808","","","","","","","","","","","","","","","","","","","","","","","{""patterns"":""No"",""strategy"":"""",""comments"":""It was good to complete this study.""}",""
