"trial_type","trial_index","time_elapsed","internal_node_id","subject","workerId","hitId","assignmentId","structure_condition","match_condition","noise_type","success","timeout","failed_images","failed_audio","failed_video","view_history","rt","start_time","end_time","stimuli","image1","image2","image3","image4","choiceLocation","choiceImage","choiceEmotion","choiceModel","choice_index","reward_score","reward","reward_score_unadjusted","reward_image","score_after_trial","emotions","models","rewards","rewards_unadjusted","stimulus","response","question_order"
"pavlovia","0","31","0.0-0.0","p816686","A48WNR6C4CI3J","3S1L4CQSFYBD9IN1W8PCJQ1H8N7AFE","3OE22WJIGKUX20P26VMYKACE530UQL","model","match","uniform","","","","","","","","","","","","","","","","","","","","","","","","","","","","","","",""
"preload","1","6101","0.0-1.0","p816686","A48WNR6C4CI3J","3S1L4CQSFYBD9IN1W8PCJQ1H8N7AFE","3OE22WJIGKUX20P26VMYKACE530UQL","model","match","uniform","true","false","[]","[]","[]","","","","","","","","","","","","","","","","","","","","","","","","","",""
"fullscreen","2","11546","0.0-2.0","p816686","A48WNR6C4CI3J","3S1L4CQSFYBD9IN1W8PCJQ1H8N7AFE","3OE22WJIGKUX20P26VMYKACE530UQL","model","match","uniform","true","","","","","","","","","","","","","","","","","","","","","","","","","","","","","",""
"instructions","3","15088","0.0-3.0","p816686","A48WNR6C4CI3J","3S1L4CQSFYBD9IN1W8PCJQ1H8N7AFE","3OE22WJIGKUX20P26VMYKACE530UQL","model","match","uniform","","","","","","[{""page_index"":0,""viewing_time"":3539.60000000149}]","3540.1999999955297","","","","","","","","","","","","","","","","","","","","","","","",""
"explore-choice","4","18017","0.0-4.0","p816686","A48WNR6C4CI3J","3S1L4CQSFYBD9IN1W8PCJQ1H8N7AFE","3OE22WJIGKUX20P26VMYKACE530UQL","model","match","uniform","","","","","","","2425.5","16516","18941.5","[""stimuli/sheep.jpg"",""stimuli/hammer.jpg"",""stimuli/basketball.jpg"",""stimuli/horse.jpg""]","stimuli/sheep.jpg","stimuli/hammer.jpg","stimuli/basketball.jpg","stimuli/horse.jpg","pos4","stimuli/horse.jpg","","","3","64","64","64","stimuli/stars_8.png","65","","","","","","",""
"explore-choice","5","20025","0.0-5.0","p816686","A48WNR6C4CI3J","3S1L4CQSFYBD9IN1W8PCJQ1H8N7AFE","3OE22WJIGKUX20P26VMYKACE530UQL","model","match","uniform","","","","","","","1505.6000000014901","19444.60000000149","20950.20000000298","[""stimuli/hammer.jpg"",""stimuli/basketball.jpg"",""stimuli/horse.jpg"",""stimuli/sheep.jpg""]","stimuli/hammer.jpg","stimuli/basketball.jpg","stimuli/horse.jpg","stimuli/sheep.jpg","pos1","stimuli/hammer.jpg","","","0","8","8","8","stimuli/stars_2.png","9","","","","","","",""
"instructions","6","30908","0.0-6.0","p816686","A48WNR6C4CI3J","3S1L4CQSFYBD9IN1W8PCJQ1H8N7AFE","3OE22WJIGKUX20P26VMYKACE530UQL","model","match","uniform","","","","","","[{""page_index"":0,""viewing_time"":10880.60000000149}]","10881.39999999851","","","","","","","","","","","","","","","","","","","","","","","",""
"explore-choice","7","33361","0.0-7.0","p816686","A48WNR6C4CI3J","3S1L4CQSFYBD9IN1W8PCJQ1H8N7AFE","3OE22WJIGKUX20P26VMYKACE530UQL","model","match","uniform","","","","","","","1949.3999999985099","32336.20000000298","34285.60000000149","[""stimuli/AM09_HO.jpg"",""stimuli/WM11_FO.jpg"",""stimuli/BF08_HE.jpg"",""stimuli/WM07_SUR.jpg""]","stimuli/AM09_HO.jpg","stimuli/WM11_FO.jpg","stimuli/BF08_HE.jpg","stimuli/WM07_SUR.jpg","pos2","stimuli/WM11_FO.jpg","FO","WM11","1","3","6","8","stimuli/stars_6.png","4","[""HO"",""FO"",""HE"",""SUR""]","[""AM09"",""WM11"",""BF08"",""WM07""]","[5,6,6,2]","[6,8,4,2]","","",""
"show-reward","8","35368","0.0-8.0","p816686","A48WNR6C4CI3J","3S1L4CQSFYBD9IN1W8PCJQ1H8N7AFE","3OE22WJIGKUX20P26VMYKACE530UQL","model","match","uniform","","","","","","","","34788.90000000596","36793.30000000447","","","","","","","","","","","","6","","stimuli/stars_6.png","4","","","","","stimuli/WM11_FO.jpg","",""
"explore-choice","9","37832","0.0-9.0","p816686","A48WNR6C4CI3J","3S1L4CQSFYBD9IN1W8PCJQ1H8N7AFE","3OE22WJIGKUX20P26VMYKACE530UQL","model","match","uniform","","","","","","","1962.6000000014901","36795.30000000447","38757.90000000596","[""stimuli/AM09_HE.jpg"",""stimuli/WM07_SUR.jpg"",""stimuli/WM11_HO.jpg"",""stimuli/BF08_FO.jpg""]","stimuli/AM09_HE.jpg","stimuli/WM07_SUR.jpg","stimuli/WM11_HO.jpg","stimuli/BF08_FO.jpg","pos3","stimuli/WM11_HO.jpg","HO","WM11","2","3.5","7","8","stimuli/stars_7.png","7.5","[""HE"",""SUR"",""HO"",""FO""]","[""AM09"",""WM07"",""WM11"",""BF08""]","[8,0,7,4]","[6,2,8,4]","","",""
"show-reward","10","39836","0.0-10.0","p816686","A48WNR6C4CI3J","3S1L4CQSFYBD9IN1W8PCJQ1H8N7AFE","3OE22WJIGKUX20P26VMYKACE530UQL","model","match","uniform","","","","","","","","39259.5","41261.40000000596","","","","","","","","","","","","7","","stimuli/stars_7.png","7.5","","","","","stimuli/WM11_HO.jpg","",""
"explore-choice","11","42123","0.0-11.0","p816686","A48WNR6C4CI3J","3S1L4CQSFYBD9IN1W8PCJQ1H8N7AFE","3OE22WJIGKUX20P26VMYKACE530UQL","model","match","uniform","","","","","","","1785.4000000059605","41263.5","43048.90000000596","[""stimuli/BF08_HE.jpg"",""stimuli/WM11_HO.jpg"",""stimuli/AM09_SUR.jpg"",""stimuli/WM07_FO.jpg""]","stimuli/BF08_HE.jpg","stimuli/WM11_HO.jpg","stimuli/AM09_SUR.jpg","stimuli/WM07_FO.jpg","pos1","stimuli/BF08_HE.jpg","HE","BF08","0","1","2","4","stimuli/stars_2.png","8.5","[""HE"",""HO"",""SUR"",""FO""]","[""BF08"",""WM11"",""AM09"",""WM07""]","[2,7,6,0]","[4,8,6,2]","","",""
"show-reward","12","44127","0.0-12.0","p816686","A48WNR6C4CI3J","3S1L4CQSFYBD9IN1W8PCJQ1H8N7AFE","3OE22WJIGKUX20P26VMYKACE530UQL","model","match","uniform","","","","","","","","43550.70000000298","45553.30000000447","","","","","","","","","","","","2","","stimuli/stars_2.png","8.5","","","","","stimuli/BF08_HE.jpg","",""
"explore-choice","13","47181","0.0-13.0","p816686","A48WNR6C4CI3J","3S1L4CQSFYBD9IN1W8PCJQ1H8N7AFE","3OE22WJIGKUX20P26VMYKACE530UQL","model","match","uniform","","","","","","","2551.6999999955297","45554.40000000596","48106.10000000149","[""stimuli/AM09_FO.jpg"",""stimuli/WM07_SUR.jpg"",""stimuli/WM11_HO.jpg"",""stimuli/BF08_HE.jpg""]","stimuli/AM09_FO.jpg","stimuli/WM07_SUR.jpg","stimuli/WM11_HO.jpg","stimuli/BF08_HE.jpg","pos2","stimuli/WM07_SUR.jpg","SUR","WM07","1","2","4","2","stimuli/stars_4.png","10.5","[""FO"",""SUR"",""HO"",""HE""]","[""AM09"",""WM07"",""WM11"",""BF08""]","[4,4,10,3]","[6,2,8,4]","","",""
"show-reward","14","49184","0.0-14.0","p816686","A48WNR6C4CI3J","3S1L4CQSFYBD9IN1W8PCJQ1H8N7AFE","3OE22WJIGKUX20P26VMYKACE530UQL","model","match","uniform","","","","","","","","48607.70000000298","50609.70000000298","","","","","","","","","","","","4","","stimuli/stars_4.png","10.5","","","","","stimuli/WM07_SUR.jpg","",""
"explore-choice","15","50665","0.0-15.0","p816686","A48WNR6C4CI3J","3S1L4CQSFYBD9IN1W8PCJQ1H8N7AFE","3OE22WJIGKUX20P26VMYKACE530UQL","model","match","uniform","","","","","","","978.9000000059605","50611","51589.90000000596","[""stimuli/AM09_SUR.jpg"",""stimuli/WM07_FO.jpg"",""stimuli/BF08_HO.jpg"",""stimuli/WM11_HE.jpg""]","stimuli/AM09_SUR.jpg","stimuli/WM07_FO.jpg","stimuli/BF08_HO.jpg","stimuli/WM11_HE.jpg","pos1","stimuli/AM09_SUR.jpg","SUR","AM09","0","4","8","6","stimuli/stars_8.png","14.5","[""SUR"",""FO"",""HO"",""HE""]","[""AM09"",""WM07"",""BF08"",""WM11""]","[8,1,4,10]","[6,2,4,8]","","",""
"show-reward","16","52671","0.0-16.0","p816686","A48WNR6C4CI3J","3S1L4CQSFYBD9IN1W8PCJQ1H8N7AFE","3OE22WJIGKUX20P26VMYKACE530UQL","model","match","uniform","","","","","","","","52092.80000000447","54096.90000000596","","","","","","","","","","","","8","","stimuli/stars_8.png","14.5","","","","","stimuli/AM09_SUR.jpg","",""
"explore-choice","17","54168","0.0-17.0","p816686","A48WNR6C4CI3J","3S1L4CQSFYBD9IN1W8PCJQ1H8N7AFE","3OE22WJIGKUX20P26VMYKACE530UQL","model","match","uniform","","","","","","","994.6000000014901","54098.5","55093.10000000149","[""stimuli/AM09_SUR.jpg"",""stimuli/WM11_HO.jpg"",""stimuli/WM07_HE.jpg"",""stimuli/BF08_FO.jpg""]","stimuli/AM09_SUR.jpg","stimuli/WM11_HO.jpg","stimuli/WM07_HE.jpg","stimuli/BF08_FO.jpg","pos1","stimuli/AM09_SUR.jpg","SUR","AM09","0","3","6","6","stimuli/stars_6.png","17.5","[""SUR"",""HO"",""HE"",""FO""]","[""AM09"",""WM11"",""WM07"",""BF08""]","[6,8,4,3]","[6,8,2,4]","","",""
"show-reward","18","56174","0.0-18.0","p816686","A48WNR6C4CI3J","3S1L4CQSFYBD9IN1W8PCJQ1H8N7AFE","3OE22WJIGKUX20P26VMYKACE530UQL","model","match","uniform","","","","","","","","55595.80000000447","57599.5","","","","","","","","","","","","6","","stimuli/stars_6.png","17.5","","","","","stimuli/AM09_SUR.jpg","",""
"explore-choice","19","58217","0.0-19.0","p816686","A48WNR6C4CI3J","3S1L4CQSFYBD9IN1W8PCJQ1H8N7AFE","3OE22WJIGKUX20P26VMYKACE530UQL","model","match","uniform","","","","","","","1540.3000000044703","57601.60000000149","59141.90000000596","[""stimuli/BF08_HE.jpg"",""stimuli/AM09_HO.jpg"",""stimuli/WM07_FO.jpg"",""stimuli/WM11_SUR.jpg""]","stimuli/BF08_HE.jpg","stimuli/AM09_HO.jpg","stimuli/WM07_FO.jpg","stimuli/WM11_SUR.jpg","pos2","stimuli/AM09_HO.jpg","HO","AM09","1","3","6","6","stimuli/stars_6.png","20.5","[""HE"",""HO"",""FO"",""SUR""]","[""BF08"",""AM09"",""WM07"",""WM11""]","[4,6,4,6]","[4,6,2,8]","","",""
"show-reward","20","60223","0.0-20.0","p816686","A48WNR6C4CI3J","3S1L4CQSFYBD9IN1W8PCJQ1H8N7AFE","3OE22WJIGKUX20P26VMYKACE530UQL","model","match","uniform","","","","","","","","59644.70000000298","61648.5","","","","","","","","","","","","6","","stimuli/stars_6.png","20.5","","","","","stimuli/AM09_HO.jpg","",""
"explore-choice","21","61785","0.0-21.0","p816686","A48WNR6C4CI3J","3S1L4CQSFYBD9IN1W8PCJQ1H8N7AFE","3OE22WJIGKUX20P26VMYKACE530UQL","model","match","uniform","","","","","","","1059","61650.80000000447","62709.80000000447","[""stimuli/AM09_HE.jpg"",""stimuli/BF08_FO.jpg"",""stimuli/WM07_HO.jpg"",""stimuli/WM11_SUR.jpg""]","stimuli/AM09_HE.jpg","stimuli/BF08_FO.jpg","stimuli/WM07_HO.jpg","stimuli/WM11_SUR.jpg","pos1","stimuli/AM09_HE.jpg","HE","AM09","0","2","4","6","stimuli/stars_4.png","22.5","[""HE"",""FO"",""HO"",""SUR""]","[""AM09"",""BF08"",""WM07"",""WM11""]","[4,3,2,7]","[6,4,2,8]","","",""
"show-reward","22","63790","0.0-22.0","p816686","A48WNR6C4CI3J","3S1L4CQSFYBD9IN1W8PCJQ1H8N7AFE","3OE22WJIGKUX20P26VMYKACE530UQL","model","match","uniform","","","","","","","","63212.20000000298","65215.90000000596","","","","","","","","","","","","4","","stimuli/stars_4.png","22.5","","","","","stimuli/AM09_HE.jpg","",""
"explore-choice","23","65929","0.0-23.0","p816686","A48WNR6C4CI3J","3S1L4CQSFYBD9IN1W8PCJQ1H8N7AFE","3OE22WJIGKUX20P26VMYKACE530UQL","model","match","uniform","","","","","","","1636.2000000029802","65218.10000000149","66854.30000000447","[""stimuli/WM07_HO.jpg"",""stimuli/WM11_SUR.jpg"",""stimuli/BF08_HE.jpg"",""stimuli/AM09_FO.jpg""]","stimuli/WM07_HO.jpg","stimuli/WM11_SUR.jpg","stimuli/BF08_HE.jpg","stimuli/AM09_FO.jpg","pos2","stimuli/WM11_SUR.jpg","SUR","WM11","1","3.5","7","8","stimuli/stars_7.png","26","[""HO"",""SUR"",""HE"",""FO""]","[""WM07"",""WM11"",""BF08"",""AM09""]","[0,7,5,7]","[2,8,4,6]","","",""
"show-reward","24","67932","0.0-24.0","p816686","A48WNR6C4CI3J","3S1L4CQSFYBD9IN1W8PCJQ1H8N7AFE","3OE22WJIGKUX20P26VMYKACE530UQL","model","match","uniform","","","","","","","","67355.70000000298","69357.5","","","","","","","","","","","","7","","stimuli/stars_7.png","26","","","","","stimuli/WM11_SUR.jpg","",""
"explore-choice","25","70072","0.0-25.0","p816686","A48WNR6C4CI3J","3S1L4CQSFYBD9IN1W8PCJQ1H8N7AFE","3OE22WJIGKUX20P26VMYKACE530UQL","model","match","uniform","","","","","","","1637.7999999970198","69359.70000000298","70997.5","[""stimuli/AM09_SUR.jpg"",""stimuli/BF08_HO.jpg"",""stimuli/WM07_HE.jpg"",""stimuli/WM11_FO.jpg""]","stimuli/AM09_SUR.jpg","stimuli/BF08_HO.jpg","stimuli/WM07_HE.jpg","stimuli/WM11_FO.jpg","pos4","stimuli/WM11_FO.jpg","FO","WM11","3","5","10","8","stimuli/stars_10.png","31","[""SUR"",""HO"",""HE"",""FO""]","[""AM09"",""BF08"",""WM07"",""WM11""]","[7,3,0,10]","[6,4,2,8]","","",""
"show-reward","26","72081","0.0-26.0","p816686","A48WNR6C4CI3J","3S1L4CQSFYBD9IN1W8PCJQ1H8N7AFE","3OE22WJIGKUX20P26VMYKACE530UQL","model","match","uniform","","","","","","","","71500.20000000298","73506.70000000298","","","","","","","","","","","","10","","stimuli/stars_10.png","31","","","","","stimuli/WM11_FO.jpg","",""
"explore-choice","27","74640","0.0-27.0","p816686","A48WNR6C4CI3J","3S1L4CQSFYBD9IN1W8PCJQ1H8N7AFE","3OE22WJIGKUX20P26VMYKACE530UQL","model","match","uniform","","","","","","","2057.6999999955297","73507.80000000447","75565.5","[""stimuli/BF08_FO.jpg"",""stimuli/AM09_HO.jpg"",""stimuli/WM07_HE.jpg"",""stimuli/WM11_SUR.jpg""]","stimuli/BF08_FO.jpg","stimuli/AM09_HO.jpg","stimuli/WM07_HE.jpg","stimuli/WM11_SUR.jpg","pos4","stimuli/WM11_SUR.jpg","SUR","WM11","3","4.5","9","8","stimuli/stars_9.png","35.5","[""FO"",""HO"",""HE"",""SUR""]","[""BF08"",""AM09"",""WM07"",""WM11""]","[4,4,4,9]","[4,6,2,8]","","",""
"show-reward","28","76646","0.0-28.0","p816686","A48WNR6C4CI3J","3S1L4CQSFYBD9IN1W8PCJQ1H8N7AFE","3OE22WJIGKUX20P26VMYKACE530UQL","model","match","uniform","","","","","","","","76068","78072.10000000149","","","","","","","","","","","","9","","stimuli/stars_9.png","35.5","","","","","stimuli/WM11_SUR.jpg","",""
"explore-choice","29","78688","0.0-29.0","p816686","A48WNR6C4CI3J","3S1L4CQSFYBD9IN1W8PCJQ1H8N7AFE","3OE22WJIGKUX20P26VMYKACE530UQL","model","match","uniform","","","","","","","1539.3000000044703","78074.10000000149","79613.40000000596","[""stimuli/BF08_SUR.jpg"",""stimuli/WM11_HE.jpg"",""stimuli/WM07_FO.jpg"",""stimuli/AM09_HO.jpg""]","stimuli/BF08_SUR.jpg","stimuli/WM11_HE.jpg","stimuli/WM07_FO.jpg","stimuli/AM09_HO.jpg","pos2","stimuli/WM11_HE.jpg","HE","WM11","1","5","10","8","stimuli/stars_10.png","40.5","[""SUR"",""HE"",""FO"",""HO""]","[""BF08"",""WM11"",""WM07"",""AM09""]","[5,10,3,8]","[4,8,2,6]","","",""
"show-reward","30","80691","0.0-30.0","p816686","A48WNR6C4CI3J","3S1L4CQSFYBD9IN1W8PCJQ1H8N7AFE","3OE22WJIGKUX20P26VMYKACE530UQL","model","match","uniform","","","","","","","","80114.70000000298","82116.70000000298","","","","","","","","","","","","10","","stimuli/stars_10.png","40.5","","","","","stimuli/WM11_HE.jpg","",""
"explore-choice","31","85273","0.0-31.0","p816686","A48WNR6C4CI3J","3S1L4CQSFYBD9IN1W8PCJQ1H8N7AFE","3OE22WJIGKUX20P26VMYKACE530UQL","model","match","uniform","","","","","","","4079.2999999970198","82118.70000000298","86198","[""stimuli/WM11_FO.jpg"",""stimuli/BF08_HO.jpg"",""stimuli/AM09_HE.jpg"",""stimuli/WM07_SUR.jpg""]","stimuli/WM11_FO.jpg","stimuli/BF08_HO.jpg","stimuli/AM09_HE.jpg","stimuli/WM07_SUR.jpg","pos1","stimuli/WM11_FO.jpg","FO","WM11","0","4.5","9","8","stimuli/stars_9.png","45","[""FO"",""HO"",""HE"",""SUR""]","[""WM11"",""BF08"",""AM09"",""WM07""]","[9,5,4,1]","[8,4,6,2]","","",""
"show-reward","32","87279","0.0-32.0","p816686","A48WNR6C4CI3J","3S1L4CQSFYBD9IN1W8PCJQ1H8N7AFE","3OE22WJIGKUX20P26VMYKACE530UQL","model","match","uniform","","","","","","","","86700.70000000298","88704.60000000149","","","","","","","","","","","","9","","stimuli/stars_9.png","45","","","","","stimuli/WM11_FO.jpg","",""
"explore-choice","33","89268","0.0-33.0","p816686","A48WNR6C4CI3J","3S1L4CQSFYBD9IN1W8PCJQ1H8N7AFE","3OE22WJIGKUX20P26VMYKACE530UQL","model","match","uniform","","","","","","","1487.8000000044703","88705.60000000149","90193.40000000596","[""stimuli/AM09_HO.jpg"",""stimuli/WM11_HE.jpg"",""stimuli/BF08_FO.jpg"",""stimuli/WM07_SUR.jpg""]","stimuli/AM09_HO.jpg","stimuli/WM11_HE.jpg","stimuli/BF08_FO.jpg","stimuli/WM07_SUR.jpg","pos2","stimuli/WM11_HE.jpg","HE","WM11","1","4","8","8","stimuli/stars_8.png","49","[""HO"",""HE"",""FO"",""SUR""]","[""AM09"",""WM11"",""BF08"",""WM07""]","[8,8,2,0]","[6,8,4,2]","","",""
"show-reward","34","91275","0.0-34.0","p816686","A48WNR6C4CI3J","3S1L4CQSFYBD9IN1W8PCJQ1H8N7AFE","3OE22WJIGKUX20P26VMYKACE530UQL","model","match","uniform","","","","","","","","90696.20000000298","92700.5","","","","","","","","","","","","8","","stimuli/stars_8.png","49","","","","","stimuli/WM11_HE.jpg","",""
"explore-choice","35","94199","0.0-35.0","p816686","A48WNR6C4CI3J","3S1L4CQSFYBD9IN1W8PCJQ1H8N7AFE","3OE22WJIGKUX20P26VMYKACE530UQL","model","match","uniform","","","","","","","2422","92702.5","95124.5","[""stimuli/WM07_FO.jpg"",""stimuli/WM11_HO.jpg"",""stimuli/BF08_SUR.jpg"",""stimuli/AM09_HE.jpg""]","stimuli/WM07_FO.jpg","stimuli/WM11_HO.jpg","stimuli/BF08_SUR.jpg","stimuli/AM09_HE.jpg","pos3","stimuli/BF08_SUR.jpg","SUR","BF08","2","3","6","4","stimuli/stars_6.png","52","[""FO"",""HO"",""SUR"",""HE""]","[""WM07"",""WM11"",""BF08"",""AM09""]","[0,6,6,8]","[2,8,4,6]","","",""
"show-reward","36","96202","0.0-36.0","p816686","A48WNR6C4CI3J","3S1L4CQSFYBD9IN1W8PCJQ1H8N7AFE","3OE22WJIGKUX20P26VMYKACE530UQL","model","match","uniform","","","","","","","","95625.90000000596","97627.80000000447","","","","","","","","","","","","6","","stimuli/stars_6.png","52","","","","","stimuli/BF08_SUR.jpg","",""
"explore-choice","37","97983","0.0-37.0","p816686","A48WNR6C4CI3J","3S1L4CQSFYBD9IN1W8PCJQ1H8N7AFE","3OE22WJIGKUX20P26VMYKACE530UQL","model","match","uniform","","","","","","","1278.0999999940395","97629.90000000596","98908","[""stimuli/BF08_HO.jpg"",""stimuli/WM11_SUR.jpg"",""stimuli/AM09_HE.jpg"",""stimuli/WM07_FO.jpg""]","stimuli/BF08_HO.jpg","stimuli/WM11_SUR.jpg","stimuli/AM09_HE.jpg","stimuli/WM07_FO.jpg","pos2","stimuli/WM11_SUR.jpg","SUR","WM11","1","3","6","8","stimuli/stars_6.png","55","[""HO"",""SUR"",""HE"",""FO""]","[""BF08"",""WM11"",""AM09"",""WM07""]","[2,6,8,3]","[4,8,6,2]","","",""
"show-reward","38","99989","0.0-38.0","p816686","A48WNR6C4CI3J","3S1L4CQSFYBD9IN1W8PCJQ1H8N7AFE","3OE22WJIGKUX20P26VMYKACE530UQL","model","match","uniform","","","","","","","","99410.70000000298","101414.70000000298","","","","","","","","","","","","6","","stimuli/stars_6.png","55","","","","","stimuli/WM11_SUR.jpg","",""
"explore-choice","39","102039","0.0-39.0","p816686","A48WNR6C4CI3J","3S1L4CQSFYBD9IN1W8PCJQ1H8N7AFE","3OE22WJIGKUX20P26VMYKACE530UQL","model","match","uniform","","","","","","","1546.8000000044703","101417","102963.80000000447","[""stimuli/WM07_HE.jpg"",""stimuli/BF08_HO.jpg"",""stimuli/AM09_FO.jpg"",""stimuli/WM11_SUR.jpg""]","stimuli/WM07_HE.jpg","stimuli/BF08_HO.jpg","stimuli/AM09_FO.jpg","stimuli/WM11_SUR.jpg","pos1","stimuli/WM07_HE.jpg","HE","WM07","0","2","4","2","stimuli/stars_4.png","57","[""HE"",""HO"",""FO"",""SUR""]","[""WM07"",""BF08"",""AM09"",""WM11""]","[4,6,6,8]","[2,4,6,8]","","",""
"show-reward","40","104045","0.0-40.0","p816686","A48WNR6C4CI3J","3S1L4CQSFYBD9IN1W8PCJQ1H8N7AFE","3OE22WJIGKUX20P26VMYKACE530UQL","model","match","uniform","","","","","","","","103466.60000000149","105470.5","","","","","","","","","","","","4","","stimuli/stars_4.png","57","","","","","stimuli/WM07_HE.jpg","",""
"explore-choice","41","105886","0.0-41.0","p816686","A48WNR6C4CI3J","3S1L4CQSFYBD9IN1W8PCJQ1H8N7AFE","3OE22WJIGKUX20P26VMYKACE530UQL","model","match","uniform","","","","","","","1339.6000000014901","105472.5","106812.10000000149","[""stimuli/WM11_FO.jpg"",""stimuli/WM07_HO.jpg"",""stimuli/AM09_HE.jpg"",""stimuli/BF08_SUR.jpg""]","stimuli/WM11_FO.jpg","stimuli/WM07_HO.jpg","stimuli/AM09_HE.jpg","stimuli/BF08_SUR.jpg","pos1","stimuli/WM11_FO.jpg","FO","WM11","0","3.5","7","8","stimuli/stars_7.png","60.5","[""FO"",""HO"",""HE"",""SUR""]","[""WM11"",""WM07"",""AM09"",""BF08""]","[7,1,8,5]","[8,2,6,4]","","",""
"show-reward","42","107891","0.0-42.0","p816686","A48WNR6C4CI3J","3S1L4CQSFYBD9IN1W8PCJQ1H8N7AFE","3OE22WJIGKUX20P26VMYKACE530UQL","model","match","uniform","","","","","","","","107313.80000000447","109316.60000000149","","","","","","","","","","","","7","","stimuli/stars_7.png","60.5","","","","","stimuli/WM11_FO.jpg","",""
"explore-choice","43","110815","0.0-43.0","p816686","A48WNR6C4CI3J","3S1L4CQSFYBD9IN1W8PCJQ1H8N7AFE","3OE22WJIGKUX20P26VMYKACE530UQL","model","match","uniform","","","","","","","2422.8000000044703","109317.60000000149","111740.40000000596","[""stimuli/BF08_SUR.jpg"",""stimuli/WM07_HO.jpg"",""stimuli/WM11_HE.jpg"",""stimuli/AM09_FO.jpg""]","stimuli/BF08_SUR.jpg","stimuli/WM07_HO.jpg","stimuli/WM11_HE.jpg","stimuli/AM09_FO.jpg","pos3","stimuli/WM11_HE.jpg","HE","WM11","2","3.5","7","8","stimuli/stars_7.png","64","[""SUR"",""HO"",""HE"",""FO""]","[""BF08"",""WM07"",""WM11"",""AM09""]","[2,1,7,8]","[4,2,8,6]","","",""
"show-reward","44","112821","0.0-44.0","p816686","A48WNR6C4CI3J","3S1L4CQSFYBD9IN1W8PCJQ1H8N7AFE","3OE22WJIGKUX20P26VMYKACE530UQL","model","match","uniform","","","","","","","","112242.90000000596","114246.30000000447","","","","","","","","","","","","7","","stimuli/stars_7.png","64","","","","","stimuli/WM11_HE.jpg","",""
"explore-choice","45","116030","0.0-45.0","p816686","A48WNR6C4CI3J","3S1L4CQSFYBD9IN1W8PCJQ1H8N7AFE","3OE22WJIGKUX20P26VMYKACE530UQL","model","match","uniform","","","","","","","2707.60000000149","114248.30000000447","116955.90000000596","[""stimuli/AM09_FO.jpg"",""stimuli/BF08_SUR.jpg"",""stimuli/WM07_HE.jpg"",""stimuli/WM11_HO.jpg""]","stimuli/AM09_FO.jpg","stimuli/BF08_SUR.jpg","stimuli/WM07_HE.jpg","stimuli/WM11_HO.jpg","pos1","stimuli/AM09_FO.jpg","FO","AM09","0","3","6","6","stimuli/stars_6.png","67","[""FO"",""SUR"",""HE"",""HO""]","[""AM09"",""BF08"",""WM07"",""WM11""]","[6,4,0,8]","[6,4,2,8]","","",""
"show-reward","46","118033","0.0-46.0","p816686","A48WNR6C4CI3J","3S1L4CQSFYBD9IN1W8PCJQ1H8N7AFE","3OE22WJIGKUX20P26VMYKACE530UQL","model","match","uniform","","","","","","","","117457.20000000298","119458.90000000596","","","","","","","","","","","","6","","stimuli/stars_6.png","67","","","","","stimuli/AM09_FO.jpg","",""
"explore-choice","47","120192","0.0-47.0","p816686","A48WNR6C4CI3J","3S1L4CQSFYBD9IN1W8PCJQ1H8N7AFE","3OE22WJIGKUX20P26VMYKACE530UQL","model","match","uniform","","","","","","","1656.2000000029802","119460.70000000298","121116.90000000596","[""stimuli/BF08_SUR.jpg"",""stimuli/AM09_HO.jpg"",""stimuli/WM11_FO.jpg"",""stimuli/WM07_HE.jpg""]","stimuli/BF08_SUR.jpg","stimuli/AM09_HO.jpg","stimuli/WM11_FO.jpg","stimuli/WM07_HE.jpg","pos3","stimuli/WM11_FO.jpg","FO","WM11","2","4","8","8","stimuli/stars_8.png","71","[""SUR"",""HO"",""FO"",""HE""]","[""BF08"",""AM09"",""WM11"",""WM07""]","[2,4,8,3]","[4,6,8,2]","","",""
"show-reward","48","122196","0.0-48.0","p816686","A48WNR6C4CI3J","3S1L4CQSFYBD9IN1W8PCJQ1H8N7AFE","3OE22WJIGKUX20P26VMYKACE530UQL","model","match","uniform","","","","","","","","121619","123621.90000000596","","","","","","","","","","","","8","","stimuli/stars_8.png","71","","","","","stimuli/WM11_FO.jpg","",""
"explore-choice","49","123983","0.0-49.0","p816686","A48WNR6C4CI3J","3S1L4CQSFYBD9IN1W8PCJQ1H8N7AFE","3OE22WJIGKUX20P26VMYKACE530UQL","model","match","uniform","","","","","","","1284.6000000014901","123623.20000000298","124907.80000000447","[""stimuli/WM11_FO.jpg"",""stimuli/WM07_HO.jpg"",""stimuli/AM09_SUR.jpg"",""stimuli/BF08_HE.jpg""]","stimuli/WM11_FO.jpg","stimuli/WM07_HO.jpg","stimuli/AM09_SUR.jpg","stimuli/BF08_HE.jpg","pos1","stimuli/WM11_FO.jpg","FO","WM11","0","5","10","8","stimuli/stars_10.png","76","[""FO"",""HO"",""SUR"",""HE""]","[""WM11"",""WM07"",""AM09"",""BF08""]","[10,1,4,5]","[8,2,6,4]","","",""
"show-reward","50","125988","0.0-50.0","p816686","A48WNR6C4CI3J","3S1L4CQSFYBD9IN1W8PCJQ1H8N7AFE","3OE22WJIGKUX20P26VMYKACE530UQL","model","match","uniform","","","","","","","","125410.5","127414.20000000298","","","","","","","","","","","","10","","stimuli/stars_10.png","76","","","","","stimuli/WM11_FO.jpg","",""
"explore-choice","51","128231","0.0-51.0","p816686","A48WNR6C4CI3J","3S1L4CQSFYBD9IN1W8PCJQ1H8N7AFE","3OE22WJIGKUX20P26VMYKACE530UQL","model","match","uniform","","","","","","","1740.7999999970198","127415.30000000447","129156.10000000149","[""stimuli/AM09_SUR.jpg"",""stimuli/BF08_FO.jpg"",""stimuli/WM07_HO.jpg"",""stimuli/WM11_HE.jpg""]","stimuli/AM09_SUR.jpg","stimuli/BF08_FO.jpg","stimuli/WM07_HO.jpg","stimuli/WM11_HE.jpg","pos4","stimuli/WM11_HE.jpg","HE","WM11","3","3.5","7","8","stimuli/stars_7.png","79.5","[""SUR"",""FO"",""HO"",""HE""]","[""AM09"",""BF08"",""WM07"",""WM11""]","[5,3,0,7]","[6,4,2,8]","","",""
"show-reward","52","130237","0.0-52.0","p816686","A48WNR6C4CI3J","3S1L4CQSFYBD9IN1W8PCJQ1H8N7AFE","3OE22WJIGKUX20P26VMYKACE530UQL","model","match","uniform","","","","","","","","129658.70000000298","131662.5","","","","","","","","","","","","7","","stimuli/stars_7.png","79.5","","","","","stimuli/WM11_HE.jpg","",""
"explore-choice","53","131835","0.0-53.0","p816686","A48WNR6C4CI3J","3S1L4CQSFYBD9IN1W8PCJQ1H8N7AFE","3OE22WJIGKUX20P26VMYKACE530UQL","model","match","uniform","","","","","","","1095.8000000044703","131664.5","132760.30000000447","[""stimuli/WM11_HE.jpg"",""stimuli/WM07_SUR.jpg"",""stimuli/BF08_HO.jpg"",""stimuli/AM09_FO.jpg""]","stimuli/WM11_HE.jpg","stimuli/WM07_SUR.jpg","stimuli/BF08_HO.jpg","stimuli/AM09_FO.jpg","pos1","stimuli/WM11_HE.jpg","HE","WM11","0","3","6","8","stimuli/stars_6.png","82.5","[""HE"",""SUR"",""HO"",""FO""]","[""WM11"",""WM07"",""BF08"",""AM09""]","[6,4,5,7]","[8,2,4,6]","","",""
"show-reward","54","133841","0.0-54.0","p816686","A48WNR6C4CI3J","3S1L4CQSFYBD9IN1W8PCJQ1H8N7AFE","3OE22WJIGKUX20P26VMYKACE530UQL","model","match","uniform","","","","","","","","133262.70000000298","135266.5","","","","","","","","","","","","6","","stimuli/stars_6.png","82.5","","","","","stimuli/WM11_HE.jpg","",""
"explore-choice","55","135579","0.0-55.0","p816686","A48WNR6C4CI3J","3S1L4CQSFYBD9IN1W8PCJQ1H8N7AFE","3OE22WJIGKUX20P26VMYKACE530UQL","model","match","uniform","","","","","","","1235.7000000029802","135268.70000000298","136504.40000000596","[""stimuli/WM11_FO.jpg"",""stimuli/AM09_SUR.jpg"",""stimuli/WM07_HO.jpg"",""stimuli/BF08_HE.jpg""]","stimuli/WM11_FO.jpg","stimuli/AM09_SUR.jpg","stimuli/WM07_HO.jpg","stimuli/BF08_HE.jpg","pos1","stimuli/WM11_FO.jpg","FO","WM11","0","5","10","8","stimuli/stars_10.png","87.5","[""FO"",""SUR"",""HO"",""HE""]","[""WM11"",""AM09"",""WM07"",""BF08""]","[10,4,1,5]","[8,6,2,4]","","",""
"show-reward","56","137585","0.0-56.0","p816686","A48WNR6C4CI3J","3S1L4CQSFYBD9IN1W8PCJQ1H8N7AFE","3OE22WJIGKUX20P26VMYKACE530UQL","model","match","uniform","","","","","","","","137006.90000000596","139010.70000000298","","","","","","","","","","","","10","","stimuli/stars_10.png","87.5","","","","","stimuli/WM11_FO.jpg","",""
"explore-choice","57","141472","0.0-57.0","p816686","A48WNR6C4CI3J","3S1L4CQSFYBD9IN1W8PCJQ1H8N7AFE","3OE22WJIGKUX20P26VMYKACE530UQL","model","match","uniform","","","","","","","3385","139011.6000000015","142396.6000000015","[""stimuli/BF08_FO.jpg"",""stimuli/AM09_HE.jpg"",""stimuli/WM11_HO.jpg"",""stimuli/WM07_SUR.jpg""]","stimuli/BF08_FO.jpg","stimuli/AM09_HE.jpg","stimuli/WM11_HO.jpg","stimuli/WM07_SUR.jpg","pos4","stimuli/WM07_SUR.jpg","SUR","WM07","3","0","0","2","stimuli/stars_0.png","87.5","[""FO"",""HE"",""HO"",""SUR""]","[""BF08"",""AM09"",""WM11"",""WM07""]","[4,8,7,0]","[4,6,8,2]","","",""
"show-reward","58","143477","0.0-58.0","p816686","A48WNR6C4CI3J","3S1L4CQSFYBD9IN1W8PCJQ1H8N7AFE","3OE22WJIGKUX20P26VMYKACE530UQL","model","match","uniform","","","","","","","","142899.30000000447","144902.90000000596","","","","","","","","","","","","0","","stimuli/stars_0.png","87.5","","","","","stimuli/WM07_SUR.jpg","",""
"explore-choice","59","146290","0.0-59.0","p816686","A48WNR6C4CI3J","3S1L4CQSFYBD9IN1W8PCJQ1H8N7AFE","3OE22WJIGKUX20P26VMYKACE530UQL","model","match","uniform","","","","","","","2310.6999999955297","144904.90000000596","147215.6000000015","[""stimuli/WM07_HO.jpg"",""stimuli/WM11_SUR.jpg"",""stimuli/AM09_HE.jpg"",""stimuli/BF08_FO.jpg""]","stimuli/WM07_HO.jpg","stimuli/WM11_SUR.jpg","stimuli/AM09_HE.jpg","stimuli/BF08_FO.jpg","pos2","stimuli/WM11_SUR.jpg","SUR","WM11","1","3.5","7","8","stimuli/stars_7.png","91","[""HO"",""SUR"",""HE"",""FO""]","[""WM07"",""WM11"",""AM09"",""BF08""]","[2,7,4,3]","[2,8,6,4]","","",""
"show-reward","60","148296","0.0-60.0","p816686","A48WNR6C4CI3J","3S1L4CQSFYBD9IN1W8PCJQ1H8N7AFE","3OE22WJIGKUX20P26VMYKACE530UQL","model","match","uniform","","","","","","","","147718.30000000447","149722.1000000015","","","","","","","","","","","","7","","stimuli/stars_7.png","91","","","","","stimuli/WM11_SUR.jpg","",""
"explore-choice","61","150062","0.0-61.0","p816686","A48WNR6C4CI3J","3S1L4CQSFYBD9IN1W8PCJQ1H8N7AFE","3OE22WJIGKUX20P26VMYKACE530UQL","model","match","uniform","","","","","","","1263.2000000029802","149724","150987.20000000298","[""stimuli/WM11_HE.jpg"",""stimuli/WM07_FO.jpg"",""stimuli/AM09_HO.jpg"",""stimuli/BF08_SUR.jpg""]","stimuli/WM11_HE.jpg","stimuli/WM07_FO.jpg","stimuli/AM09_HO.jpg","stimuli/BF08_SUR.jpg","pos1","stimuli/WM11_HE.jpg","HE","WM11","0","5","10","8","stimuli/stars_10.png","96","[""HE"",""FO"",""HO"",""SUR""]","[""WM11"",""WM07"",""AM09"",""BF08""]","[10,3,8,5]","[8,2,6,4]","","",""
"show-reward","62","152068","0.0-62.0","p816686","A48WNR6C4CI3J","3S1L4CQSFYBD9IN1W8PCJQ1H8N7AFE","3OE22WJIGKUX20P26VMYKACE530UQL","model","match","uniform","","","","","","","","151489.80000000447","153493.6000000015","","","","","","","","","","","","10","","stimuli/stars_10.png","96","","","","","stimuli/WM11_HE.jpg","",""
"explore-choice","63","153926","0.0-63.0","p816686","A48WNR6C4CI3J","3S1L4CQSFYBD9IN1W8PCJQ1H8N7AFE","3OE22WJIGKUX20P26VMYKACE530UQL","model","match","uniform","","","","","","","1355.7999999970198","153495.70000000298","154851.5","[""stimuli/WM07_HE.jpg"",""stimuli/WM11_SUR.jpg"",""stimuli/AM09_FO.jpg"",""stimuli/BF08_HO.jpg""]","stimuli/WM07_HE.jpg","stimuli/WM11_SUR.jpg","stimuli/AM09_FO.jpg","stimuli/BF08_HO.jpg","pos2","stimuli/WM11_SUR.jpg","SUR","WM11","1","4","8","8","stimuli/stars_8.png","100","[""HE"",""SUR"",""FO"",""HO""]","[""WM07"",""WM11"",""AM09"",""BF08""]","[4,8,6,6]","[2,8,6,4]","","",""
"show-reward","64","155933","0.0-64.0","p816686","A48WNR6C4CI3J","3S1L4CQSFYBD9IN1W8PCJQ1H8N7AFE","3OE22WJIGKUX20P26VMYKACE530UQL","model","match","uniform","","","","","","","","155354.30000000447","157358.30000000447","","","","","","","","","","","","8","","stimuli/stars_8.png","100","","","","","stimuli/WM11_SUR.jpg","",""
"explore-choice","65","157771","0.0-65.0","p816686","A48WNR6C4CI3J","3S1L4CQSFYBD9IN1W8PCJQ1H8N7AFE","3OE22WJIGKUX20P26VMYKACE530UQL","model","match","uniform","","","","","","","1335.6000000014901","157360.5","158696.1000000015","[""stimuli/WM11_FO.jpg"",""stimuli/WM07_HO.jpg"",""stimuli/BF08_SUR.jpg"",""stimuli/AM09_HE.jpg""]","stimuli/WM11_FO.jpg","stimuli/WM07_HO.jpg","stimuli/BF08_SUR.jpg","stimuli/AM09_HE.jpg","pos1","stimuli/WM11_FO.jpg","FO","WM11","0","3.5","7","8","stimuli/stars_7.png","103.5","[""FO"",""HO"",""SUR"",""HE""]","[""WM11"",""WM07"",""BF08"",""AM09""]","[7,1,5,8]","[8,2,4,6]","","",""
"show-reward","66","159776","0.0-66.0","p816686","A48WNR6C4CI3J","3S1L4CQSFYBD9IN1W8PCJQ1H8N7AFE","3OE22WJIGKUX20P26VMYKACE530UQL","model","match","uniform","","","","","","","","159198.90000000596","161202.30000000447","","","","","","","","","","","","7","","stimuli/stars_7.png","103.5","","","","","stimuli/WM11_FO.jpg","",""
"explore-choice","67","161629","0.0-67.0","p816686","A48WNR6C4CI3J","3S1L4CQSFYBD9IN1W8PCJQ1H8N7AFE","3OE22WJIGKUX20P26VMYKACE530UQL","model","match","uniform","","","","","","","1351.5999999940395","161203.40000000596","162555","[""stimuli/WM11_SUR.jpg"",""stimuli/WM07_HE.jpg"",""stimuli/AM09_HO.jpg"",""stimuli/BF08_FO.jpg""]","stimuli/WM11_SUR.jpg","stimuli/WM07_HE.jpg","stimuli/AM09_HO.jpg","stimuli/BF08_FO.jpg","pos1","stimuli/WM11_SUR.jpg","SUR","WM11","0","4.5","9","8","stimuli/stars_9.png","108","[""SUR"",""HE"",""HO"",""FO""]","[""WM11"",""WM07"",""AM09"",""BF08""]","[9,4,4,4]","[8,2,6,4]","","",""
"show-reward","68","163633","0.0-68.0","p816686","A48WNR6C4CI3J","3S1L4CQSFYBD9IN1W8PCJQ1H8N7AFE","3OE22WJIGKUX20P26VMYKACE530UQL","model","match","uniform","","","","","","","","163056.5","165058.70000000298","","","","","","","","","","","","9","","stimuli/stars_9.png","108","","","","","stimuli/WM11_SUR.jpg","",""
"explore-choice","69","167066","0.0-69.0","p816686","A48WNR6C4CI3J","3S1L4CQSFYBD9IN1W8PCJQ1H8N7AFE","3OE22WJIGKUX20P26VMYKACE530UQL","model","match","uniform","","","","","","","2932.10000000149","165059.70000000298","167991.80000000447","[""stimuli/AM09_HE.jpg"",""stimuli/WM11_FO.jpg"",""stimuli/WM07_SUR.jpg"",""stimuli/BF08_HO.jpg""]","stimuli/AM09_HE.jpg","stimuli/WM11_FO.jpg","stimuli/WM07_SUR.jpg","stimuli/BF08_HO.jpg","pos2","stimuli/WM11_FO.jpg","FO","WM11","1","4.5","9","8","stimuli/stars_9.png","112.5","[""HE"",""FO"",""SUR"",""HO""]","[""AM09"",""WM11"",""WM07"",""BF08""]","[4,9,1,5]","[6,8,2,4]","","",""
"show-reward","70","169072","0.0-70.0","p816686","A48WNR6C4CI3J","3S1L4CQSFYBD9IN1W8PCJQ1H8N7AFE","3OE22WJIGKUX20P26VMYKACE530UQL","model","match","uniform","","","","","","","","168494.40000000596","170498.20000000298","","","","","","","","","","","","9","","stimuli/stars_9.png","112.5","","","","","stimuli/WM11_FO.jpg","",""
"explore-choice","71","171554","0.0-71.0","p816686","A48WNR6C4CI3J","3S1L4CQSFYBD9IN1W8PCJQ1H8N7AFE","3OE22WJIGKUX20P26VMYKACE530UQL","model","match","uniform","","","","","","","1979.3999999985099","170500.20000000298","172479.6000000015","[""stimuli/BF08_HO.jpg"",""stimuli/WM11_SUR.jpg"",""stimuli/WM07_FO.jpg"",""stimuli/AM09_HE.jpg""]","stimuli/BF08_HO.jpg","stimuli/WM11_SUR.jpg","stimuli/WM07_FO.jpg","stimuli/AM09_HE.jpg","pos2","stimuli/WM11_SUR.jpg","SUR","WM11","1","3","6","8","stimuli/stars_6.png","115.5","[""HO"",""SUR"",""FO"",""HE""]","[""BF08"",""WM11"",""WM07"",""AM09""]","[2,6,3,8]","[4,8,2,6]","","",""
"show-reward","72","173560","0.0-72.0","p816686","A48WNR6C4CI3J","3S1L4CQSFYBD9IN1W8PCJQ1H8N7AFE","3OE22WJIGKUX20P26VMYKACE530UQL","model","match","uniform","","","","","","","","172982.1000000015","174985.5","","","","","","","","","","","","6","","stimuli/stars_6.png","115.5","","","","","stimuli/WM11_SUR.jpg","",""
"explore-choice","73","177226","0.0-73.0","p816686","A48WNR6C4CI3J","3S1L4CQSFYBD9IN1W8PCJQ1H8N7AFE","3OE22WJIGKUX20P26VMYKACE530UQL","model","match","uniform","","","","","","","3165.10000000149","174986.6000000015","178151.70000000298","[""stimuli/AM09_FO.jpg"",""stimuli/WM11_HO.jpg"",""stimuli/BF08_HE.jpg"",""stimuli/WM07_SUR.jpg""]","stimuli/AM09_FO.jpg","stimuli/WM11_HO.jpg","stimuli/BF08_HE.jpg","stimuli/WM07_SUR.jpg","pos1","stimuli/AM09_FO.jpg","FO","AM09","0","2","4","6","stimuli/stars_4.png","117.5","[""FO"",""HO"",""HE"",""SUR""]","[""AM09"",""WM11"",""BF08"",""WM07""]","[4,10,3,4]","[6,8,4,2]","","",""
"show-reward","74","179232","0.0-74.0","p816686","A48WNR6C4CI3J","3S1L4CQSFYBD9IN1W8PCJQ1H8N7AFE","3OE22WJIGKUX20P26VMYKACE530UQL","model","match","uniform","","","","","","","","178654.20000000298","180657.5","","","","","","","","","","","","4","","stimuli/stars_4.png","117.5","","","","","stimuli/AM09_FO.jpg","",""
"explore-choice","75","183458","0.0-75.0","p816686","A48WNR6C4CI3J","3S1L4CQSFYBD9IN1W8PCJQ1H8N7AFE","3OE22WJIGKUX20P26VMYKACE530UQL","model","match","uniform","","","","","","","3724","180659.20000000298","184383.20000000298","[""stimuli/AM09_HE.jpg"",""stimuli/WM07_FO.jpg"",""stimuli/WM11_HO.jpg"",""stimuli/BF08_SUR.jpg""]","stimuli/AM09_HE.jpg","stimuli/WM07_FO.jpg","stimuli/WM11_HO.jpg","stimuli/BF08_SUR.jpg","pos1","stimuli/AM09_HE.jpg","HE","AM09","0","4","8","6","stimuli/stars_8.png","121.5","[""HE"",""FO"",""HO"",""SUR""]","[""AM09"",""WM07"",""WM11"",""BF08""]","[8,0,6,6]","[6,2,8,4]","","",""
"show-reward","76","185463","0.0-76.0","p816686","A48WNR6C4CI3J","3S1L4CQSFYBD9IN1W8PCJQ1H8N7AFE","3OE22WJIGKUX20P26VMYKACE530UQL","model","match","uniform","","","","","","","","184885.20000000298","186889","","","","","","","","","","","","8","","stimuli/stars_8.png","121.5","","","","","stimuli/AM09_HE.jpg","",""
"explore-choice","77","189510","0.0-77.0","p816686","A48WNR6C4CI3J","3S1L4CQSFYBD9IN1W8PCJQ1H8N7AFE","3OE22WJIGKUX20P26VMYKACE530UQL","model","match","uniform","","","","","","","3544.5","186890.90000000596","190435.40000000596","[""stimuli/WM11_HO.jpg"",""stimuli/BF08_HE.jpg"",""stimuli/WM07_FO.jpg"",""stimuli/AM09_SUR.jpg""]","stimuli/WM11_HO.jpg","stimuli/BF08_HE.jpg","stimuli/WM07_FO.jpg","stimuli/AM09_SUR.jpg","pos1","stimuli/WM11_HO.jpg","HO","WM11","0","3.5","7","8","stimuli/stars_7.png","125","[""HO"",""HE"",""FO"",""SUR""]","[""WM11"",""BF08"",""WM07"",""AM09""]","[7,2,0,6]","[8,4,2,6]","","",""
"show-reward","78","191516","0.0-78.0","p816686","A48WNR6C4CI3J","3S1L4CQSFYBD9IN1W8PCJQ1H8N7AFE","3OE22WJIGKUX20P26VMYKACE530UQL","model","match","uniform","","","","","","","","190937.70000000298","192941.6000000015","","","","","","","","","","","","7","","stimuli/stars_7.png","125","","","","","stimuli/WM11_HO.jpg","",""
"explore-choice","79","193434","0.0-79.0","p816686","A48WNR6C4CI3J","3S1L4CQSFYBD9IN1W8PCJQ1H8N7AFE","3OE22WJIGKUX20P26VMYKACE530UQL","model","match","uniform","","","","","","","1415.7999999970198","192943.40000000596","194359.20000000298","[""stimuli/WM11_SUR.jpg"",""stimuli/BF08_HE.jpg"",""stimuli/WM07_FO.jpg"",""stimuli/AM09_HO.jpg""]","stimuli/WM11_SUR.jpg","stimuli/BF08_HE.jpg","stimuli/WM07_FO.jpg","stimuli/AM09_HO.jpg","pos1","stimuli/WM11_SUR.jpg","SUR","WM11","0","3","6","8","stimuli/stars_6.png","128","[""SUR"",""HE"",""FO"",""HO""]","[""WM11"",""BF08"",""WM07"",""AM09""]","[6,4,4,6]","[8,4,2,6]","","",""
"show-reward","80","195440","0.0-80.0","p816686","A48WNR6C4CI3J","3S1L4CQSFYBD9IN1W8PCJQ1H8N7AFE","3OE22WJIGKUX20P26VMYKACE530UQL","model","match","uniform","","","","","","","","194862","196865.80000000447","","","","","","","","","","","","6","","stimuli/stars_6.png","128","","","","","stimuli/WM11_SUR.jpg","",""
"explore-choice","81","196885","0.0-81.0","p816686","A48WNR6C4CI3J","3S1L4CQSFYBD9IN1W8PCJQ1H8N7AFE","3OE22WJIGKUX20P26VMYKACE530UQL","model","match","uniform","","","","","","","943.6000000014901","196866.80000000447","197810.40000000596","[""stimuli/WM11_HE.jpg"",""stimuli/WM07_HO.jpg"",""stimuli/BF08_FO.jpg"",""stimuli/AM09_SUR.jpg""]","stimuli/WM11_HE.jpg","stimuli/WM07_HO.jpg","stimuli/BF08_FO.jpg","stimuli/AM09_SUR.jpg","pos1","stimuli/WM11_HE.jpg","HE","WM11","0","3.5","7","8","stimuli/stars_7.png","131.5","[""HE"",""HO"",""FO"",""SUR""]","[""WM11"",""WM07"",""BF08"",""AM09""]","[7,0,3,5]","[8,2,4,6]","","",""
"show-reward","82","198889","0.0-82.0","p816686","A48WNR6C4CI3J","3S1L4CQSFYBD9IN1W8PCJQ1H8N7AFE","3OE22WJIGKUX20P26VMYKACE530UQL","model","match","uniform","","","","","","","","198312.40000000596","200315","","","","","","","","","","","","7","","stimuli/stars_7.png","131.5","","","","","stimuli/WM11_HE.jpg","",""
"explore-choice","83","200950","0.0-83.0","p816686","A48WNR6C4CI3J","3S1L4CQSFYBD9IN1W8PCJQ1H8N7AFE","3OE22WJIGKUX20P26VMYKACE530UQL","model","match","uniform","","","","","","","1558.8999999985099","200316.30000000447","201875.20000000298","[""stimuli/AM09_HO.jpg"",""stimuli/WM07_HE.jpg"",""stimuli/BF08_SUR.jpg"",""stimuli/WM11_FO.jpg""]","stimuli/AM09_HO.jpg","stimuli/WM07_HE.jpg","stimuli/BF08_SUR.jpg","stimuli/WM11_FO.jpg","pos4","stimuli/WM11_FO.jpg","FO","WM11","3","4","8","8","stimuli/stars_8.png","135.5","[""HO"",""HE"",""SUR"",""FO""]","[""AM09"",""WM07"",""BF08"",""WM11""]","[4,3,2,8]","[6,2,4,8]","","",""
"show-reward","84","202956","0.0-84.0","p816686","A48WNR6C4CI3J","3S1L4CQSFYBD9IN1W8PCJQ1H8N7AFE","3OE22WJIGKUX20P26VMYKACE530UQL","model","match","uniform","","","","","","","","202378","204381.80000000447","","","","","","","","","","","","8","","stimuli/stars_8.png","135.5","","","","","stimuli/WM11_FO.jpg","",""
"explore-choice","85","205712","0.0-85.0","p816686","A48WNR6C4CI3J","3S1L4CQSFYBD9IN1W8PCJQ1H8N7AFE","3OE22WJIGKUX20P26VMYKACE530UQL","model","match","uniform","","","","","","","2253.7000000029802","204384","206637.70000000298","[""stimuli/WM07_HE.jpg"",""stimuli/WM11_HO.jpg"",""stimuli/AM09_FO.jpg"",""stimuli/BF08_SUR.jpg""]","stimuli/WM07_HE.jpg","stimuli/WM11_HO.jpg","stimuli/AM09_FO.jpg","stimuli/BF08_SUR.jpg","pos2","stimuli/WM11_HO.jpg","HO","WM11","1","4","8","8","stimuli/stars_8.png","139.5","[""HE"",""HO"",""FO"",""SUR""]","[""WM07"",""WM11"",""AM09"",""BF08""]","[0,8,6,4]","[2,8,6,4]","","",""
"show-reward","86","207718","0.0-86.0","p816686","A48WNR6C4CI3J","3S1L4CQSFYBD9IN1W8PCJQ1H8N7AFE","3OE22WJIGKUX20P26VMYKACE530UQL","model","match","uniform","","","","","","","","207140.20000000298","209143.90000000596","","","","","","","","","","","","8","","stimuli/stars_8.png","139.5","","","","","stimuli/WM11_HO.jpg","",""
"explore-choice","87","210145","0.0-87.0","p816686","A48WNR6C4CI3J","3S1L4CQSFYBD9IN1W8PCJQ1H8N7AFE","3OE22WJIGKUX20P26VMYKACE530UQL","model","match","uniform","","","","","","","1924.0999999940395","209145.90000000596","211070","[""stimuli/AM09_HO.jpg"",""stimuli/WM07_SUR.jpg"",""stimuli/BF08_HE.jpg"",""stimuli/WM11_FO.jpg""]","stimuli/AM09_HO.jpg","stimuli/WM07_SUR.jpg","stimuli/BF08_HE.jpg","stimuli/WM11_FO.jpg","pos4","stimuli/WM11_FO.jpg","FO","WM11","3","3","6","8","stimuli/stars_6.png","142.5","[""HO"",""SUR"",""HE"",""FO""]","[""AM09"",""WM07"",""BF08"",""WM11""]","[5,2,6,6]","[6,2,4,8]","","",""
"show-reward","88","212151","0.0-88.0","p816686","A48WNR6C4CI3J","3S1L4CQSFYBD9IN1W8PCJQ1H8N7AFE","3OE22WJIGKUX20P26VMYKACE530UQL","model","match","uniform","","","","","","","","211572.70000000298","213576.80000000447","","","","","","","","","","","","6","","stimuli/stars_6.png","142.5","","","","","stimuli/WM11_FO.jpg","",""
"explore-choice","89","213597","0.0-89.0","p816686","A48WNR6C4CI3J","3S1L4CQSFYBD9IN1W8PCJQ1H8N7AFE","3OE22WJIGKUX20P26VMYKACE530UQL","model","match","uniform","","","","","","","943.2000000029802","213579.5","214522.70000000298","[""stimuli/WM11_HE.jpg"",""stimuli/BF08_SUR.jpg"",""stimuli/AM09_FO.jpg"",""stimuli/WM07_HO.jpg""]","stimuli/WM11_HE.jpg","stimuli/BF08_SUR.jpg","stimuli/AM09_FO.jpg","stimuli/WM07_HO.jpg","pos1","stimuli/WM11_HE.jpg","HE","WM11","0","3.5","7","8","stimuli/stars_7.png","146","[""HE"",""SUR"",""FO"",""HO""]","[""WM11"",""BF08"",""AM09"",""WM07""]","[7,2,8,1]","[8,4,6,2]","","",""
"show-reward","90","215601","0.0-90.0","p816686","A48WNR6C4CI3J","3S1L4CQSFYBD9IN1W8PCJQ1H8N7AFE","3OE22WJIGKUX20P26VMYKACE530UQL","model","match","uniform","","","","","","","","215024.1000000015","217026.80000000447","","","","","","","","","","","","7","","stimuli/stars_7.png","146","","","","","stimuli/WM11_HE.jpg","",""
"explore-choice","91","217601","0.0-91.0","p816686","A48WNR6C4CI3J","3S1L4CQSFYBD9IN1W8PCJQ1H8N7AFE","3OE22WJIGKUX20P26VMYKACE530UQL","model","match","uniform","","","","","","","1497.3999999985099","217028.70000000298","218526.1000000015","[""stimuli/WM11_HE.jpg"",""stimuli/WM07_SUR.jpg"",""stimuli/AM09_FO.jpg"",""stimuli/BF08_HO.jpg""]","stimuli/WM11_HE.jpg","stimuli/WM07_SUR.jpg","stimuli/AM09_FO.jpg","stimuli/BF08_HO.jpg","pos1","stimuli/WM11_HE.jpg","HE","WM11","0","3","6","8","stimuli/stars_6.png","149","[""HE"",""SUR"",""FO"",""HO""]","[""WM11"",""WM07"",""AM09"",""BF08""]","[6,4,7,5]","[8,2,6,4]","","",""
"show-reward","92","219608","0.0-92.0","p816686","A48WNR6C4CI3J","3S1L4CQSFYBD9IN1W8PCJQ1H8N7AFE","3OE22WJIGKUX20P26VMYKACE530UQL","model","match","uniform","","","","","","","","219028.80000000447","221034.30000000447","","","","","","","","","","","","6","","stimuli/stars_6.png","149","","","","","stimuli/WM11_HE.jpg","",""
"explore-choice","93","223508","0.0-93.0","p816686","A48WNR6C4CI3J","3S1L4CQSFYBD9IN1W8PCJQ1H8N7AFE","3OE22WJIGKUX20P26VMYKACE530UQL","model","match","uniform","","","","","","","3397.39999999851","221036.70000000298","224434.1000000015","[""stimuli/AM09_SUR.jpg"",""stimuli/WM11_HO.jpg"",""stimuli/BF08_FO.jpg"",""stimuli/WM07_HE.jpg""]","stimuli/AM09_SUR.jpg","stimuli/WM11_HO.jpg","stimuli/BF08_FO.jpg","stimuli/WM07_HE.jpg","pos1","stimuli/AM09_SUR.jpg","SUR","AM09","0","3","6","6","stimuli/stars_6.png","152","[""SUR"",""HO"",""FO"",""HE""]","[""AM09"",""WM11"",""BF08"",""WM07""]","[6,8,3,4]","[6,8,4,2]","","",""
"show-reward","94","225511","0.0-94.0","p816686","A48WNR6C4CI3J","3S1L4CQSFYBD9IN1W8PCJQ1H8N7AFE","3OE22WJIGKUX20P26VMYKACE530UQL","model","match","uniform","","","","","","","","224935.30000000447","226937.30000000447","","","","","","","","","","","","6","","stimuli/stars_6.png","152","","","","","stimuli/AM09_SUR.jpg","",""
"explore-choice","95","227801","0.0-95.0","p816686","A48WNR6C4CI3J","3S1L4CQSFYBD9IN1W8PCJQ1H8N7AFE","3OE22WJIGKUX20P26VMYKACE530UQL","model","match","uniform","","","","","","","1788.5","226938.1000000015","228726.6000000015","[""stimuli/BF08_FO.jpg"",""stimuli/WM07_SUR.jpg"",""stimuli/WM11_HE.jpg"",""stimuli/AM09_HO.jpg""]","stimuli/BF08_FO.jpg","stimuli/WM07_SUR.jpg","stimuli/WM11_HE.jpg","stimuli/AM09_HO.jpg","pos3","stimuli/WM11_HE.jpg","HE","WM11","2","4","8","8","stimuli/stars_8.png","156","[""FO"",""SUR"",""HE"",""HO""]","[""BF08"",""WM07"",""WM11"",""AM09""]","[2,0,8,8]","[4,2,8,6]","","",""
"show-reward","96","229806","0.0-96.0","p816686","A48WNR6C4CI3J","3S1L4CQSFYBD9IN1W8PCJQ1H8N7AFE","3OE22WJIGKUX20P26VMYKACE530UQL","model","match","uniform","","","","","","","","229229","231232.40000000596","","","","","","","","","","","","8","","stimuli/stars_8.png","156","","","","","stimuli/WM11_HE.jpg","",""
"explore-choice","97","232353","0.0-97.0","p816686","A48WNR6C4CI3J","3S1L4CQSFYBD9IN1W8PCJQ1H8N7AFE","3OE22WJIGKUX20P26VMYKACE530UQL","model","match","uniform","","","","","","","2045.1000000014901","231233.20000000298","233278.30000000447","[""stimuli/BF08_HO.jpg"",""stimuli/WM11_FO.jpg"",""stimuli/AM09_SUR.jpg"",""stimuli/WM07_HE.jpg""]","stimuli/BF08_HO.jpg","stimuli/WM11_FO.jpg","stimuli/AM09_SUR.jpg","stimuli/WM07_HE.jpg","pos2","stimuli/WM11_FO.jpg","FO","WM11","1","5","10","8","stimuli/stars_10.png","161","[""HO"",""FO"",""SUR"",""HE""]","[""BF08"",""WM11"",""AM09"",""WM07""]","[3,10,7,0]","[4,8,6,2]","","",""
"show-reward","98","234359","0.0-98.0","p816686","A48WNR6C4CI3J","3S1L4CQSFYBD9IN1W8PCJQ1H8N7AFE","3OE22WJIGKUX20P26VMYKACE530UQL","model","match","uniform","","","","","","","","233780.90000000596","235784.5","","","","","","","","","","","","10","","stimuli/stars_10.png","161","","","","","stimuli/WM11_FO.jpg","",""
"explore-choice","99","236099","0.0-99.0","p816686","A48WNR6C4CI3J","3S1L4CQSFYBD9IN1W8PCJQ1H8N7AFE","3OE22WJIGKUX20P26VMYKACE530UQL","model","match","uniform","","","","","","","1237.6000000014901","235786.6000000015","237024.20000000298","[""stimuli/WM11_SUR.jpg"",""stimuli/BF08_HE.jpg"",""stimuli/AM09_FO.jpg"",""stimuli/WM07_HO.jpg""]","stimuli/WM11_SUR.jpg","stimuli/BF08_HE.jpg","stimuli/AM09_FO.jpg","stimuli/WM07_HO.jpg","pos1","stimuli/WM11_SUR.jpg","SUR","WM11","0","3.5","7","8","stimuli/stars_7.png","164.5","[""SUR"",""HE"",""FO"",""HO""]","[""WM11"",""BF08"",""AM09"",""WM07""]","[7,5,7,0]","[8,4,6,2]","","",""
"show-reward","100","238105","0.0-100.0","p816686","A48WNR6C4CI3J","3S1L4CQSFYBD9IN1W8PCJQ1H8N7AFE","3OE22WJIGKUX20P26VMYKACE530UQL","model","match","uniform","","","","","","","","237526.80000000447","239530.5","","","","","","","","","","","","7","","stimuli/stars_7.png","164.5","","","","","stimuli/WM11_SUR.jpg","",""
"explore-choice","101","239696","0.0-101.0","p816686","A48WNR6C4CI3J","3S1L4CQSFYBD9IN1W8PCJQ1H8N7AFE","3OE22WJIGKUX20P26VMYKACE530UQL","model","match","uniform","","","","","","","1089.0999999940395","239532.40000000596","240621.5","[""stimuli/BF08_HO.jpg"",""stimuli/WM11_HE.jpg"",""stimuli/WM07_FO.jpg"",""stimuli/AM09_SUR.jpg""]","stimuli/BF08_HO.jpg","stimuli/WM11_HE.jpg","stimuli/WM07_FO.jpg","stimuli/AM09_SUR.jpg","pos2","stimuli/WM11_HE.jpg","HE","WM11","1","5","10","8","stimuli/stars_10.png","169.5","[""HO"",""HE"",""FO"",""SUR""]","[""BF08"",""WM11"",""WM07"",""AM09""]","[4,10,1,8]","[4,8,2,6]","","",""
"show-reward","102","241702","0.0-102.0","p816686","A48WNR6C4CI3J","3S1L4CQSFYBD9IN1W8PCJQ1H8N7AFE","3OE22WJIGKUX20P26VMYKACE530UQL","model","match","uniform","","","","","","","","241124.1000000015","243127.5","","","","","","","","","","","","10","","stimuli/stars_10.png","169.5","","","","","stimuli/WM11_HE.jpg","",""
"explore-choice","103","246320","0.0-103.0","p816686","A48WNR6C4CI3J","3S1L4CQSFYBD9IN1W8PCJQ1H8N7AFE","3OE22WJIGKUX20P26VMYKACE530UQL","model","match","uniform","","","","","","","4115.89999999851","243129.6000000015","247245.5","[""stimuli/BF04_DO.jpg"",""stimuli/AF02_SC.jpg"",""stimuli/WM09_CC.jpg"",""stimuli/AM05_AO.jpg""]","stimuli/BF04_DO.jpg","stimuli/AF02_SC.jpg","stimuli/WM09_CC.jpg","stimuli/AM05_AO.jpg","pos3","stimuli/WM09_CC.jpg","CC","WM09","2","3.5","7","6","stimuli/stars_7.png","173","[""DO"",""SC"",""CC"",""AO""]","[""BF04"",""AF02"",""WM09"",""AM05""]","[8,5,7,4]","[8,4,6,2]","","",""
"show-reward","104","248326","0.0-104.0","p816686","A48WNR6C4CI3J","3S1L4CQSFYBD9IN1W8PCJQ1H8N7AFE","3OE22WJIGKUX20P26VMYKACE530UQL","model","match","uniform","","","","","","","","247748","249751.5","","","","","","","","","","","","7","","stimuli/stars_7.png","173","","","","","stimuli/WM09_CC.jpg","",""
"explore-choice","105","250448","0.0-105.0","p816686","A48WNR6C4CI3J","3S1L4CQSFYBD9IN1W8PCJQ1H8N7AFE","3OE22WJIGKUX20P26VMYKACE530UQL","model","match","uniform","","","","","","","1621","249752.5","251373.5","[""stimuli/AF02_SC.jpg"",""stimuli/WM09_AO.jpg"",""stimuli/BF04_CC.jpg"",""stimuli/AM05_DO.jpg""]","stimuli/AF02_SC.jpg","stimuli/WM09_AO.jpg","stimuli/BF04_CC.jpg","stimuli/AM05_DO.jpg","pos2","stimuli/WM09_AO.jpg","AO","WM09","1","4","8","6","stimuli/stars_8.png","177","[""SC"",""AO"",""CC"",""DO""]","[""AF02"",""WM09"",""BF04"",""AM05""]","[5,8,10,0]","[4,6,8,2]","","",""
"show-reward","106","252453","0.0-106.0","p816686","A48WNR6C4CI3J","3S1L4CQSFYBD9IN1W8PCJQ1H8N7AFE","3OE22WJIGKUX20P26VMYKACE530UQL","model","match","uniform","","","","","","","","251875.6000000015","253879.1000000015","","","","","","","","","","","","8","","stimuli/stars_8.png","177","","","","","stimuli/WM09_AO.jpg","",""
"explore-choice","107","254557","0.0-107.0","p816686","A48WNR6C4CI3J","3S1L4CQSFYBD9IN1W8PCJQ1H8N7AFE","3OE22WJIGKUX20P26VMYKACE530UQL","model","match","uniform","","","","","","","1602.3999999985099","253880.1000000015","255482.5","[""stimuli/AF02_CC.jpg"",""stimuli/AM05_DO.jpg"",""stimuli/BF04_SC.jpg"",""stimuli/WM09_AO.jpg""]","stimuli/AF02_CC.jpg","stimuli/AM05_DO.jpg","stimuli/BF04_SC.jpg","stimuli/WM09_AO.jpg","pos4","stimuli/WM09_AO.jpg","AO","WM09","3","3","6","6","stimuli/stars_6.png","180","[""CC"",""DO"",""SC"",""AO""]","[""AF02"",""AM05"",""BF04"",""WM09""]","[4,3,10,6]","[4,2,8,6]","","",""
"show-reward","108","256563","0.0-108.0","p816686","A48WNR6C4CI3J","3S1L4CQSFYBD9IN1W8PCJQ1H8N7AFE","3OE22WJIGKUX20P26VMYKACE530UQL","model","match","uniform","","","","","","","","255983.90000000596","257988.80000000447","","","","","","","","","","","","6","","stimuli/stars_6.png","180","","","","","stimuli/WM09_AO.jpg","",""
"explore-choice","109","258368","0.0-109.0","p816686","A48WNR6C4CI3J","3S1L4CQSFYBD9IN1W8PCJQ1H8N7AFE","3OE22WJIGKUX20P26VMYKACE530UQL","model","match","uniform","","","","","","","1302.3000000044703","257991.1000000015","259293.40000000596","[""stimuli/AM05_SC.jpg"",""stimuli/WM09_CC.jpg"",""stimuli/BF04_DO.jpg"",""stimuli/AF02_AO.jpg""]","stimuli/AM05_SC.jpg","stimuli/WM09_CC.jpg","stimuli/BF04_DO.jpg","stimuli/AF02_AO.jpg","pos2","stimuli/WM09_CC.jpg","CC","WM09","1","3.5","7","6","stimuli/stars_7.png","183.5","[""SC"",""CC"",""DO"",""AO""]","[""AM05"",""WM09"",""BF04"",""AF02""]","[2,7,6,2]","[2,6,8,4]","","",""
"show-reward","110","260374","0.0-110.0","p816686","A48WNR6C4CI3J","3S1L4CQSFYBD9IN1W8PCJQ1H8N7AFE","3OE22WJIGKUX20P26VMYKACE530UQL","model","match","uniform","","","","","","","","259796","261799.90000000596","","","","","","","","","","","","7","","stimuli/stars_7.png","183.5","","","","","stimuli/WM09_CC.jpg","",""
"explore-choice","111","262152","0.0-111.0","p816686","A48WNR6C4CI3J","3S1L4CQSFYBD9IN1W8PCJQ1H8N7AFE","3OE22WJIGKUX20P26VMYKACE530UQL","model","match","uniform","","","","","","","1276.1000000014901","261801.80000000447","263077.90000000596","[""stimuli/WM09_DO.jpg"",""stimuli/AM05_AO.jpg"",""stimuli/BF04_SC.jpg"",""stimuli/AF02_CC.jpg""]","stimuli/WM09_DO.jpg","stimuli/AM05_AO.jpg","stimuli/BF04_SC.jpg","stimuli/AF02_CC.jpg","pos1","stimuli/WM09_DO.jpg","DO","WM09","0","2","4","6","stimuli/stars_4.png","185.5","[""DO"",""AO"",""SC"",""CC""]","[""WM09"",""AM05"",""BF04"",""AF02""]","[4,4,8,6]","[6,2,8,4]","","",""
"show-reward","112","264156","0.0-112.0","p816686","A48WNR6C4CI3J","3S1L4CQSFYBD9IN1W8PCJQ1H8N7AFE","3OE22WJIGKUX20P26VMYKACE530UQL","model","match","uniform","","","","","","","","263579.30000000447","265581.40000000596","","","","","","","","","","","","4","","stimuli/stars_4.png","185.5","","","","","stimuli/WM09_DO.jpg","",""
"explore-choice","113","267884","0.0-113.0","p816686","A48WNR6C4CI3J","3S1L4CQSFYBD9IN1W8PCJQ1H8N7AFE","3OE22WJIGKUX20P26VMYKACE530UQL","model","match","uniform","","","","","","","3226.60000000149","265583.5","268810.1000000015","[""stimuli/BF04_SC.jpg"",""stimuli/AM05_CC.jpg"",""stimuli/WM09_AO.jpg"",""stimuli/AF02_DO.jpg""]","stimuli/BF04_SC.jpg","stimuli/AM05_CC.jpg","stimuli/WM09_AO.jpg","stimuli/AF02_DO.jpg","pos3","stimuli/WM09_AO.jpg","AO","WM09","2","3.5","7","6","stimuli/stars_7.png","189","[""SC"",""CC"",""AO"",""DO""]","[""BF04"",""AM05"",""WM09"",""AF02""]","[8,3,7,6]","[8,2,6,4]","","",""
"show-reward","114","269890","0.0-114.0","p816686","A48WNR6C4CI3J","3S1L4CQSFYBD9IN1W8PCJQ1H8N7AFE","3OE22WJIGKUX20P26VMYKACE530UQL","model","match","uniform","","","","","","","","269311.700000003","271315.5","","","","","","","","","","","","7","","stimuli/stars_7.png","189","","","","","stimuli/WM09_AO.jpg","",""
"explore-choice","115","271841","0.0-115.0","p816686","A48WNR6C4CI3J","3S1L4CQSFYBD9IN1W8PCJQ1H8N7AFE","3OE22WJIGKUX20P26VMYKACE530UQL","model","match","uniform","","","","","","","1449.3000000044703","271316.5","272765.80000000447","[""stimuli/BF04_AO.jpg"",""stimuli/WM09_SC.jpg"",""stimuli/AF02_DO.jpg"",""stimuli/AM05_CC.jpg""]","stimuli/BF04_AO.jpg","stimuli/WM09_SC.jpg","stimuli/AF02_DO.jpg","stimuli/AM05_CC.jpg","pos2","stimuli/WM09_SC.jpg","SC","WM09","1","2.5","5","6","stimuli/stars_5.png","191.5","[""AO"",""SC"",""DO"",""CC""]","[""BF04"",""WM09"",""AF02"",""AM05""]","[9,5,4,0]","[8,6,4,2]","","",""
"show-reward","116","273847","0.0-116.0","p816686","A48WNR6C4CI3J","3S1L4CQSFYBD9IN1W8PCJQ1H8N7AFE","3OE22WJIGKUX20P26VMYKACE530UQL","model","match","uniform","","","","","","","","273268.5","275272.6000000015","","","","","","","","","","","","5","","stimuli/stars_5.png","191.5","","","","","stimuli/WM09_SC.jpg","",""
"explore-choice","117","275232","0.0-117.0","p816686","A48WNR6C4CI3J","3S1L4CQSFYBD9IN1W8PCJQ1H8N7AFE","3OE22WJIGKUX20P26VMYKACE530UQL","model","match","uniform","","","","","","","883","275274.80000000447","276157.80000000447","[""stimuli/WM09_CC.jpg"",""stimuli/AM05_DO.jpg"",""stimuli/BF04_AO.jpg"",""stimuli/AF02_SC.jpg""]","stimuli/WM09_CC.jpg","stimuli/AM05_DO.jpg","stimuli/BF04_AO.jpg","stimuli/AF02_SC.jpg","pos1","stimuli/WM09_CC.jpg","CC","WM09","0","2","4","6","stimuli/stars_4.png","193.5","[""CC"",""DO"",""AO"",""SC""]","[""WM09"",""AM05"",""BF04"",""AF02""]","[4,1,6,6]","[6,2,8,4]","","",""
"show-reward","118","277235","0.0-118.0","p816686","A48WNR6C4CI3J","3S1L4CQSFYBD9IN1W8PCJQ1H8N7AFE","3OE22WJIGKUX20P26VMYKACE530UQL","model","match","uniform","","","","","","","","276659.200000003","278660.90000000596","","","","","","","","","","","","4","","stimuli/stars_4.png","193.5","","","","","stimuli/WM09_CC.jpg","",""
"explore-choice","119","279024","0.0-119.0","p816686","A48WNR6C4CI3J","3S1L4CQSFYBD9IN1W8PCJQ1H8N7AFE","3OE22WJIGKUX20P26VMYKACE530UQL","model","match","uniform","","","","","","","1286.8000000044703","278662.6000000015","279949.40000000596","[""stimuli/WM09_DO.jpg"",""stimuli/BF04_CC.jpg"",""stimuli/AM05_AO.jpg"",""stimuli/AF02_SC.jpg""]","stimuli/WM09_DO.jpg","stimuli/BF04_CC.jpg","stimuli/AM05_AO.jpg","stimuli/AF02_SC.jpg","pos1","stimuli/WM09_DO.jpg","DO","WM09","0","2.5","5","6","stimuli/stars_5.png","196","[""DO"",""CC"",""AO"",""SC""]","[""WM09"",""BF04"",""AM05"",""AF02""]","[5,6,3,2]","[6,8,2,4]","","",""
"show-reward","120","281030","0.0-120.0","p816686","A48WNR6C4CI3J","3S1L4CQSFYBD9IN1W8PCJQ1H8N7AFE","3OE22WJIGKUX20P26VMYKACE530UQL","model","match","uniform","","","","","","","","280451.90000000596","282455.6000000015","","","","","","","","","","","","5","","stimuli/stars_5.png","196","","","","","stimuli/WM09_DO.jpg","",""
"explore-choice","121","282504","0.0-121.0","p816686","A48WNR6C4CI3J","3S1L4CQSFYBD9IN1W8PCJQ1H8N7AFE","3OE22WJIGKUX20P26VMYKACE530UQL","model","match","uniform","","","","","","","971.8999999985099","282457.700000003","283429.6000000015","[""stimuli/WM09_CC.jpg"",""stimuli/AF02_DO.jpg"",""stimuli/AM05_SC.jpg"",""stimuli/BF04_AO.jpg""]","stimuli/WM09_CC.jpg","stimuli/AF02_DO.jpg","stimuli/AM05_SC.jpg","stimuli/BF04_AO.jpg","pos1","stimuli/WM09_CC.jpg","CC","WM09","0","4","8","6","stimuli/stars_8.png","200","[""CC"",""DO"",""SC"",""AO""]","[""WM09"",""AF02"",""AM05"",""BF04""]","[8,5,0,8]","[6,4,2,8]","","",""
"show-reward","122","284509","0.0-122.0","p816686","A48WNR6C4CI3J","3S1L4CQSFYBD9IN1W8PCJQ1H8N7AFE","3OE22WJIGKUX20P26VMYKACE530UQL","model","match","uniform","","","","","","","","283932","285935.5","","","","","","","","","","","","8","","stimuli/stars_8.png","200","","","","","stimuli/WM09_CC.jpg","",""
"explore-choice","123","286731","0.0-123.0","p816686","A48WNR6C4CI3J","3S1L4CQSFYBD9IN1W8PCJQ1H8N7AFE","3OE22WJIGKUX20P26VMYKACE530UQL","model","match","uniform","","","","","","","1720.2999999970198","285936.40000000596","287656.700000003","[""stimuli/AF02_AO.jpg"",""stimuli/AM05_CC.jpg"",""stimuli/BF04_DO.jpg"",""stimuli/WM09_SC.jpg""]","stimuli/AF02_AO.jpg","stimuli/AM05_CC.jpg","stimuli/BF04_DO.jpg","stimuli/WM09_SC.jpg","pos4","stimuli/WM09_SC.jpg","SC","WM09","3","3","6","6","stimuli/stars_6.png","203","[""AO"",""CC"",""DO"",""SC""]","[""AF02"",""AM05"",""BF04"",""WM09""]","[2,4,6,6]","[4,2,8,6]","","",""
"show-reward","124","288736","0.0-124.0","p816686","A48WNR6C4CI3J","3S1L4CQSFYBD9IN1W8PCJQ1H8N7AFE","3OE22WJIGKUX20P26VMYKACE530UQL","model","match","uniform","","","","","","","","288158.80000000447","290162","","","","","","","","","","","","6","","stimuli/stars_6.png","203","","","","","stimuli/WM09_SC.jpg","",""
"explore-choice","125","290776","0.0-125.0","p816686","A48WNR6C4CI3J","3S1L4CQSFYBD9IN1W8PCJQ1H8N7AFE","3OE22WJIGKUX20P26VMYKACE530UQL","model","match","uniform","","","","","","","1537.5","290164","291701.5","[""stimuli/AF02_AO.jpg"",""stimuli/BF04_CC.jpg"",""stimuli/AM05_SC.jpg"",""stimuli/WM09_DO.jpg""]","stimuli/AF02_AO.jpg","stimuli/BF04_CC.jpg","stimuli/AM05_SC.jpg","stimuli/WM09_DO.jpg","pos4","stimuli/WM09_DO.jpg","DO","WM09","3","2","4","6","stimuli/stars_4.png","205","[""AO"",""CC"",""SC"",""DO""]","[""AF02"",""BF04"",""AM05"",""WM09""]","[5,7,3,4]","[4,8,2,6]","","",""
"show-reward","126","292781","0.0-126.0","p816686","A48WNR6C4CI3J","3S1L4CQSFYBD9IN1W8PCJQ1H8N7AFE","3OE22WJIGKUX20P26VMYKACE530UQL","model","match","uniform","","","","","","","","292203.5","294206.5","","","","","","","","","","","","4","","stimuli/stars_4.png","205","","","","","stimuli/WM09_DO.jpg","",""
"explore-choice","127","294712","0.0-127.0","p816686","A48WNR6C4CI3J","3S1L4CQSFYBD9IN1W8PCJQ1H8N7AFE","3OE22WJIGKUX20P26VMYKACE530UQL","model","match","uniform","","","","","","","1428.8000000044703","294208.5","295637.30000000447","[""stimuli/AM05_AO.jpg"",""stimuli/WM09_SC.jpg"",""stimuli/BF04_DO.jpg"",""stimuli/AF02_CC.jpg""]","stimuli/AM05_AO.jpg","stimuli/WM09_SC.jpg","stimuli/BF04_DO.jpg","stimuli/AF02_CC.jpg","pos2","stimuli/WM09_SC.jpg","SC","WM09","1","4","8","6","stimuli/stars_8.png","209","[""AO"",""SC"",""DO"",""CC""]","[""AM05"",""WM09"",""BF04"",""AF02""]","[2,8,10,5]","[2,6,8,4]","","",""
"show-reward","128","296718","0.0-128.0","p816686","A48WNR6C4CI3J","3S1L4CQSFYBD9IN1W8PCJQ1H8N7AFE","3OE22WJIGKUX20P26VMYKACE530UQL","model","match","uniform","","","","","","","","296140","298143.40000000596","","","","","","","","","","","","8","","stimuli/stars_8.png","209","","","","","stimuli/WM09_SC.jpg","",""
"explore-choice","129","298360","0.0-129.0","p816686","A48WNR6C4CI3J","3S1L4CQSFYBD9IN1W8PCJQ1H8N7AFE","3OE22WJIGKUX20P26VMYKACE530UQL","model","match","uniform","","","","","","","1139.9000000059605","298145.5","299285.40000000596","[""stimuli/AF02_SC.jpg"",""stimuli/WM09_DO.jpg"",""stimuli/AM05_CC.jpg"",""stimuli/BF04_AO.jpg""]","stimuli/AF02_SC.jpg","stimuli/WM09_DO.jpg","stimuli/AM05_CC.jpg","stimuli/BF04_AO.jpg","pos2","stimuli/WM09_DO.jpg","DO","WM09","1","2.5","5","6","stimuli/stars_5.png","211.5","[""SC"",""DO"",""CC"",""AO""]","[""AF02"",""WM09"",""AM05"",""BF04""]","[6,5,4,7]","[4,6,2,8]","","",""
"show-reward","130","300366","0.0-130.0","p816686","A48WNR6C4CI3J","3S1L4CQSFYBD9IN1W8PCJQ1H8N7AFE","3OE22WJIGKUX20P26VMYKACE530UQL","model","match","uniform","","","","","","","","299787.700000003","301791.200000003","","","","","","","","","","","","5","","stimuli/stars_5.png","211.5","","","","","stimuli/WM09_DO.jpg","",""
"explore-choice","131","301936","0.0-131.0","p816686","A48WNR6C4CI3J","3S1L4CQSFYBD9IN1W8PCJQ1H8N7AFE","3OE22WJIGKUX20P26VMYKACE530UQL","model","match","uniform","","","","","","","1068.3000000044703","301793.1000000015","302861.40000000596","[""stimuli/WM09_CC.jpg"",""stimuli/AM05_DO.jpg"",""stimuli/AF02_AO.jpg"",""stimuli/BF04_SC.jpg""]","stimuli/WM09_CC.jpg","stimuli/AM05_DO.jpg","stimuli/AF02_AO.jpg","stimuli/BF04_SC.jpg","pos1","stimuli/WM09_CC.jpg","CC","WM09","0","2.5","5","6","stimuli/stars_5.png","214","[""CC"",""DO"",""AO"",""SC""]","[""WM09"",""AM05"",""AF02"",""BF04""]","[5,3,6,10]","[6,2,4,8]","","",""
"show-reward","132","303939","0.0-132.0","p816686","A48WNR6C4CI3J","3S1L4CQSFYBD9IN1W8PCJQ1H8N7AFE","3OE22WJIGKUX20P26VMYKACE530UQL","model","match","uniform","","","","","","","","303363.6000000015","305365.30000000447","","","","","","","","","","","","5","","stimuli/stars_5.png","214","","","","","stimuli/WM09_CC.jpg","",""
"explore-choice","133","305824","0.0-133.0","p816686","A48WNR6C4CI3J","3S1L4CQSFYBD9IN1W8PCJQ1H8N7AFE","3OE22WJIGKUX20P26VMYKACE530UQL","model","match","uniform","","","","","","","1383.1999999955297","305366.30000000447","306749.5","[""stimuli/AM05_CC.jpg"",""stimuli/AF02_SC.jpg"",""stimuli/BF04_DO.jpg"",""stimuli/WM09_AO.jpg""]","stimuli/AM05_CC.jpg","stimuli/AF02_SC.jpg","stimuli/BF04_DO.jpg","stimuli/WM09_AO.jpg","pos4","stimuli/WM09_AO.jpg","AO","WM09","3","3.5","7","6","stimuli/stars_7.png","217.5","[""CC"",""SC"",""DO"",""AO""]","[""AM05"",""AF02"",""BF04"",""WM09""]","[2,6,10,7]","[2,4,8,6]","","",""
"show-reward","134","307830","0.0-134.0","p816686","A48WNR6C4CI3J","3S1L4CQSFYBD9IN1W8PCJQ1H8N7AFE","3OE22WJIGKUX20P26VMYKACE530UQL","model","match","uniform","","","","","","","","307251.80000000447","309255.40000000596","","","","","","","","","","","","7","","stimuli/stars_7.png","217.5","","","","","stimuli/WM09_AO.jpg","",""
"explore-choice","135","309876","0.0-135.0","p816686","A48WNR6C4CI3J","3S1L4CQSFYBD9IN1W8PCJQ1H8N7AFE","3OE22WJIGKUX20P26VMYKACE530UQL","model","match","uniform","","","","","","","1544.1999999955297","309257.30000000447","310801.5","[""stimuli/AM05_DO.jpg"",""stimuli/AF02_AO.jpg"",""stimuli/BF04_CC.jpg"",""stimuli/WM09_SC.jpg""]","stimuli/AM05_DO.jpg","stimuli/AF02_AO.jpg","stimuli/BF04_CC.jpg","stimuli/WM09_SC.jpg","pos4","stimuli/WM09_SC.jpg","SC","WM09","3","3.5","7","6","stimuli/stars_7.png","221","[""DO"",""AO"",""CC"",""SC""]","[""AM05"",""AF02"",""BF04"",""WM09""]","[1,6,7,7]","[2,4,8,6]","","",""
"show-reward","136","311879","0.0-136.0","p816686","A48WNR6C4CI3J","3S1L4CQSFYBD9IN1W8PCJQ1H8N7AFE","3OE22WJIGKUX20P26VMYKACE530UQL","model","match","uniform","","","","","","","","311302.80000000447","313304.700000003","","","","","","","","","","","","7","","stimuli/stars_7.png","221","","","","","stimuli/WM09_SC.jpg","",""
"explore-choice","137","313807","0.0-137.0","p816686","A48WNR6C4CI3J","3S1L4CQSFYBD9IN1W8PCJQ1H8N7AFE","3OE22WJIGKUX20P26VMYKACE530UQL","model","match","uniform","","","","","","","1426","313306.700000003","314732.700000003","[""stimuli/AM05_SC.jpg"",""stimuli/AF02_CC.jpg"",""stimuli/WM09_DO.jpg"",""stimuli/BF04_AO.jpg""]","stimuli/AM05_SC.jpg","stimuli/AF02_CC.jpg","stimuli/WM09_DO.jpg","stimuli/BF04_AO.jpg","pos3","stimuli/WM09_DO.jpg","DO","WM09","2","3.5","7","6","stimuli/stars_7.png","224.5","[""SC"",""CC"",""DO"",""AO""]","[""AM05"",""AF02"",""WM09"",""BF04""]","[3,5,7,8]","[2,4,6,8]","","",""
"show-reward","138","315813","0.0-138.0","p816686","A48WNR6C4CI3J","3S1L4CQSFYBD9IN1W8PCJQ1H8N7AFE","3OE22WJIGKUX20P26VMYKACE530UQL","model","match","uniform","","","","","","","","315235.1000000015","317238.700000003","","","","","","","","","","","","7","","stimuli/stars_7.png","224.5","","","","","stimuli/WM09_DO.jpg","",""
"explore-choice","139","317276","0.0-139.0","p816686","A48WNR6C4CI3J","3S1L4CQSFYBD9IN1W8PCJQ1H8N7AFE","3OE22WJIGKUX20P26VMYKACE530UQL","model","match","uniform","","","","","","","960.6000000014901","317240.6000000015","318201.200000003","[""stimuli/BF04_AO.jpg"",""stimuli/AF02_CC.jpg"",""stimuli/WM09_SC.jpg"",""stimuli/AM05_DO.jpg""]","stimuli/BF04_AO.jpg","stimuli/AF02_CC.jpg","stimuli/WM09_SC.jpg","stimuli/AM05_DO.jpg","pos3","stimuli/WM09_SC.jpg","SC","WM09","2","2.5","5","6","stimuli/stars_5.png","227","[""AO"",""CC"",""SC"",""DO""]","[""BF04"",""AF02"",""WM09"",""AM05""]","[7,4,5,3]","[8,4,6,2]","","",""
"show-reward","140","319282","0.0-140.0","p816686","A48WNR6C4CI3J","3S1L4CQSFYBD9IN1W8PCJQ1H8N7AFE","3OE22WJIGKUX20P26VMYKACE530UQL","model","match","uniform","","","","","","","","318704","320707.700000003","","","","","","","","","","","","5","","stimuli/stars_5.png","227","","","","","stimuli/WM09_SC.jpg","",""
"explore-choice","141","321153","0.0-141.0","p816686","A48WNR6C4CI3J","3S1L4CQSFYBD9IN1W8PCJQ1H8N7AFE","3OE22WJIGKUX20P26VMYKACE530UQL","model","match","uniform","","","","","","","1368.8999999985099","320708.80000000447","322077.700000003","[""stimuli/WM09_CC.jpg"",""stimuli/AF02_DO.jpg"",""stimuli/BF04_SC.jpg"",""stimuli/AM05_AO.jpg""]","stimuli/WM09_CC.jpg","stimuli/AF02_DO.jpg","stimuli/BF04_SC.jpg","stimuli/AM05_AO.jpg","pos1","stimuli/WM09_CC.jpg","CC","WM09","0","2.5","5","6","stimuli/stars_5.png","229.5","[""CC"",""DO"",""SC"",""AO""]","[""WM09"",""AF02"",""BF04"",""AM05""]","[5,2,9,1]","[6,4,8,2]","","",""
"show-reward","142","323159","0.0-142.0","p816686","A48WNR6C4CI3J","3S1L4CQSFYBD9IN1W8PCJQ1H8N7AFE","3OE22WJIGKUX20P26VMYKACE530UQL","model","match","uniform","","","","","","","","322580.30000000447","324584.1000000015","","","","","","","","","","","","5","","stimuli/stars_5.png","229.5","","","","","stimuli/WM09_CC.jpg","",""
"explore-choice","143","325519","0.0-143.0","p816686","A48WNR6C4CI3J","3S1L4CQSFYBD9IN1W8PCJQ1H8N7AFE","3OE22WJIGKUX20P26VMYKACE530UQL","model","match","uniform","","","","","","","1858.5","324585.80000000447","326444.30000000447","[""stimuli/BF04_SC.jpg"",""stimuli/WM09_DO.jpg"",""stimuli/AM05_CC.jpg"",""stimuli/AF02_AO.jpg""]","stimuli/BF04_SC.jpg","stimuli/WM09_DO.jpg","stimuli/AM05_CC.jpg","stimuli/AF02_AO.jpg","pos2","stimuli/WM09_DO.jpg","DO","WM09","1","3","6","6","stimuli/stars_6.png","232.5","[""SC"",""DO"",""CC"",""AO""]","[""BF04"",""WM09"",""AM05"",""AF02""]","[10,6,0,6]","[8,6,2,4]","","",""
"show-reward","144","327525","0.0-144.0","p816686","A48WNR6C4CI3J","3S1L4CQSFYBD9IN1W8PCJQ1H8N7AFE","3OE22WJIGKUX20P26VMYKACE530UQL","model","match","uniform","","","","","","","","326947.1000000015","328950.6000000015","","","","","","","","","","","","6","","stimuli/stars_6.png","232.5","","","","","stimuli/WM09_DO.jpg","",""
"explore-choice","145","329295","0.0-145.0","p816686","A48WNR6C4CI3J","3S1L4CQSFYBD9IN1W8PCJQ1H8N7AFE","3OE22WJIGKUX20P26VMYKACE530UQL","model","match","uniform","","","","","","","1268.3000000044703","328951.6000000015","330219.90000000596","[""stimuli/AM05_SC.jpg"",""stimuli/AF02_DO.jpg"",""stimuli/BF04_CC.jpg"",""stimuli/WM09_AO.jpg""]","stimuli/AM05_SC.jpg","stimuli/AF02_DO.jpg","stimuli/BF04_CC.jpg","stimuli/WM09_AO.jpg","pos4","stimuli/WM09_AO.jpg","AO","WM09","3","2.5","5","6","stimuli/stars_5.png","235","[""SC"",""DO"",""CC"",""AO""]","[""AM05"",""AF02"",""BF04"",""WM09""]","[1,5,6,5]","[2,4,8,6]","","",""
"show-reward","146","331300","0.0-146.0","p816686","A48WNR6C4CI3J","3S1L4CQSFYBD9IN1W8PCJQ1H8N7AFE","3OE22WJIGKUX20P26VMYKACE530UQL","model","match","uniform","","","","","","","","330722.40000000596","332725.80000000447","","","","","","","","","","","","5","","stimuli/stars_5.png","235","","","","","stimuli/WM09_AO.jpg","",""
"explore-choice","147","333544","0.0-147.0","p816686","A48WNR6C4CI3J","3S1L4CQSFYBD9IN1W8PCJQ1H8N7AFE","3OE22WJIGKUX20P26VMYKACE530UQL","model","match","uniform","","","","","","","1742","332727.1000000015","334469.1000000015","[""stimuli/AF02_DO.jpg"",""stimuli/BF04_CC.jpg"",""stimuli/WM09_SC.jpg"",""stimuli/AM05_AO.jpg""]","stimuli/AF02_DO.jpg","stimuli/BF04_CC.jpg","stimuli/WM09_SC.jpg","stimuli/AM05_AO.jpg","pos3","stimuli/WM09_SC.jpg","SC","WM09","2","4","8","6","stimuli/stars_8.png","239","[""DO"",""CC"",""SC"",""AO""]","[""AF02"",""BF04"",""WM09"",""AM05""]","[5,9,8,3]","[4,8,6,2]","","",""
"show-reward","148","335548","0.0-148.0","p816686","A48WNR6C4CI3J","3S1L4CQSFYBD9IN1W8PCJQ1H8N7AFE","3OE22WJIGKUX20P26VMYKACE530UQL","model","match","uniform","","","","","","","","334971.200000003","336974.40000000596","","","","","","","","","","","","8","","stimuli/stars_8.png","239","","","","","stimuli/WM09_SC.jpg","",""
"explore-choice","149","337408","0.0-149.0","p816686","A48WNR6C4CI3J","3S1L4CQSFYBD9IN1W8PCJQ1H8N7AFE","3OE22WJIGKUX20P26VMYKACE530UQL","model","match","uniform","","","","","","","1358.3999999985099","336975.200000003","338333.6000000015","[""stimuli/AF02_CC.jpg"",""stimuli/AM05_SC.jpg"",""stimuli/WM09_AO.jpg"",""stimuli/BF04_DO.jpg""]","stimuli/AF02_CC.jpg","stimuli/AM05_SC.jpg","stimuli/WM09_AO.jpg","stimuli/BF04_DO.jpg","pos3","stimuli/WM09_AO.jpg","AO","WM09","2","2","4","6","stimuli/stars_4.png","241","[""CC"",""SC"",""AO"",""DO""]","[""AF02"",""AM05"",""WM09"",""BF04""]","[2,0,4,9]","[4,2,6,8]","","",""
"show-reward","150","339411","0.0-150.0","p816686","A48WNR6C4CI3J","3S1L4CQSFYBD9IN1W8PCJQ1H8N7AFE","3OE22WJIGKUX20P26VMYKACE530UQL","model","match","uniform","","","","","","","","338834.80000000447","340836.6000000015","","","","","","","","","","","","4","","stimuli/stars_4.png","241","","","","","stimuli/WM09_AO.jpg","",""
"explore-choice","151","341255","0.0-151.0","p816686","A48WNR6C4CI3J","3S1L4CQSFYBD9IN1W8PCJQ1H8N7AFE","3OE22WJIGKUX20P26VMYKACE530UQL","model","match","uniform","","","","","","","1341.6000000014901","340838.700000003","342180.30000000447","[""stimuli/BF04_CC.jpg"",""stimuli/AF02_DO.jpg"",""stimuli/WM09_SC.jpg"",""stimuli/AM05_AO.jpg""]","stimuli/BF04_CC.jpg","stimuli/AF02_DO.jpg","stimuli/WM09_SC.jpg","stimuli/AM05_AO.jpg","pos3","stimuli/WM09_SC.jpg","SC","WM09","2","4","8","6","stimuli/stars_8.png","245","[""CC"",""DO"",""SC"",""AO""]","[""BF04"",""AF02"",""WM09"",""AM05""]","[9,5,8,3]","[8,4,6,2]","","",""
"show-reward","152","343260","0.0-152.0","p816686","A48WNR6C4CI3J","3S1L4CQSFYBD9IN1W8PCJQ1H8N7AFE","3OE22WJIGKUX20P26VMYKACE530UQL","model","match","uniform","","","","","","","","342682.30000000447","344685.40000000596","","","","","","","","","","","","8","","stimuli/stars_8.png","245","","","","","stimuli/WM09_SC.jpg","",""
"explore-choice","153","344884","0.0-153.0","p816686","A48WNR6C4CI3J","3S1L4CQSFYBD9IN1W8PCJQ1H8N7AFE","3OE22WJIGKUX20P26VMYKACE530UQL","model","match","uniform","","","","","","","1121.2000000029802","344687.5","345808.700000003","[""stimuli/AF02_AO.jpg"",""stimuli/BF04_CC.jpg"",""stimuli/WM09_DO.jpg"",""stimuli/AM05_SC.jpg""]","stimuli/AF02_AO.jpg","stimuli/BF04_CC.jpg","stimuli/WM09_DO.jpg","stimuli/AM05_SC.jpg","pos3","stimuli/WM09_DO.jpg","DO","WM09","2","2","4","6","stimuli/stars_4.png","247","[""AO"",""CC"",""DO"",""SC""]","[""AF02"",""BF04"",""WM09"",""AM05""]","[5,7,4,3]","[4,8,6,2]","","",""
"show-reward","154","346888","0.0-154.0","p816686","A48WNR6C4CI3J","3S1L4CQSFYBD9IN1W8PCJQ1H8N7AFE","3OE22WJIGKUX20P26VMYKACE530UQL","model","match","uniform","","","","","","","","346311.30000000447","348314.30000000447","","","","","","","","","","","","4","","stimuli/stars_4.png","247","","","","","stimuli/WM09_DO.jpg","",""
"explore-choice","155","348199","0.0-155.0","p816686","A48WNR6C4CI3J","3S1L4CQSFYBD9IN1W8PCJQ1H8N7AFE","3OE22WJIGKUX20P26VMYKACE530UQL","model","match","uniform","","","","","","","809.2999999970198","348315.30000000447","349124.6000000015","[""stimuli/WM09_AO.jpg"",""stimuli/BF04_DO.jpg"",""stimuli/AF02_SC.jpg"",""stimuli/AM05_CC.jpg""]","stimuli/WM09_AO.jpg","stimuli/BF04_DO.jpg","stimuli/AF02_SC.jpg","stimuli/AM05_CC.jpg","pos1","stimuli/WM09_AO.jpg","AO","WM09","0","3.5","7","6","stimuli/stars_7.png","250.5","[""AO"",""DO"",""SC"",""CC""]","[""WM09"",""BF04"",""AF02"",""AM05""]","[7,10,6,2]","[6,8,4,2]","","",""
"show-reward","156","350202","0.0-156.0","p816686","A48WNR6C4CI3J","3S1L4CQSFYBD9IN1W8PCJQ1H8N7AFE","3OE22WJIGKUX20P26VMYKACE530UQL","model","match","uniform","","","","","","","","349625.90000000596","351627.700000003","","","","","","","","","","","","7","","stimuli/stars_7.png","250.5","","","","","stimuli/WM09_AO.jpg","",""
"explore-choice","157","352206","0.0-157.0","p816686","A48WNR6C4CI3J","3S1L4CQSFYBD9IN1W8PCJQ1H8N7AFE","3OE22WJIGKUX20P26VMYKACE530UQL","model","match","uniform","","","","","","","1502.1999999955297","351629.40000000596","353131.6000000015","[""stimuli/AF02_CC.jpg"",""stimuli/BF04_SC.jpg"",""stimuli/WM09_AO.jpg"",""stimuli/AM05_DO.jpg""]","stimuli/AF02_CC.jpg","stimuli/BF04_SC.jpg","stimuli/WM09_AO.jpg","stimuli/AM05_DO.jpg","pos3","stimuli/WM09_AO.jpg","AO","WM09","2","3","6","6","stimuli/stars_6.png","253.5","[""CC"",""SC"",""AO"",""DO""]","[""AF02"",""BF04"",""WM09"",""AM05""]","[4,10,6,3]","[4,8,6,2]","","",""
"show-reward","158","354210","0.0-158.0","p816686","A48WNR6C4CI3J","3S1L4CQSFYBD9IN1W8PCJQ1H8N7AFE","3OE22WJIGKUX20P26VMYKACE530UQL","model","match","uniform","","","","","","","","353632.80000000447","355635.5","","","","","","","","","","","","6","","stimuli/stars_6.png","253.5","","","","","stimuli/WM09_AO.jpg","",""
"explore-choice","159","355856","0.0-159.0","p816686","A48WNR6C4CI3J","3S1L4CQSFYBD9IN1W8PCJQ1H8N7AFE","3OE22WJIGKUX20P26VMYKACE530UQL","model","match","uniform","","","","","","","1143","355637.80000000447","356780.80000000447","[""stimuli/BF04_SC.jpg"",""stimuli/WM09_CC.jpg"",""stimuli/AM05_AO.jpg"",""stimuli/AF02_DO.jpg""]","stimuli/BF04_SC.jpg","stimuli/WM09_CC.jpg","stimuli/AM05_AO.jpg","stimuli/AF02_DO.jpg","pos2","stimuli/WM09_CC.jpg","CC","WM09","1","2.5","5","6","stimuli/stars_5.png","256","[""SC"",""CC"",""AO"",""DO""]","[""BF04"",""WM09"",""AM05"",""AF02""]","[9,5,1,2]","[8,6,2,4]","","",""
"show-reward","160","357861","0.0-160.0","p816686","A48WNR6C4CI3J","3S1L4CQSFYBD9IN1W8PCJQ1H8N7AFE","3OE22WJIGKUX20P26VMYKACE530UQL","model","match","uniform","","","","","","","","357283.30000000447","359286.700000003","","","","","","","","","","","","5","","stimuli/stars_5.png","256","","","","","stimuli/WM09_CC.jpg","",""
"explore-choice","161","359735","0.0-161.0","p816686","A48WNR6C4CI3J","3S1L4CQSFYBD9IN1W8PCJQ1H8N7AFE","3OE22WJIGKUX20P26VMYKACE530UQL","model","match","uniform","","","","","","","1372.0999999940395","359288.40000000596","360660.5","[""stimuli/AF02_DO.jpg"",""stimuli/AM05_SC.jpg"",""stimuli/BF04_CC.jpg"",""stimuli/WM09_AO.jpg""]","stimuli/AF02_DO.jpg","stimuli/AM05_SC.jpg","stimuli/BF04_CC.jpg","stimuli/WM09_AO.jpg","pos4","stimuli/WM09_AO.jpg","AO","WM09","3","2.5","5","6","stimuli/stars_5.png","258.5","[""DO"",""SC"",""CC"",""AO""]","[""AF02"",""AM05"",""BF04"",""WM09""]","[5,1,6,5]","[4,2,8,6]","","",""
"show-reward","162","361743","0.0-162.0","p816686","A48WNR6C4CI3J","3S1L4CQSFYBD9IN1W8PCJQ1H8N7AFE","3OE22WJIGKUX20P26VMYKACE530UQL","model","match","uniform","","","","","","","","361163","363169","","","","","","","","","","","","5","","stimuli/stars_5.png","258.5","","","","","stimuli/WM09_AO.jpg","",""
"explore-choice","163","363328","0.0-163.0","p816686","A48WNR6C4CI3J","3S1L4CQSFYBD9IN1W8PCJQ1H8N7AFE","3OE22WJIGKUX20P26VMYKACE530UQL","model","match","uniform","","","","","","","1081.8999999985099","363170.90000000596","364252.80000000447","[""stimuli/AM05_DO.jpg"",""stimuli/AF02_SC.jpg"",""stimuli/BF04_AO.jpg"",""stimuli/WM09_CC.jpg""]","stimuli/AM05_DO.jpg","stimuli/AF02_SC.jpg","stimuli/BF04_AO.jpg","stimuli/WM09_CC.jpg","pos4","stimuli/WM09_CC.jpg","CC","WM09","3","2","4","6","stimuli/stars_4.png","260.5","[""DO"",""SC"",""AO"",""CC""]","[""AM05"",""AF02"",""BF04"",""WM09""]","[1,6,6,4]","[2,4,8,6]","","",""
"show-reward","164","365334","0.0-164.0","p816686","A48WNR6C4CI3J","3S1L4CQSFYBD9IN1W8PCJQ1H8N7AFE","3OE22WJIGKUX20P26VMYKACE530UQL","model","match","uniform","","","","","","","","364755.30000000447","366759.1000000015","","","","","","","","","","","","4","","stimuli/stars_4.png","260.5","","","","","stimuli/WM09_CC.jpg","",""
"explore-choice","165","366927","0.0-165.0","p816686","A48WNR6C4CI3J","3S1L4CQSFYBD9IN1W8PCJQ1H8N7AFE","3OE22WJIGKUX20P26VMYKACE530UQL","model","match","uniform","","","","","","","1090.5999999940395","366761.40000000596","367852","[""stimuli/AF02_DO.jpg"",""stimuli/WM09_AO.jpg"",""stimuli/BF04_SC.jpg"",""stimuli/AM05_CC.jpg""]","stimuli/AF02_DO.jpg","stimuli/WM09_AO.jpg","stimuli/BF04_SC.jpg","stimuli/AM05_CC.jpg","pos2","stimuli/WM09_AO.jpg","AO","WM09","1","3.5","7","6","stimuli/stars_7.png","264","[""DO"",""AO"",""SC"",""CC""]","[""AF02"",""WM09"",""BF04"",""AM05""]","[6,7,8,3]","[4,6,8,2]","","",""
"show-reward","166","368932","0.0-166.0","p816686","A48WNR6C4CI3J","3S1L4CQSFYBD9IN1W8PCJQ1H8N7AFE","3OE22WJIGKUX20P26VMYKACE530UQL","model","match","uniform","","","","","","","","368354.200000003","370357.6000000015","","","","","","","","","","","","7","","stimuli/stars_7.png","264","","","","","stimuli/WM09_AO.jpg","",""
"explore-choice","167","370400","0.0-167.0","p816686","A48WNR6C4CI3J","3S1L4CQSFYBD9IN1W8PCJQ1H8N7AFE","3OE22WJIGKUX20P26VMYKACE530UQL","model","match","uniform","","","","","","","966.7000000029802","370358.6000000015","371325.30000000447","[""stimuli/AM05_SC.jpg"",""stimuli/BF04_DO.jpg"",""stimuli/AF02_CC.jpg"",""stimuli/WM09_AO.jpg""]","stimuli/AM05_SC.jpg","stimuli/BF04_DO.jpg","stimuli/AF02_CC.jpg","stimuli/WM09_AO.jpg","pos4","stimuli/WM09_AO.jpg","AO","WM09","3","2","4","6","stimuli/stars_4.png","266","[""SC"",""DO"",""CC"",""AO""]","[""AM05"",""BF04"",""AF02"",""WM09""]","[0,9,2,4]","[2,8,4,6]","","",""
"show-reward","168","372409","0.0-168.0","p816686","A48WNR6C4CI3J","3S1L4CQSFYBD9IN1W8PCJQ1H8N7AFE","3OE22WJIGKUX20P26VMYKACE530UQL","model","match","uniform","","","","","","","","371828.1000000015","373834.1000000015","","","","","","","","","","","","4","","stimuli/stars_4.png","266","","","","","stimuli/WM09_AO.jpg","",""
"explore-choice","169","373847","0.0-169.0","p816686","A48WNR6C4CI3J","3S1L4CQSFYBD9IN1W8PCJQ1H8N7AFE","3OE22WJIGKUX20P26VMYKACE530UQL","model","match","uniform","","","","","","","936.0999999940395","373836.40000000596","374772.5","[""stimuli/BF04_CC.jpg"",""stimuli/WM09_DO.jpg"",""stimuli/AF02_SC.jpg"",""stimuli/AM05_AO.jpg""]","stimuli/BF04_CC.jpg","stimuli/WM09_DO.jpg","stimuli/AF02_SC.jpg","stimuli/AM05_AO.jpg","pos2","stimuli/WM09_DO.jpg","DO","WM09","1","2.5","5","6","stimuli/stars_5.png","268.5","[""CC"",""DO"",""SC"",""AO""]","[""BF04"",""WM09"",""AF02"",""AM05""]","[6,5,2,3]","[8,6,4,2]","","",""
"show-reward","170","375853","0.0-170.0","p816686","A48WNR6C4CI3J","3S1L4CQSFYBD9IN1W8PCJQ1H8N7AFE","3OE22WJIGKUX20P26VMYKACE530UQL","model","match","uniform","","","","","","","","375274.80000000447","377278.6000000015","","","","","","","","","","","","5","","stimuli/stars_5.png","268.5","","","","","stimuli/WM09_DO.jpg","",""
"explore-choice","171","377230","0.0-171.0","p816686","A48WNR6C4CI3J","3S1L4CQSFYBD9IN1W8PCJQ1H8N7AFE","3OE22WJIGKUX20P26VMYKACE530UQL","model","match","uniform","","","","","","","876","377279.90000000596","378155.90000000596","[""stimuli/AM05_DO.jpg"",""stimuli/WM09_SC.jpg"",""stimuli/AF02_AO.jpg"",""stimuli/BF04_CC.jpg""]","stimuli/AM05_DO.jpg","stimuli/WM09_SC.jpg","stimuli/AF02_AO.jpg","stimuli/BF04_CC.jpg","pos2","stimuli/WM09_SC.jpg","SC","WM09","1","3.5","7","6","stimuli/stars_7.png","272","[""DO"",""SC"",""AO"",""CC""]","[""AM05"",""WM09"",""AF02"",""BF04""]","[1,7,6,7]","[2,6,4,8]","","",""
"show-reward","172","379233","0.0-172.0","p816686","A48WNR6C4CI3J","3S1L4CQSFYBD9IN1W8PCJQ1H8N7AFE","3OE22WJIGKUX20P26VMYKACE530UQL","model","match","uniform","","","","","","","","378657.200000003","380659.200000003","","","","","","","","","","","","7","","stimuli/stars_7.png","272","","","","","stimuli/WM09_SC.jpg","",""
"explore-choice","173","381071","0.0-173.0","p816686","A48WNR6C4CI3J","3S1L4CQSFYBD9IN1W8PCJQ1H8N7AFE","3OE22WJIGKUX20P26VMYKACE530UQL","model","match","uniform","","","","","","","1335.5","380661","381996.5","[""stimuli/AF02_DO.jpg"",""stimuli/BF04_AO.jpg"",""stimuli/WM09_SC.jpg"",""stimuli/AM05_CC.jpg""]","stimuli/AF02_DO.jpg","stimuli/BF04_AO.jpg","stimuli/WM09_SC.jpg","stimuli/AM05_CC.jpg","pos3","stimuli/WM09_SC.jpg","SC","WM09","2","2.5","5","6","stimuli/stars_5.png","274.5","[""DO"",""AO"",""SC"",""CC""]","[""AF02"",""BF04"",""WM09"",""AM05""]","[4,9,5,0]","[4,8,6,2]","","",""
"show-reward","174","383077","0.0-174.0","p816686","A48WNR6C4CI3J","3S1L4CQSFYBD9IN1W8PCJQ1H8N7AFE","3OE22WJIGKUX20P26VMYKACE530UQL","model","match","uniform","","","","","","","","382499","384502.40000000596","","","","","","","","","","","","5","","stimuli/stars_5.png","274.5","","","","","stimuli/WM09_SC.jpg","",""
"explore-choice","175","384742","0.0-175.0","p816686","A48WNR6C4CI3J","3S1L4CQSFYBD9IN1W8PCJQ1H8N7AFE","3OE22WJIGKUX20P26VMYKACE530UQL","model","match","uniform","","","","","","","1163.7000000029802","384504.1000000015","385667.80000000447","[""stimuli/AF02_AO.jpg"",""stimuli/WM09_DO.jpg"",""stimuli/BF04_SC.jpg"",""stimuli/AM05_CC.jpg""]","stimuli/AF02_AO.jpg","stimuli/WM09_DO.jpg","stimuli/BF04_SC.jpg","stimuli/AM05_CC.jpg","pos2","stimuli/WM09_DO.jpg","DO","WM09","1","3","6","6","stimuli/stars_6.png","277.5","[""AO"",""DO"",""SC"",""CC""]","[""AF02"",""WM09"",""BF04"",""AM05""]","[6,6,10,0]","[4,6,8,2]","","",""
"show-reward","176","386745","0.0-176.0","p816686","A48WNR6C4CI3J","3S1L4CQSFYBD9IN1W8PCJQ1H8N7AFE","3OE22WJIGKUX20P26VMYKACE530UQL","model","match","uniform","","","","","","","","386169.1000000015","388171.30000000447","","","","","","","","","","","","6","","stimuli/stars_6.png","277.5","","","","","stimuli/WM09_DO.jpg","",""
"explore-choice","177","387886","0.0-177.0","p816686","A48WNR6C4CI3J","3S1L4CQSFYBD9IN1W8PCJQ1H8N7AFE","3OE22WJIGKUX20P26VMYKACE530UQL","model","match","uniform","","","","","","","639.1000000014901","388173","388812.1000000015","[""stimuli/WM09_SC.jpg"",""stimuli/BF04_DO.jpg"",""stimuli/AM05_CC.jpg"",""stimuli/AF02_AO.jpg""]","stimuli/WM09_SC.jpg","stimuli/BF04_DO.jpg","stimuli/AM05_CC.jpg","stimuli/AF02_AO.jpg","pos1","stimuli/WM09_SC.jpg","SC","WM09","0","3","6","6","stimuli/stars_6.png","280.5","[""SC"",""DO"",""CC"",""AO""]","[""WM09"",""BF04"",""AM05"",""AF02""]","[6,6,4,2]","[6,8,2,4]","","",""
"show-reward","178","389889","0.0-178.0","p816686","A48WNR6C4CI3J","3S1L4CQSFYBD9IN1W8PCJQ1H8N7AFE","3OE22WJIGKUX20P26VMYKACE530UQL","model","match","uniform","","","","","","","","389313.40000000596","391315.200000003","","","","","","","","","","","","6","","stimuli/stars_6.png","280.5","","","","","stimuli/WM09_SC.jpg","",""
"explore-choice","179","391262","0.0-179.0","p816686","A48WNR6C4CI3J","3S1L4CQSFYBD9IN1W8PCJQ1H8N7AFE","3OE22WJIGKUX20P26VMYKACE530UQL","model","match","uniform","","","","","","","870.2000000029802","391317.200000003","392187.40000000596","[""stimuli/BF04_AO.jpg"",""stimuli/WM09_SC.jpg"",""stimuli/AF02_CC.jpg"",""stimuli/AM05_DO.jpg""]","stimuli/BF04_AO.jpg","stimuli/WM09_SC.jpg","stimuli/AF02_CC.jpg","stimuli/AM05_DO.jpg","pos2","stimuli/WM09_SC.jpg","SC","WM09","1","2.5","5","6","stimuli/stars_5.png","283","[""AO"",""SC"",""CC"",""DO""]","[""BF04"",""WM09"",""AF02"",""AM05""]","[7,5,4,3]","[8,6,4,2]","","",""
"show-reward","180","393267","0.0-180.0","p816686","A48WNR6C4CI3J","3S1L4CQSFYBD9IN1W8PCJQ1H8N7AFE","3OE22WJIGKUX20P26VMYKACE530UQL","model","match","uniform","","","","","","","","392690.200000003","394693.40000000596","","","","","","","","","","","","5","","stimuli/stars_5.png","283","","","","","stimuli/WM09_SC.jpg","",""
"explore-choice","181","394839","0.0-181.0","p816686","A48WNR6C4CI3J","3S1L4CQSFYBD9IN1W8PCJQ1H8N7AFE","3OE22WJIGKUX20P26VMYKACE530UQL","model","match","uniform","","","","","","","1069.2000000029802","394695","395764.200000003","[""stimuli/BF04_SC.jpg"",""stimuli/AF02_AO.jpg"",""stimuli/WM09_CC.jpg"",""stimuli/AM05_DO.jpg""]","stimuli/BF04_SC.jpg","stimuli/AF02_AO.jpg","stimuli/WM09_CC.jpg","stimuli/AM05_DO.jpg","pos3","stimuli/WM09_CC.jpg","CC","WM09","2","2.5","5","6","stimuli/stars_5.png","285.5","[""SC"",""AO"",""CC"",""DO""]","[""BF04"",""AF02"",""WM09"",""AM05""]","[10,6,5,3]","[8,4,6,2]","","",""
"show-reward","182","396844","0.0-182.0","p816686","A48WNR6C4CI3J","3S1L4CQSFYBD9IN1W8PCJQ1H8N7AFE","3OE22WJIGKUX20P26VMYKACE530UQL","model","match","uniform","","","","","","","","396266","398269.5","","","","","","","","","","","","5","","stimuli/stars_5.png","285.5","","","","","stimuli/WM09_CC.jpg","",""
"explore-choice","183","398206","0.0-183.0","p816686","A48WNR6C4CI3J","3S1L4CQSFYBD9IN1W8PCJQ1H8N7AFE","3OE22WJIGKUX20P26VMYKACE530UQL","model","match","uniform","","","","","","","859.5","398271.5","399131","[""stimuli/BF04_CC.jpg"",""stimuli/AM05_DO.jpg"",""stimuli/WM09_AO.jpg"",""stimuli/AF02_SC.jpg""]","stimuli/BF04_CC.jpg","stimuli/AM05_DO.jpg","stimuli/WM09_AO.jpg","stimuli/AF02_SC.jpg","pos3","stimuli/WM09_AO.jpg","AO","WM09","2","4","8","6","stimuli/stars_8.png","289.5","[""CC"",""DO"",""AO"",""SC""]","[""BF04"",""AM05"",""WM09"",""AF02""]","[10,0,8,5]","[8,2,6,4]","","",""
"show-reward","184","400211","0.0-184.0","p816686","A48WNR6C4CI3J","3S1L4CQSFYBD9IN1W8PCJQ1H8N7AFE","3OE22WJIGKUX20P26VMYKACE530UQL","model","match","uniform","","","","","","","","399633.6000000015","401637.1000000015","","","","","","","","","","","","8","","stimuli/stars_8.png","289.5","","","","","stimuli/WM09_AO.jpg","",""
"explore-choice","185","402142","0.0-185.0","p816686","A48WNR6C4CI3J","3S1L4CQSFYBD9IN1W8PCJQ1H8N7AFE","3OE22WJIGKUX20P26VMYKACE530UQL","model","match","uniform","","","","","","","1429.1000000014901","401638.200000003","403067.30000000447","[""stimuli/BF04_SC.jpg"",""stimuli/AF02_CC.jpg"",""stimuli/AM05_AO.jpg"",""stimuli/WM09_DO.jpg""]","stimuli/BF04_SC.jpg","stimuli/AF02_CC.jpg","stimuli/AM05_AO.jpg","stimuli/WM09_DO.jpg","pos4","stimuli/WM09_DO.jpg","DO","WM09","3","2","4","6","stimuli/stars_4.png","291.5","[""SC"",""CC"",""AO"",""DO""]","[""BF04"",""AF02"",""AM05"",""WM09""]","[8,6,4,4]","[8,4,2,6]","","",""
"show-reward","186","404147","0.0-186.0","p816686","A48WNR6C4CI3J","3S1L4CQSFYBD9IN1W8PCJQ1H8N7AFE","3OE22WJIGKUX20P26VMYKACE530UQL","model","match","uniform","","","","","","","","403569.1000000015","405572.6000000015","","","","","","","","","","","","4","","stimuli/stars_4.png","291.5","","","","","stimuli/WM09_DO.jpg","",""
"explore-choice","187","405906","0.0-187.0","p816686","A48WNR6C4CI3J","3S1L4CQSFYBD9IN1W8PCJQ1H8N7AFE","3OE22WJIGKUX20P26VMYKACE530UQL","model","match","uniform","","","","","","","1257.4000000059605","405574.5","406831.90000000596","[""stimuli/WM09_DO.jpg"",""stimuli/BF04_AO.jpg"",""stimuli/AF02_CC.jpg"",""stimuli/AM05_SC.jpg""]","stimuli/WM09_DO.jpg","stimuli/BF04_AO.jpg","stimuli/AF02_CC.jpg","stimuli/AM05_SC.jpg","pos1","stimuli/WM09_DO.jpg","DO","WM09","0","3.5","7","6","stimuli/stars_7.png","295","[""DO"",""AO"",""CC"",""SC""]","[""WM09"",""BF04"",""AF02"",""AM05""]","[7,8,5,3]","[6,8,4,2]","","",""
"show-reward","188","407910","0.0-188.0","p816686","A48WNR6C4CI3J","3S1L4CQSFYBD9IN1W8PCJQ1H8N7AFE","3OE22WJIGKUX20P26VMYKACE530UQL","model","match","uniform","","","","","","","","407333.6000000015","409335.90000000596","","","","","","","","","","","","7","","stimuli/stars_7.png","295","","","","","stimuli/WM09_DO.jpg","",""
"explore-choice","189","409206","0.0-189.0","p816686","A48WNR6C4CI3J","3S1L4CQSFYBD9IN1W8PCJQ1H8N7AFE","3OE22WJIGKUX20P26VMYKACE530UQL","model","match","uniform","","","","","","","793.5","409337.80000000447","410131.30000000447","[""stimuli/WM09_DO.jpg"",""stimuli/AM05_CC.jpg"",""stimuli/BF04_AO.jpg"",""stimuli/AF02_SC.jpg""]","stimuli/WM09_DO.jpg","stimuli/AM05_CC.jpg","stimuli/BF04_AO.jpg","stimuli/AF02_SC.jpg","pos1","stimuli/WM09_DO.jpg","DO","WM09","0","2.5","5","6","stimuli/stars_5.png","297.5","[""DO"",""CC"",""AO"",""SC""]","[""WM09"",""AM05"",""BF04"",""AF02""]","[5,4,7,6]","[6,2,8,4]","","",""
"show-reward","190","411210","0.0-190.0","p816686","A48WNR6C4CI3J","3S1L4CQSFYBD9IN1W8PCJQ1H8N7AFE","3OE22WJIGKUX20P26VMYKACE530UQL","model","match","uniform","","","","","","","","410632.80000000447","412635.30000000447","","","","","","","","","","","","5","","stimuli/stars_5.png","297.5","","","","","stimuli/WM09_DO.jpg","",""
"explore-choice","191","415497","0.0-191.0","p816686","A48WNR6C4CI3J","3S1L4CQSFYBD9IN1W8PCJQ1H8N7AFE","3OE22WJIGKUX20P26VMYKACE530UQL","model","match","uniform","","","","","","","3785.60000000149","412637.30000000447","416422.90000000596","[""stimuli/AF02_SC.jpg"",""stimuli/WM09_CC.jpg"",""stimuli/BF04_DO.jpg"",""stimuli/AM05_AO.jpg""]","stimuli/AF02_SC.jpg","stimuli/WM09_CC.jpg","stimuli/BF04_DO.jpg","stimuli/AM05_AO.jpg","pos2","stimuli/WM09_CC.jpg","CC","WM09","1","3.5","7","6","stimuli/stars_7.png","301","[""SC"",""CC"",""DO"",""AO""]","[""AF02"",""WM09"",""BF04"",""AM05""]","[5,7,8,4]","[4,6,8,2]","","",""
"show-reward","192","417501","0.0-192.0","p816686","A48WNR6C4CI3J","3S1L4CQSFYBD9IN1W8PCJQ1H8N7AFE","3OE22WJIGKUX20P26VMYKACE530UQL","model","match","uniform","","","","","","","","416924.30000000447","418926.40000000596","","","","","","","","","","","","7","","stimuli/stars_7.png","301","","","","","stimuli/WM09_CC.jpg","",""
"explore-choice","193","418781","0.0-193.0","p816686","A48WNR6C4CI3J","3S1L4CQSFYBD9IN1W8PCJQ1H8N7AFE","3OE22WJIGKUX20P26VMYKACE530UQL","model","match","uniform","","","","","","","778.2000000029802","418928.5","419706.700000003","[""stimuli/WM09_CC.jpg"",""stimuli/BF04_AO.jpg"",""stimuli/AM05_SC.jpg"",""stimuli/AF02_DO.jpg""]","stimuli/WM09_CC.jpg","stimuli/BF04_AO.jpg","stimuli/AM05_SC.jpg","stimuli/AF02_DO.jpg","pos1","stimuli/WM09_CC.jpg","CC","WM09","0","4","8","6","stimuli/stars_8.png","305","[""CC"",""AO"",""SC"",""DO""]","[""WM09"",""BF04"",""AM05"",""AF02""]","[8,8,0,5]","[6,8,2,4]","","",""
"show-reward","194","420787","0.0-194.0","p816686","A48WNR6C4CI3J","3S1L4CQSFYBD9IN1W8PCJQ1H8N7AFE","3OE22WJIGKUX20P26VMYKACE530UQL","model","match","uniform","","","","","","","","420209.30000000447","422213","","","","","","","","","","","","8","","stimuli/stars_8.png","305","","","","","stimuli/WM09_CC.jpg","",""
"explore-choice","195","422397","0.0-195.0","p816686","A48WNR6C4CI3J","3S1L4CQSFYBD9IN1W8PCJQ1H8N7AFE","3OE22WJIGKUX20P26VMYKACE530UQL","model","match","uniform","","","","","","","1108","422214.6000000015","423322.6000000015","[""stimuli/AM05_AO.jpg"",""stimuli/WM09_SC.jpg"",""stimuli/BF04_DO.jpg"",""stimuli/AF02_CC.jpg""]","stimuli/AM05_AO.jpg","stimuli/WM09_SC.jpg","stimuli/BF04_DO.jpg","stimuli/AF02_CC.jpg","pos2","stimuli/WM09_SC.jpg","SC","WM09","1","4","8","6","stimuli/stars_8.png","309","[""AO"",""SC"",""DO"",""CC""]","[""AM05"",""WM09"",""BF04"",""AF02""]","[2,8,10,5]","[2,6,8,4]","","",""
"show-reward","196","424402","0.0-196.0","p816686","A48WNR6C4CI3J","3S1L4CQSFYBD9IN1W8PCJQ1H8N7AFE","3OE22WJIGKUX20P26VMYKACE530UQL","model","match","uniform","","","","","","","","423824.90000000596","425828.5","","","","","","","","","","","","8","","stimuli/stars_8.png","309","","","","","stimuli/WM09_SC.jpg","",""
"explore-choice","197","425862","0.0-197.0","p816686","A48WNR6C4CI3J","3S1L4CQSFYBD9IN1W8PCJQ1H8N7AFE","3OE22WJIGKUX20P26VMYKACE530UQL","model","match","uniform","","","","","","","957.7999999970198","425829.40000000596","426787.200000003","[""stimuli/AF02_AO.jpg"",""stimuli/WM09_CC.jpg"",""stimuli/BF04_DO.jpg"",""stimuli/AM05_SC.jpg""]","stimuli/AF02_AO.jpg","stimuli/WM09_CC.jpg","stimuli/BF04_DO.jpg","stimuli/AM05_SC.jpg","pos2","stimuli/WM09_CC.jpg","CC","WM09","1","3.5","7","6","stimuli/stars_7.png","312.5","[""AO"",""CC"",""DO"",""SC""]","[""AF02"",""WM09"",""BF04"",""AM05""]","[2,7,6,2]","[4,6,8,2]","","",""
"show-reward","198","427866","0.0-198.0","p816686","A48WNR6C4CI3J","3S1L4CQSFYBD9IN1W8PCJQ1H8N7AFE","3OE22WJIGKUX20P26VMYKACE530UQL","model","match","uniform","","","","","","","","427289.5","429292.1000000015","","","","","","","","","","","","7","","stimuli/stars_7.png","312.5","","","","","stimuli/WM09_CC.jpg","",""
"instructions","199","432951","0.0-199.0","p816686","A48WNR6C4CI3J","3S1L4CQSFYBD9IN1W8PCJQ1H8N7AFE","3OE22WJIGKUX20P26VMYKACE530UQL","model","match","uniform","","","","","","[{""page_index"":0,""viewing_time"":5082.60000000149}]","5083.5","","","","","","","","","","","","","","","","","","","","","","","",""
"survey-text","200","436361","0.0-200.0-0.0","p816686","A48WNR6C4CI3J","3S1L4CQSFYBD9IN1W8PCJQ1H8N7AFE","3OE22WJIGKUX20P26VMYKACE530UQL","model","match","uniform","","","","","","","3402.8000000044703","","","","","","","","","","","","","","","","","","","","","","","{""age"":""38""}",""
"survey-text","201","441282","0.0-200.0-1.0","p816686","A48WNR6C4CI3J","3S1L4CQSFYBD9IN1W8PCJQ1H8N7AFE","3OE22WJIGKUX20P26VMYKACE530UQL","model","match","uniform","","","","","","","4917.0999999940395","","","","","","","","","","","","","","","","","","","","","","","{""gender"":""Male""}",""
"survey-text","202","446954","0.0-200.0-2.0","p816686","A48WNR6C4CI3J","3S1L4CQSFYBD9IN1W8PCJQ1H8N7AFE","3OE22WJIGKUX20P26VMYKACE530UQL","model","match","uniform","","","","","","","5666.5999999940395","","","","","","","","","","","","","","","","","","","","","","","{""country"":""United States""}",""
"survey-text","203","467522","0.0-200.0-3.0","p816686","A48WNR6C4CI3J","3S1L4CQSFYBD9IN1W8PCJQ1H8N7AFE","3OE22WJIGKUX20P26VMYKACE530UQL","model","match","uniform","","","","","","","20560.5","","","","","","","","","","","","","","","","","","","","","","","{""language"":""English"",""other_languages"":""""}",""
"survey-multi-select","204","470091","0.0-201.0","p816686","A48WNR6C4CI3J","3S1L4CQSFYBD9IN1W8PCJQ1H8N7AFE","3OE22WJIGKUX20P26VMYKACE530UQL","model","match","uniform","","","","","","","2553.89999999851","","","","","","","","","","","","","","","","","","","","","","","{""race"":[""White""]}","[0]"
"survey-multi-choice","205","473055","0.0-202.0","p816686","A48WNR6C4CI3J","3S1L4CQSFYBD9IN1W8PCJQ1H8N7AFE","3OE22WJIGKUX20P26VMYKACE530UQL","model","match","uniform","","","","","","","2957","","","","","","","","","","","","","","","","","","","","","","","{""education"":""Some college/ university""}","[0]"
"survey-text","206","543541","0.0-203.0","p816686","A48WNR6C4CI3J","3S1L4CQSFYBD9IN1W8PCJQ1H8N7AFE","3OE22WJIGKUX20P26VMYKACE530UQL","model","match","uniform","","","","","","","70457.70000000298","","","","","","","","","","","","","","","","","","","","","","","{""patterns"":""The umm.. the white guys seemed to have more stars."",""strategy"":""I picked the white guys."",""comments"":""\""Hello class! Welcome to Princeton! I hope you brought your funny faces ... we're doing SCIENCE today!!!\""""}",""
