"trial_type","trial_index","time_elapsed","internal_node_id","subject","workerId","hitId","assignmentId","structure_condition","match_condition","noise_type","success","timeout","failed_images","failed_audio","failed_video","view_history","rt","start_time","end_time","stimuli","image1","image2","image3","image4","choiceLocation","choiceImage","choiceEmotion","choiceModel","choice_index","reward_score","reward","reward_score_unadjusted","reward_image","score_after_trial","emotions","models","rewards","rewards_unadjusted","stimulus","response","question_order"
"pavlovia","0","6","0.0-0.0","p29278","AMELYCC59JKB0","3S1L4CQSFYBD9IN1W8PCJQ1H8N7AFE","3MX2NQ3YCB00QI0ZR89I66GR3PV5XC","emotion","mismatch","uniform","","","","","","","","","","","","","","","","","","","","","","","","","","","","","","",""
"preload","1","4285","0.0-1.0","p29278","AMELYCC59JKB0","3S1L4CQSFYBD9IN1W8PCJQ1H8N7AFE","3MX2NQ3YCB00QI0ZR89I66GR3PV5XC","emotion","mismatch","uniform","true","false","[]","[]","[]","","","","","","","","","","","","","","","","","","","","","","","","","",""
"fullscreen","2","9199","0.0-2.0","p29278","AMELYCC59JKB0","3S1L4CQSFYBD9IN1W8PCJQ1H8N7AFE","3MX2NQ3YCB00QI0ZR89I66GR3PV5XC","emotion","mismatch","uniform","true","","","","","","","","","","","","","","","","","","","","","","","","","","","","","",""
"instructions","3","15264","0.0-3.0","p29278","AMELYCC59JKB0","3S1L4CQSFYBD9IN1W8PCJQ1H8N7AFE","3MX2NQ3YCB00QI0ZR89I66GR3PV5XC","emotion","mismatch","uniform","","","","","","[{""page_index"":0,""viewing_time"":6064.5}]","6064.79999999702","","","","","","","","","","","","","","","","","","","","","","","",""
"explore-choice","4","17696","0.0-4.0","p29278","AMELYCC59JKB0","3S1L4CQSFYBD9IN1W8PCJQ1H8N7AFE","3MX2NQ3YCB00QI0ZR89I66GR3PV5XC","emotion","mismatch","uniform","","","","","","","1930.2000000029802","16387.099999997765","18317.300000000745","[""stimuli/sheep.jpg"",""stimuli/hammer.jpg"",""stimuli/basketball.jpg"",""stimuli/horse.jpg""]","stimuli/sheep.jpg","stimuli/hammer.jpg","stimuli/basketball.jpg","stimuli/horse.jpg","pos4","stimuli/horse.jpg","","","3","64","64","64","stimuli/stars_8.png","65","","","","","","",""
"explore-choice","5","19564","0.0-5.0","p29278","AMELYCC59JKB0","3S1L4CQSFYBD9IN1W8PCJQ1H8N7AFE","3MX2NQ3YCB00QI0ZR89I66GR3PV5XC","emotion","mismatch","uniform","","","","","","","1352.3999999985099","18818.699999999255","20171.099999997765","[""stimuli/hammer.jpg"",""stimuli/basketball.jpg"",""stimuli/horse.jpg"",""stimuli/sheep.jpg""]","stimuli/hammer.jpg","stimuli/basketball.jpg","stimuli/horse.jpg","stimuli/sheep.jpg","pos1","stimuli/hammer.jpg","","","0","8","8","8","stimuli/stars_2.png","9","","","","","","",""
"instructions","6","33309","0.0-6.0","p29278","AMELYCC59JKB0","3S1L4CQSFYBD9IN1W8PCJQ1H8N7AFE","3MX2NQ3YCB00QI0ZR89I66GR3PV5XC","emotion","mismatch","uniform","","","","","","[{""page_index"":0,""viewing_time"":13744.199999999255}]","13744.39999999851","","","","","","","","","","","","","","","","","","","","","","","",""
"explore-choice","7","34604","0.0-7.0","p29278","AMELYCC59JKB0","3S1L4CQSFYBD9IN1W8PCJQ1H8N7AFE","3MX2NQ3YCB00QI0ZR89I66GR3PV5XC","emotion","mismatch","uniform","","","","","","","790.1999999992549","34431.89999999851","35222.099999997765","[""stimuli/BF05_SUR.jpg"",""stimuli/WF06_HE.jpg"",""stimuli/WM13_HO.jpg"",""stimuli/AF10_AO.jpg""]","stimuli/BF05_SUR.jpg","stimuli/WF06_HE.jpg","stimuli/WM13_HO.jpg","stimuli/AF10_AO.jpg","pos2","stimuli/WF06_HE.jpg","HE","WF06","1","1.5","3","4","stimuli/stars_3.png","2.5","[""SUR"",""HE"",""HO"",""AO""]","[""BF05"",""WF06"",""WM13"",""AF10""]","[1,3,9,5]","[2,4,8,6]","","",""
"show-reward","8","36606","0.0-8.0","p29278","AMELYCC59JKB0","3S1L4CQSFYBD9IN1W8PCJQ1H8N7AFE","3MX2NQ3YCB00QI0ZR89I66GR3PV5XC","emotion","mismatch","uniform","","","","","","","","35727.699999999255","37728.599999997765","","","","","","","","","","","","3","","stimuli/stars_3.png","2.5","","","","","stimuli/WF06_HE.jpg","",""
"explore-choice","9","38813","0.0-9.0","p29278","AMELYCC59JKB0","3S1L4CQSFYBD9IN1W8PCJQ1H8N7AFE","3MX2NQ3YCB00QI0ZR89I66GR3PV5XC","emotion","mismatch","uniform","","","","","","","1694.3999999985099","37729.300000000745","39423.699999999255","[""stimuli/AF10_HO.jpg"",""stimuli/BF05_HE.jpg"",""stimuli/WF06_SUR.jpg"",""stimuli/WM13_AO.jpg""]","stimuli/AF10_HO.jpg","stimuli/BF05_HE.jpg","stimuli/WF06_SUR.jpg","stimuli/WM13_AO.jpg","pos4","stimuli/WM13_AO.jpg","AO","WM13","3","2","4","6","stimuli/stars_4.png","4.5","[""HO"",""HE"",""SUR"",""AO""]","[""AF10"",""BF05"",""WF06"",""WM13""]","[7,3,2,4]","[8,4,2,6]","","",""
"show-reward","10","40821","0.0-10.0","p29278","AMELYCC59JKB0","3S1L4CQSFYBD9IN1W8PCJQ1H8N7AFE","3MX2NQ3YCB00QI0ZR89I66GR3PV5XC","emotion","mismatch","uniform","","","","","","","","39936.199999999255","41943.099999997765","","","","","","","","","","","","4","","stimuli/stars_4.png","4.5","","","","","stimuli/WM13_AO.jpg","",""
"explore-choice","11","42755","0.0-11.0","p29278","AMELYCC59JKB0","3S1L4CQSFYBD9IN1W8PCJQ1H8N7AFE","3MX2NQ3YCB00QI0ZR89I66GR3PV5XC","emotion","mismatch","uniform","","","","","","","1433.8999999985099","41943.5","43377.39999999851","[""stimuli/WF06_HO.jpg"",""stimuli/AF10_HE.jpg"",""stimuli/BF05_AO.jpg"",""stimuli/WM13_SUR.jpg""]","stimuli/WF06_HO.jpg","stimuli/AF10_HE.jpg","stimuli/BF05_AO.jpg","stimuli/WM13_SUR.jpg","pos3","stimuli/BF05_AO.jpg","AO","BF05","2","2","4","6","stimuli/stars_4.png","6.5","[""HO"",""HE"",""AO"",""SUR""]","[""WF06"",""AF10"",""BF05"",""WM13""]","[9,5,4,0]","[8,4,6,2]","","",""
"show-reward","12","44757","0.0-12.0","p29278","AMELYCC59JKB0","3S1L4CQSFYBD9IN1W8PCJQ1H8N7AFE","3MX2NQ3YCB00QI0ZR89I66GR3PV5XC","emotion","mismatch","uniform","","","","","","","","43878","45879.099999997765","","","","","","","","","","","","4","","stimuli/stars_4.png","6.5","","","","","stimuli/BF05_AO.jpg","",""
"explore-choice","13","47435","0.0-13.0","p29278","AMELYCC59JKB0","3S1L4CQSFYBD9IN1W8PCJQ1H8N7AFE","3MX2NQ3YCB00QI0ZR89I66GR3PV5XC","emotion","mismatch","uniform","","","","","","","2173.5","45879.5","48053","[""stimuli/BF05_HO.jpg"",""stimuli/WF06_HE.jpg"",""stimuli/WM13_SUR.jpg"",""stimuli/AF10_AO.jpg""]","stimuli/BF05_HO.jpg","stimuli/WF06_HE.jpg","stimuli/WM13_SUR.jpg","stimuli/AF10_AO.jpg","pos4","stimuli/AF10_AO.jpg","AO","AF10","3","2.5","5","6","stimuli/stars_5.png","9","[""HO"",""HE"",""SUR"",""AO""]","[""BF05"",""WF06"",""WM13"",""AF10""]","[8,3,1,5]","[8,4,2,6]","","",""
"show-reward","14","49437","0.0-14.0","p29278","AMELYCC59JKB0","3S1L4CQSFYBD9IN1W8PCJQ1H8N7AFE","3MX2NQ3YCB00QI0ZR89I66GR3PV5XC","emotion","mismatch","uniform","","","","","","","","48558.300000000745","50559.39999999851","","","","","","","","","","","","5","","stimuli/stars_5.png","9","","","","","stimuli/AF10_AO.jpg","",""
"explore-choice","15","51803","0.0-15.0","p29278","AMELYCC59JKB0","3S1L4CQSFYBD9IN1W8PCJQ1H8N7AFE","3MX2NQ3YCB00QI0ZR89I66GR3PV5XC","emotion","mismatch","uniform","","","","","","","1850.9000000022352","50559.89999999851","52410.800000000745","[""stimuli/WM13_HE.jpg"",""stimuli/WF06_SUR.jpg"",""stimuli/AF10_HO.jpg"",""stimuli/BF05_AO.jpg""]","stimuli/WM13_HE.jpg","stimuli/WF06_SUR.jpg","stimuli/AF10_HO.jpg","stimuli/BF05_AO.jpg","pos3","stimuli/AF10_HO.jpg","HO","AF10","2","3","6","8","stimuli/stars_6.png","12","[""HE"",""SUR"",""HO"",""AO""]","[""WM13"",""WF06"",""AF10"",""BF05""]","[5,3,6,5]","[4,2,8,6]","","",""
"show-reward","16","53809","0.0-16.0","p29278","AMELYCC59JKB0","3S1L4CQSFYBD9IN1W8PCJQ1H8N7AFE","3MX2NQ3YCB00QI0ZR89I66GR3PV5XC","emotion","mismatch","uniform","","","","","","","","52926.300000000745","54931.800000000745","","","","","","","","","","","","6","","stimuli/stars_6.png","12","","","","","stimuli/AF10_HO.jpg","",""
"explore-choice","17","55138","0.0-17.0","p29278","AMELYCC59JKB0","3S1L4CQSFYBD9IN1W8PCJQ1H8N7AFE","3MX2NQ3YCB00QI0ZR89I66GR3PV5XC","emotion","mismatch","uniform","","","","","","","825.3000000007451","54932.199999999255","55757.5","[""stimuli/BF05_HO.jpg"",""stimuli/WM13_AO.jpg"",""stimuli/AF10_HE.jpg"",""stimuli/WF06_SUR.jpg""]","stimuli/BF05_HO.jpg","stimuli/WM13_AO.jpg","stimuli/AF10_HE.jpg","stimuli/WF06_SUR.jpg","pos3","stimuli/AF10_HE.jpg","HE","AF10","2","3","6","4","stimuli/stars_6.png","15","[""HO"",""AO"",""HE"",""SUR""]","[""BF05"",""WM13"",""AF10"",""WF06""]","[6,6,6,4]","[8,6,4,2]","","",""
"show-reward","18","57139","0.0-18.0","p29278","AMELYCC59JKB0","3S1L4CQSFYBD9IN1W8PCJQ1H8N7AFE","3MX2NQ3YCB00QI0ZR89I66GR3PV5XC","emotion","mismatch","uniform","","","","","","","","56260.5","58261.699999999255","","","","","","","","","","","","6","","stimuli/stars_6.png","15","","","","","stimuli/AF10_HE.jpg","",""
"explore-choice","19","58702","0.0-19.0","p29278","AMELYCC59JKB0","3S1L4CQSFYBD9IN1W8PCJQ1H8N7AFE","3MX2NQ3YCB00QI0ZR89I66GR3PV5XC","emotion","mismatch","uniform","","","","","","","1048.300000000745","58262.099999997765","59310.39999999851","[""stimuli/AF10_AO.jpg"",""stimuli/WM13_HE.jpg"",""stimuli/BF05_HO.jpg"",""stimuli/WF06_SUR.jpg""]","stimuli/AF10_AO.jpg","stimuli/WM13_HE.jpg","stimuli/BF05_HO.jpg","stimuli/WF06_SUR.jpg","pos1","stimuli/AF10_AO.jpg","AO","AF10","0","3.5","7","6","stimuli/stars_7.png","18.5","[""AO"",""HE"",""HO"",""SUR""]","[""AF10"",""WM13"",""BF05"",""WF06""]","[7,2,10,1]","[6,4,8,2]","","",""
"show-reward","20","60709","0.0-20.0","p29278","AMELYCC59JKB0","3S1L4CQSFYBD9IN1W8PCJQ1H8N7AFE","3MX2NQ3YCB00QI0ZR89I66GR3PV5XC","emotion","mismatch","uniform","","","","","","","","59824.89999999851","61831.800000000745","","","","","","","","","","","","7","","stimuli/stars_7.png","18.5","","","","","stimuli/AF10_AO.jpg","",""
"explore-choice","21","62710","0.0-21.0","p29278","AMELYCC59JKB0","3S1L4CQSFYBD9IN1W8PCJQ1H8N7AFE","3MX2NQ3YCB00QI0ZR89I66GR3PV5XC","emotion","mismatch","uniform","","","","","","","1499.699999999255","61832.199999999255","63331.89999999851","[""stimuli/BF05_AO.jpg"",""stimuli/WF06_HO.jpg"",""stimuli/WM13_HE.jpg"",""stimuli/AF10_SUR.jpg""]","stimuli/BF05_AO.jpg","stimuli/WF06_HO.jpg","stimuli/WM13_HE.jpg","stimuli/AF10_SUR.jpg","pos4","stimuli/AF10_SUR.jpg","SUR","AF10","3","0","0","2","stimuli/stars_0.png","18.5","[""AO"",""HO"",""HE"",""SUR""]","[""BF05"",""WF06"",""WM13"",""AF10""]","[8,10,4,0]","[6,8,4,2]","","",""
"show-reward","22","64712","0.0-22.0","p29278","AMELYCC59JKB0","3S1L4CQSFYBD9IN1W8PCJQ1H8N7AFE","3MX2NQ3YCB00QI0ZR89I66GR3PV5XC","emotion","mismatch","uniform","","","","","","","","63833","65834.19999999925","","","","","","","","","","","","0","","stimuli/stars_0.png","18.5","","","","","stimuli/AF10_SUR.jpg","",""
"explore-choice","23","65927","0.0-23.0","p29278","AMELYCC59JKB0","3S1L4CQSFYBD9IN1W8PCJQ1H8N7AFE","3MX2NQ3YCB00QI0ZR89I66GR3PV5XC","emotion","mismatch","uniform","","","","","","","708.3000000007451","65834.59999999776","66542.89999999851","[""stimuli/WM13_AO.jpg"",""stimuli/BF05_SUR.jpg"",""stimuli/WF06_HE.jpg"",""stimuli/AF10_HO.jpg""]","stimuli/WM13_AO.jpg","stimuli/BF05_SUR.jpg","stimuli/WF06_HE.jpg","stimuli/AF10_HO.jpg","pos1","stimuli/WM13_AO.jpg","AO","WM13","0","2.5","5","6","stimuli/stars_5.png","21","[""AO"",""SUR"",""HE"",""HO""]","[""WM13"",""BF05"",""WF06"",""AF10""]","[5,3,4,8]","[6,2,4,8]","","",""
"show-reward","24","67929","0.0-24.0","p29278","AMELYCC59JKB0","3S1L4CQSFYBD9IN1W8PCJQ1H8N7AFE","3MX2NQ3YCB00QI0ZR89I66GR3PV5XC","emotion","mismatch","uniform","","","","","","","","67049.89999999851","69050.89999999851","","","","","","","","","","","","5","","stimuli/stars_5.png","21","","","","","stimuli/WM13_AO.jpg","",""
"explore-choice","25","68999","0.0-25.0","p29278","AMELYCC59JKB0","3S1L4CQSFYBD9IN1W8PCJQ1H8N7AFE","3MX2NQ3YCB00QI0ZR89I66GR3PV5XC","emotion","mismatch","uniform","","","","","","","559.3000000007451","69051.39999999851","69610.69999999925","[""stimuli/WM13_HE.jpg"",""stimuli/WF06_AO.jpg"",""stimuli/AF10_HO.jpg"",""stimuli/BF05_SUR.jpg""]","stimuli/WM13_HE.jpg","stimuli/WF06_AO.jpg","stimuli/AF10_HO.jpg","stimuli/BF05_SUR.jpg","pos2","stimuli/WF06_AO.jpg","AO","WF06","1","3.5","7","6","stimuli/stars_7.png","24.5","[""HE"",""AO"",""HO"",""SUR""]","[""WM13"",""WF06"",""AF10"",""BF05""]","[6,7,6,0]","[4,6,8,2]","","",""
"show-reward","26","71008","0.0-26.0","p29278","AMELYCC59JKB0","3S1L4CQSFYBD9IN1W8PCJQ1H8N7AFE","3MX2NQ3YCB00QI0ZR89I66GR3PV5XC","emotion","mismatch","uniform","","","","","","","","70122.19999999925","72130.5","","","","","","","","","","","","7","","stimuli/stars_7.png","24.5","","","","","stimuli/WF06_AO.jpg","",""
"explore-choice","27","72997","0.0-27.0","p29278","AMELYCC59JKB0","3S1L4CQSFYBD9IN1W8PCJQ1H8N7AFE","3MX2NQ3YCB00QI0ZR89I66GR3PV5XC","emotion","mismatch","uniform","","","","","","","1475.5","72130.89999999851","73606.39999999851","[""stimuli/BF05_SUR.jpg"",""stimuli/WF06_AO.jpg"",""stimuli/AF10_HE.jpg"",""stimuli/WM13_HO.jpg""]","stimuli/BF05_SUR.jpg","stimuli/WF06_AO.jpg","stimuli/AF10_HE.jpg","stimuli/WM13_HO.jpg","pos1","stimuli/BF05_SUR.jpg","SUR","BF05","0","0.5","1","2","stimuli/stars_1.png","25","[""SUR"",""AO"",""HE"",""HO""]","[""BF05"",""WF06"",""AF10"",""WM13""]","[1,5,6,6]","[2,6,4,8]","","",""
"show-reward","28","74999","0.0-28.0","p29278","AMELYCC59JKB0","3S1L4CQSFYBD9IN1W8PCJQ1H8N7AFE","3MX2NQ3YCB00QI0ZR89I66GR3PV5XC","emotion","mismatch","uniform","","","","","","","","74120.09999999776","76121.5","","","","","","","","","","","","1","","stimuli/stars_1.png","25","","","","","stimuli/BF05_SUR.jpg","",""
"explore-choice","29","76943","0.0-29.0","p29278","AMELYCC59JKB0","3S1L4CQSFYBD9IN1W8PCJQ1H8N7AFE","3MX2NQ3YCB00QI0ZR89I66GR3PV5XC","emotion","mismatch","uniform","","","","","","","1438.300000000745","76121.89999999851","77560.19999999925","[""stimuli/WM13_AO.jpg"",""stimuli/BF05_HO.jpg"",""stimuli/WF06_HE.jpg"",""stimuli/AF10_SUR.jpg""]","stimuli/WM13_AO.jpg","stimuli/BF05_HO.jpg","stimuli/WF06_HE.jpg","stimuli/AF10_SUR.jpg","pos2","stimuli/BF05_HO.jpg","HO","BF05","1","3.5","7","8","stimuli/stars_7.png","28.5","[""AO"",""HO"",""HE"",""SUR""]","[""WM13"",""BF05"",""WF06"",""AF10""]","[5,7,4,4]","[6,8,4,2]","","",""
"show-reward","30","78951","0.0-30.0","p29278","AMELYCC59JKB0","3S1L4CQSFYBD9IN1W8PCJQ1H8N7AFE","3MX2NQ3YCB00QI0ZR89I66GR3PV5XC","emotion","mismatch","uniform","","","","","","","","78066.19999999925","80073.5","","","","","","","","","","","","7","","stimuli/stars_7.png","28.5","","","","","stimuli/BF05_HO.jpg","",""
"explore-choice","31","81465","0.0-31.0","p29278","AMELYCC59JKB0","3S1L4CQSFYBD9IN1W8PCJQ1H8N7AFE","3MX2NQ3YCB00QI0ZR89I66GR3PV5XC","emotion","mismatch","uniform","","","","","","","2007.9000000022352","80073.89999999851","82081.80000000075","[""stimuli/WM13_SUR.jpg"",""stimuli/BF05_HE.jpg"",""stimuli/WF06_AO.jpg"",""stimuli/AF10_HO.jpg""]","stimuli/WM13_SUR.jpg","stimuli/BF05_HE.jpg","stimuli/WF06_AO.jpg","stimuli/AF10_HO.jpg","pos3","stimuli/WF06_AO.jpg","AO","WF06","2","3","6","6","stimuli/stars_6.png","31.5","[""SUR"",""HE"",""AO"",""HO""]","[""WM13"",""BF05"",""WF06"",""AF10""]","[4,2,6,10]","[2,4,6,8]","","",""
"show-reward","32","83473","0.0-32.0","p29278","AMELYCC59JKB0","3S1L4CQSFYBD9IN1W8PCJQ1H8N7AFE","3MX2NQ3YCB00QI0ZR89I66GR3PV5XC","emotion","mismatch","uniform","","","","","","","","82587.59999999776","84595.30000000075","","","","","","","","","","","","6","","stimuli/stars_6.png","31.5","","","","","stimuli/WF06_AO.jpg","",""
"explore-choice","33","86360","0.0-33.0","p29278","AMELYCC59JKB0","3S1L4CQSFYBD9IN1W8PCJQ1H8N7AFE","3MX2NQ3YCB00QI0ZR89I66GR3PV5XC","emotion","mismatch","uniform","","","","","","","2374.800000000745","84595.59999999776","86970.39999999851","[""stimuli/WF06_HO.jpg"",""stimuli/BF05_HE.jpg"",""stimuli/AF10_SUR.jpg"",""stimuli/WM13_AO.jpg""]","stimuli/WF06_HO.jpg","stimuli/BF05_HE.jpg","stimuli/AF10_SUR.jpg","stimuli/WM13_AO.jpg","pos4","stimuli/WM13_AO.jpg","AO","WM13","3","3","6","6","stimuli/stars_6.png","34.5","[""HO"",""HE"",""SUR"",""AO""]","[""WF06"",""BF05"",""AF10"",""WM13""]","[9,5,1,6]","[8,4,2,6]","","",""
"show-reward","34","88368","0.0-34.0","p29278","AMELYCC59JKB0","3S1L4CQSFYBD9IN1W8PCJQ1H8N7AFE","3MX2NQ3YCB00QI0ZR89I66GR3PV5XC","emotion","mismatch","uniform","","","","","","","","87483.09999999776","89490","","","","","","","","","","","","6","","stimuli/stars_6.png","34.5","","","","","stimuli/WM13_AO.jpg","",""
"explore-choice","35","91114","0.0-35.0","p29278","AMELYCC59JKB0","3S1L4CQSFYBD9IN1W8PCJQ1H8N7AFE","3MX2NQ3YCB00QI0ZR89I66GR3PV5XC","emotion","mismatch","uniform","","","","","","","2240.89999999851","89490.30000000075","91731.19999999925","[""stimuli/BF05_HO.jpg"",""stimuli/WM13_HE.jpg"",""stimuli/WF06_AO.jpg"",""stimuli/AF10_SUR.jpg""]","stimuli/BF05_HO.jpg","stimuli/WM13_HE.jpg","stimuli/WF06_AO.jpg","stimuli/AF10_SUR.jpg","pos3","stimuli/WF06_AO.jpg","AO","WF06","2","3","6","6","stimuli/stars_6.png","37.5","[""HO"",""HE"",""AO"",""SUR""]","[""BF05"",""WM13"",""WF06"",""AF10""]","[10,6,6,0]","[8,4,6,2]","","",""
"show-reward","36","93121","0.0-36.0","p29278","AMELYCC59JKB0","3S1L4CQSFYBD9IN1W8PCJQ1H8N7AFE","3MX2NQ3YCB00QI0ZR89I66GR3PV5XC","emotion","mismatch","uniform","","","","","","","","92236.69999999925","94243.89999999851","","","","","","","","","","","","6","","stimuli/stars_6.png","37.5","","","","","stimuli/WF06_AO.jpg","",""
"explore-choice","37","94587","0.0-37.0","p29278","AMELYCC59JKB0","3S1L4CQSFYBD9IN1W8PCJQ1H8N7AFE","3MX2NQ3YCB00QI0ZR89I66GR3PV5XC","emotion","mismatch","uniform","","","","","","","950.5","94244.30000000075","95194.80000000075","[""stimuli/BF05_SUR.jpg"",""stimuli/WF06_HO.jpg"",""stimuli/AF10_HE.jpg"",""stimuli/WM13_AO.jpg""]","stimuli/BF05_SUR.jpg","stimuli/WF06_HO.jpg","stimuli/AF10_HE.jpg","stimuli/WM13_AO.jpg","pos4","stimuli/WM13_AO.jpg","AO","WM13","3","3","6","6","stimuli/stars_6.png","40.5","[""SUR"",""HO"",""HE"",""AO""]","[""BF05"",""WF06"",""AF10"",""WM13""]","[3,7,3,6]","[2,8,4,6]","","",""
"show-reward","38","96592","0.0-38.0","p29278","AMELYCC59JKB0","3S1L4CQSFYBD9IN1W8PCJQ1H8N7AFE","3MX2NQ3YCB00QI0ZR89I66GR3PV5XC","emotion","mismatch","uniform","","","","","","","","95709.89999999851","97714","","","","","","","","","","","","6","","stimuli/stars_6.png","40.5","","","","","stimuli/WM13_AO.jpg","",""
"explore-choice","39","99237","0.0-39.0","p29278","AMELYCC59JKB0","3S1L4CQSFYBD9IN1W8PCJQ1H8N7AFE","3MX2NQ3YCB00QI0ZR89I66GR3PV5XC","emotion","mismatch","uniform","","","","","","","2131.10000000149","97714.39999999851","99845.5","[""stimuli/AF10_SUR.jpg"",""stimuli/BF05_HE.jpg"",""stimuli/WM13_HO.jpg"",""stimuli/WF06_AO.jpg""]","stimuli/AF10_SUR.jpg","stimuli/BF05_HE.jpg","stimuli/WM13_HO.jpg","stimuli/WF06_AO.jpg","pos4","stimuli/WF06_AO.jpg","AO","WF06","3","3","6","6","stimuli/stars_6.png","43.5","[""SUR"",""HE"",""HO"",""AO""]","[""AF10"",""BF05"",""WM13"",""WF06""]","[4,3,7,6]","[2,4,8,6]","","",""
"show-reward","40","101245","0.0-40.0","p29278","AMELYCC59JKB0","3S1L4CQSFYBD9IN1W8PCJQ1H8N7AFE","3MX2NQ3YCB00QI0ZR89I66GR3PV5XC","emotion","mismatch","uniform","","","","","","","","100360.09999999776","102367.09999999776","","","","","","","","","","","","6","","stimuli/stars_6.png","43.5","","","","","stimuli/WF06_AO.jpg","",""
"explore-choice","41","103082","0.0-41.0","p29278","AMELYCC59JKB0","3S1L4CQSFYBD9IN1W8PCJQ1H8N7AFE","3MX2NQ3YCB00QI0ZR89I66GR3PV5XC","emotion","mismatch","uniform","","","","","","","1329.800000000745","102367.5","103697.30000000075","[""stimuli/AF10_HE.jpg"",""stimuli/BF05_HO.jpg"",""stimuli/WF06_AO.jpg"",""stimuli/WM13_SUR.jpg""]","stimuli/AF10_HE.jpg","stimuli/BF05_HO.jpg","stimuli/WF06_AO.jpg","stimuli/WM13_SUR.jpg","pos4","stimuli/WM13_SUR.jpg","SUR","WM13","3","0","0","2","stimuli/stars_0.png","43.5","[""HE"",""HO"",""AO"",""SUR""]","[""AF10"",""BF05"",""WF06"",""WM13""]","[3,7,5,0]","[4,8,6,2]","","",""
"show-reward","42","105084","0.0-42.0","p29278","AMELYCC59JKB0","3S1L4CQSFYBD9IN1W8PCJQ1H8N7AFE","3MX2NQ3YCB00QI0ZR89I66GR3PV5XC","emotion","mismatch","uniform","","","","","","","","104204.59999999776","106205.89999999851","","","","","","","","","","","","0","","stimuli/stars_0.png","43.5","","","","","stimuli/WM13_SUR.jpg","",""
"explore-choice","43","106577","0.0-43.0","p29278","AMELYCC59JKB0","3S1L4CQSFYBD9IN1W8PCJQ1H8N7AFE","3MX2NQ3YCB00QI0ZR89I66GR3PV5XC","emotion","mismatch","uniform","","","","","","","992.6999999992549","106206.30000000075","107199","[""stimuli/AF10_SUR.jpg"",""stimuli/WF06_HE.jpg"",""stimuli/BF05_AO.jpg"",""stimuli/WM13_HO.jpg""]","stimuli/AF10_SUR.jpg","stimuli/WF06_HE.jpg","stimuli/BF05_AO.jpg","stimuli/WM13_HO.jpg","pos2","stimuli/WF06_HE.jpg","HE","WF06","1","1.5","3","4","stimuli/stars_3.png","45","[""SUR"",""HE"",""AO"",""HO""]","[""AF10"",""WF06"",""BF05"",""WM13""]","[4,3,5,6]","[2,4,6,8]","","",""
"show-reward","44","108580","0.0-44.0","p29278","AMELYCC59JKB0","3S1L4CQSFYBD9IN1W8PCJQ1H8N7AFE","3MX2NQ3YCB00QI0ZR89I66GR3PV5XC","emotion","mismatch","uniform","","","","","","","","107699.69999999925","109701.69999999925","","","","","","","","","","","","3","","stimuli/stars_3.png","45","","","","","stimuli/WF06_HE.jpg","",""
"explore-choice","45","109780","0.0-45.0","p29278","AMELYCC59JKB0","3S1L4CQSFYBD9IN1W8PCJQ1H8N7AFE","3MX2NQ3YCB00QI0ZR89I66GR3PV5XC","emotion","mismatch","uniform","","","","","","","689.8000000007451","109702.09999999776","110391.89999999851","[""stimuli/WM13_HO.jpg"",""stimuli/AF10_HE.jpg"",""stimuli/BF05_AO.jpg"",""stimuli/WF06_SUR.jpg""]","stimuli/WM13_HO.jpg","stimuli/AF10_HE.jpg","stimuli/BF05_AO.jpg","stimuli/WF06_SUR.jpg","pos3","stimuli/BF05_AO.jpg","AO","BF05","2","3","6","6","stimuli/stars_6.png","48","[""HO"",""HE"",""AO"",""SUR""]","[""WM13"",""AF10"",""BF05"",""WF06""]","[6,5,6,3]","[8,4,6,2]","","",""
"show-reward","46","111786","0.0-46.0","p29278","AMELYCC59JKB0","3S1L4CQSFYBD9IN1W8PCJQ1H8N7AFE","3MX2NQ3YCB00QI0ZR89I66GR3PV5XC","emotion","mismatch","uniform","","","","","","","","110902.39999999851","112908.09999999776","","","","","","","","","","","","6","","stimuli/stars_6.png","48","","","","","stimuli/BF05_AO.jpg","",""
"explore-choice","47","113681","0.0-47.0","p29278","AMELYCC59JKB0","3S1L4CQSFYBD9IN1W8PCJQ1H8N7AFE","3MX2NQ3YCB00QI0ZR89I66GR3PV5XC","emotion","mismatch","uniform","","","","","","","1392","112908.5","114300.5","[""stimuli/WM13_HO.jpg"",""stimuli/AF10_AO.jpg"",""stimuli/BF05_HE.jpg"",""stimuli/WF06_SUR.jpg""]","stimuli/WM13_HO.jpg","stimuli/AF10_AO.jpg","stimuli/BF05_HE.jpg","stimuli/WF06_SUR.jpg","pos3","stimuli/BF05_HE.jpg","HE","BF05","2","2","4","4","stimuli/stars_4.png","50","[""HO"",""AO"",""HE"",""SUR""]","[""WM13"",""AF10"",""BF05"",""WF06""]","[8,5,4,2]","[8,6,4,2]","","",""
"show-reward","48","115686","0.0-48.0","p29278","AMELYCC59JKB0","3S1L4CQSFYBD9IN1W8PCJQ1H8N7AFE","3MX2NQ3YCB00QI0ZR89I66GR3PV5XC","emotion","mismatch","uniform","","","","","","","","114803.09999999776","116807.80000000075","","","","","","","","","","","","4","","stimuli/stars_4.png","50","","","","","stimuli/BF05_HE.jpg","",""
"explore-choice","49","117924","0.0-49.0","p29278","AMELYCC59JKB0","3S1L4CQSFYBD9IN1W8PCJQ1H8N7AFE","3MX2NQ3YCB00QI0ZR89I66GR3PV5XC","emotion","mismatch","uniform","","","","","","","1735.199999999255","116808.19999999925","118543.39999999851","[""stimuli/WF06_HO.jpg"",""stimuli/AF10_AO.jpg"",""stimuli/WM13_HE.jpg"",""stimuli/BF05_SUR.jpg""]","stimuli/WF06_HO.jpg","stimuli/AF10_AO.jpg","stimuli/WM13_HE.jpg","stimuli/BF05_SUR.jpg","pos4","stimuli/BF05_SUR.jpg","SUR","BF05","3","0.5","1","2","stimuli/stars_1.png","50.5","[""HO"",""AO"",""HE"",""SUR""]","[""WF06"",""AF10"",""WM13"",""BF05""]","[6,4,3,1]","[8,6,4,2]","","",""
"show-reward","50","119931","0.0-50.0","p29278","AMELYCC59JKB0","3S1L4CQSFYBD9IN1W8PCJQ1H8N7AFE","3MX2NQ3YCB00QI0ZR89I66GR3PV5XC","emotion","mismatch","uniform","","","","","","","","119046.30000000075","121052.59999999776","","","","","","","","","","","","1","","stimuli/stars_1.png","50.5","","","","","stimuli/BF05_SUR.jpg","",""
"explore-choice","51","120965","0.0-51.0","p29278","AMELYCC59JKB0","3S1L4CQSFYBD9IN1W8PCJQ1H8N7AFE","3MX2NQ3YCB00QI0ZR89I66GR3PV5XC","emotion","mismatch","uniform","","","","","","","519","121053.09999999776","121572.09999999776","[""stimuli/AF10_HO.jpg"",""stimuli/BF05_AO.jpg"",""stimuli/WF06_HE.jpg"",""stimuli/WM13_SUR.jpg""]","stimuli/AF10_HO.jpg","stimuli/BF05_AO.jpg","stimuli/WF06_HE.jpg","stimuli/WM13_SUR.jpg","pos1","stimuli/AF10_HO.jpg","HO","AF10","0","4","8","8","stimuli/stars_8.png","54.5","[""HO"",""AO"",""HE"",""SUR""]","[""AF10"",""BF05"",""WF06"",""WM13""]","[8,7,6,2]","[8,6,4,2]","","",""
"show-reward","52","122972","0.0-52.0","p29278","AMELYCC59JKB0","3S1L4CQSFYBD9IN1W8PCJQ1H8N7AFE","3MX2NQ3YCB00QI0ZR89I66GR3PV5XC","emotion","mismatch","uniform","","","","","","","","122087.59999999776","124094","","","","","","","","","","","","8","","stimuli/stars_8.png","54.5","","","","","stimuli/AF10_HO.jpg","",""
"explore-choice","53","125086","0.0-53.0","p29278","AMELYCC59JKB0","3S1L4CQSFYBD9IN1W8PCJQ1H8N7AFE","3MX2NQ3YCB00QI0ZR89I66GR3PV5XC","emotion","mismatch","uniform","","","","","","","1601.300000000745","124094.39999999851","125695.69999999925","[""stimuli/WF06_HO.jpg"",""stimuli/AF10_AO.jpg"",""stimuli/BF05_HE.jpg"",""stimuli/WM13_SUR.jpg""]","stimuli/WF06_HO.jpg","stimuli/AF10_AO.jpg","stimuli/BF05_HE.jpg","stimuli/WM13_SUR.jpg","pos3","stimuli/BF05_HE.jpg","HE","BF05","2","2.5","5","4","stimuli/stars_5.png","57","[""HO"",""AO"",""HE"",""SUR""]","[""WF06"",""AF10"",""BF05"",""WM13""]","[6,6,5,1]","[8,6,4,2]","","",""
"show-reward","54","127093","0.0-54.0","p29278","AMELYCC59JKB0","3S1L4CQSFYBD9IN1W8PCJQ1H8N7AFE","3MX2NQ3YCB00QI0ZR89I66GR3PV5XC","emotion","mismatch","uniform","","","","","","","","126208.59999999776","128215.09999999776","","","","","","","","","","","","5","","stimuli/stars_5.png","57","","","","","stimuli/BF05_HE.jpg","",""
"explore-choice","55","129979","0.0-55.0","p29278","AMELYCC59JKB0","3S1L4CQSFYBD9IN1W8PCJQ1H8N7AFE","3MX2NQ3YCB00QI0ZR89I66GR3PV5XC","emotion","mismatch","uniform","","","","","","","2381","128215.5","130596.5","[""stimuli/WF06_SUR.jpg"",""stimuli/AF10_HO.jpg"",""stimuli/WM13_AO.jpg"",""stimuli/BF05_HE.jpg""]","stimuli/WF06_SUR.jpg","stimuli/AF10_HO.jpg","stimuli/WM13_AO.jpg","stimuli/BF05_HE.jpg","pos4","stimuli/BF05_HE.jpg","HE","BF05","3","1.5","3","4","stimuli/stars_3.png","58.5","[""SUR"",""HO"",""AO"",""HE""]","[""WF06"",""AF10"",""WM13"",""BF05""]","[2,7,4,3]","[2,8,6,4]","","",""
"show-reward","56","131982","0.0-56.0","p29278","AMELYCC59JKB0","3S1L4CQSFYBD9IN1W8PCJQ1H8N7AFE","3MX2NQ3YCB00QI0ZR89I66GR3PV5XC","emotion","mismatch","uniform","","","","","","","","131102","133103.59999999776","","","","","","","","","","","","3","","stimuli/stars_3.png","58.5","","","","","stimuli/BF05_HE.jpg","",""
"explore-choice","57","133188","0.0-57.0","p29278","AMELYCC59JKB0","3S1L4CQSFYBD9IN1W8PCJQ1H8N7AFE","3MX2NQ3YCB00QI0ZR89I66GR3PV5XC","emotion","mismatch","uniform","","","","","","","705.3000000007451","133104","133809.30000000075","[""stimuli/WF06_SUR.jpg"",""stimuli/BF05_HO.jpg"",""stimuli/WM13_HE.jpg"",""stimuli/AF10_AO.jpg""]","stimuli/WF06_SUR.jpg","stimuli/BF05_HO.jpg","stimuli/WM13_HE.jpg","stimuli/AF10_AO.jpg","pos1","stimuli/WF06_SUR.jpg","SUR","WF06","0","0.5","1","2","stimuli/stars_1.png","59","[""SUR"",""HO"",""HE"",""AO""]","[""WF06"",""BF05"",""WM13"",""AF10""]","[1,10,2,7]","[2,8,4,6]","","",""
"show-reward","58","135193","0.0-58.0","p29278","AMELYCC59JKB0","3S1L4CQSFYBD9IN1W8PCJQ1H8N7AFE","3MX2NQ3YCB00QI0ZR89I66GR3PV5XC","emotion","mismatch","uniform","","","","","","","","134310.19999999925","136315.30000000075","","","","","","","","","","","","1","","stimuli/stars_1.png","59","","","","","stimuli/WF06_SUR.jpg","",""
"explore-choice","59","136673","0.0-59.0","p29278","AMELYCC59JKB0","3S1L4CQSFYBD9IN1W8PCJQ1H8N7AFE","3MX2NQ3YCB00QI0ZR89I66GR3PV5XC","emotion","mismatch","uniform","","","","","","","974.0999999977648","136315.80000000075","137289.8999999985","[""stimuli/WM13_AO.jpg"",""stimuli/BF05_HE.jpg"",""stimuli/AF10_SUR.jpg"",""stimuli/WF06_HO.jpg""]","stimuli/WM13_AO.jpg","stimuli/BF05_HE.jpg","stimuli/AF10_SUR.jpg","stimuli/WF06_HO.jpg","pos2","stimuli/BF05_HE.jpg","HE","BF05","1","2.5","5","4","stimuli/stars_5.png","61.5","[""AO"",""HE"",""SUR"",""HO""]","[""WM13"",""BF05"",""AF10"",""WF06""]","[6,5,1,9]","[6,4,2,8]","","",""
"show-reward","60","138674","0.0-60.0","p29278","AMELYCC59JKB0","3S1L4CQSFYBD9IN1W8PCJQ1H8N7AFE","3MX2NQ3YCB00QI0ZR89I66GR3PV5XC","emotion","mismatch","uniform","","","","","","","","137795.09999999776","139796.30000000075","","","","","","","","","","","","5","","stimuli/stars_5.png","61.5","","","","","stimuli/BF05_HE.jpg","",""
"explore-choice","61","140512","0.0-61.0","p29278","AMELYCC59JKB0","3S1L4CQSFYBD9IN1W8PCJQ1H8N7AFE","3MX2NQ3YCB00QI0ZR89I66GR3PV5XC","emotion","mismatch","uniform","","","","","","","1336","139796.69999999925","141132.69999999925","[""stimuli/WF06_HE.jpg"",""stimuli/BF05_SUR.jpg"",""stimuli/AF10_AO.jpg"",""stimuli/WM13_HO.jpg""]","stimuli/WF06_HE.jpg","stimuli/BF05_SUR.jpg","stimuli/AF10_AO.jpg","stimuli/WM13_HO.jpg","pos3","stimuli/AF10_AO.jpg","AO","AF10","2","2.5","5","6","stimuli/stars_5.png","64","[""HE"",""SUR"",""AO"",""HO""]","[""WF06"",""BF05"",""AF10"",""WM13""]","[3,1,5,9]","[4,2,6,8]","","",""
"show-reward","62","142513","0.0-62.0","p29278","AMELYCC59JKB0","3S1L4CQSFYBD9IN1W8PCJQ1H8N7AFE","3MX2NQ3YCB00QI0ZR89I66GR3PV5XC","emotion","mismatch","uniform","","","","","","","","141634","143634.8999999985","","","","","","","","","","","","5","","stimuli/stars_5.png","64","","","","","stimuli/AF10_AO.jpg","",""
"explore-choice","63","144213","0.0-63.0","p29278","AMELYCC59JKB0","3S1L4CQSFYBD9IN1W8PCJQ1H8N7AFE","3MX2NQ3YCB00QI0ZR89I66GR3PV5XC","emotion","mismatch","uniform","","","","","","","1190.2999999970198","143635.30000000075","144825.59999999776","[""stimuli/BF05_SUR.jpg"",""stimuli/WM13_HE.jpg"",""stimuli/WF06_HO.jpg"",""stimuli/AF10_AO.jpg""]","stimuli/BF05_SUR.jpg","stimuli/WM13_HE.jpg","stimuli/WF06_HO.jpg","stimuli/AF10_AO.jpg","pos2","stimuli/WM13_HE.jpg","HE","WM13","1","1.5","3","4","stimuli/stars_3.png","65.5","[""SUR"",""HE"",""HO"",""AO""]","[""BF05"",""WM13"",""WF06"",""AF10""]","[1,3,6,4]","[2,4,8,6]","","",""
"show-reward","64","146218","0.0-64.0","p29278","AMELYCC59JKB0","3S1L4CQSFYBD9IN1W8PCJQ1H8N7AFE","3MX2NQ3YCB00QI0ZR89I66GR3PV5XC","emotion","mismatch","uniform","","","","","","","","145335","147340.5","","","","","","","","","","","","3","","stimuli/stars_3.png","65.5","","","","","stimuli/WM13_HE.jpg","",""
"explore-choice","65","147994","0.0-65.0","p29278","AMELYCC59JKB0","3S1L4CQSFYBD9IN1W8PCJQ1H8N7AFE","3MX2NQ3YCB00QI0ZR89I66GR3PV5XC","emotion","mismatch","uniform","","","","","","","1265.300000000745","147340.8999999985","148606.19999999925","[""stimuli/WF06_HE.jpg"",""stimuli/AF10_HO.jpg"",""stimuli/WM13_AO.jpg"",""stimuli/BF05_SUR.jpg""]","stimuli/WF06_HE.jpg","stimuli/AF10_HO.jpg","stimuli/WM13_AO.jpg","stimuli/BF05_SUR.jpg","pos1","stimuli/WF06_HE.jpg","HE","WF06","0","2","4","4","stimuli/stars_4.png","67.5","[""HE"",""HO"",""AO"",""SUR""]","[""WF06"",""AF10"",""WM13"",""BF05""]","[4,8,5,3]","[4,8,6,2]","","",""
"show-reward","66","150000","0.0-66.0","p29278","AMELYCC59JKB0","3S1L4CQSFYBD9IN1W8PCJQ1H8N7AFE","3MX2NQ3YCB00QI0ZR89I66GR3PV5XC","emotion","mismatch","uniform","","","","","","","","149116.30000000075","151122.09999999776","","","","","","","","","","","","4","","stimuli/stars_4.png","67.5","","","","","stimuli/WF06_HE.jpg","",""
"explore-choice","67","152424","0.0-67.0","p29278","AMELYCC59JKB0","3S1L4CQSFYBD9IN1W8PCJQ1H8N7AFE","3MX2NQ3YCB00QI0ZR89I66GR3PV5XC","emotion","mismatch","uniform","","","","","","","1916.4000000022352","151122.3999999985","153038.80000000075","[""stimuli/AF10_AO.jpg"",""stimuli/WF06_HO.jpg"",""stimuli/WM13_SUR.jpg"",""stimuli/BF05_HE.jpg""]","stimuli/AF10_AO.jpg","stimuli/WF06_HO.jpg","stimuli/WM13_SUR.jpg","stimuli/BF05_HE.jpg","pos1","stimuli/AF10_AO.jpg","AO","AF10","0","3","6","6","stimuli/stars_6.png","70.5","[""AO"",""HO"",""SUR"",""HE""]","[""AF10"",""WF06"",""WM13"",""BF05""]","[6,6,1,5]","[6,8,2,4]","","",""
"show-reward","68","154425","0.0-68.0","p29278","AMELYCC59JKB0","3S1L4CQSFYBD9IN1W8PCJQ1H8N7AFE","3MX2NQ3YCB00QI0ZR89I66GR3PV5XC","emotion","mismatch","uniform","","","","","","","","153546.3999999985","155547.09999999776","","","","","","","","","","","","6","","stimuli/stars_6.png","70.5","","","","","stimuli/AF10_AO.jpg","",""
"explore-choice","69","155445","0.0-69.0","p29278","AMELYCC59JKB0","3S1L4CQSFYBD9IN1W8PCJQ1H8N7AFE","3MX2NQ3YCB00QI0ZR89I66GR3PV5XC","emotion","mismatch","uniform","","","","","","","519.1999999992549","155547.5","156066.69999999925","[""stimuli/AF10_HO.jpg"",""stimuli/WM13_SUR.jpg"",""stimuli/BF05_HE.jpg"",""stimuli/WF06_AO.jpg""]","stimuli/AF10_HO.jpg","stimuli/WM13_SUR.jpg","stimuli/BF05_HE.jpg","stimuli/WF06_AO.jpg","pos4","stimuli/WF06_AO.jpg","AO","WF06","3","3","6","6","stimuli/stars_6.png","73.5","[""HO"",""SUR"",""HE"",""AO""]","[""AF10"",""WM13"",""BF05"",""WF06""]","[10,4,2,6]","[8,2,4,6]","","",""
"show-reward","70","157452","0.0-70.0","p29278","AMELYCC59JKB0","3S1L4CQSFYBD9IN1W8PCJQ1H8N7AFE","3MX2NQ3YCB00QI0ZR89I66GR3PV5XC","emotion","mismatch","uniform","","","","","","","","156567.69999999925","158573.8999999985","","","","","","","","","","","","6","","stimuli/stars_6.png","73.5","","","","","stimuli/WF06_AO.jpg","",""
"explore-choice","71","158932","0.0-71.0","p29278","AMELYCC59JKB0","3S1L4CQSFYBD9IN1W8PCJQ1H8N7AFE","3MX2NQ3YCB00QI0ZR89I66GR3PV5XC","emotion","mismatch","uniform","","","","","","","979.2999999970198","158574.30000000075","159553.59999999776","[""stimuli/WF06_AO.jpg"",""stimuli/BF05_SUR.jpg"",""stimuli/AF10_HO.jpg"",""stimuli/WM13_HE.jpg""]","stimuli/WF06_AO.jpg","stimuli/BF05_SUR.jpg","stimuli/AF10_HO.jpg","stimuli/WM13_HE.jpg","pos1","stimuli/WF06_AO.jpg","AO","WF06","0","3.5","7","6","stimuli/stars_7.png","77","[""AO"",""SUR"",""HO"",""HE""]","[""WF06"",""BF05"",""AF10"",""WM13""]","[7,0,6,6]","[6,2,8,4]","","",""
"show-reward","72","160934","0.0-72.0","p29278","AMELYCC59JKB0","3S1L4CQSFYBD9IN1W8PCJQ1H8N7AFE","3MX2NQ3YCB00QI0ZR89I66GR3PV5XC","emotion","mismatch","uniform","","","","","","","","160054.8999999985","162056.19999999925","","","","","","","","","","","","7","","stimuli/stars_7.png","77","","","","","stimuli/WF06_AO.jpg","",""
"explore-choice","73","163111","0.0-73.0","p29278","AMELYCC59JKB0","3S1L4CQSFYBD9IN1W8PCJQ1H8N7AFE","3MX2NQ3YCB00QI0ZR89I66GR3PV5XC","emotion","mismatch","uniform","","","","","","","1672.5","162056.59999999776","163729.09999999776","[""stimuli/BF05_AO.jpg"",""stimuli/AF10_HO.jpg"",""stimuli/WF06_SUR.jpg"",""stimuli/WM13_HE.jpg""]","stimuli/BF05_AO.jpg","stimuli/AF10_HO.jpg","stimuli/WF06_SUR.jpg","stimuli/WM13_HE.jpg","pos3","stimuli/WF06_SUR.jpg","SUR","WF06","2","1.5","3","2","stimuli/stars_3.png","78.5","[""AO"",""HO"",""SUR"",""HE""]","[""BF05"",""AF10"",""WF06"",""WM13""]","[5,6,3,5]","[6,8,2,4]","","",""
"show-reward","74","165113","0.0-74.0","p29278","AMELYCC59JKB0","3S1L4CQSFYBD9IN1W8PCJQ1H8N7AFE","3MX2NQ3YCB00QI0ZR89I66GR3PV5XC","emotion","mismatch","uniform","","","","","","","","164233","166234.3999999985","","","","","","","","","","","","3","","stimuli/stars_3.png","78.5","","","","","stimuli/WF06_SUR.jpg","",""
"explore-choice","75","168497","0.0-75.0","p29278","AMELYCC59JKB0","3S1L4CQSFYBD9IN1W8PCJQ1H8N7AFE","3MX2NQ3YCB00QI0ZR89I66GR3PV5XC","emotion","mismatch","uniform","","","","","","","2875.89999999851","166234.80000000075","169110.69999999925","[""stimuli/WF06_SUR.jpg"",""stimuli/WM13_HO.jpg"",""stimuli/BF05_HE.jpg"",""stimuli/AF10_AO.jpg""]","stimuli/WF06_SUR.jpg","stimuli/WM13_HO.jpg","stimuli/BF05_HE.jpg","stimuli/AF10_AO.jpg","pos1","stimuli/WF06_SUR.jpg","SUR","WF06","0","1","2","2","stimuli/stars_2.png","79.5","[""SUR"",""HO"",""HE"",""AO""]","[""WF06"",""WM13"",""BF05"",""AF10""]","[2,8,4,5]","[2,8,4,6]","","",""
"show-reward","76","170498","0.0-76.0","p29278","AMELYCC59JKB0","3S1L4CQSFYBD9IN1W8PCJQ1H8N7AFE","3MX2NQ3YCB00QI0ZR89I66GR3PV5XC","emotion","mismatch","uniform","","","","","","","","169619.5","171620.30000000075","","","","","","","","","","","","2","","stimuli/stars_2.png","79.5","","","","","stimuli/WF06_SUR.jpg","",""
"explore-choice","77","171614","0.0-77.0","p29278","AMELYCC59JKB0","3S1L4CQSFYBD9IN1W8PCJQ1H8N7AFE","3MX2NQ3YCB00QI0ZR89I66GR3PV5XC","emotion","mismatch","uniform","","","","","","","609.7999999970198","171620.80000000075","172230.59999999776","[""stimuli/WM13_HE.jpg"",""stimuli/BF05_AO.jpg"",""stimuli/WF06_HO.jpg"",""stimuli/AF10_SUR.jpg""]","stimuli/WM13_HE.jpg","stimuli/BF05_AO.jpg","stimuli/WF06_HO.jpg","stimuli/AF10_SUR.jpg","pos4","stimuli/AF10_SUR.jpg","SUR","AF10","3","0","0","2","stimuli/stars_0.png","79.5","[""HE"",""AO"",""HO"",""SUR""]","[""WM13"",""BF05"",""WF06"",""AF10""]","[4,8,10,0]","[4,6,8,2]","","",""
"show-reward","78","173616","0.0-78.0","p29278","AMELYCC59JKB0","3S1L4CQSFYBD9IN1W8PCJQ1H8N7AFE","3MX2NQ3YCB00QI0ZR89I66GR3PV5XC","emotion","mismatch","uniform","","","","","","","","172736.5","174737.8999999985","","","","","","","","","","","","0","","stimuli/stars_0.png","79.5","","","","","stimuli/AF10_SUR.jpg","",""
"explore-choice","79","174867","0.0-79.0","p29278","AMELYCC59JKB0","3S1L4CQSFYBD9IN1W8PCJQ1H8N7AFE","3MX2NQ3YCB00QI0ZR89I66GR3PV5XC","emotion","mismatch","uniform","","","","","","","745.1000000014901","174738.3999999985","175483.5","[""stimuli/WF06_SUR.jpg"",""stimuli/BF05_AO.jpg"",""stimuli/WM13_HO.jpg"",""stimuli/AF10_HE.jpg""]","stimuli/WF06_SUR.jpg","stimuli/BF05_AO.jpg","stimuli/WM13_HO.jpg","stimuli/AF10_HE.jpg","pos2","stimuli/BF05_AO.jpg","AO","BF05","1","3","6","6","stimuli/stars_6.png","82.5","[""SUR"",""AO"",""HO"",""HE""]","[""WF06"",""BF05"",""WM13"",""AF10""]","[3,6,6,5]","[2,6,8,4]","","",""
"show-reward","80","176873","0.0-80.0","p29278","AMELYCC59JKB0","3S1L4CQSFYBD9IN1W8PCJQ1H8N7AFE","3MX2NQ3YCB00QI0ZR89I66GR3PV5XC","emotion","mismatch","uniform","","","","","","","","175989.59999999776","177995.19999999925","","","","","","","","","","","","6","","stimuli/stars_6.png","82.5","","","","","stimuli/BF05_AO.jpg","",""
"explore-choice","81","178446","0.0-81.0","p29278","AMELYCC59JKB0","3S1L4CQSFYBD9IN1W8PCJQ1H8N7AFE","3MX2NQ3YCB00QI0ZR89I66GR3PV5XC","emotion","mismatch","uniform","","","","","","","1064.7000000029802","177995.59999999776","179060.30000000075","[""stimuli/WF06_HO.jpg"",""stimuli/AF10_HE.jpg"",""stimuli/WM13_SUR.jpg"",""stimuli/BF05_AO.jpg""]","stimuli/WF06_HO.jpg","stimuli/AF10_HE.jpg","stimuli/WM13_SUR.jpg","stimuli/BF05_AO.jpg","pos1","stimuli/WF06_HO.jpg","HO","WF06","0","4.5","9","8","stimuli/stars_9.png","87","[""HO"",""HE"",""SUR"",""AO""]","[""WF06"",""AF10"",""WM13"",""BF05""]","[9,5,0,4]","[8,4,2,6]","","",""
"show-reward","82","180454","0.0-82.0","p29278","AMELYCC59JKB0","3S1L4CQSFYBD9IN1W8PCJQ1H8N7AFE","3MX2NQ3YCB00QI0ZR89I66GR3PV5XC","emotion","mismatch","uniform","","","","","","","","179568","181576","","","","","","","","","","","","9","","stimuli/stars_9.png","87","","","","","stimuli/WF06_HO.jpg","",""
"explore-choice","83","181670","0.0-83.0","p29278","AMELYCC59JKB0","3S1L4CQSFYBD9IN1W8PCJQ1H8N7AFE","3MX2NQ3YCB00QI0ZR89I66GR3PV5XC","emotion","mismatch","uniform","","","","","","","710.4000000022352","181576.3999999985","182286.80000000075","[""stimuli/WF06_SUR.jpg"",""stimuli/BF05_HO.jpg"",""stimuli/WM13_AO.jpg"",""stimuli/AF10_HE.jpg""]","stimuli/WF06_SUR.jpg","stimuli/BF05_HO.jpg","stimuli/WM13_AO.jpg","stimuli/AF10_HE.jpg","pos1","stimuli/WF06_SUR.jpg","SUR","WF06","0","2","4","2","stimuli/stars_4.png","89","[""SUR"",""HO"",""AO"",""HE""]","[""WF06"",""BF05"",""WM13"",""AF10""]","[4,6,6,6]","[2,8,6,4]","","",""
"show-reward","84","183673","0.0-84.0","p29278","AMELYCC59JKB0","3S1L4CQSFYBD9IN1W8PCJQ1H8N7AFE","3MX2NQ3YCB00QI0ZR89I66GR3PV5XC","emotion","mismatch","uniform","","","","","","","","182792","184795.09999999776","","","","","","","","","","","","4","","stimuli/stars_4.png","89","","","","","stimuli/WF06_SUR.jpg","",""
"explore-choice","85","186057","0.0-85.0","p29278","AMELYCC59JKB0","3S1L4CQSFYBD9IN1W8PCJQ1H8N7AFE","3MX2NQ3YCB00QI0ZR89I66GR3PV5XC","emotion","mismatch","uniform","","","","","","","1868.199999999255","184795.5","186663.69999999925","[""stimuli/BF05_AO.jpg"",""stimuli/AF10_SUR.jpg"",""stimuli/WM13_HO.jpg"",""stimuli/WF06_HE.jpg""]","stimuli/BF05_AO.jpg","stimuli/AF10_SUR.jpg","stimuli/WM13_HO.jpg","stimuli/WF06_HE.jpg","pos4","stimuli/WF06_HE.jpg","HE","WF06","3","1.5","3","4","stimuli/stars_3.png","90.5","[""AO"",""SUR"",""HO"",""HE""]","[""BF05"",""AF10"",""WM13"",""WF06""]","[5,4,6,3]","[6,2,8,4]","","",""
"show-reward","86","188059","0.0-86.0","p29278","AMELYCC59JKB0","3S1L4CQSFYBD9IN1W8PCJQ1H8N7AFE","3MX2NQ3YCB00QI0ZR89I66GR3PV5XC","emotion","mismatch","uniform","","","","","","","","187179","189180.80000000075","","","","","","","","","","","","3","","stimuli/stars_3.png","90.5","","","","","stimuli/WF06_HE.jpg","",""
"explore-choice","87","189295","0.0-87.0","p29278","AMELYCC59JKB0","3S1L4CQSFYBD9IN1W8PCJQ1H8N7AFE","3MX2NQ3YCB00QI0ZR89I66GR3PV5XC","emotion","mismatch","uniform","","","","","","","721.0999999977648","189181.30000000075","189902.3999999985","[""stimuli/AF10_HO.jpg"",""stimuli/BF05_AO.jpg"",""stimuli/WM13_SUR.jpg"",""stimuli/WF06_HE.jpg""]","stimuli/AF10_HO.jpg","stimuli/BF05_AO.jpg","stimuli/WM13_SUR.jpg","stimuli/WF06_HE.jpg","pos1","stimuli/AF10_HO.jpg","HO","AF10","0","4","8","8","stimuli/stars_8.png","94.5","[""HO"",""AO"",""SUR"",""HE""]","[""AF10"",""BF05"",""WM13"",""WF06""]","[8,7,2,6]","[8,6,2,4]","","",""
"show-reward","88","191312","0.0-88.0","p29278","AMELYCC59JKB0","3S1L4CQSFYBD9IN1W8PCJQ1H8N7AFE","3MX2NQ3YCB00QI0ZR89I66GR3PV5XC","emotion","mismatch","uniform","","","","","","","","190417.80000000075","192434.09999999776","","","","","","","","","","","","8","","stimuli/stars_8.png","94.5","","","","","stimuli/AF10_HO.jpg","",""
"explore-choice","89","193612","0.0-89.0","p29278","AMELYCC59JKB0","3S1L4CQSFYBD9IN1W8PCJQ1H8N7AFE","3MX2NQ3YCB00QI0ZR89I66GR3PV5XC","emotion","mismatch","uniform","","","","","","","1798.5999999977648","192434.5","194233.09999999776","[""stimuli/WF06_AO.jpg"",""stimuli/BF05_HE.jpg"",""stimuli/WM13_HO.jpg"",""stimuli/AF10_SUR.jpg""]","stimuli/WF06_AO.jpg","stimuli/BF05_HE.jpg","stimuli/WM13_HO.jpg","stimuli/AF10_SUR.jpg","pos2","stimuli/BF05_HE.jpg","HE","BF05","1","1.5","3","4","stimuli/stars_3.png","96","[""AO"",""HE"",""HO"",""SUR""]","[""WF06"",""BF05"",""WM13"",""AF10""]","[6,3,7,4]","[6,4,8,2]","","",""
"show-reward","90","195613","0.0-90.0","p29278","AMELYCC59JKB0","3S1L4CQSFYBD9IN1W8PCJQ1H8N7AFE","3MX2NQ3YCB00QI0ZR89I66GR3PV5XC","emotion","mismatch","uniform","","","","","","","","194734.5","196735.30000000075","","","","","","","","","","","","3","","stimuli/stars_3.png","96","","","","","stimuli/BF05_HE.jpg","",""
"explore-choice","91","197170","0.0-91.0","p29278","AMELYCC59JKB0","3S1L4CQSFYBD9IN1W8PCJQ1H8N7AFE","3MX2NQ3YCB00QI0ZR89I66GR3PV5XC","emotion","mismatch","uniform","","","","","","","1056.300000000745","196735.69999999925","197792","[""stimuli/WF06_AO.jpg"",""stimuli/BF05_HO.jpg"",""stimuli/AF10_HE.jpg"",""stimuli/WM13_SUR.jpg""]","stimuli/WF06_AO.jpg","stimuli/BF05_HO.jpg","stimuli/AF10_HE.jpg","stimuli/WM13_SUR.jpg","pos4","stimuli/WM13_SUR.jpg","SUR","WM13","3","0","0","2","stimuli/stars_0.png","96","[""AO"",""HO"",""HE"",""SUR""]","[""WF06"",""BF05"",""AF10"",""WM13""]","[5,7,3,0]","[6,8,4,2]","","",""
"show-reward","92","199172","0.0-92.0","p29278","AMELYCC59JKB0","3S1L4CQSFYBD9IN1W8PCJQ1H8N7AFE","3MX2NQ3YCB00QI0ZR89I66GR3PV5XC","emotion","mismatch","uniform","","","","","","","","198292.5","200293.59999999776","","","","","","","","","","","","0","","stimuli/stars_0.png","96","","","","","stimuli/WM13_SUR.jpg","",""
"explore-choice","93","200401","0.0-93.0","p29278","AMELYCC59JKB0","3S1L4CQSFYBD9IN1W8PCJQ1H8N7AFE","3MX2NQ3YCB00QI0ZR89I66GR3PV5XC","emotion","mismatch","uniform","","","","","","","728.8000000007451","200293.8999999985","201022.69999999925","[""stimuli/AF10_SUR.jpg"",""stimuli/BF05_HO.jpg"",""stimuli/WF06_HE.jpg"",""stimuli/WM13_AO.jpg""]","stimuli/AF10_SUR.jpg","stimuli/BF05_HO.jpg","stimuli/WF06_HE.jpg","stimuli/WM13_AO.jpg","pos2","stimuli/BF05_HO.jpg","HO","BF05","1","3.5","7","8","stimuli/stars_7.png","99.5","[""SUR"",""HO"",""HE"",""AO""]","[""AF10"",""BF05"",""WF06"",""WM13""]","[4,7,4,5]","[2,8,4,6]","","",""
"show-reward","94","202418","0.0-94.0","p29278","AMELYCC59JKB0","3S1L4CQSFYBD9IN1W8PCJQ1H8N7AFE","3MX2NQ3YCB00QI0ZR89I66GR3PV5XC","emotion","mismatch","uniform","","","","","","","","201523.19999999925","203539.59999999776","","","","","","","","","","","","7","","stimuli/stars_7.png","99.5","","","","","stimuli/BF05_HO.jpg","",""
"explore-choice","95","204304","0.0-95.0","p29278","AMELYCC59JKB0","3S1L4CQSFYBD9IN1W8PCJQ1H8N7AFE","3MX2NQ3YCB00QI0ZR89I66GR3PV5XC","emotion","mismatch","uniform","","","","","","","1385.300000000745","203540","204925.30000000075","[""stimuli/BF05_HO.jpg"",""stimuli/WM13_SUR.jpg"",""stimuli/AF10_AO.jpg"",""stimuli/WF06_HE.jpg""]","stimuli/BF05_HO.jpg","stimuli/WM13_SUR.jpg","stimuli/AF10_AO.jpg","stimuli/WF06_HE.jpg","pos1","stimuli/BF05_HO.jpg","HO","BF05","0","4","8","8","stimuli/stars_8.png","103.5","[""HO"",""SUR"",""AO"",""HE""]","[""BF05"",""WM13"",""AF10"",""WF06""]","[8,1,5,3]","[8,2,6,4]","","",""
"show-reward","96","206305","0.0-96.0","p29278","AMELYCC59JKB0","3S1L4CQSFYBD9IN1W8PCJQ1H8N7AFE","3MX2NQ3YCB00QI0ZR89I66GR3PV5XC","emotion","mismatch","uniform","","","","","","","","205425.8999999985","207427.09999999776","","","","","","","","","","","","8","","stimuli/stars_8.png","103.5","","","","","stimuli/BF05_HO.jpg","",""
"explore-choice","97","208372","0.0-97.0","p29278","AMELYCC59JKB0","3S1L4CQSFYBD9IN1W8PCJQ1H8N7AFE","3MX2NQ3YCB00QI0ZR89I66GR3PV5XC","emotion","mismatch","uniform","","","","","","","1559.5999999977648","207427.5","208987.09999999776","[""stimuli/WF06_AO.jpg"",""stimuli/AF10_SUR.jpg"",""stimuli/WM13_HE.jpg"",""stimuli/BF05_HO.jpg""]","stimuli/WF06_AO.jpg","stimuli/AF10_SUR.jpg","stimuli/WM13_HE.jpg","stimuli/BF05_HO.jpg","pos1","stimuli/WF06_AO.jpg","AO","WF06","0","3","6","6","stimuli/stars_6.png","106.5","[""AO"",""SUR"",""HE"",""HO""]","[""WF06"",""AF10"",""WM13"",""BF05""]","[6,0,6,10]","[6,2,4,8]","","",""
"show-reward","98","210373","0.0-98.0","p29278","AMELYCC59JKB0","3S1L4CQSFYBD9IN1W8PCJQ1H8N7AFE","3MX2NQ3YCB00QI0ZR89I66GR3PV5XC","emotion","mismatch","uniform","","","","","","","","209493.8999999985","211494.8999999985","","","","","","","","","","","","6","","stimuli/stars_6.png","106.5","","","","","stimuli/WF06_AO.jpg","",""
"explore-choice","99","212183","0.0-99.0","p29278","AMELYCC59JKB0","3S1L4CQSFYBD9IN1W8PCJQ1H8N7AFE","3MX2NQ3YCB00QI0ZR89I66GR3PV5XC","emotion","mismatch","uniform","","","","","","","1299.6000000014901","211495.3999999985","212795","[""stimuli/AF10_HE.jpg"",""stimuli/WM13_HO.jpg"",""stimuli/BF05_SUR.jpg"",""stimuli/WF06_AO.jpg""]","stimuli/AF10_HE.jpg","stimuli/WM13_HO.jpg","stimuli/BF05_SUR.jpg","stimuli/WF06_AO.jpg","pos4","stimuli/WF06_AO.jpg","AO","WF06","3","2.5","5","6","stimuli/stars_5.png","109","[""HE"",""HO"",""SUR"",""AO""]","[""AF10"",""WM13"",""BF05"",""WF06""]","[6,6,1,5]","[4,8,2,6]","","",""
"show-reward","100","214191","0.0-100.0","p29278","AMELYCC59JKB0","3S1L4CQSFYBD9IN1W8PCJQ1H8N7AFE","3MX2NQ3YCB00QI0ZR89I66GR3PV5XC","emotion","mismatch","uniform","","","","","","","","213304.8999999985","215312.5","","","","","","","","","","","","5","","stimuli/stars_5.png","109","","","","","stimuli/WF06_AO.jpg","",""
"explore-choice","101","216475","0.0-101.0","p29278","AMELYCC59JKB0","3S1L4CQSFYBD9IN1W8PCJQ1H8N7AFE","3MX2NQ3YCB00QI0ZR89I66GR3PV5XC","emotion","mismatch","uniform","","","","","","","1781.5999999977648","215313","217094.59999999776","[""stimuli/BF05_SUR.jpg"",""stimuli/AF10_HE.jpg"",""stimuli/WF06_HO.jpg"",""stimuli/WM13_AO.jpg""]","stimuli/BF05_SUR.jpg","stimuli/AF10_HE.jpg","stimuli/WF06_HO.jpg","stimuli/WM13_AO.jpg","pos3","stimuli/WF06_HO.jpg","HO","WF06","2","3.5","7","8","stimuli/stars_7.png","112.5","[""SUR"",""HE"",""HO"",""AO""]","[""BF05"",""AF10"",""WF06"",""WM13""]","[3,3,7,6]","[2,4,8,6]","","",""
"show-reward","102","218482","0.0-102.0","p29278","AMELYCC59JKB0","3S1L4CQSFYBD9IN1W8PCJQ1H8N7AFE","3MX2NQ3YCB00QI0ZR89I66GR3PV5XC","emotion","mismatch","uniform","","","","","","","","217596.8999999985","219603.80000000075","","","","","","","","","","","","7","","stimuli/stars_7.png","112.5","","","","","stimuli/WF06_HO.jpg","",""
"explore-choice","103","220999","0.0-103.0","p29278","AMELYCC59JKB0","3S1L4CQSFYBD9IN1W8PCJQ1H8N7AFE","3MX2NQ3YCB00QI0ZR89I66GR3PV5XC","emotion","mismatch","uniform","","","","","","","2005.199999999255","219604.19999999925","221609.3999999985","[""stimuli/BM03_CC.jpg"",""stimuli/HF09_FO.jpg"",""stimuli/HM09_DO.jpg"",""stimuli/BM16_SC.jpg""]","stimuli/BM03_CC.jpg","stimuli/HF09_FO.jpg","stimuli/HM09_DO.jpg","stimuli/BM16_SC.jpg","pos3","stimuli/HM09_DO.jpg","DO","HM09","2","1.5","3","2","stimuli/stars_3.png","114","[""CC"",""FO"",""DO"",""SC""]","[""BM03"",""HF09"",""HM09"",""BM16""]","[4,8,3,2]","[6,8,2,4]","","",""
"show-reward","104","223006","0.0-104.0","p29278","AMELYCC59JKB0","3S1L4CQSFYBD9IN1W8PCJQ1H8N7AFE","3MX2NQ3YCB00QI0ZR89I66GR3PV5XC","emotion","mismatch","uniform","","","","","","","","222120.8999999985","224128.09999999776","","","","","","","","","","","","3","","stimuli/stars_3.png","114","","","","","stimuli/HM09_DO.jpg","",""
"explore-choice","105","224826","0.0-105.0","p29278","AMELYCC59JKB0","3S1L4CQSFYBD9IN1W8PCJQ1H8N7AFE","3MX2NQ3YCB00QI0ZR89I66GR3PV5XC","emotion","mismatch","uniform","","","","","","","1318.5","224128.59999999776","225447.09999999776","[""stimuli/HF09_DO.jpg"",""stimuli/HM09_SC.jpg"",""stimuli/BM03_CC.jpg"",""stimuli/BM16_FO.jpg""]","stimuli/HF09_DO.jpg","stimuli/HM09_SC.jpg","stimuli/BM03_CC.jpg","stimuli/BM16_FO.jpg","pos1","stimuli/HF09_DO.jpg","DO","HF09","0","3","6","8","stimuli/stars_6.png","117","[""DO"",""SC"",""CC"",""FO""]","[""HF09"",""HM09"",""BM03"",""BM16""]","[6,0,8,4]","[8,2,6,4]","","",""
"show-reward","106","226827","0.0-106.0","p29278","AMELYCC59JKB0","3S1L4CQSFYBD9IN1W8PCJQ1H8N7AFE","3MX2NQ3YCB00QI0ZR89I66GR3PV5XC","emotion","mismatch","uniform","","","","","","","","225948.19999999925","227948.69999999925","","","","","","","","","","","","6","","stimuli/stars_6.png","117","","","","","stimuli/HF09_DO.jpg","",""
"explore-choice","107","228964","0.0-107.0","p29278","AMELYCC59JKB0","3S1L4CQSFYBD9IN1W8PCJQ1H8N7AFE","3MX2NQ3YCB00QI0ZR89I66GR3PV5XC","emotion","mismatch","uniform","","","","","","","1621.6000000014901","227949.19999999925","229570.80000000075","[""stimuli/HM09_SC.jpg"",""stimuli/HF09_CC.jpg"",""stimuli/BM16_DO.jpg"",""stimuli/BM03_FO.jpg""]","stimuli/HM09_SC.jpg","stimuli/HF09_CC.jpg","stimuli/BM16_DO.jpg","stimuli/BM03_FO.jpg","pos4","stimuli/BM03_FO.jpg","FO","BM03","3","2","4","6","stimuli/stars_4.png","119","[""SC"",""CC"",""DO"",""FO""]","[""HM09"",""HF09"",""BM16"",""BM03""]","[1,9,6,4]","[2,8,4,6]","","",""
"show-reward","108","230969","0.0-108.0","p29278","AMELYCC59JKB0","3S1L4CQSFYBD9IN1W8PCJQ1H8N7AFE","3MX2NQ3YCB00QI0ZR89I66GR3PV5XC","emotion","mismatch","uniform","","","","","","","","230086","232091.09999999776","","","","","","","","","","","","4","","stimuli/stars_4.png","119","","","","","stimuli/BM03_FO.jpg","",""
"explore-choice","109","232342","0.0-109.0","p29278","AMELYCC59JKB0","3S1L4CQSFYBD9IN1W8PCJQ1H8N7AFE","3MX2NQ3YCB00QI0ZR89I66GR3PV5XC","emotion","mismatch","uniform","","","","","","","865.0999999977648","232091.5","232956.59999999776","[""stimuli/BM03_SC.jpg"",""stimuli/HF09_FO.jpg"",""stimuli/BM16_CC.jpg"",""stimuli/HM09_DO.jpg""]","stimuli/BM03_SC.jpg","stimuli/HF09_FO.jpg","stimuli/BM16_CC.jpg","stimuli/HM09_DO.jpg","pos2","stimuli/HF09_FO.jpg","FO","HF09","1","3","6","8","stimuli/stars_6.png","122","[""SC"",""FO"",""CC"",""DO""]","[""BM03"",""HF09"",""BM16"",""HM09""]","[5,6,6,3]","[6,8,4,2]","","",""
"show-reward","110","234353","0.0-110.0","p29278","AMELYCC59JKB0","3S1L4CQSFYBD9IN1W8PCJQ1H8N7AFE","3MX2NQ3YCB00QI0ZR89I66GR3PV5XC","emotion","mismatch","uniform","","","","","","","","233464.69999999925","235474.80000000075","","","","","","","","","","","","6","","stimuli/stars_6.png","122","","","","","stimuli/HF09_FO.jpg","",""
"explore-choice","111","235832","0.0-111.0","p29278","AMELYCC59JKB0","3S1L4CQSFYBD9IN1W8PCJQ1H8N7AFE","3MX2NQ3YCB00QI0ZR89I66GR3PV5XC","emotion","mismatch","uniform","","","","","","","977","235475.30000000075","236452.30000000075","[""stimuli/HF09_DO.jpg"",""stimuli/BM16_FO.jpg"",""stimuli/BM03_SC.jpg"",""stimuli/HM09_CC.jpg""]","stimuli/HF09_DO.jpg","stimuli/BM16_FO.jpg","stimuli/BM03_SC.jpg","stimuli/HM09_CC.jpg","pos1","stimuli/HF09_DO.jpg","DO","HF09","0","5","10","8","stimuli/stars_10.png","127","[""DO"",""FO"",""SC"",""CC""]","[""HF09"",""BM16"",""BM03"",""HM09""]","[10,4,4,3]","[8,4,6,2]","","",""
"show-reward","112","237837","0.0-112.0","p29278","AMELYCC59JKB0","3S1L4CQSFYBD9IN1W8PCJQ1H8N7AFE","3MX2NQ3YCB00QI0ZR89I66GR3PV5XC","emotion","mismatch","uniform","","","","","","","","236953.8999999985","238959.30000000075","","","","","","","","","","","","10","","stimuli/stars_10.png","127","","","","","stimuli/HF09_DO.jpg","",""
"explore-choice","113","239131","0.0-113.0","p29278","AMELYCC59JKB0","3S1L4CQSFYBD9IN1W8PCJQ1H8N7AFE","3MX2NQ3YCB00QI0ZR89I66GR3PV5XC","emotion","mismatch","uniform","","","","","","","788.2999999970198","238959.80000000075","239748.09999999776","[""stimuli/HF09_DO.jpg"",""stimuli/BM03_FO.jpg"",""stimuli/BM16_SC.jpg"",""stimuli/HM09_CC.jpg""]","stimuli/HF09_DO.jpg","stimuli/BM03_FO.jpg","stimuli/BM16_SC.jpg","stimuli/HM09_CC.jpg","pos1","stimuli/HF09_DO.jpg","DO","HF09","0","4","8","8","stimuli/stars_8.png","131","[""DO"",""FO"",""SC"",""CC""]","[""HF09"",""BM03"",""BM16"",""HM09""]","[8,7,4,2]","[8,6,4,2]","","",""
"show-reward","114","241132","0.0-114.0","p29278","AMELYCC59JKB0","3S1L4CQSFYBD9IN1W8PCJQ1H8N7AFE","3MX2NQ3YCB00QI0ZR89I66GR3PV5XC","emotion","mismatch","uniform","","","","","","","","240253.19999999925","242254","","","","","","","","","","","","8","","stimuli/stars_8.png","131","","","","","stimuli/HF09_DO.jpg","",""
"explore-choice","115","243546","0.0-115.0","p29278","AMELYCC59JKB0","3S1L4CQSFYBD9IN1W8PCJQ1H8N7AFE","3MX2NQ3YCB00QI0ZR89I66GR3PV5XC","emotion","mismatch","uniform","","","","","","","1899.5","242254.30000000075","244153.80000000075","[""stimuli/BM16_DO.jpg"",""stimuli/HF09_SC.jpg"",""stimuli/BM03_CC.jpg"",""stimuli/HM09_FO.jpg""]","stimuli/BM16_DO.jpg","stimuli/HF09_SC.jpg","stimuli/BM03_CC.jpg","stimuli/HM09_FO.jpg","pos4","stimuli/HM09_FO.jpg","FO","HM09","3","1","2","2","stimuli/stars_2.png","132","[""DO"",""SC"",""CC"",""FO""]","[""BM16"",""HF09"",""BM03"",""HM09""]","[2,9,8,2]","[4,8,6,2]","","",""
"show-reward","116","245552","0.0-116.0","p29278","AMELYCC59JKB0","3S1L4CQSFYBD9IN1W8PCJQ1H8N7AFE","3MX2NQ3YCB00QI0ZR89I66GR3PV5XC","emotion","mismatch","uniform","","","","","","","","244668.19999999925","246674","","","","","","","","","","","","2","","stimuli/stars_2.png","132","","","","","stimuli/HM09_FO.jpg","",""
"explore-choice","117","247016","0.0-117.0","p29278","AMELYCC59JKB0","3S1L4CQSFYBD9IN1W8PCJQ1H8N7AFE","3MX2NQ3YCB00QI0ZR89I66GR3PV5XC","emotion","mismatch","uniform","","","","","","","956.1999999992549","246674.3999999985","247630.59999999776","[""stimuli/HF09_SC.jpg"",""stimuli/BM16_CC.jpg"",""stimuli/HM09_FO.jpg"",""stimuli/BM03_DO.jpg""]","stimuli/HF09_SC.jpg","stimuli/BM16_CC.jpg","stimuli/HM09_FO.jpg","stimuli/BM03_DO.jpg","pos3","stimuli/HM09_FO.jpg","FO","HM09","2","1","2","2","stimuli/stars_2.png","133","[""SC"",""CC"",""FO"",""DO""]","[""HF09"",""BM16"",""HM09"",""BM03""]","[6,3,2,8]","[8,4,2,6]","","",""
"show-reward","118","249023","0.0-118.0","p29278","AMELYCC59JKB0","3S1L4CQSFYBD9IN1W8PCJQ1H8N7AFE","3MX2NQ3YCB00QI0ZR89I66GR3PV5XC","emotion","mismatch","uniform","","","","","","","","248137.80000000075","250145.30000000075","","","","","","","","","","","","2","","stimuli/stars_2.png","133","","","","","stimuli/HM09_FO.jpg","",""
"explore-choice","119","252202","0.0-119.0","p29278","AMELYCC59JKB0","3S1L4CQSFYBD9IN1W8PCJQ1H8N7AFE","3MX2NQ3YCB00QI0ZR89I66GR3PV5XC","emotion","mismatch","uniform","","","","","","","2672.39999999851","250145.69999999925","252818.09999999776","[""stimuli/HM09_SC.jpg"",""stimuli/BM16_CC.jpg"",""stimuli/BM03_DO.jpg"",""stimuli/HF09_FO.jpg""]","stimuli/HM09_SC.jpg","stimuli/BM16_CC.jpg","stimuli/BM03_DO.jpg","stimuli/HF09_FO.jpg","pos2","stimuli/BM16_CC.jpg","CC","BM16","1","3","6","4","stimuli/stars_6.png","136","[""SC"",""CC"",""DO"",""FO""]","[""HM09"",""BM16"",""BM03"",""HF09""]","[2,6,7,8]","[2,4,6,8]","","",""
"show-reward","120","254207","0.0-120.0","p29278","AMELYCC59JKB0","3S1L4CQSFYBD9IN1W8PCJQ1H8N7AFE","3MX2NQ3YCB00QI0ZR89I66GR3PV5XC","emotion","mismatch","uniform","","","","","","","","253324.5","255328.8999999985","","","","","","","","","","","","6","","stimuli/stars_6.png","136","","","","","stimuli/BM16_CC.jpg","",""
"explore-choice","121","256628","0.0-121.0","p29278","AMELYCC59JKB0","3S1L4CQSFYBD9IN1W8PCJQ1H8N7AFE","3MX2NQ3YCB00QI0ZR89I66GR3PV5XC","emotion","mismatch","uniform","","","","","","","1919.5","255329.30000000075","257248.80000000075","[""stimuli/BM16_CC.jpg"",""stimuli/HM09_FO.jpg"",""stimuli/BM03_SC.jpg"",""stimuli/HF09_DO.jpg""]","stimuli/BM16_CC.jpg","stimuli/HM09_FO.jpg","stimuli/BM03_SC.jpg","stimuli/HF09_DO.jpg","pos3","stimuli/BM03_SC.jpg","SC","BM03","2","4","8","6","stimuli/stars_8.png","140","[""CC"",""FO"",""SC"",""DO""]","[""BM16"",""HM09"",""BM03"",""HF09""]","[5,0,8,10]","[4,2,6,8]","","",""
"show-reward","122","258634","0.0-122.0","p29278","AMELYCC59JKB0","3S1L4CQSFYBD9IN1W8PCJQ1H8N7AFE","3MX2NQ3YCB00QI0ZR89I66GR3PV5XC","emotion","mismatch","uniform","","","","","","","","257749.80000000075","259756.19999999925","","","","","","","","","","","","8","","stimuli/stars_8.png","140","","","","","stimuli/BM03_SC.jpg","",""
"explore-choice","123","261553","0.0-123.0","p29278","AMELYCC59JKB0","3S1L4CQSFYBD9IN1W8PCJQ1H8N7AFE","3MX2NQ3YCB00QI0ZR89I66GR3PV5XC","emotion","mismatch","uniform","","","","","","","2410.900000002235","259756.59999999776","262167.5","[""stimuli/BM16_FO.jpg"",""stimuli/HM09_DO.jpg"",""stimuli/HF09_SC.jpg"",""stimuli/BM03_CC.jpg""]","stimuli/BM16_FO.jpg","stimuli/HM09_DO.jpg","stimuli/HF09_SC.jpg","stimuli/BM03_CC.jpg","pos2","stimuli/HM09_DO.jpg","DO","HM09","1","2","4","2","stimuli/stars_4.png","142","[""FO"",""DO"",""SC"",""CC""]","[""BM16"",""HM09"",""HF09"",""BM03""]","[6,4,10,6]","[4,2,8,6]","","",""
"show-reward","124","263562","0.0-124.0","p29278","AMELYCC59JKB0","3S1L4CQSFYBD9IN1W8PCJQ1H8N7AFE","3MX2NQ3YCB00QI0ZR89I66GR3PV5XC","emotion","mismatch","uniform","","","","","","","","262675","264683.8999999985","","","","","","","","","","","","4","","stimuli/stars_4.png","142","","","","","stimuli/HM09_DO.jpg","",""
"explore-choice","125","266402","0.0-125.0","p29278","AMELYCC59JKB0","3S1L4CQSFYBD9IN1W8PCJQ1H8N7AFE","3MX2NQ3YCB00QI0ZR89I66GR3PV5XC","emotion","mismatch","uniform","","","","","","","2330","264684.3999999985","267014.3999999985","[""stimuli/BM03_DO.jpg"",""stimuli/BM16_FO.jpg"",""stimuli/HF09_SC.jpg"",""stimuli/HM09_CC.jpg""]","stimuli/BM03_DO.jpg","stimuli/BM16_FO.jpg","stimuli/HF09_SC.jpg","stimuli/HM09_CC.jpg","pos1","stimuli/BM03_DO.jpg","DO","BM03","0","3.5","7","6","stimuli/stars_7.png","145.5","[""DO"",""FO"",""SC"",""CC""]","[""BM03"",""BM16"",""HF09"",""HM09""]","[7,3,8,0]","[6,4,8,2]","","",""
"show-reward","126","268409","0.0-126.0","p29278","AMELYCC59JKB0","3S1L4CQSFYBD9IN1W8PCJQ1H8N7AFE","3MX2NQ3YCB00QI0ZR89I66GR3PV5XC","emotion","mismatch","uniform","","","","","","","","267524","269531","","","","","","","","","","","","7","","stimuli/stars_7.png","145.5","","","","","stimuli/BM03_DO.jpg","",""
"explore-choice","127","270757","0.0-127.0","p29278","AMELYCC59JKB0","3S1L4CQSFYBD9IN1W8PCJQ1H8N7AFE","3MX2NQ3YCB00QI0ZR89I66GR3PV5XC","emotion","mismatch","uniform","","","","","","","1843.5","269531.3999999985","271374.8999999985","[""stimuli/HF09_DO.jpg"",""stimuli/HM09_SC.jpg"",""stimuli/BM16_CC.jpg"",""stimuli/BM03_FO.jpg""]","stimuli/HF09_DO.jpg","stimuli/HM09_SC.jpg","stimuli/BM16_CC.jpg","stimuli/BM03_FO.jpg","pos4","stimuli/BM03_FO.jpg","FO","BM03","3","3.5","7","6","stimuli/stars_7.png","149","[""DO"",""SC"",""CC"",""FO""]","[""HF09"",""HM09"",""BM16"",""BM03""]","[10,3,2,7]","[8,2,4,6]","","",""
"show-reward","128","272758","0.0-128.0","p29278","AMELYCC59JKB0","3S1L4CQSFYBD9IN1W8PCJQ1H8N7AFE","3MX2NQ3YCB00QI0ZR89I66GR3PV5XC","emotion","mismatch","uniform","","","","","","","","271879.09999999776","273880","","","","","","","","","","","","7","","stimuli/stars_7.png","149","","","","","stimuli/BM03_FO.jpg","",""
"explore-choice","129","274738","0.0-129.0","p29278","AMELYCC59JKB0","3S1L4CQSFYBD9IN1W8PCJQ1H8N7AFE","3MX2NQ3YCB00QI0ZR89I66GR3PV5XC","emotion","mismatch","uniform","","","","","","","1479.1000000014901","273880.3999999985","275359.5","[""stimuli/HM09_FO.jpg"",""stimuli/BM03_CC.jpg"",""stimuli/BM16_SC.jpg"",""stimuli/HF09_DO.jpg""]","stimuli/HM09_FO.jpg","stimuli/BM03_CC.jpg","stimuli/BM16_SC.jpg","stimuli/HF09_DO.jpg","pos4","stimuli/HF09_DO.jpg","DO","HF09","3","5","10","8","stimuli/stars_10.png","154","[""FO"",""CC"",""SC"",""DO""]","[""HM09"",""BM03"",""BM16"",""HF09""]","[4,5,2,10]","[2,6,4,8]","","",""
"show-reward","130","276744","0.0-130.0","p29278","AMELYCC59JKB0","3S1L4CQSFYBD9IN1W8PCJQ1H8N7AFE","3MX2NQ3YCB00QI0ZR89I66GR3PV5XC","emotion","mismatch","uniform","","","","","","","","275860.5","277865.5","","","","","","","","","","","","10","","stimuli/stars_10.png","154","","","","","stimuli/HF09_DO.jpg","",""
"explore-choice","131","278874","0.0-131.0","p29278","AMELYCC59JKB0","3S1L4CQSFYBD9IN1W8PCJQ1H8N7AFE","3MX2NQ3YCB00QI0ZR89I66GR3PV5XC","emotion","mismatch","uniform","","","","","","","1625.3999999985099","277866","279491.3999999985","[""stimuli/HF09_FO.jpg"",""stimuli/BM03_DO.jpg"",""stimuli/BM16_SC.jpg"",""stimuli/HM09_CC.jpg""]","stimuli/HF09_FO.jpg","stimuli/BM03_DO.jpg","stimuli/BM16_SC.jpg","stimuli/HM09_CC.jpg","pos1","stimuli/HF09_FO.jpg","FO","HF09","0","4.5","9","8","stimuli/stars_9.png","158.5","[""FO"",""DO"",""SC"",""CC""]","[""HF09"",""BM03"",""BM16"",""HM09""]","[9,7,4,4]","[8,6,4,2]","","",""
"show-reward","132","280883","0.0-132.0","p29278","AMELYCC59JKB0","3S1L4CQSFYBD9IN1W8PCJQ1H8N7AFE","3MX2NQ3YCB00QI0ZR89I66GR3PV5XC","emotion","mismatch","uniform","","","","","","","","279995.8999999985","282005.09999999776","","","","","","","","","","","","9","","stimuli/stars_9.png","158.5","","","","","stimuli/HF09_FO.jpg","",""
"explore-choice","133","285677","0.0-133.0","p29278","AMELYCC59JKB0","3S1L4CQSFYBD9IN1W8PCJQ1H8N7AFE","3MX2NQ3YCB00QI0ZR89I66GR3PV5XC","emotion","mismatch","uniform","","","","","","","4287.300000000745","282005.5","286292.80000000075","[""stimuli/HF09_CC.jpg"",""stimuli/BM16_DO.jpg"",""stimuli/HM09_FO.jpg"",""stimuli/BM03_SC.jpg""]","stimuli/HF09_CC.jpg","stimuli/BM16_DO.jpg","stimuli/HM09_FO.jpg","stimuli/BM03_SC.jpg","pos2","stimuli/BM16_DO.jpg","DO","BM16","1","1","2","4","stimuli/stars_2.png","159.5","[""CC"",""DO"",""FO"",""SC""]","[""HF09"",""BM16"",""HM09"",""BM03""]","[10,2,0,7]","[8,4,2,6]","","",""
"show-reward","134","287683","0.0-134.0","p29278","AMELYCC59JKB0","3S1L4CQSFYBD9IN1W8PCJQ1H8N7AFE","3MX2NQ3YCB00QI0ZR89I66GR3PV5XC","emotion","mismatch","uniform","","","","","","","","286798.59999999776","288804.3999999985","","","","","","","","","","","","2","","stimuli/stars_2.png","159.5","","","","","stimuli/BM16_DO.jpg","",""
"explore-choice","135","289551","0.0-135.0","p29278","AMELYCC59JKB0","3S1L4CQSFYBD9IN1W8PCJQ1H8N7AFE","3MX2NQ3YCB00QI0ZR89I66GR3PV5XC","emotion","mismatch","uniform","","","","","","","1357.7999999970198","288804.80000000075","290162.59999999776","[""stimuli/HF09_FO.jpg"",""stimuli/HM09_SC.jpg"",""stimuli/BM16_DO.jpg"",""stimuli/BM03_CC.jpg""]","stimuli/HF09_FO.jpg","stimuli/HM09_SC.jpg","stimuli/BM16_DO.jpg","stimuli/BM03_CC.jpg","pos3","stimuli/BM16_DO.jpg","DO","BM16","2","2.5","5","4","stimuli/stars_5.png","162","[""FO"",""SC"",""DO"",""CC""]","[""HF09"",""HM09"",""BM16"",""BM03""]","[6,0,5,7]","[8,2,4,6]","","",""
"show-reward","136","291553","0.0-136.0","p29278","AMELYCC59JKB0","3S1L4CQSFYBD9IN1W8PCJQ1H8N7AFE","3MX2NQ3YCB00QI0ZR89I66GR3PV5XC","emotion","mismatch","uniform","","","","","","","","290673.3999999985","292674.30000000075","","","","","","","","","","","","5","","stimuli/stars_5.png","162","","","","","stimuli/BM16_DO.jpg","",""
"explore-choice","137","292969","0.0-137.0","p29278","AMELYCC59JKB0","3S1L4CQSFYBD9IN1W8PCJQ1H8N7AFE","3MX2NQ3YCB00QI0ZR89I66GR3PV5XC","emotion","mismatch","uniform","","","","","","","915.6999999992549","292674.69999999925","293590.3999999985","[""stimuli/BM03_DO.jpg"",""stimuli/HF09_CC.jpg"",""stimuli/HM09_SC.jpg"",""stimuli/BM16_FO.jpg""]","stimuli/BM03_DO.jpg","stimuli/HF09_CC.jpg","stimuli/HM09_SC.jpg","stimuli/BM16_FO.jpg","pos1","stimuli/BM03_DO.jpg","DO","BM03","0","2","4","6","stimuli/stars_4.png","164","[""DO"",""CC"",""SC"",""FO""]","[""BM03"",""HF09"",""HM09"",""BM16""]","[4,6,2,6]","[6,8,2,4]","","",""
"show-reward","138","294971","0.0-138.0","p29278","AMELYCC59JKB0","3S1L4CQSFYBD9IN1W8PCJQ1H8N7AFE","3MX2NQ3YCB00QI0ZR89I66GR3PV5XC","emotion","mismatch","uniform","","","","","","","","294091","296092.09999999776","","","","","","","","","","","","4","","stimuli/stars_4.png","164","","","","","stimuli/BM03_DO.jpg","",""
"explore-choice","139","296401","0.0-139.0","p29278","AMELYCC59JKB0","3S1L4CQSFYBD9IN1W8PCJQ1H8N7AFE","3MX2NQ3YCB00QI0ZR89I66GR3PV5XC","emotion","mismatch","uniform","","","","","","","929.8000000007451","296092.5","297022.30000000075","[""stimuli/BM16_DO.jpg"",""stimuli/BM03_FO.jpg"",""stimuli/HF09_SC.jpg"",""stimuli/HM09_CC.jpg""]","stimuli/BM16_DO.jpg","stimuli/BM03_FO.jpg","stimuli/HF09_SC.jpg","stimuli/HM09_CC.jpg","pos2","stimuli/BM03_FO.jpg","FO","BM03","1","2","4","6","stimuli/stars_4.png","166","[""DO"",""FO"",""SC"",""CC""]","[""BM16"",""BM03"",""HF09"",""HM09""]","[6,4,10,0]","[4,6,8,2]","","",""
"show-reward","140","298403","0.0-140.0","p29278","AMELYCC59JKB0","3S1L4CQSFYBD9IN1W8PCJQ1H8N7AFE","3MX2NQ3YCB00QI0ZR89I66GR3PV5XC","emotion","mismatch","uniform","","","","","","","","297523.3999999985","299524.5","","","","","","","","","","","","4","","stimuli/stars_4.png","166","","","","","stimuli/BM03_FO.jpg","",""
"explore-choice","141","299900","0.0-141.0","p29278","AMELYCC59JKB0","3S1L4CQSFYBD9IN1W8PCJQ1H8N7AFE","3MX2NQ3YCB00QI0ZR89I66GR3PV5XC","emotion","mismatch","uniform","","","","","","","992.3000000007451","299524.8999999985","300517.19999999925","[""stimuli/HF09_CC.jpg"",""stimuli/HM09_FO.jpg"",""stimuli/BM03_DO.jpg"",""stimuli/BM16_SC.jpg""]","stimuli/HF09_CC.jpg","stimuli/HM09_FO.jpg","stimuli/BM03_DO.jpg","stimuli/BM16_SC.jpg","pos2","stimuli/HM09_FO.jpg","FO","HM09","1","1","2","2","stimuli/stars_2.png","167","[""CC"",""FO"",""DO"",""SC""]","[""HF09"",""HM09"",""BM03"",""BM16""]","[7,2,5,6]","[8,2,6,4]","","",""
"show-reward","142","301902","0.0-142.0","p29278","AMELYCC59JKB0","3S1L4CQSFYBD9IN1W8PCJQ1H8N7AFE","3MX2NQ3YCB00QI0ZR89I66GR3PV5XC","emotion","mismatch","uniform","","","","","","","","301021.80000000075","303023.19999999925","","","","","","","","","","","","2","","stimuli/stars_2.png","167","","","","","stimuli/HM09_FO.jpg","",""
"explore-choice","143","303761","0.0-143.0","p29278","AMELYCC59JKB0","3S1L4CQSFYBD9IN1W8PCJQ1H8N7AFE","3MX2NQ3YCB00QI0ZR89I66GR3PV5XC","emotion","mismatch","uniform","","","","","","","1352","303023.69999999925","304375.69999999925","[""stimuli/HF09_SC.jpg"",""stimuli/BM03_FO.jpg"",""stimuli/HM09_DO.jpg"",""stimuli/BM16_CC.jpg""]","stimuli/HF09_SC.jpg","stimuli/BM03_FO.jpg","stimuli/HM09_DO.jpg","stimuli/BM16_CC.jpg","pos3","stimuli/HM09_DO.jpg","DO","HM09","2","1","2","2","stimuli/stars_2.png","168","[""SC"",""FO"",""DO"",""CC""]","[""HF09"",""BM03"",""HM09"",""BM16""]","[6,4,2,5]","[8,6,2,4]","","",""
"show-reward","144","305764","0.0-144.0","p29278","AMELYCC59JKB0","3S1L4CQSFYBD9IN1W8PCJQ1H8N7AFE","3MX2NQ3YCB00QI0ZR89I66GR3PV5XC","emotion","mismatch","uniform","","","","","","","","304882.69999999925","306885.3999999985","","","","","","","","","","","","2","","stimuli/stars_2.png","168","","","","","stimuli/HM09_DO.jpg","",""
"explore-choice","145","314375","0.0-145.0","p29278","AMELYCC59JKB0","3S1L4CQSFYBD9IN1W8PCJQ1H8N7AFE","3MX2NQ3YCB00QI0ZR89I66GR3PV5XC","emotion","mismatch","uniform","","","","","","","8110","306885.8999999985","314995.8999999985","[""stimuli/HM09_CC.jpg"",""stimuli/BM03_SC.jpg"",""stimuli/BM16_DO.jpg"",""stimuli/HF09_FO.jpg""]","stimuli/HM09_CC.jpg","stimuli/BM03_SC.jpg","stimuli/BM16_DO.jpg","stimuli/HF09_FO.jpg","pos4","stimuli/HF09_FO.jpg","FO","HF09","3","3.5","7","8","stimuli/stars_7.png","171.5","[""CC"",""SC"",""DO"",""FO""]","[""HM09"",""BM03"",""BM16"",""HF09""]","[0,6,5,7]","[2,6,4,8]","","",""
"show-reward","146","316381","0.0-146.0","p29278","AMELYCC59JKB0","3S1L4CQSFYBD9IN1W8PCJQ1H8N7AFE","3MX2NQ3YCB00QI0ZR89I66GR3PV5XC","emotion","mismatch","uniform","","","","","","","","315496.8999999985","317502.19999999925","","","","","","","","","","","","7","","stimuli/stars_7.png","171.5","","","","","stimuli/HF09_FO.jpg","",""
"explore-choice","147","320269","0.0-147.0","p29278","AMELYCC59JKB0","3S1L4CQSFYBD9IN1W8PCJQ1H8N7AFE","3MX2NQ3YCB00QI0ZR89I66GR3PV5XC","emotion","mismatch","uniform","","","","","","","3374.89999999851","317502.80000000075","320877.69999999925","[""stimuli/HF09_CC.jpg"",""stimuli/HM09_DO.jpg"",""stimuli/BM03_SC.jpg"",""stimuli/BM16_FO.jpg""]","stimuli/HF09_CC.jpg","stimuli/HM09_DO.jpg","stimuli/BM03_SC.jpg","stimuli/BM16_FO.jpg","pos1","stimuli/HF09_CC.jpg","CC","HF09","0","4.5","9","8","stimuli/stars_9.png","176","[""CC"",""DO"",""SC"",""FO""]","[""HF09"",""HM09"",""BM03"",""BM16""]","[9,2,5,2]","[8,2,6,4]","","",""
"show-reward","148","322277","0.0-148.0","p29278","AMELYCC59JKB0","3S1L4CQSFYBD9IN1W8PCJQ1H8N7AFE","3MX2NQ3YCB00QI0ZR89I66GR3PV5XC","emotion","mismatch","uniform","","","","","","","","321390.80000000075","323398.09999999776","","","","","","","","","","","","9","","stimuli/stars_9.png","176","","","","","stimuli/HF09_CC.jpg","",""
"explore-choice","149","324254","0.0-149.0","p29278","AMELYCC59JKB0","3S1L4CQSFYBD9IN1W8PCJQ1H8N7AFE","3MX2NQ3YCB00QI0ZR89I66GR3PV5XC","emotion","mismatch","uniform","","","","","","","1471.7000000029802","323398.59999999776","324870.30000000075","[""stimuli/HM09_DO.jpg"",""stimuli/BM03_FO.jpg"",""stimuli/BM16_SC.jpg"",""stimuli/HF09_CC.jpg""]","stimuli/HM09_DO.jpg","stimuli/BM03_FO.jpg","stimuli/BM16_SC.jpg","stimuli/HF09_CC.jpg","pos4","stimuli/HF09_CC.jpg","CC","HF09","3","4.5","9","8","stimuli/stars_9.png","180.5","[""DO"",""FO"",""SC"",""CC""]","[""HM09"",""BM03"",""BM16"",""HF09""]","[4,4,2,9]","[2,6,4,8]","","",""
"show-reward","150","326260","0.0-150.0","p29278","AMELYCC59JKB0","3S1L4CQSFYBD9IN1W8PCJQ1H8N7AFE","3MX2NQ3YCB00QI0ZR89I66GR3PV5XC","emotion","mismatch","uniform","","","","","","","","325375.80000000075","327381.69999999925","","","","","","","","","","","","9","","stimuli/stars_9.png","180.5","","","","","stimuli/HF09_CC.jpg","",""
"explore-choice","151","328915","0.0-151.0","p29278","AMELYCC59JKB0","3S1L4CQSFYBD9IN1W8PCJQ1H8N7AFE","3MX2NQ3YCB00QI0ZR89I66GR3PV5XC","emotion","mismatch","uniform","","","","","","","2138.7999999970198","327382.30000000075","329521.09999999776","[""stimuli/BM03_SC.jpg"",""stimuli/HM09_CC.jpg"",""stimuli/HF09_FO.jpg"",""stimuli/BM16_DO.jpg""]","stimuli/BM03_SC.jpg","stimuli/HM09_CC.jpg","stimuli/HF09_FO.jpg","stimuli/BM16_DO.jpg","pos1","stimuli/BM03_SC.jpg","SC","BM03","0","3","6","6","stimuli/stars_6.png","183.5","[""SC"",""CC"",""FO"",""DO""]","[""BM03"",""HM09"",""HF09"",""BM16""]","[6,0,7,5]","[6,2,8,4]","","",""
"show-reward","152","330921","0.0-152.0","p29278","AMELYCC59JKB0","3S1L4CQSFYBD9IN1W8PCJQ1H8N7AFE","3MX2NQ3YCB00QI0ZR89I66GR3PV5XC","emotion","mismatch","uniform","","","","","","","","330037.09999999776","332042.09999999776","","","","","","","","","","","","6","","stimuli/stars_6.png","183.5","","","","","stimuli/BM03_SC.jpg","",""
"explore-choice","153","333023","0.0-153.0","p29278","AMELYCC59JKB0","3S1L4CQSFYBD9IN1W8PCJQ1H8N7AFE","3MX2NQ3YCB00QI0ZR89I66GR3PV5XC","emotion","mismatch","uniform","","","","","","","1592.300000000745","332042.5","333634.80000000075","[""stimuli/HM09_SC.jpg"",""stimuli/BM16_CC.jpg"",""stimuli/BM03_DO.jpg"",""stimuli/HF09_FO.jpg""]","stimuli/HM09_SC.jpg","stimuli/BM16_CC.jpg","stimuli/BM03_DO.jpg","stimuli/HF09_FO.jpg","pos4","stimuli/HF09_FO.jpg","FO","HF09","3","4","8","8","stimuli/stars_8.png","187.5","[""SC"",""CC"",""DO"",""FO""]","[""HM09"",""BM16"",""BM03"",""HF09""]","[2,6,7,8]","[2,4,6,8]","","",""
"show-reward","154","335030","0.0-154.0","p29278","AMELYCC59JKB0","3S1L4CQSFYBD9IN1W8PCJQ1H8N7AFE","3MX2NQ3YCB00QI0ZR89I66GR3PV5XC","emotion","mismatch","uniform","","","","","","","","334144.3999999985","336151.09999999776","","","","","","","","","","","","8","","stimuli/stars_8.png","187.5","","","","","stimuli/HF09_FO.jpg","",""
"explore-choice","155","337821","0.0-155.0","p29278","AMELYCC59JKB0","3S1L4CQSFYBD9IN1W8PCJQ1H8N7AFE","3MX2NQ3YCB00QI0ZR89I66GR3PV5XC","emotion","mismatch","uniform","","","","","","","2283.7000000029802","336151.59999999776","338435.30000000075","[""stimuli/HM09_DO.jpg"",""stimuli/HF09_FO.jpg"",""stimuli/BM16_SC.jpg"",""stimuli/BM03_CC.jpg""]","stimuli/HM09_DO.jpg","stimuli/HF09_FO.jpg","stimuli/BM16_SC.jpg","stimuli/BM03_CC.jpg","pos1","stimuli/HM09_DO.jpg","DO","HM09","0","1.5","3","2","stimuli/stars_3.png","189","[""DO"",""FO"",""SC"",""CC""]","[""HM09"",""HF09"",""BM16"",""BM03""]","[3,8,2,4]","[2,8,4,6]","","",""
"show-reward","156","339823","0.0-156.0","p29278","AMELYCC59JKB0","3S1L4CQSFYBD9IN1W8PCJQ1H8N7AFE","3MX2NQ3YCB00QI0ZR89I66GR3PV5XC","emotion","mismatch","uniform","","","","","","","","338943.19999999925","340944","","","","","","","","","","","","3","","stimuli/stars_3.png","189","","","","","stimuli/HM09_DO.jpg","",""
"explore-choice","157","340937","0.0-157.0","p29278","AMELYCC59JKB0","3S1L4CQSFYBD9IN1W8PCJQ1H8N7AFE","3MX2NQ3YCB00QI0ZR89I66GR3PV5XC","emotion","mismatch","uniform","","","","","","","610.9000000022352","340944.3999999985","341555.30000000075","[""stimuli/BM03_FO.jpg"",""stimuli/HF09_DO.jpg"",""stimuli/HM09_CC.jpg"",""stimuli/BM16_SC.jpg""]","stimuli/BM03_FO.jpg","stimuli/HF09_DO.jpg","stimuli/HM09_CC.jpg","stimuli/BM16_SC.jpg","pos2","stimuli/HF09_DO.jpg","DO","HF09","1","4","8","8","stimuli/stars_8.png","193","[""FO"",""DO"",""CC"",""SC""]","[""BM03"",""HF09"",""HM09"",""BM16""]","[7,8,2,4]","[6,8,2,4]","","",""
"show-reward","158","342944","0.0-158.0","p29278","AMELYCC59JKB0","3S1L4CQSFYBD9IN1W8PCJQ1H8N7AFE","3MX2NQ3YCB00QI0ZR89I66GR3PV5XC","emotion","mismatch","uniform","","","","","","","","342059.09999999776","344065.30000000075","","","","","","","","","","","","8","","stimuli/stars_8.png","193","","","","","stimuli/HF09_DO.jpg","",""
"explore-choice","159","348533","0.0-159.0","p29278","AMELYCC59JKB0","3S1L4CQSFYBD9IN1W8PCJQ1H8N7AFE","3MX2NQ3YCB00QI0ZR89I66GR3PV5XC","emotion","mismatch","uniform","","","","","","","5076.89999999851","344065.69999999925","349142.59999999776","[""stimuli/HF09_SC.jpg"",""stimuli/HM09_DO.jpg"",""stimuli/BM16_CC.jpg"",""stimuli/BM03_FO.jpg""]","stimuli/HF09_SC.jpg","stimuli/HM09_DO.jpg","stimuli/BM16_CC.jpg","stimuli/BM03_FO.jpg","pos4","stimuli/BM03_FO.jpg","FO","BM03","3","2","4","6","stimuli/stars_4.png","195","[""SC"",""DO"",""CC"",""FO""]","[""HF09"",""HM09"",""BM16"",""BM03""]","[6,2,5,4]","[8,2,4,6]","","",""
"show-reward","160","350539","0.0-160.0","p29278","AMELYCC59JKB0","3S1L4CQSFYBD9IN1W8PCJQ1H8N7AFE","3MX2NQ3YCB00QI0ZR89I66GR3PV5XC","emotion","mismatch","uniform","","","","","","","","349655.09999999776","351660.59999999776","","","","","","","","","","","","4","","stimuli/stars_4.png","195","","","","","stimuli/BM03_FO.jpg","",""
"explore-choice","161","352377","0.0-161.0","p29278","AMELYCC59JKB0","3S1L4CQSFYBD9IN1W8PCJQ1H8N7AFE","3MX2NQ3YCB00QI0ZR89I66GR3PV5XC","emotion","mismatch","uniform","","","","","","","1327.3999999985099","351661","352988.3999999985","[""stimuli/BM16_DO.jpg"",""stimuli/BM03_CC.jpg"",""stimuli/HF09_FO.jpg"",""stimuli/HM09_SC.jpg""]","stimuli/BM16_DO.jpg","stimuli/BM03_CC.jpg","stimuli/HF09_FO.jpg","stimuli/HM09_SC.jpg","pos2","stimuli/BM03_CC.jpg","CC","BM03","1","3.5","7","6","stimuli/stars_7.png","198.5","[""DO"",""CC"",""FO"",""SC""]","[""BM16"",""BM03"",""HF09"",""HM09""]","[5,7,6,0]","[4,6,8,2]","","",""
"show-reward","162","354379","0.0-162.0","p29278","AMELYCC59JKB0","3S1L4CQSFYBD9IN1W8PCJQ1H8N7AFE","3MX2NQ3YCB00QI0ZR89I66GR3PV5XC","emotion","mismatch","uniform","","","","","","","","353498.59999999776","355500.5","","","","","","","","","","","","7","","stimuli/stars_7.png","198.5","","","","","stimuli/BM03_CC.jpg","",""
"explore-choice","163","359968","0.0-163.0","p29278","AMELYCC59JKB0","3S1L4CQSFYBD9IN1W8PCJQ1H8N7AFE","3MX2NQ3YCB00QI0ZR89I66GR3PV5XC","emotion","mismatch","uniform","","","","","","","5075","355501","360576","[""stimuli/BM16_DO.jpg"",""stimuli/HF09_CC.jpg"",""stimuli/BM03_FO.jpg"",""stimuli/HM09_SC.jpg""]","stimuli/BM16_DO.jpg","stimuli/HF09_CC.jpg","stimuli/BM03_FO.jpg","stimuli/HM09_SC.jpg","pos1","stimuli/BM16_DO.jpg","DO","BM16","0","3","6","4","stimuli/stars_6.png","201.5","[""DO"",""CC"",""FO"",""SC""]","[""BM16"",""HF09"",""BM03"",""HM09""]","[6,9,4,1]","[4,8,6,2]","","",""
"show-reward","164","361976","0.0-164.0","p29278","AMELYCC59JKB0","3S1L4CQSFYBD9IN1W8PCJQ1H8N7AFE","3MX2NQ3YCB00QI0ZR89I66GR3PV5XC","emotion","mismatch","uniform","","","","","","","","361090.19999999925","363097.30000000075","","","","","","","","","","","","6","","stimuli/stars_6.png","201.5","","","","","stimuli/BM16_DO.jpg","",""
"explore-choice","165","363886","0.0-165.0","p29278","AMELYCC59JKB0","3S1L4CQSFYBD9IN1W8PCJQ1H8N7AFE","3MX2NQ3YCB00QI0ZR89I66GR3PV5XC","emotion","mismatch","uniform","","","","","","","1397.8999999985099","363097.69999999925","364495.59999999776","[""stimuli/HM09_FO.jpg"",""stimuli/BM03_DO.jpg"",""stimuli/HF09_SC.jpg"",""stimuli/BM16_CC.jpg""]","stimuli/HM09_FO.jpg","stimuli/BM03_DO.jpg","stimuli/HF09_SC.jpg","stimuli/BM16_CC.jpg","pos4","stimuli/BM16_CC.jpg","CC","BM16","3","1.5","3","4","stimuli/stars_3.png","203","[""FO"",""DO"",""SC"",""CC""]","[""HM09"",""BM03"",""HF09"",""BM16""]","[2,8,6,3]","[2,6,8,4]","","",""
"show-reward","166","365890","0.0-166.0","p29278","AMELYCC59JKB0","3S1L4CQSFYBD9IN1W8PCJQ1H8N7AFE","3MX2NQ3YCB00QI0ZR89I66GR3PV5XC","emotion","mismatch","uniform","","","","","","","","365008","367011.09999999776","","","","","","","","","","","","3","","stimuli/stars_3.png","203","","","","","stimuli/BM16_CC.jpg","",""
"explore-choice","167","370723","0.0-167.0","p29278","AMELYCC59JKB0","3S1L4CQSFYBD9IN1W8PCJQ1H8N7AFE","3MX2NQ3YCB00QI0ZR89I66GR3PV5XC","emotion","mismatch","uniform","","","","","","","4329.800000000745","367011.5","371341.30000000075","[""stimuli/BM03_SC.jpg"",""stimuli/HF09_DO.jpg"",""stimuli/HM09_FO.jpg"",""stimuli/BM16_CC.jpg""]","stimuli/BM03_SC.jpg","stimuli/HF09_DO.jpg","stimuli/HM09_FO.jpg","stimuli/BM16_CC.jpg","pos1","stimuli/BM03_SC.jpg","SC","BM03","0","4","8","6","stimuli/stars_8.png","207","[""SC"",""DO"",""FO"",""CC""]","[""BM03"",""HF09"",""HM09"",""BM16""]","[8,10,0,5]","[6,8,2,4]","","",""
"show-reward","168","372729","0.0-168.0","p29278","AMELYCC59JKB0","3S1L4CQSFYBD9IN1W8PCJQ1H8N7AFE","3MX2NQ3YCB00QI0ZR89I66GR3PV5XC","emotion","mismatch","uniform","","","","","","","","371844.3999999985","373849.8999999985","","","","","","","","","","","","8","","stimuli/stars_8.png","207","","","","","stimuli/BM03_SC.jpg","",""
"explore-choice","169","375612","0.0-169.0","p29278","AMELYCC59JKB0","3S1L4CQSFYBD9IN1W8PCJQ1H8N7AFE","3MX2NQ3YCB00QI0ZR89I66GR3PV5XC","emotion","mismatch","uniform","","","","","","","2369.5","373850.30000000075","376219.80000000075","[""stimuli/BM16_DO.jpg"",""stimuli/HF09_CC.jpg"",""stimuli/HM09_FO.jpg"",""stimuli/BM03_SC.jpg""]","stimuli/BM16_DO.jpg","stimuli/HF09_CC.jpg","stimuli/HM09_FO.jpg","stimuli/BM03_SC.jpg","pos1","stimuli/BM16_DO.jpg","DO","BM16","0","1","2","4","stimuli/stars_2.png","208","[""DO"",""CC"",""FO"",""SC""]","[""BM16"",""HF09"",""HM09"",""BM03""]","[2,10,0,7]","[4,8,2,6]","","",""
"show-reward","170","377620","0.0-170.0","p29278","AMELYCC59JKB0","3S1L4CQSFYBD9IN1W8PCJQ1H8N7AFE","3MX2NQ3YCB00QI0ZR89I66GR3PV5XC","emotion","mismatch","uniform","","","","","","","","376733.3999999985","378740.80000000075","","","","","","","","","","","","2","","stimuli/stars_2.png","208","","","","","stimuli/BM16_DO.jpg","",""
"explore-choice","171","379723","0.0-171.0","p29278","AMELYCC59JKB0","3S1L4CQSFYBD9IN1W8PCJQ1H8N7AFE","3MX2NQ3YCB00QI0ZR89I66GR3PV5XC","emotion","mismatch","uniform","","","","","","","1603.300000000745","378741.19999999925","380344.5","[""stimuli/BM16_CC.jpg"",""stimuli/HF09_FO.jpg"",""stimuli/HM09_DO.jpg"",""stimuli/BM03_SC.jpg""]","stimuli/BM16_CC.jpg","stimuli/HF09_FO.jpg","stimuli/HM09_DO.jpg","stimuli/BM03_SC.jpg","pos3","stimuli/HM09_DO.jpg","DO","HM09","2","1.5","3","2","stimuli/stars_3.png","209.5","[""CC"",""FO"",""DO"",""SC""]","[""BM16"",""HF09"",""HM09"",""BM03""]","[6,6,3,5]","[4,8,2,6]","","",""
"show-reward","172","381728","0.0-172.0","p29278","AMELYCC59JKB0","3S1L4CQSFYBD9IN1W8PCJQ1H8N7AFE","3MX2NQ3YCB00QI0ZR89I66GR3PV5XC","emotion","mismatch","uniform","","","","","","","","380845","382849.09999999776","","","","","","","","","","","","3","","stimuli/stars_3.png","209.5","","","","","stimuli/HM09_DO.jpg","",""
"explore-choice","173","385093","0.0-173.0","p29278","AMELYCC59JKB0","3S1L4CQSFYBD9IN1W8PCJQ1H8N7AFE","3MX2NQ3YCB00QI0ZR89I66GR3PV5XC","emotion","mismatch","uniform","","","","","","","2859.800000000745","382849.5","385709.30000000075","[""stimuli/BM03_SC.jpg"",""stimuli/BM16_FO.jpg"",""stimuli/HM09_DO.jpg"",""stimuli/HF09_CC.jpg""]","stimuli/BM03_SC.jpg","stimuli/BM16_FO.jpg","stimuli/HM09_DO.jpg","stimuli/HF09_CC.jpg","pos2","stimuli/BM16_FO.jpg","FO","BM16","1","1","2","4","stimuli/stars_2.png","210.5","[""SC"",""FO"",""DO"",""CC""]","[""BM03"",""BM16"",""HM09"",""HF09""]","[5,2,2,9]","[6,4,2,8]","","",""
"show-reward","174","387100","0.0-174.0","p29278","AMELYCC59JKB0","3S1L4CQSFYBD9IN1W8PCJQ1H8N7AFE","3MX2NQ3YCB00QI0ZR89I66GR3PV5XC","emotion","mismatch","uniform","","","","","","","","386215.09999999776","388221.5","","","","","","","","","","","","2","","stimuli/stars_2.png","210.5","","","","","stimuli/BM16_FO.jpg","",""
"explore-choice","175","389642","0.0-175.0","p29278","AMELYCC59JKB0","3S1L4CQSFYBD9IN1W8PCJQ1H8N7AFE","3MX2NQ3YCB00QI0ZR89I66GR3PV5XC","emotion","mismatch","uniform","","","","","","","2032","388221.8999999985","390253.8999999985","[""stimuli/HM09_SC.jpg"",""stimuli/BM03_DO.jpg"",""stimuli/BM16_FO.jpg"",""stimuli/HF09_CC.jpg""]","stimuli/HM09_SC.jpg","stimuli/BM03_DO.jpg","stimuli/BM16_FO.jpg","stimuli/HF09_CC.jpg","pos3","stimuli/BM16_FO.jpg","FO","BM16","2","3","6","4","stimuli/stars_6.png","213.5","[""SC"",""DO"",""FO"",""CC""]","[""HM09"",""BM03"",""BM16"",""HF09""]","[2,4,6,6]","[2,6,4,8]","","",""
"show-reward","176","391655","0.0-176.0","p29278","AMELYCC59JKB0","3S1L4CQSFYBD9IN1W8PCJQ1H8N7AFE","3MX2NQ3YCB00QI0ZR89I66GR3PV5XC","emotion","mismatch","uniform","","","","","","","","390763.8999999985","392776","","","","","","","","","","","","6","","stimuli/stars_6.png","213.5","","","","","stimuli/BM16_FO.jpg","",""
"explore-choice","177","393613","0.0-177.0","p29278","AMELYCC59JKB0","3S1L4CQSFYBD9IN1W8PCJQ1H8N7AFE","3MX2NQ3YCB00QI0ZR89I66GR3PV5XC","emotion","mismatch","uniform","","","","","","","1452.0999999977648","392776.5","394228.59999999776","[""stimuli/BM16_SC.jpg"",""stimuli/HM09_FO.jpg"",""stimuli/BM03_CC.jpg"",""stimuli/HF09_DO.jpg""]","stimuli/BM16_SC.jpg","stimuli/HM09_FO.jpg","stimuli/BM03_CC.jpg","stimuli/HF09_DO.jpg","pos2","stimuli/HM09_FO.jpg","FO","HM09","1","2","4","2","stimuli/stars_4.png","215.5","[""SC"",""FO"",""CC"",""DO""]","[""BM16"",""HM09"",""BM03"",""HF09""]","[2,4,5,10]","[4,2,6,8]","","",""
"show-reward","178","395619","0.0-178.0","p29278","AMELYCC59JKB0","3S1L4CQSFYBD9IN1W8PCJQ1H8N7AFE","3MX2NQ3YCB00QI0ZR89I66GR3PV5XC","emotion","mismatch","uniform","","","","","","","","394734.8999999985","396740","","","","","","","","","","","","4","","stimuli/stars_4.png","215.5","","","","","stimuli/HM09_FO.jpg","",""
"explore-choice","179","397777","0.0-179.0","p29278","AMELYCC59JKB0","3S1L4CQSFYBD9IN1W8PCJQ1H8N7AFE","3MX2NQ3YCB00QI0ZR89I66GR3PV5XC","emotion","mismatch","uniform","","","","","","","1646","396740.3999999985","398386.3999999985","[""stimuli/HM09_CC.jpg"",""stimuli/BM03_FO.jpg"",""stimuli/HF09_SC.jpg"",""stimuli/BM16_DO.jpg""]","stimuli/HM09_CC.jpg","stimuli/BM03_FO.jpg","stimuli/HF09_SC.jpg","stimuli/BM16_DO.jpg","pos1","stimuli/HM09_CC.jpg","CC","HM09","0","0","0","2","stimuli/stars_0.png","215.5","[""CC"",""FO"",""SC"",""DO""]","[""HM09"",""BM03"",""HF09"",""BM16""]","[0,4,10,6]","[2,6,8,4]","","",""
"show-reward","180","399782","0.0-180.0","p29278","AMELYCC59JKB0","3S1L4CQSFYBD9IN1W8PCJQ1H8N7AFE","3MX2NQ3YCB00QI0ZR89I66GR3PV5XC","emotion","mismatch","uniform","","","","","","","","398898.19999999925","400903.5","","","","","","","","","","","","0","","stimuli/stars_0.png","215.5","","","","","stimuli/HM09_CC.jpg","",""
"explore-choice","181","401031","0.0-181.0","p29278","AMELYCC59JKB0","3S1L4CQSFYBD9IN1W8PCJQ1H8N7AFE","3MX2NQ3YCB00QI0ZR89I66GR3PV5XC","emotion","mismatch","uniform","","","","","","","745.0999999977648","400904","401649.09999999776","[""stimuli/BM16_SC.jpg"",""stimuli/HF09_FO.jpg"",""stimuli/HM09_CC.jpg"",""stimuli/BM03_DO.jpg""]","stimuli/BM16_SC.jpg","stimuli/HF09_FO.jpg","stimuli/HM09_CC.jpg","stimuli/BM03_DO.jpg","pos2","stimuli/HF09_FO.jpg","FO","HF09","1","4.5","9","8","stimuli/stars_9.png","220","[""SC"",""FO"",""CC"",""DO""]","[""BM16"",""HF09"",""HM09"",""BM03""]","[4,9,4,7]","[4,8,2,6]","","",""
"show-reward","182","403036","0.0-182.0","p29278","AMELYCC59JKB0","3S1L4CQSFYBD9IN1W8PCJQ1H8N7AFE","3MX2NQ3YCB00QI0ZR89I66GR3PV5XC","emotion","mismatch","uniform","","","","","","","","402152.30000000075","404157","","","","","","","","","","","","9","","stimuli/stars_9.png","220","","","","","stimuli/HF09_FO.jpg","",""
"explore-choice","183","407875","0.0-183.0","p29278","AMELYCC59JKB0","3S1L4CQSFYBD9IN1W8PCJQ1H8N7AFE","3MX2NQ3YCB00QI0ZR89I66GR3PV5XC","emotion","mismatch","uniform","","","","","","","4338.199999999255","404157.3999999985","408495.59999999776","[""stimuli/BM16_SC.jpg"",""stimuli/HM09_FO.jpg"",""stimuli/BM03_DO.jpg"",""stimuli/HF09_CC.jpg""]","stimuli/BM16_SC.jpg","stimuli/HM09_FO.jpg","stimuli/BM03_DO.jpg","stimuli/HF09_CC.jpg","pos2","stimuli/HM09_FO.jpg","FO","HM09","1","1","2","2","stimuli/stars_2.png","221","[""SC"",""FO"",""DO"",""CC""]","[""BM16"",""HM09"",""BM03"",""HF09""]","[6,2,5,7]","[4,2,6,8]","","",""
"show-reward","184","409876","0.0-184.0","p29278","AMELYCC59JKB0","3S1L4CQSFYBD9IN1W8PCJQ1H8N7AFE","3MX2NQ3YCB00QI0ZR89I66GR3PV5XC","emotion","mismatch","uniform","","","","","","","","408996.5","410997.19999999925","","","","","","","","","","","","2","","stimuli/stars_2.png","221","","","","","stimuli/HM09_FO.jpg","",""
"explore-choice","185","411102","0.0-185.0","p29278","AMELYCC59JKB0","3S1L4CQSFYBD9IN1W8PCJQ1H8N7AFE","3MX2NQ3YCB00QI0ZR89I66GR3PV5XC","emotion","mismatch","uniform","","","","","","","713.8000000007451","410997.59999999776","411711.3999999985","[""stimuli/BM16_CC.jpg"",""stimuli/HM09_SC.jpg"",""stimuli/HF09_DO.jpg"",""stimuli/BM03_FO.jpg""]","stimuli/BM16_CC.jpg","stimuli/HM09_SC.jpg","stimuli/HF09_DO.jpg","stimuli/BM03_FO.jpg","pos3","stimuli/HF09_DO.jpg","DO","HF09","2","5","10","8","stimuli/stars_10.png","226","[""CC"",""SC"",""DO"",""FO""]","[""BM16"",""HM09"",""HF09"",""BM03""]","[2,3,10,7]","[4,2,8,6]","","",""
"show-reward","186","413103","0.0-186.0","p29278","AMELYCC59JKB0","3S1L4CQSFYBD9IN1W8PCJQ1H8N7AFE","3MX2NQ3YCB00QI0ZR89I66GR3PV5XC","emotion","mismatch","uniform","","","","","","","","412223.80000000075","414224.80000000075","","","","","","","","","","","","10","","stimuli/stars_10.png","226","","","","","stimuli/HF09_DO.jpg","",""
"explore-choice","187","414483","0.0-187.0","p29278","AMELYCC59JKB0","3S1L4CQSFYBD9IN1W8PCJQ1H8N7AFE","3MX2NQ3YCB00QI0ZR89I66GR3PV5XC","emotion","mismatch","uniform","","","","","","","865.1000000014901","414225.19999999925","415090.30000000075","[""stimuli/HF09_DO.jpg"",""stimuli/HM09_SC.jpg"",""stimuli/BM03_CC.jpg"",""stimuli/BM16_FO.jpg""]","stimuli/HF09_DO.jpg","stimuli/HM09_SC.jpg","stimuli/BM03_CC.jpg","stimuli/BM16_FO.jpg","pos1","stimuli/HF09_DO.jpg","DO","HF09","0","3","6","8","stimuli/stars_6.png","229","[""DO"",""SC"",""CC"",""FO""]","[""HF09"",""HM09"",""BM03"",""BM16""]","[6,0,8,4]","[8,2,6,4]","","",""
"show-reward","188","416488","0.0-188.0","p29278","AMELYCC59JKB0","3S1L4CQSFYBD9IN1W8PCJQ1H8N7AFE","3MX2NQ3YCB00QI0ZR89I66GR3PV5XC","emotion","mismatch","uniform","","","","","","","","415604.69999999925","417609.69999999925","","","","","","","","","","","","6","","stimuli/stars_6.png","229","","","","","stimuli/HF09_DO.jpg","",""
"explore-choice","189","417846","0.0-189.0","p29278","AMELYCC59JKB0","3S1L4CQSFYBD9IN1W8PCJQ1H8N7AFE","3MX2NQ3YCB00QI0ZR89I66GR3PV5XC","emotion","mismatch","uniform","","","","","","","855.9000000022352","417610.09999999776","418466","[""stimuli/HM09_CC.jpg"",""stimuli/HF09_DO.jpg"",""stimuli/BM03_SC.jpg"",""stimuli/BM16_FO.jpg""]","stimuli/HM09_CC.jpg","stimuli/HF09_DO.jpg","stimuli/BM03_SC.jpg","stimuli/BM16_FO.jpg","pos2","stimuli/HF09_DO.jpg","DO","HF09","1","5","10","8","stimuli/stars_10.png","234","[""CC"",""DO"",""SC"",""FO""]","[""HM09"",""HF09"",""BM03"",""BM16""]","[3,10,4,4]","[2,8,6,4]","","",""
"show-reward","190","419853","0.0-190.0","p29278","AMELYCC59JKB0","3S1L4CQSFYBD9IN1W8PCJQ1H8N7AFE","3MX2NQ3YCB00QI0ZR89I66GR3PV5XC","emotion","mismatch","uniform","","","","","","","","418968","420974.69999999925","","","","","","","","","","","","10","","stimuli/stars_10.png","234","","","","","stimuli/HF09_DO.jpg","",""
"explore-choice","191","422073","0.0-191.0","p29278","AMELYCC59JKB0","3S1L4CQSFYBD9IN1W8PCJQ1H8N7AFE","3MX2NQ3YCB00QI0ZR89I66GR3PV5XC","emotion","mismatch","uniform","","","","","","","1708.5","420975.09999999776","422683.59999999776","[""stimuli/HF09_SC.jpg"",""stimuli/HM09_CC.jpg"",""stimuli/BM16_FO.jpg"",""stimuli/BM03_DO.jpg""]","stimuli/HF09_SC.jpg","stimuli/HM09_CC.jpg","stimuli/BM16_FO.jpg","stimuli/BM03_DO.jpg","pos1","stimuli/HF09_SC.jpg","SC","HF09","0","4","8","8","stimuli/stars_8.png","238","[""SC"",""CC"",""FO"",""DO""]","[""HF09"",""HM09"",""BM16"",""BM03""]","[8,0,3,7]","[8,2,4,6]","","",""
"show-reward","192","424075","0.0-192.0","p29278","AMELYCC59JKB0","3S1L4CQSFYBD9IN1W8PCJQ1H8N7AFE","3MX2NQ3YCB00QI0ZR89I66GR3PV5XC","emotion","mismatch","uniform","","","","","","","","423194.69999999925","425195.8999999985","","","","","","","","","","","","8","","stimuli/stars_8.png","238","","","","","stimuli/HF09_SC.jpg","",""
"explore-choice","193","425347","0.0-193.0","p29278","AMELYCC59JKB0","3S1L4CQSFYBD9IN1W8PCJQ1H8N7AFE","3MX2NQ3YCB00QI0ZR89I66GR3PV5XC","emotion","mismatch","uniform","","","","","","","759.0999999977648","425196.30000000075","425955.3999999985","[""stimuli/BM16_FO.jpg"",""stimuli/HM09_DO.jpg"",""stimuli/BM03_CC.jpg"",""stimuli/HF09_SC.jpg""]","stimuli/BM16_FO.jpg","stimuli/HM09_DO.jpg","stimuli/BM03_CC.jpg","stimuli/HF09_SC.jpg","pos4","stimuli/HF09_SC.jpg","SC","HF09","3","5","10","8","stimuli/stars_10.png","243","[""FO"",""DO"",""CC"",""SC""]","[""BM16"",""HM09"",""BM03"",""HF09""]","[6,4,6,10]","[4,2,6,8]","","",""
"show-reward","194","427353","0.0-194.0","p29278","AMELYCC59JKB0","3S1L4CQSFYBD9IN1W8PCJQ1H8N7AFE","3MX2NQ3YCB00QI0ZR89I66GR3PV5XC","emotion","mismatch","uniform","","","","","","","","426468.5","428474.3999999985","","","","","","","","","","","","10","","stimuli/stars_10.png","243","","","","","stimuli/HF09_SC.jpg","",""
"explore-choice","195","430782","0.0-195.0","p29278","AMELYCC59JKB0","3S1L4CQSFYBD9IN1W8PCJQ1H8N7AFE","3MX2NQ3YCB00QI0ZR89I66GR3PV5XC","emotion","mismatch","uniform","","","","","","","2917.2999999970198","428474.80000000075","431392.09999999776","[""stimuli/BM03_FO.jpg"",""stimuli/BM16_SC.jpg"",""stimuli/HM09_DO.jpg"",""stimuli/HF09_CC.jpg""]","stimuli/BM03_FO.jpg","stimuli/BM16_SC.jpg","stimuli/HM09_DO.jpg","stimuli/HF09_CC.jpg","pos4","stimuli/HF09_CC.jpg","CC","HF09","3","4.5","9","8","stimuli/stars_9.png","247.5","[""FO"",""SC"",""DO"",""CC""]","[""BM03"",""BM16"",""HM09"",""HF09""]","[4,2,4,9]","[6,4,2,8]","","",""
"show-reward","196","432789","0.0-196.0","p29278","AMELYCC59JKB0","3S1L4CQSFYBD9IN1W8PCJQ1H8N7AFE","3MX2NQ3YCB00QI0ZR89I66GR3PV5XC","emotion","mismatch","uniform","","","","","","","","431903.69999999925","433910.80000000075","","","","","","","","","","","","9","","stimuli/stars_9.png","247.5","","","","","stimuli/HF09_CC.jpg","",""
"explore-choice","197","435060","0.0-197.0","p29278","AMELYCC59JKB0","3S1L4CQSFYBD9IN1W8PCJQ1H8N7AFE","3MX2NQ3YCB00QI0ZR89I66GR3PV5XC","emotion","mismatch","uniform","","","","","","","1755.699999999255","433911.19999999925","435666.8999999985","[""stimuli/BM16_DO.jpg"",""stimuli/HM09_FO.jpg"",""stimuli/BM03_CC.jpg"",""stimuli/HF09_SC.jpg""]","stimuli/BM16_DO.jpg","stimuli/HM09_FO.jpg","stimuli/BM03_CC.jpg","stimuli/HF09_SC.jpg","pos4","stimuli/HF09_SC.jpg","SC","HF09","3","4.5","9","8","stimuli/stars_9.png","252","[""DO"",""FO"",""CC"",""SC""]","[""BM16"",""HM09"",""BM03"",""HF09""]","[2,2,8,9]","[4,2,6,8]","","",""
"show-reward","198","437076","0.0-198.0","p29278","AMELYCC59JKB0","3S1L4CQSFYBD9IN1W8PCJQ1H8N7AFE","3MX2NQ3YCB00QI0ZR89I66GR3PV5XC","emotion","mismatch","uniform","","","","","","","","436182.19999999925","438196.8999999985","","","","","","","","","","","","9","","stimuli/stars_9.png","252","","","","","stimuli/HF09_SC.jpg","",""
"instructions","199","443147","0.0-199.0","p29278","AMELYCC59JKB0","3S1L4CQSFYBD9IN1W8PCJQ1H8N7AFE","3MX2NQ3YCB00QI0ZR89I66GR3PV5XC","emotion","mismatch","uniform","","","","","","[{""page_index"":0,""viewing_time"":6070.800000000745}]","6071.199999999255","","","","","","","","","","","","","","","","","","","","","","","",""
"survey-text","200","447842","0.0-200.0-0.0","p29278","AMELYCC59JKB0","3S1L4CQSFYBD9IN1W8PCJQ1H8N7AFE","3MX2NQ3YCB00QI0ZR89I66GR3PV5XC","emotion","mismatch","uniform","","","","","","","4692.5","","","","","","","","","","","","","","","","","","","","","","","{""age"":""40""}",""
"survey-text","201","451960","0.0-200.0-1.0","p29278","AMELYCC59JKB0","3S1L4CQSFYBD9IN1W8PCJQ1H8N7AFE","3MX2NQ3YCB00QI0ZR89I66GR3PV5XC","emotion","mismatch","uniform","","","","","","","4117.5","","","","","","","","","","","","","","","","","","","","","","","{""gender"":""female""}",""
"survey-text","202","457036","0.0-200.0-2.0","p29278","AMELYCC59JKB0","3S1L4CQSFYBD9IN1W8PCJQ1H8N7AFE","3MX2NQ3YCB00QI0ZR89I66GR3PV5XC","emotion","mismatch","uniform","","","","","","","5074.300000000745","","","","","","","","","","","","","","","","","","","","","","","{""country"":""United States""}",""
"survey-text","203","463616","0.0-200.0-3.0","p29278","AMELYCC59JKB0","3S1L4CQSFYBD9IN1W8PCJQ1H8N7AFE","3MX2NQ3YCB00QI0ZR89I66GR3PV5XC","emotion","mismatch","uniform","","","","","","","6578.199999999255","","","","","","","","","","","","","","","","","","","","","","","{""language"":""English"",""other_languages"":""NA""}",""
"survey-multi-select","204","465437","0.0-201.0","p29278","AMELYCC59JKB0","3S1L4CQSFYBD9IN1W8PCJQ1H8N7AFE","3MX2NQ3YCB00QI0ZR89I66GR3PV5XC","emotion","mismatch","uniform","","","","","","","1819","","","","","","","","","","","","","","","","","","","","","","","{""race"":[""White""]}","[0]"
"survey-multi-choice","205","467546","0.0-202.0","p29278","AMELYCC59JKB0","3S1L4CQSFYBD9IN1W8PCJQ1H8N7AFE","3MX2NQ3YCB00QI0ZR89I66GR3PV5XC","emotion","mismatch","uniform","","","","","","","2107.2000000029802","","","","","","","","","","","","","","","","","","","","","","","{""education"":""Bachelor's degree""}","[0]"
"survey-text","206","498266","0.0-203.0","p29278","AMELYCC59JKB0","3S1L4CQSFYBD9IN1W8PCJQ1H8N7AFE","3MX2NQ3YCB00QI0ZR89I66GR3PV5XC","emotion","mismatch","uniform","","","","","","","30717.60000000149","","","","","","","","","","","","","","","","","","","","","","","{""patterns"":""I noticed certain girls got more starts depending on their facial expression. "",""strategy"":""No"",""comments"":""NA""}",""
