"trial_type","trial_index","time_elapsed","internal_node_id","subject","workerId","hitId","assignmentId","structure_condition","match_condition","noise_type","success","timeout","failed_images","failed_audio","failed_video","view_history","rt","start_time","end_time","stimuli","image1","image2","image3","image4","choiceLocation","choiceImage","choiceEmotion","choiceModel","choice_index","reward_score","reward","reward_score_unadjusted","reward_image","score_after_trial","emotions","models","rewards","rewards_unadjusted","stimulus","response","question_order"
"pavlovia","0","9","0.0-0.0","p730283","A38ZLNCTSUGW7","3S1L4CQSFYBD9IN1W8PCJQ1H8N7AFE","3YHH42UU5DL6VHX9GJ0IEHPDF8A0L0","emotion","match","uniform","","","","","","","","","","","","","","","","","","","","","","","","","","","","","","",""
"preload","1","5316","0.0-1.0","p730283","A38ZLNCTSUGW7","3S1L4CQSFYBD9IN1W8PCJQ1H8N7AFE","3YHH42UU5DL6VHX9GJ0IEHPDF8A0L0","emotion","match","uniform","true","false","[]","[]","[]","","","","","","","","","","","","","","","","","","","","","","","","","",""
"fullscreen","2","8130","0.0-2.0","p730283","A38ZLNCTSUGW7","3S1L4CQSFYBD9IN1W8PCJQ1H8N7AFE","3YHH42UU5DL6VHX9GJ0IEHPDF8A0L0","emotion","match","uniform","true","","","","","","","","","","","","","","","","","","","","","","","","","","","","","",""
"instructions","3","10930","0.0-3.0","p730283","A38ZLNCTSUGW7","3S1L4CQSFYBD9IN1W8PCJQ1H8N7AFE","3YHH42UU5DL6VHX9GJ0IEHPDF8A0L0","emotion","match","uniform","","","","","","[{""page_index"":0,""viewing_time"":2797.7999999821186}]","2798.2999999821186","","","","","","","","","","","","","","","","","","","","","","","",""
"explore-choice","4","13413","0.0-4.0","p730283","A38ZLNCTSUGW7","3S1L4CQSFYBD9IN1W8PCJQ1H8N7AFE","3YHH42UU5DL6VHX9GJ0IEHPDF8A0L0","emotion","match","uniform","","","","","","","1968.0999999940395","12663.90000000596","14632","[""stimuli/sheep.jpg"",""stimuli/hammer.jpg"",""stimuli/basketball.jpg"",""stimuli/horse.jpg""]","stimuli/sheep.jpg","stimuli/hammer.jpg","stimuli/basketball.jpg","stimuli/horse.jpg","pos4","stimuli/horse.jpg","","","3","64","64","64","stimuli/stars_8.png","65","","","","","","",""
"explore-choice","5","15026","0.0-5.0","p730283","A38ZLNCTSUGW7","3S1L4CQSFYBD9IN1W8PCJQ1H8N7AFE","3YHH42UU5DL6VHX9GJ0IEHPDF8A0L0","emotion","match","uniform","","","","","","","1099.0999999940395","15147.5","16246.59999999404","[""stimuli/hammer.jpg"",""stimuli/basketball.jpg"",""stimuli/horse.jpg"",""stimuli/sheep.jpg""]","stimuli/hammer.jpg","stimuli/basketball.jpg","stimuli/horse.jpg","stimuli/sheep.jpg","pos1","stimuli/hammer.jpg","","","0","8","8","8","stimuli/stars_2.png","9","","","","","","",""
"instructions","6","32451","0.0-6.0","p730283","A38ZLNCTSUGW7","3S1L4CQSFYBD9IN1W8PCJQ1H8N7AFE","3YHH42UU5DL6VHX9GJ0IEHPDF8A0L0","emotion","match","uniform","","","","","","[{""page_index"":0,""viewing_time"":17423.80000001192}]","17424.09999999404","","","","","","","","","","","","","","","","","","","","","","","",""
"explore-choice","7","35644","0.0-7.0","p730283","A38ZLNCTSUGW7","3S1L4CQSFYBD9IN1W8PCJQ1H8N7AFE","3YHH42UU5DL6VHX9GJ0IEHPDF8A0L0","emotion","match","uniform","","","","","","","2686.7000000178814","34186.19999998808","36872.90000000596","[""stimuli/AF11_HO.jpg"",""stimuli/WF14_SUR.jpg"",""stimuli/WM07_CC.jpg"",""stimuli/BM03_HE.jpg""]","stimuli/AF11_HO.jpg","stimuli/WF14_SUR.jpg","stimuli/WM07_CC.jpg","stimuli/BM03_HE.jpg","pos2","stimuli/WF14_SUR.jpg","SUR","WF14","1","2","4","4","stimuli/stars_4.png","3","[""HO"",""SUR"",""CC"",""HE""]","[""AF11"",""WF14"",""WM07"",""BM03""]","[4,4,2,9]","[6,4,2,8]","","",""
"show-reward","8","37656","0.0-8.0","p730283","A38ZLNCTSUGW7","3S1L4CQSFYBD9IN1W8PCJQ1H8N7AFE","3YHH42UU5DL6VHX9GJ0IEHPDF8A0L0","emotion","match","uniform","","","","","","","","37378.79999998212","39389.90000000596","","","","","","","","","","","","4","","stimuli/stars_4.png","3","","","","","stimuli/WF14_SUR.jpg","",""
"explore-choice","9","41097","0.0-9.0","p730283","A38ZLNCTSUGW7","3S1L4CQSFYBD9IN1W8PCJQ1H8N7AFE","3YHH42UU5DL6VHX9GJ0IEHPDF8A0L0","emotion","match","uniform","","","","","","","2930.0999999940395","39390.90000000596","42321","[""stimuli/WM07_SUR.jpg"",""stimuli/BM03_HO.jpg"",""stimuli/AF11_HE.jpg"",""stimuli/WF14_CC.jpg""]","stimuli/WM07_SUR.jpg","stimuli/BM03_HO.jpg","stimuli/AF11_HE.jpg","stimuli/WF14_CC.jpg","pos4","stimuli/WF14_CC.jpg","CC","WF14","3","1","2","2","stimuli/stars_2.png","4","[""SUR"",""HO"",""HE"",""CC""]","[""WM07"",""BM03"",""AF11"",""WF14""]","[4,5,10,2]","[4,6,8,2]","","",""
"show-reward","10","43109","0.0-10.0","p730283","A38ZLNCTSUGW7","3S1L4CQSFYBD9IN1W8PCJQ1H8N7AFE","3YHH42UU5DL6VHX9GJ0IEHPDF8A0L0","emotion","match","uniform","","","","","","","","42831","44842.40000000596","","","","","","","","","","","","2","","stimuli/stars_2.png","4","","","","","stimuli/WF14_CC.jpg","",""
"explore-choice","11","44885","0.0-11.0","p730283","A38ZLNCTSUGW7","3S1L4CQSFYBD9IN1W8PCJQ1H8N7AFE","3YHH42UU5DL6VHX9GJ0IEHPDF8A0L0","emotion","match","uniform","","","","","","","1264.699999988079","44843.09999999404","46107.79999998212","[""stimuli/WM07_HO.jpg"",""stimuli/AF11_CC.jpg"",""stimuli/BM03_HE.jpg"",""stimuli/WF14_SUR.jpg""]","stimuli/WM07_HO.jpg","stimuli/AF11_CC.jpg","stimuli/BM03_HE.jpg","stimuli/WF14_SUR.jpg","pos4","stimuli/WF14_SUR.jpg","SUR","WF14","3","2.5","5","4","stimuli/stars_5.png","6.5","[""HO"",""CC"",""HE"",""SUR""]","[""WM07"",""AF11"",""BM03"",""WF14""]","[5,1,9,5]","[6,2,8,4]","","",""
"show-reward","12","46897","0.0-12.0","p730283","A38ZLNCTSUGW7","3S1L4CQSFYBD9IN1W8PCJQ1H8N7AFE","3YHH42UU5DL6VHX9GJ0IEHPDF8A0L0","emotion","match","uniform","","","","","","","","46618.29999998212","48630.09999999404","","","","","","","","","","","","5","","stimuli/stars_5.png","6.5","","","","","stimuli/WF14_SUR.jpg","",""
"explore-choice","13","50676","0.0-13.0","p730283","A38ZLNCTSUGW7","3S1L4CQSFYBD9IN1W8PCJQ1H8N7AFE","3YHH42UU5DL6VHX9GJ0IEHPDF8A0L0","emotion","match","uniform","","","","","","","3269.0999999940395","48630.59999999404","51899.69999998808","[""stimuli/BM03_CC.jpg"",""stimuli/AF11_HE.jpg"",""stimuli/WM07_SUR.jpg"",""stimuli/WF14_HO.jpg""]","stimuli/BM03_CC.jpg","stimuli/AF11_HE.jpg","stimuli/WM07_SUR.jpg","stimuli/WF14_HO.jpg","pos3","stimuli/WM07_SUR.jpg","SUR","WM07","2","1","2","4","stimuli/stars_2.png","7.5","[""CC"",""HE"",""SUR"",""HO""]","[""BM03"",""AF11"",""WM07"",""WF14""]","[0,10,2,4]","[2,8,4,6]","","",""
"show-reward","14","52689","0.0-14.0","p730283","A38ZLNCTSUGW7","3S1L4CQSFYBD9IN1W8PCJQ1H8N7AFE","3YHH42UU5DL6VHX9GJ0IEHPDF8A0L0","emotion","match","uniform","","","","","","","","52410.40000000596","54422.29999998212","","","","","","","","","","","","2","","stimuli/stars_2.png","7.5","","","","","stimuli/WM07_SUR.jpg","",""
"explore-choice","15","54664","0.0-15.0","p730283","A38ZLNCTSUGW7","3S1L4CQSFYBD9IN1W8PCJQ1H8N7AFE","3YHH42UU5DL6VHX9GJ0IEHPDF8A0L0","emotion","match","uniform","","","","","","","1461.6000000238419","54423.29999998212","55884.90000000596","[""stimuli/AF11_CC.jpg"",""stimuli/BM03_HO.jpg"",""stimuli/WF14_SUR.jpg"",""stimuli/WM07_HE.jpg""]","stimuli/AF11_CC.jpg","stimuli/BM03_HO.jpg","stimuli/WF14_SUR.jpg","stimuli/WM07_HE.jpg","pos3","stimuli/WF14_SUR.jpg","SUR","WF14","2","2.5","5","4","stimuli/stars_5.png","10","[""CC"",""HO"",""SUR"",""HE""]","[""AF11"",""BM03"",""WF14"",""WM07""]","[3,4,5,7]","[2,6,4,8]","","",""
"show-reward","16","56672","0.0-16.0","p730283","A38ZLNCTSUGW7","3S1L4CQSFYBD9IN1W8PCJQ1H8N7AFE","3YHH42UU5DL6VHX9GJ0IEHPDF8A0L0","emotion","match","uniform","","","","","","","","56398.40000000596","58405","","","","","","","","","","","","5","","stimuli/stars_5.png","10","","","","","stimuli/WF14_SUR.jpg","",""
"explore-choice","17","58468","0.0-17.0","p730283","A38ZLNCTSUGW7","3S1L4CQSFYBD9IN1W8PCJQ1H8N7AFE","3YHH42UU5DL6VHX9GJ0IEHPDF8A0L0","emotion","match","uniform","","","","","","","1293.1000000238419","58405.79999998212","59698.90000000596","[""stimuli/WM07_HO.jpg"",""stimuli/AF11_HE.jpg"",""stimuli/BM03_SUR.jpg"",""stimuli/WF14_CC.jpg""]","stimuli/WM07_HO.jpg","stimuli/AF11_HE.jpg","stimuli/BM03_SUR.jpg","stimuli/WF14_CC.jpg","pos2","stimuli/AF11_HE.jpg","HE","AF11","1","5","10","8","stimuli/stars_10.png","15","[""HO"",""HE"",""SUR"",""CC""]","[""WM07"",""AF11"",""BM03"",""WF14""]","[8,10,6,4]","[6,8,4,2]","","",""
"show-reward","18","60482","0.0-18.0","p730283","A38ZLNCTSUGW7","3S1L4CQSFYBD9IN1W8PCJQ1H8N7AFE","3YHH42UU5DL6VHX9GJ0IEHPDF8A0L0","emotion","match","uniform","","","","","","","","60201.90000000596","62215","","","","","","","","","","","","10","","stimuli/stars_10.png","15","","","","","stimuli/AF11_HE.jpg","",""
"explore-choice","19","62382","0.0-19.0","p730283","A38ZLNCTSUGW7","3S1L4CQSFYBD9IN1W8PCJQ1H8N7AFE","3YHH42UU5DL6VHX9GJ0IEHPDF8A0L0","emotion","match","uniform","","","","","","","1387.5","62215.79999998212","63603.29999998212","[""stimuli/BM03_SUR.jpg"",""stimuli/WF14_HO.jpg"",""stimuli/AF11_CC.jpg"",""stimuli/WM07_HE.jpg""]","stimuli/BM03_SUR.jpg","stimuli/WF14_HO.jpg","stimuli/AF11_CC.jpg","stimuli/WM07_HE.jpg","pos2","stimuli/WF14_HO.jpg","HO","WF14","1","3.5","7","6","stimuli/stars_7.png","18.5","[""SUR"",""HO"",""CC"",""HE""]","[""BM03"",""WF14"",""AF11"",""WM07""]","[5,7,1,6]","[4,6,2,8]","","",""
"show-reward","20","64385","0.0-20.0","p730283","A38ZLNCTSUGW7","3S1L4CQSFYBD9IN1W8PCJQ1H8N7AFE","3YHH42UU5DL6VHX9GJ0IEHPDF8A0L0","emotion","match","uniform","","","","","","","","64116.29999998212","66117.90000000596","","","","","","","","","","","","7","","stimuli/stars_7.png","18.5","","","","","stimuli/WF14_HO.jpg","",""
"explore-choice","21","66592","0.0-21.0","p730283","A38ZLNCTSUGW7","3S1L4CQSFYBD9IN1W8PCJQ1H8N7AFE","3YHH42UU5DL6VHX9GJ0IEHPDF8A0L0","emotion","match","uniform","","","","","","","1701.5","66118.40000000596","67819.90000000596","[""stimuli/WM07_CC.jpg"",""stimuli/WF14_SUR.jpg"",""stimuli/AF11_HE.jpg"",""stimuli/BM03_HO.jpg""]","stimuli/WM07_CC.jpg","stimuli/WF14_SUR.jpg","stimuli/AF11_HE.jpg","stimuli/BM03_HO.jpg","pos3","stimuli/AF11_HE.jpg","HE","AF11","2","5","10","8","stimuli/stars_10.png","23.5","[""CC"",""SUR"",""HE"",""HO""]","[""WM07"",""WF14"",""AF11"",""BM03""]","[3,3,10,5]","[2,4,8,6]","","",""
"show-reward","22","68609","0.0-22.0","p730283","A38ZLNCTSUGW7","3S1L4CQSFYBD9IN1W8PCJQ1H8N7AFE","3YHH42UU5DL6VHX9GJ0IEHPDF8A0L0","emotion","match","uniform","","","","","","","","68325.90000000596","70342.19999998808","","","","","","","","","","","","10","","stimuli/stars_10.png","23.5","","","","","stimuli/AF11_HE.jpg","",""
"explore-choice","23","73376","0.0-23.0","p730283","A38ZLNCTSUGW7","3S1L4CQSFYBD9IN1W8PCJQ1H8N7AFE","3YHH42UU5DL6VHX9GJ0IEHPDF8A0L0","emotion","match","uniform","","","","","","","4253.699999988079","70343","74596.69999998808","[""stimuli/AF11_HO.jpg"",""stimuli/WM07_HE.jpg"",""stimuli/BM03_CC.jpg"",""stimuli/WF14_SUR.jpg""]","stimuli/AF11_HO.jpg","stimuli/WM07_HE.jpg","stimuli/BM03_CC.jpg","stimuli/WF14_SUR.jpg","pos1","stimuli/AF11_HO.jpg","HO","AF11","0","3.5","7","6","stimuli/stars_7.png","27","[""HO"",""HE"",""CC"",""SUR""]","[""AF11"",""WM07"",""BM03"",""WF14""]","[7,8,3,3]","[6,8,2,4]","","",""
"show-reward","24","75383","0.0-24.0","p730283","A38ZLNCTSUGW7","3S1L4CQSFYBD9IN1W8PCJQ1H8N7AFE","3YHH42UU5DL6VHX9GJ0IEHPDF8A0L0","emotion","match","uniform","","","","","","","","75109.90000000596","77116.09999999404","","","","","","","","","","","","7","","stimuli/stars_7.png","27","","","","","stimuli/AF11_HO.jpg","",""
"explore-choice","25","79882","0.0-25.0","p730283","A38ZLNCTSUGW7","3S1L4CQSFYBD9IN1W8PCJQ1H8N7AFE","3YHH42UU5DL6VHX9GJ0IEHPDF8A0L0","emotion","match","uniform","","","","","","","3986.300000011921","77116.69999998808","81103","[""stimuli/BM03_CC.jpg"",""stimuli/AF11_SUR.jpg"",""stimuli/WF14_HO.jpg"",""stimuli/WM07_HE.jpg""]","stimuli/BM03_CC.jpg","stimuli/AF11_SUR.jpg","stimuli/WF14_HO.jpg","stimuli/WM07_HE.jpg","pos2","stimuli/AF11_SUR.jpg","SUR","AF11","1","2.5","5","4","stimuli/stars_5.png","29.5","[""CC"",""SUR"",""HO"",""HE""]","[""BM03"",""AF11"",""WF14"",""WM07""]","[0,5,7,10]","[2,4,6,8]","","",""
"show-reward","26","81889","0.0-26.0","p730283","A38ZLNCTSUGW7","3S1L4CQSFYBD9IN1W8PCJQ1H8N7AFE","3YHH42UU5DL6VHX9GJ0IEHPDF8A0L0","emotion","match","uniform","","","","","","","","81615.90000000596","83622.19999998808","","","","","","","","","","","","5","","stimuli/stars_5.png","29.5","","","","","stimuli/AF11_SUR.jpg","",""
"explore-choice","27","83575","0.0-27.0","p730283","A38ZLNCTSUGW7","3S1L4CQSFYBD9IN1W8PCJQ1H8N7AFE","3YHH42UU5DL6VHX9GJ0IEHPDF8A0L0","emotion","match","uniform","","","","","","","1177.1000000238419","83622.79999998212","84799.90000000596","[""stimuli/WM07_SUR.jpg"",""stimuli/BM03_HE.jpg"",""stimuli/AF11_HO.jpg"",""stimuli/WF14_CC.jpg""]","stimuli/WM07_SUR.jpg","stimuli/BM03_HE.jpg","stimuli/AF11_HO.jpg","stimuli/WF14_CC.jpg","pos3","stimuli/AF11_HO.jpg","HO","AF11","2","2","4","6","stimuli/stars_4.png","31.5","[""SUR"",""HE"",""HO"",""CC""]","[""WM07"",""BM03"",""AF11"",""WF14""]","[3,10,4,1]","[4,8,6,2]","","",""
"show-reward","28","85591","0.0-28.0","p730283","A38ZLNCTSUGW7","3S1L4CQSFYBD9IN1W8PCJQ1H8N7AFE","3YHH42UU5DL6VHX9GJ0IEHPDF8A0L0","emotion","match","uniform","","","","","","","","85309.19999998808","87324.40000000596","","","","","","","","","","","","4","","stimuli/stars_4.png","31.5","","","","","stimuli/AF11_HO.jpg","",""
"explore-choice","29","87601","0.0-29.0","p730283","A38ZLNCTSUGW7","3S1L4CQSFYBD9IN1W8PCJQ1H8N7AFE","3YHH42UU5DL6VHX9GJ0IEHPDF8A0L0","emotion","match","uniform","","","","","","","1493.9000000059605","87325","88818.90000000596","[""stimuli/BM03_SUR.jpg"",""stimuli/AF11_HO.jpg"",""stimuli/WM07_HE.jpg"",""stimuli/WF14_CC.jpg""]","stimuli/BM03_SUR.jpg","stimuli/AF11_HO.jpg","stimuli/WM07_HE.jpg","stimuli/WF14_CC.jpg","pos2","stimuli/AF11_HO.jpg","HO","AF11","1","3","6","6","stimuli/stars_6.png","34.5","[""SUR"",""HO"",""HE"",""CC""]","[""BM03"",""AF11"",""WM07"",""WF14""]","[2,6,7,4]","[4,6,8,2]","","",""
"show-reward","30","89608","0.0-30.0","p730283","A38ZLNCTSUGW7","3S1L4CQSFYBD9IN1W8PCJQ1H8N7AFE","3YHH42UU5DL6VHX9GJ0IEHPDF8A0L0","emotion","match","uniform","","","","","","","","89335.09999999404","91341.40000000596","","","","","","","","","","","","6","","stimuli/stars_6.png","34.5","","","","","stimuli/AF11_HO.jpg","",""
"explore-choice","31","91336","0.0-31.0","p730283","A38ZLNCTSUGW7","3S1L4CQSFYBD9IN1W8PCJQ1H8N7AFE","3YHH42UU5DL6VHX9GJ0IEHPDF8A0L0","emotion","match","uniform","","","","","","","1213.800000011921","91342.09999999404","92555.90000000596","[""stimuli/AF11_HE.jpg"",""stimuli/BM03_SUR.jpg"",""stimuli/WM07_CC.jpg"",""stimuli/WF14_HO.jpg""]","stimuli/AF11_HE.jpg","stimuli/BM03_SUR.jpg","stimuli/WM07_CC.jpg","stimuli/WF14_HO.jpg","pos1","stimuli/AF11_HE.jpg","HE","AF11","0","3","6","8","stimuli/stars_6.png","37.5","[""HE"",""SUR"",""CC"",""HO""]","[""AF11"",""BM03"",""WM07"",""WF14""]","[6,5,3,6]","[8,4,2,6]","","",""
"show-reward","32","93339","0.0-32.0","p730283","A38ZLNCTSUGW7","3S1L4CQSFYBD9IN1W8PCJQ1H8N7AFE","3YHH42UU5DL6VHX9GJ0IEHPDF8A0L0","emotion","match","uniform","","","","","","","","93069.59999999404","95072.5","","","","","","","","","","","","6","","stimuli/stars_6.png","37.5","","","","","stimuli/AF11_HE.jpg","",""
"explore-choice","33","95124","0.0-33.0","p730283","A38ZLNCTSUGW7","3S1L4CQSFYBD9IN1W8PCJQ1H8N7AFE","3YHH42UU5DL6VHX9GJ0IEHPDF8A0L0","emotion","match","uniform","","","","","","","1273.5","95073.19999998808","96346.69999998808","[""stimuli/BM03_HO.jpg"",""stimuli/WM07_CC.jpg"",""stimuli/WF14_HE.jpg"",""stimuli/AF11_SUR.jpg""]","stimuli/BM03_HO.jpg","stimuli/WM07_CC.jpg","stimuli/WF14_HE.jpg","stimuli/AF11_SUR.jpg","pos3","stimuli/WF14_HE.jpg","HE","WF14","2","4.5","9","8","stimuli/stars_9.png","42","[""HO"",""CC"",""HE"",""SUR""]","[""BM03"",""WM07"",""WF14"",""AF11""]","[6,3,9,3]","[6,2,8,4]","","",""
"show-reward","34","97137","0.0-34.0","p730283","A38ZLNCTSUGW7","3S1L4CQSFYBD9IN1W8PCJQ1H8N7AFE","3YHH42UU5DL6VHX9GJ0IEHPDF8A0L0","emotion","match","uniform","","","","","","","","96857.69999998808","98870.69999998808","","","","","","","","","","","","9","","stimuli/stars_9.png","42","","","","","stimuli/WF14_HE.jpg","",""
"explore-choice","35","100269","0.0-35.0","p730283","A38ZLNCTSUGW7","3S1L4CQSFYBD9IN1W8PCJQ1H8N7AFE","3YHH42UU5DL6VHX9GJ0IEHPDF8A0L0","emotion","match","uniform","","","","","","","2626.600000023842","98871.29999998212","101497.90000000596","[""stimuli/AF11_SUR.jpg"",""stimuli/WF14_HO.jpg"",""stimuli/BM03_HE.jpg"",""stimuli/WM07_CC.jpg""]","stimuli/AF11_SUR.jpg","stimuli/WF14_HO.jpg","stimuli/BM03_HE.jpg","stimuli/WM07_CC.jpg","pos2","stimuli/WF14_HO.jpg","HO","WF14","1","2","4","6","stimuli/stars_4.png","44","[""SUR"",""HO"",""HE"",""CC""]","[""AF11"",""WF14"",""BM03"",""WM07""]","[5,4,8,0]","[4,6,8,2]","","",""
"show-reward","36","102279","0.0-36.0","p730283","A38ZLNCTSUGW7","3S1L4CQSFYBD9IN1W8PCJQ1H8N7AFE","3YHH42UU5DL6VHX9GJ0IEHPDF8A0L0","emotion","match","uniform","","","","","","","","102003.19999998808","104012.19999998808","","","","","","","","","","","","4","","stimuli/stars_4.png","44","","","","","stimuli/WF14_HO.jpg","",""
"explore-choice","37","104032","0.0-37.0","p730283","A38ZLNCTSUGW7","3S1L4CQSFYBD9IN1W8PCJQ1H8N7AFE","3YHH42UU5DL6VHX9GJ0IEHPDF8A0L0","emotion","match","uniform","","","","","","","1247.2000000178814","104012.79999998212","105260","[""stimuli/WF14_HE.jpg"",""stimuli/BM03_SUR.jpg"",""stimuli/WM07_HO.jpg"",""stimuli/AF11_CC.jpg""]","stimuli/WF14_HE.jpg","stimuli/BM03_SUR.jpg","stimuli/WM07_HO.jpg","stimuli/AF11_CC.jpg","pos1","stimuli/WF14_HE.jpg","HE","WF14","0","4","8","8","stimuli/stars_8.png","48","[""HE"",""SUR"",""HO"",""CC""]","[""WF14"",""BM03"",""WM07"",""AF11""]","[8,3,7,1]","[8,4,6,2]","","",""
"show-reward","38","106036","0.0-38.0","p730283","A38ZLNCTSUGW7","3S1L4CQSFYBD9IN1W8PCJQ1H8N7AFE","3YHH42UU5DL6VHX9GJ0IEHPDF8A0L0","emotion","match","uniform","","","","","","","","105765.69999998808","107769","","","","","","","","","","","","8","","stimuli/stars_8.png","48","","","","","stimuli/WF14_HE.jpg","",""
"explore-choice","39","108327","0.0-39.0","p730283","A38ZLNCTSUGW7","3S1L4CQSFYBD9IN1W8PCJQ1H8N7AFE","3YHH42UU5DL6VHX9GJ0IEHPDF8A0L0","emotion","match","uniform","","","","","","","1786.0999999940395","107769.59999999404","109555.69999998808","[""stimuli/WF14_HE.jpg"",""stimuli/BM03_SUR.jpg"",""stimuli/AF11_HO.jpg"",""stimuli/WM07_CC.jpg""]","stimuli/WF14_HE.jpg","stimuli/BM03_SUR.jpg","stimuli/AF11_HO.jpg","stimuli/WM07_CC.jpg","pos2","stimuli/BM03_SUR.jpg","SUR","BM03","1","1.5","3","4","stimuli/stars_3.png","49.5","[""HE"",""SUR"",""HO"",""CC""]","[""WF14"",""BM03"",""AF11"",""WM07""]","[10,3,6,2]","[8,4,6,2]","","",""
"show-reward","40","110336","0.0-40.0","p730283","A38ZLNCTSUGW7","3S1L4CQSFYBD9IN1W8PCJQ1H8N7AFE","3YHH42UU5DL6VHX9GJ0IEHPDF8A0L0","emotion","match","uniform","","","","","","","","110060.19999998808","112068.69999998808","","","","","","","","","","","","3","","stimuli/stars_3.png","49.5","","","","","stimuli/BM03_SUR.jpg","",""
"explore-choice","41","114688","0.0-41.0","p730283","A38ZLNCTSUGW7","3S1L4CQSFYBD9IN1W8PCJQ1H8N7AFE","3YHH42UU5DL6VHX9GJ0IEHPDF8A0L0","emotion","match","uniform","","","","","","","3838.100000023842","112069.29999998212","115907.40000000596","[""stimuli/AF11_SUR.jpg"",""stimuli/WF14_CC.jpg"",""stimuli/BM03_HO.jpg"",""stimuli/WM07_HE.jpg""]","stimuli/AF11_SUR.jpg","stimuli/WF14_CC.jpg","stimuli/BM03_HO.jpg","stimuli/WM07_HE.jpg","pos1","stimuli/AF11_SUR.jpg","SUR","AF11","0","1.5","3","4","stimuli/stars_3.png","51","[""SUR"",""CC"",""HO"",""HE""]","[""AF11"",""WF14"",""BM03"",""WM07""]","[3,4,5,8]","[4,2,6,8]","","",""
"show-reward","42","116697","0.0-42.0","p730283","A38ZLNCTSUGW7","3S1L4CQSFYBD9IN1W8PCJQ1H8N7AFE","3YHH42UU5DL6VHX9GJ0IEHPDF8A0L0","emotion","match","uniform","","","","","","","","116421.5","118430.19999998808","","","","","","","","","","","","3","","stimuli/stars_3.png","51","","","","","stimuli/AF11_SUR.jpg","",""
"explore-choice","43","121013","0.0-43.0","p730283","A38ZLNCTSUGW7","3S1L4CQSFYBD9IN1W8PCJQ1H8N7AFE","3YHH42UU5DL6VHX9GJ0IEHPDF8A0L0","emotion","match","uniform","","","","","","","3805.0999999940395","118430.90000000596","122236","[""stimuli/AF11_SUR.jpg"",""stimuli/BM03_HE.jpg"",""stimuli/WF14_CC.jpg"",""stimuli/WM07_HO.jpg""]","stimuli/AF11_SUR.jpg","stimuli/BM03_HE.jpg","stimuli/WF14_CC.jpg","stimuli/WM07_HO.jpg","pos2","stimuli/BM03_HE.jpg","HE","BM03","1","3","6","8","stimuli/stars_6.png","54","[""SUR"",""HE"",""CC"",""HO""]","[""AF11"",""BM03"",""WF14"",""WM07""]","[6,6,3,8]","[4,8,2,6]","","",""
"show-reward","44","123016","0.0-44.0","p730283","A38ZLNCTSUGW7","3S1L4CQSFYBD9IN1W8PCJQ1H8N7AFE","3YHH42UU5DL6VHX9GJ0IEHPDF8A0L0","emotion","match","uniform","","","","","","","","122746.5","124749.29999998212","","","","","","","","","","","","6","","stimuli/stars_6.png","54","","","","","stimuli/BM03_HE.jpg","",""
"explore-choice","45","124993","0.0-45.0","p730283","A38ZLNCTSUGW7","3S1L4CQSFYBD9IN1W8PCJQ1H8N7AFE","3YHH42UU5DL6VHX9GJ0IEHPDF8A0L0","emotion","match","uniform","","","","","","","1463.8999999761581","124749.90000000596","126213.79999998212","[""stimuli/BM03_CC.jpg"",""stimuli/AF11_HO.jpg"",""stimuli/WM07_SUR.jpg"",""stimuli/WF14_HE.jpg""]","stimuli/BM03_CC.jpg","stimuli/AF11_HO.jpg","stimuli/WM07_SUR.jpg","stimuli/WF14_HE.jpg","pos4","stimuli/WF14_HE.jpg","HE","WF14","3","4","8","8","stimuli/stars_8.png","58","[""CC"",""HO"",""SUR"",""HE""]","[""BM03"",""AF11"",""WM07"",""WF14""]","[1,5,6,8]","[2,6,4,8]","","",""
"show-reward","46","127004","0.0-46.0","p730283","A38ZLNCTSUGW7","3S1L4CQSFYBD9IN1W8PCJQ1H8N7AFE","3YHH42UU5DL6VHX9GJ0IEHPDF8A0L0","emotion","match","uniform","","","","","","","","126726.40000000596","128736.5","","","","","","","","","","","","8","","stimuli/stars_8.png","58","","","","","stimuli/WF14_HE.jpg","",""
"explore-choice","47","128826","0.0-47.0","p730283","A38ZLNCTSUGW7","3S1L4CQSFYBD9IN1W8PCJQ1H8N7AFE","3YHH42UU5DL6VHX9GJ0IEHPDF8A0L0","emotion","match","uniform","","","","","","","1312.4000000059605","128737.19999998808","130049.59999999404","[""stimuli/WF14_HE.jpg"",""stimuli/WM07_HO.jpg"",""stimuli/AF11_SUR.jpg"",""stimuli/BM03_CC.jpg""]","stimuli/WF14_HE.jpg","stimuli/WM07_HO.jpg","stimuli/AF11_SUR.jpg","stimuli/BM03_CC.jpg","pos1","stimuli/WF14_HE.jpg","HE","WF14","0","3","6","8","stimuli/stars_6.png","61","[""HE"",""HO"",""SUR"",""CC""]","[""WF14"",""WM07"",""AF11"",""BM03""]","[6,5,6,1]","[8,6,4,2]","","",""
"show-reward","48","130834","0.0-48.0","p730283","A38ZLNCTSUGW7","3S1L4CQSFYBD9IN1W8PCJQ1H8N7AFE","3YHH42UU5DL6VHX9GJ0IEHPDF8A0L0","emotion","match","uniform","","","","","","","","130559.69999998808","132566.69999998808","","","","","","","","","","","","6","","stimuli/stars_6.png","61","","","","","stimuli/WF14_HE.jpg","",""
"explore-choice","49","132598","0.0-49.0","p730283","A38ZLNCTSUGW7","3S1L4CQSFYBD9IN1W8PCJQ1H8N7AFE","3YHH42UU5DL6VHX9GJ0IEHPDF8A0L0","emotion","match","uniform","","","","","","","1250.800000011921","132567.19999998808","133818","[""stimuli/BM03_CC.jpg"",""stimuli/AF11_HE.jpg"",""stimuli/WF14_SUR.jpg"",""stimuli/WM07_HO.jpg""]","stimuli/BM03_CC.jpg","stimuli/AF11_HE.jpg","stimuli/WF14_SUR.jpg","stimuli/WM07_HO.jpg","pos2","stimuli/AF11_HE.jpg","HE","AF11","1","5","10","8","stimuli/stars_10.png","66","[""CC"",""HE"",""SUR"",""HO""]","[""BM03"",""AF11"",""WF14"",""WM07""]","[3,10,2,8]","[2,8,4,6]","","",""
"show-reward","50","134612","0.0-50.0","p730283","A38ZLNCTSUGW7","3S1L4CQSFYBD9IN1W8PCJQ1H8N7AFE","3YHH42UU5DL6VHX9GJ0IEHPDF8A0L0","emotion","match","uniform","","","","","","","","134331.59999999404","136344.59999999404","","","","","","","","","","","","10","","stimuli/stars_10.png","66","","","","","stimuli/AF11_HE.jpg","",""
"explore-choice","51","138837","0.0-51.0","p730283","A38ZLNCTSUGW7","3S1L4CQSFYBD9IN1W8PCJQ1H8N7AFE","3YHH42UU5DL6VHX9GJ0IEHPDF8A0L0","emotion","match","uniform","","","","","","","3723.7000000178814","136345.29999998212","140069","[""stimuli/WF14_HO.jpg"",""stimuli/WM07_SUR.jpg"",""stimuli/AF11_CC.jpg"",""stimuli/BM03_HE.jpg""]","stimuli/WF14_HO.jpg","stimuli/WM07_SUR.jpg","stimuli/AF11_CC.jpg","stimuli/BM03_HE.jpg","pos1","stimuli/WF14_HO.jpg","HO","WF14","0","2","4","6","stimuli/stars_4.png","68","[""HO"",""SUR"",""CC"",""HE""]","[""WF14"",""WM07"",""AF11"",""BM03""]","[4,3,2,8]","[6,4,2,8]","","",""
"show-reward","52","140849","0.0-52.0","p730283","A38ZLNCTSUGW7","3S1L4CQSFYBD9IN1W8PCJQ1H8N7AFE","3YHH42UU5DL6VHX9GJ0IEHPDF8A0L0","emotion","match","uniform","","","","","","","","140570.40000000596","142581.90000000596","","","","","","","","","","","","4","","stimuli/stars_4.png","68","","","","","stimuli/WF14_HO.jpg","",""
"explore-choice","53","142752","0.0-53.0","p730283","A38ZLNCTSUGW7","3S1L4CQSFYBD9IN1W8PCJQ1H8N7AFE","3YHH42UU5DL6VHX9GJ0IEHPDF8A0L0","emotion","match","uniform","","","","","","","1401.5","142582.5","143984","[""stimuli/WM07_SUR.jpg"",""stimuli/BM03_HO.jpg"",""stimuli/WF14_HE.jpg"",""stimuli/AF11_CC.jpg""]","stimuli/WM07_SUR.jpg","stimuli/BM03_HO.jpg","stimuli/WF14_HE.jpg","stimuli/AF11_CC.jpg","pos3","stimuli/WF14_HE.jpg","HE","WF14","2","5","10","8","stimuli/stars_10.png","73","[""SUR"",""HO"",""HE"",""CC""]","[""WM07"",""BM03"",""WF14"",""AF11""]","[3,7,10,2]","[4,6,8,2]","","",""
"show-reward","54","144758","0.0-54.0","p730283","A38ZLNCTSUGW7","3S1L4CQSFYBD9IN1W8PCJQ1H8N7AFE","3YHH42UU5DL6VHX9GJ0IEHPDF8A0L0","emotion","match","uniform","","","","","","","","144485.79999998212","146491.19999998808","","","","","","","","","","","","10","","stimuli/stars_10.png","73","","","","","stimuli/WF14_HE.jpg","",""
"explore-choice","55","148096","0.0-55.0","p730283","A38ZLNCTSUGW7","3S1L4CQSFYBD9IN1W8PCJQ1H8N7AFE","3YHH42UU5DL6VHX9GJ0IEHPDF8A0L0","emotion","match","uniform","","","","","","","2830.2000000178814","146491.69999998808","149321.90000000596","[""stimuli/WM07_HO.jpg"",""stimuli/AF11_CC.jpg"",""stimuli/BM03_HE.jpg"",""stimuli/WF14_SUR.jpg""]","stimuli/WM07_HO.jpg","stimuli/AF11_CC.jpg","stimuli/BM03_HE.jpg","stimuli/WF14_SUR.jpg","pos4","stimuli/WF14_SUR.jpg","SUR","WF14","3","2.5","5","4","stimuli/stars_5.png","75.5","[""HO"",""CC"",""HE"",""SUR""]","[""WM07"",""AF11"",""BM03"",""WF14""]","[5,1,9,5]","[6,2,8,4]","","",""
"show-reward","56","150107","0.0-56.0","p730283","A38ZLNCTSUGW7","3S1L4CQSFYBD9IN1W8PCJQ1H8N7AFE","3YHH42UU5DL6VHX9GJ0IEHPDF8A0L0","emotion","match","uniform","","","","","","","","149829.59999999404","151839.79999998212","","","","","","","","","","","","5","","stimuli/stars_5.png","75.5","","","","","stimuli/WF14_SUR.jpg","",""
"explore-choice","57","153602","0.0-57.0","p730283","A38ZLNCTSUGW7","3S1L4CQSFYBD9IN1W8PCJQ1H8N7AFE","3YHH42UU5DL6VHX9GJ0IEHPDF8A0L0","emotion","match","uniform","","","","","","","2992.300000011921","151840.59999999404","154832.90000000596","[""stimuli/BM03_CC.jpg"",""stimuli/WM07_HE.jpg"",""stimuli/AF11_HO.jpg"",""stimuli/WF14_SUR.jpg""]","stimuli/BM03_CC.jpg","stimuli/WM07_HE.jpg","stimuli/AF11_HO.jpg","stimuli/WF14_SUR.jpg","pos2","stimuli/WM07_HE.jpg","HE","WM07","1","4","8","8","stimuli/stars_8.png","79.5","[""CC"",""HE"",""HO"",""SUR""]","[""BM03"",""WM07"",""AF11"",""WF14""]","[3,8,7,3]","[2,8,6,4]","","",""
"show-reward","58","155604","0.0-58.0","p730283","A38ZLNCTSUGW7","3S1L4CQSFYBD9IN1W8PCJQ1H8N7AFE","3YHH42UU5DL6VHX9GJ0IEHPDF8A0L0","emotion","match","uniform","","","","","","","","155335.40000000596","157337.09999999404","","","","","","","","","","","","8","","stimuli/stars_8.png","79.5","","","","","stimuli/WM07_HE.jpg","",""
"explore-choice","59","160010","0.0-59.0","p730283","A38ZLNCTSUGW7","3S1L4CQSFYBD9IN1W8PCJQ1H8N7AFE","3YHH42UU5DL6VHX9GJ0IEHPDF8A0L0","emotion","match","uniform","","","","","","","3895.300000011921","157337.69999998808","161233","[""stimuli/WM07_CC.jpg"",""stimuli/BM03_HE.jpg"",""stimuli/WF14_SUR.jpg"",""stimuli/AF11_HO.jpg""]","stimuli/WM07_CC.jpg","stimuli/BM03_HE.jpg","stimuli/WF14_SUR.jpg","stimuli/AF11_HO.jpg","pos2","stimuli/BM03_HE.jpg","HE","BM03","1","4.5","9","8","stimuli/stars_9.png","84","[""CC"",""HE"",""SUR"",""HO""]","[""WM07"",""BM03"",""WF14"",""AF11""]","[2,9,4,4]","[2,8,4,6]","","",""
"show-reward","60","162022","0.0-60.0","p730283","A38ZLNCTSUGW7","3S1L4CQSFYBD9IN1W8PCJQ1H8N7AFE","3YHH42UU5DL6VHX9GJ0IEHPDF8A0L0","emotion","match","uniform","","","","","","","","161743.40000000596","163755.29999998212","","","","","","","","","","","","9","","stimuli/stars_9.png","84","","","","","stimuli/BM03_HE.jpg","",""
"explore-choice","61","163553","0.0-61.0","p730283","A38ZLNCTSUGW7","3S1L4CQSFYBD9IN1W8PCJQ1H8N7AFE","3YHH42UU5DL6VHX9GJ0IEHPDF8A0L0","emotion","match","uniform","","","","","","","1027.0999999940395","163755.90000000596","164783","[""stimuli/AF11_HE.jpg"",""stimuli/BM03_HO.jpg"",""stimuli/WF14_CC.jpg"",""stimuli/WM07_SUR.jpg""]","stimuli/AF11_HE.jpg","stimuli/BM03_HO.jpg","stimuli/WF14_CC.jpg","stimuli/WM07_SUR.jpg","pos1","stimuli/AF11_HE.jpg","HE","AF11","0","5","10","8","stimuli/stars_10.png","89","[""HE"",""HO"",""CC"",""SUR""]","[""AF11"",""BM03"",""WF14"",""WM07""]","[10,5,2,4]","[8,6,2,4]","","",""
"show-reward","62","165556","0.0-62.0","p730283","A38ZLNCTSUGW7","3S1L4CQSFYBD9IN1W8PCJQ1H8N7AFE","3YHH42UU5DL6VHX9GJ0IEHPDF8A0L0","emotion","match","uniform","","","","","","","","165286.40000000596","167289","","","","","","","","","","","","10","","stimuli/stars_10.png","89","","","","","stimuli/AF11_HE.jpg","",""
"explore-choice","63","167790","0.0-63.0","p730283","A38ZLNCTSUGW7","3S1L4CQSFYBD9IN1W8PCJQ1H8N7AFE","3YHH42UU5DL6VHX9GJ0IEHPDF8A0L0","emotion","match","uniform","","","","","","","1733.4000000059605","167289.59999999404","169023","[""stimuli/WM07_HO.jpg"",""stimuli/WF14_CC.jpg"",""stimuli/AF11_HE.jpg"",""stimuli/BM03_SUR.jpg""]","stimuli/WM07_HO.jpg","stimuli/WF14_CC.jpg","stimuli/AF11_HE.jpg","stimuli/BM03_SUR.jpg","pos3","stimuli/AF11_HE.jpg","HE","AF11","2","5","10","8","stimuli/stars_10.png","94","[""HO"",""CC"",""HE"",""SUR""]","[""WM07"",""WF14"",""AF11"",""BM03""]","[8,4,10,6]","[6,2,8,4]","","",""
"show-reward","64","169803","0.0-64.0","p730283","A38ZLNCTSUGW7","3S1L4CQSFYBD9IN1W8PCJQ1H8N7AFE","3YHH42UU5DL6VHX9GJ0IEHPDF8A0L0","emotion","match","uniform","","","","","","","","169524.29999998212","171535.90000000596","","","","","","","","","","","","10","","stimuli/stars_10.png","94","","","","","stimuli/AF11_HE.jpg","",""
"explore-choice","65","171674","0.0-65.0","p730283","A38ZLNCTSUGW7","3S1L4CQSFYBD9IN1W8PCJQ1H8N7AFE","3YHH42UU5DL6VHX9GJ0IEHPDF8A0L0","emotion","match","uniform","","","","","","","1359.0999999940395","171536.69999998808","172895.79999998212","[""stimuli/WM07_HE.jpg"",""stimuli/BM03_HO.jpg"",""stimuli/WF14_SUR.jpg"",""stimuli/AF11_CC.jpg""]","stimuli/WM07_HE.jpg","stimuli/BM03_HO.jpg","stimuli/WF14_SUR.jpg","stimuli/AF11_CC.jpg","pos1","stimuli/WM07_HE.jpg","HE","WM07","0","3.5","7","8","stimuli/stars_7.png","97.5","[""HE"",""HO"",""SUR"",""CC""]","[""WM07"",""BM03"",""WF14"",""AF11""]","[7,4,5,3]","[8,6,4,2]","","",""
"show-reward","66","173682","0.0-66.0","p730283","A38ZLNCTSUGW7","3S1L4CQSFYBD9IN1W8PCJQ1H8N7AFE","3YHH42UU5DL6VHX9GJ0IEHPDF8A0L0","emotion","match","uniform","","","","","","","","173407.29999998212","175415.40000000596","","","","","","","","","","","","7","","stimuli/stars_7.png","97.5","","","","","stimuli/WM07_HE.jpg","",""
"explore-choice","67","175412","0.0-67.0","p730283","A38ZLNCTSUGW7","3S1L4CQSFYBD9IN1W8PCJQ1H8N7AFE","3YHH42UU5DL6VHX9GJ0IEHPDF8A0L0","emotion","match","uniform","","","","","","","1216.5999999940395","175416.09999999404","176632.69999998808","[""stimuli/WM07_CC.jpg"",""stimuli/BM03_SUR.jpg"",""stimuli/AF11_HO.jpg"",""stimuli/WF14_HE.jpg""]","stimuli/WM07_CC.jpg","stimuli/BM03_SUR.jpg","stimuli/AF11_HO.jpg","stimuli/WF14_HE.jpg","pos4","stimuli/WF14_HE.jpg","HE","WF14","3","5","10","8","stimuli/stars_10.png","102.5","[""CC"",""SUR"",""HO"",""HE""]","[""WM07"",""BM03"",""AF11"",""WF14""]","[2,3,6,10]","[2,4,6,8]","","",""
"show-reward","68","177414","0.0-68.0","p730283","A38ZLNCTSUGW7","3S1L4CQSFYBD9IN1W8PCJQ1H8N7AFE","3YHH42UU5DL6VHX9GJ0IEHPDF8A0L0","emotion","match","uniform","","","","","","","","177145.19999998808","179147.19999998808","","","","","","","","","","","","10","","stimuli/stars_10.png","102.5","","","","","stimuli/WF14_HE.jpg","",""
"explore-choice","69","179335","0.0-69.0","p730283","A38ZLNCTSUGW7","3S1L4CQSFYBD9IN1W8PCJQ1H8N7AFE","3YHH42UU5DL6VHX9GJ0IEHPDF8A0L0","emotion","match","uniform","","","","","","","1416.0999999940395","179147.90000000596","180564","[""stimuli/BM03_SUR.jpg"",""stimuli/AF11_CC.jpg"",""stimuli/WF14_HE.jpg"",""stimuli/WM07_HO.jpg""]","stimuli/BM03_SUR.jpg","stimuli/AF11_CC.jpg","stimuli/WF14_HE.jpg","stimuli/WM07_HO.jpg","pos3","stimuli/WF14_HE.jpg","HE","WF14","2","4","8","8","stimuli/stars_8.png","106.5","[""SUR"",""CC"",""HE"",""HO""]","[""BM03"",""AF11"",""WF14"",""WM07""]","[3,1,8,7]","[4,2,8,6]","","",""
"show-reward","70","181341","0.0-70.0","p730283","A38ZLNCTSUGW7","3S1L4CQSFYBD9IN1W8PCJQ1H8N7AFE","3YHH42UU5DL6VHX9GJ0IEHPDF8A0L0","emotion","match","uniform","","","","","","","","181068.19999998808","183074.29999998212","","","","","","","","","","","","8","","stimuli/stars_8.png","106.5","","","","","stimuli/WF14_HE.jpg","",""
"explore-choice","71","182868","0.0-71.0","p730283","A38ZLNCTSUGW7","3S1L4CQSFYBD9IN1W8PCJQ1H8N7AFE","3YHH42UU5DL6VHX9GJ0IEHPDF8A0L0","emotion","match","uniform","","","","","","","1020.5999999940395","183075","184095.59999999404","[""stimuli/AF11_HE.jpg"",""stimuli/BM03_CC.jpg"",""stimuli/WM07_HO.jpg"",""stimuli/WF14_SUR.jpg""]","stimuli/AF11_HE.jpg","stimuli/BM03_CC.jpg","stimuli/WM07_HO.jpg","stimuli/WF14_SUR.jpg","pos1","stimuli/AF11_HE.jpg","HE","AF11","0","5","10","8","stimuli/stars_10.png","111.5","[""HE"",""CC"",""HO"",""SUR""]","[""AF11"",""BM03"",""WM07"",""WF14""]","[10,3,8,2]","[8,2,6,4]","","",""
"show-reward","72","184871","0.0-72.0","p730283","A38ZLNCTSUGW7","3S1L4CQSFYBD9IN1W8PCJQ1H8N7AFE","3YHH42UU5DL6VHX9GJ0IEHPDF8A0L0","emotion","match","uniform","","","","","","","","184601.5","186603.69999998808","","","","","","","","","","","","10","","stimuli/stars_10.png","111.5","","","","","stimuli/AF11_HE.jpg","",""
"explore-choice","73","186766","0.0-73.0","p730283","A38ZLNCTSUGW7","3S1L4CQSFYBD9IN1W8PCJQ1H8N7AFE","3YHH42UU5DL6VHX9GJ0IEHPDF8A0L0","emotion","match","uniform","","","","","","","1392.300000011921","186604.29999998212","187996.59999999404","[""stimuli/WF14_HO.jpg"",""stimuli/AF11_HE.jpg"",""stimuli/BM03_CC.jpg"",""stimuli/WM07_SUR.jpg""]","stimuli/WF14_HO.jpg","stimuli/AF11_HE.jpg","stimuli/BM03_CC.jpg","stimuli/WM07_SUR.jpg","pos2","stimuli/AF11_HE.jpg","HE","AF11","1","5","10","8","stimuli/stars_10.png","116.5","[""HO"",""HE"",""CC"",""SUR""]","[""WF14"",""AF11"",""BM03"",""WM07""]","[4,10,0,2]","[6,8,2,4]","","",""
"show-reward","74","188768","0.0-74.0","p730283","A38ZLNCTSUGW7","3S1L4CQSFYBD9IN1W8PCJQ1H8N7AFE","3YHH42UU5DL6VHX9GJ0IEHPDF8A0L0","emotion","match","uniform","","","","","","","","188499.29999998212","190501.29999998212","","","","","","","","","","","","10","","stimuli/stars_10.png","116.5","","","","","stimuli/AF11_HE.jpg","",""
"explore-choice","75","190680","0.0-75.0","p730283","A38ZLNCTSUGW7","3S1L4CQSFYBD9IN1W8PCJQ1H8N7AFE","3YHH42UU5DL6VHX9GJ0IEHPDF8A0L0","emotion","match","uniform","","","","","","","1401.8999999761581","190501.90000000596","191903.79999998212","[""stimuli/WM07_HO.jpg"",""stimuli/AF11_SUR.jpg"",""stimuli/WF14_HE.jpg"",""stimuli/BM03_CC.jpg""]","stimuli/WM07_HO.jpg","stimuli/AF11_SUR.jpg","stimuli/WF14_HE.jpg","stimuli/BM03_CC.jpg","pos3","stimuli/WF14_HE.jpg","HE","WF14","2","3","6","8","stimuli/stars_6.png","119.5","[""HO"",""SUR"",""HE"",""CC""]","[""WM07"",""AF11"",""WF14"",""BM03""]","[5,6,6,1]","[6,4,8,2]","","",""
"show-reward","76","192692","0.0-76.0","p730283","A38ZLNCTSUGW7","3S1L4CQSFYBD9IN1W8PCJQ1H8N7AFE","3YHH42UU5DL6VHX9GJ0IEHPDF8A0L0","emotion","match","uniform","","","","","","","","192413.5","194425.19999998808","","","","","","","","","","","","6","","stimuli/stars_6.png","119.5","","","","","stimuli/WF14_HE.jpg","",""
"explore-choice","77","196463","0.0-77.0","p730283","A38ZLNCTSUGW7","3S1L4CQSFYBD9IN1W8PCJQ1H8N7AFE","3YHH42UU5DL6VHX9GJ0IEHPDF8A0L0","emotion","match","uniform","","","","","","","3257.0999999940395","194425.90000000596","197683","[""stimuli/WF14_CC.jpg"",""stimuli/AF11_SUR.jpg"",""stimuli/WM07_HO.jpg"",""stimuli/BM03_HE.jpg""]","stimuli/WF14_CC.jpg","stimuli/AF11_SUR.jpg","stimuli/WM07_HO.jpg","stimuli/BM03_HE.jpg","pos4","stimuli/BM03_HE.jpg","HE","BM03","3","3","6","8","stimuli/stars_6.png","122.5","[""CC"",""SUR"",""HO"",""HE""]","[""WF14"",""AF11"",""WM07"",""BM03""]","[3,6,8,6]","[2,4,6,8]","","",""
"show-reward","78","198472","0.0-78.0","p730283","A38ZLNCTSUGW7","3S1L4CQSFYBD9IN1W8PCJQ1H8N7AFE","3YHH42UU5DL6VHX9GJ0IEHPDF8A0L0","emotion","match","uniform","","","","","","","","198197.29999998212","200205.09999999404","","","","","","","","","","","","6","","stimuli/stars_6.png","122.5","","","","","stimuli/BM03_HE.jpg","",""
"explore-choice","79","200076","0.0-79.0","p730283","A38ZLNCTSUGW7","3S1L4CQSFYBD9IN1W8PCJQ1H8N7AFE","3YHH42UU5DL6VHX9GJ0IEHPDF8A0L0","emotion","match","uniform","","","","","","","1097.2000000178814","200205.79999998212","201303","[""stimuli/WM07_CC.jpg"",""stimuli/AF11_HE.jpg"",""stimuli/BM03_HO.jpg"",""stimuli/WF14_SUR.jpg""]","stimuli/WM07_CC.jpg","stimuli/AF11_HE.jpg","stimuli/BM03_HO.jpg","stimuli/WF14_SUR.jpg","pos2","stimuli/AF11_HE.jpg","HE","AF11","1","5","10","8","stimuli/stars_10.png","127.5","[""CC"",""HE"",""HO"",""SUR""]","[""WM07"",""AF11"",""BM03"",""WF14""]","[3,10,5,3]","[2,8,6,4]","","",""
"show-reward","80","202088","0.0-80.0","p730283","A38ZLNCTSUGW7","3S1L4CQSFYBD9IN1W8PCJQ1H8N7AFE","3YHH42UU5DL6VHX9GJ0IEHPDF8A0L0","emotion","match","uniform","","","","","","","","201809.69999998808","203821.19999998808","","","","","","","","","","","","10","","stimuli/stars_10.png","127.5","","","","","stimuli/AF11_HE.jpg","",""
"explore-choice","81","207654","0.0-81.0","p730283","A38ZLNCTSUGW7","3S1L4CQSFYBD9IN1W8PCJQ1H8N7AFE","3YHH42UU5DL6VHX9GJ0IEHPDF8A0L0","emotion","match","uniform","","","","","","","5062","203821.90000000596","208883.90000000596","[""stimuli/AF11_HO.jpg"",""stimuli/BM03_SUR.jpg"",""stimuli/WF14_CC.jpg"",""stimuli/WM07_HE.jpg""]","stimuli/AF11_HO.jpg","stimuli/BM03_SUR.jpg","stimuli/WF14_CC.jpg","stimuli/WM07_HE.jpg","pos4","stimuli/WM07_HE.jpg","HE","WM07","3","3.5","7","8","stimuli/stars_7.png","131","[""HO"",""SUR"",""CC"",""HE""]","[""AF11"",""BM03"",""WF14"",""WM07""]","[6,2,4,7]","[6,4,2,8]","","",""
"show-reward","82","209668","0.0-82.0","p730283","A38ZLNCTSUGW7","3S1L4CQSFYBD9IN1W8PCJQ1H8N7AFE","3YHH42UU5DL6VHX9GJ0IEHPDF8A0L0","emotion","match","uniform","","","","","","","","209388.09999999404","211401","","","","","","","","","","","","7","","stimuli/stars_7.png","131","","","","","stimuli/WM07_HE.jpg","",""
"explore-choice","83","212865","0.0-83.0","p730283","A38ZLNCTSUGW7","3S1L4CQSFYBD9IN1W8PCJQ1H8N7AFE","3YHH42UU5DL6VHX9GJ0IEHPDF8A0L0","emotion","match","uniform","","","","","","","2681","211401.59999999404","214082.59999999404","[""stimuli/WF14_CC.jpg"",""stimuli/BM03_HE.jpg"",""stimuli/WM07_SUR.jpg"",""stimuli/AF11_HO.jpg""]","stimuli/WF14_CC.jpg","stimuli/BM03_HE.jpg","stimuli/WM07_SUR.jpg","stimuli/AF11_HO.jpg","pos2","stimuli/BM03_HE.jpg","HE","BM03","1","5","10","8","stimuli/stars_10.png","136","[""CC"",""HE"",""SUR"",""HO""]","[""WF14"",""BM03"",""WM07"",""AF11""]","[1,10,3,4]","[2,8,4,6]","","",""
"show-reward","84","214875","0.0-84.0","p730283","A38ZLNCTSUGW7","3S1L4CQSFYBD9IN1W8PCJQ1H8N7AFE","3YHH42UU5DL6VHX9GJ0IEHPDF8A0L0","emotion","match","uniform","","","","","","","","214598.5","216607.79999998212","","","","","","","","","","","","10","","stimuli/stars_10.png","136","","","","","stimuli/BM03_HE.jpg","",""
"explore-choice","85","219136","0.0-85.0","p730283","A38ZLNCTSUGW7","3S1L4CQSFYBD9IN1W8PCJQ1H8N7AFE","3YHH42UU5DL6VHX9GJ0IEHPDF8A0L0","emotion","match","uniform","","","","","","","3745.2999999821186","216608.5","220353.79999998212","[""stimuli/WF14_HO.jpg"",""stimuli/AF11_CC.jpg"",""stimuli/WM07_SUR.jpg"",""stimuli/BM03_HE.jpg""]","stimuli/WF14_HO.jpg","stimuli/AF11_CC.jpg","stimuli/WM07_SUR.jpg","stimuli/BM03_HE.jpg","pos4","stimuli/BM03_HE.jpg","HE","BM03","3","4","8","8","stimuli/stars_8.png","140","[""HO"",""CC"",""SUR"",""HE""]","[""WF14"",""AF11"",""WM07"",""BM03""]","[4,2,3,8]","[6,2,4,8]","","",""
"show-reward","86","221143","0.0-86.0","p730283","A38ZLNCTSUGW7","3S1L4CQSFYBD9IN1W8PCJQ1H8N7AFE","3YHH42UU5DL6VHX9GJ0IEHPDF8A0L0","emotion","match","uniform","","","","","","","","220869.79999998212","222875.90000000596","","","","","","","","","","","","8","","stimuli/stars_8.png","140","","","","","stimuli/BM03_HE.jpg","",""
"explore-choice","87","225526","0.0-87.0","p730283","A38ZLNCTSUGW7","3S1L4CQSFYBD9IN1W8PCJQ1H8N7AFE","3YHH42UU5DL6VHX9GJ0IEHPDF8A0L0","emotion","match","uniform","","","","","","","3879.2000000178814","222876.69999998808","226755.90000000596","[""stimuli/BM03_SUR.jpg"",""stimuli/WM07_HE.jpg"",""stimuli/WF14_HO.jpg"",""stimuli/AF11_CC.jpg""]","stimuli/BM03_SUR.jpg","stimuli/WM07_HE.jpg","stimuli/WF14_HO.jpg","stimuli/AF11_CC.jpg","pos2","stimuli/WM07_HE.jpg","HE","WM07","1","3","6","8","stimuli/stars_6.png","143","[""SUR"",""HE"",""HO"",""CC""]","[""BM03"",""WM07"",""WF14"",""AF11""]","[5,6,7,1]","[4,8,6,2]","","",""
"show-reward","88","227543","0.0-88.0","p730283","A38ZLNCTSUGW7","3S1L4CQSFYBD9IN1W8PCJQ1H8N7AFE","3YHH42UU5DL6VHX9GJ0IEHPDF8A0L0","emotion","match","uniform","","","","","","","","227259.79999998212","229276.09999999404","","","","","","","","","","","","6","","stimuli/stars_6.png","143","","","","","stimuli/WM07_HE.jpg","",""
"explore-choice","89","230025","0.0-89.0","p730283","A38ZLNCTSUGW7","3S1L4CQSFYBD9IN1W8PCJQ1H8N7AFE","3YHH42UU5DL6VHX9GJ0IEHPDF8A0L0","emotion","match","uniform","","","","","","","1967.0999999940395","229276.69999998808","231243.79999998212","[""stimuli/WM07_HE.jpg"",""stimuli/AF11_SUR.jpg"",""stimuli/BM03_HO.jpg"",""stimuli/WF14_CC.jpg""]","stimuli/WM07_HE.jpg","stimuli/AF11_SUR.jpg","stimuli/BM03_HO.jpg","stimuli/WF14_CC.jpg","pos1","stimuli/WM07_HE.jpg","HE","WM07","0","4","8","8","stimuli/stars_8.png","147","[""HE"",""SUR"",""HO"",""CC""]","[""WM07"",""AF11"",""BM03"",""WF14""]","[8,3,5,4]","[8,4,6,2]","","",""
"show-reward","90","232034","0.0-90.0","p730283","A38ZLNCTSUGW7","3S1L4CQSFYBD9IN1W8PCJQ1H8N7AFE","3YHH42UU5DL6VHX9GJ0IEHPDF8A0L0","emotion","match","uniform","","","","","","","","231758.90000000596","233766.69999998808","","","","","","","","","","","","8","","stimuli/stars_8.png","147","","","","","stimuli/WM07_HE.jpg","",""
"explore-choice","91","234247","0.0-91.0","p730283","A38ZLNCTSUGW7","3S1L4CQSFYBD9IN1W8PCJQ1H8N7AFE","3YHH42UU5DL6VHX9GJ0IEHPDF8A0L0","emotion","match","uniform","","","","","","","1710.5","233767.40000000596","235477.90000000596","[""stimuli/WF14_HE.jpg"",""stimuli/BM03_HO.jpg"",""stimuli/WM07_SUR.jpg"",""stimuli/AF11_CC.jpg""]","stimuli/WF14_HE.jpg","stimuli/BM03_HO.jpg","stimuli/WM07_SUR.jpg","stimuli/AF11_CC.jpg","pos1","stimuli/WF14_HE.jpg","HE","WF14","0","5","10","8","stimuli/stars_10.png","152","[""HE"",""HO"",""SUR"",""CC""]","[""WF14"",""BM03"",""WM07"",""AF11""]","[10,7,3,2]","[8,6,4,2]","","",""
"show-reward","92","236260","0.0-92.0","p730283","A38ZLNCTSUGW7","3S1L4CQSFYBD9IN1W8PCJQ1H8N7AFE","3YHH42UU5DL6VHX9GJ0IEHPDF8A0L0","emotion","match","uniform","","","","","","","","235980.5","237992.90000000596","","","","","","","","","","","","10","","stimuli/stars_10.png","152","","","","","stimuli/WF14_HE.jpg","",""
"explore-choice","93","238994","0.0-93.0","p730283","A38ZLNCTSUGW7","3S1L4CQSFYBD9IN1W8PCJQ1H8N7AFE","3YHH42UU5DL6VHX9GJ0IEHPDF8A0L0","emotion","match","uniform","","","","","","","2223.4000000059605","237993.5","240216.90000000596","[""stimuli/AF11_SUR.jpg"",""stimuli/WM07_HE.jpg"",""stimuli/BM03_CC.jpg"",""stimuli/WF14_HO.jpg""]","stimuli/AF11_SUR.jpg","stimuli/WM07_HE.jpg","stimuli/BM03_CC.jpg","stimuli/WF14_HO.jpg","pos2","stimuli/WM07_HE.jpg","HE","WM07","1","5","10","8","stimuli/stars_10.png","157","[""SUR"",""HE"",""CC"",""HO""]","[""AF11"",""WM07"",""BM03"",""WF14""]","[5,10,0,7]","[4,8,2,6]","","",""
"show-reward","94","241006","0.0-94.0","p730283","A38ZLNCTSUGW7","3S1L4CQSFYBD9IN1W8PCJQ1H8N7AFE","3YHH42UU5DL6VHX9GJ0IEHPDF8A0L0","emotion","match","uniform","","","","","","","","240727.59999999404","242739.09999999404","","","","","","","","","","","","10","","stimuli/stars_10.png","157","","","","","stimuli/WM07_HE.jpg","",""
"explore-choice","95","243355","0.0-95.0","p730283","A38ZLNCTSUGW7","3S1L4CQSFYBD9IN1W8PCJQ1H8N7AFE","3YHH42UU5DL6VHX9GJ0IEHPDF8A0L0","emotion","match","uniform","","","","","","","1841.7999999821186","242739.90000000596","244581.69999998808","[""stimuli/WM07_CC.jpg"",""stimuli/WF14_HO.jpg"",""stimuli/BM03_SUR.jpg"",""stimuli/AF11_HE.jpg""]","stimuli/WM07_CC.jpg","stimuli/WF14_HO.jpg","stimuli/BM03_SUR.jpg","stimuli/AF11_HE.jpg","pos4","stimuli/AF11_HE.jpg","HE","AF11","3","3","6","8","stimuli/stars_6.png","160","[""CC"",""HO"",""SUR"",""HE""]","[""WM07"",""WF14"",""BM03"",""AF11""]","[3,6,5,6]","[2,6,4,8]","","",""
"show-reward","96","245361","0.0-96.0","p730283","A38ZLNCTSUGW7","3S1L4CQSFYBD9IN1W8PCJQ1H8N7AFE","3YHH42UU5DL6VHX9GJ0IEHPDF8A0L0","emotion","match","uniform","","","","","","","","245088.5","247093.79999998212","","","","","","","","","","","","6","","stimuli/stars_6.png","160","","","","","stimuli/AF11_HE.jpg","",""
"explore-choice","97","247772","0.0-97.0","p730283","A38ZLNCTSUGW7","3S1L4CQSFYBD9IN1W8PCJQ1H8N7AFE","3YHH42UU5DL6VHX9GJ0IEHPDF8A0L0","emotion","match","uniform","","","","","","","1899.0999999940395","247094.40000000596","248993.5","[""stimuli/AF11_HO.jpg"",""stimuli/WM07_SUR.jpg"",""stimuli/WF14_HE.jpg"",""stimuli/BM03_CC.jpg""]","stimuli/AF11_HO.jpg","stimuli/WM07_SUR.jpg","stimuli/WF14_HE.jpg","stimuli/BM03_CC.jpg","pos3","stimuli/WF14_HE.jpg","HE","WF14","2","4","8","8","stimuli/stars_8.png","164","[""HO"",""SUR"",""HE"",""CC""]","[""AF11"",""WM07"",""WF14"",""BM03""]","[5,6,8,1]","[6,4,8,2]","","",""
"show-reward","98","249785","0.0-98.0","p730283","A38ZLNCTSUGW7","3S1L4CQSFYBD9IN1W8PCJQ1H8N7AFE","3YHH42UU5DL6VHX9GJ0IEHPDF8A0L0","emotion","match","uniform","","","","","","","","249505.29999998212","251517.59999999404","","","","","","","","","","","","8","","stimuli/stars_8.png","164","","","","","stimuli/WF14_HE.jpg","",""
"explore-choice","99","251812","0.0-99.0","p730283","A38ZLNCTSUGW7","3S1L4CQSFYBD9IN1W8PCJQ1H8N7AFE","3YHH42UU5DL6VHX9GJ0IEHPDF8A0L0","emotion","match","uniform","","","","","","","1511.0999999940395","251518.69999998808","253029.79999998212","[""stimuli/WF14_HO.jpg"",""stimuli/WM07_CC.jpg"",""stimuli/BM03_HE.jpg"",""stimuli/AF11_SUR.jpg""]","stimuli/WF14_HO.jpg","stimuli/WM07_CC.jpg","stimuli/BM03_HE.jpg","stimuli/AF11_SUR.jpg","pos3","stimuli/BM03_HE.jpg","HE","BM03","2","4","8","8","stimuli/stars_8.png","168","[""HO"",""CC"",""HE"",""SUR""]","[""WF14"",""WM07"",""BM03"",""AF11""]","[4,0,8,5]","[6,2,8,4]","","",""
"show-reward","100","253828","0.0-100.0","p730283","A38ZLNCTSUGW7","3S1L4CQSFYBD9IN1W8PCJQ1H8N7AFE","3YHH42UU5DL6VHX9GJ0IEHPDF8A0L0","emotion","match","uniform","","","","","","","","253545.40000000596","255561.5","","","","","","","","","","","","8","","stimuli/stars_8.png","168","","","","","stimuli/BM03_HE.jpg","",""
"explore-choice","101","255658","0.0-101.0","p730283","A38ZLNCTSUGW7","3S1L4CQSFYBD9IN1W8PCJQ1H8N7AFE","3YHH42UU5DL6VHX9GJ0IEHPDF8A0L0","emotion","match","uniform","","","","","","","1315.5","255562.09999999404","256877.59999999404","[""stimuli/AF11_SUR.jpg"",""stimuli/BM03_HO.jpg"",""stimuli/WF14_HE.jpg"",""stimuli/WM07_CC.jpg""]","stimuli/AF11_SUR.jpg","stimuli/BM03_HO.jpg","stimuli/WF14_HE.jpg","stimuli/WM07_CC.jpg","pos3","stimuli/WF14_HE.jpg","HE","WF14","2","4.5","9","8","stimuli/stars_9.png","172.5","[""SUR"",""HO"",""HE"",""CC""]","[""AF11"",""BM03"",""WF14"",""WM07""]","[3,6,9,3]","[4,6,8,2]","","",""
"show-reward","102","257671","0.0-102.0","p730283","A38ZLNCTSUGW7","3S1L4CQSFYBD9IN1W8PCJQ1H8N7AFE","3YHH42UU5DL6VHX9GJ0IEHPDF8A0L0","emotion","match","uniform","","","","","","","","257392.40000000596","259403.5","","","","","","","","","","","","9","","stimuli/stars_9.png","172.5","","","","","stimuli/WF14_HE.jpg","",""
"explore-choice","103","266236","0.0-103.0","p730283","A38ZLNCTSUGW7","3S1L4CQSFYBD9IN1W8PCJQ1H8N7AFE","3YHH42UU5DL6VHX9GJ0IEHPDF8A0L0","emotion","match","uniform","","","","","","","8059.4000000059605","259404.19999998808","267463.59999999404","[""stimuli/HM02_FO.jpg"",""stimuli/BF04_AO.jpg"",""stimuli/BF06_DO.jpg"",""stimuli/AM03_SC.jpg""]","stimuli/HM02_FO.jpg","stimuli/BF04_AO.jpg","stimuli/BF06_DO.jpg","stimuli/AM03_SC.jpg","pos3","stimuli/BF06_DO.jpg","DO","BF06","2","1","2","4","stimuli/stars_2.png","173.5","[""FO"",""AO"",""DO"",""SC""]","[""HM02"",""BF04"",""BF06"",""AM03""]","[9,8,2,4]","[8,6,4,2]","","",""
"show-reward","104","268245","0.0-104.0","p730283","A38ZLNCTSUGW7","3S1L4CQSFYBD9IN1W8PCJQ1H8N7AFE","3YHH42UU5DL6VHX9GJ0IEHPDF8A0L0","emotion","match","uniform","","","","","","","","267969.59999999404","269978.40000000596","","","","","","","","","","","","2","","stimuli/stars_2.png","173.5","","","","","stimuli/BF06_DO.jpg","",""
"explore-choice","105","272472","0.0-105.0","p730283","A38ZLNCTSUGW7","3S1L4CQSFYBD9IN1W8PCJQ1H8N7AFE","3YHH42UU5DL6VHX9GJ0IEHPDF8A0L0","emotion","match","uniform","","","","","","","3714.9000000059605","269979.09999999404","273694","[""stimuli/BF04_AO.jpg"",""stimuli/AM03_SC.jpg"",""stimuli/BF06_FO.jpg"",""stimuli/HM02_DO.jpg""]","stimuli/BF04_AO.jpg","stimuli/AM03_SC.jpg","stimuli/BF06_FO.jpg","stimuli/HM02_DO.jpg","pos4","stimuli/HM02_DO.jpg","DO","HM02","3","1","2","4","stimuli/stars_2.png","174.5","[""AO"",""SC"",""FO"",""DO""]","[""BF04"",""AM03"",""BF06"",""HM02""]","[7,2,6,2]","[6,2,8,4]","","",""
"show-reward","106","274488","0.0-106.0","p730283","A38ZLNCTSUGW7","3S1L4CQSFYBD9IN1W8PCJQ1H8N7AFE","3YHH42UU5DL6VHX9GJ0IEHPDF8A0L0","emotion","match","uniform","","","","","","","","274206.1999999881","276220.6999999881","","","","","","","","","","","","2","","stimuli/stars_2.png","174.5","","","","","stimuli/HM02_DO.jpg","",""
"explore-choice","107","277225","0.0-107.0","p730283","A38ZLNCTSUGW7","3S1L4CQSFYBD9IN1W8PCJQ1H8N7AFE","3YHH42UU5DL6VHX9GJ0IEHPDF8A0L0","emotion","match","uniform","","","","","","","2222.5","276221.2999999821","278443.7999999821","[""stimuli/AM03_SC.jpg"",""stimuli/BF04_FO.jpg"",""stimuli/BF06_DO.jpg"",""stimuli/HM02_AO.jpg""]","stimuli/AM03_SC.jpg","stimuli/BF04_FO.jpg","stimuli/BF06_DO.jpg","stimuli/HM02_AO.jpg","pos1","stimuli/AM03_SC.jpg","SC","AM03","0","1","2","2","stimuli/stars_2.png","175.5","[""SC"",""FO"",""DO"",""AO""]","[""AM03"",""BF04"",""BF06"",""HM02""]","[2,7,3,8]","[2,8,4,6]","","",""
"show-reward","108","279236","0.0-108.0","p730283","A38ZLNCTSUGW7","3S1L4CQSFYBD9IN1W8PCJQ1H8N7AFE","3YHH42UU5DL6VHX9GJ0IEHPDF8A0L0","emotion","match","uniform","","","","","","","","278958.90000000596","280968.59999999404","","","","","","","","","","","","2","","stimuli/stars_2.png","175.5","","","","","stimuli/AM03_SC.jpg","",""
"explore-choice","109","284600","0.0-109.0","p730283","A38ZLNCTSUGW7","3S1L4CQSFYBD9IN1W8PCJQ1H8N7AFE","3YHH42UU5DL6VHX9GJ0IEHPDF8A0L0","emotion","match","uniform","","","","","","","4853.5","280969.5","285823","[""stimuli/AM03_FO.jpg"",""stimuli/HM02_DO.jpg"",""stimuli/BF04_SC.jpg"",""stimuli/BF06_AO.jpg""]","stimuli/AM03_FO.jpg","stimuli/HM02_DO.jpg","stimuli/BF04_SC.jpg","stimuli/BF06_AO.jpg","pos1","stimuli/AM03_FO.jpg","FO","AM03","0","3.5","7","8","stimuli/stars_7.png","179","[""FO"",""DO"",""SC"",""AO""]","[""AM03"",""HM02"",""BF04"",""BF06""]","[7,4,3,8]","[8,4,2,6]","","",""
"show-reward","110","286609","0.0-110.0","p730283","A38ZLNCTSUGW7","3S1L4CQSFYBD9IN1W8PCJQ1H8N7AFE","3YHH42UU5DL6VHX9GJ0IEHPDF8A0L0","emotion","match","uniform","","","","","","","","286334.09999999404","288342.1999999881","","","","","","","","","","","","7","","stimuli/stars_7.png","179","","","","","stimuli/AM03_FO.jpg","",""
"explore-choice","111","289697","0.0-111.0","p730283","A38ZLNCTSUGW7","3S1L4CQSFYBD9IN1W8PCJQ1H8N7AFE","3YHH42UU5DL6VHX9GJ0IEHPDF8A0L0","emotion","match","uniform","","","","","","","2572.2000000178814","288342.7999999821","290915","[""stimuli/BF06_AO.jpg"",""stimuli/AM03_DO.jpg"",""stimuli/HM02_FO.jpg"",""stimuli/BF04_SC.jpg""]","stimuli/BF06_AO.jpg","stimuli/AM03_DO.jpg","stimuli/HM02_FO.jpg","stimuli/BF04_SC.jpg","pos3","stimuli/HM02_FO.jpg","FO","HM02","2","5","10","8","stimuli/stars_10.png","184","[""AO"",""DO"",""FO"",""SC""]","[""BF06"",""AM03"",""HM02"",""BF04""]","[6,5,10,1]","[6,4,8,2]","","",""
"show-reward","112","291701","0.0-112.0","p730283","A38ZLNCTSUGW7","3S1L4CQSFYBD9IN1W8PCJQ1H8N7AFE","3YHH42UU5DL6VHX9GJ0IEHPDF8A0L0","emotion","match","uniform","","","","","","","","291430.7999999821","293434.6999999881","","","","","","","","","","","","10","","stimuli/stars_10.png","184","","","","","stimuli/HM02_FO.jpg","",""
"explore-choice","113","293732","0.0-113.0","p730283","A38ZLNCTSUGW7","3S1L4CQSFYBD9IN1W8PCJQ1H8N7AFE","3YHH42UU5DL6VHX9GJ0IEHPDF8A0L0","emotion","match","uniform","","","","","","","1527.5","293435.40000000596","294962.90000000596","[""stimuli/HM02_SC.jpg"",""stimuli/BF06_DO.jpg"",""stimuli/BF04_AO.jpg"",""stimuli/AM03_FO.jpg""]","stimuli/HM02_SC.jpg","stimuli/BF06_DO.jpg","stimuli/BF04_AO.jpg","stimuli/AM03_FO.jpg","pos4","stimuli/AM03_FO.jpg","FO","AM03","3","4","8","8","stimuli/stars_8.png","188","[""SC"",""DO"",""AO"",""FO""]","[""HM02"",""BF06"",""BF04"",""AM03""]","[2,5,5,8]","[2,4,6,8]","","",""
"show-reward","114","295741","0.0-114.0","p730283","A38ZLNCTSUGW7","3S1L4CQSFYBD9IN1W8PCJQ1H8N7AFE","3YHH42UU5DL6VHX9GJ0IEHPDF8A0L0","emotion","match","uniform","","","","","","","","295466","297474.40000000596","","","","","","","","","","","","8","","stimuli/stars_8.png","188","","","","","stimuli/AM03_FO.jpg","",""
"explore-choice","115","298274","0.0-115.0","p730283","A38ZLNCTSUGW7","3S1L4CQSFYBD9IN1W8PCJQ1H8N7AFE","3YHH42UU5DL6VHX9GJ0IEHPDF8A0L0","emotion","match","uniform","","","","","","","2029.0999999940395","297475","299504.09999999404","[""stimuli/HM02_DO.jpg"",""stimuli/BF04_SC.jpg"",""stimuli/AM03_AO.jpg"",""stimuli/BF06_FO.jpg""]","stimuli/HM02_DO.jpg","stimuli/BF04_SC.jpg","stimuli/AM03_AO.jpg","stimuli/BF06_FO.jpg","pos4","stimuli/BF06_FO.jpg","FO","BF06","3","4.5","9","8","stimuli/stars_9.png","192.5","[""DO"",""SC"",""AO"",""FO""]","[""HM02"",""BF04"",""AM03"",""BF06""]","[3,4,7,9]","[4,2,6,8]","","",""
"show-reward","116","300289","0.0-116.0","p730283","A38ZLNCTSUGW7","3S1L4CQSFYBD9IN1W8PCJQ1H8N7AFE","3YHH42UU5DL6VHX9GJ0IEHPDF8A0L0","emotion","match","uniform","","","","","","","","300007.2999999821","302022.40000000596","","","","","","","","","","","","9","","stimuli/stars_9.png","192.5","","","","","stimuli/BF06_FO.jpg","",""
"explore-choice","117","302220","0.0-117.0","p730283","A38ZLNCTSUGW7","3S1L4CQSFYBD9IN1W8PCJQ1H8N7AFE","3YHH42UU5DL6VHX9GJ0IEHPDF8A0L0","emotion","match","uniform","","","","","","","1423.9000000059605","302023.09999999404","303447","[""stimuli/BF06_AO.jpg"",""stimuli/HM02_SC.jpg"",""stimuli/BF04_DO.jpg"",""stimuli/AM03_FO.jpg""]","stimuli/BF06_AO.jpg","stimuli/HM02_SC.jpg","stimuli/BF04_DO.jpg","stimuli/AM03_FO.jpg","pos4","stimuli/AM03_FO.jpg","FO","AM03","3","4","8","8","stimuli/stars_8.png","196.5","[""AO"",""SC"",""DO"",""FO""]","[""BF06"",""HM02"",""BF04"",""AM03""]","[6,4,4,8]","[6,2,4,8]","","",""
"show-reward","118","304222","0.0-118.0","p730283","A38ZLNCTSUGW7","3S1L4CQSFYBD9IN1W8PCJQ1H8N7AFE","3YHH42UU5DL6VHX9GJ0IEHPDF8A0L0","emotion","match","uniform","","","","","","","","303954.1999999881","305955.1999999881","","","","","","","","","","","","8","","stimuli/stars_8.png","196.5","","","","","stimuli/AM03_FO.jpg","",""
"explore-choice","119","306632","0.0-119.0","p730283","A38ZLNCTSUGW7","3S1L4CQSFYBD9IN1W8PCJQ1H8N7AFE","3YHH42UU5DL6VHX9GJ0IEHPDF8A0L0","emotion","match","uniform","","","","","","","1903.0999999940395","305955.59999999404","307858.6999999881","[""stimuli/BF04_FO.jpg"",""stimuli/AM03_AO.jpg"",""stimuli/BF06_SC.jpg"",""stimuli/HM02_DO.jpg""]","stimuli/BF04_FO.jpg","stimuli/AM03_AO.jpg","stimuli/BF06_SC.jpg","stimuli/HM02_DO.jpg","pos1","stimuli/BF04_FO.jpg","FO","BF04","0","3.5","7","8","stimuli/stars_7.png","200","[""FO"",""AO"",""SC"",""DO""]","[""BF04"",""AM03"",""BF06"",""HM02""]","[7,6,1,5]","[8,6,2,4]","","",""
"show-reward","120","308640","0.0-120.0","p730283","A38ZLNCTSUGW7","3S1L4CQSFYBD9IN1W8PCJQ1H8N7AFE","3YHH42UU5DL6VHX9GJ0IEHPDF8A0L0","emotion","match","uniform","","","","","","","","308366.09999999404","310373.40000000596","","","","","","","","","","","","7","","stimuli/stars_7.png","200","","","","","stimuli/BF04_FO.jpg","",""
"explore-choice","121","310779","0.0-121.0","p730283","A38ZLNCTSUGW7","3S1L4CQSFYBD9IN1W8PCJQ1H8N7AFE","3YHH42UU5DL6VHX9GJ0IEHPDF8A0L0","emotion","match","uniform","","","","","","","1627.9000000059605","310374","312001.90000000596","[""stimuli/AM03_AO.jpg"",""stimuli/BF06_FO.jpg"",""stimuli/BF04_DO.jpg"",""stimuli/HM02_SC.jpg""]","stimuli/AM03_AO.jpg","stimuli/BF06_FO.jpg","stimuli/BF04_DO.jpg","stimuli/HM02_SC.jpg","pos2","stimuli/BF06_FO.jpg","FO","BF06","1","3.5","7","8","stimuli/stars_7.png","203.5","[""AO"",""FO"",""DO"",""SC""]","[""AM03"",""BF06"",""BF04"",""HM02""]","[4,7,2,0]","[6,8,4,2]","","",""
"show-reward","122","312790","0.0-122.0","p730283","A38ZLNCTSUGW7","3S1L4CQSFYBD9IN1W8PCJQ1H8N7AFE","3YHH42UU5DL6VHX9GJ0IEHPDF8A0L0","emotion","match","uniform","","","","","","","","312512.59999999404","314522.6999999881","","","","","","","","","","","","7","","stimuli/stars_7.png","203.5","","","","","stimuli/BF06_FO.jpg","",""
"explore-choice","123","314404","0.0-123.0","p730283","A38ZLNCTSUGW7","3S1L4CQSFYBD9IN1W8PCJQ1H8N7AFE","3YHH42UU5DL6VHX9GJ0IEHPDF8A0L0","emotion","match","uniform","","","","","","","1101.5999999940395","314523.6999999881","315625.2999999821","[""stimuli/BF04_FO.jpg"",""stimuli/HM02_DO.jpg"",""stimuli/BF06_AO.jpg"",""stimuli/AM03_SC.jpg""]","stimuli/BF04_FO.jpg","stimuli/HM02_DO.jpg","stimuli/BF06_AO.jpg","stimuli/AM03_SC.jpg","pos1","stimuli/BF04_FO.jpg","FO","BF04","0","3.5","7","8","stimuli/stars_7.png","207","[""FO"",""DO"",""AO"",""SC""]","[""BF04"",""HM02"",""BF06"",""AM03""]","[7,6,8,2]","[8,4,6,2]","","",""
"show-reward","124","316421","0.0-124.0","p730283","A38ZLNCTSUGW7","3S1L4CQSFYBD9IN1W8PCJQ1H8N7AFE","3YHH42UU5DL6VHX9GJ0IEHPDF8A0L0","emotion","match","uniform","","","","","","","","316137.6999999881","318153.7999999821","","","","","","","","","","","","7","","stimuli/stars_7.png","207","","","","","stimuli/BF04_FO.jpg","",""
"explore-choice","125","318119","0.0-125.0","p730283","A38ZLNCTSUGW7","3S1L4CQSFYBD9IN1W8PCJQ1H8N7AFE","3YHH42UU5DL6VHX9GJ0IEHPDF8A0L0","emotion","match","uniform","","","","","","","1193","318154.5","319347.5","[""stimuli/AM03_FO.jpg"",""stimuli/HM02_AO.jpg"",""stimuli/BF04_SC.jpg"",""stimuli/BF06_DO.jpg""]","stimuli/AM03_FO.jpg","stimuli/HM02_AO.jpg","stimuli/BF04_SC.jpg","stimuli/BF06_DO.jpg","pos1","stimuli/AM03_FO.jpg","FO","AM03","0","4.5","9","8","stimuli/stars_9.png","211.5","[""FO"",""AO"",""SC"",""DO""]","[""AM03"",""HM02"",""BF04"",""BF06""]","[9,6,1,2]","[8,6,2,4]","","",""
"show-reward","126","320126","0.0-126.0","p730283","A38ZLNCTSUGW7","3S1L4CQSFYBD9IN1W8PCJQ1H8N7AFE","3YHH42UU5DL6VHX9GJ0IEHPDF8A0L0","emotion","match","uniform","","","","","","","","319853.40000000596","321859.2999999821","","","","","","","","","","","","9","","stimuli/stars_9.png","211.5","","","","","stimuli/AM03_FO.jpg","",""
"explore-choice","127","321617","0.0-127.0","p730283","A38ZLNCTSUGW7","3S1L4CQSFYBD9IN1W8PCJQ1H8N7AFE","3YHH42UU5DL6VHX9GJ0IEHPDF8A0L0","emotion","match","uniform","","","","","","","989.9000000059605","321859.6999999881","322849.59999999404","[""stimuli/BF06_SC.jpg"",""stimuli/HM02_AO.jpg"",""stimuli/AM03_FO.jpg"",""stimuli/BF04_DO.jpg""]","stimuli/BF06_SC.jpg","stimuli/HM02_AO.jpg","stimuli/AM03_FO.jpg","stimuli/BF04_DO.jpg","pos3","stimuli/AM03_FO.jpg","FO","AM03","2","5","10","8","stimuli/stars_10.png","216.5","[""SC"",""AO"",""FO"",""DO""]","[""BF06"",""HM02"",""AM03"",""BF04""]","[4,6,10,5]","[2,6,8,4]","","",""
"show-reward","128","323627","0.0-128.0","p730283","A38ZLNCTSUGW7","3S1L4CQSFYBD9IN1W8PCJQ1H8N7AFE","3YHH42UU5DL6VHX9GJ0IEHPDF8A0L0","emotion","match","uniform","","","","","","","","323350.59999999404","325360.1999999881","","","","","","","","","","","","10","","stimuli/stars_10.png","216.5","","","","","stimuli/AM03_FO.jpg","",""
"explore-choice","129","325505","0.0-129.0","p730283","A38ZLNCTSUGW7","3S1L4CQSFYBD9IN1W8PCJQ1H8N7AFE","3YHH42UU5DL6VHX9GJ0IEHPDF8A0L0","emotion","match","uniform","","","","","","","1373.0999999940395","325360.6999999881","326733.7999999821","[""stimuli/BF06_SC.jpg"",""stimuli/HM02_DO.jpg"",""stimuli/BF04_AO.jpg"",""stimuli/AM03_FO.jpg""]","stimuli/BF06_SC.jpg","stimuli/HM02_DO.jpg","stimuli/BF04_AO.jpg","stimuli/AM03_FO.jpg","pos4","stimuli/AM03_FO.jpg","FO","AM03","3","5","10","8","stimuli/stars_10.png","221.5","[""SC"",""DO"",""AO"",""FO""]","[""BF06"",""HM02"",""BF04"",""AM03""]","[3,6,8,10]","[2,4,6,8]","","",""
"show-reward","130","327518","0.0-130.0","p730283","A38ZLNCTSUGW7","3S1L4CQSFYBD9IN1W8PCJQ1H8N7AFE","3YHH42UU5DL6VHX9GJ0IEHPDF8A0L0","emotion","match","uniform","","","","","","","","327239.09999999404","329251","","","","","","","","","","","","10","","stimuli/stars_10.png","221.5","","","","","stimuli/AM03_FO.jpg","",""
"explore-choice","131","329512","0.0-131.0","p730283","A38ZLNCTSUGW7","3S1L4CQSFYBD9IN1W8PCJQ1H8N7AFE","3YHH42UU5DL6VHX9GJ0IEHPDF8A0L0","emotion","match","uniform","","","","","","","1487.800000011921","329251.6999999881","330739.5","[""stimuli/BF04_DO.jpg"",""stimuli/HM02_FO.jpg"",""stimuli/BF06_SC.jpg"",""stimuli/AM03_AO.jpg""]","stimuli/BF04_DO.jpg","stimuli/HM02_FO.jpg","stimuli/BF06_SC.jpg","stimuli/AM03_AO.jpg","pos2","stimuli/HM02_FO.jpg","FO","HM02","1","3.5","7","8","stimuli/stars_7.png","225","[""DO"",""FO"",""SC"",""AO""]","[""BF04"",""HM02"",""BF06"",""AM03""]","[2,7,4,8]","[4,8,2,6]","","",""
"show-reward","132","331522","0.0-132.0","p730283","A38ZLNCTSUGW7","3S1L4CQSFYBD9IN1W8PCJQ1H8N7AFE","3YHH42UU5DL6VHX9GJ0IEHPDF8A0L0","emotion","match","uniform","","","","","","","","331246.1999999881","333255.59999999404","","","","","","","","","","","","7","","stimuli/stars_7.png","225","","","","","stimuli/HM02_FO.jpg","",""
"explore-choice","133","334051","0.0-133.0","p730283","A38ZLNCTSUGW7","3S1L4CQSFYBD9IN1W8PCJQ1H8N7AFE","3YHH42UU5DL6VHX9GJ0IEHPDF8A0L0","emotion","match","uniform","","","","","","","2022.800000011921","333256.1999999881","335279","[""stimuli/HM02_FO.jpg"",""stimuli/AM03_DO.jpg"",""stimuli/BF06_SC.jpg"",""stimuli/BF04_AO.jpg""]","stimuli/HM02_FO.jpg","stimuli/AM03_DO.jpg","stimuli/BF06_SC.jpg","stimuli/BF04_AO.jpg","pos1","stimuli/HM02_FO.jpg","FO","HM02","0","4","8","8","stimuli/stars_8.png","229","[""FO"",""DO"",""SC"",""AO""]","[""HM02"",""AM03"",""BF06"",""BF04""]","[8,6,1,8]","[8,4,2,6]","","",""
"show-reward","134","336055","0.0-134.0","p730283","A38ZLNCTSUGW7","3S1L4CQSFYBD9IN1W8PCJQ1H8N7AFE","3YHH42UU5DL6VHX9GJ0IEHPDF8A0L0","emotion","match","uniform","","","","","","","","335784.5","337788.40000000596","","","","","","","","","","","","8","","stimuli/stars_8.png","229","","","","","stimuli/HM02_FO.jpg","",""
"explore-choice","135","339192","0.0-135.0","p730283","A38ZLNCTSUGW7","3S1L4CQSFYBD9IN1W8PCJQ1H8N7AFE","3YHH42UU5DL6VHX9GJ0IEHPDF8A0L0","emotion","match","uniform","","","","","","","2624.699999988079","337789.09999999404","340413.7999999821","[""stimuli/AM03_DO.jpg"",""stimuli/HM02_SC.jpg"",""stimuli/BF06_FO.jpg"",""stimuli/BF04_AO.jpg""]","stimuli/AM03_DO.jpg","stimuli/HM02_SC.jpg","stimuli/BF06_FO.jpg","stimuli/BF04_AO.jpg","pos3","stimuli/BF06_FO.jpg","FO","BF06","2","5","10","8","stimuli/stars_10.png","234","[""DO"",""SC"",""FO"",""AO""]","[""AM03"",""HM02"",""BF06"",""BF04""]","[3,4,10,5]","[4,2,8,6]","","",""
"show-reward","136","341201","0.0-136.0","p730283","A38ZLNCTSUGW7","3S1L4CQSFYBD9IN1W8PCJQ1H8N7AFE","3YHH42UU5DL6VHX9GJ0IEHPDF8A0L0","emotion","match","uniform","","","","","","","","340925.59999999404","342934","","","","","","","","","","","","10","","stimuli/stars_10.png","234","","","","","stimuli/BF06_FO.jpg","",""
"explore-choice","137","343254","0.0-137.0","p730283","A38ZLNCTSUGW7","3S1L4CQSFYBD9IN1W8PCJQ1H8N7AFE","3YHH42UU5DL6VHX9GJ0IEHPDF8A0L0","emotion","match","uniform","","","","","","","1550.4000000059605","342934.59999999404","344485","[""stimuli/BF06_FO.jpg"",""stimuli/AM03_SC.jpg"",""stimuli/BF04_DO.jpg"",""stimuli/HM02_AO.jpg""]","stimuli/BF06_FO.jpg","stimuli/AM03_SC.jpg","stimuli/BF04_DO.jpg","stimuli/HM02_AO.jpg","pos1","stimuli/BF06_FO.jpg","FO","BF06","0","3.5","7","8","stimuli/stars_7.png","237.5","[""FO"",""SC"",""DO"",""AO""]","[""BF06"",""AM03"",""BF04"",""HM02""]","[7,2,3,6]","[8,2,4,6]","","",""
"show-reward","138","345259","0.0-138.0","p730283","A38ZLNCTSUGW7","3S1L4CQSFYBD9IN1W8PCJQ1H8N7AFE","3YHH42UU5DL6VHX9GJ0IEHPDF8A0L0","emotion","match","uniform","","","","","","","","344988.2999999821","346992.40000000596","","","","","","","","","","","","7","","stimuli/stars_7.png","237.5","","","","","stimuli/BF06_FO.jpg","",""
"explore-choice","139","348286","0.0-139.0","p730283","A38ZLNCTSUGW7","3S1L4CQSFYBD9IN1W8PCJQ1H8N7AFE","3YHH42UU5DL6VHX9GJ0IEHPDF8A0L0","emotion","match","uniform","","","","","","","2524.800000011921","346993.1999999881","349518","[""stimuli/HM02_SC.jpg"",""stimuli/BF04_FO.jpg"",""stimuli/AM03_AO.jpg"",""stimuli/BF06_DO.jpg""]","stimuli/HM02_SC.jpg","stimuli/BF04_FO.jpg","stimuli/AM03_AO.jpg","stimuli/BF06_DO.jpg","pos2","stimuli/BF04_FO.jpg","FO","BF04","1","3.5","7","8","stimuli/stars_7.png","241","[""SC"",""FO"",""AO"",""DO""]","[""HM02"",""BF04"",""AM03"",""BF06""]","[4,7,7,5]","[2,8,6,4]","","",""
"show-reward","140","350297","0.0-140.0","p730283","A38ZLNCTSUGW7","3S1L4CQSFYBD9IN1W8PCJQ1H8N7AFE","3YHH42UU5DL6VHX9GJ0IEHPDF8A0L0","emotion","match","uniform","","","","","","","","350020.1999999881","352029.90000000596","","","","","","","","","","","","7","","stimuli/stars_7.png","241","","","","","stimuli/BF04_FO.jpg","",""
"explore-choice","141","354017","0.0-141.0","p730283","A38ZLNCTSUGW7","3S1L4CQSFYBD9IN1W8PCJQ1H8N7AFE","3YHH42UU5DL6VHX9GJ0IEHPDF8A0L0","emotion","match","uniform","","","","","","","3205.300000011921","352030.6999999881","355236","[""stimuli/BF04_FO.jpg"",""stimuli/BF06_SC.jpg"",""stimuli/HM02_AO.jpg"",""stimuli/AM03_DO.jpg""]","stimuli/BF04_FO.jpg","stimuli/BF06_SC.jpg","stimuli/HM02_AO.jpg","stimuli/AM03_DO.jpg","pos4","stimuli/AM03_DO.jpg","DO","AM03","3","2.5","5","4","stimuli/stars_5.png","243.5","[""FO"",""SC"",""AO"",""DO""]","[""BF04"",""BF06"",""HM02"",""AM03""]","[7,4,6,5]","[8,2,6,4]","","",""
"show-reward","142","356033","0.0-142.0","p730283","A38ZLNCTSUGW7","3S1L4CQSFYBD9IN1W8PCJQ1H8N7AFE","3YHH42UU5DL6VHX9GJ0IEHPDF8A0L0","emotion","match","uniform","","","","","","","","355750.40000000596","357765.7999999821","","","","","","","","","","","","5","","stimuli/stars_5.png","243.5","","","","","stimuli/AM03_DO.jpg","",""
"explore-choice","143","358420","0.0-143.0","p730283","A38ZLNCTSUGW7","3S1L4CQSFYBD9IN1W8PCJQ1H8N7AFE","3YHH42UU5DL6VHX9GJ0IEHPDF8A0L0","emotion","match","uniform","","","","","","","1877.6000000238419","357766.2999999821","359643.90000000596","[""stimuli/BF06_AO.jpg"",""stimuli/AM03_DO.jpg"",""stimuli/HM02_SC.jpg"",""stimuli/BF04_FO.jpg""]","stimuli/BF06_AO.jpg","stimuli/AM03_DO.jpg","stimuli/HM02_SC.jpg","stimuli/BF04_FO.jpg","pos4","stimuli/BF04_FO.jpg","FO","BF04","3","3","6","8","stimuli/stars_6.png","246.5","[""AO"",""DO"",""SC"",""FO""]","[""BF06"",""AM03"",""HM02"",""BF04""]","[6,5,0,6]","[6,4,2,8]","","",""
"show-reward","144","360435","0.0-144.0","p730283","A38ZLNCTSUGW7","3S1L4CQSFYBD9IN1W8PCJQ1H8N7AFE","3YHH42UU5DL6VHX9GJ0IEHPDF8A0L0","emotion","match","uniform","","","","","","","","360153.90000000596","362168.2999999821","","","","","","","","","","","","6","","stimuli/stars_6.png","246.5","","","","","stimuli/BF04_FO.jpg","",""
"explore-choice","145","362365","0.0-145.0","p730283","A38ZLNCTSUGW7","3S1L4CQSFYBD9IN1W8PCJQ1H8N7AFE","3YHH42UU5DL6VHX9GJ0IEHPDF8A0L0","emotion","match","uniform","","","","","","","1416.2000000178814","362168.7999999821","363585","[""stimuli/AM03_DO.jpg"",""stimuli/HM02_AO.jpg"",""stimuli/BF06_FO.jpg"",""stimuli/BF04_SC.jpg""]","stimuli/AM03_DO.jpg","stimuli/HM02_AO.jpg","stimuli/BF06_FO.jpg","stimuli/BF04_SC.jpg","pos1","stimuli/AM03_DO.jpg","DO","AM03","0","3","6","4","stimuli/stars_6.png","249.5","[""DO"",""AO"",""FO"",""SC""]","[""AM03"",""HM02"",""BF06"",""BF04""]","[6,4,8,3]","[4,6,8,2]","","",""
"show-reward","146","364379","0.0-146.0","p730283","A38ZLNCTSUGW7","3S1L4CQSFYBD9IN1W8PCJQ1H8N7AFE","3YHH42UU5DL6VHX9GJ0IEHPDF8A0L0","emotion","match","uniform","","","","","","","","364098.40000000596","366111.90000000596","","","","","","","","","","","","6","","stimuli/stars_6.png","249.5","","","","","stimuli/AM03_DO.jpg","",""
"explore-choice","147","366712","0.0-147.0","p730283","A38ZLNCTSUGW7","3S1L4CQSFYBD9IN1W8PCJQ1H8N7AFE","3YHH42UU5DL6VHX9GJ0IEHPDF8A0L0","emotion","match","uniform","","","","","","","1831.5","366113.09999999404","367944.59999999404","[""stimuli/AM03_SC.jpg"",""stimuli/HM02_FO.jpg"",""stimuli/BF06_AO.jpg"",""stimuli/BF04_DO.jpg""]","stimuli/AM03_SC.jpg","stimuli/HM02_FO.jpg","stimuli/BF06_AO.jpg","stimuli/BF04_DO.jpg","pos2","stimuli/HM02_FO.jpg","FO","HM02","1","3.5","7","8","stimuli/stars_7.png","253","[""SC"",""FO"",""AO"",""DO""]","[""AM03"",""HM02"",""BF06"",""BF04""]","[1,7,6,5]","[2,8,6,4]","","",""
"show-reward","148","368715","0.0-148.0","p730283","A38ZLNCTSUGW7","3S1L4CQSFYBD9IN1W8PCJQ1H8N7AFE","3YHH42UU5DL6VHX9GJ0IEHPDF8A0L0","emotion","match","uniform","","","","","","","","368446.1999999881","370448.09999999404","","","","","","","","","","","","7","","stimuli/stars_7.png","253","","","","","stimuli/HM02_FO.jpg","",""
"explore-choice","149","370790","0.0-149.0","p730283","A38ZLNCTSUGW7","3S1L4CQSFYBD9IN1W8PCJQ1H8N7AFE","3YHH42UU5DL6VHX9GJ0IEHPDF8A0L0","emotion","match","uniform","","","","","","","1568.300000011921","370448.7999999821","372017.09999999404","[""stimuli/BF04_SC.jpg"",""stimuli/AM03_AO.jpg"",""stimuli/HM02_FO.jpg"",""stimuli/BF06_DO.jpg""]","stimuli/BF04_SC.jpg","stimuli/AM03_AO.jpg","stimuli/HM02_FO.jpg","stimuli/BF06_DO.jpg","pos3","stimuli/HM02_FO.jpg","FO","HM02","2","4","8","8","stimuli/stars_8.png","257","[""SC"",""AO"",""FO"",""DO""]","[""BF04"",""AM03"",""HM02"",""BF06""]","[1,4,8,3]","[2,6,8,4]","","",""
"show-reward","150","372794","0.0-150.0","p730283","A38ZLNCTSUGW7","3S1L4CQSFYBD9IN1W8PCJQ1H8N7AFE","3YHH42UU5DL6VHX9GJ0IEHPDF8A0L0","emotion","match","uniform","","","","","","","","372523.7999999821","374526.5","","","","","","","","","","","","8","","stimuli/stars_8.png","257","","","","","stimuli/HM02_FO.jpg","",""
"explore-choice","151","376453","0.0-151.0","p730283","A38ZLNCTSUGW7","3S1L4CQSFYBD9IN1W8PCJQ1H8N7AFE","3YHH42UU5DL6VHX9GJ0IEHPDF8A0L0","emotion","match","uniform","","","","","","","3153.600000023842","374527.2999999821","377680.90000000596","[""stimuli/BF06_SC.jpg"",""stimuli/HM02_FO.jpg"",""stimuli/BF04_AO.jpg"",""stimuli/AM03_DO.jpg""]","stimuli/BF06_SC.jpg","stimuli/HM02_FO.jpg","stimuli/BF04_AO.jpg","stimuli/AM03_DO.jpg","pos2","stimuli/HM02_FO.jpg","FO","HM02","1","4","8","8","stimuli/stars_8.png","261","[""SC"",""FO"",""AO"",""DO""]","[""BF06"",""HM02"",""BF04"",""AM03""]","[1,8,8,6]","[2,8,6,4]","","",""
"show-reward","152","378466","0.0-152.0","p730283","A38ZLNCTSUGW7","3S1L4CQSFYBD9IN1W8PCJQ1H8N7AFE","3YHH42UU5DL6VHX9GJ0IEHPDF8A0L0","emotion","match","uniform","","","","","","","","378186.6999999881","380199.40000000596","","","","","","","","","","","","8","","stimuli/stars_8.png","261","","","","","stimuli/HM02_FO.jpg","",""
"explore-choice","153","379759","0.0-153.0","p730283","A38ZLNCTSUGW7","3S1L4CQSFYBD9IN1W8PCJQ1H8N7AFE","3YHH42UU5DL6VHX9GJ0IEHPDF8A0L0","emotion","match","uniform","","","","","","","781.6999999880791","380200.09999999404","380981.7999999821","[""stimuli/BF04_FO.jpg"",""stimuli/BF06_SC.jpg"",""stimuli/HM02_AO.jpg"",""stimuli/AM03_DO.jpg""]","stimuli/BF04_FO.jpg","stimuli/BF06_SC.jpg","stimuli/HM02_AO.jpg","stimuli/AM03_DO.jpg","pos1","stimuli/BF04_FO.jpg","FO","BF04","0","3.5","7","8","stimuli/stars_7.png","264.5","[""FO"",""SC"",""AO"",""DO""]","[""BF04"",""BF06"",""HM02"",""AM03""]","[7,4,6,5]","[8,2,6,4]","","",""
"show-reward","154","381766","0.0-154.0","p730283","A38ZLNCTSUGW7","3S1L4CQSFYBD9IN1W8PCJQ1H8N7AFE","3YHH42UU5DL6VHX9GJ0IEHPDF8A0L0","emotion","match","uniform","","","","","","","","381492.40000000596","383498.6999999881","","","","","","","","","","","","7","","stimuli/stars_7.png","264.5","","","","","stimuli/BF04_FO.jpg","",""
"explore-choice","155","383756","0.0-155.0","p730283","A38ZLNCTSUGW7","3S1L4CQSFYBD9IN1W8PCJQ1H8N7AFE","3YHH42UU5DL6VHX9GJ0IEHPDF8A0L0","emotion","match","uniform","","","","","","","1476.5","383499.59999999404","384976.09999999404","[""stimuli/BF04_FO.jpg"",""stimuli/HM02_SC.jpg"",""stimuli/BF06_DO.jpg"",""stimuli/AM03_AO.jpg""]","stimuli/BF04_FO.jpg","stimuli/HM02_SC.jpg","stimuli/BF06_DO.jpg","stimuli/AM03_AO.jpg","pos1","stimuli/BF04_FO.jpg","FO","BF04","0","3.5","7","8","stimuli/stars_7.png","268","[""FO"",""SC"",""DO"",""AO""]","[""BF04"",""HM02"",""BF06"",""AM03""]","[7,4,5,7]","[8,2,4,6]","","",""
"show-reward","156","385758","0.0-156.0","p730283","A38ZLNCTSUGW7","3S1L4CQSFYBD9IN1W8PCJQ1H8N7AFE","3YHH42UU5DL6VHX9GJ0IEHPDF8A0L0","emotion","match","uniform","","","","","","","","385490.1999999881","387491.09999999404","","","","","","","","","","","","7","","stimuli/stars_7.png","268","","","","","stimuli/BF04_FO.jpg","",""
"explore-choice","157","388061","0.0-157.0","p730283","A38ZLNCTSUGW7","3S1L4CQSFYBD9IN1W8PCJQ1H8N7AFE","3YHH42UU5DL6VHX9GJ0IEHPDF8A0L0","emotion","match","uniform","","","","","","","1791.4000000059605","387491.6999999881","389283.09999999404","[""stimuli/BF06_DO.jpg"",""stimuli/BF04_AO.jpg"",""stimuli/AM03_SC.jpg"",""stimuli/HM02_FO.jpg""]","stimuli/BF06_DO.jpg","stimuli/BF04_AO.jpg","stimuli/AM03_SC.jpg","stimuli/HM02_FO.jpg","pos4","stimuli/HM02_FO.jpg","FO","HM02","3","4.5","9","8","stimuli/stars_9.png","272.5","[""DO"",""AO"",""SC"",""FO""]","[""BF06"",""BF04"",""AM03"",""HM02""]","[2,8,4,9]","[4,6,2,8]","","",""
"show-reward","158","390072","0.0-158.0","p730283","A38ZLNCTSUGW7","3S1L4CQSFYBD9IN1W8PCJQ1H8N7AFE","3YHH42UU5DL6VHX9GJ0IEHPDF8A0L0","emotion","match","uniform","","","","","","","","389794.59999999404","391805.1999999881","","","","","","","","","","","","9","","stimuli/stars_9.png","272.5","","","","","stimuli/HM02_FO.jpg","",""
"explore-choice","159","392097","0.0-159.0","p730283","A38ZLNCTSUGW7","3S1L4CQSFYBD9IN1W8PCJQ1H8N7AFE","3YHH42UU5DL6VHX9GJ0IEHPDF8A0L0","emotion","match","uniform","","","","","","","1524.1000000238419","391805.7999999821","393329.90000000596","[""stimuli/HM02_DO.jpg"",""stimuli/AM03_SC.jpg"",""stimuli/BF04_FO.jpg"",""stimuli/BF06_AO.jpg""]","stimuli/HM02_DO.jpg","stimuli/AM03_SC.jpg","stimuli/BF04_FO.jpg","stimuli/BF06_AO.jpg","pos3","stimuli/BF04_FO.jpg","FO","BF04","2","3.5","7","8","stimuli/stars_7.png","276","[""DO"",""SC"",""FO"",""AO""]","[""HM02"",""AM03"",""BF04"",""BF06""]","[6,2,7,8]","[4,2,8,6]","","",""
"show-reward","160","394111","0.0-160.0","p730283","A38ZLNCTSUGW7","3S1L4CQSFYBD9IN1W8PCJQ1H8N7AFE","3YHH42UU5DL6VHX9GJ0IEHPDF8A0L0","emotion","match","uniform","","","","","","","","393831.09999999404","395843.6999999881","","","","","","","","","","","","7","","stimuli/stars_7.png","276","","","","","stimuli/BF04_FO.jpg","",""
"explore-choice","161","397634","0.0-161.0","p730283","A38ZLNCTSUGW7","3S1L4CQSFYBD9IN1W8PCJQ1H8N7AFE","3YHH42UU5DL6VHX9GJ0IEHPDF8A0L0","emotion","match","uniform","","","","","","","3018.5","395844.40000000596","398862.90000000596","[""stimuli/AM03_FO.jpg"",""stimuli/BF06_DO.jpg"",""stimuli/HM02_SC.jpg"",""stimuli/BF04_AO.jpg""]","stimuli/AM03_FO.jpg","stimuli/BF06_DO.jpg","stimuli/HM02_SC.jpg","stimuli/BF04_AO.jpg","pos1","stimuli/AM03_FO.jpg","FO","AM03","0","4","8","8","stimuli/stars_8.png","280","[""FO"",""DO"",""SC"",""AO""]","[""AM03"",""BF06"",""HM02"",""BF04""]","[8,5,2,5]","[8,4,2,6]","","",""
"show-reward","162","399641","0.0-162.0","p730283","A38ZLNCTSUGW7","3S1L4CQSFYBD9IN1W8PCJQ1H8N7AFE","3YHH42UU5DL6VHX9GJ0IEHPDF8A0L0","emotion","match","uniform","","","","","","","","399368.1999999881","401373.7999999821","","","","","","","","","","","","8","","stimuli/stars_8.png","280","","","","","stimuli/AM03_FO.jpg","",""
"explore-choice","163","402001","0.0-163.0","p730283","A38ZLNCTSUGW7","3S1L4CQSFYBD9IN1W8PCJQ1H8N7AFE","3YHH42UU5DL6VHX9GJ0IEHPDF8A0L0","emotion","match","uniform","","","","","","","1854.5","401374.5","403229","[""stimuli/BF06_DO.jpg"",""stimuli/AM03_AO.jpg"",""stimuli/HM02_FO.jpg"",""stimuli/BF04_SC.jpg""]","stimuli/BF06_DO.jpg","stimuli/AM03_AO.jpg","stimuli/HM02_FO.jpg","stimuli/BF04_SC.jpg","pos3","stimuli/HM02_FO.jpg","FO","HM02","2","4","8","8","stimuli/stars_8.png","284","[""DO"",""AO"",""FO"",""SC""]","[""BF06"",""AM03"",""HM02"",""BF04""]","[3,4,8,1]","[4,6,8,2]","","",""
"show-reward","164","404011","0.0-164.0","p730283","A38ZLNCTSUGW7","3S1L4CQSFYBD9IN1W8PCJQ1H8N7AFE","3YHH42UU5DL6VHX9GJ0IEHPDF8A0L0","emotion","match","uniform","","","","","","","","403735.09999999404","405744","","","","","","","","","","","","8","","stimuli/stars_8.png","284","","","","","stimuli/HM02_FO.jpg","",""
"explore-choice","165","406171","0.0-165.0","p730283","A38ZLNCTSUGW7","3S1L4CQSFYBD9IN1W8PCJQ1H8N7AFE","3YHH42UU5DL6VHX9GJ0IEHPDF8A0L0","emotion","match","uniform","","","","","","","1655.4000000059605","405744.59999999404","407400","[""stimuli/BF04_FO.jpg"",""stimuli/BF06_SC.jpg"",""stimuli/HM02_DO.jpg"",""stimuli/AM03_AO.jpg""]","stimuli/BF04_FO.jpg","stimuli/BF06_SC.jpg","stimuli/HM02_DO.jpg","stimuli/AM03_AO.jpg","pos1","stimuli/BF04_FO.jpg","FO","BF04","0","3.5","7","8","stimuli/stars_7.png","287.5","[""FO"",""SC"",""DO"",""AO""]","[""BF04"",""BF06"",""HM02"",""AM03""]","[7,1,5,6]","[8,2,4,6]","","",""
"show-reward","166","408182","0.0-166.0","p730283","A38ZLNCTSUGW7","3S1L4CQSFYBD9IN1W8PCJQ1H8N7AFE","3YHH42UU5DL6VHX9GJ0IEHPDF8A0L0","emotion","match","uniform","","","","","","","","407904.6999999881","409915.2999999821","","","","","","","","","","","","7","","stimuli/stars_7.png","287.5","","","","","stimuli/BF04_FO.jpg","",""
"explore-choice","167","410809","0.0-167.0","p730283","A38ZLNCTSUGW7","3S1L4CQSFYBD9IN1W8PCJQ1H8N7AFE","3YHH42UU5DL6VHX9GJ0IEHPDF8A0L0","emotion","match","uniform","","","","","","","2125.0999999940395","409915.90000000596","412041","[""stimuli/AM03_SC.jpg"",""stimuli/BF06_DO.jpg"",""stimuli/HM02_AO.jpg"",""stimuli/BF04_FO.jpg""]","stimuli/AM03_SC.jpg","stimuli/BF06_DO.jpg","stimuli/HM02_AO.jpg","stimuli/BF04_FO.jpg","pos4","stimuli/BF04_FO.jpg","FO","BF04","3","3.5","7","8","stimuli/stars_7.png","291","[""SC"",""DO"",""AO"",""FO""]","[""AM03"",""BF06"",""HM02"",""BF04""]","[2,3,8,7]","[2,4,6,8]","","",""
"show-reward","168","412811","0.0-168.0","p730283","A38ZLNCTSUGW7","3S1L4CQSFYBD9IN1W8PCJQ1H8N7AFE","3YHH42UU5DL6VHX9GJ0IEHPDF8A0L0","emotion","match","uniform","","","","","","","","412542","414543.5","","","","","","","","","","","","7","","stimuli/stars_7.png","291","","","","","stimuli/BF04_FO.jpg","",""
"explore-choice","169","414863","0.0-169.0","p730283","A38ZLNCTSUGW7","3S1L4CQSFYBD9IN1W8PCJQ1H8N7AFE","3YHH42UU5DL6VHX9GJ0IEHPDF8A0L0","emotion","match","uniform","","","","","","","1543.9000000059605","414544.09999999404","416088","[""stimuli/BF06_DO.jpg"",""stimuli/HM02_AO.jpg"",""stimuli/AM03_FO.jpg"",""stimuli/BF04_SC.jpg""]","stimuli/BF06_DO.jpg","stimuli/HM02_AO.jpg","stimuli/AM03_FO.jpg","stimuli/BF04_SC.jpg","pos3","stimuli/AM03_FO.jpg","FO","AM03","2","4.5","9","8","stimuli/stars_9.png","295.5","[""DO"",""AO"",""FO"",""SC""]","[""BF06"",""HM02"",""AM03"",""BF04""]","[2,6,9,1]","[4,6,8,2]","","",""
"show-reward","170","416873","0.0-170.0","p730283","A38ZLNCTSUGW7","3S1L4CQSFYBD9IN1W8PCJQ1H8N7AFE","3YHH42UU5DL6VHX9GJ0IEHPDF8A0L0","emotion","match","uniform","","","","","","","","416596","418605.6999999881","","","","","","","","","","","","9","","stimuli/stars_9.png","295.5","","","","","stimuli/AM03_FO.jpg","",""
"explore-choice","171","419161","0.0-171.0","p730283","A38ZLNCTSUGW7","3S1L4CQSFYBD9IN1W8PCJQ1H8N7AFE","3YHH42UU5DL6VHX9GJ0IEHPDF8A0L0","emotion","match","uniform","","","","","","","1773.2999999821186","418606.40000000596","420379.6999999881","[""stimuli/AM03_FO.jpg"",""stimuli/BF04_SC.jpg"",""stimuli/BF06_AO.jpg"",""stimuli/HM02_DO.jpg""]","stimuli/AM03_FO.jpg","stimuli/BF04_SC.jpg","stimuli/BF06_AO.jpg","stimuli/HM02_DO.jpg","pos1","stimuli/AM03_FO.jpg","FO","AM03","0","3.5","7","8","stimuli/stars_7.png","299","[""FO"",""SC"",""AO"",""DO""]","[""AM03"",""BF04"",""BF06"",""HM02""]","[7,3,8,4]","[8,2,6,4]","","",""
"show-reward","172","421175","0.0-172.0","p730283","A38ZLNCTSUGW7","3S1L4CQSFYBD9IN1W8PCJQ1H8N7AFE","3YHH42UU5DL6VHX9GJ0IEHPDF8A0L0","emotion","match","uniform","","","","","","","","420894.2999999821","422907.5","","","","","","","","","","","","7","","stimuli/stars_7.png","299","","","","","stimuli/AM03_FO.jpg","",""
"explore-choice","173","423736","0.0-173.0","p730283","A38ZLNCTSUGW7","3S1L4CQSFYBD9IN1W8PCJQ1H8N7AFE","3YHH42UU5DL6VHX9GJ0IEHPDF8A0L0","emotion","match","uniform","","","","","","","2046.5","422908.2999999821","424954.7999999821","[""stimuli/AM03_SC.jpg"",""stimuli/BF04_AO.jpg"",""stimuli/HM02_DO.jpg"",""stimuli/BF06_FO.jpg""]","stimuli/AM03_SC.jpg","stimuli/BF04_AO.jpg","stimuli/HM02_DO.jpg","stimuli/BF06_FO.jpg","pos4","stimuli/BF06_FO.jpg","FO","BF06","3","3","6","8","stimuli/stars_6.png","302","[""SC"",""AO"",""DO"",""FO""]","[""AM03"",""BF04"",""HM02"",""BF06""]","[2,7,2,6]","[2,6,4,8]","","",""
"show-reward","174","425742","0.0-174.0","p730283","A38ZLNCTSUGW7","3S1L4CQSFYBD9IN1W8PCJQ1H8N7AFE","3YHH42UU5DL6VHX9GJ0IEHPDF8A0L0","emotion","match","uniform","","","","","","","","425469.59999999404","427475","","","","","","","","","","","","6","","stimuli/stars_6.png","302","","","","","stimuli/BF06_FO.jpg","",""
"explore-choice","175","427988","0.0-175.0","p730283","A38ZLNCTSUGW7","3S1L4CQSFYBD9IN1W8PCJQ1H8N7AFE","3YHH42UU5DL6VHX9GJ0IEHPDF8A0L0","emotion","match","uniform","","","","","","","1730.4000000059605","427475.6999999881","429206.09999999404","[""stimuli/AM03_DO.jpg"",""stimuli/HM02_SC.jpg"",""stimuli/BF06_AO.jpg"",""stimuli/BF04_FO.jpg""]","stimuli/AM03_DO.jpg","stimuli/HM02_SC.jpg","stimuli/BF06_AO.jpg","stimuli/BF04_FO.jpg","pos4","stimuli/BF04_FO.jpg","FO","BF04","3","3","6","8","stimuli/stars_6.png","305","[""DO"",""SC"",""AO"",""FO""]","[""AM03"",""HM02"",""BF06"",""BF04""]","[5,0,6,6]","[4,2,6,8]","","",""
"show-reward","176","430000","0.0-176.0","p730283","A38ZLNCTSUGW7","3S1L4CQSFYBD9IN1W8PCJQ1H8N7AFE","3YHH42UU5DL6VHX9GJ0IEHPDF8A0L0","emotion","match","uniform","","","","","","","","429721.7999999821","431732.6999999881","","","","","","","","","","","","6","","stimuli/stars_6.png","305","","","","","stimuli/BF04_FO.jpg","",""
"explore-choice","177","432447","0.0-177.0","p730283","A38ZLNCTSUGW7","3S1L4CQSFYBD9IN1W8PCJQ1H8N7AFE","3YHH42UU5DL6VHX9GJ0IEHPDF8A0L0","emotion","match","uniform","","","","","","","1940.0999999940395","431733.5","433673.59999999404","[""stimuli/BF06_SC.jpg"",""stimuli/HM02_DO.jpg"",""stimuli/AM03_FO.jpg"",""stimuli/BF04_AO.jpg""]","stimuli/BF06_SC.jpg","stimuli/HM02_DO.jpg","stimuli/AM03_FO.jpg","stimuli/BF04_AO.jpg","pos3","stimuli/AM03_FO.jpg","FO","AM03","2","5","10","8","stimuli/stars_10.png","310","[""SC"",""DO"",""FO"",""AO""]","[""BF06"",""HM02"",""AM03"",""BF04""]","[3,6,10,8]","[2,4,8,6]","","",""
"show-reward","178","434455","0.0-178.0","p730283","A38ZLNCTSUGW7","3S1L4CQSFYBD9IN1W8PCJQ1H8N7AFE","3YHH42UU5DL6VHX9GJ0IEHPDF8A0L0","emotion","match","uniform","","","","","","","","434180.5","436187.6999999881","","","","","","","","","","","","10","","stimuli/stars_10.png","310","","","","","stimuli/AM03_FO.jpg","",""
"explore-choice","179","436651","0.0-179.0","p730283","A38ZLNCTSUGW7","3S1L4CQSFYBD9IN1W8PCJQ1H8N7AFE","3YHH42UU5DL6VHX9GJ0IEHPDF8A0L0","emotion","match","uniform","","","","","","","1687.6000000238419","436188.2999999821","437875.90000000596","[""stimuli/BF06_FO.jpg"",""stimuli/BF04_AO.jpg"",""stimuli/HM02_SC.jpg"",""stimuli/AM03_DO.jpg""]","stimuli/BF06_FO.jpg","stimuli/BF04_AO.jpg","stimuli/HM02_SC.jpg","stimuli/AM03_DO.jpg","pos1","stimuli/BF06_FO.jpg","FO","BF06","0","5","10","8","stimuli/stars_10.png","315","[""FO"",""AO"",""SC"",""DO""]","[""BF06"",""BF04"",""HM02"",""AM03""]","[10,5,4,3]","[8,6,2,4]","","",""
"show-reward","180","438666","0.0-180.0","p730283","A38ZLNCTSUGW7","3S1L4CQSFYBD9IN1W8PCJQ1H8N7AFE","3YHH42UU5DL6VHX9GJ0IEHPDF8A0L0","emotion","match","uniform","","","","","","","","438384.09999999404","440399.1999999881","","","","","","","","","","","","10","","stimuli/stars_10.png","315","","","","","stimuli/BF06_FO.jpg","",""
"explore-choice","181","441053","0.0-181.0","p730283","A38ZLNCTSUGW7","3S1L4CQSFYBD9IN1W8PCJQ1H8N7AFE","3YHH42UU5DL6VHX9GJ0IEHPDF8A0L0","emotion","match","uniform","","","","","","","1871.8999999761581","440399.90000000596","442271.7999999821","[""stimuli/HM02_AO.jpg"",""stimuli/BF04_DO.jpg"",""stimuli/BF06_SC.jpg"",""stimuli/AM03_FO.jpg""]","stimuli/HM02_AO.jpg","stimuli/BF04_DO.jpg","stimuli/BF06_SC.jpg","stimuli/AM03_FO.jpg","pos4","stimuli/AM03_FO.jpg","FO","AM03","3","5","10","8","stimuli/stars_10.png","320","[""AO"",""DO"",""SC"",""FO""]","[""HM02"",""BF04"",""BF06"",""AM03""]","[6,5,4,10]","[6,4,2,8]","","",""
"show-reward","182","443061","0.0-182.0","p730283","A38ZLNCTSUGW7","3S1L4CQSFYBD9IN1W8PCJQ1H8N7AFE","3YHH42UU5DL6VHX9GJ0IEHPDF8A0L0","emotion","match","uniform","","","","","","","","442786.40000000596","444793.59999999404","","","","","","","","","","","","10","","stimuli/stars_10.png","320","","","","","stimuli/AM03_FO.jpg","",""
"explore-choice","183","445664","0.0-183.0","p730283","A38ZLNCTSUGW7","3S1L4CQSFYBD9IN1W8PCJQ1H8N7AFE","3YHH42UU5DL6VHX9GJ0IEHPDF8A0L0","emotion","match","uniform","","","","","","","2090.5999999940395","444794.40000000596","446885","[""stimuli/BF06_SC.jpg"",""stimuli/HM02_FO.jpg"",""stimuli/AM03_AO.jpg"",""stimuli/BF04_DO.jpg""]","stimuli/BF06_SC.jpg","stimuli/HM02_FO.jpg","stimuli/AM03_AO.jpg","stimuli/BF04_DO.jpg","pos2","stimuli/HM02_FO.jpg","FO","HM02","1","3.5","7","8","stimuli/stars_7.png","323.5","[""SC"",""FO"",""AO"",""DO""]","[""BF06"",""HM02"",""AM03"",""BF04""]","[4,7,8,2]","[2,8,6,4]","","",""
"show-reward","184","447676","0.0-184.0","p730283","A38ZLNCTSUGW7","3S1L4CQSFYBD9IN1W8PCJQ1H8N7AFE","3YHH42UU5DL6VHX9GJ0IEHPDF8A0L0","emotion","match","uniform","","","","","","","","447397.5","449408.6999999881","","","","","","","","","","","","7","","stimuli/stars_7.png","323.5","","","","","stimuli/HM02_FO.jpg","",""
"explore-choice","185","450837","0.0-185.0","p730283","A38ZLNCTSUGW7","3S1L4CQSFYBD9IN1W8PCJQ1H8N7AFE","3YHH42UU5DL6VHX9GJ0IEHPDF8A0L0","emotion","match","uniform","","","","","","","2648.5","449409.40000000596","452057.90000000596","[""stimuli/HM02_SC.jpg"",""stimuli/BF04_DO.jpg"",""stimuli/BF06_FO.jpg"",""stimuli/AM03_AO.jpg""]","stimuli/HM02_SC.jpg","stimuli/BF04_DO.jpg","stimuli/BF06_FO.jpg","stimuli/AM03_AO.jpg","pos3","stimuli/BF06_FO.jpg","FO","BF06","2","3.5","7","8","stimuli/stars_7.png","327","[""SC"",""DO"",""FO"",""AO""]","[""HM02"",""BF04"",""BF06"",""AM03""]","[0,2,7,4]","[2,4,8,6]","","",""
"show-reward","186","452847","0.0-186.0","p730283","A38ZLNCTSUGW7","3S1L4CQSFYBD9IN1W8PCJQ1H8N7AFE","3YHH42UU5DL6VHX9GJ0IEHPDF8A0L0","emotion","match","uniform","","","","","","","","452571","454579.59999999404","","","","","","","","","","","","7","","stimuli/stars_7.png","327","","","","","stimuli/BF06_FO.jpg","",""
"explore-choice","187","454919","0.0-187.0","p730283","A38ZLNCTSUGW7","3S1L4CQSFYBD9IN1W8PCJQ1H8N7AFE","3YHH42UU5DL6VHX9GJ0IEHPDF8A0L0","emotion","match","uniform","","","","","","","1562.5999999940395","454580.1999999881","456142.7999999821","[""stimuli/AM03_DO.jpg"",""stimuli/BF06_AO.jpg"",""stimuli/BF04_SC.jpg"",""stimuli/HM02_FO.jpg""]","stimuli/AM03_DO.jpg","stimuli/BF06_AO.jpg","stimuli/BF04_SC.jpg","stimuli/HM02_FO.jpg","pos1","stimuli/AM03_DO.jpg","DO","AM03","0","2.5","5","4","stimuli/stars_5.png","329.5","[""DO"",""AO"",""SC"",""FO""]","[""AM03"",""BF06"",""BF04"",""HM02""]","[5,6,1,10]","[4,6,2,8]","","",""
"show-reward","188","456926","0.0-188.0","p730283","A38ZLNCTSUGW7","3S1L4CQSFYBD9IN1W8PCJQ1H8N7AFE","3YHH42UU5DL6VHX9GJ0IEHPDF8A0L0","emotion","match","uniform","","","","","","","","456652.90000000596","458659.1999999881","","","","","","","","","","","","5","","stimuli/stars_5.png","329.5","","","","","stimuli/AM03_DO.jpg","",""
"explore-choice","189","460109","0.0-189.0","p730283","A38ZLNCTSUGW7","3S1L4CQSFYBD9IN1W8PCJQ1H8N7AFE","3YHH42UU5DL6VHX9GJ0IEHPDF8A0L0","emotion","match","uniform","","","","","","","2670.2000000178814","458659.6999999881","461329.90000000596","[""stimuli/BF04_SC.jpg"",""stimuli/AM03_DO.jpg"",""stimuli/HM02_AO.jpg"",""stimuli/BF06_FO.jpg""]","stimuli/BF04_SC.jpg","stimuli/AM03_DO.jpg","stimuli/HM02_AO.jpg","stimuli/BF06_FO.jpg","pos4","stimuli/BF06_FO.jpg","FO","BF06","3","4","8","8","stimuli/stars_8.png","333.5","[""SC"",""DO"",""AO"",""FO""]","[""BF04"",""AM03"",""HM02"",""BF06""]","[3,6,4,8]","[2,4,6,8]","","",""
"show-reward","190","462112","0.0-190.0","p730283","A38ZLNCTSUGW7","3S1L4CQSFYBD9IN1W8PCJQ1H8N7AFE","3YHH42UU5DL6VHX9GJ0IEHPDF8A0L0","emotion","match","uniform","","","","","","","","461842.2999999821","463844.40000000596","","","","","","","","","","","","8","","stimuli/stars_8.png","333.5","","","","","stimuli/BF06_FO.jpg","",""
"explore-choice","191","464382","0.0-191.0","p730283","A38ZLNCTSUGW7","3S1L4CQSFYBD9IN1W8PCJQ1H8N7AFE","3YHH42UU5DL6VHX9GJ0IEHPDF8A0L0","emotion","match","uniform","","","","","","","1756.800000011921","463844.7999999821","465601.59999999404","[""stimuli/AM03_FO.jpg"",""stimuli/HM02_SC.jpg"",""stimuli/BF06_AO.jpg"",""stimuli/BF04_DO.jpg""]","stimuli/AM03_FO.jpg","stimuli/HM02_SC.jpg","stimuli/BF06_AO.jpg","stimuli/BF04_DO.jpg","pos1","stimuli/AM03_FO.jpg","FO","AM03","0","4","8","8","stimuli/stars_8.png","337.5","[""FO"",""SC"",""AO"",""DO""]","[""AM03"",""HM02"",""BF06"",""BF04""]","[8,4,6,4]","[8,2,6,4]","","",""
"show-reward","192","466390","0.0-192.0","p730283","A38ZLNCTSUGW7","3S1L4CQSFYBD9IN1W8PCJQ1H8N7AFE","3YHH42UU5DL6VHX9GJ0IEHPDF8A0L0","emotion","match","uniform","","","","","","","","466115.6999999881","468122.59999999404","","","","","","","","","","","","8","","stimuli/stars_8.png","337.5","","","","","stimuli/AM03_FO.jpg","",""
"explore-choice","193","467976","0.0-193.0","p730283","A38ZLNCTSUGW7","3S1L4CQSFYBD9IN1W8PCJQ1H8N7AFE","3YHH42UU5DL6VHX9GJ0IEHPDF8A0L0","emotion","match","uniform","","","","","","","1085.4000000059605","468123.2999999821","469208.6999999881","[""stimuli/BF06_FO.jpg"",""stimuli/HM02_AO.jpg"",""stimuli/BF04_DO.jpg"",""stimuli/AM03_SC.jpg""]","stimuli/BF06_FO.jpg","stimuli/HM02_AO.jpg","stimuli/BF04_DO.jpg","stimuli/AM03_SC.jpg","pos1","stimuli/BF06_FO.jpg","FO","BF06","0","3.5","7","8","stimuli/stars_7.png","341","[""FO"",""AO"",""DO"",""SC""]","[""BF06"",""HM02"",""BF04"",""AM03""]","[7,6,3,2]","[8,6,4,2]","","",""
"show-reward","194","469984","0.0-194.0","p730283","A38ZLNCTSUGW7","3S1L4CQSFYBD9IN1W8PCJQ1H8N7AFE","3YHH42UU5DL6VHX9GJ0IEHPDF8A0L0","emotion","match","uniform","","","","","","","","469709.6999999881","471716.59999999404","","","","","","","","","","","","7","","stimuli/stars_7.png","341","","","","","stimuli/BF06_FO.jpg","",""
"explore-choice","195","472446","0.0-195.0","p730283","A38ZLNCTSUGW7","3S1L4CQSFYBD9IN1W8PCJQ1H8N7AFE","3YHH42UU5DL6VHX9GJ0IEHPDF8A0L0","emotion","match","uniform","","","","","","","1960.9000000059605","471717.09999999404","473678","[""stimuli/AM03_SC.jpg"",""stimuli/BF04_DO.jpg"",""stimuli/BF06_AO.jpg"",""stimuli/HM02_FO.jpg""]","stimuli/AM03_SC.jpg","stimuli/BF04_DO.jpg","stimuli/BF06_AO.jpg","stimuli/HM02_FO.jpg","pos4","stimuli/HM02_FO.jpg","FO","HM02","3","3.5","7","8","stimuli/stars_7.png","344.5","[""SC"",""DO"",""AO"",""FO""]","[""AM03"",""BF04"",""BF06"",""HM02""]","[1,5,6,7]","[2,4,6,8]","","",""
"show-reward","196","474448","0.0-196.0","p730283","A38ZLNCTSUGW7","3S1L4CQSFYBD9IN1W8PCJQ1H8N7AFE","3YHH42UU5DL6VHX9GJ0IEHPDF8A0L0","emotion","match","uniform","","","","","","","","474179.90000000596","476181.1999999881","","","","","","","","","","","","7","","stimuli/stars_7.png","344.5","","","","","stimuli/HM02_FO.jpg","",""
"explore-choice","197","476503","0.0-197.0","p730283","A38ZLNCTSUGW7","3S1L4CQSFYBD9IN1W8PCJQ1H8N7AFE","3YHH42UU5DL6VHX9GJ0IEHPDF8A0L0","emotion","match","uniform","","","","","","","1538.800000011921","476181.7999999821","477720.59999999404","[""stimuli/HM02_DO.jpg"",""stimuli/BF06_FO.jpg"",""stimuli/BF04_SC.jpg"",""stimuli/AM03_AO.jpg""]","stimuli/HM02_DO.jpg","stimuli/BF06_FO.jpg","stimuli/BF04_SC.jpg","stimuli/AM03_AO.jpg","pos2","stimuli/BF06_FO.jpg","FO","BF06","1","4.5","9","8","stimuli/stars_9.png","349","[""DO"",""FO"",""SC"",""AO""]","[""HM02"",""BF06"",""BF04"",""AM03""]","[3,9,4,7]","[4,8,2,6]","","",""
"show-reward","198","478518","0.0-198.0","p730283","A38ZLNCTSUGW7","3S1L4CQSFYBD9IN1W8PCJQ1H8N7AFE","3YHH42UU5DL6VHX9GJ0IEHPDF8A0L0","emotion","match","uniform","","","","","","","","478236.6999999881","480251","","","","","","","","","","","","9","","stimuli/stars_9.png","349","","","","","stimuli/BF06_FO.jpg","",""
"instructions","199","484065","0.0-199.0","p730283","A38ZLNCTSUGW7","3S1L4CQSFYBD9IN1W8PCJQ1H8N7AFE","3YHH42UU5DL6VHX9GJ0IEHPDF8A0L0","emotion","match","uniform","","","","","","[{""page_index"":0,""viewing_time"":5546}]","5546.5999999940395","","","","","","","","","","","","","","","","","","","","","","","",""
"survey-text","200","487211","0.0-200.0-0.0","p730283","A38ZLNCTSUGW7","3S1L4CQSFYBD9IN1W8PCJQ1H8N7AFE","3YHH42UU5DL6VHX9GJ0IEHPDF8A0L0","emotion","match","uniform","","","","","","","3142.5","","","","","","","","","","","","","","","","","","","","","","","{""age"":""39""}",""
"survey-text","201","490469","0.0-200.0-1.0","p730283","A38ZLNCTSUGW7","3S1L4CQSFYBD9IN1W8PCJQ1H8N7AFE","3YHH42UU5DL6VHX9GJ0IEHPDF8A0L0","emotion","match","uniform","","","","","","","3255.5999999940395","","","","","","","","","","","","","","","","","","","","","","","{""gender"":""male""}",""
"survey-text","202","498934","0.0-200.0-2.0","p730283","A38ZLNCTSUGW7","3S1L4CQSFYBD9IN1W8PCJQ1H8N7AFE","3YHH42UU5DL6VHX9GJ0IEHPDF8A0L0","emotion","match","uniform","","","","","","","8464","","","","","","","","","","","","","","","","","","","","","","","{""country"":""United States""}",""
"survey-text","203","506251","0.0-200.0-3.0","p730283","A38ZLNCTSUGW7","3S1L4CQSFYBD9IN1W8PCJQ1H8N7AFE","3YHH42UU5DL6VHX9GJ0IEHPDF8A0L0","emotion","match","uniform","","","","","","","7315.199999988079","","","","","","","","","","","","","","","","","","","","","","","{""language"":""English"",""other_languages"":""none""}",""
"survey-multi-select","204","508026","0.0-201.0","p730283","A38ZLNCTSUGW7","3S1L4CQSFYBD9IN1W8PCJQ1H8N7AFE","3YHH42UU5DL6VHX9GJ0IEHPDF8A0L0","emotion","match","uniform","","","","","","","1771","","","","","","","","","","","","","","","","","","","","","","","{""race"":[""White""]}","[0]"
"survey-multi-choice","205","511720","0.0-202.0","p730283","A38ZLNCTSUGW7","3S1L4CQSFYBD9IN1W8PCJQ1H8N7AFE","3YHH42UU5DL6VHX9GJ0IEHPDF8A0L0","emotion","match","uniform","","","","","","","3693","","","","","","","","","","","","","","","","","","","","","","","{""education"":""Some college/ university""}","[0]"
"survey-text","206","566903","0.0-203.0","p730283","A38ZLNCTSUGW7","3S1L4CQSFYBD9IN1W8PCJQ1H8N7AFE","3YHH42UU5DL6VHX9GJ0IEHPDF8A0L0","emotion","match","uniform","","","","","","","55178","","","","","","","","","","","","","","","","","","","","","","","{""patterns"":""First, it seemed the happiest face with a mouth open and then it seemed the most scared face with a mouth open"",""strategy"":""I chose the picture that fit the trend I noticed and then picked the pictures I new would give high star values."",""comments"":""none""}",""
