"trial_type","trial_index","time_elapsed","internal_node_id","subject","workerId","hitId","assignmentId","structure_condition","match_condition","noise_type","success","timeout","failed_images","failed_audio","failed_video","view_history","rt","start_time","end_time","stimuli","image1","image2","image3","image4","choiceLocation","choiceImage","choiceEmotion","choiceModel","choice_index","reward_score","reward","reward_score_unadjusted","reward_image","score_after_trial","emotions","models","rewards","rewards_unadjusted","stimulus","response","question_order"
"pavlovia","0","18","0.0-0.0","p202920","A1LJT9OW9UR4GF","3OWZNK3RYMVDNXPNEIRWZ8JM6MU2UY","3OVR4I9USRPYL2VNRPVG76EK6QD4Q9","emotion","mismatch","uniform","","","","","","","","","","","","","","","","","","","","","","","","","","","","","","",""
"preload","1","4487","0.0-1.0","p202920","A1LJT9OW9UR4GF","3OWZNK3RYMVDNXPNEIRWZ8JM6MU2UY","3OVR4I9USRPYL2VNRPVG76EK6QD4Q9","emotion","mismatch","uniform","true","false","[]","[]","[]","","","","","","","","","","","","","","","","","","","","","","","","","",""
"fullscreen","2","11436","0.0-2.0","p202920","A1LJT9OW9UR4GF","3OWZNK3RYMVDNXPNEIRWZ8JM6MU2UY","3OVR4I9USRPYL2VNRPVG76EK6QD4Q9","emotion","mismatch","uniform","true","","","","","","","","","","","","","","","","","","","","","","","","","","","","","",""
"instructions","3","13412","0.0-3.0","p202920","A1LJT9OW9UR4GF","3OWZNK3RYMVDNXPNEIRWZ8JM6MU2UY","3OVR4I9USRPYL2VNRPVG76EK6QD4Q9","emotion","mismatch","uniform","","","","","","[{""page_index"":0,""viewing_time"":1972}]","1972","","","","","","","","","","","","","","","","","","","","","","","",""
"explore-choice","4","19317","0.0-4.0","p202920","A1LJT9OW9UR4GF","3OWZNK3RYMVDNXPNEIRWZ8JM6MU2UY","3OVR4I9USRPYL2VNRPVG76EK6QD4Q9","emotion","mismatch","uniform","","","","","","","5401","15944","21345","[""stimuli/sheep.jpg"",""stimuli/hammer.jpg"",""stimuli/basketball.jpg"",""stimuli/horse.jpg""]","stimuli/sheep.jpg","stimuli/hammer.jpg","stimuli/basketball.jpg","stimuli/horse.jpg","pos4","stimuli/horse.jpg","","","3","64","64","64","stimuli/stars_8.png","65","","","","","","",""
"explore-choice","5","29834","0.0-5.0","p202920","A1LJT9OW9UR4GF","3OWZNK3RYMVDNXPNEIRWZ8JM6MU2UY","3OVR4I9USRPYL2VNRPVG76EK6QD4Q9","emotion","mismatch","uniform","","","","","","","10012","21849","31861","[""stimuli/hammer.jpg"",""stimuli/basketball.jpg"",""stimuli/horse.jpg"",""stimuli/sheep.jpg""]","stimuli/hammer.jpg","stimuli/basketball.jpg","stimuli/horse.jpg","stimuli/sheep.jpg","pos1","stimuli/hammer.jpg","","","0","8","8","8","stimuli/stars_2.png","9","","","","","","",""
"instructions","6","31583","0.0-6.0","p202920","A1LJT9OW9UR4GF","3OWZNK3RYMVDNXPNEIRWZ8JM6MU2UY","3OVR4I9USRPYL2VNRPVG76EK6QD4Q9","emotion","mismatch","uniform","","","","","","[{""page_index"":0,""viewing_time"":1746}]","1746","","","","","","","","","","","","","","","","","","","","","","","",""
"explore-choice","7","37515","0.0-7.0","p202920","A1LJT9OW9UR4GF","3OWZNK3RYMVDNXPNEIRWZ8JM6MU2UY","3OVR4I9USRPYL2VNRPVG76EK6QD4Q9","emotion","mismatch","uniform","","","","","","","5427","34117","39544","[""stimuli/BF04_SUR.jpg"",""stimuli/HM09_CC.jpg"",""stimuli/BF06_DO.jpg"",""stimuli/AM03_FO.jpg""]","stimuli/BF04_SUR.jpg","stimuli/HM09_CC.jpg","stimuli/BF06_DO.jpg","stimuli/AM03_FO.jpg","pos1","stimuli/BF04_SUR.jpg","SUR","BF04","0","3","6","8","stimuli/stars_6.png","4","[""SUR"",""CC"",""DO"",""FO""]","[""BF04"",""HM09"",""BF06"",""AM03""]","[6,0,2,7]","[8,2,4,6]","","",""
"show-reward","8","39527","0.0-8.0","p202920","A1LJT9OW9UR4GF","3OWZNK3RYMVDNXPNEIRWZ8JM6MU2UY","3OVR4I9USRPYL2VNRPVG76EK6QD4Q9","emotion","mismatch","uniform","","","","","","","","40051","42056","","","","","","","","","","","","6","","stimuli/stars_6.png","4","","","","","stimuli/BF04_SUR.jpg","",""
"explore-choice","9","43694","0.0-9.0","p202920","A1LJT9OW9UR4GF","3OWZNK3RYMVDNXPNEIRWZ8JM6MU2UY","3OVR4I9USRPYL2VNRPVG76EK6QD4Q9","emotion","mismatch","uniform","","","","","","","3663","42060","45723","[""stimuli/HM09_FO.jpg"",""stimuli/BF04_SUR.jpg"",""stimuli/BF06_CC.jpg"",""stimuli/AM03_DO.jpg""]","stimuli/HM09_FO.jpg","stimuli/BF04_SUR.jpg","stimuli/BF06_CC.jpg","stimuli/AM03_DO.jpg","pos2","stimuli/BF04_SUR.jpg","SUR","BF04","1","3.5","7","8","stimuli/stars_7.png","7.5","[""FO"",""SUR"",""CC"",""DO""]","[""HM09"",""BF04"",""BF06"",""AM03""]","[7,7,4,5]","[6,8,2,4]","","",""
"show-reward","10","45703","0.0-10.0","p202920","A1LJT9OW9UR4GF","3OWZNK3RYMVDNXPNEIRWZ8JM6MU2UY","3OVR4I9USRPYL2VNRPVG76EK6QD4Q9","emotion","mismatch","uniform","","","","","","","","46226","48232","","","","","","","","","","","","7","","stimuli/stars_7.png","7.5","","","","","stimuli/BF04_SUR.jpg","",""
"explore-choice","11","49142","0.0-11.0","p202920","A1LJT9OW9UR4GF","3OWZNK3RYMVDNXPNEIRWZ8JM6MU2UY","3OVR4I9USRPYL2VNRPVG76EK6QD4Q9","emotion","mismatch","uniform","","","","","","","2937","48234","51171","[""stimuli/AM03_CC.jpg"",""stimuli/BF04_DO.jpg"",""stimuli/BF06_SUR.jpg"",""stimuli/HM09_FO.jpg""]","stimuli/AM03_CC.jpg","stimuli/BF04_DO.jpg","stimuli/BF06_SUR.jpg","stimuli/HM09_FO.jpg","pos1","stimuli/AM03_CC.jpg","CC","AM03","0","0.5","1","2","stimuli/stars_1.png","8","[""CC"",""DO"",""SUR"",""FO""]","[""AM03"",""BF04"",""BF06"",""HM09""]","[1,6,10,7]","[2,4,8,6]","","",""
"show-reward","12","51150","0.0-12.0","p202920","A1LJT9OW9UR4GF","3OWZNK3RYMVDNXPNEIRWZ8JM6MU2UY","3OVR4I9USRPYL2VNRPVG76EK6QD4Q9","emotion","mismatch","uniform","","","","","","","","51674","53679","","","","","","","","","","","","1","","stimuli/stars_1.png","8","","","","","stimuli/AM03_CC.jpg","",""
"explore-choice","13","53052","0.0-13.0","p202920","A1LJT9OW9UR4GF","3OWZNK3RYMVDNXPNEIRWZ8JM6MU2UY","3OVR4I9USRPYL2VNRPVG76EK6QD4Q9","emotion","mismatch","uniform","","","","","","","1398","53682","55080","[""stimuli/BF04_DO.jpg"",""stimuli/AM03_CC.jpg"",""stimuli/BF06_FO.jpg"",""stimuli/HM09_SUR.jpg""]","stimuli/BF04_DO.jpg","stimuli/AM03_CC.jpg","stimuli/BF06_FO.jpg","stimuli/HM09_SUR.jpg","pos4","stimuli/HM09_SUR.jpg","SUR","HM09","3","3.5","7","8","stimuli/stars_7.png","11.5","[""DO"",""CC"",""FO"",""SUR""]","[""BF04"",""AM03"",""BF06"",""HM09""]","[3,0,5,7]","[4,2,6,8]","","",""
"show-reward","14","55056","0.0-14.0","p202920","A1LJT9OW9UR4GF","3OWZNK3RYMVDNXPNEIRWZ8JM6MU2UY","3OVR4I9USRPYL2VNRPVG76EK6QD4Q9","emotion","mismatch","uniform","","","","","","","","55584","57586","","","","","","","","","","","","7","","stimuli/stars_7.png","11.5","","","","","stimuli/HM09_SUR.jpg","",""
"explore-choice","15","56958","0.0-15.0","p202920","A1LJT9OW9UR4GF","3OWZNK3RYMVDNXPNEIRWZ8JM6MU2UY","3OVR4I9USRPYL2VNRPVG76EK6QD4Q9","emotion","mismatch","uniform","","","","","","","1400","57588","58988","[""stimuli/BF04_DO.jpg"",""stimuli/HM09_SUR.jpg"",""stimuli/BF06_CC.jpg"",""stimuli/AM03_FO.jpg""]","stimuli/BF04_DO.jpg","stimuli/HM09_SUR.jpg","stimuli/BF06_CC.jpg","stimuli/AM03_FO.jpg","pos3","stimuli/BF06_CC.jpg","CC","BF06","2","1","2","2","stimuli/stars_2.png","12.5","[""DO"",""SUR"",""CC"",""FO""]","[""BF04"",""HM09"",""BF06"",""AM03""]","[3,8,2,4]","[4,8,2,6]","","",""
"show-reward","16","58962","0.0-16.0","p202920","A1LJT9OW9UR4GF","3OWZNK3RYMVDNXPNEIRWZ8JM6MU2UY","3OVR4I9USRPYL2VNRPVG76EK6QD4Q9","emotion","mismatch","uniform","","","","","","","","59489","61492","","","","","","","","","","","","2","","stimuli/stars_2.png","12.5","","","","","stimuli/BF06_CC.jpg","",""
"explore-choice","17","60479","0.0-17.0","p202920","A1LJT9OW9UR4GF","3OWZNK3RYMVDNXPNEIRWZ8JM6MU2UY","3OVR4I9USRPYL2VNRPVG76EK6QD4Q9","emotion","mismatch","uniform","","","","","","","1014","61493","62507","[""stimuli/BF04_DO.jpg"",""stimuli/HM09_FO.jpg"",""stimuli/BF06_CC.jpg"",""stimuli/AM03_SUR.jpg""]","stimuli/BF04_DO.jpg","stimuli/HM09_FO.jpg","stimuli/BF06_CC.jpg","stimuli/AM03_SUR.jpg","pos1","stimuli/BF04_DO.jpg","DO","BF04","0","1","2","4","stimuli/stars_2.png","13.5","[""DO"",""FO"",""CC"",""SUR""]","[""BF04"",""HM09"",""BF06"",""AM03""]","[2,7,0,7]","[4,6,2,8]","","",""
"show-reward","18","62490","0.0-18.0","p202920","A1LJT9OW9UR4GF","3OWZNK3RYMVDNXPNEIRWZ8JM6MU2UY","3OVR4I9USRPYL2VNRPVG76EK6QD4Q9","emotion","mismatch","uniform","","","","","","","","63010","65018","","","","","","","","","","","","2","","stimuli/stars_2.png","13.5","","","","","stimuli/BF04_DO.jpg","",""
"explore-choice","19","64105","0.0-19.0","p202920","A1LJT9OW9UR4GF","3OWZNK3RYMVDNXPNEIRWZ8JM6MU2UY","3OVR4I9USRPYL2VNRPVG76EK6QD4Q9","emotion","mismatch","uniform","","","","","","","1112","65021","66133","[""stimuli/HM09_SUR.jpg"",""stimuli/BF06_DO.jpg"",""stimuli/AM03_FO.jpg"",""stimuli/BF04_CC.jpg""]","stimuli/HM09_SUR.jpg","stimuli/BF06_DO.jpg","stimuli/AM03_FO.jpg","stimuli/BF04_CC.jpg","pos4","stimuli/BF04_CC.jpg","CC","BF04","3","0.5","1","2","stimuli/stars_1.png","14","[""SUR"",""DO"",""FO"",""CC""]","[""HM09"",""BF06"",""AM03"",""BF04""]","[6,6,6,1]","[8,4,6,2]","","",""
"show-reward","20","66114","0.0-20.0","p202920","A1LJT9OW9UR4GF","3OWZNK3RYMVDNXPNEIRWZ8JM6MU2UY","3OVR4I9USRPYL2VNRPVG76EK6QD4Q9","emotion","mismatch","uniform","","","","","","","","66637","68644","","","","","","","","","","","","1","","stimuli/stars_1.png","14","","","","","stimuli/BF04_CC.jpg","",""
"explore-choice","21","67810","0.0-21.0","p202920","A1LJT9OW9UR4GF","3OWZNK3RYMVDNXPNEIRWZ8JM6MU2UY","3OVR4I9USRPYL2VNRPVG76EK6QD4Q9","emotion","mismatch","uniform","","","","","","","1193","68645","69838","[""stimuli/AM03_DO.jpg"",""stimuli/BF06_SUR.jpg"",""stimuli/BF04_CC.jpg"",""stimuli/HM09_FO.jpg""]","stimuli/AM03_DO.jpg","stimuli/BF06_SUR.jpg","stimuli/BF04_CC.jpg","stimuli/HM09_FO.jpg","pos1","stimuli/AM03_DO.jpg","DO","AM03","0","2","4","4","stimuli/stars_4.png","16","[""DO"",""SUR"",""CC"",""FO""]","[""AM03"",""BF06"",""BF04"",""HM09""]","[4,8,3,4]","[4,8,2,6]","","",""
"show-reward","22","69816","0.0-22.0","p202920","A1LJT9OW9UR4GF","3OWZNK3RYMVDNXPNEIRWZ8JM6MU2UY","3OVR4I9USRPYL2VNRPVG76EK6QD4Q9","emotion","mismatch","uniform","","","","","","","","70340","72344","","","","","","","","","","","","4","","stimuli/stars_4.png","16","","","","","stimuli/AM03_DO.jpg","",""
"explore-choice","23","76423","0.0-23.0","p202920","A1LJT9OW9UR4GF","3OWZNK3RYMVDNXPNEIRWZ8JM6MU2UY","3OVR4I9USRPYL2VNRPVG76EK6QD4Q9","emotion","mismatch","uniform","","","","","","","6103","72349","78452","[""stimuli/AM03_CC.jpg"",""stimuli/BF04_SUR.jpg"",""stimuli/HM09_DO.jpg"",""stimuli/BF06_FO.jpg""]","stimuli/AM03_CC.jpg","stimuli/BF04_SUR.jpg","stimuli/HM09_DO.jpg","stimuli/BF06_FO.jpg","pos1","stimuli/AM03_CC.jpg","CC","AM03","0","0.5","1","2","stimuli/stars_1.png","16.5","[""CC"",""SUR"",""DO"",""FO""]","[""AM03"",""BF04"",""HM09"",""BF06""]","[1,7,6,8]","[2,8,4,6]","","",""
"show-reward","24","78430","0.0-24.0","p202920","A1LJT9OW9UR4GF","3OWZNK3RYMVDNXPNEIRWZ8JM6MU2UY","3OVR4I9USRPYL2VNRPVG76EK6QD4Q9","emotion","mismatch","uniform","","","","","","","","78955","80959","","","","","","","","","","","","1","","stimuli/stars_1.png","16.5","","","","","stimuli/AM03_CC.jpg","",""
"explore-choice","25","81311","0.0-25.0","p202920","A1LJT9OW9UR4GF","3OWZNK3RYMVDNXPNEIRWZ8JM6MU2UY","3OVR4I9USRPYL2VNRPVG76EK6QD4Q9","emotion","mismatch","uniform","","","","","","","2379","80961","83340","[""stimuli/BF06_CC.jpg"",""stimuli/BF04_FO.jpg"",""stimuli/AM03_SUR.jpg"",""stimuli/HM09_DO.jpg""]","stimuli/BF06_CC.jpg","stimuli/BF04_FO.jpg","stimuli/AM03_SUR.jpg","stimuli/HM09_DO.jpg","pos4","stimuli/HM09_DO.jpg","DO","HM09","3","3","6","4","stimuli/stars_6.png","19.5","[""CC"",""FO"",""SUR"",""DO""]","[""BF06"",""BF04"",""AM03"",""HM09""]","[2,7,9,6]","[2,6,8,4]","","",""
"show-reward","26","83335","0.0-26.0","p202920","A1LJT9OW9UR4GF","3OWZNK3RYMVDNXPNEIRWZ8JM6MU2UY","3OVR4I9USRPYL2VNRPVG76EK6QD4Q9","emotion","mismatch","uniform","","","","","","","","83843","85864","","","","","","","","","","","","6","","stimuli/stars_6.png","19.5","","","","","stimuli/HM09_DO.jpg","",""
"explore-choice","27","95348","0.0-27.0","p202920","A1LJT9OW9UR4GF","3OWZNK3RYMVDNXPNEIRWZ8JM6MU2UY","3OVR4I9USRPYL2VNRPVG76EK6QD4Q9","emotion","mismatch","uniform","","","","","","","11509","85866","97375","[""stimuli/BF06_CC.jpg"",""stimuli/AM03_FO.jpg"",""stimuli/BF04_SUR.jpg"",""stimuli/HM09_DO.jpg""]","stimuli/BF06_CC.jpg","stimuli/AM03_FO.jpg","stimuli/BF04_SUR.jpg","stimuli/HM09_DO.jpg","pos1","stimuli/BF06_CC.jpg","CC","BF06","0","0.5","1","2","stimuli/stars_1.png","20","[""CC"",""FO"",""SUR"",""DO""]","[""BF06"",""AM03"",""BF04"",""HM09""]","[1,8,7,3]","[2,6,8,4]","","",""
"show-reward","28","97357","0.0-28.0","p202920","A1LJT9OW9UR4GF","3OWZNK3RYMVDNXPNEIRWZ8JM6MU2UY","3OVR4I9USRPYL2VNRPVG76EK6QD4Q9","emotion","mismatch","uniform","","","","","","","","97881","99886","","","","","","","","","","","","1","","stimuli/stars_1.png","20","","","","","stimuli/BF06_CC.jpg","",""
"explore-choice","29","100355","0.0-29.0","p202920","A1LJT9OW9UR4GF","3OWZNK3RYMVDNXPNEIRWZ8JM6MU2UY","3OVR4I9USRPYL2VNRPVG76EK6QD4Q9","emotion","mismatch","uniform","","","","","","","2488","99888","102376","[""stimuli/HM09_FO.jpg"",""stimuli/BF04_CC.jpg"",""stimuli/BF06_DO.jpg"",""stimuli/AM03_SUR.jpg""]","stimuli/HM09_FO.jpg","stimuli/BF04_CC.jpg","stimuli/BF06_DO.jpg","stimuli/AM03_SUR.jpg","pos2","stimuli/BF04_CC.jpg","CC","BF04","1","2","4","2","stimuli/stars_4.png","22","[""FO"",""CC"",""DO"",""SUR""]","[""HM09"",""BF04"",""BF06"",""AM03""]","[5,4,4,10]","[6,2,4,8]","","",""
"show-reward","30","102362","0.0-30.0","p202920","A1LJT9OW9UR4GF","3OWZNK3RYMVDNXPNEIRWZ8JM6MU2UY","3OVR4I9USRPYL2VNRPVG76EK6QD4Q9","emotion","mismatch","uniform","","","","","","","","102887","104891","","","","","","","","","","","","4","","stimuli/stars_4.png","22","","","","","stimuli/BF04_CC.jpg","",""
"explore-choice","31","107503","0.0-31.0","p202920","A1LJT9OW9UR4GF","3OWZNK3RYMVDNXPNEIRWZ8JM6MU2UY","3OVR4I9USRPYL2VNRPVG76EK6QD4Q9","emotion","mismatch","uniform","","","","","","","4637","104894","109531","[""stimuli/BF04_DO.jpg"",""stimuli/HM09_CC.jpg"",""stimuli/BF06_FO.jpg"",""stimuli/AM03_SUR.jpg""]","stimuli/BF04_DO.jpg","stimuli/HM09_CC.jpg","stimuli/BF06_FO.jpg","stimuli/AM03_SUR.jpg","pos3","stimuli/BF06_FO.jpg","FO","BF06","2","3","6","6","stimuli/stars_6.png","25","[""DO"",""CC"",""FO"",""SUR""]","[""BF04"",""HM09"",""BF06"",""AM03""]","[3,0,6,7]","[4,2,6,8]","","",""
"show-reward","32","109512","0.0-32.0","p202920","A1LJT9OW9UR4GF","3OWZNK3RYMVDNXPNEIRWZ8JM6MU2UY","3OVR4I9USRPYL2VNRPVG76EK6QD4Q9","emotion","mismatch","uniform","","","","","","","","110036","112041","","","","","","","","","","","","6","","stimuli/stars_6.png","25","","","","","stimuli/BF06_FO.jpg","",""
"explore-choice","33","123141","0.0-33.0","p202920","A1LJT9OW9UR4GF","3OWZNK3RYMVDNXPNEIRWZ8JM6MU2UY","3OVR4I9USRPYL2VNRPVG76EK6QD4Q9","emotion","mismatch","uniform","","","","","","","13124","112046","125170","[""stimuli/HM09_CC.jpg"",""stimuli/AM03_FO.jpg"",""stimuli/BF04_DO.jpg"",""stimuli/BF06_SUR.jpg""]","stimuli/HM09_CC.jpg","stimuli/AM03_FO.jpg","stimuli/BF04_DO.jpg","stimuli/BF06_SUR.jpg","pos1","stimuli/HM09_CC.jpg","CC","HM09","0","0.5","1","2","stimuli/stars_1.png","25.5","[""CC"",""FO"",""DO"",""SUR""]","[""HM09"",""AM03"",""BF04"",""BF06""]","[1,7,5,10]","[2,6,4,8]","","",""
"show-reward","34","125145","0.0-34.0","p202920","A1LJT9OW9UR4GF","3OWZNK3RYMVDNXPNEIRWZ8JM6MU2UY","3OVR4I9USRPYL2VNRPVG76EK6QD4Q9","emotion","mismatch","uniform","","","","","","","","125672","127675","","","","","","","","","","","","1","","stimuli/stars_1.png","25.5","","","","","stimuli/HM09_CC.jpg","",""
"explore-choice","35","298623","0.0-35.0","p202920","A1LJT9OW9UR4GF","3OWZNK3RYMVDNXPNEIRWZ8JM6MU2UY","3OVR4I9USRPYL2VNRPVG76EK6QD4Q9","emotion","mismatch","uniform","","","","","","","172975","127677","300652","[""stimuli/AM03_DO.jpg"",""stimuli/BF06_SUR.jpg"",""stimuli/BF04_FO.jpg"",""stimuli/HM09_CC.jpg""]","stimuli/AM03_DO.jpg","stimuli/BF06_SUR.jpg","stimuli/BF04_FO.jpg","stimuli/HM09_CC.jpg","pos1","stimuli/AM03_DO.jpg","DO","AM03","0","1","2","4","stimuli/stars_2.png","26.5","[""DO"",""SUR"",""FO"",""CC""]","[""AM03"",""BF06"",""BF04"",""HM09""]","[2,9,6,0]","[4,8,6,2]","","",""
"show-reward","36","300631","0.0-36.0","p202920","A1LJT9OW9UR4GF","3OWZNK3RYMVDNXPNEIRWZ8JM6MU2UY","3OVR4I9USRPYL2VNRPVG76EK6QD4Q9","emotion","mismatch","uniform","","","","","","","","301156","303161","","","","","","","","","","","","2","","stimuli/stars_2.png","26.5","","","","","stimuli/AM03_DO.jpg","",""
"explore-choice","37","304726","0.0-37.0","p202920","A1LJT9OW9UR4GF","3OWZNK3RYMVDNXPNEIRWZ8JM6MU2UY","3OVR4I9USRPYL2VNRPVG76EK6QD4Q9","emotion","mismatch","uniform","","","","","","","3590","303164","306754","[""stimuli/BF04_CC.jpg"",""stimuli/BF06_SUR.jpg"",""stimuli/HM09_DO.jpg"",""stimuli/AM03_FO.jpg""]","stimuli/BF04_CC.jpg","stimuli/BF06_SUR.jpg","stimuli/HM09_DO.jpg","stimuli/AM03_FO.jpg","pos1","stimuli/BF04_CC.jpg","CC","BF04","0","0","0","2","stimuli/stars_0.png","26.5","[""CC"",""SUR"",""DO"",""FO""]","[""BF04"",""BF06"",""HM09"",""AM03""]","[0,6,3,6]","[2,8,4,6]","","",""
"show-reward","38","306738","0.0-38.0","p202920","A1LJT9OW9UR4GF","3OWZNK3RYMVDNXPNEIRWZ8JM6MU2UY","3OVR4I9USRPYL2VNRPVG76EK6QD4Q9","emotion","mismatch","uniform","","","","","","","","307259","309267","","","","","","","","","","","","0","","stimuli/stars_0.png","26.5","","","","","stimuli/BF04_CC.jpg","",""
"explore-choice","39","526327","0.0-39.0","p202920","A1LJT9OW9UR4GF","3OWZNK3RYMVDNXPNEIRWZ8JM6MU2UY","3OVR4I9USRPYL2VNRPVG76EK6QD4Q9","emotion","mismatch","uniform","","","","","","","219086","309269","528355","[""stimuli/AM03_CC.jpg"",""stimuli/BF04_FO.jpg"",""stimuli/HM09_SUR.jpg"",""stimuli/BF06_DO.jpg""]","stimuli/AM03_CC.jpg","stimuli/BF04_FO.jpg","stimuli/HM09_SUR.jpg","stimuli/BF06_DO.jpg","pos1","stimuli/AM03_CC.jpg","CC","AM03","0","1.5","3","2","stimuli/stars_3.png","28","[""CC"",""FO"",""SUR"",""DO""]","[""AM03"",""BF04"",""HM09"",""BF06""]","[3,5,7,2]","[2,6,8,4]","","",""
"show-reward","40","528334","0.0-40.0","p202920","A1LJT9OW9UR4GF","3OWZNK3RYMVDNXPNEIRWZ8JM6MU2UY","3OVR4I9USRPYL2VNRPVG76EK6QD4Q9","emotion","mismatch","uniform","","","","","","","","528860","530864","","","","","","","","","","","","3","","stimuli/stars_3.png","28","","","","","stimuli/AM03_CC.jpg","",""
"explore-choice","41","530507","0.0-41.0","p202920","A1LJT9OW9UR4GF","3OWZNK3RYMVDNXPNEIRWZ8JM6MU2UY","3OVR4I9USRPYL2VNRPVG76EK6QD4Q9","emotion","mismatch","uniform","","","","","","","1671","530866","532537","[""stimuli/BF06_DO.jpg"",""stimuli/AM03_CC.jpg"",""stimuli/BF04_SUR.jpg"",""stimuli/HM09_FO.jpg""]","stimuli/BF06_DO.jpg","stimuli/AM03_CC.jpg","stimuli/BF04_SUR.jpg","stimuli/HM09_FO.jpg","pos4","stimuli/HM09_FO.jpg","FO","HM09","3","3.5","7","6","stimuli/stars_7.png","31.5","[""DO"",""CC"",""SUR"",""FO""]","[""BF06"",""AM03"",""BF04"",""HM09""]","[4,4,10,7]","[4,2,8,6]","","",""
"show-reward","42","532519","0.0-42.0","p202920","A1LJT9OW9UR4GF","3OWZNK3RYMVDNXPNEIRWZ8JM6MU2UY","3OVR4I9USRPYL2VNRPVG76EK6QD4Q9","emotion","mismatch","uniform","","","","","","","","533039","535049","","","","","","","","","","","","7","","stimuli/stars_7.png","31.5","","","","","stimuli/HM09_FO.jpg","",""
"explore-choice","43","535703","0.0-43.0","p202920","A1LJT9OW9UR4GF","3OWZNK3RYMVDNXPNEIRWZ8JM6MU2UY","3OVR4I9USRPYL2VNRPVG76EK6QD4Q9","emotion","mismatch","uniform","","","","","","","2681","535051","537732","[""stimuli/BF04_CC.jpg"",""stimuli/AM03_SUR.jpg"",""stimuli/BF06_FO.jpg"",""stimuli/HM09_DO.jpg""]","stimuli/BF04_CC.jpg","stimuli/AM03_SUR.jpg","stimuli/BF06_FO.jpg","stimuli/HM09_DO.jpg","pos1","stimuli/BF04_CC.jpg","CC","BF04","0","1","2","2","stimuli/stars_2.png","32.5","[""CC"",""SUR"",""FO"",""DO""]","[""BF04"",""AM03"",""BF06"",""HM09""]","[2,9,8,4]","[2,8,6,4]","","",""
"show-reward","44","537706","0.0-44.0","p202920","A1LJT9OW9UR4GF","3OWZNK3RYMVDNXPNEIRWZ8JM6MU2UY","3OVR4I9USRPYL2VNRPVG76EK6QD4Q9","emotion","mismatch","uniform","","","","","","","","538234","540236","","","","","","","","","","","","2","","stimuli/stars_2.png","32.5","","","","","stimuli/BF04_CC.jpg","",""
"explore-choice","45","539618","0.0-45.0","p202920","A1LJT9OW9UR4GF","3OWZNK3RYMVDNXPNEIRWZ8JM6MU2UY","3OVR4I9USRPYL2VNRPVG76EK6QD4Q9","emotion","mismatch","uniform","","","","","","","1409","540238","541647","[""stimuli/BF04_FO.jpg"",""stimuli/BF06_SUR.jpg"",""stimuli/HM09_DO.jpg"",""stimuli/AM03_CC.jpg""]","stimuli/BF04_FO.jpg","stimuli/BF06_SUR.jpg","stimuli/HM09_DO.jpg","stimuli/AM03_CC.jpg","pos2","stimuli/BF06_SUR.jpg","SUR","BF06","1","4","8","8","stimuli/stars_8.png","36.5","[""FO"",""SUR"",""DO"",""CC""]","[""BF04"",""BF06"",""HM09"",""AM03""]","[4,8,6,4]","[6,8,4,2]","","",""
"show-reward","46","541624","0.0-46.0","p202920","A1LJT9OW9UR4GF","3OWZNK3RYMVDNXPNEIRWZ8JM6MU2UY","3OVR4I9USRPYL2VNRPVG76EK6QD4Q9","emotion","mismatch","uniform","","","","","","","","542149","544153","","","","","","","","","","","","8","","stimuli/stars_8.png","36.5","","","","","stimuli/BF06_SUR.jpg","",""
"explore-choice","47","546773","0.0-47.0","p202920","A1LJT9OW9UR4GF","3OWZNK3RYMVDNXPNEIRWZ8JM6MU2UY","3OVR4I9USRPYL2VNRPVG76EK6QD4Q9","emotion","mismatch","uniform","","","","","","","4645","544156","548801","[""stimuli/BF06_DO.jpg"",""stimuli/HM09_CC.jpg"",""stimuli/BF04_FO.jpg"",""stimuli/AM03_SUR.jpg""]","stimuli/BF06_DO.jpg","stimuli/HM09_CC.jpg","stimuli/BF04_FO.jpg","stimuli/AM03_SUR.jpg","pos2","stimuli/HM09_CC.jpg","CC","HM09","1","1.5","3","2","stimuli/stars_3.png","38","[""DO"",""CC"",""FO"",""SUR""]","[""BF06"",""HM09"",""BF04"",""AM03""]","[6,3,8,9]","[4,2,6,8]","","",""
"show-reward","48","548782","0.0-48.0","p202920","A1LJT9OW9UR4GF","3OWZNK3RYMVDNXPNEIRWZ8JM6MU2UY","3OVR4I9USRPYL2VNRPVG76EK6QD4Q9","emotion","mismatch","uniform","","","","","","","","549305","551311","","","","","","","","","","","","3","","stimuli/stars_3.png","38","","","","","stimuli/HM09_CC.jpg","",""
"explore-choice","49","552323","0.0-49.0","p202920","A1LJT9OW9UR4GF","3OWZNK3RYMVDNXPNEIRWZ8JM6MU2UY","3OVR4I9USRPYL2VNRPVG76EK6QD4Q9","emotion","mismatch","uniform","","","","","","","3038","551314","554352","[""stimuli/BF04_CC.jpg"",""stimuli/BF06_FO.jpg"",""stimuli/HM09_SUR.jpg"",""stimuli/AM03_DO.jpg""]","stimuli/BF04_CC.jpg","stimuli/BF06_FO.jpg","stimuli/HM09_SUR.jpg","stimuli/AM03_DO.jpg","pos2","stimuli/BF06_FO.jpg","FO","BF06","1","3","6","6","stimuli/stars_6.png","41","[""CC"",""FO"",""SUR"",""DO""]","[""BF04"",""BF06"",""HM09"",""AM03""]","[4,6,8,6]","[2,6,8,4]","","",""
"show-reward","50","554326","0.0-50.0","p202920","A1LJT9OW9UR4GF","3OWZNK3RYMVDNXPNEIRWZ8JM6MU2UY","3OVR4I9USRPYL2VNRPVG76EK6QD4Q9","emotion","mismatch","uniform","","","","","","","","554853","556855","","","","","","","","","","","","6","","stimuli/stars_6.png","41","","","","","stimuli/BF06_FO.jpg","",""
"explore-choice","51","558373","0.0-51.0","p202920","A1LJT9OW9UR4GF","3OWZNK3RYMVDNXPNEIRWZ8JM6MU2UY","3OVR4I9USRPYL2VNRPVG76EK6QD4Q9","emotion","mismatch","uniform","","","","","","","3513","556856","560369","[""stimuli/BF04_SUR.jpg"",""stimuli/HM09_CC.jpg"",""stimuli/AM03_DO.jpg"",""stimuli/BF06_FO.jpg""]","stimuli/BF04_SUR.jpg","stimuli/HM09_CC.jpg","stimuli/AM03_DO.jpg","stimuli/BF06_FO.jpg","pos4","stimuli/BF06_FO.jpg","FO","BF06","3","4","8","6","stimuli/stars_8.png","45","[""SUR"",""CC"",""DO"",""FO""]","[""BF04"",""HM09"",""AM03"",""BF06""]","[9,2,5,8]","[8,2,4,6]","","",""
"show-reward","52","560377","0.0-52.0","p202920","A1LJT9OW9UR4GF","3OWZNK3RYMVDNXPNEIRWZ8JM6MU2UY","3OVR4I9USRPYL2VNRPVG76EK6QD4Q9","emotion","mismatch","uniform","","","","","","","","560904","562905","","","","","","","","","","","","8","","stimuli/stars_8.png","45","","","","","stimuli/BF06_FO.jpg","",""
"explore-choice","53","570320","0.0-53.0","p202920","A1LJT9OW9UR4GF","3OWZNK3RYMVDNXPNEIRWZ8JM6MU2UY","3OVR4I9USRPYL2VNRPVG76EK6QD4Q9","emotion","mismatch","uniform","","","","","","","9439","562910","572349","[""stimuli/AM03_DO.jpg"",""stimuli/HM09_SUR.jpg"",""stimuli/BF04_FO.jpg"",""stimuli/BF06_CC.jpg""]","stimuli/AM03_DO.jpg","stimuli/HM09_SUR.jpg","stimuli/BF04_FO.jpg","stimuli/BF06_CC.jpg","pos4","stimuli/BF06_CC.jpg","CC","BF06","3","1","2","2","stimuli/stars_2.png","46","[""DO"",""SUR"",""FO"",""CC""]","[""AM03"",""HM09"",""BF04"",""BF06""]","[5,8,5,2]","[4,8,6,2]","","",""
"show-reward","54","572331","0.0-54.0","p202920","A1LJT9OW9UR4GF","3OWZNK3RYMVDNXPNEIRWZ8JM6MU2UY","3OVR4I9USRPYL2VNRPVG76EK6QD4Q9","emotion","mismatch","uniform","","","","","","","","572852","574859","","","","","","","","","","","","2","","stimuli/stars_2.png","46","","","","","stimuli/BF06_CC.jpg","",""
"explore-choice","55","576149","0.0-55.0","p202920","A1LJT9OW9UR4GF","3OWZNK3RYMVDNXPNEIRWZ8JM6MU2UY","3OVR4I9USRPYL2VNRPVG76EK6QD4Q9","emotion","mismatch","uniform","","","","","","","3315","574864","578179","[""stimuli/HM09_SUR.jpg"",""stimuli/BF06_DO.jpg"",""stimuli/BF04_FO.jpg"",""stimuli/AM03_CC.jpg""]","stimuli/HM09_SUR.jpg","stimuli/BF06_DO.jpg","stimuli/BF04_FO.jpg","stimuli/AM03_CC.jpg","pos1","stimuli/HM09_SUR.jpg","SUR","HM09","0","3.5","7","8","stimuli/stars_7.png","49.5","[""SUR"",""DO"",""FO"",""CC""]","[""HM09"",""BF06"",""BF04"",""AM03""]","[7,2,5,3]","[8,4,6,2]","","",""
"show-reward","56","578154","0.0-56.0","p202920","A1LJT9OW9UR4GF","3OWZNK3RYMVDNXPNEIRWZ8JM6MU2UY","3OVR4I9USRPYL2VNRPVG76EK6QD4Q9","emotion","mismatch","uniform","","","","","","","","578681","580684","","","","","","","","","","","","7","","stimuli/stars_7.png","49.5","","","","","stimuli/HM09_SUR.jpg","",""
"explore-choice","57","580094","0.0-57.0","p202920","A1LJT9OW9UR4GF","3OWZNK3RYMVDNXPNEIRWZ8JM6MU2UY","3OVR4I9USRPYL2VNRPVG76EK6QD4Q9","emotion","mismatch","uniform","","","","","","","1437","580686","582123","[""stimuli/AM03_SUR.jpg"",""stimuli/HM09_FO.jpg"",""stimuli/BF04_DO.jpg"",""stimuli/BF06_CC.jpg""]","stimuli/AM03_SUR.jpg","stimuli/HM09_FO.jpg","stimuli/BF04_DO.jpg","stimuli/BF06_CC.jpg","pos2","stimuli/HM09_FO.jpg","FO","HM09","1","3.5","7","6","stimuli/stars_7.png","53","[""SUR"",""FO"",""DO"",""CC""]","[""AM03"",""HM09"",""BF04"",""BF06""]","[7,7,2,0]","[8,6,4,2]","","",""
"show-reward","58","582102","0.0-58.0","p202920","A1LJT9OW9UR4GF","3OWZNK3RYMVDNXPNEIRWZ8JM6MU2UY","3OVR4I9USRPYL2VNRPVG76EK6QD4Q9","emotion","mismatch","uniform","","","","","","","","582625","584632","","","","","","","","","","","","7","","stimuli/stars_7.png","53","","","","","stimuli/HM09_FO.jpg","",""
"explore-choice","59","597843","0.0-59.0","p202920","A1LJT9OW9UR4GF","3OWZNK3RYMVDNXPNEIRWZ8JM6MU2UY","3OVR4I9USRPYL2VNRPVG76EK6QD4Q9","emotion","mismatch","uniform","","","","","","","15236","584634","599870","[""stimuli/HM09_FO.jpg"",""stimuli/BF04_SUR.jpg"",""stimuli/AM03_CC.jpg"",""stimuli/BF06_DO.jpg""]","stimuli/HM09_FO.jpg","stimuli/BF04_SUR.jpg","stimuli/AM03_CC.jpg","stimuli/BF06_DO.jpg","pos2","stimuli/BF04_SUR.jpg","SUR","BF04","1","5","10","8","stimuli/stars_10.png","58","[""FO"",""SUR"",""CC"",""DO""]","[""HM09"",""BF04"",""AM03"",""BF06""]","[7,10,4,4]","[6,8,2,4]","","",""
"show-reward","60","599859","0.0-60.0","p202920","A1LJT9OW9UR4GF","3OWZNK3RYMVDNXPNEIRWZ8JM6MU2UY","3OVR4I9USRPYL2VNRPVG76EK6QD4Q9","emotion","mismatch","uniform","","","","","","","","600377","602388","","","","","","","","","","","","10","","stimuli/stars_10.png","58","","","","","stimuli/BF04_SUR.jpg","",""
"explore-choice","61","603551","0.0-61.0","p202920","A1LJT9OW9UR4GF","3OWZNK3RYMVDNXPNEIRWZ8JM6MU2UY","3OVR4I9USRPYL2VNRPVG76EK6QD4Q9","emotion","mismatch","uniform","","","","","","","3188","602390","605578","[""stimuli/BF06_CC.jpg"",""stimuli/AM03_FO.jpg"",""stimuli/HM09_SUR.jpg"",""stimuli/BF04_DO.jpg""]","stimuli/BF06_CC.jpg","stimuli/AM03_FO.jpg","stimuli/HM09_SUR.jpg","stimuli/BF04_DO.jpg","pos2","stimuli/AM03_FO.jpg","FO","AM03","1","2","4","6","stimuli/stars_4.png","60","[""CC"",""FO"",""SUR"",""DO""]","[""BF06"",""AM03"",""HM09"",""BF04""]","[2,4,8,3]","[2,6,8,4]","","",""
"show-reward","62","605559","0.0-62.0","p202920","A1LJT9OW9UR4GF","3OWZNK3RYMVDNXPNEIRWZ8JM6MU2UY","3OVR4I9USRPYL2VNRPVG76EK6QD4Q9","emotion","mismatch","uniform","","","","","","","","606084","608089","","","","","","","","","","","","4","","stimuli/stars_4.png","60","","","","","stimuli/AM03_FO.jpg","",""
"explore-choice","63","608463","0.0-63.0","p202920","A1LJT9OW9UR4GF","3OWZNK3RYMVDNXPNEIRWZ8JM6MU2UY","3OVR4I9USRPYL2VNRPVG76EK6QD4Q9","emotion","mismatch","uniform","","","","","","","2400","608092","610492","[""stimuli/BF06_SUR.jpg"",""stimuli/AM03_FO.jpg"",""stimuli/HM09_DO.jpg"",""stimuli/BF04_CC.jpg""]","stimuli/BF06_SUR.jpg","stimuli/AM03_FO.jpg","stimuli/HM09_DO.jpg","stimuli/BF04_CC.jpg","pos3","stimuli/HM09_DO.jpg","DO","HM09","2","1.5","3","4","stimuli/stars_3.png","61.5","[""SUR"",""FO"",""DO"",""CC""]","[""BF06"",""AM03"",""HM09"",""BF04""]","[6,6,3,0]","[8,6,4,2]","","",""
"show-reward","64","610885","0.0-64.0","p202920","A1LJT9OW9UR4GF","3OWZNK3RYMVDNXPNEIRWZ8JM6MU2UY","3OVR4I9USRPYL2VNRPVG76EK6QD4Q9","emotion","mismatch","uniform","","","","","","","","610994","613414","","","","","","","","","","","","3","","stimuli/stars_3.png","61.5","","","","","stimuli/HM09_DO.jpg","",""
"explore-choice","65","629523","0.0-65.0","p202920","A1LJT9OW9UR4GF","3OWZNK3RYMVDNXPNEIRWZ8JM6MU2UY","3OVR4I9USRPYL2VNRPVG76EK6QD4Q9","emotion","mismatch","uniform","","","","","","","18133","613417","631550","[""stimuli/BF04_DO.jpg"",""stimuli/HM09_CC.jpg"",""stimuli/BF06_SUR.jpg"",""stimuli/AM03_FO.jpg""]","stimuli/BF04_DO.jpg","stimuli/HM09_CC.jpg","stimuli/BF06_SUR.jpg","stimuli/AM03_FO.jpg","pos1","stimuli/BF04_DO.jpg","DO","BF04","0","2.5","5","4","stimuli/stars_5.png","64","[""DO"",""CC"",""SUR"",""FO""]","[""BF04"",""HM09"",""BF06"",""AM03""]","[5,1,10,7]","[4,2,8,6]","","",""
"show-reward","66","631552","0.0-66.0","p202920","A1LJT9OW9UR4GF","3OWZNK3RYMVDNXPNEIRWZ8JM6MU2UY","3OVR4I9USRPYL2VNRPVG76EK6QD4Q9","emotion","mismatch","uniform","","","","","","","","632075","634081","","","","","","","","","","","","5","","stimuli/stars_5.png","64","","","","","stimuli/BF04_DO.jpg","",""
"explore-choice","67","633212","0.0-67.0","p202920","A1LJT9OW9UR4GF","3OWZNK3RYMVDNXPNEIRWZ8JM6MU2UY","3OVR4I9USRPYL2VNRPVG76EK6QD4Q9","emotion","mismatch","uniform","","","","","","","1159","634083","635242","[""stimuli/HM09_SUR.jpg"",""stimuli/BF04_CC.jpg"",""stimuli/BF06_DO.jpg"",""stimuli/AM03_FO.jpg""]","stimuli/HM09_SUR.jpg","stimuli/BF04_CC.jpg","stimuli/BF06_DO.jpg","stimuli/AM03_FO.jpg","pos2","stimuli/BF04_CC.jpg","CC","BF04","1","0.5","1","2","stimuli/stars_1.png","64.5","[""SUR"",""CC"",""DO"",""FO""]","[""HM09"",""BF04"",""BF06"",""AM03""]","[6,1,6,6]","[8,2,4,6]","","",""
"show-reward","68","635216","0.0-68.0","p202920","A1LJT9OW9UR4GF","3OWZNK3RYMVDNXPNEIRWZ8JM6MU2UY","3OVR4I9USRPYL2VNRPVG76EK6QD4Q9","emotion","mismatch","uniform","","","","","","","","635743","637745","","","","","","","","","","","","1","","stimuli/stars_1.png","64.5","","","","","stimuli/BF04_CC.jpg","",""
"explore-choice","69","637042","0.0-69.0","p202920","A1LJT9OW9UR4GF","3OWZNK3RYMVDNXPNEIRWZ8JM6MU2UY","3OVR4I9USRPYL2VNRPVG76EK6QD4Q9","emotion","mismatch","uniform","","","","","","","1324","637747","639071","[""stimuli/HM09_SUR.jpg"",""stimuli/AM03_DO.jpg"",""stimuli/BF06_FO.jpg"",""stimuli/BF04_CC.jpg""]","stimuli/HM09_SUR.jpg","stimuli/AM03_DO.jpg","stimuli/BF06_FO.jpg","stimuli/BF04_CC.jpg","pos1","stimuli/HM09_SUR.jpg","SUR","HM09","0","4","8","8","stimuli/stars_8.png","68.5","[""SUR"",""DO"",""FO"",""CC""]","[""HM09"",""AM03"",""BF06"",""BF04""]","[8,6,6,4]","[8,4,6,2]","","",""
"show-reward","70","639051","0.0-70.0","p202920","A1LJT9OW9UR4GF","3OWZNK3RYMVDNXPNEIRWZ8JM6MU2UY","3OVR4I9USRPYL2VNRPVG76EK6QD4Q9","emotion","mismatch","uniform","","","","","","","","639574","641580","","","","","","","","","","","","8","","stimuli/stars_8.png","68.5","","","","","stimuli/HM09_SUR.jpg","",""
"explore-choice","71","644516","0.0-71.0","p202920","A1LJT9OW9UR4GF","3OWZNK3RYMVDNXPNEIRWZ8JM6MU2UY","3OVR4I9USRPYL2VNRPVG76EK6QD4Q9","emotion","mismatch","uniform","","","","","","","4954","641583","646537","[""stimuli/AM03_SUR.jpg"",""stimuli/BF06_CC.jpg"",""stimuli/HM09_DO.jpg"",""stimuli/BF04_FO.jpg""]","stimuli/AM03_SUR.jpg","stimuli/BF06_CC.jpg","stimuli/HM09_DO.jpg","stimuli/BF04_FO.jpg","pos4","stimuli/BF04_FO.jpg","FO","BF04","3","3.5","7","6","stimuli/stars_7.png","72","[""SUR"",""CC"",""DO"",""FO""]","[""AM03"",""BF06"",""HM09"",""BF04""]","[9,2,6,7]","[8,2,4,6]","","",""
"show-reward","72","646523","0.0-72.0","p202920","A1LJT9OW9UR4GF","3OWZNK3RYMVDNXPNEIRWZ8JM6MU2UY","3OVR4I9USRPYL2VNRPVG76EK6QD4Q9","emotion","mismatch","uniform","","","","","","","","647049","649053","","","","","","","","","","","","7","","stimuli/stars_7.png","72","","","","","stimuli/BF04_FO.jpg","",""
"explore-choice","73","650843","0.0-73.0","p202920","A1LJT9OW9UR4GF","3OWZNK3RYMVDNXPNEIRWZ8JM6MU2UY","3OVR4I9USRPYL2VNRPVG76EK6QD4Q9","emotion","mismatch","uniform","","","","","","","3817","649055","652872","[""stimuli/BF06_FO.jpg"",""stimuli/BF04_CC.jpg"",""stimuli/HM09_DO.jpg"",""stimuli/AM03_SUR.jpg""]","stimuli/BF06_FO.jpg","stimuli/BF04_CC.jpg","stimuli/HM09_DO.jpg","stimuli/AM03_SUR.jpg","pos2","stimuli/BF04_CC.jpg","CC","BF04","1","1","2","2","stimuli/stars_2.png","73","[""FO"",""CC"",""DO"",""SUR""]","[""BF06"",""BF04"",""HM09"",""AM03""]","[8,2,4,9]","[6,2,4,8]","","",""
"show-reward","74","652855","0.0-74.0","p202920","A1LJT9OW9UR4GF","3OWZNK3RYMVDNXPNEIRWZ8JM6MU2UY","3OVR4I9USRPYL2VNRPVG76EK6QD4Q9","emotion","mismatch","uniform","","","","","","","","653378","655384","","","","","","","","","","","","2","","stimuli/stars_2.png","73","","","","","stimuli/BF04_CC.jpg","",""
"explore-choice","75","654557","0.0-75.0","p202920","A1LJT9OW9UR4GF","3OWZNK3RYMVDNXPNEIRWZ8JM6MU2UY","3OVR4I9USRPYL2VNRPVG76EK6QD4Q9","emotion","mismatch","uniform","","","","","","","1201","655386","656587","[""stimuli/BF06_DO.jpg"",""stimuli/HM09_FO.jpg"",""stimuli/BF04_CC.jpg"",""stimuli/AM03_SUR.jpg""]","stimuli/BF06_DO.jpg","stimuli/HM09_FO.jpg","stimuli/BF04_CC.jpg","stimuli/AM03_SUR.jpg","pos3","stimuli/BF04_CC.jpg","CC","BF04","2","2","4","2","stimuli/stars_4.png","75","[""DO"",""FO"",""CC"",""SUR""]","[""BF06"",""HM09"",""BF04"",""AM03""]","[4,5,4,10]","[4,6,2,8]","","",""
"show-reward","76","656564","0.0-76.0","p202920","A1LJT9OW9UR4GF","3OWZNK3RYMVDNXPNEIRWZ8JM6MU2UY","3OVR4I9USRPYL2VNRPVG76EK6QD4Q9","emotion","mismatch","uniform","","","","","","","","657089","659093","","","","","","","","","","","","4","","stimuli/stars_4.png","75","","","","","stimuli/BF04_CC.jpg","",""
"explore-choice","77","659665","0.0-77.0","p202920","A1LJT9OW9UR4GF","3OWZNK3RYMVDNXPNEIRWZ8JM6MU2UY","3OVR4I9USRPYL2VNRPVG76EK6QD4Q9","emotion","mismatch","uniform","","","","","","","2584","659110","661694","[""stimuli/BF06_SUR.jpg"",""stimuli/AM03_CC.jpg"",""stimuli/BF04_FO.jpg"",""stimuli/HM09_DO.jpg""]","stimuli/BF06_SUR.jpg","stimuli/AM03_CC.jpg","stimuli/BF04_FO.jpg","stimuli/HM09_DO.jpg","pos2","stimuli/AM03_CC.jpg","CC","AM03","1","2","4","2","stimuli/stars_4.png","77","[""SUR"",""CC"",""FO"",""DO""]","[""BF06"",""AM03"",""BF04"",""HM09""]","[8,4,4,6]","[8,2,6,4]","","",""
"show-reward","78","661674","0.0-78.0","p202920","A1LJT9OW9UR4GF","3OWZNK3RYMVDNXPNEIRWZ8JM6MU2UY","3OVR4I9USRPYL2VNRPVG76EK6QD4Q9","emotion","mismatch","uniform","","","","","","","","662197","664203","","","","","","","","","","","","4","","stimuli/stars_4.png","77","","","","","stimuli/AM03_CC.jpg","",""
"explore-choice","79","666157","0.0-79.0","p202920","A1LJT9OW9UR4GF","3OWZNK3RYMVDNXPNEIRWZ8JM6MU2UY","3OVR4I9USRPYL2VNRPVG76EK6QD4Q9","emotion","mismatch","uniform","","","","","","","3979","664207","668186","[""stimuli/AM03_CC.jpg"",""stimuli/BF04_DO.jpg"",""stimuli/BF06_FO.jpg"",""stimuli/HM09_SUR.jpg""]","stimuli/AM03_CC.jpg","stimuli/BF04_DO.jpg","stimuli/BF06_FO.jpg","stimuli/HM09_SUR.jpg","pos4","stimuli/HM09_SUR.jpg","SUR","HM09","3","3.5","7","8","stimuli/stars_7.png","80.5","[""CC"",""DO"",""FO"",""SUR""]","[""AM03"",""BF04"",""BF06"",""HM09""]","[0,3,5,7]","[2,4,6,8]","","",""
"show-reward","80","668885","0.0-80.0","p202920","A1LJT9OW9UR4GF","3OWZNK3RYMVDNXPNEIRWZ8JM6MU2UY","3OVR4I9USRPYL2VNRPVG76EK6QD4Q9","emotion","mismatch","uniform","","","","","","","","668689","671414","","","","","","","","","","","","7","","stimuli/stars_7.png","80.5","","","","","stimuli/HM09_SUR.jpg","",""
"explore-choice","81","675062","0.0-81.0","p202920","A1LJT9OW9UR4GF","3OWZNK3RYMVDNXPNEIRWZ8JM6MU2UY","3OVR4I9USRPYL2VNRPVG76EK6QD4Q9","emotion","mismatch","uniform","","","","","","","5675","671417","677092","[""stimuli/BF04_SUR.jpg"",""stimuli/HM09_CC.jpg"",""stimuli/AM03_DO.jpg"",""stimuli/BF06_FO.jpg""]","stimuli/BF04_SUR.jpg","stimuli/HM09_CC.jpg","stimuli/AM03_DO.jpg","stimuli/BF06_FO.jpg","pos2","stimuli/HM09_CC.jpg","CC","HM09","1","1","2","2","stimuli/stars_2.png","81.5","[""SUR"",""CC"",""DO"",""FO""]","[""BF04"",""HM09"",""AM03"",""BF06""]","[9,2,5,8]","[8,2,4,6]","","",""
"show-reward","82","677107","0.0-82.0","p202920","A1LJT9OW9UR4GF","3OWZNK3RYMVDNXPNEIRWZ8JM6MU2UY","3OVR4I9USRPYL2VNRPVG76EK6QD4Q9","emotion","mismatch","uniform","","","","","","","","677595","679637","","","","","","","","","","","","2","","stimuli/stars_2.png","81.5","","","","","stimuli/HM09_CC.jpg","",""
"explore-choice","83","681359","0.0-83.0","p202920","A1LJT9OW9UR4GF","3OWZNK3RYMVDNXPNEIRWZ8JM6MU2UY","3OVR4I9USRPYL2VNRPVG76EK6QD4Q9","emotion","mismatch","uniform","","","","","","","3739","679642","683381","[""stimuli/HM09_DO.jpg"",""stimuli/BF06_CC.jpg"",""stimuli/BF04_SUR.jpg"",""stimuli/AM03_FO.jpg""]","stimuli/HM09_DO.jpg","stimuli/BF06_CC.jpg","stimuli/BF04_SUR.jpg","stimuli/AM03_FO.jpg","pos3","stimuli/BF04_SUR.jpg","SUR","BF04","2","3.5","7","8","stimuli/stars_7.png","85","[""DO"",""CC"",""SUR"",""FO""]","[""HM09"",""BF06"",""BF04"",""AM03""]","[3,1,7,8]","[4,2,8,6]","","",""
"show-reward","84","683364","0.0-84.0","p202920","A1LJT9OW9UR4GF","3OWZNK3RYMVDNXPNEIRWZ8JM6MU2UY","3OVR4I9USRPYL2VNRPVG76EK6QD4Q9","emotion","mismatch","uniform","","","","","","","","683890","685893","","","","","","","","","","","","7","","stimuli/stars_7.png","85","","","","","stimuli/BF04_SUR.jpg","",""
"explore-choice","85","685026","0.0-85.0","p202920","A1LJT9OW9UR4GF","3OWZNK3RYMVDNXPNEIRWZ8JM6MU2UY","3OVR4I9USRPYL2VNRPVG76EK6QD4Q9","emotion","mismatch","uniform","","","","","","","1160","685895","687055","[""stimuli/AM03_DO.jpg"",""stimuli/HM09_CC.jpg"",""stimuli/BF06_SUR.jpg"",""stimuli/BF04_FO.jpg""]","stimuli/AM03_DO.jpg","stimuli/HM09_CC.jpg","stimuli/BF06_SUR.jpg","stimuli/BF04_FO.jpg","pos4","stimuli/BF04_FO.jpg","FO","BF04","3","3","6","6","stimuli/stars_6.png","88","[""DO"",""CC"",""SUR"",""FO""]","[""AM03"",""HM09"",""BF06"",""BF04""]","[2,0,9,6]","[4,2,8,6]","","",""
"show-reward","86","687032","0.0-86.0","p202920","A1LJT9OW9UR4GF","3OWZNK3RYMVDNXPNEIRWZ8JM6MU2UY","3OVR4I9USRPYL2VNRPVG76EK6QD4Q9","emotion","mismatch","uniform","","","","","","","","687557","689561","","","","","","","","","","","","6","","stimuli/stars_6.png","88","","","","","stimuli/BF04_FO.jpg","",""
"explore-choice","87","689042","0.0-87.0","p202920","A1LJT9OW9UR4GF","3OWZNK3RYMVDNXPNEIRWZ8JM6MU2UY","3OVR4I9USRPYL2VNRPVG76EK6QD4Q9","emotion","mismatch","uniform","","","","","","","1507","689564","691071","[""stimuli/AM03_SUR.jpg"",""stimuli/BF06_DO.jpg"",""stimuli/BF04_FO.jpg"",""stimuli/HM09_CC.jpg""]","stimuli/AM03_SUR.jpg","stimuli/BF06_DO.jpg","stimuli/BF04_FO.jpg","stimuli/HM09_CC.jpg","pos1","stimuli/AM03_SUR.jpg","SUR","AM03","0","4.5","9","8","stimuli/stars_9.png","92.5","[""SUR"",""DO"",""FO"",""CC""]","[""AM03"",""BF06"",""BF04"",""HM09""]","[9,6,8,3]","[8,4,6,2]","","",""
"show-reward","88","691050","0.0-88.0","p202920","A1LJT9OW9UR4GF","3OWZNK3RYMVDNXPNEIRWZ8JM6MU2UY","3OVR4I9USRPYL2VNRPVG76EK6QD4Q9","emotion","mismatch","uniform","","","","","","","","691574","693579","","","","","","","","","","","","9","","stimuli/stars_9.png","92.5","","","","","stimuli/AM03_SUR.jpg","",""
"explore-choice","89","692626","0.0-89.0","p202920","A1LJT9OW9UR4GF","3OWZNK3RYMVDNXPNEIRWZ8JM6MU2UY","3OVR4I9USRPYL2VNRPVG76EK6QD4Q9","emotion","mismatch","uniform","","","","","","","1072","693582","694654","[""stimuli/HM09_FO.jpg"",""stimuli/BF04_DO.jpg"",""stimuli/AM03_CC.jpg"",""stimuli/BF06_SUR.jpg""]","stimuli/HM09_FO.jpg","stimuli/BF04_DO.jpg","stimuli/AM03_CC.jpg","stimuli/BF06_SUR.jpg","pos2","stimuli/BF04_DO.jpg","DO","BF04","1","3","6","4","stimuli/stars_6.png","95.5","[""FO"",""DO"",""CC"",""SUR""]","[""HM09"",""BF04"",""AM03"",""BF06""]","[7,6,1,10]","[6,4,2,8]","","",""
"show-reward","90","694630","0.0-90.0","p202920","A1LJT9OW9UR4GF","3OWZNK3RYMVDNXPNEIRWZ8JM6MU2UY","3OVR4I9USRPYL2VNRPVG76EK6QD4Q9","emotion","mismatch","uniform","","","","","","","","695157","697159","","","","","","","","","","","","6","","stimuli/stars_6.png","95.5","","","","","stimuli/BF04_DO.jpg","",""
"explore-choice","91","696484","0.0-91.0","p202920","A1LJT9OW9UR4GF","3OWZNK3RYMVDNXPNEIRWZ8JM6MU2UY","3OVR4I9USRPYL2VNRPVG76EK6QD4Q9","emotion","mismatch","uniform","","","","","","","1351","697162","698513","[""stimuli/AM03_SUR.jpg"",""stimuli/BF06_FO.jpg"",""stimuli/HM09_CC.jpg"",""stimuli/BF04_DO.jpg""]","stimuli/AM03_SUR.jpg","stimuli/BF06_FO.jpg","stimuli/HM09_CC.jpg","stimuli/BF04_DO.jpg","pos1","stimuli/AM03_SUR.jpg","SUR","AM03","0","3.5","7","8","stimuli/stars_7.png","99","[""SUR"",""FO"",""CC"",""DO""]","[""AM03"",""BF06"",""HM09"",""BF04""]","[7,6,0,3]","[8,6,2,4]","","",""
"show-reward","92","698488","0.0-92.0","p202920","A1LJT9OW9UR4GF","3OWZNK3RYMVDNXPNEIRWZ8JM6MU2UY","3OVR4I9USRPYL2VNRPVG76EK6QD4Q9","emotion","mismatch","uniform","","","","","","","","699015","701017","","","","","","","","","","","","7","","stimuli/stars_7.png","99","","","","","stimuli/AM03_SUR.jpg","",""
"explore-choice","93","718906","0.0-93.0","p202920","A1LJT9OW9UR4GF","3OWZNK3RYMVDNXPNEIRWZ8JM6MU2UY","3OVR4I9USRPYL2VNRPVG76EK6QD4Q9","emotion","mismatch","uniform","","","","","","","19913","701020","720933","[""stimuli/AM03_CC.jpg"",""stimuli/HM09_DO.jpg"",""stimuli/BF04_SUR.jpg"",""stimuli/BF06_FO.jpg""]","stimuli/AM03_CC.jpg","stimuli/HM09_DO.jpg","stimuli/BF04_SUR.jpg","stimuli/BF06_FO.jpg","pos3","stimuli/BF04_SUR.jpg","SUR","BF04","2","3.5","7","8","stimuli/stars_7.png","102.5","[""CC"",""DO"",""SUR"",""FO""]","[""AM03"",""HM09"",""BF04"",""BF06""]","[1,6,7,8]","[2,4,8,6]","","",""
"show-reward","94","720915","0.0-94.0","p202920","A1LJT9OW9UR4GF","3OWZNK3RYMVDNXPNEIRWZ8JM6MU2UY","3OVR4I9USRPYL2VNRPVG76EK6QD4Q9","emotion","mismatch","uniform","","","","","","","","721440","723444","","","","","","","","","","","","7","","stimuli/stars_7.png","102.5","","","","","stimuli/BF04_SUR.jpg","",""
"explore-choice","95","759741","0.0-95.0","p202920","A1LJT9OW9UR4GF","3OWZNK3RYMVDNXPNEIRWZ8JM6MU2UY","3OVR4I9USRPYL2VNRPVG76EK6QD4Q9","emotion","mismatch","uniform","","","","","","","38323","723447","761770","[""stimuli/AM03_FO.jpg"",""stimuli/BF06_DO.jpg"",""stimuli/BF04_SUR.jpg"",""stimuli/HM09_CC.jpg""]","stimuli/AM03_FO.jpg","stimuli/BF06_DO.jpg","stimuli/BF04_SUR.jpg","stimuli/HM09_CC.jpg","pos2","stimuli/BF06_DO.jpg","DO","BF06","1","1","2","4","stimuli/stars_2.png","103.5","[""FO"",""DO"",""SUR"",""CC""]","[""AM03"",""BF06"",""BF04"",""HM09""]","[7,2,6,0]","[6,4,8,2]","","",""
"show-reward","96","761748","0.0-96.0","p202920","A1LJT9OW9UR4GF","3OWZNK3RYMVDNXPNEIRWZ8JM6MU2UY","3OVR4I9USRPYL2VNRPVG76EK6QD4Q9","emotion","mismatch","uniform","","","","","","","","762274","764277","","","","","","","","","","","","2","","stimuli/stars_2.png","103.5","","","","","stimuli/BF06_DO.jpg","",""
"explore-choice","97","770388","0.0-97.0","p202920","A1LJT9OW9UR4GF","3OWZNK3RYMVDNXPNEIRWZ8JM6MU2UY","3OVR4I9USRPYL2VNRPVG76EK6QD4Q9","emotion","mismatch","uniform","","","","","","","8135","764281","772416","[""stimuli/BF04_SUR.jpg"",""stimuli/HM09_FO.jpg"",""stimuli/AM03_DO.jpg"",""stimuli/BF06_CC.jpg""]","stimuli/BF04_SUR.jpg","stimuli/HM09_FO.jpg","stimuli/AM03_DO.jpg","stimuli/BF06_CC.jpg","pos2","stimuli/HM09_FO.jpg","FO","HM09","1","3.5","7","6","stimuli/stars_7.png","107","[""SUR"",""FO"",""DO"",""CC""]","[""BF04"",""HM09"",""AM03"",""BF06""]","[7,7,5,4]","[8,6,4,2]","","",""
"show-reward","98","772414","0.0-98.0","p202920","A1LJT9OW9UR4GF","3OWZNK3RYMVDNXPNEIRWZ8JM6MU2UY","3OVR4I9USRPYL2VNRPVG76EK6QD4Q9","emotion","mismatch","uniform","","","","","","","","772937","774943","","","","","","","","","","","","7","","stimuli/stars_7.png","107","","","","","stimuli/HM09_FO.jpg","",""
"explore-choice","99","777213","0.0-99.0","p202920","A1LJT9OW9UR4GF","3OWZNK3RYMVDNXPNEIRWZ8JM6MU2UY","3OVR4I9USRPYL2VNRPVG76EK6QD4Q9","emotion","mismatch","uniform","","","","","","","4296","774945","779241","[""stimuli/BF04_CC.jpg"",""stimuli/BF06_SUR.jpg"",""stimuli/HM09_FO.jpg"",""stimuli/AM03_DO.jpg""]","stimuli/BF04_CC.jpg","stimuli/BF06_SUR.jpg","stimuli/HM09_FO.jpg","stimuli/AM03_DO.jpg","pos1","stimuli/BF04_CC.jpg","CC","BF04","0","1.5","3","2","stimuli/stars_3.png","108.5","[""CC"",""SUR"",""FO"",""DO""]","[""BF04"",""BF06"",""HM09"",""AM03""]","[3,8,4,4]","[2,8,6,4]","","",""
"show-reward","100","779219","0.0-100.0","p202920","A1LJT9OW9UR4GF","3OWZNK3RYMVDNXPNEIRWZ8JM6MU2UY","3OVR4I9USRPYL2VNRPVG76EK6QD4Q9","emotion","mismatch","uniform","","","","","","","","779746","781749","","","","","","","","","","","","3","","stimuli/stars_3.png","108.5","","","","","stimuli/BF04_CC.jpg","",""
"explore-choice","101","782503","0.0-101.0","p202920","A1LJT9OW9UR4GF","3OWZNK3RYMVDNXPNEIRWZ8JM6MU2UY","3OVR4I9USRPYL2VNRPVG76EK6QD4Q9","emotion","mismatch","uniform","","","","","","","2780","781752","784532","[""stimuli/BF06_CC.jpg"",""stimuli/BF04_FO.jpg"",""stimuli/HM09_SUR.jpg"",""stimuli/AM03_DO.jpg""]","stimuli/BF06_CC.jpg","stimuli/BF04_FO.jpg","stimuli/HM09_SUR.jpg","stimuli/AM03_DO.jpg","pos2","stimuli/BF04_FO.jpg","FO","BF04","1","2.5","5","6","stimuli/stars_5.png","111","[""CC"",""FO"",""SUR"",""DO""]","[""BF06"",""BF04"",""HM09"",""AM03""]","[2,5,8,5]","[2,6,8,4]","","",""
"show-reward","102","784527","0.0-102.0","p202920","A1LJT9OW9UR4GF","3OWZNK3RYMVDNXPNEIRWZ8JM6MU2UY","3OVR4I9USRPYL2VNRPVG76EK6QD4Q9","emotion","mismatch","uniform","","","","","","","","785036","787056","","","","","","","","","","","","5","","stimuli/stars_5.png","111","","","","","stimuli/BF04_FO.jpg","",""
"explore-choice","103","800050","0.0-103.0","p202920","A1LJT9OW9UR4GF","3OWZNK3RYMVDNXPNEIRWZ8JM6MU2UY","3OVR4I9USRPYL2VNRPVG76EK6QD4Q9","emotion","mismatch","uniform","","","","","","","15020","787059","802079","[""stimuli/AF10_HE.jpg"",""stimuli/HF02_HO.jpg"",""stimuli/WF06_AO.jpg"",""stimuli/BM04_SC.jpg""]","stimuli/AF10_HE.jpg","stimuli/HF02_HO.jpg","stimuli/WF06_AO.jpg","stimuli/BM04_SC.jpg","pos1","stimuli/AF10_HE.jpg","HE","AF10","0","2","4","4","stimuli/stars_4.png","113","[""HE"",""HO"",""AO"",""SC""]","[""AF10"",""HF02"",""WF06"",""BM04""]","[4,7,1,8]","[4,6,2,8]","","",""
"show-reward","104","802059","0.0-104.0","p202920","A1LJT9OW9UR4GF","3OWZNK3RYMVDNXPNEIRWZ8JM6MU2UY","3OVR4I9USRPYL2VNRPVG76EK6QD4Q9","emotion","mismatch","uniform","","","","","","","","802582","804588","","","","","","","","","","","","4","","stimuli/stars_4.png","113","","","","","stimuli/AF10_HE.jpg","",""
"explore-choice","105","806339","0.0-105.0","p202920","A1LJT9OW9UR4GF","3OWZNK3RYMVDNXPNEIRWZ8JM6MU2UY","3OVR4I9USRPYL2VNRPVG76EK6QD4Q9","emotion","mismatch","uniform","","","","","","","3775","804593","808368","[""stimuli/AF10_AO.jpg"",""stimuli/BM04_HE.jpg"",""stimuli/HF02_HO.jpg"",""stimuli/WF06_SC.jpg""]","stimuli/AF10_AO.jpg","stimuli/BM04_HE.jpg","stimuli/HF02_HO.jpg","stimuli/WF06_SC.jpg","pos2","stimuli/BM04_HE.jpg","HE","BM04","1","4","8","8","stimuli/stars_8.png","117","[""AO"",""HE"",""HO"",""SC""]","[""AF10"",""BM04"",""HF02"",""WF06""]","[3,8,5,4]","[4,8,6,2]","","",""
"show-reward","106","808352","0.0-106.0","p202920","A1LJT9OW9UR4GF","3OWZNK3RYMVDNXPNEIRWZ8JM6MU2UY","3OVR4I9USRPYL2VNRPVG76EK6QD4Q9","emotion","mismatch","uniform","","","","","","","","808878","810881","","","","","","","","","","","","8","","stimuli/stars_8.png","117","","","","","stimuli/BM04_HE.jpg","",""
"explore-choice","107","816446","0.0-107.0","p202920","A1LJT9OW9UR4GF","3OWZNK3RYMVDNXPNEIRWZ8JM6MU2UY","3OVR4I9USRPYL2VNRPVG76EK6QD4Q9","emotion","mismatch","uniform","","","","","","","7590","810884","818474","[""stimuli/AF10_HE.jpg"",""stimuli/HF02_SC.jpg"",""stimuli/WF06_HO.jpg"",""stimuli/BM04_AO.jpg""]","stimuli/AF10_HE.jpg","stimuli/HF02_SC.jpg","stimuli/WF06_HO.jpg","stimuli/BM04_AO.jpg","pos2","stimuli/HF02_SC.jpg","SC","HF02","1","4","8","6","stimuli/stars_8.png","121","[""HE"",""SC"",""HO"",""AO""]","[""AF10"",""HF02"",""WF06"",""BM04""]","[2,8,3,8]","[4,6,2,8]","","",""
"show-reward","108","818454","0.0-108.0","p202920","A1LJT9OW9UR4GF","3OWZNK3RYMVDNXPNEIRWZ8JM6MU2UY","3OVR4I9USRPYL2VNRPVG76EK6QD4Q9","emotion","mismatch","uniform","","","","","","","","818978","820983","","","","","","","","","","","","8","","stimuli/stars_8.png","121","","","","","stimuli/HF02_SC.jpg","",""
"explore-choice","109","873609","0.0-109.0","p202920","A1LJT9OW9UR4GF","3OWZNK3RYMVDNXPNEIRWZ8JM6MU2UY","3OVR4I9USRPYL2VNRPVG76EK6QD4Q9","emotion","mismatch","uniform","","","","","","","54652","820986","875638","[""stimuli/AF10_AO.jpg"",""stimuli/WF06_HO.jpg"",""stimuli/BM04_HE.jpg"",""stimuli/HF02_SC.jpg""]","stimuli/AF10_AO.jpg","stimuli/WF06_HO.jpg","stimuli/BM04_HE.jpg","stimuli/HF02_SC.jpg","pos2","stimuli/WF06_HO.jpg","HO","WF06","1","0.5","1","2","stimuli/stars_1.png","121.5","[""AO"",""HO"",""HE"",""SC""]","[""AF10"",""WF06"",""BM04"",""HF02""]","[2,1,7,6]","[4,2,8,6]","","",""
"show-reward","110","875617","0.0-110.0","p202920","A1LJT9OW9UR4GF","3OWZNK3RYMVDNXPNEIRWZ8JM6MU2UY","3OVR4I9USRPYL2VNRPVG76EK6QD4Q9","emotion","mismatch","uniform","","","","","","","","876141","878146","","","","","","","","","","","","1","","stimuli/stars_1.png","121.5","","","","","stimuli/WF06_HO.jpg","",""
"explore-choice","111","883649","0.0-111.0","p202920","A1LJT9OW9UR4GF","3OWZNK3RYMVDNXPNEIRWZ8JM6MU2UY","3OVR4I9USRPYL2VNRPVG76EK6QD4Q9","emotion","mismatch","uniform","","","","","","","7527","878149","885676","[""stimuli/WF06_SC.jpg"",""stimuli/HF02_AO.jpg"",""stimuli/AF10_HO.jpg"",""stimuli/BM04_HE.jpg""]","stimuli/WF06_SC.jpg","stimuli/HF02_AO.jpg","stimuli/AF10_HO.jpg","stimuli/BM04_HE.jpg","pos3","stimuli/AF10_HO.jpg","HO","AF10","2","3","6","4","stimuli/stars_6.png","124.5","[""SC"",""AO"",""HO"",""HE""]","[""WF06"",""HF02"",""AF10"",""BM04""]","[2,6,6,9]","[2,6,4,8]","","",""
"show-reward","112","885659","0.0-112.0","p202920","A1LJT9OW9UR4GF","3OWZNK3RYMVDNXPNEIRWZ8JM6MU2UY","3OVR4I9USRPYL2VNRPVG76EK6QD4Q9","emotion","mismatch","uniform","","","","","","","","886183","888188","","","","","","","","","","","","6","","stimuli/stars_6.png","124.5","","","","","stimuli/AF10_HO.jpg","",""
"explore-choice","113","899427","0.0-113.0","p202920","A1LJT9OW9UR4GF","3OWZNK3RYMVDNXPNEIRWZ8JM6MU2UY","3OVR4I9USRPYL2VNRPVG76EK6QD4Q9","emotion","mismatch","uniform","","","","","","","13261","888194","901455","[""stimuli/HF02_SC.jpg"",""stimuli/AF10_HO.jpg"",""stimuli/WF06_AO.jpg"",""stimuli/BM04_HE.jpg""]","stimuli/HF02_SC.jpg","stimuli/AF10_HO.jpg","stimuli/WF06_AO.jpg","stimuli/BM04_HE.jpg","pos3","stimuli/WF06_AO.jpg","AO","WF06","2","0","0","2","stimuli/stars_0.png","124.5","[""SC"",""HO"",""AO"",""HE""]","[""HF02"",""AF10"",""WF06"",""BM04""]","[5,5,0,8]","[6,4,2,8]","","",""
"show-reward","114","901435","0.0-114.0","p202920","A1LJT9OW9UR4GF","3OWZNK3RYMVDNXPNEIRWZ8JM6MU2UY","3OVR4I9USRPYL2VNRPVG76EK6QD4Q9","emotion","mismatch","uniform","","","","","","","","901960","903964","","","","","","","","","","","","0","","stimuli/stars_0.png","124.5","","","","","stimuli/WF06_AO.jpg","",""
"explore-choice","115","903306","0.0-115.0","p202920","A1LJT9OW9UR4GF","3OWZNK3RYMVDNXPNEIRWZ8JM6MU2UY","3OVR4I9USRPYL2VNRPVG76EK6QD4Q9","emotion","mismatch","uniform","","","","","","","1368","903968","905336","[""stimuli/WF06_SC.jpg"",""stimuli/AF10_AO.jpg"",""stimuli/BM04_HO.jpg"",""stimuli/HF02_HE.jpg""]","stimuli/WF06_SC.jpg","stimuli/AF10_AO.jpg","stimuli/BM04_HO.jpg","stimuli/HF02_HE.jpg","pos4","stimuli/HF02_HE.jpg","HE","HF02","3","4","8","6","stimuli/stars_8.png","128.5","[""SC"",""AO"",""HO"",""HE""]","[""WF06"",""AF10"",""BM04"",""HF02""]","[3,2,6,8]","[2,4,8,6]","","",""
"show-reward","116","905309","0.0-116.0","p202920","A1LJT9OW9UR4GF","3OWZNK3RYMVDNXPNEIRWZ8JM6MU2UY","3OVR4I9USRPYL2VNRPVG76EK6QD4Q9","emotion","mismatch","uniform","","","","","","","","905837","907839","","","","","","","","","","","","8","","stimuli/stars_8.png","128.5","","","","","stimuli/HF02_HE.jpg","",""
"explore-choice","117","908331","0.0-117.0","p202920","A1LJT9OW9UR4GF","3OWZNK3RYMVDNXPNEIRWZ8JM6MU2UY","3OVR4I9USRPYL2VNRPVG76EK6QD4Q9","emotion","mismatch","uniform","","","","","","","2518","907840","910358","[""stimuli/WF06_HO.jpg"",""stimuli/HF02_AO.jpg"",""stimuli/AF10_SC.jpg"",""stimuli/BM04_HE.jpg""]","stimuli/WF06_HO.jpg","stimuli/HF02_AO.jpg","stimuli/AF10_SC.jpg","stimuli/BM04_HE.jpg","pos2","stimuli/HF02_AO.jpg","AO","HF02","1","2","4","6","stimuli/stars_4.png","130.5","[""HO"",""AO"",""SC"",""HE""]","[""WF06"",""HF02"",""AF10"",""BM04""]","[0,4,6,8]","[2,6,4,8]","","",""
"show-reward","118","910339","0.0-118.0","p202920","A1LJT9OW9UR4GF","3OWZNK3RYMVDNXPNEIRWZ8JM6MU2UY","3OVR4I9USRPYL2VNRPVG76EK6QD4Q9","emotion","mismatch","uniform","","","","","","","","910865","912868","","","","","","","","","","","","4","","stimuli/stars_4.png","130.5","","","","","stimuli/HF02_AO.jpg","",""
"explore-choice","119","915360","0.0-119.0","p202920","A1LJT9OW9UR4GF","3OWZNK3RYMVDNXPNEIRWZ8JM6MU2UY","3OVR4I9USRPYL2VNRPVG76EK6QD4Q9","emotion","mismatch","uniform","","","","","","","4517","912871","917388","[""stimuli/HF02_AO.jpg"",""stimuli/AF10_HO.jpg"",""stimuli/BM04_SC.jpg"",""stimuli/WF06_HE.jpg""]","stimuli/HF02_AO.jpg","stimuli/AF10_HO.jpg","stimuli/BM04_SC.jpg","stimuli/WF06_HE.jpg","pos3","stimuli/BM04_SC.jpg","SC","BM04","2","3","6","8","stimuli/stars_6.png","133.5","[""AO"",""HO"",""SC"",""HE""]","[""HF02"",""AF10"",""BM04"",""WF06""]","[4,2,6,0]","[6,4,8,2]","","",""
"show-reward","120","917364","0.0-120.0","p202920","A1LJT9OW9UR4GF","3OWZNK3RYMVDNXPNEIRWZ8JM6MU2UY","3OVR4I9USRPYL2VNRPVG76EK6QD4Q9","emotion","mismatch","uniform","","","","","","","","917891","919893","","","","","","","","","","","","6","","stimuli/stars_6.png","133.5","","","","","stimuli/BM04_SC.jpg","",""
"explore-choice","121","919676","0.0-121.0","p202920","A1LJT9OW9UR4GF","3OWZNK3RYMVDNXPNEIRWZ8JM6MU2UY","3OVR4I9USRPYL2VNRPVG76EK6QD4Q9","emotion","mismatch","uniform","","","","","","","1806","919897","921703","[""stimuli/AF10_AO.jpg"",""stimuli/BM04_HO.jpg"",""stimuli/WF06_HE.jpg"",""stimuli/HF02_SC.jpg""]","stimuli/AF10_AO.jpg","stimuli/BM04_HO.jpg","stimuli/WF06_HE.jpg","stimuli/HF02_SC.jpg","pos2","stimuli/BM04_HO.jpg","HO","BM04","1","5","10","8","stimuli/stars_10.png","138.5","[""AO"",""HO"",""HE"",""SC""]","[""AF10"",""BM04"",""WF06"",""HF02""]","[3,10,4,4]","[4,8,2,6]","","",""
"show-reward","122","921683","0.0-122.0","p202920","A1LJT9OW9UR4GF","3OWZNK3RYMVDNXPNEIRWZ8JM6MU2UY","3OVR4I9USRPYL2VNRPVG76EK6QD4Q9","emotion","mismatch","uniform","","","","","","","","922208","924212","","","","","","","","","","","","10","","stimuli/stars_10.png","138.5","","","","","stimuli/BM04_HO.jpg","",""
"explore-choice","123","924155","0.0-123.0","p202920","A1LJT9OW9UR4GF","3OWZNK3RYMVDNXPNEIRWZ8JM6MU2UY","3OVR4I9USRPYL2VNRPVG76EK6QD4Q9","emotion","mismatch","uniform","","","","","","","1969","924215","926184","[""stimuli/BM04_AO.jpg"",""stimuli/WF06_HE.jpg"",""stimuli/AF10_HO.jpg"",""stimuli/HF02_SC.jpg""]","stimuli/BM04_AO.jpg","stimuli/WF06_HE.jpg","stimuli/AF10_HO.jpg","stimuli/HF02_SC.jpg","pos2","stimuli/WF06_HE.jpg","HE","WF06","1","2","4","2","stimuli/stars_4.png","140.5","[""AO"",""HE"",""HO"",""SC""]","[""BM04"",""WF06"",""AF10"",""HF02""]","[10,4,5,8]","[8,2,4,6]","","",""
"show-reward","124","926162","0.0-124.0","p202920","A1LJT9OW9UR4GF","3OWZNK3RYMVDNXPNEIRWZ8JM6MU2UY","3OVR4I9USRPYL2VNRPVG76EK6QD4Q9","emotion","mismatch","uniform","","","","","","","","926688","928691","","","","","","","","","","","","4","","stimuli/stars_4.png","140.5","","","","","stimuli/WF06_HE.jpg","",""
"explore-choice","125","929878","0.0-125.0","p202920","A1LJT9OW9UR4GF","3OWZNK3RYMVDNXPNEIRWZ8JM6MU2UY","3OVR4I9USRPYL2VNRPVG76EK6QD4Q9","emotion","mismatch","uniform","","","","","","","3213","928694","931907","[""stimuli/WF06_HO.jpg"",""stimuli/HF02_AO.jpg"",""stimuli/BM04_SC.jpg"",""stimuli/AF10_HE.jpg""]","stimuli/WF06_HO.jpg","stimuli/HF02_AO.jpg","stimuli/BM04_SC.jpg","stimuli/AF10_HE.jpg","pos3","stimuli/BM04_SC.jpg","SC","BM04","2","5","10","8","stimuli/stars_10.png","145.5","[""HO"",""AO"",""SC"",""HE""]","[""WF06"",""HF02"",""BM04"",""AF10""]","[4,5,10,5]","[2,6,8,4]","","",""
"show-reward","126","931883","0.0-126.0","p202920","A1LJT9OW9UR4GF","3OWZNK3RYMVDNXPNEIRWZ8JM6MU2UY","3OVR4I9USRPYL2VNRPVG76EK6QD4Q9","emotion","mismatch","uniform","","","","","","","","932409","934412","","","","","","","","","","","","10","","stimuli/stars_10.png","145.5","","","","","stimuli/BM04_SC.jpg","",""
"explore-choice","127","933683","0.0-127.0","p202920","A1LJT9OW9UR4GF","3OWZNK3RYMVDNXPNEIRWZ8JM6MU2UY","3OVR4I9USRPYL2VNRPVG76EK6QD4Q9","emotion","mismatch","uniform","","","","","","","1298","934415","935713","[""stimuli/BM04_SC.jpg"",""stimuli/AF10_AO.jpg"",""stimuli/HF02_HO.jpg"",""stimuli/WF06_HE.jpg""]","stimuli/BM04_SC.jpg","stimuli/AF10_AO.jpg","stimuli/HF02_HO.jpg","stimuli/WF06_HE.jpg","pos2","stimuli/AF10_AO.jpg","AO","AF10","1","2","4","4","stimuli/stars_4.png","147.5","[""SC"",""AO"",""HO"",""HE""]","[""BM04"",""AF10"",""HF02"",""WF06""]","[7,4,7,0]","[8,4,6,2]","","",""
"show-reward","128","935690","0.0-128.0","p202920","A1LJT9OW9UR4GF","3OWZNK3RYMVDNXPNEIRWZ8JM6MU2UY","3OVR4I9USRPYL2VNRPVG76EK6QD4Q9","emotion","mismatch","uniform","","","","","","","","936215","938219","","","","","","","","","","","","4","","stimuli/stars_4.png","147.5","","","","","stimuli/AF10_AO.jpg","",""
"explore-choice","129","940664","0.0-129.0","p202920","A1LJT9OW9UR4GF","3OWZNK3RYMVDNXPNEIRWZ8JM6MU2UY","3OVR4I9USRPYL2VNRPVG76EK6QD4Q9","emotion","mismatch","uniform","","","","","","","4472","938221","942693","[""stimuli/HF02_HE.jpg"",""stimuli/BM04_AO.jpg"",""stimuli/AF10_SC.jpg"",""stimuli/WF06_HO.jpg""]","stimuli/HF02_HE.jpg","stimuli/BM04_AO.jpg","stimuli/AF10_SC.jpg","stimuli/WF06_HO.jpg","pos3","stimuli/AF10_SC.jpg","SC","AF10","2","1.5","3","4","stimuli/stars_3.png","149","[""HE"",""AO"",""SC"",""HO""]","[""HF02"",""BM04"",""AF10"",""WF06""]","[6,6,3,4]","[6,8,4,2]","","",""
"show-reward","130","942670","0.0-130.0","p202920","A1LJT9OW9UR4GF","3OWZNK3RYMVDNXPNEIRWZ8JM6MU2UY","3OVR4I9USRPYL2VNRPVG76EK6QD4Q9","emotion","mismatch","uniform","","","","","","","","943196","945198","","","","","","","","","","","","3","","stimuli/stars_3.png","149","","","","","stimuli/AF10_SC.jpg","",""
"explore-choice","131","945715","0.0-131.0","p202920","A1LJT9OW9UR4GF","3OWZNK3RYMVDNXPNEIRWZ8JM6MU2UY","3OVR4I9USRPYL2VNRPVG76EK6QD4Q9","emotion","mismatch","uniform","","","","","","","2542","945202","947744","[""stimuli/BM04_HO.jpg"",""stimuli/HF02_SC.jpg"",""stimuli/WF06_AO.jpg"",""stimuli/AF10_HE.jpg""]","stimuli/BM04_HO.jpg","stimuli/HF02_SC.jpg","stimuli/WF06_AO.jpg","stimuli/AF10_HE.jpg","pos2","stimuli/HF02_SC.jpg","SC","HF02","1","4","8","6","stimuli/stars_8.png","153","[""HO"",""SC"",""AO"",""HE""]","[""BM04"",""HF02"",""WF06"",""AF10""]","[6,8,2,5]","[8,6,2,4]","","",""
"show-reward","132","947726","0.0-132.0","p202920","A1LJT9OW9UR4GF","3OWZNK3RYMVDNXPNEIRWZ8JM6MU2UY","3OVR4I9USRPYL2VNRPVG76EK6QD4Q9","emotion","mismatch","uniform","","","","","","","","948247","950255","","","","","","","","","","","","8","","stimuli/stars_8.png","153","","","","","stimuli/HF02_SC.jpg","",""
"explore-choice","133","950321","0.0-133.0","p202920","A1LJT9OW9UR4GF","3OWZNK3RYMVDNXPNEIRWZ8JM6MU2UY","3OVR4I9USRPYL2VNRPVG76EK6QD4Q9","emotion","mismatch","uniform","","","","","","","2090","950258","952348","[""stimuli/HF02_HO.jpg"",""stimuli/BM04_HE.jpg"",""stimuli/WF06_AO.jpg"",""stimuli/AF10_SC.jpg""]","stimuli/HF02_HO.jpg","stimuli/BM04_HE.jpg","stimuli/WF06_AO.jpg","stimuli/AF10_SC.jpg","pos3","stimuli/WF06_AO.jpg","AO","WF06","2","2","4","2","stimuli/stars_4.png","155","[""HO"",""HE"",""AO"",""SC""]","[""HF02"",""BM04"",""WF06"",""AF10""]","[8,9,4,4]","[6,8,2,4]","","",""
"show-reward","134","952326","0.0-134.0","p202920","A1LJT9OW9UR4GF","3OWZNK3RYMVDNXPNEIRWZ8JM6MU2UY","3OVR4I9USRPYL2VNRPVG76EK6QD4Q9","emotion","mismatch","uniform","","","","","","","","952852","954855","","","","","","","","","","","","4","","stimuli/stars_4.png","155","","","","","stimuli/WF06_AO.jpg","",""
"explore-choice","135","954527","0.0-135.0","p202920","A1LJT9OW9UR4GF","3OWZNK3RYMVDNXPNEIRWZ8JM6MU2UY","3OVR4I9USRPYL2VNRPVG76EK6QD4Q9","emotion","mismatch","uniform","","","","","","","1689","954858","956547","[""stimuli/BM04_SC.jpg"",""stimuli/WF06_HO.jpg"",""stimuli/HF02_HE.jpg"",""stimuli/AF10_AO.jpg""]","stimuli/BM04_SC.jpg","stimuli/WF06_HO.jpg","stimuli/HF02_HE.jpg","stimuli/AF10_AO.jpg","pos4","stimuli/AF10_AO.jpg","AO","AF10","3","1.5","3","4","stimuli/stars_3.png","156.5","[""SC"",""HO"",""HE"",""AO""]","[""BM04"",""WF06"",""HF02"",""AF10""]","[10,2,8,3]","[8,2,6,4]","","",""
"show-reward","136","956529","0.0-136.0","p202920","A1LJT9OW9UR4GF","3OWZNK3RYMVDNXPNEIRWZ8JM6MU2UY","3OVR4I9USRPYL2VNRPVG76EK6QD4Q9","emotion","mismatch","uniform","","","","","","","","957058","959059","","","","","","","","","","","","3","","stimuli/stars_3.png","156.5","","","","","stimuli/AF10_AO.jpg","",""
"explore-choice","137","961620","0.0-137.0","p202920","A1LJT9OW9UR4GF","3OWZNK3RYMVDNXPNEIRWZ8JM6MU2UY","3OVR4I9USRPYL2VNRPVG76EK6QD4Q9","emotion","mismatch","uniform","","","","","","","4585","959063","963648","[""stimuli/WF06_SC.jpg"",""stimuli/HF02_AO.jpg"",""stimuli/AF10_HE.jpg"",""stimuli/BM04_HO.jpg""]","stimuli/WF06_SC.jpg","stimuli/HF02_AO.jpg","stimuli/AF10_HE.jpg","stimuli/BM04_HO.jpg","pos3","stimuli/AF10_HE.jpg","HE","AF10","2","1","2","4","stimuli/stars_2.png","157.5","[""SC"",""AO"",""HE"",""HO""]","[""WF06"",""HF02"",""AF10"",""BM04""]","[2,6,2,10]","[2,6,4,8]","","",""
"show-reward","138","963631","0.0-138.0","p202920","A1LJT9OW9UR4GF","3OWZNK3RYMVDNXPNEIRWZ8JM6MU2UY","3OVR4I9USRPYL2VNRPVG76EK6QD4Q9","emotion","mismatch","uniform","","","","","","","","964155","966160","","","","","","","","","","","","2","","stimuli/stars_2.png","157.5","","","","","stimuli/AF10_HE.jpg","",""
"explore-choice","139","967627","0.0-139.0","p202920","A1LJT9OW9UR4GF","3OWZNK3RYMVDNXPNEIRWZ8JM6MU2UY","3OVR4I9USRPYL2VNRPVG76EK6QD4Q9","emotion","mismatch","uniform","","","","","","","3492","966163","969655","[""stimuli/BM04_AO.jpg"",""stimuli/WF06_HE.jpg"",""stimuli/HF02_HO.jpg"",""stimuli/AF10_SC.jpg""]","stimuli/BM04_AO.jpg","stimuli/WF06_HE.jpg","stimuli/HF02_HO.jpg","stimuli/AF10_SC.jpg","pos2","stimuli/WF06_HE.jpg","HE","WF06","1","2","4","2","stimuli/stars_4.png","159.5","[""AO"",""HE"",""HO"",""SC""]","[""BM04"",""WF06"",""HF02"",""AF10""]","[7,4,5,6]","[8,2,6,4]","","",""
"show-reward","140","969642","0.0-140.0","p202920","A1LJT9OW9UR4GF","3OWZNK3RYMVDNXPNEIRWZ8JM6MU2UY","3OVR4I9USRPYL2VNRPVG76EK6QD4Q9","emotion","mismatch","uniform","","","","","","","","970160","972170","","","","","","","","","","","","4","","stimuli/stars_4.png","159.5","","","","","stimuli/WF06_HE.jpg","",""
"explore-choice","141","973899","0.0-141.0","p202920","A1LJT9OW9UR4GF","3OWZNK3RYMVDNXPNEIRWZ8JM6MU2UY","3OVR4I9USRPYL2VNRPVG76EK6QD4Q9","emotion","mismatch","uniform","","","","","","","3754","972174","975928","[""stimuli/BM04_AO.jpg"",""stimuli/WF06_SC.jpg"",""stimuli/AF10_HE.jpg"",""stimuli/HF02_HO.jpg""]","stimuli/BM04_AO.jpg","stimuli/WF06_SC.jpg","stimuli/AF10_HE.jpg","stimuli/HF02_HO.jpg","pos2","stimuli/WF06_SC.jpg","SC","WF06","1","0","0","2","stimuli/stars_0.png","159.5","[""AO"",""SC"",""HE"",""HO""]","[""BM04"",""WF06"",""AF10"",""HF02""]","[10,0,3,6]","[8,2,4,6]","","",""
"show-reward","142","975905","0.0-142.0","p202920","A1LJT9OW9UR4GF","3OWZNK3RYMVDNXPNEIRWZ8JM6MU2UY","3OVR4I9USRPYL2VNRPVG76EK6QD4Q9","emotion","mismatch","uniform","","","","","","","","976432","978435","","","","","","","","","","","","0","","stimuli/stars_0.png","159.5","","","","","stimuli/WF06_SC.jpg","",""
"explore-choice","143","978132","0.0-143.0","p202920","A1LJT9OW9UR4GF","3OWZNK3RYMVDNXPNEIRWZ8JM6MU2UY","3OVR4I9USRPYL2VNRPVG76EK6QD4Q9","emotion","mismatch","uniform","","","","","","","1725","978436","980161","[""stimuli/WF06_SC.jpg"",""stimuli/BM04_AO.jpg"",""stimuli/AF10_HO.jpg"",""stimuli/HF02_HE.jpg""]","stimuli/WF06_SC.jpg","stimuli/BM04_AO.jpg","stimuli/AF10_HO.jpg","stimuli/HF02_HE.jpg","pos3","stimuli/AF10_HO.jpg","HO","AF10","2","1","2","4","stimuli/stars_2.png","160.5","[""SC"",""AO"",""HO"",""HE""]","[""WF06"",""BM04"",""AF10"",""HF02""]","[3,10,2,6]","[2,8,4,6]","","",""
"show-reward","144","980139","0.0-144.0","p202920","A1LJT9OW9UR4GF","3OWZNK3RYMVDNXPNEIRWZ8JM6MU2UY","3OVR4I9USRPYL2VNRPVG76EK6QD4Q9","emotion","mismatch","uniform","","","","","","","","980664","982668","","","","","","","","","","","","2","","stimuli/stars_2.png","160.5","","","","","stimuli/AF10_HO.jpg","",""
"explore-choice","145","988111","0.0-145.0","p202920","A1LJT9OW9UR4GF","3OWZNK3RYMVDNXPNEIRWZ8JM6MU2UY","3OVR4I9USRPYL2VNRPVG76EK6QD4Q9","emotion","mismatch","uniform","","","","","","","7469","982670","990139","[""stimuli/BM04_HO.jpg"",""stimuli/AF10_SC.jpg"",""stimuli/HF02_HE.jpg"",""stimuli/WF06_AO.jpg""]","stimuli/BM04_HO.jpg","stimuli/AF10_SC.jpg","stimuli/HF02_HE.jpg","stimuli/WF06_AO.jpg","pos2","stimuli/AF10_SC.jpg","SC","AF10","1","2.5","5","4","stimuli/stars_5.png","163","[""HO"",""SC"",""HE"",""AO""]","[""BM04"",""AF10"",""HF02"",""WF06""]","[6,5,4,4]","[8,4,6,2]","","",""
"show-reward","146","990118","0.0-146.0","p202920","A1LJT9OW9UR4GF","3OWZNK3RYMVDNXPNEIRWZ8JM6MU2UY","3OVR4I9USRPYL2VNRPVG76EK6QD4Q9","emotion","mismatch","uniform","","","","","","","","990644","992647","","","","","","","","","","","","5","","stimuli/stars_5.png","163","","","","","stimuli/AF10_SC.jpg","",""
"explore-choice","147","1039024","0.0-147.0","p202920","A1LJT9OW9UR4GF","3OWZNK3RYMVDNXPNEIRWZ8JM6MU2UY","3OVR4I9USRPYL2VNRPVG76EK6QD4Q9","emotion","mismatch","uniform","","","","","","","48400","992651","1041051","[""stimuli/HF02_HE.jpg"",""stimuli/AF10_HO.jpg"",""stimuli/BM04_SC.jpg"",""stimuli/WF06_AO.jpg""]","stimuli/HF02_HE.jpg","stimuli/AF10_HO.jpg","stimuli/BM04_SC.jpg","stimuli/WF06_AO.jpg","pos2","stimuli/AF10_HO.jpg","HO","AF10","1","1","2","4","stimuli/stars_2.png","164","[""HE"",""HO"",""SC"",""AO""]","[""HF02"",""AF10"",""BM04"",""WF06""]","[8,2,9,2]","[6,4,8,2]","","",""
"show-reward","148","1041037","0.0-148.0","p202920","A1LJT9OW9UR4GF","3OWZNK3RYMVDNXPNEIRWZ8JM6MU2UY","3OVR4I9USRPYL2VNRPVG76EK6QD4Q9","emotion","mismatch","uniform","","","","","","","","1041557","1043566","","","","","","","","","","","","2","","stimuli/stars_2.png","164","","","","","stimuli/AF10_HO.jpg","",""
"explore-choice","149","1045732","0.0-149.0","p202920","A1LJT9OW9UR4GF","3OWZNK3RYMVDNXPNEIRWZ8JM6MU2UY","3OVR4I9USRPYL2VNRPVG76EK6QD4Q9","emotion","mismatch","uniform","","","","","","","4191","1043570","1047761","[""stimuli/AF10_SC.jpg"",""stimuli/BM04_HO.jpg"",""stimuli/WF06_HE.jpg"",""stimuli/HF02_AO.jpg""]","stimuli/AF10_SC.jpg","stimuli/BM04_HO.jpg","stimuli/WF06_HE.jpg","stimuli/HF02_AO.jpg","pos3","stimuli/WF06_HE.jpg","HE","WF06","2","0.5","1","2","stimuli/stars_1.png","164.5","[""SC"",""HO"",""HE"",""AO""]","[""AF10"",""BM04"",""WF06"",""HF02""]","[5,8,1,8]","[4,8,2,6]","","",""
"show-reward","150","1047742","0.0-150.0","p202920","A1LJT9OW9UR4GF","3OWZNK3RYMVDNXPNEIRWZ8JM6MU2UY","3OVR4I9USRPYL2VNRPVG76EK6QD4Q9","emotion","mismatch","uniform","","","","","","","","1048265","1050271","","","","","","","","","","","","1","","stimuli/stars_1.png","164.5","","","","","stimuli/WF06_HE.jpg","",""
"explore-choice","151","1053253","0.0-151.0","p202920","A1LJT9OW9UR4GF","3OWZNK3RYMVDNXPNEIRWZ8JM6MU2UY","3OVR4I9USRPYL2VNRPVG76EK6QD4Q9","emotion","mismatch","uniform","","","","","","","5006","1050274","1055280","[""stimuli/HF02_AO.jpg"",""stimuli/BM04_HE.jpg"",""stimuli/AF10_SC.jpg"",""stimuli/WF06_HO.jpg""]","stimuli/HF02_AO.jpg","stimuli/BM04_HE.jpg","stimuli/AF10_SC.jpg","stimuli/WF06_HO.jpg","pos3","stimuli/AF10_SC.jpg","SC","AF10","2","3","6","4","stimuli/stars_6.png","167.5","[""AO"",""HE"",""SC"",""HO""]","[""HF02"",""BM04"",""AF10"",""WF06""]","[4,8,6,0]","[6,8,4,2]","","",""
"show-reward","152","1055257","0.0-152.0","p202920","A1LJT9OW9UR4GF","3OWZNK3RYMVDNXPNEIRWZ8JM6MU2UY","3OVR4I9USRPYL2VNRPVG76EK6QD4Q9","emotion","mismatch","uniform","","","","","","","","1055785","1057787","","","","","","","","","","","","6","","stimuli/stars_6.png","167.5","","","","","stimuli/AF10_SC.jpg","",""
"explore-choice","153","1057690","0.0-153.0","p202920","A1LJT9OW9UR4GF","3OWZNK3RYMVDNXPNEIRWZ8JM6MU2UY","3OVR4I9USRPYL2VNRPVG76EK6QD4Q9","emotion","mismatch","uniform","","","","","","","1930","1057789","1059719","[""stimuli/AF10_AO.jpg"",""stimuli/BM04_SC.jpg"",""stimuli/HF02_HO.jpg"",""stimuli/WF06_HE.jpg""]","stimuli/AF10_AO.jpg","stimuli/BM04_SC.jpg","stimuli/HF02_HO.jpg","stimuli/WF06_HE.jpg","pos2","stimuli/BM04_SC.jpg","SC","BM04","1","3.5","7","8","stimuli/stars_7.png","171","[""AO"",""SC"",""HO"",""HE""]","[""AF10"",""BM04"",""HF02"",""WF06""]","[4,7,7,0]","[4,8,6,2]","","",""
"show-reward","154","1059697","0.0-154.0","p202920","A1LJT9OW9UR4GF","3OWZNK3RYMVDNXPNEIRWZ8JM6MU2UY","3OVR4I9USRPYL2VNRPVG76EK6QD4Q9","emotion","mismatch","uniform","","","","","","","","1060223","1062227","","","","","","","","","","","","7","","stimuli/stars_7.png","171","","","","","stimuli/BM04_SC.jpg","",""
"explore-choice","155","1062345","0.0-155.0","p202920","A1LJT9OW9UR4GF","3OWZNK3RYMVDNXPNEIRWZ8JM6MU2UY","3OVR4I9USRPYL2VNRPVG76EK6QD4Q9","emotion","mismatch","uniform","","","","","","","2144","1062229","1064373","[""stimuli/BM04_SC.jpg"",""stimuli/WF06_AO.jpg"",""stimuli/AF10_HO.jpg"",""stimuli/HF02_HE.jpg""]","stimuli/BM04_SC.jpg","stimuli/WF06_AO.jpg","stimuli/AF10_HO.jpg","stimuli/HF02_HE.jpg","pos3","stimuli/AF10_HO.jpg","HO","AF10","2","1","2","4","stimuli/stars_2.png","172","[""SC"",""AO"",""HO"",""HE""]","[""BM04"",""WF06"",""AF10"",""HF02""]","[9,2,2,8]","[8,2,4,6]","","",""
"show-reward","156","1064356","0.0-156.0","p202920","A1LJT9OW9UR4GF","3OWZNK3RYMVDNXPNEIRWZ8JM6MU2UY","3OVR4I9USRPYL2VNRPVG76EK6QD4Q9","emotion","mismatch","uniform","","","","","","","","1064881","1066886","","","","","","","","","","","","2","","stimuli/stars_2.png","172","","","","","stimuli/AF10_HO.jpg","",""
"explore-choice","157","1066447","0.0-157.0","p202920","A1LJT9OW9UR4GF","3OWZNK3RYMVDNXPNEIRWZ8JM6MU2UY","3OVR4I9USRPYL2VNRPVG76EK6QD4Q9","emotion","mismatch","uniform","","","","","","","1590","1066887","1068477","[""stimuli/AF10_HO.jpg"",""stimuli/WF06_AO.jpg"",""stimuli/BM04_HE.jpg"",""stimuli/HF02_SC.jpg""]","stimuli/AF10_HO.jpg","stimuli/WF06_AO.jpg","stimuli/BM04_HE.jpg","stimuli/HF02_SC.jpg","pos2","stimuli/WF06_AO.jpg","AO","WF06","1","0","0","2","stimuli/stars_0.png","172","[""HO"",""AO"",""HE"",""SC""]","[""AF10"",""WF06"",""BM04"",""HF02""]","[5,0,8,5]","[4,2,8,6]","","",""
"show-reward","158","1068454","0.0-158.0","p202920","A1LJT9OW9UR4GF","3OWZNK3RYMVDNXPNEIRWZ8JM6MU2UY","3OVR4I9USRPYL2VNRPVG76EK6QD4Q9","emotion","mismatch","uniform","","","","","","","","1068979","1070984","","","","","","","","","","","","0","","stimuli/stars_0.png","172","","","","","stimuli/WF06_AO.jpg","",""
"explore-choice","159","1070144","0.0-159.0","p202920","A1LJT9OW9UR4GF","3OWZNK3RYMVDNXPNEIRWZ8JM6MU2UY","3OVR4I9USRPYL2VNRPVG76EK6QD4Q9","emotion","mismatch","uniform","","","","","","","1187","1070986","1072173","[""stimuli/HF02_HE.jpg"",""stimuli/AF10_SC.jpg"",""stimuli/WF06_AO.jpg"",""stimuli/BM04_HO.jpg""]","stimuli/HF02_HE.jpg","stimuli/AF10_SC.jpg","stimuli/WF06_AO.jpg","stimuli/BM04_HO.jpg","pos2","stimuli/AF10_SC.jpg","SC","AF10","1","2.5","5","4","stimuli/stars_5.png","174.5","[""HE"",""SC"",""AO"",""HO""]","[""HF02"",""AF10"",""WF06"",""BM04""]","[4,5,4,6]","[6,4,2,8]","","",""
"show-reward","160","1072148","0.0-160.0","p202920","A1LJT9OW9UR4GF","3OWZNK3RYMVDNXPNEIRWZ8JM6MU2UY","3OVR4I9USRPYL2VNRPVG76EK6QD4Q9","emotion","mismatch","uniform","","","","","","","","1072676","1074678","","","","","","","","","","","","5","","stimuli/stars_5.png","174.5","","","","","stimuli/AF10_SC.jpg","",""
"explore-choice","161","1074902","0.0-161.0","p202920","A1LJT9OW9UR4GF","3OWZNK3RYMVDNXPNEIRWZ8JM6MU2UY","3OVR4I9USRPYL2VNRPVG76EK6QD4Q9","emotion","mismatch","uniform","","","","","","","2251","1074680","1076931","[""stimuli/BM04_HE.jpg"",""stimuli/WF06_SC.jpg"",""stimuli/HF02_AO.jpg"",""stimuli/AF10_HO.jpg""]","stimuli/BM04_HE.jpg","stimuli/WF06_SC.jpg","stimuli/HF02_AO.jpg","stimuli/AF10_HO.jpg","pos3","stimuli/HF02_AO.jpg","AO","HF02","2","3","6","6","stimuli/stars_6.png","177.5","[""HE"",""SC"",""AO"",""HO""]","[""BM04"",""WF06"",""HF02"",""AF10""]","[9,2,6,6]","[8,2,6,4]","","",""
"show-reward","162","1076908","0.0-162.0","p202920","A1LJT9OW9UR4GF","3OWZNK3RYMVDNXPNEIRWZ8JM6MU2UY","3OVR4I9USRPYL2VNRPVG76EK6QD4Q9","emotion","mismatch","uniform","","","","","","","","1077433","1079437","","","","","","","","","","","","6","","stimuli/stars_6.png","177.5","","","","","stimuli/HF02_AO.jpg","",""
"explore-choice","163","1090646","0.0-163.0","p202920","A1LJT9OW9UR4GF","3OWZNK3RYMVDNXPNEIRWZ8JM6MU2UY","3OVR4I9USRPYL2VNRPVG76EK6QD4Q9","emotion","mismatch","uniform","","","","","","","13233","1079440","1092673","[""stimuli/HF02_HO.jpg"",""stimuli/WF06_SC.jpg"",""stimuli/BM04_AO.jpg"",""stimuli/AF10_HE.jpg""]","stimuli/HF02_HO.jpg","stimuli/WF06_SC.jpg","stimuli/BM04_AO.jpg","stimuli/AF10_HE.jpg","pos2","stimuli/WF06_SC.jpg","SC","WF06","1","0","0","2","stimuli/stars_0.png","177.5","[""HO"",""SC"",""AO"",""HE""]","[""HF02"",""WF06"",""BM04"",""AF10""]","[6,0,10,3]","[6,2,8,4]","","",""
"show-reward","164","1092654","0.0-164.0","p202920","A1LJT9OW9UR4GF","3OWZNK3RYMVDNXPNEIRWZ8JM6MU2UY","3OVR4I9USRPYL2VNRPVG76EK6QD4Q9","emotion","mismatch","uniform","","","","","","","","1093179","1095184","","","","","","","","","","","","0","","stimuli/stars_0.png","177.5","","","","","stimuli/WF06_SC.jpg","",""
"explore-choice","165","1094287","0.0-165.0","p202920","A1LJT9OW9UR4GF","3OWZNK3RYMVDNXPNEIRWZ8JM6MU2UY","3OVR4I9USRPYL2VNRPVG76EK6QD4Q9","emotion","mismatch","uniform","","","","","","","1131","1095185","1096316","[""stimuli/HF02_HE.jpg"",""stimuli/AF10_SC.jpg"",""stimuli/WF06_HO.jpg"",""stimuli/BM04_AO.jpg""]","stimuli/HF02_HE.jpg","stimuli/AF10_SC.jpg","stimuli/WF06_HO.jpg","stimuli/BM04_AO.jpg","pos1","stimuli/HF02_HE.jpg","HE","HF02","0","3","6","6","stimuli/stars_6.png","180.5","[""HE"",""SC"",""HO"",""AO""]","[""HF02"",""AF10"",""WF06"",""BM04""]","[6,3,4,6]","[6,4,2,8]","","",""
"show-reward","166","1096332","0.0-166.0","p202920","A1LJT9OW9UR4GF","3OWZNK3RYMVDNXPNEIRWZ8JM6MU2UY","3OVR4I9USRPYL2VNRPVG76EK6QD4Q9","emotion","mismatch","uniform","","","","","","","","1096818","1098862","","","","","","","","","","","","6","","stimuli/stars_6.png","180.5","","","","","stimuli/HF02_HE.jpg","",""
"explore-choice","167","1097846","0.0-167.0","p202920","A1LJT9OW9UR4GF","3OWZNK3RYMVDNXPNEIRWZ8JM6MU2UY","3OVR4I9USRPYL2VNRPVG76EK6QD4Q9","emotion","mismatch","uniform","","","","","","","1010","1098863","1099873","[""stimuli/WF06_SC.jpg"",""stimuli/AF10_AO.jpg"",""stimuli/BM04_HE.jpg"",""stimuli/HF02_HO.jpg""]","stimuli/WF06_SC.jpg","stimuli/AF10_AO.jpg","stimuli/BM04_HE.jpg","stimuli/HF02_HO.jpg","pos4","stimuli/HF02_HO.jpg","HO","HF02","3","2.5","5","6","stimuli/stars_5.png","183","[""SC"",""AO"",""HE"",""HO""]","[""WF06"",""AF10"",""BM04"",""HF02""]","[4,3,8,5]","[2,4,8,6]","","",""
"show-reward","168","1099852","0.0-168.0","p202920","A1LJT9OW9UR4GF","3OWZNK3RYMVDNXPNEIRWZ8JM6MU2UY","3OVR4I9USRPYL2VNRPVG76EK6QD4Q9","emotion","mismatch","uniform","","","","","","","","1100378","1102382","","","","","","","","","","","","5","","stimuli/stars_5.png","183","","","","","stimuli/HF02_HO.jpg","",""
"explore-choice","169","1101630","0.0-169.0","p202920","A1LJT9OW9UR4GF","3OWZNK3RYMVDNXPNEIRWZ8JM6MU2UY","3OVR4I9USRPYL2VNRPVG76EK6QD4Q9","emotion","mismatch","uniform","","","","","","","1272","1102384","1103656","[""stimuli/BM04_SC.jpg"",""stimuli/AF10_AO.jpg"",""stimuli/HF02_HE.jpg"",""stimuli/WF06_HO.jpg""]","stimuli/BM04_SC.jpg","stimuli/AF10_AO.jpg","stimuli/HF02_HE.jpg","stimuli/WF06_HO.jpg","pos3","stimuli/HF02_HE.jpg","HE","HF02","2","4","8","6","stimuli/stars_8.png","187","[""SC"",""AO"",""HE"",""HO""]","[""BM04"",""AF10"",""HF02"",""WF06""]","[10,3,8,2]","[8,4,6,2]","","",""
"show-reward","170","1103632","0.0-170.0","p202920","A1LJT9OW9UR4GF","3OWZNK3RYMVDNXPNEIRWZ8JM6MU2UY","3OVR4I9USRPYL2VNRPVG76EK6QD4Q9","emotion","mismatch","uniform","","","","","","","","1104161","1106162","","","","","","","","","","","","8","","stimuli/stars_8.png","187","","","","","stimuli/HF02_HE.jpg","",""
"explore-choice","171","1105067","0.0-171.0","p202920","A1LJT9OW9UR4GF","3OWZNK3RYMVDNXPNEIRWZ8JM6MU2UY","3OVR4I9USRPYL2VNRPVG76EK6QD4Q9","emotion","mismatch","uniform","","","","","","","934","1106163","1107097","[""stimuli/AF10_HO.jpg"",""stimuli/WF06_SC.jpg"",""stimuli/HF02_HE.jpg"",""stimuli/BM04_AO.jpg""]","stimuli/AF10_HO.jpg","stimuli/WF06_SC.jpg","stimuli/HF02_HE.jpg","stimuli/BM04_AO.jpg","pos2","stimuli/WF06_SC.jpg","SC","WF06","1","1.5","3","2","stimuli/stars_3.png","188.5","[""HO"",""SC"",""HE"",""AO""]","[""AF10"",""WF06"",""HF02"",""BM04""]","[2,3,6,10]","[4,2,6,8]","","",""
"show-reward","172","1107077","0.0-172.0","p202920","A1LJT9OW9UR4GF","3OWZNK3RYMVDNXPNEIRWZ8JM6MU2UY","3OVR4I9USRPYL2VNRPVG76EK6QD4Q9","emotion","mismatch","uniform","","","","","","","","1107599","1109607","","","","","","","","","","","","3","","stimuli/stars_3.png","188.5","","","","","stimuli/WF06_SC.jpg","",""
"explore-choice","173","1124053","0.0-173.0","p202920","A1LJT9OW9UR4GF","3OWZNK3RYMVDNXPNEIRWZ8JM6MU2UY","3OVR4I9USRPYL2VNRPVG76EK6QD4Q9","emotion","mismatch","uniform","","","","","","","16471","1109610","1126081","[""stimuli/AF10_HE.jpg"",""stimuli/BM04_HO.jpg"",""stimuli/HF02_AO.jpg"",""stimuli/WF06_SC.jpg""]","stimuli/AF10_HE.jpg","stimuli/BM04_HO.jpg","stimuli/HF02_AO.jpg","stimuli/WF06_SC.jpg","pos2","stimuli/BM04_HO.jpg","HO","BM04","1","5","10","8","stimuli/stars_10.png","193.5","[""HE"",""HO"",""AO"",""SC""]","[""AF10"",""BM04"",""HF02"",""WF06""]","[2,10,6,2]","[4,8,6,2]","","",""
"show-reward","174","1126058","0.0-174.0","p202920","A1LJT9OW9UR4GF","3OWZNK3RYMVDNXPNEIRWZ8JM6MU2UY","3OVR4I9USRPYL2VNRPVG76EK6QD4Q9","emotion","mismatch","uniform","","","","","","","","1126584","1128587","","","","","","","","","","","","10","","stimuli/stars_10.png","193.5","","","","","stimuli/BM04_HO.jpg","",""
"explore-choice","175","1128016","0.0-175.0","p202920","A1LJT9OW9UR4GF","3OWZNK3RYMVDNXPNEIRWZ8JM6MU2UY","3OVR4I9USRPYL2VNRPVG76EK6QD4Q9","emotion","mismatch","uniform","","","","","","","1450","1128594","1130044","[""stimuli/HF02_HO.jpg"",""stimuli/AF10_SC.jpg"",""stimuli/WF06_AO.jpg"",""stimuli/BM04_HE.jpg""]","stimuli/HF02_HO.jpg","stimuli/AF10_SC.jpg","stimuli/WF06_AO.jpg","stimuli/BM04_HE.jpg","pos3","stimuli/WF06_AO.jpg","AO","WF06","2","2","4","2","stimuli/stars_4.png","195.5","[""HO"",""SC"",""AO"",""HE""]","[""HF02"",""AF10"",""WF06"",""BM04""]","[8,4,4,9]","[6,4,2,8]","","",""
"show-reward","176","1130020","0.0-176.0","p202920","A1LJT9OW9UR4GF","3OWZNK3RYMVDNXPNEIRWZ8JM6MU2UY","3OVR4I9USRPYL2VNRPVG76EK6QD4Q9","emotion","mismatch","uniform","","","","","","","","1130547","1132549","","","","","","","","","","","","4","","stimuli/stars_4.png","195.5","","","","","stimuli/WF06_AO.jpg","",""
"explore-choice","177","1132550","0.0-177.0","p202920","A1LJT9OW9UR4GF","3OWZNK3RYMVDNXPNEIRWZ8JM6MU2UY","3OVR4I9USRPYL2VNRPVG76EK6QD4Q9","emotion","mismatch","uniform","","","","","","","2028","1132551","1134579","[""stimuli/WF06_SC.jpg"",""stimuli/BM04_HO.jpg"",""stimuli/HF02_HE.jpg"",""stimuli/AF10_AO.jpg""]","stimuli/WF06_SC.jpg","stimuli/BM04_HO.jpg","stimuli/HF02_HE.jpg","stimuli/AF10_AO.jpg","pos4","stimuli/AF10_AO.jpg","AO","AF10","3","1","2","4","stimuli/stars_2.png","196.5","[""SC"",""HO"",""HE"",""AO""]","[""WF06"",""BM04"",""HF02"",""AF10""]","[3,6,8,2]","[2,8,6,4]","","",""
"show-reward","178","1134558","0.0-178.0","p202920","A1LJT9OW9UR4GF","3OWZNK3RYMVDNXPNEIRWZ8JM6MU2UY","3OVR4I9USRPYL2VNRPVG76EK6QD4Q9","emotion","mismatch","uniform","","","","","","","","1135082","1137086","","","","","","","","","","","","2","","stimuli/stars_2.png","196.5","","","","","stimuli/AF10_AO.jpg","",""
"explore-choice","179","1138278","0.0-179.0","p202920","A1LJT9OW9UR4GF","3OWZNK3RYMVDNXPNEIRWZ8JM6MU2UY","3OVR4I9USRPYL2VNRPVG76EK6QD4Q9","emotion","mismatch","uniform","","","","","","","3217","1137090","1140307","[""stimuli/BM04_HO.jpg"",""stimuli/WF06_HE.jpg"",""stimuli/HF02_SC.jpg"",""stimuli/AF10_AO.jpg""]","stimuli/BM04_HO.jpg","stimuli/WF06_HE.jpg","stimuli/HF02_SC.jpg","stimuli/AF10_AO.jpg","pos4","stimuli/AF10_AO.jpg","AO","AF10","3","1.5","3","4","stimuli/stars_3.png","198","[""HO"",""HE"",""SC"",""AO""]","[""BM04"",""WF06"",""HF02"",""AF10""]","[10,4,4,3]","[8,2,6,4]","","",""
"show-reward","180","1140285","0.0-180.0","p202920","A1LJT9OW9UR4GF","3OWZNK3RYMVDNXPNEIRWZ8JM6MU2UY","3OVR4I9USRPYL2VNRPVG76EK6QD4Q9","emotion","mismatch","uniform","","","","","","","","1140809","1142815","","","","","","","","","","","","3","","stimuli/stars_3.png","198","","","","","stimuli/AF10_AO.jpg","",""
"explore-choice","181","1143298","0.0-181.0","p202920","A1LJT9OW9UR4GF","3OWZNK3RYMVDNXPNEIRWZ8JM6MU2UY","3OVR4I9USRPYL2VNRPVG76EK6QD4Q9","emotion","mismatch","uniform","","","","","","","2510","1142816","1145326","[""stimuli/HF02_SC.jpg"",""stimuli/AF10_HE.jpg"",""stimuli/BM04_HO.jpg"",""stimuli/WF06_AO.jpg""]","stimuli/HF02_SC.jpg","stimuli/AF10_HE.jpg","stimuli/BM04_HO.jpg","stimuli/WF06_AO.jpg","pos3","stimuli/BM04_HO.jpg","HO","BM04","2","3","6","8","stimuli/stars_6.png","201","[""SC"",""HE"",""HO"",""AO""]","[""HF02"",""AF10"",""BM04"",""WF06""]","[8,5,6,2]","[6,4,8,2]","","",""
"show-reward","182","1145891","0.0-182.0","p202920","A1LJT9OW9UR4GF","3OWZNK3RYMVDNXPNEIRWZ8JM6MU2UY","3OVR4I9USRPYL2VNRPVG76EK6QD4Q9","emotion","mismatch","uniform","","","","","","","","1145829","1148420","","","","","","","","","","","","6","","stimuli/stars_6.png","201","","","","","stimuli/BM04_HO.jpg","",""
"explore-choice","183","1157531","0.0-183.0","p202920","A1LJT9OW9UR4GF","3OWZNK3RYMVDNXPNEIRWZ8JM6MU2UY","3OVR4I9USRPYL2VNRPVG76EK6QD4Q9","emotion","mismatch","uniform","","","","","","","11136","1148424","1159560","[""stimuli/BM04_SC.jpg"",""stimuli/WF06_HE.jpg"",""stimuli/AF10_HO.jpg"",""stimuli/HF02_AO.jpg""]","stimuli/BM04_SC.jpg","stimuli/WF06_HE.jpg","stimuli/AF10_HO.jpg","stimuli/HF02_AO.jpg","pos1","stimuli/BM04_SC.jpg","SC","BM04","0","3","6","8","stimuli/stars_6.png","204","[""SC"",""HE"",""HO"",""AO""]","[""BM04"",""WF06"",""AF10"",""HF02""]","[6,0,2,4]","[8,2,4,6]","","",""
"show-reward","184","1159899","0.0-184.0","p202920","A1LJT9OW9UR4GF","3OWZNK3RYMVDNXPNEIRWZ8JM6MU2UY","3OVR4I9USRPYL2VNRPVG76EK6QD4Q9","emotion","mismatch","uniform","","","","","","","","1160063","1162427","","","","","","","","","","","","6","","stimuli/stars_6.png","204","","","","","stimuli/BM04_SC.jpg","",""
"explore-choice","185","1165437","0.0-185.0","p202920","A1LJT9OW9UR4GF","3OWZNK3RYMVDNXPNEIRWZ8JM6MU2UY","3OVR4I9USRPYL2VNRPVG76EK6QD4Q9","emotion","mismatch","uniform","","","","","","","4972","1162432","1167404","[""stimuli/BM04_SC.jpg"",""stimuli/WF06_AO.jpg"",""stimuli/HF02_HO.jpg"",""stimuli/AF10_HE.jpg""]","stimuli/BM04_SC.jpg","stimuli/WF06_AO.jpg","stimuli/HF02_HO.jpg","stimuli/AF10_HE.jpg","pos2","stimuli/WF06_AO.jpg","AO","WF06","1","0.5","1","2","stimuli/stars_1.png","204.5","[""SC"",""AO"",""HO"",""HE""]","[""BM04"",""WF06"",""HF02"",""AF10""]","[8,1,7,4]","[8,2,6,4]","","",""
"show-reward","186","1167441","0.0-186.0","p202920","A1LJT9OW9UR4GF","3OWZNK3RYMVDNXPNEIRWZ8JM6MU2UY","3OVR4I9USRPYL2VNRPVG76EK6QD4Q9","emotion","mismatch","uniform","","","","","","","","1167968","1169970","","","","","","","","","","","","1","","stimuli/stars_1.png","204.5","","","","","stimuli/WF06_AO.jpg","",""
"explore-choice","187","1174780","0.0-187.0","p202920","A1LJT9OW9UR4GF","3OWZNK3RYMVDNXPNEIRWZ8JM6MU2UY","3OVR4I9USRPYL2VNRPVG76EK6QD4Q9","emotion","mismatch","uniform","","","","","","","6830","1169971","1176801","[""stimuli/WF06_HO.jpg"",""stimuli/AF10_HE.jpg"",""stimuli/BM04_AO.jpg"",""stimuli/HF02_SC.jpg""]","stimuli/WF06_HO.jpg","stimuli/AF10_HE.jpg","stimuli/BM04_AO.jpg","stimuli/HF02_SC.jpg","pos1","stimuli/WF06_HO.jpg","HO","WF06","0","1.5","3","2","stimuli/stars_3.png","206","[""HO"",""HE"",""AO"",""SC""]","[""WF06"",""AF10"",""BM04"",""HF02""]","[3,2,8,8]","[2,4,8,6]","","",""
"show-reward","188","1176785","0.0-188.0","p202920","A1LJT9OW9UR4GF","3OWZNK3RYMVDNXPNEIRWZ8JM6MU2UY","3OVR4I9USRPYL2VNRPVG76EK6QD4Q9","emotion","mismatch","uniform","","","","","","","","1177311","1179313","","","","","","","","","","","","3","","stimuli/stars_3.png","206","","","","","stimuli/WF06_HO.jpg","",""
"explore-choice","189","1180569","0.0-189.0","p202920","A1LJT9OW9UR4GF","3OWZNK3RYMVDNXPNEIRWZ8JM6MU2UY","3OVR4I9USRPYL2VNRPVG76EK6QD4Q9","emotion","mismatch","uniform","","","","","","","3278","1179316","1182594","[""stimuli/HF02_SC.jpg"",""stimuli/AF10_HO.jpg"",""stimuli/WF06_HE.jpg"",""stimuli/BM04_AO.jpg""]","stimuli/HF02_SC.jpg","stimuli/AF10_HO.jpg","stimuli/WF06_HE.jpg","stimuli/BM04_AO.jpg","pos2","stimuli/AF10_HO.jpg","HO","AF10","1","2.5","5","4","stimuli/stars_5.png","208.5","[""SC"",""HO"",""HE"",""AO""]","[""HF02"",""AF10"",""WF06"",""BM04""]","[8,5,4,10]","[6,4,2,8]","","",""
"show-reward","190","1182575","0.0-190.0","p202920","A1LJT9OW9UR4GF","3OWZNK3RYMVDNXPNEIRWZ8JM6MU2UY","3OVR4I9USRPYL2VNRPVG76EK6QD4Q9","emotion","mismatch","uniform","","","","","","","","1183099","1185104","","","","","","","","","","","","5","","stimuli/stars_5.png","208.5","","","","","stimuli/AF10_HO.jpg","",""
"explore-choice","191","1184531","0.0-191.0","p202920","A1LJT9OW9UR4GF","3OWZNK3RYMVDNXPNEIRWZ8JM6MU2UY","3OVR4I9USRPYL2VNRPVG76EK6QD4Q9","emotion","mismatch","uniform","","","","","","","1453","1185106","1186559","[""stimuli/BM04_SC.jpg"",""stimuli/AF10_HE.jpg"",""stimuli/WF06_HO.jpg"",""stimuli/HF02_AO.jpg""]","stimuli/BM04_SC.jpg","stimuli/AF10_HE.jpg","stimuli/WF06_HO.jpg","stimuli/HF02_AO.jpg","pos3","stimuli/WF06_HO.jpg","HO","WF06","2","2","4","2","stimuli/stars_4.png","210.5","[""SC"",""HE"",""HO"",""AO""]","[""BM04"",""AF10"",""WF06"",""HF02""]","[10,5,4,5]","[8,4,2,6]","","",""
"show-reward","192","1186885","0.0-192.0","p202920","A1LJT9OW9UR4GF","3OWZNK3RYMVDNXPNEIRWZ8JM6MU2UY","3OVR4I9USRPYL2VNRPVG76EK6QD4Q9","emotion","mismatch","uniform","","","","","","","","1187061","1189414","","","","","","","","","","","","4","","stimuli/stars_4.png","210.5","","","","","stimuli/WF06_HO.jpg","",""
"explore-choice","193","1192078","0.0-193.0","p202920","A1LJT9OW9UR4GF","3OWZNK3RYMVDNXPNEIRWZ8JM6MU2UY","3OVR4I9USRPYL2VNRPVG76EK6QD4Q9","emotion","mismatch","uniform","","","","","","","4691","1189416","1194107","[""stimuli/WF06_HE.jpg"",""stimuli/AF10_SC.jpg"",""stimuli/BM04_AO.jpg"",""stimuli/HF02_HO.jpg""]","stimuli/WF06_HE.jpg","stimuli/AF10_SC.jpg","stimuli/BM04_AO.jpg","stimuli/HF02_HO.jpg","pos2","stimuli/AF10_SC.jpg","SC","AF10","1","3","6","4","stimuli/stars_6.png","213.5","[""HE"",""SC"",""AO"",""HO""]","[""WF06"",""AF10"",""BM04"",""HF02""]","[4,6,7,5]","[2,4,8,6]","","",""
"show-reward","194","1194089","0.0-194.0","p202920","A1LJT9OW9UR4GF","3OWZNK3RYMVDNXPNEIRWZ8JM6MU2UY","3OVR4I9USRPYL2VNRPVG76EK6QD4Q9","emotion","mismatch","uniform","","","","","","","","1194613","1196616","","","","","","","","","","","","6","","stimuli/stars_6.png","213.5","","","","","stimuli/AF10_SC.jpg","",""
"explore-choice","195","1196275","0.0-195.0","p202920","A1LJT9OW9UR4GF","3OWZNK3RYMVDNXPNEIRWZ8JM6MU2UY","3OVR4I9USRPYL2VNRPVG76EK6QD4Q9","emotion","mismatch","uniform","","","","","","","1682","1196622","1198304","[""stimuli/AF10_AO.jpg"",""stimuli/HF02_SC.jpg"",""stimuli/WF06_HO.jpg"",""stimuli/BM04_HE.jpg""]","stimuli/AF10_AO.jpg","stimuli/HF02_SC.jpg","stimuli/WF06_HO.jpg","stimuli/BM04_HE.jpg","pos3","stimuli/WF06_HO.jpg","HO","WF06","2","0.5","1","2","stimuli/stars_1.png","214","[""AO"",""SC"",""HO"",""HE""]","[""AF10"",""HF02"",""WF06"",""BM04""]","[2,6,1,7]","[4,6,2,8]","","",""
"show-reward","196","1198279","0.0-196.0","p202920","A1LJT9OW9UR4GF","3OWZNK3RYMVDNXPNEIRWZ8JM6MU2UY","3OVR4I9USRPYL2VNRPVG76EK6QD4Q9","emotion","mismatch","uniform","","","","","","","","1198806","1200808","","","","","","","","","","","","1","","stimuli/stars_1.png","214","","","","","stimuli/WF06_HO.jpg","",""
"explore-choice","197","1200826","0.0-197.0","p202920","A1LJT9OW9UR4GF","3OWZNK3RYMVDNXPNEIRWZ8JM6MU2UY","3OVR4I9USRPYL2VNRPVG76EK6QD4Q9","emotion","mismatch","uniform","","","","","","","2035","1200810","1202845","[""stimuli/HF02_AO.jpg"",""stimuli/WF06_HE.jpg"",""stimuli/AF10_SC.jpg"",""stimuli/BM04_HO.jpg""]","stimuli/HF02_AO.jpg","stimuli/WF06_HE.jpg","stimuli/AF10_SC.jpg","stimuli/BM04_HO.jpg","pos4","stimuli/BM04_HO.jpg","HO","BM04","3","4","8","8","stimuli/stars_8.png","218","[""AO"",""HE"",""SC"",""HO""]","[""HF02"",""WF06"",""AF10"",""BM04""]","[8,1,5,8]","[6,2,4,8]","","",""
"show-reward","198","1202831","0.0-198.0","p202920","A1LJT9OW9UR4GF","3OWZNK3RYMVDNXPNEIRWZ8JM6MU2UY","3OVR4I9USRPYL2VNRPVG76EK6QD4Q9","emotion","mismatch","uniform","","","","","","","","1203356","1205359","","","","","","","","","","","","8","","stimuli/stars_8.png","218","","","","","stimuli/BM04_HO.jpg","",""
"instructions","199","1205465","0.0-199.0","p202920","A1LJT9OW9UR4GF","3OWZNK3RYMVDNXPNEIRWZ8JM6MU2UY","3OVR4I9USRPYL2VNRPVG76EK6QD4Q9","emotion","mismatch","uniform","","","","","","[{""page_index"":0,""viewing_time"":2628}]","2629","","","","","","","","","","","","","","","","","","","","","","","",""
"survey-text","200","1211177","0.0-200.0-0.0","p202920","A1LJT9OW9UR4GF","3OWZNK3RYMVDNXPNEIRWZ8JM6MU2UY","3OVR4I9USRPYL2VNRPVG76EK6QD4Q9","emotion","mismatch","uniform","","","","","","","5702","","","","","","","","","","","","","","","","","","","","","","","{""age"":""36""}",""
"survey-text","201","1218635","0.0-200.0-1.0","p202920","A1LJT9OW9UR4GF","3OWZNK3RYMVDNXPNEIRWZ8JM6MU2UY","3OVR4I9USRPYL2VNRPVG76EK6QD4Q9","emotion","mismatch","uniform","","","","","","","7453","","","","","","","","","","","","","","","","","","","","","","","{""gender"":""Female""}",""
"survey-text","202","1238283","0.0-200.0-2.0","p202920","A1LJT9OW9UR4GF","3OWZNK3RYMVDNXPNEIRWZ8JM6MU2UY","3OVR4I9USRPYL2VNRPVG76EK6QD4Q9","emotion","mismatch","uniform","","","","","","","19631","","","","","","","","","","","","","","","","","","","","","","","{""country"":""USA""}",""
"survey-text","203","1259570","0.0-200.0-3.0","p202920","A1LJT9OW9UR4GF","3OWZNK3RYMVDNXPNEIRWZ8JM6MU2UY","3OVR4I9USRPYL2VNRPVG76EK6QD4Q9","emotion","mismatch","uniform","","","","","","","21278","","","","","","","","","","","","","","","","","","","","","","","{""language"":""English"",""other_languages"":""English""}",""
"survey-multi-select","204","1263427","0.0-201.0","p202920","A1LJT9OW9UR4GF","3OWZNK3RYMVDNXPNEIRWZ8JM6MU2UY","3OVR4I9USRPYL2VNRPVG76EK6QD4Q9","emotion","mismatch","uniform","","","","","","","3841","","","","","","","","","","","","","","","","","","","","","","","{""race"":[""White""]}","[0]"
"survey-multi-choice","205","1271057","0.0-202.0","p202920","A1LJT9OW9UR4GF","3OWZNK3RYMVDNXPNEIRWZ8JM6MU2UY","3OVR4I9USRPYL2VNRPVG76EK6QD4Q9","emotion","mismatch","uniform","","","","","","","7622","","","","","","","","","","","","","","","","","","","","","","","{""education"":""Bachelor's degree""}","[0]"
"survey-text","206","1323687","0.0-203.0","p202920","A1LJT9OW9UR4GF","3OWZNK3RYMVDNXPNEIRWZ8JM6MU2UY","3OVR4I9USRPYL2VNRPVG76EK6QD4Q9","emotion","mismatch","uniform","","","","","","","52618","","","","","","","","","","","","","","","","","","","","","","","{""patterns"":""Yes"",""strategy"":""Yes"",""comments"":""Nice""}",""
