"trial_type","trial_index","time_elapsed","internal_node_id","subject","workerId","hitId","assignmentId","structure_condition","match_condition","noise_type","success","timeout","failed_images","failed_audio","failed_video","view_history","rt","start_time","end_time","stimuli","image1","image2","image3","image4","choiceLocation","choiceImage","choiceEmotion","choiceModel","choice_index","reward_score","reward","reward_score_unadjusted","reward_image","score_after_trial","emotions","models","rewards","rewards_unadjusted","stimulus","response","question_order"
"pavlovia","0","31","0.0-0.0","p530881","A1WJGO38GJ99ZS","3087LXLJ6NMH85PJ46SJUKP4Z1V0FD","3ERMJ6L4D0Y4JAFE1UM6T9EPNR67M9","model","match","uniform","","","","","","","","","","","","","","","","","","","","","","","","","","","","","","",""
"preload","1","34872","0.0-1.0","p530881","A1WJGO38GJ99ZS","3087LXLJ6NMH85PJ46SJUKP4Z1V0FD","3ERMJ6L4D0Y4JAFE1UM6T9EPNR67M9","model","match","uniform","true","false","[]","[]","[]","","","","","","","","","","","","","","","","","","","","","","","","","",""
"fullscreen","2","46500","0.0-2.0","p530881","A1WJGO38GJ99ZS","3087LXLJ6NMH85PJ46SJUKP4Z1V0FD","3ERMJ6L4D0Y4JAFE1UM6T9EPNR67M9","model","match","uniform","true","","","","","","","","","","","","","","","","","","","","","","","","","","","","","",""
"instructions","3","59413","0.0-3.0","p530881","A1WJGO38GJ99ZS","3087LXLJ6NMH85PJ46SJUKP4Z1V0FD","3ERMJ6L4D0Y4JAFE1UM6T9EPNR67M9","model","match","uniform","","","","","","[{""page_index"":0,""viewing_time"":12909.400000095367}]","12910.200000047684","","","","","","","","","","","","","","","","","","","","","","","",""
"explore-choice","4","62424","0.0-4.0","p530881","A1WJGO38GJ99ZS","3087LXLJ6NMH85PJ46SJUKP4Z1V0FD","3ERMJ6L4D0Y4JAFE1UM6T9EPNR67M9","model","match","uniform","","","","","","","2507.7000000476837","62151.90000009537","64659.60000014305","[""stimuli/sheep.jpg"",""stimuli/hammer.jpg"",""stimuli/basketball.jpg"",""stimuli/horse.jpg""]","stimuli/sheep.jpg","stimuli/hammer.jpg","stimuli/basketball.jpg","stimuli/horse.jpg","pos4","stimuli/horse.jpg","","","3","64","64","64","stimuli/stars_8.png","65","","","","","","",""
"explore-choice","5","64858","0.0-5.0","p530881","A1WJGO38GJ99ZS","3087LXLJ6NMH85PJ46SJUKP4Z1V0FD","3ERMJ6L4D0Y4JAFE1UM6T9EPNR67M9","model","match","uniform","","","","","","","1931.0999999046326","65163.300000190735","67094.40000009537","[""stimuli/hammer.jpg"",""stimuli/basketball.jpg"",""stimuli/horse.jpg"",""stimuli/sheep.jpg""]","stimuli/hammer.jpg","stimuli/basketball.jpg","stimuli/horse.jpg","stimuli/sheep.jpg","pos1","stimuli/hammer.jpg","","","0","8","8","8","stimuli/stars_2.png","9","","","","","","",""
"instructions","6","125187","0.0-6.0","p530881","A1WJGO38GJ99ZS","3087LXLJ6NMH85PJ46SJUKP4Z1V0FD","3ERMJ6L4D0Y4JAFE1UM6T9EPNR67M9","model","match","uniform","","","","","","[{""page_index"":0,""viewing_time"":60327.699999809265}]","60328","","","","","","","","","","","","","","","","","","","","","","","",""
"explore-choice","7","130460","0.0-7.0","p530881","A1WJGO38GJ99ZS","3087LXLJ6NMH85PJ46SJUKP4Z1V0FD","3ERMJ6L4D0Y4JAFE1UM6T9EPNR67M9","model","match","uniform","","","","","","","4769.200000047684","127926.90000009537","132696.10000014305","[""stimuli/AM06_HE.jpg"",""stimuli/WF14_SUR.jpg"",""stimuli/BM16_AO.jpg"",""stimuli/AM05_SC.jpg""]","stimuli/AM06_HE.jpg","stimuli/WF14_SUR.jpg","stimuli/BM16_AO.jpg","stimuli/AM05_SC.jpg","pos3","stimuli/BM16_AO.jpg","AO","BM16","2","0","0","2","stimuli/stars_0.png","1","[""HE"",""SUR"",""AO"",""SC""]","[""AM06"",""WF14"",""BM16"",""AM05""]","[3,6,0,4]","[4,8,2,6]","","",""
"show-reward","8","132468","0.0-8.0","p530881","A1WJGO38GJ99ZS","3087LXLJ6NMH85PJ46SJUKP4Z1V0FD","3ERMJ6L4D0Y4JAFE1UM6T9EPNR67M9","model","match","uniform","","","","","","","","133202.30000019073","135205.10000014305","","","","","","","","","","","","0","","stimuli/stars_0.png","1","","","","","stimuli/BM16_AO.jpg","",""
"explore-choice","9","134215","0.0-9.0","p530881","A1WJGO38GJ99ZS","3087LXLJ6NMH85PJ46SJUKP4Z1V0FD","3ERMJ6L4D0Y4JAFE1UM6T9EPNR67M9","model","match","uniform","","","","","","","1242.2000000476837","135209.70000004768","136451.90000009537","[""stimuli/AM05_SC.jpg"",""stimuli/WF14_HE.jpg"",""stimuli/BM16_SUR.jpg"",""stimuli/AM06_AO.jpg""]","stimuli/AM05_SC.jpg","stimuli/WF14_HE.jpg","stimuli/BM16_SUR.jpg","stimuli/AM06_AO.jpg","pos2","stimuli/WF14_HE.jpg","HE","WF14","1","4","8","8","stimuli/stars_8.png","5","[""SC"",""HE"",""SUR"",""AO""]","[""AM05"",""WF14"",""BM16"",""AM06""]","[4,8,3,4]","[6,8,2,4]","","",""
"show-reward","10","136220","0.0-10.0","p530881","A1WJGO38GJ99ZS","3087LXLJ6NMH85PJ46SJUKP4Z1V0FD","3ERMJ6L4D0Y4JAFE1UM6T9EPNR67M9","model","match","uniform","","","","","","","","136954","138957.10000014305","","","","","","","","","","","","8","","stimuli/stars_8.png","5","","","","","stimuli/WF14_HE.jpg","",""
"explore-choice","11","138024","0.0-11.0","p530881","A1WJGO38GJ99ZS","3087LXLJ6NMH85PJ46SJUKP4Z1V0FD","3ERMJ6L4D0Y4JAFE1UM6T9EPNR67M9","model","match","uniform","","","","","","","1300.8999998569489","138959.10000014305","140260","[""stimuli/AM06_AO.jpg"",""stimuli/AM05_HE.jpg"",""stimuli/BM16_SUR.jpg"",""stimuli/WF14_SC.jpg""]","stimuli/AM06_AO.jpg","stimuli/AM05_HE.jpg","stimuli/BM16_SUR.jpg","stimuli/WF14_SC.jpg","pos2","stimuli/AM05_HE.jpg","HE","AM05","1","3","6","6","stimuli/stars_6.png","8","[""AO"",""HE"",""SUR"",""SC""]","[""AM06"",""AM05"",""BM16"",""WF14""]","[3,6,4,6]","[4,6,2,8]","","",""
"show-reward","12","140030","0.0-12.0","p530881","A1WJGO38GJ99ZS","3087LXLJ6NMH85PJ46SJUKP4Z1V0FD","3ERMJ6L4D0Y4JAFE1UM6T9EPNR67M9","model","match","uniform","","","","","","","","140763.30000019073","142767.70000004768","","","","","","","","","","","","6","","stimuli/stars_6.png","8","","","","","stimuli/AM05_HE.jpg","",""
"explore-choice","13","142441","0.0-13.0","p530881","A1WJGO38GJ99ZS","3087LXLJ6NMH85PJ46SJUKP4Z1V0FD","3ERMJ6L4D0Y4JAFE1UM6T9EPNR67M9","model","match","uniform","","","","","","","1907.2999999523163","142769.60000014305","144676.90000009537","[""stimuli/WF14_HE.jpg"",""stimuli/AM05_AO.jpg"",""stimuli/AM06_SUR.jpg"",""stimuli/BM16_SC.jpg""]","stimuli/WF14_HE.jpg","stimuli/AM05_AO.jpg","stimuli/AM06_SUR.jpg","stimuli/BM16_SC.jpg","pos1","stimuli/WF14_HE.jpg","HE","WF14","0","3","6","8","stimuli/stars_6.png","11","[""HE"",""AO"",""SUR"",""SC""]","[""WF14"",""AM05"",""AM06"",""BM16""]","[6,4,3,4]","[8,6,4,2]","","",""
"show-reward","14","144447","0.0-14.0","p530881","A1WJGO38GJ99ZS","3087LXLJ6NMH85PJ46SJUKP4Z1V0FD","3ERMJ6L4D0Y4JAFE1UM6T9EPNR67M9","model","match","uniform","","","","","","","","145180.30000019073","147184.10000014305","","","","","","","","","","","","6","","stimuli/stars_6.png","11","","","","","stimuli/WF14_HE.jpg","",""
"explore-choice","15","146577","0.0-15.0","p530881","A1WJGO38GJ99ZS","3087LXLJ6NMH85PJ46SJUKP4Z1V0FD","3ERMJ6L4D0Y4JAFE1UM6T9EPNR67M9","model","match","uniform","","","","","","","1627.2000000476837","147186.40000009537","148813.60000014305","[""stimuli/AM06_SUR.jpg"",""stimuli/AM05_SC.jpg"",""stimuli/WF14_HE.jpg"",""stimuli/BM16_AO.jpg""]","stimuli/AM06_SUR.jpg","stimuli/AM05_SC.jpg","stimuli/WF14_HE.jpg","stimuli/BM16_AO.jpg","pos3","stimuli/WF14_HE.jpg","HE","WF14","2","3","6","8","stimuli/stars_6.png","14","[""SUR"",""SC"",""HE"",""AO""]","[""AM06"",""AM05"",""WF14"",""BM16""]","[4,6,6,2]","[4,6,8,2]","","",""
"show-reward","16","148583","0.0-16.0","p530881","A1WJGO38GJ99ZS","3087LXLJ6NMH85PJ46SJUKP4Z1V0FD","3ERMJ6L4D0Y4JAFE1UM6T9EPNR67M9","model","match","uniform","","","","","","","","149316.10000014305","151319.80000019073","","","","","","","","","","","","6","","stimuli/stars_6.png","14","","","","","stimuli/WF14_HE.jpg","",""
"explore-choice","17","152648","0.0-17.0","p530881","A1WJGO38GJ99ZS","3087LXLJ6NMH85PJ46SJUKP4Z1V0FD","3ERMJ6L4D0Y4JAFE1UM6T9EPNR67M9","model","match","uniform","","","","","","","3564.100000143051","151320.70000004768","154884.80000019073","[""stimuli/AM06_SC.jpg"",""stimuli/BM16_AO.jpg"",""stimuli/WF14_HE.jpg"",""stimuli/AM05_SUR.jpg""]","stimuli/AM06_SC.jpg","stimuli/BM16_AO.jpg","stimuli/WF14_HE.jpg","stimuli/AM05_SUR.jpg","pos1","stimuli/AM06_SC.jpg","SC","AM06","0","1","2","4","stimuli/stars_2.png","15","[""SC"",""AO"",""HE"",""SUR""]","[""AM06"",""BM16"",""WF14"",""AM05""]","[2,2,10,5]","[4,2,8,6]","","",""
"show-reward","18","154652","0.0-18.0","p530881","A1WJGO38GJ99ZS","3087LXLJ6NMH85PJ46SJUKP4Z1V0FD","3ERMJ6L4D0Y4JAFE1UM6T9EPNR67M9","model","match","uniform","","","","","","","","155386.60000014305","157388.70000004768","","","","","","","","","","","","2","","stimuli/stars_2.png","15","","","","","stimuli/AM06_SC.jpg","",""
"explore-choice","19","155874","0.0-19.0","p530881","A1WJGO38GJ99ZS","3087LXLJ6NMH85PJ46SJUKP4Z1V0FD","3ERMJ6L4D0Y4JAFE1UM6T9EPNR67M9","model","match","uniform","","","","","","","719.4000000953674","157390.90000009537","158110.30000019073","[""stimuli/BM16_SC.jpg"",""stimuli/AM06_SUR.jpg"",""stimuli/WF14_AO.jpg"",""stimuli/AM05_HE.jpg""]","stimuli/BM16_SC.jpg","stimuli/AM06_SUR.jpg","stimuli/WF14_AO.jpg","stimuli/AM05_HE.jpg","pos3","stimuli/WF14_AO.jpg","AO","WF14","2","4","8","8","stimuli/stars_8.png","19","[""SC"",""SUR"",""AO"",""HE""]","[""BM16"",""AM06"",""WF14"",""AM05""]","[0,4,8,7]","[2,4,8,6]","","",""
"show-reward","20","157879","0.0-20.0","p530881","A1WJGO38GJ99ZS","3087LXLJ6NMH85PJ46SJUKP4Z1V0FD","3ERMJ6L4D0Y4JAFE1UM6T9EPNR67M9","model","match","uniform","","","","","","","","158613.20000004768","160616.60000014305","","","","","","","","","","","","8","","stimuli/stars_8.png","19","","","","","stimuli/WF14_AO.jpg","",""
"explore-choice","21","160293","0.0-21.0","p530881","A1WJGO38GJ99ZS","3087LXLJ6NMH85PJ46SJUKP4Z1V0FD","3ERMJ6L4D0Y4JAFE1UM6T9EPNR67M9","model","match","uniform","","","","","","","1911","160618.40000009537","162529.40000009537","[""stimuli/AM05_HE.jpg"",""stimuli/BM16_AO.jpg"",""stimuli/AM06_SUR.jpg"",""stimuli/WF14_SC.jpg""]","stimuli/AM05_HE.jpg","stimuli/BM16_AO.jpg","stimuli/AM06_SUR.jpg","stimuli/WF14_SC.jpg","pos1","stimuli/AM05_HE.jpg","HE","AM05","0","4","8","6","stimuli/stars_8.png","23","[""HE"",""AO"",""SUR"",""SC""]","[""AM05"",""BM16"",""AM06"",""WF14""]","[8,2,4,8]","[6,2,4,8]","","",""
"show-reward","22","162298","0.0-22.0","p530881","A1WJGO38GJ99ZS","3087LXLJ6NMH85PJ46SJUKP4Z1V0FD","3ERMJ6L4D0Y4JAFE1UM6T9EPNR67M9","model","match","uniform","","","","","","","","163032","165035.60000014305","","","","","","","","","","","","8","","stimuli/stars_8.png","23","","","","","stimuli/AM05_HE.jpg","",""
"explore-choice","23","165676","0.0-23.0","p530881","A1WJGO38GJ99ZS","3087LXLJ6NMH85PJ46SJUKP4Z1V0FD","3ERMJ6L4D0Y4JAFE1UM6T9EPNR67M9","model","match","uniform","","","","","","","2874.2999999523163","165037.40000009537","167911.70000004768","[""stimuli/BM16_HE.jpg"",""stimuli/AM05_AO.jpg"",""stimuli/AM06_SUR.jpg"",""stimuli/WF14_SC.jpg""]","stimuli/BM16_HE.jpg","stimuli/AM05_AO.jpg","stimuli/AM06_SUR.jpg","stimuli/WF14_SC.jpg","pos1","stimuli/BM16_HE.jpg","HE","BM16","0","2","4","2","stimuli/stars_4.png","25","[""HE"",""AO"",""SUR"",""SC""]","[""BM16"",""AM05"",""AM06"",""WF14""]","[4,6,3,7]","[2,6,4,8]","","",""
"show-reward","24","167681","0.0-24.0","p530881","A1WJGO38GJ99ZS","3087LXLJ6NMH85PJ46SJUKP4Z1V0FD","3ERMJ6L4D0Y4JAFE1UM6T9EPNR67M9","model","match","uniform","","","","","","","","168415.10000014305","170418.20000004768","","","","","","","","","","","","4","","stimuli/stars_4.png","25","","","","","stimuli/BM16_HE.jpg","",""
"explore-choice","25","169147","0.0-25.0","p530881","A1WJGO38GJ99ZS","3087LXLJ6NMH85PJ46SJUKP4Z1V0FD","3ERMJ6L4D0Y4JAFE1UM6T9EPNR67M9","model","match","uniform","","","","","","","962.8999998569489","170420.10000014305","171383","[""stimuli/WF14_AO.jpg"",""stimuli/AM06_SUR.jpg"",""stimuli/BM16_HE.jpg"",""stimuli/AM05_SC.jpg""]","stimuli/WF14_AO.jpg","stimuli/AM06_SUR.jpg","stimuli/BM16_HE.jpg","stimuli/AM05_SC.jpg","pos4","stimuli/AM05_SC.jpg","SC","AM05","3","4","8","6","stimuli/stars_8.png","29","[""AO"",""SUR"",""HE"",""SC""]","[""WF14"",""AM06"",""BM16"",""AM05""]","[7,3,0,8]","[8,4,2,6]","","",""
"show-reward","26","171153","0.0-26.0","p530881","A1WJGO38GJ99ZS","3087LXLJ6NMH85PJ46SJUKP4Z1V0FD","3ERMJ6L4D0Y4JAFE1UM6T9EPNR67M9","model","match","uniform","","","","","","","","171886.30000019073","173890.5","","","","","","","","","","","","8","","stimuli/stars_8.png","29","","","","","stimuli/AM05_SC.jpg","",""
"explore-choice","27","172257","0.0-27.0","p530881","A1WJGO38GJ99ZS","3087LXLJ6NMH85PJ46SJUKP4Z1V0FD","3ERMJ6L4D0Y4JAFE1UM6T9EPNR67M9","model","match","uniform","","","","","","","601","173892.10000014305","174493.10000014305","[""stimuli/BM16_SC.jpg"",""stimuli/AM06_HE.jpg"",""stimuli/AM05_AO.jpg"",""stimuli/WF14_SUR.jpg""]","stimuli/BM16_SC.jpg","stimuli/AM06_HE.jpg","stimuli/AM05_AO.jpg","stimuli/WF14_SUR.jpg","pos3","stimuli/AM05_AO.jpg","AO","AM05","2","3.5","7","6","stimuli/stars_7.png","32.5","[""SC"",""HE"",""AO"",""SUR""]","[""BM16"",""AM06"",""AM05"",""WF14""]","[0,3,7,6]","[2,4,6,8]","","",""
"show-reward","28","174262","0.0-28.0","p530881","A1WJGO38GJ99ZS","3087LXLJ6NMH85PJ46SJUKP4Z1V0FD","3ERMJ6L4D0Y4JAFE1UM6T9EPNR67M9","model","match","uniform","","","","","","","","174996.20000004768","176999.30000019073","","","","","","","","","","","","7","","stimuli/stars_7.png","32.5","","","","","stimuli/AM05_AO.jpg","",""
"explore-choice","29","175190","0.0-29.0","p530881","A1WJGO38GJ99ZS","3087LXLJ6NMH85PJ46SJUKP4Z1V0FD","3ERMJ6L4D0Y4JAFE1UM6T9EPNR67M9","model","match","uniform","","","","","","","426.10000014305115","177001","177427.10000014305","[""stimuli/WF14_SC.jpg"",""stimuli/AM05_SUR.jpg"",""stimuli/BM16_HE.jpg"",""stimuli/AM06_AO.jpg""]","stimuli/WF14_SC.jpg","stimuli/AM05_SUR.jpg","stimuli/BM16_HE.jpg","stimuli/AM06_AO.jpg","pos1","stimuli/WF14_SC.jpg","SC","WF14","0","5","10","8","stimuli/stars_10.png","37.5","[""SC"",""SUR"",""HE"",""AO""]","[""WF14"",""AM05"",""BM16"",""AM06""]","[10,8,1,2]","[8,6,2,4]","","",""
"show-reward","30","177196","0.0-30.0","p530881","A1WJGO38GJ99ZS","3087LXLJ6NMH85PJ46SJUKP4Z1V0FD","3ERMJ6L4D0Y4JAFE1UM6T9EPNR67M9","model","match","uniform","","","","","","","","177929.30000019073","179933.20000004768","","","","","","","","","","","","10","","stimuli/stars_10.png","37.5","","","","","stimuli/WF14_SC.jpg","",""
"explore-choice","31","178128","0.0-31.0","p530881","A1WJGO38GJ99ZS","3087LXLJ6NMH85PJ46SJUKP4Z1V0FD","3ERMJ6L4D0Y4JAFE1UM6T9EPNR67M9","model","match","uniform","","","","","","","430.39999985694885","179934.10000014305","180364.5","[""stimuli/AM06_HE.jpg"",""stimuli/AM05_AO.jpg"",""stimuli/WF14_SC.jpg"",""stimuli/BM16_SUR.jpg""]","stimuli/AM06_HE.jpg","stimuli/AM05_AO.jpg","stimuli/WF14_SC.jpg","stimuli/BM16_SUR.jpg","pos2","stimuli/AM05_AO.jpg","AO","AM05","1","2","4","6","stimuli/stars_4.png","39.5","[""HE"",""AO"",""SC"",""SUR""]","[""AM06"",""AM05"",""WF14"",""BM16""]","[5,4,9,4]","[4,6,8,2]","","",""
"show-reward","32","180132","0.0-32.0","p530881","A1WJGO38GJ99ZS","3087LXLJ6NMH85PJ46SJUKP4Z1V0FD","3ERMJ6L4D0Y4JAFE1UM6T9EPNR67M9","model","match","uniform","","","","","","","","180866.60000014305","182869.40000009537","","","","","","","","","","","","4","","stimuli/stars_4.png","39.5","","","","","stimuli/AM05_AO.jpg","",""
"explore-choice","33","181499","0.0-33.0","p530881","A1WJGO38GJ99ZS","3087LXLJ6NMH85PJ46SJUKP4Z1V0FD","3ERMJ6L4D0Y4JAFE1UM6T9EPNR67M9","model","match","uniform","","","","","","","863.3000001907349","182871","183734.30000019073","[""stimuli/AM05_HE.jpg"",""stimuli/BM16_AO.jpg"",""stimuli/WF14_SUR.jpg"",""stimuli/AM06_SC.jpg""]","stimuli/AM05_HE.jpg","stimuli/BM16_AO.jpg","stimuli/WF14_SUR.jpg","stimuli/AM06_SC.jpg","pos3","stimuli/WF14_SUR.jpg","SUR","WF14","2","3.5","7","8","stimuli/stars_7.png","43","[""HE"",""AO"",""SUR"",""SC""]","[""AM05"",""BM16"",""WF14"",""AM06""]","[7,1,7,6]","[6,2,8,4]","","",""
"show-reward","34","183503","0.0-34.0","p530881","A1WJGO38GJ99ZS","3087LXLJ6NMH85PJ46SJUKP4Z1V0FD","3ERMJ6L4D0Y4JAFE1UM6T9EPNR67M9","model","match","uniform","","","","","","","","184237.30000019073","186240.30000019073","","","","","","","","","","","","7","","stimuli/stars_7.png","43","","","","","stimuli/WF14_SUR.jpg","",""
"explore-choice","35","184509","0.0-35.0","p530881","A1WJGO38GJ99ZS","3087LXLJ6NMH85PJ46SJUKP4Z1V0FD","3ERMJ6L4D0Y4JAFE1UM6T9EPNR67M9","model","match","uniform","","","","","","","503.40000009536743","186241.90000009537","186745.30000019073","[""stimuli/AM05_SUR.jpg"",""stimuli/AM06_HE.jpg"",""stimuli/WF14_AO.jpg"",""stimuli/BM16_SC.jpg""]","stimuli/AM05_SUR.jpg","stimuli/AM06_HE.jpg","stimuli/WF14_AO.jpg","stimuli/BM16_SC.jpg","pos1","stimuli/AM05_SUR.jpg","SUR","AM05","0","4","8","6","stimuli/stars_8.png","47","[""SUR"",""HE"",""AO"",""SC""]","[""AM05"",""AM06"",""WF14"",""BM16""]","[8,5,10,1]","[6,4,8,2]","","",""
"show-reward","36","186515","0.0-36.0","p530881","A1WJGO38GJ99ZS","3087LXLJ6NMH85PJ46SJUKP4Z1V0FD","3ERMJ6L4D0Y4JAFE1UM6T9EPNR67M9","model","match","uniform","","","","","","","","187247.90000009537","189252","","","","","","","","","","","","8","","stimuli/stars_8.png","47","","","","","stimuli/AM05_SUR.jpg","",""
"explore-choice","37","187367","0.0-37.0","p530881","A1WJGO38GJ99ZS","3087LXLJ6NMH85PJ46SJUKP4Z1V0FD","3ERMJ6L4D0Y4JAFE1UM6T9EPNR67M9","model","match","uniform","","","","","","","348.90000009536743","189253.70000004768","189602.60000014305","[""stimuli/AM05_AO.jpg"",""stimuli/BM16_HE.jpg"",""stimuli/WF14_SUR.jpg"",""stimuli/AM06_SC.jpg""]","stimuli/AM05_AO.jpg","stimuli/BM16_HE.jpg","stimuli/WF14_SUR.jpg","stimuli/AM06_SC.jpg","pos4","stimuli/AM06_SC.jpg","SC","AM06","3","3","6","4","stimuli/stars_6.png","50","[""AO"",""HE"",""SUR"",""SC""]","[""AM05"",""BM16"",""WF14"",""AM06""]","[8,4,7,6]","[6,2,8,4]","","",""
"show-reward","38","189371","0.0-38.0","p530881","A1WJGO38GJ99ZS","3087LXLJ6NMH85PJ46SJUKP4Z1V0FD","3ERMJ6L4D0Y4JAFE1UM6T9EPNR67M9","model","match","uniform","","","","","","","","190105.90000009537","192108.5","","","","","","","","","","","","6","","stimuli/stars_6.png","50","","","","","stimuli/AM06_SC.jpg","",""
"explore-choice","39","191664","0.0-39.0","p530881","A1WJGO38GJ99ZS","3087LXLJ6NMH85PJ46SJUKP4Z1V0FD","3ERMJ6L4D0Y4JAFE1UM6T9EPNR67M9","model","match","uniform","","","","","","","1790.7000000476837","192109.5","193900.20000004768","[""stimuli/BM16_SC.jpg"",""stimuli/AM06_AO.jpg"",""stimuli/AM05_SUR.jpg"",""stimuli/WF14_HE.jpg""]","stimuli/BM16_SC.jpg","stimuli/AM06_AO.jpg","stimuli/AM05_SUR.jpg","stimuli/WF14_HE.jpg","pos4","stimuli/WF14_HE.jpg","HE","WF14","3","4","8","8","stimuli/stars_8.png","54","[""SC"",""AO"",""SUR"",""HE""]","[""BM16"",""AM06"",""AM05"",""WF14""]","[3,4,5,8]","[2,4,6,8]","","",""
"show-reward","40","193670","0.0-40.0","p530881","A1WJGO38GJ99ZS","3087LXLJ6NMH85PJ46SJUKP4Z1V0FD","3ERMJ6L4D0Y4JAFE1UM6T9EPNR67M9","model","match","uniform","","","","","","","","194402.90000009537","196407.20000004768","","","","","","","","","","","","8","","stimuli/stars_8.png","54","","","","","stimuli/WF14_HE.jpg","",""
"explore-choice","41","194611","0.0-41.0","p530881","A1WJGO38GJ99ZS","3087LXLJ6NMH85PJ46SJUKP4Z1V0FD","3ERMJ6L4D0Y4JAFE1UM6T9EPNR67M9","model","match","uniform","","","","","","","438","196409","196847","[""stimuli/BM16_AO.jpg"",""stimuli/AM05_SUR.jpg"",""stimuli/WF14_SC.jpg"",""stimuli/AM06_HE.jpg""]","stimuli/BM16_AO.jpg","stimuli/AM05_SUR.jpg","stimuli/WF14_SC.jpg","stimuli/AM06_HE.jpg","pos1","stimuli/BM16_AO.jpg","AO","BM16","0","1.5","3","2","stimuli/stars_3.png","55.5","[""AO"",""SUR"",""SC"",""HE""]","[""BM16"",""AM05"",""WF14"",""AM06""]","[3,7,7,6]","[2,6,8,4]","","",""
"show-reward","42","196616","0.0-42.0","p530881","A1WJGO38GJ99ZS","3087LXLJ6NMH85PJ46SJUKP4Z1V0FD","3ERMJ6L4D0Y4JAFE1UM6T9EPNR67M9","model","match","uniform","","","","","","","","197349.40000009537","199352.90000009537","","","","","","","","","","","","3","","stimuli/stars_3.png","55.5","","","","","stimuli/BM16_AO.jpg","",""
"explore-choice","43","197155","0.0-43.0","p530881","A1WJGO38GJ99ZS","3087LXLJ6NMH85PJ46SJUKP4Z1V0FD","3ERMJ6L4D0Y4JAFE1UM6T9EPNR67M9","model","match","uniform","","","","","","","37.89999985694885","199353.80000019073","199391.70000004768","[""stimuli/AM05_HE.jpg"",""stimuli/AM06_AO.jpg"",""stimuli/WF14_SUR.jpg"",""stimuli/BM16_SC.jpg""]","stimuli/AM05_HE.jpg","stimuli/AM06_AO.jpg","stimuli/WF14_SUR.jpg","stimuli/BM16_SC.jpg","pos4","stimuli/BM16_SC.jpg","SC","BM16","3","0.5","1","2","stimuli/stars_1.png","56","[""HE"",""AO"",""SUR"",""SC""]","[""AM05"",""AM06"",""WF14"",""BM16""]","[5,5,9,1]","[6,4,8,2]","","",""
"show-reward","44","199161","0.0-44.0","p530881","A1WJGO38GJ99ZS","3087LXLJ6NMH85PJ46SJUKP4Z1V0FD","3ERMJ6L4D0Y4JAFE1UM6T9EPNR67M9","model","match","uniform","","","","","","","","199894","201898","","","","","","","","","","","","1","","stimuli/stars_1.png","56","","","","","stimuli/BM16_SC.jpg","",""
"explore-choice","45","201286","0.0-45.0","p530881","A1WJGO38GJ99ZS","3087LXLJ6NMH85PJ46SJUKP4Z1V0FD","3ERMJ6L4D0Y4JAFE1UM6T9EPNR67M9","model","match","uniform","","","","","","","1621.5","201899.90000009537","203521.40000009537","[""stimuli/WF14_SUR.jpg"",""stimuli/AM06_AO.jpg"",""stimuli/AM05_SC.jpg"",""stimuli/BM16_HE.jpg""]","stimuli/WF14_SUR.jpg","stimuli/AM06_AO.jpg","stimuli/AM05_SC.jpg","stimuli/BM16_HE.jpg","pos1","stimuli/WF14_SUR.jpg","SUR","WF14","0","4.5","9","8","stimuli/stars_9.png","60.5","[""SUR"",""AO"",""SC"",""HE""]","[""WF14"",""AM06"",""AM05"",""BM16""]","[9,2,7,1]","[8,4,6,2]","","",""
"show-reward","46","203292","0.0-46.0","p530881","A1WJGO38GJ99ZS","3087LXLJ6NMH85PJ46SJUKP4Z1V0FD","3ERMJ6L4D0Y4JAFE1UM6T9EPNR67M9","model","match","uniform","","","","","","","","204025.70000004768","206029.20000004768","","","","","","","","","","","","9","","stimuli/stars_9.png","60.5","","","","","stimuli/WF14_SUR.jpg","",""
"explore-choice","47","204733","0.0-47.0","p530881","A1WJGO38GJ99ZS","3087LXLJ6NMH85PJ46SJUKP4Z1V0FD","3ERMJ6L4D0Y4JAFE1UM6T9EPNR67M9","model","match","uniform","","","","","","","938.8000001907349","206031","206969.80000019073","[""stimuli/AM06_SC.jpg"",""stimuli/AM05_AO.jpg"",""stimuli/BM16_SUR.jpg"",""stimuli/WF14_HE.jpg""]","stimuli/AM06_SC.jpg","stimuli/AM05_AO.jpg","stimuli/BM16_SUR.jpg","stimuli/WF14_HE.jpg","pos4","stimuli/WF14_HE.jpg","HE","WF14","3","4.5","9","8","stimuli/stars_9.png","65","[""SC"",""AO"",""SUR"",""HE""]","[""AM06"",""AM05"",""BM16"",""WF14""]","[3,7,1,9]","[4,6,2,8]","","",""
"show-reward","48","206740","0.0-48.0","p530881","A1WJGO38GJ99ZS","3087LXLJ6NMH85PJ46SJUKP4Z1V0FD","3ERMJ6L4D0Y4JAFE1UM6T9EPNR67M9","model","match","uniform","","","","","","","","207472.40000009537","209477.5","","","","","","","","","","","","9","","stimuli/stars_9.png","65","","","","","stimuli/WF14_HE.jpg","",""
"explore-choice","49","208076","0.0-49.0","p530881","A1WJGO38GJ99ZS","3087LXLJ6NMH85PJ46SJUKP4Z1V0FD","3ERMJ6L4D0Y4JAFE1UM6T9EPNR67M9","model","match","uniform","","","","","","","832.7000000476837","209479.20000004768","210311.90000009537","[""stimuli/WF14_AO.jpg"",""stimuli/BM16_SUR.jpg"",""stimuli/AM05_SC.jpg"",""stimuli/AM06_HE.jpg""]","stimuli/WF14_AO.jpg","stimuli/BM16_SUR.jpg","stimuli/AM05_SC.jpg","stimuli/AM06_HE.jpg","pos1","stimuli/WF14_AO.jpg","AO","WF14","0","4","8","8","stimuli/stars_8.png","69","[""AO"",""SUR"",""SC"",""HE""]","[""WF14"",""BM16"",""AM05"",""AM06""]","[8,4,6,4]","[8,2,6,4]","","",""
"show-reward","50","210081","0.0-50.0","p530881","A1WJGO38GJ99ZS","3087LXLJ6NMH85PJ46SJUKP4Z1V0FD","3ERMJ6L4D0Y4JAFE1UM6T9EPNR67M9","model","match","uniform","","","","","","","","210814.90000009537","212818.40000009537","","","","","","","","","","","","8","","stimuli/stars_8.png","69","","","","","stimuli/WF14_AO.jpg","",""
"explore-choice","51","211749","0.0-51.0","p530881","A1WJGO38GJ99ZS","3087LXLJ6NMH85PJ46SJUKP4Z1V0FD","3ERMJ6L4D0Y4JAFE1UM6T9EPNR67M9","model","match","uniform","","","","","","","1163.7000000476837","212820.10000014305","213983.80000019073","[""stimuli/BM16_HE.jpg"",""stimuli/AM06_SC.jpg"",""stimuli/WF14_AO.jpg"",""stimuli/AM05_SUR.jpg""]","stimuli/BM16_HE.jpg","stimuli/AM06_SC.jpg","stimuli/WF14_AO.jpg","stimuli/AM05_SUR.jpg","pos3","stimuli/WF14_AO.jpg","AO","WF14","2","4.5","9","8","stimuli/stars_9.png","73.5","[""HE"",""SC"",""AO"",""SUR""]","[""BM16"",""AM06"",""WF14"",""AM05""]","[4,4,9,7]","[2,4,8,6]","","",""
"show-reward","52","213755","0.0-52.0","p530881","A1WJGO38GJ99ZS","3087LXLJ6NMH85PJ46SJUKP4Z1V0FD","3ERMJ6L4D0Y4JAFE1UM6T9EPNR67M9","model","match","uniform","","","","","","","","214487.60000014305","216492.40000009537","","","","","","","","","","","","9","","stimuli/stars_9.png","73.5","","","","","stimuli/WF14_AO.jpg","",""
"explore-choice","53","216070","0.0-53.0","p530881","A1WJGO38GJ99ZS","3087LXLJ6NMH85PJ46SJUKP4Z1V0FD","3ERMJ6L4D0Y4JAFE1UM6T9EPNR67M9","model","match","uniform","","","","","","","1812.2000000476837","216494.10000014305","218306.30000019073","[""stimuli/WF14_AO.jpg"",""stimuli/AM06_SC.jpg"",""stimuli/BM16_SUR.jpg"",""stimuli/AM05_HE.jpg""]","stimuli/WF14_AO.jpg","stimuli/AM06_SC.jpg","stimuli/BM16_SUR.jpg","stimuli/AM05_HE.jpg","pos1","stimuli/WF14_AO.jpg","AO","WF14","0","3.5","7","8","stimuli/stars_7.png","77","[""AO"",""SC"",""SUR"",""HE""]","[""WF14"",""AM06"",""BM16"",""AM05""]","[7,3,3,5]","[8,4,2,6]","","",""
"show-reward","54","218075","0.0-54.0","p530881","A1WJGO38GJ99ZS","3087LXLJ6NMH85PJ46SJUKP4Z1V0FD","3ERMJ6L4D0Y4JAFE1UM6T9EPNR67M9","model","match","uniform","","","","","","","","218808.60000014305","220811.70000004768","","","","","","","","","","","","7","","stimuli/stars_7.png","77","","","","","stimuli/WF14_AO.jpg","",""
"explore-choice","55","221080","0.0-55.0","p530881","A1WJGO38GJ99ZS","3087LXLJ6NMH85PJ46SJUKP4Z1V0FD","3ERMJ6L4D0Y4JAFE1UM6T9EPNR67M9","model","match","uniform","","","","","","","2502.699999809265","220813.30000019073","223316","[""stimuli/BM16_AO.jpg"",""stimuli/AM05_HE.jpg"",""stimuli/WF14_SUR.jpg"",""stimuli/AM06_SC.jpg""]","stimuli/BM16_AO.jpg","stimuli/AM05_HE.jpg","stimuli/WF14_SUR.jpg","stimuli/AM06_SC.jpg","pos3","stimuli/WF14_SUR.jpg","SUR","WF14","2","3.5","7","8","stimuli/stars_7.png","80.5","[""AO"",""HE"",""SUR"",""SC""]","[""BM16"",""AM05"",""WF14"",""AM06""]","[1,7,7,6]","[2,6,8,4]","","",""
"show-reward","56","223085","0.0-56.0","p530881","A1WJGO38GJ99ZS","3087LXLJ6NMH85PJ46SJUKP4Z1V0FD","3ERMJ6L4D0Y4JAFE1UM6T9EPNR67M9","model","match","uniform","","","","","","","","223819","225822.60000014305","","","","","","","","","","","","7","","stimuli/stars_7.png","80.5","","","","","stimuli/WF14_SUR.jpg","",""
"explore-choice","57","225247","0.0-57.0","p530881","A1WJGO38GJ99ZS","3087LXLJ6NMH85PJ46SJUKP4Z1V0FD","3ERMJ6L4D0Y4JAFE1UM6T9EPNR67M9","model","match","uniform","","","","","","","1659.1999998092651","225824.30000019073","227483.5","[""stimuli/AM06_HE.jpg"",""stimuli/WF14_SUR.jpg"",""stimuli/AM05_SC.jpg"",""stimuli/BM16_AO.jpg""]","stimuli/AM06_HE.jpg","stimuli/WF14_SUR.jpg","stimuli/AM05_SC.jpg","stimuli/BM16_AO.jpg","pos2","stimuli/WF14_SUR.jpg","SUR","WF14","1","3","6","8","stimuli/stars_6.png","83.5","[""HE"",""SUR"",""SC"",""AO""]","[""AM06"",""WF14"",""AM05"",""BM16""]","[3,6,4,0]","[4,8,6,2]","","",""
"show-reward","58","227253","0.0-58.0","p530881","A1WJGO38GJ99ZS","3087LXLJ6NMH85PJ46SJUKP4Z1V0FD","3ERMJ6L4D0Y4JAFE1UM6T9EPNR67M9","model","match","uniform","","","","","","","","227986.70000004768","229990.40000009537","","","","","","","","","","","","6","","stimuli/stars_6.png","83.5","","","","","stimuli/WF14_SUR.jpg","",""
"explore-choice","59","229014","0.0-59.0","p530881","A1WJGO38GJ99ZS","3087LXLJ6NMH85PJ46SJUKP4Z1V0FD","3ERMJ6L4D0Y4JAFE1UM6T9EPNR67M9","model","match","uniform","","","","","","","1257.8999998569489","229992.10000014305","231250","[""stimuli/BM16_HE.jpg"",""stimuli/AM06_SUR.jpg"",""stimuli/AM05_AO.jpg"",""stimuli/WF14_SC.jpg""]","stimuli/BM16_HE.jpg","stimuli/AM06_SUR.jpg","stimuli/AM05_AO.jpg","stimuli/WF14_SC.jpg","pos4","stimuli/WF14_SC.jpg","SC","WF14","3","3.5","7","8","stimuli/stars_7.png","87","[""HE"",""SUR"",""AO"",""SC""]","[""BM16"",""AM06"",""AM05"",""WF14""]","[4,3,6,7]","[2,4,6,8]","","",""
"show-reward","60","231019","0.0-60.0","p530881","A1WJGO38GJ99ZS","3087LXLJ6NMH85PJ46SJUKP4Z1V0FD","3ERMJ6L4D0Y4JAFE1UM6T9EPNR67M9","model","match","uniform","","","","","","","","231752.80000019073","233756","","","","","","","","","","","","7","","stimuli/stars_7.png","87","","","","","stimuli/WF14_SC.jpg","",""
"explore-choice","61","232675","0.0-61.0","p530881","A1WJGO38GJ99ZS","3087LXLJ6NMH85PJ46SJUKP4Z1V0FD","3ERMJ6L4D0Y4JAFE1UM6T9EPNR67M9","model","match","uniform","","","","","","","1153","233757.70000004768","234910.70000004768","[""stimuli/AM05_SC.jpg"",""stimuli/BM16_HE.jpg"",""stimuli/WF14_AO.jpg"",""stimuli/AM06_SUR.jpg""]","stimuli/AM05_SC.jpg","stimuli/BM16_HE.jpg","stimuli/WF14_AO.jpg","stimuli/AM06_SUR.jpg","pos3","stimuli/WF14_AO.jpg","AO","WF14","2","3.5","7","8","stimuli/stars_7.png","90.5","[""SC"",""HE"",""AO"",""SUR""]","[""AM05"",""BM16"",""WF14"",""AM06""]","[8,0,7,3]","[6,2,8,4]","","",""
"show-reward","62","234681","0.0-62.0","p530881","A1WJGO38GJ99ZS","3087LXLJ6NMH85PJ46SJUKP4Z1V0FD","3ERMJ6L4D0Y4JAFE1UM6T9EPNR67M9","model","match","uniform","","","","","","","","235413.60000014305","237418.80000019073","","","","","","","","","","","","7","","stimuli/stars_7.png","90.5","","","","","stimuli/WF14_AO.jpg","",""
"explore-choice","63","236260","0.0-63.0","p530881","A1WJGO38GJ99ZS","3087LXLJ6NMH85PJ46SJUKP4Z1V0FD","3ERMJ6L4D0Y4JAFE1UM6T9EPNR67M9","model","match","uniform","","","","","","","1076.1000001430511","237420.5","238496.60000014305","[""stimuli/BM16_AO.jpg"",""stimuli/AM05_SUR.jpg"",""stimuli/WF14_SC.jpg"",""stimuli/AM06_HE.jpg""]","stimuli/BM16_AO.jpg","stimuli/AM05_SUR.jpg","stimuli/WF14_SC.jpg","stimuli/AM06_HE.jpg","pos3","stimuli/WF14_SC.jpg","SC","WF14","2","3.5","7","8","stimuli/stars_7.png","94","[""AO"",""SUR"",""SC"",""HE""]","[""BM16"",""AM05"",""WF14"",""AM06""]","[3,7,7,6]","[2,6,8,4]","","",""
"show-reward","64","238266","0.0-64.0","p530881","A1WJGO38GJ99ZS","3087LXLJ6NMH85PJ46SJUKP4Z1V0FD","3ERMJ6L4D0Y4JAFE1UM6T9EPNR67M9","model","match","uniform","","","","","","","","238999.30000019073","241002.80000019073","","","","","","","","","","","","7","","stimuli/stars_7.png","94","","","","","stimuli/WF14_SC.jpg","",""
"explore-choice","65","239582","0.0-65.0","p530881","A1WJGO38GJ99ZS","3087LXLJ6NMH85PJ46SJUKP4Z1V0FD","3ERMJ6L4D0Y4JAFE1UM6T9EPNR67M9","model","match","uniform","","","","","","","814.7999999523163","241004.60000014305","241819.40000009537","[""stimuli/AM06_SC.jpg"",""stimuli/AM05_HE.jpg"",""stimuli/WF14_AO.jpg"",""stimuli/BM16_SUR.jpg""]","stimuli/AM06_SC.jpg","stimuli/AM05_HE.jpg","stimuli/WF14_AO.jpg","stimuli/BM16_SUR.jpg","pos3","stimuli/WF14_AO.jpg","AO","WF14","2","3.5","7","8","stimuli/stars_7.png","97.5","[""SC"",""HE"",""AO"",""SUR""]","[""AM06"",""AM05"",""WF14"",""BM16""]","[3,5,7,3]","[4,6,8,2]","","",""
"show-reward","66","241588","0.0-66.0","p530881","A1WJGO38GJ99ZS","3087LXLJ6NMH85PJ46SJUKP4Z1V0FD","3ERMJ6L4D0Y4JAFE1UM6T9EPNR67M9","model","match","uniform","","","","","","","","242321.5","244325.20000004768","","","","","","","","","","","","7","","stimuli/stars_7.png","97.5","","","","","stimuli/WF14_AO.jpg","",""
"explore-choice","67","242978","0.0-67.0","p530881","A1WJGO38GJ99ZS","3087LXLJ6NMH85PJ46SJUKP4Z1V0FD","3ERMJ6L4D0Y4JAFE1UM6T9EPNR67M9","model","match","uniform","","","","","","","888.3999998569489","244326.30000019073","245214.70000004768","[""stimuli/AM06_SC.jpg"",""stimuli/AM05_AO.jpg"",""stimuli/BM16_HE.jpg"",""stimuli/WF14_SUR.jpg""]","stimuli/AM06_SC.jpg","stimuli/AM05_AO.jpg","stimuli/BM16_HE.jpg","stimuli/WF14_SUR.jpg","pos4","stimuli/WF14_SUR.jpg","SUR","WF14","3","3.5","7","8","stimuli/stars_7.png","101","[""SC"",""AO"",""HE"",""SUR""]","[""AM06"",""AM05"",""BM16"",""WF14""]","[6,8,4,7]","[4,6,2,8]","","",""
"show-reward","68","244982","0.0-68.0","p530881","A1WJGO38GJ99ZS","3087LXLJ6NMH85PJ46SJUKP4Z1V0FD","3ERMJ6L4D0Y4JAFE1UM6T9EPNR67M9","model","match","uniform","","","","","","","","245716.70000004768","247719.40000009537","","","","","","","","","","","","7","","stimuli/stars_7.png","101","","","","","stimuli/WF14_SUR.jpg","",""
"explore-choice","69","247834","0.0-69.0","p530881","A1WJGO38GJ99ZS","3087LXLJ6NMH85PJ46SJUKP4Z1V0FD","3ERMJ6L4D0Y4JAFE1UM6T9EPNR67M9","model","match","uniform","","","","","","","2349.399999856949","247721.60000014305","250071","[""stimuli/AM05_AO.jpg"",""stimuli/WF14_HE.jpg"",""stimuli/AM06_SUR.jpg"",""stimuli/BM16_SC.jpg""]","stimuli/AM05_AO.jpg","stimuli/WF14_HE.jpg","stimuli/AM06_SUR.jpg","stimuli/BM16_SC.jpg","pos2","stimuli/WF14_HE.jpg","HE","WF14","1","3","6","8","stimuli/stars_6.png","104","[""AO"",""HE"",""SUR"",""SC""]","[""AM05"",""WF14"",""AM06"",""BM16""]","[4,6,3,4]","[6,8,4,2]","","",""
"show-reward","70","249842","0.0-70.0","p530881","A1WJGO38GJ99ZS","3087LXLJ6NMH85PJ46SJUKP4Z1V0FD","3ERMJ6L4D0Y4JAFE1UM6T9EPNR67M9","model","match","uniform","","","","","","","","250573.80000019073","252578.40000009537","","","","","","","","","","","","6","","stimuli/stars_6.png","104","","","","","stimuli/WF14_HE.jpg","",""
"explore-choice","71","251971","0.0-71.0","p530881","A1WJGO38GJ99ZS","3087LXLJ6NMH85PJ46SJUKP4Z1V0FD","3ERMJ6L4D0Y4JAFE1UM6T9EPNR67M9","model","match","uniform","","","","","","","1621","252586","254207","[""stimuli/AM05_SUR.jpg"",""stimuli/WF14_HE.jpg"",""stimuli/AM06_SC.jpg"",""stimuli/BM16_AO.jpg""]","stimuli/AM05_SUR.jpg","stimuli/WF14_HE.jpg","stimuli/AM06_SC.jpg","stimuli/BM16_AO.jpg","pos2","stimuli/WF14_HE.jpg","HE","WF14","1","5","10","8","stimuli/stars_10.png","109","[""SUR"",""HE"",""SC"",""AO""]","[""AM05"",""WF14"",""AM06"",""BM16""]","[5,10,2,2]","[6,8,4,2]","","",""
"show-reward","72","253981","0.0-72.0","p530881","A1WJGO38GJ99ZS","3087LXLJ6NMH85PJ46SJUKP4Z1V0FD","3ERMJ6L4D0Y4JAFE1UM6T9EPNR67M9","model","match","uniform","","","","","","","","254710.80000019073","256718.40000009537","","","","","","","","","","","","10","","stimuli/stars_10.png","109","","","","","stimuli/WF14_HE.jpg","",""
"explore-choice","73","256673","0.0-73.0","p530881","A1WJGO38GJ99ZS","3087LXLJ6NMH85PJ46SJUKP4Z1V0FD","3ERMJ6L4D0Y4JAFE1UM6T9EPNR67M9","model","match","uniform","","","","","","","2189","256720.10000014305","258909.10000014305","[""stimuli/AM05_HE.jpg"",""stimuli/WF14_AO.jpg"",""stimuli/AM06_SUR.jpg"",""stimuli/BM16_SC.jpg""]","stimuli/AM05_HE.jpg","stimuli/WF14_AO.jpg","stimuli/AM06_SUR.jpg","stimuli/BM16_SC.jpg","pos2","stimuli/WF14_AO.jpg","AO","WF14","1","4","8","8","stimuli/stars_8.png","113","[""HE"",""AO"",""SUR"",""SC""]","[""AM05"",""WF14"",""AM06"",""BM16""]","[7,8,4,0]","[6,8,4,2]","","",""
"show-reward","74","258678","0.0-74.0","p530881","A1WJGO38GJ99ZS","3087LXLJ6NMH85PJ46SJUKP4Z1V0FD","3ERMJ6L4D0Y4JAFE1UM6T9EPNR67M9","model","match","uniform","","","","","","","","259412","261414.90000009537","","","","","","","","","","","","8","","stimuli/stars_8.png","113","","","","","stimuli/WF14_AO.jpg","",""
"explore-choice","75","260103","0.0-75.0","p530881","A1WJGO38GJ99ZS","3087LXLJ6NMH85PJ46SJUKP4Z1V0FD","3ERMJ6L4D0Y4JAFE1UM6T9EPNR67M9","model","match","uniform","","","","","","","923","261416.70000004768","262339.7000000477","[""stimuli/WF14_AO.jpg"",""stimuli/AM06_SC.jpg"",""stimuli/AM05_SUR.jpg"",""stimuli/BM16_HE.jpg""]","stimuli/WF14_AO.jpg","stimuli/AM06_SC.jpg","stimuli/AM05_SUR.jpg","stimuli/BM16_HE.jpg","pos1","stimuli/WF14_AO.jpg","AO","WF14","0","4.5","9","8","stimuli/stars_9.png","117.5","[""AO"",""SC"",""SUR"",""HE""]","[""WF14"",""AM06"",""AM05"",""BM16""]","[9,4,7,4]","[8,4,6,2]","","",""
"show-reward","76","262108","0.0-76.0","p530881","A1WJGO38GJ99ZS","3087LXLJ6NMH85PJ46SJUKP4Z1V0FD","3ERMJ6L4D0Y4JAFE1UM6T9EPNR67M9","model","match","uniform","","","","","","","","262842","264845.60000014305","","","","","","","","","","","","9","","stimuli/stars_9.png","117.5","","","","","stimuli/WF14_AO.jpg","",""
"explore-choice","77","263511","0.0-77.0","p530881","A1WJGO38GJ99ZS","3087LXLJ6NMH85PJ46SJUKP4Z1V0FD","3ERMJ6L4D0Y4JAFE1UM6T9EPNR67M9","model","match","uniform","","","","","","","901.1999998092651","264846.30000019073","265747.5","[""stimuli/BM16_SUR.jpg"",""stimuli/WF14_SC.jpg"",""stimuli/AM06_HE.jpg"",""stimuli/AM05_AO.jpg""]","stimuli/BM16_SUR.jpg","stimuli/WF14_SC.jpg","stimuli/AM06_HE.jpg","stimuli/AM05_AO.jpg","pos2","stimuli/WF14_SC.jpg","SC","WF14","1","4.5","9","8","stimuli/stars_9.png","122","[""SUR"",""SC"",""HE"",""AO""]","[""BM16"",""WF14"",""AM06"",""AM05""]","[4,9,5,4]","[2,8,4,6]","","",""
"show-reward","78","265518","0.0-78.0","p530881","A1WJGO38GJ99ZS","3087LXLJ6NMH85PJ46SJUKP4Z1V0FD","3ERMJ6L4D0Y4JAFE1UM6T9EPNR67M9","model","match","uniform","","","","","","","","266250.40000009537","268254.80000019073","","","","","","","","","","","","9","","stimuli/stars_9.png","122","","","","","stimuli/WF14_SC.jpg","",""
"explore-choice","79","267275","0.0-79.0","p530881","A1WJGO38GJ99ZS","3087LXLJ6NMH85PJ46SJUKP4Z1V0FD","3ERMJ6L4D0Y4JAFE1UM6T9EPNR67M9","model","match","uniform","","","","","","","1253.8000001907349","268257","269510.80000019073","[""stimuli/AM06_AO.jpg"",""stimuli/AM05_SC.jpg"",""stimuli/WF14_SUR.jpg"",""stimuli/BM16_HE.jpg""]","stimuli/AM06_AO.jpg","stimuli/AM05_SC.jpg","stimuli/WF14_SUR.jpg","stimuli/BM16_HE.jpg","pos3","stimuli/WF14_SUR.jpg","SUR","WF14","2","4.5","9","8","stimuli/stars_9.png","126.5","[""AO"",""SC"",""SUR"",""HE""]","[""AM06"",""AM05"",""WF14"",""BM16""]","[2,7,9,1]","[4,6,8,2]","","",""
"show-reward","80","269280","0.0-80.0","p530881","A1WJGO38GJ99ZS","3087LXLJ6NMH85PJ46SJUKP4Z1V0FD","3ERMJ6L4D0Y4JAFE1UM6T9EPNR67M9","model","match","uniform","","","","","","","","270013.40000009537","272016.7000000477","","","","","","","","","","","","9","","stimuli/stars_9.png","126.5","","","","","stimuli/WF14_SUR.jpg","",""
"explore-choice","81","270687","0.0-81.0","p530881","A1WJGO38GJ99ZS","3087LXLJ6NMH85PJ46SJUKP4Z1V0FD","3ERMJ6L4D0Y4JAFE1UM6T9EPNR67M9","model","match","uniform","","","","","","","904.2999999523163","272018.80000019073","272923.10000014305","[""stimuli/AM06_SC.jpg"",""stimuli/AM05_AO.jpg"",""stimuli/BM16_SUR.jpg"",""stimuli/WF14_HE.jpg""]","stimuli/AM06_SC.jpg","stimuli/AM05_AO.jpg","stimuli/BM16_SUR.jpg","stimuli/WF14_HE.jpg","pos4","stimuli/WF14_HE.jpg","HE","WF14","3","4.5","9","8","stimuli/stars_9.png","131","[""SC"",""AO"",""SUR"",""HE""]","[""AM06"",""AM05"",""BM16"",""WF14""]","[3,7,1,9]","[4,6,2,8]","","",""
"show-reward","82","272690","0.0-82.0","p530881","A1WJGO38GJ99ZS","3087LXLJ6NMH85PJ46SJUKP4Z1V0FD","3ERMJ6L4D0Y4JAFE1UM6T9EPNR67M9","model","match","uniform","","","","","","","","273425.2000000477","275426.90000009537","","","","","","","","","","","","9","","stimuli/stars_9.png","131","","","","","stimuli/WF14_HE.jpg","",""
"explore-choice","83","274116","0.0-83.0","p530881","A1WJGO38GJ99ZS","3087LXLJ6NMH85PJ46SJUKP4Z1V0FD","3ERMJ6L4D0Y4JAFE1UM6T9EPNR67M9","model","match","uniform","","","","","","","925.7000000476837","275428","276353.7000000477","[""stimuli/AM05_SC.jpg"",""stimuli/BM16_SUR.jpg"",""stimuli/WF14_AO.jpg"",""stimuli/AM06_HE.jpg""]","stimuli/AM05_SC.jpg","stimuli/BM16_SUR.jpg","stimuli/WF14_AO.jpg","stimuli/AM06_HE.jpg","pos3","stimuli/WF14_AO.jpg","AO","WF14","2","4","8","8","stimuli/stars_8.png","135","[""SC"",""SUR"",""AO"",""HE""]","[""AM05"",""BM16"",""WF14"",""AM06""]","[6,4,8,4]","[6,2,8,4]","","",""
"show-reward","84","276120","0.0-84.0","p530881","A1WJGO38GJ99ZS","3087LXLJ6NMH85PJ46SJUKP4Z1V0FD","3ERMJ6L4D0Y4JAFE1UM6T9EPNR67M9","model","match","uniform","","","","","","","","276854.80000019073","278857.7000000477","","","","","","","","","","","","8","","stimuli/stars_8.png","135","","","","","stimuli/WF14_AO.jpg","",""
"explore-choice","85","277695","0.0-85.0","p530881","A1WJGO38GJ99ZS","3087LXLJ6NMH85PJ46SJUKP4Z1V0FD","3ERMJ6L4D0Y4JAFE1UM6T9EPNR67M9","model","match","uniform","","","","","","","1071.9000000953674","278859.7000000477","279931.60000014305","[""stimuli/BM16_SUR.jpg"",""stimuli/AM05_HE.jpg"",""stimuli/AM06_AO.jpg"",""stimuli/WF14_SC.jpg""]","stimuli/BM16_SUR.jpg","stimuli/AM05_HE.jpg","stimuli/AM06_AO.jpg","stimuli/WF14_SC.jpg","pos4","stimuli/WF14_SC.jpg","SC","WF14","3","3","6","8","stimuli/stars_6.png","138","[""SUR"",""HE"",""AO"",""SC""]","[""BM16"",""AM05"",""AM06"",""WF14""]","[4,6,3,6]","[2,6,4,8]","","",""
"show-reward","86","279701","0.0-86.0","p530881","A1WJGO38GJ99ZS","3087LXLJ6NMH85PJ46SJUKP4Z1V0FD","3ERMJ6L4D0Y4JAFE1UM6T9EPNR67M9","model","match","uniform","","","","","","","","280434","282438.5","","","","","","","","","","","","6","","stimuli/stars_6.png","138","","","","","stimuli/WF14_SC.jpg","",""
"explore-choice","87","281666","0.0-87.0","p530881","A1WJGO38GJ99ZS","3087LXLJ6NMH85PJ46SJUKP4Z1V0FD","3ERMJ6L4D0Y4JAFE1UM6T9EPNR67M9","model","match","uniform","","","","","","","1462","282440.30000019073","283902.30000019073","[""stimuli/AM06_AO.jpg"",""stimuli/AM05_SC.jpg"",""stimuli/BM16_SUR.jpg"",""stimuli/WF14_HE.jpg""]","stimuli/AM06_AO.jpg","stimuli/AM05_SC.jpg","stimuli/BM16_SUR.jpg","stimuli/WF14_HE.jpg","pos4","stimuli/WF14_HE.jpg","HE","WF14","3","4","8","8","stimuli/stars_8.png","142","[""AO"",""SC"",""SUR"",""HE""]","[""AM06"",""AM05"",""BM16"",""WF14""]","[4,4,3,8]","[4,6,2,8]","","",""
"show-reward","88","283671","0.0-88.0","p530881","A1WJGO38GJ99ZS","3087LXLJ6NMH85PJ46SJUKP4Z1V0FD","3ERMJ6L4D0Y4JAFE1UM6T9EPNR67M9","model","match","uniform","","","","","","","","284405.10000014305","286408.40000009537","","","","","","","","","","","","8","","stimuli/stars_8.png","142","","","","","stimuli/WF14_HE.jpg","",""
"explore-choice","89","285114","0.0-89.0","p530881","A1WJGO38GJ99ZS","3087LXLJ6NMH85PJ46SJUKP4Z1V0FD","3ERMJ6L4D0Y4JAFE1UM6T9EPNR67M9","model","match","uniform","","","","","","","940.6999998092651","286410.30000019073","287351","[""stimuli/AM06_AO.jpg"",""stimuli/AM05_SUR.jpg"",""stimuli/WF14_HE.jpg"",""stimuli/BM16_SC.jpg""]","stimuli/AM06_AO.jpg","stimuli/AM05_SUR.jpg","stimuli/WF14_HE.jpg","stimuli/BM16_SC.jpg","pos3","stimuli/WF14_HE.jpg","HE","WF14","2","4","8","8","stimuli/stars_8.png","146","[""AO"",""SUR"",""HE"",""SC""]","[""AM06"",""AM05"",""WF14"",""BM16""]","[4,5,8,3]","[4,6,8,2]","","",""
"show-reward","90","287120","0.0-90.0","p530881","A1WJGO38GJ99ZS","3087LXLJ6NMH85PJ46SJUKP4Z1V0FD","3ERMJ6L4D0Y4JAFE1UM6T9EPNR67M9","model","match","uniform","","","","","","","","287853.2000000477","289856.90000009537","","","","","","","","","","","","8","","stimuli/stars_8.png","146","","","","","stimuli/WF14_HE.jpg","",""
"explore-choice","91","288983","0.0-91.0","p530881","A1WJGO38GJ99ZS","3087LXLJ6NMH85PJ46SJUKP4Z1V0FD","3ERMJ6L4D0Y4JAFE1UM6T9EPNR67M9","model","match","uniform","","","","","","","1360.2999999523163","289858.60000014305","291218.90000009537","[""stimuli/AM06_HE.jpg"",""stimuli/BM16_SC.jpg"",""stimuli/AM05_AO.jpg"",""stimuli/WF14_SUR.jpg""]","stimuli/AM06_HE.jpg","stimuli/BM16_SC.jpg","stimuli/AM05_AO.jpg","stimuli/WF14_SUR.jpg","pos4","stimuli/WF14_SUR.jpg","SUR","WF14","3","3","6","8","stimuli/stars_6.png","149","[""HE"",""SC"",""AO"",""SUR""]","[""AM06"",""BM16"",""AM05"",""WF14""]","[3,0,7,6]","[4,2,6,8]","","",""
"show-reward","92","290990","0.0-92.0","p530881","A1WJGO38GJ99ZS","3087LXLJ6NMH85PJ46SJUKP4Z1V0FD","3ERMJ6L4D0Y4JAFE1UM6T9EPNR67M9","model","match","uniform","","","","","","","","291722.5","293727.60000014305","","","","","","","","","","","","6","","stimuli/stars_6.png","149","","","","","stimuli/WF14_SUR.jpg","",""
"explore-choice","93","295142","0.0-93.0","p530881","A1WJGO38GJ99ZS","3087LXLJ6NMH85PJ46SJUKP4Z1V0FD","3ERMJ6L4D0Y4JAFE1UM6T9EPNR67M9","model","match","uniform","","","","","","","3648.7999999523163","293729.40000009537","297378.2000000477","[""stimuli/AM05_SUR.jpg"",""stimuli/BM16_SC.jpg"",""stimuli/WF14_AO.jpg"",""stimuli/AM06_HE.jpg""]","stimuli/AM05_SUR.jpg","stimuli/BM16_SC.jpg","stimuli/WF14_AO.jpg","stimuli/AM06_HE.jpg","pos3","stimuli/WF14_AO.jpg","AO","WF14","2","5","10","8","stimuli/stars_10.png","154","[""SUR"",""SC"",""AO"",""HE""]","[""AM05"",""BM16"",""WF14"",""AM06""]","[8,1,10,5]","[6,2,8,4]","","",""
"show-reward","94","297150","0.0-94.0","p530881","A1WJGO38GJ99ZS","3087LXLJ6NMH85PJ46SJUKP4Z1V0FD","3ERMJ6L4D0Y4JAFE1UM6T9EPNR67M9","model","match","uniform","","","","","","","","297882.60000014305","299887.10000014305","","","","","","","","","","","","10","","stimuli/stars_10.png","154","","","","","stimuli/WF14_AO.jpg","",""
"explore-choice","95","298613","0.0-95.0","p530881","A1WJGO38GJ99ZS","3087LXLJ6NMH85PJ46SJUKP4Z1V0FD","3ERMJ6L4D0Y4JAFE1UM6T9EPNR67M9","model","match","uniform","","","","","","","960.6000001430511","299888.7000000477","300849.30000019073","[""stimuli/AM06_AO.jpg"",""stimuli/BM16_SC.jpg"",""stimuli/WF14_SUR.jpg"",""stimuli/AM05_HE.jpg""]","stimuli/AM06_AO.jpg","stimuli/BM16_SC.jpg","stimuli/WF14_SUR.jpg","stimuli/AM05_HE.jpg","pos3","stimuli/WF14_SUR.jpg","SUR","WF14","2","4.5","9","8","stimuli/stars_9.png","158.5","[""AO"",""SC"",""SUR"",""HE""]","[""AM06"",""BM16"",""WF14"",""AM05""]","[5,1,9,5]","[4,2,8,6]","","",""
"show-reward","96","300619","0.0-96.0","p530881","A1WJGO38GJ99ZS","3087LXLJ6NMH85PJ46SJUKP4Z1V0FD","3ERMJ6L4D0Y4JAFE1UM6T9EPNR67M9","model","match","uniform","","","","","","","","301352.30000019073","303356.10000014305","","","","","","","","","","","","9","","stimuli/stars_9.png","158.5","","","","","stimuli/WF14_SUR.jpg","",""
"explore-choice","97","301985","0.0-97.0","p530881","A1WJGO38GJ99ZS","3087LXLJ6NMH85PJ46SJUKP4Z1V0FD","3ERMJ6L4D0Y4JAFE1UM6T9EPNR67M9","model","match","uniform","","","","","","","863.0999999046326","303358.40000009537","304221.5","[""stimuli/WF14_SC.jpg"",""stimuli/AM05_SUR.jpg"",""stimuli/BM16_HE.jpg"",""stimuli/AM06_AO.jpg""]","stimuli/WF14_SC.jpg","stimuli/AM05_SUR.jpg","stimuli/BM16_HE.jpg","stimuli/AM06_AO.jpg","pos1","stimuli/WF14_SC.jpg","SC","WF14","0","5","10","8","stimuli/stars_10.png","163.5","[""SC"",""SUR"",""HE"",""AO""]","[""WF14"",""AM05"",""BM16"",""AM06""]","[10,8,1,2]","[8,6,2,4]","","",""
"show-reward","98","303992","0.0-98.0","p530881","A1WJGO38GJ99ZS","3087LXLJ6NMH85PJ46SJUKP4Z1V0FD","3ERMJ6L4D0Y4JAFE1UM6T9EPNR67M9","model","match","uniform","","","","","","","","304723.60000014305","306728.5","","","","","","","","","","","","10","","stimuli/stars_10.png","163.5","","","","","stimuli/WF14_SC.jpg","",""
"explore-choice","99","305344","0.0-99.0","p530881","A1WJGO38GJ99ZS","3087LXLJ6NMH85PJ46SJUKP4Z1V0FD","3ERMJ6L4D0Y4JAFE1UM6T9EPNR67M9","model","match","uniform","","","","","","","850","306730.60000014305","307580.60000014305","[""stimuli/AM06_SUR.jpg"",""stimuli/BM16_AO.jpg"",""stimuli/AM05_HE.jpg"",""stimuli/WF14_SC.jpg""]","stimuli/AM06_SUR.jpg","stimuli/BM16_AO.jpg","stimuli/AM05_HE.jpg","stimuli/WF14_SC.jpg","pos4","stimuli/WF14_SC.jpg","SC","WF14","3","4","8","8","stimuli/stars_8.png","167.5","[""SUR"",""AO"",""HE"",""SC""]","[""AM06"",""BM16"",""AM05"",""WF14""]","[4,2,8,8]","[4,2,6,8]","","",""
"show-reward","100","307349","0.0-100.0","p530881","A1WJGO38GJ99ZS","3087LXLJ6NMH85PJ46SJUKP4Z1V0FD","3ERMJ6L4D0Y4JAFE1UM6T9EPNR67M9","model","match","uniform","","","","","","","","308083.40000009537","310086.60000014305","","","","","","","","","","","","8","","stimuli/stars_8.png","167.5","","","","","stimuli/WF14_SC.jpg","",""
"explore-choice","101","308642","0.0-101.0","p530881","A1WJGO38GJ99ZS","3087LXLJ6NMH85PJ46SJUKP4Z1V0FD","3ERMJ6L4D0Y4JAFE1UM6T9EPNR67M9","model","match","uniform","","","","","","","790.3999998569489","310088.30000019073","310878.7000000477","[""stimuli/BM16_AO.jpg"",""stimuli/AM05_SC.jpg"",""stimuli/WF14_HE.jpg"",""stimuli/AM06_SUR.jpg""]","stimuli/BM16_AO.jpg","stimuli/AM05_SC.jpg","stimuli/WF14_HE.jpg","stimuli/AM06_SUR.jpg","pos3","stimuli/WF14_HE.jpg","HE","WF14","2","3","6","8","stimuli/stars_6.png","170.5","[""AO"",""SC"",""HE"",""SUR""]","[""BM16"",""AM05"",""WF14"",""AM06""]","[2,6,6,4]","[2,6,8,4]","","",""
"show-reward","102","310647","0.0-102.0","p530881","A1WJGO38GJ99ZS","3087LXLJ6NMH85PJ46SJUKP4Z1V0FD","3ERMJ6L4D0Y4JAFE1UM6T9EPNR67M9","model","match","uniform","","","","","","","","311381.2000000477","313384.60000014305","","","","","","","","","","","","6","","stimuli/stars_6.png","170.5","","","","","stimuli/WF14_HE.jpg","",""
"explore-choice","103","315108","0.0-103.0","p530881","A1WJGO38GJ99ZS","3087LXLJ6NMH85PJ46SJUKP4Z1V0FD","3ERMJ6L4D0Y4JAFE1UM6T9EPNR67M9","model","match","uniform","","","","","","","3958.2000000476837","313386.5","317344.7000000477","[""stimuli/HM07_HO.jpg"",""stimuli/WF11_FO.jpg"",""stimuli/WF06_DO.jpg"",""stimuli/HF04_CC.jpg""]","stimuli/HM07_HO.jpg","stimuli/WF11_FO.jpg","stimuli/WF06_DO.jpg","stimuli/HF04_CC.jpg","pos4","stimuli/HF04_CC.jpg","CC","HF04","3","1","2","2","stimuli/stars_2.png","171.5","[""HO"",""FO"",""DO"",""CC""]","[""HM07"",""WF11"",""WF06"",""HF04""]","[7,2,5,2]","[8,4,6,2]","","",""
"show-reward","104","317113","0.0-104.0","p530881","A1WJGO38GJ99ZS","3087LXLJ6NMH85PJ46SJUKP4Z1V0FD","3ERMJ6L4D0Y4JAFE1UM6T9EPNR67M9","model","match","uniform","","","","","","","","317847.30000019073","319849.90000009537","","","","","","","","","","","","2","","stimuli/stars_2.png","171.5","","","","","stimuli/HF04_CC.jpg","",""
"explore-choice","105","319539","0.0-105.0","p530881","A1WJGO38GJ99ZS","3087LXLJ6NMH85PJ46SJUKP4Z1V0FD","3ERMJ6L4D0Y4JAFE1UM6T9EPNR67M9","model","match","uniform","","","","","","","1923.2000000476837","319851.60000014305","321774.80000019073","[""stimuli/WF06_DO.jpg"",""stimuli/HM07_CC.jpg"",""stimuli/HF04_FO.jpg"",""stimuli/WF11_HO.jpg""]","stimuli/WF06_DO.jpg","stimuli/HM07_CC.jpg","stimuli/HF04_FO.jpg","stimuli/WF11_HO.jpg","pos4","stimuli/WF11_HO.jpg","HO","WF11","3","2","4","4","stimuli/stars_4.png","173.5","[""DO"",""CC"",""FO"",""HO""]","[""WF06"",""HM07"",""HF04"",""WF11""]","[6,10,1,4]","[6,8,2,4]","","",""
"show-reward","106","321545","0.0-106.0","p530881","A1WJGO38GJ99ZS","3087LXLJ6NMH85PJ46SJUKP4Z1V0FD","3ERMJ6L4D0Y4JAFE1UM6T9EPNR67M9","model","match","uniform","","","","","","","","322278","324282.2000000477","","","","","","","","","","","","4","","stimuli/stars_4.png","173.5","","","","","stimuli/WF11_HO.jpg","",""
"explore-choice","107","322765","0.0-107.0","p530881","A1WJGO38GJ99ZS","3087LXLJ6NMH85PJ46SJUKP4Z1V0FD","3ERMJ6L4D0Y4JAFE1UM6T9EPNR67M9","model","match","uniform","","","","","","","717.7999999523163","324283.80000019073","325001.60000014305","[""stimuli/WF11_CC.jpg"",""stimuli/HF04_DO.jpg"",""stimuli/HM07_FO.jpg"",""stimuli/WF06_HO.jpg""]","stimuli/WF11_CC.jpg","stimuli/HF04_DO.jpg","stimuli/HM07_FO.jpg","stimuli/WF06_HO.jpg","pos1","stimuli/WF11_CC.jpg","CC","WF11","0","1","2","4","stimuli/stars_2.png","174.5","[""CC"",""DO"",""FO"",""HO""]","[""WF11"",""HF04"",""HM07"",""WF06""]","[2,0,6,5]","[4,2,8,6]","","",""
"show-reward","108","324773","0.0-108.0","p530881","A1WJGO38GJ99ZS","3087LXLJ6NMH85PJ46SJUKP4Z1V0FD","3ERMJ6L4D0Y4JAFE1UM6T9EPNR67M9","model","match","uniform","","","","","","","","325505.5","327510.5","","","","","","","","","","","","2","","stimuli/stars_2.png","174.5","","","","","stimuli/WF11_CC.jpg","",""
"explore-choice","109","326106","0.0-109.0","p530881","A1WJGO38GJ99ZS","3087LXLJ6NMH85PJ46SJUKP4Z1V0FD","3ERMJ6L4D0Y4JAFE1UM6T9EPNR67M9","model","match","uniform","","","","","","","829.7999999523163","327512.2000000477","328342","[""stimuli/HM07_CC.jpg"",""stimuli/HF04_FO.jpg"",""stimuli/WF06_HO.jpg"",""stimuli/WF11_DO.jpg""]","stimuli/HM07_CC.jpg","stimuli/HF04_FO.jpg","stimuli/WF06_HO.jpg","stimuli/WF11_DO.jpg","pos3","stimuli/WF06_HO.jpg","HO","WF06","2","4","8","6","stimuli/stars_8.png","178.5","[""CC"",""FO"",""HO"",""DO""]","[""HM07"",""HF04"",""WF06"",""WF11""]","[9,3,8,2]","[8,2,6,4]","","",""
"show-reward","110","328112","0.0-110.0","p530881","A1WJGO38GJ99ZS","3087LXLJ6NMH85PJ46SJUKP4Z1V0FD","3ERMJ6L4D0Y4JAFE1UM6T9EPNR67M9","model","match","uniform","","","","","","","","328845.2000000477","330849.30000019073","","","","","","","","","","","","8","","stimuli/stars_8.png","178.5","","","","","stimuli/WF06_HO.jpg","",""
"explore-choice","111","331943","0.0-111.0","p530881","A1WJGO38GJ99ZS","3087LXLJ6NMH85PJ46SJUKP4Z1V0FD","3ERMJ6L4D0Y4JAFE1UM6T9EPNR67M9","model","match","uniform","","","","","","","3327.7999999523163","330851.2000000477","334179","[""stimuli/WF06_DO.jpg"",""stimuli/WF11_HO.jpg"",""stimuli/HF04_CC.jpg"",""stimuli/HM07_FO.jpg""]","stimuli/WF06_DO.jpg","stimuli/WF11_HO.jpg","stimuli/HF04_CC.jpg","stimuli/HM07_FO.jpg","pos4","stimuli/HM07_FO.jpg","FO","HM07","3","3.5","7","8","stimuli/stars_7.png","182","[""DO"",""HO"",""CC"",""FO""]","[""WF06"",""WF11"",""HF04"",""HM07""]","[8,6,1,7]","[6,4,2,8]","","",""
"show-reward","112","333950","0.0-112.0","p530881","A1WJGO38GJ99ZS","3087LXLJ6NMH85PJ46SJUKP4Z1V0FD","3ERMJ6L4D0Y4JAFE1UM6T9EPNR67M9","model","match","uniform","","","","","","","","334682.2000000477","336687.2000000477","","","","","","","","","","","","7","","stimuli/stars_7.png","182","","","","","stimuli/HM07_FO.jpg","",""
"explore-choice","113","335024","0.0-113.0","p530881","A1WJGO38GJ99ZS","3087LXLJ6NMH85PJ46SJUKP4Z1V0FD","3ERMJ6L4D0Y4JAFE1UM6T9EPNR67M9","model","match","uniform","","","","","","","571.6000001430511","336689","337260.60000014305","[""stimuli/HM07_FO.jpg"",""stimuli/WF06_DO.jpg"",""stimuli/HF04_HO.jpg"",""stimuli/WF11_CC.jpg""]","stimuli/HM07_FO.jpg","stimuli/WF06_DO.jpg","stimuli/HF04_HO.jpg","stimuli/WF11_CC.jpg","pos3","stimuli/HF04_HO.jpg","HO","HF04","2","2","4","2","stimuli/stars_4.png","184","[""FO"",""DO"",""HO"",""CC""]","[""HM07"",""WF06"",""HF04"",""WF11""]","[6,5,4,6]","[8,6,2,4]","","",""
"show-reward","114","337030","0.0-114.0","p530881","A1WJGO38GJ99ZS","3087LXLJ6NMH85PJ46SJUKP4Z1V0FD","3ERMJ6L4D0Y4JAFE1UM6T9EPNR67M9","model","match","uniform","","","","","","","","337763","339767.5","","","","","","","","","","","","4","","stimuli/stars_4.png","184","","","","","stimuli/HF04_HO.jpg","",""
"explore-choice","115","338815","0.0-115.0","p530881","A1WJGO38GJ99ZS","3087LXLJ6NMH85PJ46SJUKP4Z1V0FD","3ERMJ6L4D0Y4JAFE1UM6T9EPNR67M9","model","match","uniform","","","","","","","1281.8999998569489","339769.30000019073","341051.2000000477","[""stimuli/HM07_CC.jpg"",""stimuli/WF11_FO.jpg"",""stimuli/HF04_DO.jpg"",""stimuli/WF06_HO.jpg""]","stimuli/HM07_CC.jpg","stimuli/WF11_FO.jpg","stimuli/HF04_DO.jpg","stimuli/WF06_HO.jpg","pos2","stimuli/WF11_FO.jpg","FO","WF11","1","1","2","4","stimuli/stars_2.png","185","[""CC"",""FO"",""DO"",""HO""]","[""HM07"",""WF11"",""HF04"",""WF06""]","[10,2,0,5]","[8,4,2,6]","","",""
"show-reward","116","340818","0.0-116.0","p530881","A1WJGO38GJ99ZS","3087LXLJ6NMH85PJ46SJUKP4Z1V0FD","3ERMJ6L4D0Y4JAFE1UM6T9EPNR67M9","model","match","uniform","","","","","","","","341553.10000014305","343555.30000019073","","","","","","","","","","","","2","","stimuli/stars_2.png","185","","","","","stimuli/WF11_FO.jpg","",""
"explore-choice","117","342193","0.0-117.0","p530881","A1WJGO38GJ99ZS","3087LXLJ6NMH85PJ46SJUKP4Z1V0FD","3ERMJ6L4D0Y4JAFE1UM6T9EPNR67M9","model","match","uniform","","","","","","","871.5","343557","344428.5","[""stimuli/HM07_CC.jpg"",""stimuli/WF11_FO.jpg"",""stimuli/HF04_HO.jpg"",""stimuli/WF06_DO.jpg""]","stimuli/HM07_CC.jpg","stimuli/WF11_FO.jpg","stimuli/HF04_HO.jpg","stimuli/WF06_DO.jpg","pos4","stimuli/WF06_DO.jpg","DO","WF06","3","3","6","6","stimuli/stars_6.png","188","[""CC"",""FO"",""HO"",""DO""]","[""HM07"",""WF11"",""HF04"",""WF06""]","[8,6,0,6]","[8,4,2,6]","","",""
"show-reward","118","344197","0.0-118.0","p530881","A1WJGO38GJ99ZS","3087LXLJ6NMH85PJ46SJUKP4Z1V0FD","3ERMJ6L4D0Y4JAFE1UM6T9EPNR67M9","model","match","uniform","","","","","","","","344931.90000009537","346934.7000000477","","","","","","","","","","","","6","","stimuli/stars_6.png","188","","","","","stimuli/WF06_DO.jpg","",""
"explore-choice","119","345238","0.0-119.0","p530881","A1WJGO38GJ99ZS","3087LXLJ6NMH85PJ46SJUKP4Z1V0FD","3ERMJ6L4D0Y4JAFE1UM6T9EPNR67M9","model","match","uniform","","","","","","","536.9000000953674","346936.40000009537","347473.30000019073","[""stimuli/WF11_CC.jpg"",""stimuli/HF04_DO.jpg"",""stimuli/WF06_FO.jpg"",""stimuli/HM07_HO.jpg""]","stimuli/WF11_CC.jpg","stimuli/HF04_DO.jpg","stimuli/WF06_FO.jpg","stimuli/HM07_HO.jpg","pos1","stimuli/WF11_CC.jpg","CC","WF11","0","2.5","5","4","stimuli/stars_5.png","190.5","[""CC"",""DO"",""FO"",""HO""]","[""WF11"",""HF04"",""WF06"",""HM07""]","[5,0,6,9]","[4,2,6,8]","","",""
"show-reward","120","347244","0.0-120.0","p530881","A1WJGO38GJ99ZS","3087LXLJ6NMH85PJ46SJUKP4Z1V0FD","3ERMJ6L4D0Y4JAFE1UM6T9EPNR67M9","model","match","uniform","","","","","","","","347977.2000000477","349981.80000019073","","","","","","","","","","","","5","","stimuli/stars_5.png","190.5","","","","","stimuli/WF11_CC.jpg","",""
"explore-choice","121","348263","0.0-121.0","p530881","A1WJGO38GJ99ZS","3087LXLJ6NMH85PJ46SJUKP4Z1V0FD","3ERMJ6L4D0Y4JAFE1UM6T9EPNR67M9","model","match","uniform","","","","","","","516.2000000476837","349983.5","350499.7000000477","[""stimuli/HF04_DO.jpg"",""stimuli/WF06_CC.jpg"",""stimuli/HM07_FO.jpg"",""stimuli/WF11_HO.jpg""]","stimuli/HF04_DO.jpg","stimuli/WF06_CC.jpg","stimuli/HM07_FO.jpg","stimuli/WF11_HO.jpg","pos3","stimuli/HM07_FO.jpg","FO","HM07","2","4","8","8","stimuli/stars_8.png","194.5","[""DO"",""CC"",""FO"",""HO""]","[""HF04"",""WF06"",""HM07"",""WF11""]","[4,6,8,4]","[2,6,8,4]","","",""
"show-reward","122","350266","0.0-122.0","p530881","A1WJGO38GJ99ZS","3087LXLJ6NMH85PJ46SJUKP4Z1V0FD","3ERMJ6L4D0Y4JAFE1UM6T9EPNR67M9","model","match","uniform","","","","","","","","351000.90000009537","353002.80000019073","","","","","","","","","","","","8","","stimuli/stars_8.png","194.5","","","","","stimuli/HM07_FO.jpg","",""
"explore-choice","123","353464","0.0-123.0","p530881","A1WJGO38GJ99ZS","3087LXLJ6NMH85PJ46SJUKP4Z1V0FD","3ERMJ6L4D0Y4JAFE1UM6T9EPNR67M9","model","match","uniform","","","","","","","2696.0999999046326","353004.60000014305","355700.7000000477","[""stimuli/WF11_HO.jpg"",""stimuli/HF04_DO.jpg"",""stimuli/HM07_CC.jpg"",""stimuli/WF06_FO.jpg""]","stimuli/WF11_HO.jpg","stimuli/HF04_DO.jpg","stimuli/HM07_CC.jpg","stimuli/WF06_FO.jpg","pos1","stimuli/WF11_HO.jpg","HO","WF11","0","1","2","4","stimuli/stars_2.png","195.5","[""HO"",""DO"",""CC"",""FO""]","[""WF11"",""HF04"",""HM07"",""WF06""]","[2,2,9,7]","[4,2,8,6]","","",""
"show-reward","124","355469","0.0-124.0","p530881","A1WJGO38GJ99ZS","3087LXLJ6NMH85PJ46SJUKP4Z1V0FD","3ERMJ6L4D0Y4JAFE1UM6T9EPNR67M9","model","match","uniform","","","","","","","","356203.5","358206.5","","","","","","","","","","","","2","","stimuli/stars_2.png","195.5","","","","","stimuli/WF11_HO.jpg","",""
"explore-choice","125","356627","0.0-125.0","p530881","A1WJGO38GJ99ZS","3087LXLJ6NMH85PJ46SJUKP4Z1V0FD","3ERMJ6L4D0Y4JAFE1UM6T9EPNR67M9","model","match","uniform","","","","","","","655.5","358207.5","358863","[""stimuli/HM07_DO.jpg"",""stimuli/HF04_HO.jpg"",""stimuli/WF11_FO.jpg"",""stimuli/WF06_CC.jpg""]","stimuli/HM07_DO.jpg","stimuli/HF04_HO.jpg","stimuli/WF11_FO.jpg","stimuli/WF06_CC.jpg","pos4","stimuli/WF06_CC.jpg","CC","WF06","3","2","4","6","stimuli/stars_4.png","197.5","[""DO"",""HO"",""FO"",""CC""]","[""HM07"",""HF04"",""WF11"",""WF06""]","[7,2,4,4]","[8,2,4,6]","","",""
"show-reward","126","358632","0.0-126.0","p530881","A1WJGO38GJ99ZS","3087LXLJ6NMH85PJ46SJUKP4Z1V0FD","3ERMJ6L4D0Y4JAFE1UM6T9EPNR67M9","model","match","uniform","","","","","","","","359365.7000000477","361369.2000000477","","","","","","","","","","","","4","","stimuli/stars_4.png","197.5","","","","","stimuli/WF06_CC.jpg","",""
"explore-choice","127","361872","0.0-127.0","p530881","A1WJGO38GJ99ZS","3087LXLJ6NMH85PJ46SJUKP4Z1V0FD","3ERMJ6L4D0Y4JAFE1UM6T9EPNR67M9","model","match","uniform","","","","","","","2737.2999999523163","361370.7000000477","364108","[""stimuli/HF04_CC.jpg"",""stimuli/WF11_HO.jpg"",""stimuli/WF06_FO.jpg"",""stimuli/HM07_DO.jpg""]","stimuli/HF04_CC.jpg","stimuli/WF11_HO.jpg","stimuli/WF06_FO.jpg","stimuli/HM07_DO.jpg","pos3","stimuli/WF06_FO.jpg","FO","WF06","2","3.5","7","6","stimuli/stars_7.png","201","[""CC"",""HO"",""FO"",""DO""]","[""HF04"",""WF11"",""WF06"",""HM07""]","[1,6,7,7]","[2,4,6,8]","","",""
"show-reward","128","363877","0.0-128.0","p530881","A1WJGO38GJ99ZS","3087LXLJ6NMH85PJ46SJUKP4Z1V0FD","3ERMJ6L4D0Y4JAFE1UM6T9EPNR67M9","model","match","uniform","","","","","","","","364611.30000019073","366614.60000014305","","","","","","","","","","","","7","","stimuli/stars_7.png","201","","","","","stimuli/WF06_FO.jpg","",""
"explore-choice","129","367161","0.0-129.0","p530881","A1WJGO38GJ99ZS","3087LXLJ6NMH85PJ46SJUKP4Z1V0FD","3ERMJ6L4D0Y4JAFE1UM6T9EPNR67M9","model","match","uniform","","","","","","","2781.399999856949","366616.30000019073","369397.7000000477","[""stimuli/WF11_HO.jpg"",""stimuli/HF04_FO.jpg"",""stimuli/WF06_CC.jpg"",""stimuli/HM07_DO.jpg""]","stimuli/WF11_HO.jpg","stimuli/HF04_FO.jpg","stimuli/WF06_CC.jpg","stimuli/HM07_DO.jpg","pos1","stimuli/WF11_HO.jpg","HO","WF11","0","1","2","4","stimuli/stars_2.png","202","[""HO"",""FO"",""CC"",""DO""]","[""WF11"",""HF04"",""WF06"",""HM07""]","[2,2,4,6]","[4,2,6,8]","","",""
"show-reward","130","369167","0.0-130.0","p530881","A1WJGO38GJ99ZS","3087LXLJ6NMH85PJ46SJUKP4Z1V0FD","3ERMJ6L4D0Y4JAFE1UM6T9EPNR67M9","model","match","uniform","","","","","","","","369900.30000019073","371904","","","","","","","","","","","","2","","stimuli/stars_2.png","202","","","","","stimuli/WF11_HO.jpg","",""
"explore-choice","131","371639","0.0-131.0","p530881","A1WJGO38GJ99ZS","3087LXLJ6NMH85PJ46SJUKP4Z1V0FD","3ERMJ6L4D0Y4JAFE1UM6T9EPNR67M9","model","match","uniform","","","","","","","1970.3999998569489","371905.10000014305","373875.5","[""stimuli/HF04_CC.jpg"",""stimuli/HM07_HO.jpg"",""stimuli/WF11_DO.jpg"",""stimuli/WF06_FO.jpg""]","stimuli/HF04_CC.jpg","stimuli/HM07_HO.jpg","stimuli/WF11_DO.jpg","stimuli/WF06_FO.jpg","pos3","stimuli/WF11_DO.jpg","DO","WF11","2","2","4","4","stimuli/stars_4.png","204","[""CC"",""HO"",""DO"",""FO""]","[""HF04"",""HM07"",""WF11"",""WF06""]","[1,8,4,4]","[2,8,4,6]","","",""
"show-reward","132","373644","0.0-132.0","p530881","A1WJGO38GJ99ZS","3087LXLJ6NMH85PJ46SJUKP4Z1V0FD","3ERMJ6L4D0Y4JAFE1UM6T9EPNR67M9","model","match","uniform","","","","","","","","374378.10000014305","376381.7000000477","","","","","","","","","","","","4","","stimuli/stars_4.png","204","","","","","stimuli/WF11_DO.jpg","",""
"explore-choice","133","380672","0.0-133.0","p530881","A1WJGO38GJ99ZS","3087LXLJ6NMH85PJ46SJUKP4Z1V0FD","3ERMJ6L4D0Y4JAFE1UM6T9EPNR67M9","model","match","uniform","","","","","","","6526.399999856949","376382.80000019073","382909.2000000477","[""stimuli/WF11_CC.jpg"",""stimuli/HF04_FO.jpg"",""stimuli/HM07_HO.jpg"",""stimuli/WF06_DO.jpg""]","stimuli/WF11_CC.jpg","stimuli/HF04_FO.jpg","stimuli/HM07_HO.jpg","stimuli/WF06_DO.jpg","pos4","stimuli/WF06_DO.jpg","DO","WF06","3","3","6","6","stimuli/stars_6.png","207","[""CC"",""FO"",""HO"",""DO""]","[""WF11"",""HF04"",""HM07"",""WF06""]","[4,1,6,6]","[4,2,8,6]","","",""
"show-reward","134","382678","0.0-134.0","p530881","A1WJGO38GJ99ZS","3087LXLJ6NMH85PJ46SJUKP4Z1V0FD","3ERMJ6L4D0Y4JAFE1UM6T9EPNR67M9","model","match","uniform","","","","","","","","383411.7000000477","385414.90000009537","","","","","","","","","","","","6","","stimuli/stars_6.png","207","","","","","stimuli/WF06_DO.jpg","",""
"explore-choice","135","384880","0.0-135.0","p530881","A1WJGO38GJ99ZS","3087LXLJ6NMH85PJ46SJUKP4Z1V0FD","3ERMJ6L4D0Y4JAFE1UM6T9EPNR67M9","model","match","uniform","","","","","","","1697.3000001907349","385417","387114.30000019073","[""stimuli/HM07_HO.jpg"",""stimuli/HF04_FO.jpg"",""stimuli/WF06_CC.jpg"",""stimuli/WF11_DO.jpg""]","stimuli/HM07_HO.jpg","stimuli/HF04_FO.jpg","stimuli/WF06_CC.jpg","stimuli/WF11_DO.jpg","pos1","stimuli/HM07_HO.jpg","HO","HM07","0","4","8","8","stimuli/stars_8.png","211","[""HO"",""FO"",""CC"",""DO""]","[""HM07"",""HF04"",""WF06"",""WF11""]","[8,1,7,3]","[8,2,6,4]","","",""
"show-reward","136","386885","0.0-136.0","p530881","A1WJGO38GJ99ZS","3087LXLJ6NMH85PJ46SJUKP4Z1V0FD","3ERMJ6L4D0Y4JAFE1UM6T9EPNR67M9","model","match","uniform","","","","","","","","387618.5","389622.10000014305","","","","","","","","","","","","8","","stimuli/stars_8.png","211","","","","","stimuli/HM07_HO.jpg","",""
"explore-choice","137","388425","0.0-137.0","p530881","A1WJGO38GJ99ZS","3087LXLJ6NMH85PJ46SJUKP4Z1V0FD","3ERMJ6L4D0Y4JAFE1UM6T9EPNR67M9","model","match","uniform","","","","","","","1037.7999999523163","389623.80000019073","390661.60000014305","[""stimuli/HF04_HO.jpg"",""stimuli/WF06_CC.jpg"",""stimuli/WF11_DO.jpg"",""stimuli/HM07_FO.jpg""]","stimuli/HF04_HO.jpg","stimuli/WF06_CC.jpg","stimuli/WF11_DO.jpg","stimuli/HM07_FO.jpg","pos1","stimuli/HF04_HO.jpg","HO","HF04","0","1.5","3","2","stimuli/stars_3.png","212.5","[""HO"",""CC"",""DO"",""FO""]","[""HF04"",""WF06"",""WF11"",""HM07""]","[3,4,4,6]","[2,6,4,8]","","",""
"show-reward","138","390434","0.0-138.0","p530881","A1WJGO38GJ99ZS","3087LXLJ6NMH85PJ46SJUKP4Z1V0FD","3ERMJ6L4D0Y4JAFE1UM6T9EPNR67M9","model","match","uniform","","","","","","","","391166.60000014305","393170.7000000477","","","","","","","","","","","","3","","stimuli/stars_3.png","212.5","","","","","stimuli/HF04_HO.jpg","",""
"explore-choice","139","392074","0.0-139.0","p530881","A1WJGO38GJ99ZS","3087LXLJ6NMH85PJ46SJUKP4Z1V0FD","3ERMJ6L4D0Y4JAFE1UM6T9EPNR67M9","model","match","uniform","","","","","","","1135.9000000953674","393172.90000009537","394308.80000019073","[""stimuli/HM07_HO.jpg"",""stimuli/WF06_CC.jpg"",""stimuli/HF04_DO.jpg"",""stimuli/WF11_FO.jpg""]","stimuli/HM07_HO.jpg","stimuli/WF06_CC.jpg","stimuli/HF04_DO.jpg","stimuli/WF11_FO.jpg","pos1","stimuli/HM07_HO.jpg","HO","HM07","0","5","10","8","stimuli/stars_10.png","217.5","[""HO"",""CC"",""DO"",""FO""]","[""HM07"",""WF06"",""HF04"",""WF11""]","[10,8,4,2]","[8,6,2,4]","","",""
"show-reward","140","394078","0.0-140.0","p530881","A1WJGO38GJ99ZS","3087LXLJ6NMH85PJ46SJUKP4Z1V0FD","3ERMJ6L4D0Y4JAFE1UM6T9EPNR67M9","model","match","uniform","","","","","","","","394812.30000019073","396815.10000014305","","","","","","","","","","","","10","","stimuli/stars_10.png","217.5","","","","","stimuli/HM07_HO.jpg","",""
"explore-choice","141","396873","0.0-141.0","p530881","A1WJGO38GJ99ZS","3087LXLJ6NMH85PJ46SJUKP4Z1V0FD","3ERMJ6L4D0Y4JAFE1UM6T9EPNR67M9","model","match","uniform","","","","","","","2292.4000000953674","396816.7000000477","399109.10000014305","[""stimuli/HM07_CC.jpg"",""stimuli/HF04_HO.jpg"",""stimuli/WF11_DO.jpg"",""stimuli/WF06_FO.jpg""]","stimuli/HM07_CC.jpg","stimuli/HF04_HO.jpg","stimuli/WF11_DO.jpg","stimuli/WF06_FO.jpg","pos1","stimuli/HM07_CC.jpg","CC","HM07","0","5","10","8","stimuli/stars_10.png","222.5","[""CC"",""HO"",""DO"",""FO""]","[""HM07"",""HF04"",""WF11"",""WF06""]","[10,4,2,5]","[8,2,4,6]","","",""
"show-reward","142","398878","0.0-142.0","p530881","A1WJGO38GJ99ZS","3087LXLJ6NMH85PJ46SJUKP4Z1V0FD","3ERMJ6L4D0Y4JAFE1UM6T9EPNR67M9","model","match","uniform","","","","","","","","399611.90000009537","401615","","","","","","","","","","","","10","","stimuli/stars_10.png","222.5","","","","","stimuli/HM07_CC.jpg","",""
"explore-choice","143","401843","0.0-143.0","p530881","A1WJGO38GJ99ZS","3087LXLJ6NMH85PJ46SJUKP4Z1V0FD","3ERMJ6L4D0Y4JAFE1UM6T9EPNR67M9","model","match","uniform","","","","","","","2461","401617.90000009537","404078.90000009537","[""stimuli/WF11_CC.jpg"",""stimuli/HM07_DO.jpg"",""stimuli/WF06_FO.jpg"",""stimuli/HF04_HO.jpg""]","stimuli/WF11_CC.jpg","stimuli/HM07_DO.jpg","stimuli/WF06_FO.jpg","stimuli/HF04_HO.jpg","pos3","stimuli/WF06_FO.jpg","FO","WF06","2","3","6","6","stimuli/stars_6.png","225.5","[""CC"",""DO"",""FO"",""HO""]","[""WF11"",""HM07"",""WF06"",""HF04""]","[3,6,6,2]","[4,8,6,2]","","",""
"show-reward","144","403848","0.0-144.0","p530881","A1WJGO38GJ99ZS","3087LXLJ6NMH85PJ46SJUKP4Z1V0FD","3ERMJ6L4D0Y4JAFE1UM6T9EPNR67M9","model","match","uniform","","","","","","","","404581.80000019073","406585.10000014305","","","","","","","","","","","","6","","stimuli/stars_6.png","225.5","","","","","stimuli/WF06_FO.jpg","",""
"explore-choice","145","416835","0.0-145.0","p530881","A1WJGO38GJ99ZS","3087LXLJ6NMH85PJ46SJUKP4Z1V0FD","3ERMJ6L4D0Y4JAFE1UM6T9EPNR67M9","model","match","uniform","","","","","","","12484.099999904633","406586.90000009537","419071","[""stimuli/HF04_FO.jpg"",""stimuli/WF11_CC.jpg"",""stimuli/WF06_HO.jpg"",""stimuli/HM07_DO.jpg""]","stimuli/HF04_FO.jpg","stimuli/WF11_CC.jpg","stimuli/WF06_HO.jpg","stimuli/HM07_DO.jpg","pos3","stimuli/WF06_HO.jpg","HO","WF06","2","2","4","6","stimuli/stars_4.png","227.5","[""FO"",""CC"",""HO"",""DO""]","[""HF04"",""WF11"",""WF06"",""HM07""]","[1,4,4,8]","[2,4,6,8]","","",""
"show-reward","146","418842","0.0-146.0","p530881","A1WJGO38GJ99ZS","3087LXLJ6NMH85PJ46SJUKP4Z1V0FD","3ERMJ6L4D0Y4JAFE1UM6T9EPNR67M9","model","match","uniform","","","","","","","","419574.10000014305","421579.40000009537","","","","","","","","","","","","4","","stimuli/stars_4.png","227.5","","","","","stimuli/WF06_HO.jpg","",""
"explore-choice","147","421152","0.0-147.0","p530881","A1WJGO38GJ99ZS","3087LXLJ6NMH85PJ46SJUKP4Z1V0FD","3ERMJ6L4D0Y4JAFE1UM6T9EPNR67M9","model","match","uniform","","","","","","","1807.5999999046326","421581.10000014305","423388.7000000477","[""stimuli/WF06_HO.jpg"",""stimuli/WF11_FO.jpg"",""stimuli/HF04_CC.jpg"",""stimuli/HM07_DO.jpg""]","stimuli/WF06_HO.jpg","stimuli/WF11_FO.jpg","stimuli/HF04_CC.jpg","stimuli/HM07_DO.jpg","pos1","stimuli/WF06_HO.jpg","HO","WF06","0","3","6","6","stimuli/stars_6.png","230.5","[""HO"",""FO"",""CC"",""DO""]","[""WF06"",""WF11"",""HF04"",""HM07""]","[6,6,0,9]","[6,4,2,8]","","",""
"show-reward","148","423158","0.0-148.0","p530881","A1WJGO38GJ99ZS","3087LXLJ6NMH85PJ46SJUKP4Z1V0FD","3ERMJ6L4D0Y4JAFE1UM6T9EPNR67M9","model","match","uniform","","","","","","","","423891.30000019073","425895.10000014305","","","","","","","","","","","","6","","stimuli/stars_6.png","230.5","","","","","stimuli/WF06_HO.jpg","",""
"explore-choice","149","424902","0.0-149.0","p530881","A1WJGO38GJ99ZS","3087LXLJ6NMH85PJ46SJUKP4Z1V0FD","3ERMJ6L4D0Y4JAFE1UM6T9EPNR67M9","model","match","uniform","","","","","","","1241.2999999523163","425896.80000019073","427138.10000014305","[""stimuli/HM07_FO.jpg"",""stimuli/WF06_HO.jpg"",""stimuli/WF11_DO.jpg"",""stimuli/HF04_CC.jpg""]","stimuli/HM07_FO.jpg","stimuli/WF06_HO.jpg","stimuli/WF11_DO.jpg","stimuli/HF04_CC.jpg","pos2","stimuli/WF06_HO.jpg","HO","WF06","1","4","8","6","stimuli/stars_8.png","234.5","[""FO"",""HO"",""DO"",""CC""]","[""HM07"",""WF06"",""WF11"",""HF04""]","[10,8,5,0]","[8,6,4,2]","","",""
"show-reward","150","426907","0.0-150.0","p530881","A1WJGO38GJ99ZS","3087LXLJ6NMH85PJ46SJUKP4Z1V0FD","3ERMJ6L4D0Y4JAFE1UM6T9EPNR67M9","model","match","uniform","","","","","","","","427640.90000009537","429644","","","","","","","","","","","","8","","stimuli/stars_8.png","234.5","","","","","stimuli/WF06_HO.jpg","",""
"explore-choice","151","429188","0.0-151.0","p530881","A1WJGO38GJ99ZS","3087LXLJ6NMH85PJ46SJUKP4Z1V0FD","3ERMJ6L4D0Y4JAFE1UM6T9EPNR67M9","model","match","uniform","","","","","","","1778.2000000476837","429645.7000000477","431423.90000009537","[""stimuli/HM07_HO.jpg"",""stimuli/HF04_CC.jpg"",""stimuli/WF11_DO.jpg"",""stimuli/WF06_FO.jpg""]","stimuli/HM07_HO.jpg","stimuli/HF04_CC.jpg","stimuli/WF11_DO.jpg","stimuli/WF06_FO.jpg","pos1","stimuli/HM07_HO.jpg","HO","HM07","0","4","8","8","stimuli/stars_8.png","238.5","[""HO"",""CC"",""DO"",""FO""]","[""HM07"",""HF04"",""WF11"",""WF06""]","[8,1,4,4]","[8,2,4,6]","","",""
"show-reward","152","431194","0.0-152.0","p530881","A1WJGO38GJ99ZS","3087LXLJ6NMH85PJ46SJUKP4Z1V0FD","3ERMJ6L4D0Y4JAFE1UM6T9EPNR67M9","model","match","uniform","","","","","","","","431926.80000019073","433930.7000000477","","","","","","","","","","","","8","","stimuli/stars_8.png","238.5","","","","","stimuli/HM07_HO.jpg","",""
"explore-choice","153","436889","0.0-153.0","p530881","A1WJGO38GJ99ZS","3087LXLJ6NMH85PJ46SJUKP4Z1V0FD","3ERMJ6L4D0Y4JAFE1UM6T9EPNR67M9","model","match","uniform","","","","","","","5192.299999952316","433932.7000000477","439125","[""stimuli/WF11_FO.jpg"",""stimuli/HM07_HO.jpg"",""stimuli/WF06_DO.jpg"",""stimuli/HF04_CC.jpg""]","stimuli/WF11_FO.jpg","stimuli/HM07_HO.jpg","stimuli/WF06_DO.jpg","stimuli/HF04_CC.jpg","pos2","stimuli/HM07_HO.jpg","HO","HM07","1","3.5","7","8","stimuli/stars_7.png","242","[""FO"",""HO"",""DO"",""CC""]","[""WF11"",""HM07"",""WF06"",""HF04""]","[2,7,5,2]","[4,8,6,2]","","",""
"show-reward","154","438895","0.0-154.0","p530881","A1WJGO38GJ99ZS","3087LXLJ6NMH85PJ46SJUKP4Z1V0FD","3ERMJ6L4D0Y4JAFE1UM6T9EPNR67M9","model","match","uniform","","","","","","","","439628.30000019073","441632.2000000477","","","","","","","","","","","","7","","stimuli/stars_7.png","242","","","","","stimuli/HM07_HO.jpg","",""
"explore-choice","155","442220","0.0-155.0","p530881","A1WJGO38GJ99ZS","3087LXLJ6NMH85PJ46SJUKP4Z1V0FD","3ERMJ6L4D0Y4JAFE1UM6T9EPNR67M9","model","match","uniform","","","","","","","2822","441634","444456","[""stimuli/WF11_FO.jpg"",""stimuli/HM07_DO.jpg"",""stimuli/HF04_CC.jpg"",""stimuli/WF06_HO.jpg""]","stimuli/WF11_FO.jpg","stimuli/HM07_DO.jpg","stimuli/HF04_CC.jpg","stimuli/WF06_HO.jpg","pos4","stimuli/WF06_HO.jpg","HO","WF06","3","3","6","6","stimuli/stars_6.png","245","[""FO"",""DO"",""CC"",""HO""]","[""WF11"",""HM07"",""HF04"",""WF06""]","[6,9,0,6]","[4,8,2,6]","","",""
"show-reward","156","444226","0.0-156.0","p530881","A1WJGO38GJ99ZS","3087LXLJ6NMH85PJ46SJUKP4Z1V0FD","3ERMJ6L4D0Y4JAFE1UM6T9EPNR67M9","model","match","uniform","","","","","","","","444958.7000000477","446963","","","","","","","","","","","","6","","stimuli/stars_6.png","245","","","","","stimuli/WF06_HO.jpg","",""
"explore-choice","157","447516","0.0-157.0","p530881","A1WJGO38GJ99ZS","3087LXLJ6NMH85PJ46SJUKP4Z1V0FD","3ERMJ6L4D0Y4JAFE1UM6T9EPNR67M9","model","match","uniform","","","","","","","2787.399999856949","446964.60000014305","449752","[""stimuli/WF11_HO.jpg"",""stimuli/WF06_FO.jpg"",""stimuli/HM07_DO.jpg"",""stimuli/HF04_CC.jpg""]","stimuli/WF11_HO.jpg","stimuli/WF06_FO.jpg","stimuli/HM07_DO.jpg","stimuli/HF04_CC.jpg","pos3","stimuli/HM07_DO.jpg","DO","HM07","2","3.5","7","8","stimuli/stars_7.png","248.5","[""HO"",""FO"",""DO"",""CC""]","[""WF11"",""WF06"",""HM07"",""HF04""]","[6,7,7,1]","[4,6,8,2]","","",""
"show-reward","158","449520","0.0-158.0","p530881","A1WJGO38GJ99ZS","3087LXLJ6NMH85PJ46SJUKP4Z1V0FD","3ERMJ6L4D0Y4JAFE1UM6T9EPNR67M9","model","match","uniform","","","","","","","","450254.80000019073","452257.2000000477","","","","","","","","","","","","7","","stimuli/stars_7.png","248.5","","","","","stimuli/HM07_DO.jpg","",""
"explore-choice","159","454767","0.0-159.0","p530881","A1WJGO38GJ99ZS","3087LXLJ6NMH85PJ46SJUKP4Z1V0FD","3ERMJ6L4D0Y4JAFE1UM6T9EPNR67M9","model","match","uniform","","","","","","","4743.5","452259","457002.5","[""stimuli/HF04_FO.jpg"",""stimuli/HM07_HO.jpg"",""stimuli/WF06_CC.jpg"",""stimuli/WF11_DO.jpg""]","stimuli/HF04_FO.jpg","stimuli/HM07_HO.jpg","stimuli/WF06_CC.jpg","stimuli/WF11_DO.jpg","pos2","stimuli/HM07_HO.jpg","HO","HM07","1","4","8","8","stimuli/stars_8.png","252.5","[""FO"",""HO"",""CC"",""DO""]","[""HF04"",""HM07"",""WF06"",""WF11""]","[1,8,7,3]","[2,8,6,4]","","",""
"show-reward","160","456775","0.0-160.0","p530881","A1WJGO38GJ99ZS","3087LXLJ6NMH85PJ46SJUKP4Z1V0FD","3ERMJ6L4D0Y4JAFE1UM6T9EPNR67M9","model","match","uniform","","","","","","","","457506.30000019073","459512.40000009537","","","","","","","","","","","","8","","stimuli/stars_8.png","252.5","","","","","stimuli/HM07_HO.jpg","",""
"explore-choice","161","461130","0.0-161.0","p530881","A1WJGO38GJ99ZS","3087LXLJ6NMH85PJ46SJUKP4Z1V0FD","3ERMJ6L4D0Y4JAFE1UM6T9EPNR67M9","model","match","uniform","","","","","","","3851.899999856949","459514.30000019073","463366.2000000477","[""stimuli/HF04_DO.jpg"",""stimuli/HM07_HO.jpg"",""stimuli/WF06_CC.jpg"",""stimuli/WF11_FO.jpg""]","stimuli/HF04_DO.jpg","stimuli/HM07_HO.jpg","stimuli/WF06_CC.jpg","stimuli/WF11_FO.jpg","pos1","stimuli/HF04_DO.jpg","DO","HF04","0","2","4","2","stimuli/stars_4.png","254.5","[""DO"",""HO"",""CC"",""FO""]","[""HF04"",""HM07"",""WF06"",""WF11""]","[4,10,8,2]","[2,8,6,4]","","",""
"show-reward","162","463139","0.0-162.0","p530881","A1WJGO38GJ99ZS","3087LXLJ6NMH85PJ46SJUKP4Z1V0FD","3ERMJ6L4D0Y4JAFE1UM6T9EPNR67M9","model","match","uniform","","","","","","","","463868.80000019073","465876","","","","","","","","","","","","4","","stimuli/stars_4.png","254.5","","","","","stimuli/HF04_DO.jpg","",""
"explore-choice","163","465804","0.0-163.0","p530881","A1WJGO38GJ99ZS","3087LXLJ6NMH85PJ46SJUKP4Z1V0FD","3ERMJ6L4D0Y4JAFE1UM6T9EPNR67M9","model","match","uniform","","","","","","","2162.7999999523163","465877.10000014305","468039.90000009537","[""stimuli/WF11_CC.jpg"",""stimuli/HM07_DO.jpg"",""stimuli/WF06_HO.jpg"",""stimuli/HF04_FO.jpg""]","stimuli/WF11_CC.jpg","stimuli/HM07_DO.jpg","stimuli/WF06_HO.jpg","stimuli/HF04_FO.jpg","pos3","stimuli/WF06_HO.jpg","HO","WF06","2","2","4","6","stimuli/stars_4.png","256.5","[""CC"",""DO"",""HO"",""FO""]","[""WF11"",""HM07"",""WF06"",""HF04""]","[4,8,4,1]","[4,8,6,2]","","",""
"show-reward","164","467808","0.0-164.0","p530881","A1WJGO38GJ99ZS","3087LXLJ6NMH85PJ46SJUKP4Z1V0FD","3ERMJ6L4D0Y4JAFE1UM6T9EPNR67M9","model","match","uniform","","","","","","","","468542.60000014305","470545.10000014305","","","","","","","","","","","","4","","stimuli/stars_4.png","256.5","","","","","stimuli/WF06_HO.jpg","",""
"explore-choice","165","471233","0.0-165.0","p530881","A1WJGO38GJ99ZS","3087LXLJ6NMH85PJ46SJUKP4Z1V0FD","3ERMJ6L4D0Y4JAFE1UM6T9EPNR67M9","model","match","uniform","","","","","","","2911.600000143051","470546.5","473458.10000014305","[""stimuli/WF11_HO.jpg"",""stimuli/HM07_DO.jpg"",""stimuli/WF06_CC.jpg"",""stimuli/HF04_FO.jpg""]","stimuli/WF11_HO.jpg","stimuli/HM07_DO.jpg","stimuli/WF06_CC.jpg","stimuli/HF04_FO.jpg","pos4","stimuli/HF04_FO.jpg","FO","HF04","3","1","2","2","stimuli/stars_2.png","257.5","[""HO"",""DO"",""CC"",""FO""]","[""WF11"",""HM07"",""WF06"",""HF04""]","[2,6,4,2]","[4,8,6,2]","","",""
"show-reward","166","473240","0.0-166.0","p530881","A1WJGO38GJ99ZS","3087LXLJ6NMH85PJ46SJUKP4Z1V0FD","3ERMJ6L4D0Y4JAFE1UM6T9EPNR67M9","model","match","uniform","","","","","","","","473972.5","475977.40000009537","","","","","","","","","","","","2","","stimuli/stars_2.png","257.5","","","","","stimuli/HF04_FO.jpg","",""
"explore-choice","167","476084","0.0-167.0","p530881","A1WJGO38GJ99ZS","3087LXLJ6NMH85PJ46SJUKP4Z1V0FD","3ERMJ6L4D0Y4JAFE1UM6T9EPNR67M9","model","match","uniform","","","","","","","2340.0999999046326","475979.40000009537","478319.5","[""stimuli/WF11_HO.jpg"",""stimuli/WF06_DO.jpg"",""stimuli/HM07_FO.jpg"",""stimuli/HF04_CC.jpg""]","stimuli/WF11_HO.jpg","stimuli/WF06_DO.jpg","stimuli/HM07_FO.jpg","stimuli/HF04_CC.jpg","pos3","stimuli/HM07_FO.jpg","FO","HM07","2","3.5","7","8","stimuli/stars_7.png","261","[""HO"",""DO"",""FO"",""CC""]","[""WF11"",""WF06"",""HM07"",""HF04""]","[6,8,7,1]","[4,6,8,2]","","",""
"show-reward","168","478091","0.0-168.0","p530881","A1WJGO38GJ99ZS","3087LXLJ6NMH85PJ46SJUKP4Z1V0FD","3ERMJ6L4D0Y4JAFE1UM6T9EPNR67M9","model","match","uniform","","","","","","","","478823.2000000477","480827","","","","","","","","","","","","7","","stimuli/stars_7.png","261","","","","","stimuli/HM07_FO.jpg","",""
"explore-choice","169","482451","0.0-169.0","p530881","A1WJGO38GJ99ZS","3087LXLJ6NMH85PJ46SJUKP4Z1V0FD","3ERMJ6L4D0Y4JAFE1UM6T9EPNR67M9","model","match","uniform","","","","","","","3855.7999999523163","480830.60000014305","484686.40000009537","[""stimuli/WF11_DO.jpg"",""stimuli/HF04_HO.jpg"",""stimuli/HM07_CC.jpg"",""stimuli/WF06_FO.jpg""]","stimuli/WF11_DO.jpg","stimuli/HF04_HO.jpg","stimuli/HM07_CC.jpg","stimuli/WF06_FO.jpg","pos2","stimuli/HF04_HO.jpg","HO","HF04","1","2","4","2","stimuli/stars_4.png","263","[""DO"",""HO"",""CC"",""FO""]","[""WF11"",""HF04"",""HM07"",""WF06""]","[2,4,10,5]","[4,2,8,6]","","",""
"show-reward","170","484457","0.0-170.0","p530881","A1WJGO38GJ99ZS","3087LXLJ6NMH85PJ46SJUKP4Z1V0FD","3ERMJ6L4D0Y4JAFE1UM6T9EPNR67M9","model","match","uniform","","","","","","","","485190.5","487193.80000019073","","","","","","","","","","","","4","","stimuli/stars_4.png","263","","","","","stimuli/HF04_HO.jpg","",""
"explore-choice","171","490623","0.0-171.0","p530881","A1WJGO38GJ99ZS","3087LXLJ6NMH85PJ46SJUKP4Z1V0FD","3ERMJ6L4D0Y4JAFE1UM6T9EPNR67M9","model","match","uniform","","","","","","","5663.900000095367","487195.40000009537","492859.30000019073","[""stimuli/WF11_HO.jpg"",""stimuli/WF06_CC.jpg"",""stimuli/HM07_FO.jpg"",""stimuli/HF04_DO.jpg""]","stimuli/WF11_HO.jpg","stimuli/WF06_CC.jpg","stimuli/HM07_FO.jpg","stimuli/HF04_DO.jpg","pos3","stimuli/HM07_FO.jpg","FO","HM07","2","4","8","8","stimuli/stars_8.png","267","[""HO"",""CC"",""FO"",""DO""]","[""WF11"",""WF06"",""HM07"",""HF04""]","[4,6,8,4]","[4,6,8,2]","","",""
"show-reward","172","492629","0.0-172.0","p530881","A1WJGO38GJ99ZS","3087LXLJ6NMH85PJ46SJUKP4Z1V0FD","3ERMJ6L4D0Y4JAFE1UM6T9EPNR67M9","model","match","uniform","","","","","","","","493362.10000014305","495366.30000019073","","","","","","","","","","","","8","","stimuli/stars_8.png","267","","","","","stimuli/HM07_FO.jpg","",""
"explore-choice","173","496277","0.0-173.0","p530881","A1WJGO38GJ99ZS","3087LXLJ6NMH85PJ46SJUKP4Z1V0FD","3ERMJ6L4D0Y4JAFE1UM6T9EPNR67M9","model","match","uniform","","","","","","","3145.2000000476837","495368","498513.2000000477","[""stimuli/HF04_HO.jpg"",""stimuli/HM07_FO.jpg"",""stimuli/WF06_DO.jpg"",""stimuli/WF11_CC.jpg""]","stimuli/HF04_HO.jpg","stimuli/HM07_FO.jpg","stimuli/WF06_DO.jpg","stimuli/WF11_CC.jpg","pos2","stimuli/HM07_FO.jpg","FO","HM07","1","3","6","8","stimuli/stars_6.png","270","[""HO"",""FO"",""DO"",""CC""]","[""HF04"",""HM07"",""WF06"",""WF11""]","[4,6,5,6]","[2,8,6,4]","","",""
"show-reward","174","498283","0.0-174.0","p530881","A1WJGO38GJ99ZS","3087LXLJ6NMH85PJ46SJUKP4Z1V0FD","3ERMJ6L4D0Y4JAFE1UM6T9EPNR67M9","model","match","uniform","","","","","","","","499016.30000019073","501019.90000009537","","","","","","","","","","","","6","","stimuli/stars_6.png","270","","","","","stimuli/HM07_FO.jpg","",""
"explore-choice","175","503253","0.0-175.0","p530881","A1WJGO38GJ99ZS","3087LXLJ6NMH85PJ46SJUKP4Z1V0FD","3ERMJ6L4D0Y4JAFE1UM6T9EPNR67M9","model","match","uniform","","","","","","","4468.100000143051","501021","505489.10000014305","[""stimuli/HF04_DO.jpg"",""stimuli/WF06_FO.jpg"",""stimuli/WF11_CC.jpg"",""stimuli/HM07_HO.jpg""]","stimuli/HF04_DO.jpg","stimuli/WF06_FO.jpg","stimuli/WF11_CC.jpg","stimuli/HM07_HO.jpg","pos2","stimuli/WF06_FO.jpg","FO","WF06","1","3","6","6","stimuli/stars_6.png","273","[""DO"",""FO"",""CC"",""HO""]","[""HF04"",""WF06"",""WF11"",""HM07""]","[0,6,5,9]","[2,6,4,8]","","",""
"show-reward","176","505258","0.0-176.0","p530881","A1WJGO38GJ99ZS","3087LXLJ6NMH85PJ46SJUKP4Z1V0FD","3ERMJ6L4D0Y4JAFE1UM6T9EPNR67M9","model","match","uniform","","","","","","","","505992.7000000477","507995","","","","","","","","","","","","6","","stimuli/stars_6.png","273","","","","","stimuli/WF06_FO.jpg","",""
"explore-choice","177","506421","0.0-177.0","p530881","A1WJGO38GJ99ZS","3087LXLJ6NMH85PJ46SJUKP4Z1V0FD","3ERMJ6L4D0Y4JAFE1UM6T9EPNR67M9","model","match","uniform","","","","","","","660.2999999523163","507996.90000009537","508657.2000000477","[""stimuli/HM07_HO.jpg"",""stimuli/HF04_FO.jpg"",""stimuli/WF06_DO.jpg"",""stimuli/WF11_CC.jpg""]","stimuli/HM07_HO.jpg","stimuli/HF04_FO.jpg","stimuli/WF06_DO.jpg","stimuli/WF11_CC.jpg","pos1","stimuli/HM07_HO.jpg","HO","HM07","0","3","6","8","stimuli/stars_6.png","276","[""HO"",""FO"",""DO"",""CC""]","[""HM07"",""HF04"",""WF06"",""WF11""]","[6,1,6,4]","[8,2,6,4]","","",""
"show-reward","178","508426","0.0-178.0","p530881","A1WJGO38GJ99ZS","3087LXLJ6NMH85PJ46SJUKP4Z1V0FD","3ERMJ6L4D0Y4JAFE1UM6T9EPNR67M9","model","match","uniform","","","","","","","","509159.90000009537","511162.80000019073","","","","","","","","","","","","6","","stimuli/stars_6.png","276","","","","","stimuli/HM07_HO.jpg","",""
"explore-choice","179","509966","0.0-179.0","p530881","A1WJGO38GJ99ZS","3087LXLJ6NMH85PJ46SJUKP4Z1V0FD","3ERMJ6L4D0Y4JAFE1UM6T9EPNR67M9","model","match","uniform","","","","","","","1037.7000000476837","511164.60000014305","512202.30000019073","[""stimuli/WF06_HO.jpg"",""stimuli/HF04_CC.jpg"",""stimuli/WF11_DO.jpg"",""stimuli/HM07_FO.jpg""]","stimuli/WF06_HO.jpg","stimuli/HF04_CC.jpg","stimuli/WF11_DO.jpg","stimuli/HM07_FO.jpg","pos1","stimuli/WF06_HO.jpg","HO","WF06","0","4","8","6","stimuli/stars_8.png","280","[""HO"",""CC"",""DO"",""FO""]","[""WF06"",""HF04"",""WF11"",""HM07""]","[8,0,5,10]","[6,2,4,8]","","",""
"show-reward","180","511972","0.0-180.0","p530881","A1WJGO38GJ99ZS","3087LXLJ6NMH85PJ46SJUKP4Z1V0FD","3ERMJ6L4D0Y4JAFE1UM6T9EPNR67M9","model","match","uniform","","","","","","","","512705","514708.80000019073","","","","","","","","","","","","8","","stimuli/stars_8.png","280","","","","","stimuli/WF06_HO.jpg","",""
"explore-choice","181","513807","0.0-181.0","p530881","A1WJGO38GJ99ZS","3087LXLJ6NMH85PJ46SJUKP4Z1V0FD","3ERMJ6L4D0Y4JAFE1UM6T9EPNR67M9","model","match","uniform","","","","","","","1332.1000001430511","514710.5","516042.60000014305","[""stimuli/WF06_FO.jpg"",""stimuli/HF04_HO.jpg"",""stimuli/WF11_CC.jpg"",""stimuli/HM07_DO.jpg""]","stimuli/WF06_FO.jpg","stimuli/HF04_HO.jpg","stimuli/WF11_CC.jpg","stimuli/HM07_DO.jpg","pos1","stimuli/WF06_FO.jpg","FO","WF06","0","3","6","6","stimuli/stars_6.png","283","[""FO"",""HO"",""CC"",""DO""]","[""WF06"",""HF04"",""WF11"",""HM07""]","[6,2,3,6]","[6,2,4,8]","","",""
"show-reward","182","515812","0.0-182.0","p530881","A1WJGO38GJ99ZS","3087LXLJ6NMH85PJ46SJUKP4Z1V0FD","3ERMJ6L4D0Y4JAFE1UM6T9EPNR67M9","model","match","uniform","","","","","","","","516545.90000009537","518548.40000009537","","","","","","","","","","","","6","","stimuli/stars_6.png","283","","","","","stimuli/WF06_FO.jpg","",""
"explore-choice","183","517337","0.0-183.0","p530881","A1WJGO38GJ99ZS","3087LXLJ6NMH85PJ46SJUKP4Z1V0FD","3ERMJ6L4D0Y4JAFE1UM6T9EPNR67M9","model","match","uniform","","","","","","","1023.3999998569489","518550.60000014305","519574","[""stimuli/HF04_HO.jpg"",""stimuli/HM07_FO.jpg"",""stimuli/WF11_DO.jpg"",""stimuli/WF06_CC.jpg""]","stimuli/HF04_HO.jpg","stimuli/HM07_FO.jpg","stimuli/WF11_DO.jpg","stimuli/WF06_CC.jpg","pos2","stimuli/HM07_FO.jpg","FO","HM07","1","3","6","8","stimuli/stars_6.png","286","[""HO"",""FO"",""DO"",""CC""]","[""HF04"",""HM07"",""WF11"",""WF06""]","[3,6,4,4]","[2,8,4,6]","","",""
"show-reward","184","519342","0.0-184.0","p530881","A1WJGO38GJ99ZS","3087LXLJ6NMH85PJ46SJUKP4Z1V0FD","3ERMJ6L4D0Y4JAFE1UM6T9EPNR67M9","model","match","uniform","","","","","","","","520076.30000019073","522079.10000014305","","","","","","","","","","","","6","","stimuli/stars_6.png","286","","","","","stimuli/HM07_FO.jpg","",""
"explore-choice","185","521151","0.0-185.0","p530881","A1WJGO38GJ99ZS","3087LXLJ6NMH85PJ46SJUKP4Z1V0FD","3ERMJ6L4D0Y4JAFE1UM6T9EPNR67M9","model","match","uniform","","","","","","","1305.8999998569489","522080.80000019073","523386.7000000477","[""stimuli/WF06_FO.jpg"",""stimuli/WF11_HO.jpg"",""stimuli/HM07_CC.jpg"",""stimuli/HF04_DO.jpg""]","stimuli/WF06_FO.jpg","stimuli/WF11_HO.jpg","stimuli/HM07_CC.jpg","stimuli/HF04_DO.jpg","pos2","stimuli/WF11_HO.jpg","HO","WF11","1","1","2","4","stimuli/stars_2.png","287","[""FO"",""HO"",""CC"",""DO""]","[""WF06"",""WF11"",""HM07"",""HF04""]","[7,2,9,2]","[6,4,8,2]","","",""
"show-reward","186","523156","0.0-186.0","p530881","A1WJGO38GJ99ZS","3087LXLJ6NMH85PJ46SJUKP4Z1V0FD","3ERMJ6L4D0Y4JAFE1UM6T9EPNR67M9","model","match","uniform","","","","","","","","523889.90000009537","525893.100000143","","","","","","","","","","","","2","","stimuli/stars_2.png","287","","","","","stimuli/WF11_HO.jpg","",""
"explore-choice","187","530224","0.0-187.0","p530881","A1WJGO38GJ99ZS","3087LXLJ6NMH85PJ46SJUKP4Z1V0FD","3ERMJ6L4D0Y4JAFE1UM6T9EPNR67M9","model","match","uniform","","","","","","","6566.399999856949","525894.8000001907","532461.2000000477","[""stimuli/WF06_DO.jpg"",""stimuli/WF11_HO.jpg"",""stimuli/HM07_CC.jpg"",""stimuli/HF04_FO.jpg""]","stimuli/WF06_DO.jpg","stimuli/WF11_HO.jpg","stimuli/HM07_CC.jpg","stimuli/HF04_FO.jpg","pos2","stimuli/WF11_HO.jpg","HO","WF11","1","2","4","4","stimuli/stars_4.png","289","[""DO"",""HO"",""CC"",""FO""]","[""WF06"",""WF11"",""HM07"",""HF04""]","[6,4,10,1]","[6,4,8,2]","","",""
"show-reward","188","532229","0.0-188.0","p530881","A1WJGO38GJ99ZS","3087LXLJ6NMH85PJ46SJUKP4Z1V0FD","3ERMJ6L4D0Y4JAFE1UM6T9EPNR67M9","model","match","uniform","","","","","","","","532962.4000000954","534965","","","","","","","","","","","","4","","stimuli/stars_4.png","289","","","","","stimuli/WF11_HO.jpg","",""
"explore-choice","189","538208","0.0-189.0","p530881","A1WJGO38GJ99ZS","3087LXLJ6NMH85PJ46SJUKP4Z1V0FD","3ERMJ6L4D0Y4JAFE1UM6T9EPNR67M9","model","match","uniform","","","","","","","5477.700000047684","534967.100000143","540444.8000001907","[""stimuli/WF06_DO.jpg"",""stimuli/HM07_CC.jpg"",""stimuli/WF11_FO.jpg"",""stimuli/HF04_HO.jpg""]","stimuli/WF06_DO.jpg","stimuli/HM07_CC.jpg","stimuli/WF11_FO.jpg","stimuli/HF04_HO.jpg","pos4","stimuli/HF04_HO.jpg","HO","HF04","3","0","0","2","stimuli/stars_0.png","289","[""DO"",""CC"",""FO"",""HO""]","[""WF06"",""HM07"",""WF11"",""HF04""]","[6,8,6,0]","[6,8,4,2]","","",""
"show-reward","190","540215","0.0-190.0","p530881","A1WJGO38GJ99ZS","3087LXLJ6NMH85PJ46SJUKP4Z1V0FD","3ERMJ6L4D0Y4JAFE1UM6T9EPNR67M9","model","match","uniform","","","","","","","","540947.7000000477","542951.9000000954","","","","","","","","","","","","0","","stimuli/stars_0.png","289","","","","","stimuli/HF04_HO.jpg","",""
"explore-choice","191","542142","0.0-191.0","p530881","A1WJGO38GJ99ZS","3087LXLJ6NMH85PJ46SJUKP4Z1V0FD","3ERMJ6L4D0Y4JAFE1UM6T9EPNR67M9","model","match","uniform","","","","","","","1423.7000000476837","542953.600000143","544377.3000001907","[""stimuli/WF11_FO.jpg"",""stimuli/WF06_HO.jpg"",""stimuli/HM07_CC.jpg"",""stimuli/HF04_DO.jpg""]","stimuli/WF11_FO.jpg","stimuli/WF06_HO.jpg","stimuli/HM07_CC.jpg","stimuli/HF04_DO.jpg","pos2","stimuli/WF06_HO.jpg","HO","WF06","1","2.5","5","6","stimuli/stars_5.png","291.5","[""FO"",""HO"",""CC"",""DO""]","[""WF11"",""WF06"",""HM07"",""HF04""]","[2,5,10,0]","[4,6,8,2]","","",""
"show-reward","192","544149","0.0-192.0","p530881","A1WJGO38GJ99ZS","3087LXLJ6NMH85PJ46SJUKP4Z1V0FD","3ERMJ6L4D0Y4JAFE1UM6T9EPNR67M9","model","match","uniform","","","","","","","","544882.3000001907","546886.2000000477","","","","","","","","","","","","5","","stimuli/stars_5.png","291.5","","","","","stimuli/WF06_HO.jpg","",""
"explore-choice","193","547079","0.0-193.0","p530881","A1WJGO38GJ99ZS","3087LXLJ6NMH85PJ46SJUKP4Z1V0FD","3ERMJ6L4D0Y4JAFE1UM6T9EPNR67M9","model","match","uniform","","","","","","","2428.0999999046326","546887.9000000954","549316","[""stimuli/HM07_CC.jpg"",""stimuli/WF06_HO.jpg"",""stimuli/HF04_FO.jpg"",""stimuli/WF11_DO.jpg""]","stimuli/HM07_CC.jpg","stimuli/WF06_HO.jpg","stimuli/HF04_FO.jpg","stimuli/WF11_DO.jpg","pos2","stimuli/WF06_HO.jpg","HO","WF06","1","4","8","6","stimuli/stars_8.png","295.5","[""CC"",""HO"",""FO"",""DO""]","[""HM07"",""WF06"",""HF04"",""WF11""]","[9,8,3,2]","[8,6,2,4]","","",""
"show-reward","194","549085","0.0-194.0","p530881","A1WJGO38GJ99ZS","3087LXLJ6NMH85PJ46SJUKP4Z1V0FD","3ERMJ6L4D0Y4JAFE1UM6T9EPNR67M9","model","match","uniform","","","","","","","","549818.600000143","551822.3000001907","","","","","","","","","","","","8","","stimuli/stars_8.png","295.5","","","","","stimuli/WF06_HO.jpg","",""
"explore-choice","195","551447","0.0-195.0","p530881","A1WJGO38GJ99ZS","3087LXLJ6NMH85PJ46SJUKP4Z1V0FD","3ERMJ6L4D0Y4JAFE1UM6T9EPNR67M9","model","match","uniform","","","","","","","1859.2000000476837","551824","553683.2000000477","[""stimuli/HF04_HO.jpg"",""stimuli/WF11_FO.jpg"",""stimuli/WF06_CC.jpg"",""stimuli/HM07_DO.jpg""]","stimuli/HF04_HO.jpg","stimuli/WF11_FO.jpg","stimuli/WF06_CC.jpg","stimuli/HM07_DO.jpg","pos2","stimuli/WF11_FO.jpg","FO","WF11","1","2","4","4","stimuli/stars_4.png","297.5","[""HO"",""FO"",""CC"",""DO""]","[""HF04"",""WF11"",""WF06"",""HM07""]","[2,4,4,7]","[2,4,6,8]","","",""
"show-reward","196","553453","0.0-196.0","p530881","A1WJGO38GJ99ZS","3087LXLJ6NMH85PJ46SJUKP4Z1V0FD","3ERMJ6L4D0Y4JAFE1UM6T9EPNR67M9","model","match","uniform","","","","","","","","554186.100000143","556189.9000000954","","","","","","","","","","","","4","","stimuli/stars_4.png","297.5","","","","","stimuli/WF11_FO.jpg","",""
"explore-choice","197","555435","0.0-197.0","p530881","A1WJGO38GJ99ZS","3087LXLJ6NMH85PJ46SJUKP4Z1V0FD","3ERMJ6L4D0Y4JAFE1UM6T9EPNR67M9","model","match","uniform","","","","","","","1478.7999999523163","556191.2000000477","557670","[""stimuli/WF06_HO.jpg"",""stimuli/WF11_CC.jpg"",""stimuli/HF04_DO.jpg"",""stimuli/HM07_FO.jpg""]","stimuli/WF06_HO.jpg","stimuli/WF11_CC.jpg","stimuli/HF04_DO.jpg","stimuli/HM07_FO.jpg","pos1","stimuli/WF06_HO.jpg","HO","WF06","0","2.5","5","6","stimuli/stars_5.png","300","[""HO"",""CC"",""DO"",""FO""]","[""WF06"",""WF11"",""HF04"",""HM07""]","[5,2,0,6]","[6,4,2,8]","","",""
"show-reward","198","557439","0.0-198.0","p530881","A1WJGO38GJ99ZS","3087LXLJ6NMH85PJ46SJUKP4Z1V0FD","3ERMJ6L4D0Y4JAFE1UM6T9EPNR67M9","model","match","uniform","","","","","","","","558173.100000143","560176.5","","","","","","","","","","","","5","","stimuli/stars_5.png","300","","","","","stimuli/WF06_HO.jpg","",""
"instructions","199","562598","0.0-199.0","p530881","A1WJGO38GJ99ZS","3087LXLJ6NMH85PJ46SJUKP4Z1V0FD","3ERMJ6L4D0Y4JAFE1UM6T9EPNR67M9","model","match","uniform","","","","","","[{""page_index"":0,""viewing_time"":5157}]","5157.299999952316","","","","","","","","","","","","","","","","","","","","","","","",""
"survey-text","200","565819","0.0-200.0-0.0","p530881","A1WJGO38GJ99ZS","3087LXLJ6NMH85PJ46SJUKP4Z1V0FD","3ERMJ6L4D0Y4JAFE1UM6T9EPNR67M9","model","match","uniform","","","","","","","3214.0999999046326","","","","","","","","","","","","","","","","","","","","","","","{""age"":""31""}",""
"survey-text","201","570236","0.0-200.0-1.0","p530881","A1WJGO38GJ99ZS","3087LXLJ6NMH85PJ46SJUKP4Z1V0FD","3ERMJ6L4D0Y4JAFE1UM6T9EPNR67M9","model","match","uniform","","","","","","","4414.5","","","","","","","","","","","","","","","","","","","","","","","{""gender"":""31""}",""
"survey-text","202","576133","0.0-200.0-2.0","p530881","A1WJGO38GJ99ZS","3087LXLJ6NMH85PJ46SJUKP4Z1V0FD","3ERMJ6L4D0Y4JAFE1UM6T9EPNR67M9","model","match","uniform","","","","","","","5892.200000047684","","","","","","","","","","","","","","","","","","","","","","","{""country"":""usa""}",""
"survey-text","203","582315","0.0-200.0-3.0","p530881","A1WJGO38GJ99ZS","3087LXLJ6NMH85PJ46SJUKP4Z1V0FD","3ERMJ6L4D0Y4JAFE1UM6T9EPNR67M9","model","match","uniform","","","","","","","6179.099999904633","","","","","","","","","","","","","","","","","","","","","","","{""language"":""english"",""other_languages"":""""}",""
"survey-multi-select","204","584267","0.0-201.0","p530881","A1WJGO38GJ99ZS","3087LXLJ6NMH85PJ46SJUKP4Z1V0FD","3ERMJ6L4D0Y4JAFE1UM6T9EPNR67M9","model","match","uniform","","","","","","","1944.7999999523163","","","","","","","","","","","","","","","","","","","","","","","{""race"":[""Hispanic or Latino""]}","[0]"
"survey-multi-choice","205","586480","0.0-202.0","p530881","A1WJGO38GJ99ZS","3087LXLJ6NMH85PJ46SJUKP4Z1V0FD","3ERMJ6L4D0Y4JAFE1UM6T9EPNR67M9","model","match","uniform","","","","","","","2207.4000000953674","","","","","","","","","","","","","","","","","","","","","","","{""education"":""Some college/ university""}","[0]"
"survey-text","206","590256","0.0-203.0","p530881","A1WJGO38GJ99ZS","3087LXLJ6NMH85PJ46SJUKP4Z1V0FD","3ERMJ6L4D0Y4JAFE1UM6T9EPNR67M9","model","match","uniform","","","","","","","3771.4000000953674","","","","","","","","","","","","","","","","","","","","","","","{""patterns"":"""",""strategy"":"""",""comments"":""""}",""
