"trial_type","trial_index","time_elapsed","internal_node_id","subject","workerId","hitId","assignmentId","structure_condition","match_condition","noise_type","success","timeout","failed_images","failed_audio","failed_video","view_history","rt","start_time","end_time","stimuli","image1","image2","image3","image4","choiceLocation","choiceImage","choiceEmotion","choiceModel","choice_index","reward_score","reward","reward_score_unadjusted","reward_image","score_after_trial","emotions","models","rewards","rewards_unadjusted","stimulus","response","question_order"
"pavlovia","0","10","0.0-0.0","p819195","A3NRIEMOJVVX4A","3UUIU9GZC6BQMHTLWW3KSJ0W7IE5TB","3R9WASFE21MHXAT3Y2ACP3NF0J6ZFL","emotion","mismatch","uniform","","","","","","","","","","","","","","","","","","","","","","","","","","","","","","",""
"preload","1","43686","0.0-1.0","p819195","A3NRIEMOJVVX4A","3UUIU9GZC6BQMHTLWW3KSJ0W7IE5TB","3R9WASFE21MHXAT3Y2ACP3NF0J6ZFL","emotion","mismatch","uniform","true","false","[]","[]","[]","","","","","","","","","","","","","","","","","","","","","","","","","",""
"fullscreen","2","573797","0.0-2.0","p819195","A3NRIEMOJVVX4A","3UUIU9GZC6BQMHTLWW3KSJ0W7IE5TB","3R9WASFE21MHXAT3Y2ACP3NF0J6ZFL","emotion","mismatch","uniform","true","","","","","","","","","","","","","","","","","","","","","","","","","","","","","",""
"instructions","3","580361","0.0-3.0","p819195","A3NRIEMOJVVX4A","3UUIU9GZC6BQMHTLWW3KSJ0W7IE5TB","3R9WASFE21MHXAT3Y2ACP3NF0J6ZFL","emotion","mismatch","uniform","","","","","","[{""page_index"":0,""viewing_time"":6561.600000143051}]","6562.100000143051","","","","","","","","","","","","","","","","","","","","","","","",""
"explore-choice","4","583542","0.0-4.0","p819195","A3NRIEMOJVVX4A","3UUIU9GZC6BQMHTLWW3KSJ0W7IE5TB","3R9WASFE21MHXAT3Y2ACP3NF0J6ZFL","emotion","mismatch","uniform","","","","","","","2679.100000143051","583601.5999999046","586280.7000000477","[""stimuli/sheep.jpg"",""stimuli/hammer.jpg"",""stimuli/basketball.jpg"",""stimuli/horse.jpg""]","stimuli/sheep.jpg","stimuli/hammer.jpg","stimuli/basketball.jpg","stimuli/horse.jpg","pos4","stimuli/horse.jpg","","","3","64","64","64","stimuli/stars_8.png","65","","","","","","",""
"explore-choice","5","585405","0.0-5.0","p819195","A3NRIEMOJVVX4A","3UUIU9GZC6BQMHTLWW3KSJ0W7IE5TB","3R9WASFE21MHXAT3Y2ACP3NF0J6ZFL","emotion","mismatch","uniform","","","","","","","1361.5","586782.5999999046","588144.0999999046","[""stimuli/hammer.jpg"",""stimuli/basketball.jpg"",""stimuli/horse.jpg"",""stimuli/sheep.jpg""]","stimuli/hammer.jpg","stimuli/basketball.jpg","stimuli/horse.jpg","stimuli/sheep.jpg","pos1","stimuli/hammer.jpg","","","0","8","8","8","stimuli/stars_2.png","9","","","","","","",""
"instructions","6","596720","0.0-6.0","p819195","A3NRIEMOJVVX4A","3UUIU9GZC6BQMHTLWW3KSJ0W7IE5TB","3R9WASFE21MHXAT3Y2ACP3NF0J6ZFL","emotion","mismatch","uniform","","","","","","[{""page_index"":0,""viewing_time"":11314.599999904633}]","11314.799999952316","","","","","","","","","","","","","","","","","","","","","","","",""
"explore-choice","7","599301","0.0-7.0","p819195","A3NRIEMOJVVX4A","3UUIU9GZC6BQMHTLWW3KSJ0W7IE5TB","3R9WASFE21MHXAT3Y2ACP3NF0J6ZFL","emotion","mismatch","uniform","","","","","","","2054.9000000953674","599985.2999999523","602040.2000000477","[""stimuli/AF10_CC.jpg"",""stimuli/HM10_HE.jpg"",""stimuli/BF04_AO.jpg"",""stimuli/WM09_HO.jpg""]","stimuli/AF10_CC.jpg","stimuli/HM10_HE.jpg","stimuli/BF04_AO.jpg","stimuli/WM09_HO.jpg","pos2","stimuli/HM10_HE.jpg","HE","HM10","1","0","0","2","stimuli/stars_0.png","1","[""CC"",""HE"",""AO"",""HO""]","[""AF10"",""HM10"",""BF04"",""WM09""]","[7,0,6,8]","[8,2,4,6]","","",""
"show-reward","8","601310","0.0-8.0","p819195","A3NRIEMOJVVX4A","3UUIU9GZC6BQMHTLWW3KSJ0W7IE5TB","3R9WASFE21MHXAT3Y2ACP3NF0J6ZFL","emotion","mismatch","uniform","","","","","","","","602545.4000000954","604549.5","","","","","","","","","","","","0","","stimuli/stars_0.png","1","","","","","stimuli/HM10_HE.jpg","",""
"explore-choice","9","603285","0.0-9.0","p819195","A3NRIEMOJVVX4A","3UUIU9GZC6BQMHTLWW3KSJ0W7IE5TB","3R9WASFE21MHXAT3Y2ACP3NF0J6ZFL","emotion","mismatch","uniform","","","","","","","1472.4000000953674","604552","606024.4000000954","[""stimuli/WM09_HE.jpg"",""stimuli/AF10_CC.jpg"",""stimuli/BF04_AO.jpg"",""stimuli/HM10_HO.jpg""]","stimuli/WM09_HE.jpg","stimuli/AF10_CC.jpg","stimuli/BF04_AO.jpg","stimuli/HM10_HO.jpg","pos3","stimuli/BF04_AO.jpg","AO","BF04","2","3","6","4","stimuli/stars_6.png","4","[""HE"",""CC"",""AO"",""HO""]","[""WM09"",""AF10"",""BF04"",""HM10""]","[1,9,6,6]","[2,8,4,6]","","",""
"show-reward","10","605300","0.0-10.0","p819195","A3NRIEMOJVVX4A","3UUIU9GZC6BQMHTLWW3KSJ0W7IE5TB","3R9WASFE21MHXAT3Y2ACP3NF0J6ZFL","emotion","mismatch","uniform","","","","","","","","606526.7999999523","608539.4000000954","","","","","","","","","","","","6","","stimuli/stars_6.png","4","","","","","stimuli/BF04_AO.jpg","",""
"explore-choice","11","607377","0.0-11.0","p819195","A3NRIEMOJVVX4A","3UUIU9GZC6BQMHTLWW3KSJ0W7IE5TB","3R9WASFE21MHXAT3Y2ACP3NF0J6ZFL","emotion","mismatch","uniform","","","","","","","1570.5","608541.7000000477","610112.2000000477","[""stimuli/HM10_HO.jpg"",""stimuli/BF04_CC.jpg"",""stimuli/AF10_HE.jpg"",""stimuli/WM09_AO.jpg""]","stimuli/HM10_HO.jpg","stimuli/BF04_CC.jpg","stimuli/AF10_HE.jpg","stimuli/WM09_AO.jpg","pos4","stimuli/WM09_AO.jpg","AO","WM09","3","1","2","4","stimuli/stars_2.png","5","[""HO"",""CC"",""HE"",""AO""]","[""HM10"",""BF04"",""AF10"",""WM09""]","[4,6,3,2]","[6,8,2,4]","","",""
"show-reward","12","609382","0.0-12.0","p819195","A3NRIEMOJVVX4A","3UUIU9GZC6BQMHTLWW3KSJ0W7IE5TB","3R9WASFE21MHXAT3Y2ACP3NF0J6ZFL","emotion","mismatch","uniform","","","","","","","","610618.7000000477","612621.7999999523","","","","","","","","","","","","2","","stimuli/stars_2.png","5","","","","","stimuli/WM09_AO.jpg","",""
"explore-choice","13","616229","0.0-13.0","p819195","A3NRIEMOJVVX4A","3UUIU9GZC6BQMHTLWW3KSJ0W7IE5TB","3R9WASFE21MHXAT3Y2ACP3NF0J6ZFL","emotion","mismatch","uniform","","","","","","","6344.400000095367","612623.7999999523","618968.2000000477","[""stimuli/AF10_HO.jpg"",""stimuli/WM09_CC.jpg"",""stimuli/HM10_AO.jpg"",""stimuli/BF04_HE.jpg""]","stimuli/AF10_HO.jpg","stimuli/WM09_CC.jpg","stimuli/HM10_AO.jpg","stimuli/BF04_HE.jpg","pos3","stimuli/HM10_AO.jpg","AO","HM10","2","1.5","3","4","stimuli/stars_3.png","6.5","[""HO"",""CC"",""AO"",""HE""]","[""AF10"",""WM09"",""HM10"",""BF04""]","[7,10,3,4]","[6,8,4,2]","","",""
"show-reward","14","618249","0.0-14.0","p819195","A3NRIEMOJVVX4A","3UUIU9GZC6BQMHTLWW3KSJ0W7IE5TB","3R9WASFE21MHXAT3Y2ACP3NF0J6ZFL","emotion","mismatch","uniform","","","","","","","","619471.5","621488","","","","","","","","","","","","3","","stimuli/stars_3.png","6.5","","","","","stimuli/HM10_AO.jpg","",""
"explore-choice","15","620165","0.0-15.0","p819195","A3NRIEMOJVVX4A","3UUIU9GZC6BQMHTLWW3KSJ0W7IE5TB","3R9WASFE21MHXAT3Y2ACP3NF0J6ZFL","emotion","mismatch","uniform","","","","","","","1413.0999999046326","621491.2000000477","622904.2999999523","[""stimuli/BF04_HE.jpg"",""stimuli/HM10_HO.jpg"",""stimuli/AF10_CC.jpg"",""stimuli/WM09_AO.jpg""]","stimuli/BF04_HE.jpg","stimuli/HM10_HO.jpg","stimuli/AF10_CC.jpg","stimuli/WM09_AO.jpg","pos4","stimuli/WM09_AO.jpg","AO","WM09","3","2.5","5","4","stimuli/stars_5.png","9","[""HE"",""HO"",""CC"",""AO""]","[""BF04"",""HM10"",""AF10"",""WM09""]","[4,8,10,5]","[2,6,8,4]","","",""
"show-reward","16","622182","0.0-16.0","p819195","A3NRIEMOJVVX4A","3UUIU9GZC6BQMHTLWW3KSJ0W7IE5TB","3R9WASFE21MHXAT3Y2ACP3NF0J6ZFL","emotion","mismatch","uniform","","","","","","","","623406.2999999523","625421.7000000477","","","","","","","","","","","","5","","stimuli/stars_5.png","9","","","","","stimuli/WM09_AO.jpg","",""
"explore-choice","17","623987","0.0-17.0","p819195","A3NRIEMOJVVX4A","3UUIU9GZC6BQMHTLWW3KSJ0W7IE5TB","3R9WASFE21MHXAT3Y2ACP3NF0J6ZFL","emotion","mismatch","uniform","","","","","","","1296.5","625423.7000000477","626720.2000000477","[""stimuli/BF04_HE.jpg"",""stimuli/WM09_AO.jpg"",""stimuli/HM10_CC.jpg"",""stimuli/AF10_HO.jpg""]","stimuli/BF04_HE.jpg","stimuli/WM09_AO.jpg","stimuli/HM10_CC.jpg","stimuli/AF10_HO.jpg","pos2","stimuli/WM09_AO.jpg","AO","WM09","1","2","4","4","stimuli/stars_4.png","11","[""HE"",""AO"",""CC"",""HO""]","[""BF04"",""WM09"",""HM10"",""AF10""]","[3,4,8,8]","[2,4,8,6]","","",""
"show-reward","18","625994","0.0-18.0","p819195","A3NRIEMOJVVX4A","3UUIU9GZC6BQMHTLWW3KSJ0W7IE5TB","3R9WASFE21MHXAT3Y2ACP3NF0J6ZFL","emotion","mismatch","uniform","","","","","","","","627228.7999999523","629234.2000000477","","","","","","","","","","","","4","","stimuli/stars_4.png","11","","","","","stimuli/WM09_AO.jpg","",""
"explore-choice","19","628672","0.0-19.0","p819195","A3NRIEMOJVVX4A","3UUIU9GZC6BQMHTLWW3KSJ0W7IE5TB","3R9WASFE21MHXAT3Y2ACP3NF0J6ZFL","emotion","mismatch","uniform","","","","","","","2172.300000190735","629236.0999999046","631408.4000000954","[""stimuli/BF04_AO.jpg"",""stimuli/HM10_HO.jpg"",""stimuli/WM09_CC.jpg"",""stimuli/AF10_HE.jpg""]","stimuli/BF04_AO.jpg","stimuli/HM10_HO.jpg","stimuli/WM09_CC.jpg","stimuli/AF10_HE.jpg","pos1","stimuli/BF04_AO.jpg","AO","BF04","0","1","2","4","stimuli/stars_2.png","12","[""AO"",""HO"",""CC"",""HE""]","[""BF04"",""HM10"",""WM09"",""AF10""]","[2,7,7,4]","[4,6,8,2]","","",""
"show-reward","20","630682","0.0-20.0","p819195","A3NRIEMOJVVX4A","3UUIU9GZC6BQMHTLWW3KSJ0W7IE5TB","3R9WASFE21MHXAT3Y2ACP3NF0J6ZFL","emotion","mismatch","uniform","","","","","","","","631912.7999999523","633921.7000000477","","","","","","","","","","","","2","","stimuli/stars_2.png","12","","","","","stimuli/BF04_AO.jpg","",""
"explore-choice","21","632517","0.0-21.0","p819195","A3NRIEMOJVVX4A","3UUIU9GZC6BQMHTLWW3KSJ0W7IE5TB","3R9WASFE21MHXAT3Y2ACP3NF0J6ZFL","emotion","mismatch","uniform","","","","","","","1331.9000000953674","633924.2999999523","635256.2000000477","[""stimuli/AF10_HO.jpg"",""stimuli/HM10_HE.jpg"",""stimuli/WM09_AO.jpg"",""stimuli/BF04_CC.jpg""]","stimuli/AF10_HO.jpg","stimuli/HM10_HE.jpg","stimuli/WM09_AO.jpg","stimuli/BF04_CC.jpg","pos3","stimuli/WM09_AO.jpg","AO","WM09","2","2","4","4","stimuli/stars_4.png","14","[""HO"",""HE"",""AO"",""CC""]","[""AF10"",""HM10"",""WM09"",""BF04""]","[7,2,4,6]","[6,2,4,8]","","",""
"show-reward","22","634522","0.0-22.0","p819195","A3NRIEMOJVVX4A","3UUIU9GZC6BQMHTLWW3KSJ0W7IE5TB","3R9WASFE21MHXAT3Y2ACP3NF0J6ZFL","emotion","mismatch","uniform","","","","","","","","635758.4000000954","637762.0999999046","","","","","","","","","","","","4","","stimuli/stars_4.png","14","","","","","stimuli/WM09_AO.jpg","",""
"explore-choice","23","636689","0.0-23.0","p819195","A3NRIEMOJVVX4A","3UUIU9GZC6BQMHTLWW3KSJ0W7IE5TB","3R9WASFE21MHXAT3Y2ACP3NF0J6ZFL","emotion","mismatch","uniform","","","","","","","1660.1000001430511","637764.0999999046","639424.2000000477","[""stimuli/HM10_CC.jpg"",""stimuli/BF04_HE.jpg"",""stimuli/AF10_AO.jpg"",""stimuli/WM09_HO.jpg""]","stimuli/HM10_CC.jpg","stimuli/BF04_HE.jpg","stimuli/AF10_AO.jpg","stimuli/WM09_HO.jpg","pos3","stimuli/AF10_AO.jpg","AO","AF10","2","2.5","5","4","stimuli/stars_5.png","16.5","[""CC"",""HE"",""AO"",""HO""]","[""HM10"",""BF04"",""AF10"",""WM09""]","[8,2,5,4]","[8,2,4,6]","","",""
"show-reward","24","638694","0.0-24.0","p819195","A3NRIEMOJVVX4A","3UUIU9GZC6BQMHTLWW3KSJ0W7IE5TB","3R9WASFE21MHXAT3Y2ACP3NF0J6ZFL","emotion","mismatch","uniform","","","","","","","","639931","641934.4000000954","","","","","","","","","","","","5","","stimuli/stars_5.png","16.5","","","","","stimuli/AF10_AO.jpg","",""
"explore-choice","25","641496","0.0-25.0","p819195","A3NRIEMOJVVX4A","3UUIU9GZC6BQMHTLWW3KSJ0W7IE5TB","3R9WASFE21MHXAT3Y2ACP3NF0J6ZFL","emotion","mismatch","uniform","","","","","","","2296.0999999046326","641936.2000000477","644232.2999999523","[""stimuli/HM10_HE.jpg"",""stimuli/WM09_HO.jpg"",""stimuli/AF10_AO.jpg"",""stimuli/BF04_CC.jpg""]","stimuli/HM10_HE.jpg","stimuli/WM09_HO.jpg","stimuli/AF10_AO.jpg","stimuli/BF04_CC.jpg","pos3","stimuli/AF10_AO.jpg","AO","AF10","2","2.5","5","4","stimuli/stars_5.png","19","[""HE"",""HO"",""AO"",""CC""]","[""HM10"",""WM09"",""AF10"",""BF04""]","[0,4,5,6]","[2,6,4,8]","","",""
"show-reward","26","643508","0.0-26.0","p819195","A3NRIEMOJVVX4A","3UUIU9GZC6BQMHTLWW3KSJ0W7IE5TB","3R9WASFE21MHXAT3Y2ACP3NF0J6ZFL","emotion","mismatch","uniform","","","","","","","","644738.0999999046","646748.0999999046","","","","","","","","","","","","5","","stimuli/stars_5.png","19","","","","","stimuli/AF10_AO.jpg","",""
"explore-choice","27","645252","0.0-27.0","p819195","A3NRIEMOJVVX4A","3UUIU9GZC6BQMHTLWW3KSJ0W7IE5TB","3R9WASFE21MHXAT3Y2ACP3NF0J6ZFL","emotion","mismatch","uniform","","","","","","","1226.2999999523163","646749.9000000954","647976.2000000477","[""stimuli/HM10_HO.jpg"",""stimuli/BF04_HE.jpg"",""stimuli/AF10_AO.jpg"",""stimuli/WM09_CC.jpg""]","stimuli/HM10_HO.jpg","stimuli/BF04_HE.jpg","stimuli/AF10_AO.jpg","stimuli/WM09_CC.jpg","pos3","stimuli/AF10_AO.jpg","AO","AF10","2","3","6","4","stimuli/stars_6.png","22","[""HO"",""HE"",""AO"",""CC""]","[""HM10"",""BF04"",""AF10"",""WM09""]","[7,3,6,10]","[6,2,4,8]","","",""
"show-reward","28","647272","0.0-28.0","p819195","A3NRIEMOJVVX4A","3UUIU9GZC6BQMHTLWW3KSJ0W7IE5TB","3R9WASFE21MHXAT3Y2ACP3NF0J6ZFL","emotion","mismatch","uniform","","","","","","","","648493.2000000477","650512","","","","","","","","","","","","6","","stimuli/stars_6.png","22","","","","","stimuli/AF10_AO.jpg","",""
"explore-choice","29","649100","0.0-29.0","p819195","A3NRIEMOJVVX4A","3UUIU9GZC6BQMHTLWW3KSJ0W7IE5TB","3R9WASFE21MHXAT3Y2ACP3NF0J6ZFL","emotion","mismatch","uniform","","","","","","","1326.1000001430511","650513.7999999523","651839.9000000954","[""stimuli/BF04_HO.jpg"",""stimuli/AF10_CC.jpg"",""stimuli/WM09_HE.jpg"",""stimuli/HM10_AO.jpg""]","stimuli/BF04_HO.jpg","stimuli/AF10_CC.jpg","stimuli/WM09_HE.jpg","stimuli/HM10_AO.jpg","pos4","stimuli/HM10_AO.jpg","AO","HM10","3","1","2","4","stimuli/stars_2.png","23","[""HO"",""CC"",""HE"",""AO""]","[""BF04"",""AF10"",""WM09"",""HM10""]","[4,10,1,2]","[6,8,2,4]","","",""
"show-reward","30","651121","0.0-30.0","p819195","A3NRIEMOJVVX4A","3UUIU9GZC6BQMHTLWW3KSJ0W7IE5TB","3R9WASFE21MHXAT3Y2ACP3NF0J6ZFL","emotion","mismatch","uniform","","","","","","","","652342","654361.5","","","","","","","","","","","","2","","stimuli/stars_2.png","23","","","","","stimuli/HM10_AO.jpg","",""
"explore-choice","31","652821","0.0-31.0","p819195","A3NRIEMOJVVX4A","3UUIU9GZC6BQMHTLWW3KSJ0W7IE5TB","3R9WASFE21MHXAT3Y2ACP3NF0J6ZFL","emotion","mismatch","uniform","","","","","","","1197.5","654362.7000000477","655560.2000000477","[""stimuli/BF04_AO.jpg"",""stimuli/HM10_HE.jpg"",""stimuli/WM09_CC.jpg"",""stimuli/AF10_HO.jpg""]","stimuli/BF04_AO.jpg","stimuli/HM10_HE.jpg","stimuli/WM09_CC.jpg","stimuli/AF10_HO.jpg","pos1","stimuli/BF04_AO.jpg","AO","BF04","0","1","2","4","stimuli/stars_2.png","24","[""AO"",""HE"",""CC"",""HO""]","[""BF04"",""HM10"",""WM09"",""AF10""]","[2,4,10,4]","[4,2,8,6]","","",""
"show-reward","32","654836","0.0-32.0","p819195","A3NRIEMOJVVX4A","3UUIU9GZC6BQMHTLWW3KSJ0W7IE5TB","3R9WASFE21MHXAT3Y2ACP3NF0J6ZFL","emotion","mismatch","uniform","","","","","","","","656062.4000000954","658075.2999999523","","","","","","","","","","","","2","","stimuli/stars_2.png","24","","","","","stimuli/BF04_AO.jpg","",""
"explore-choice","33","657190","0.0-33.0","p819195","A3NRIEMOJVVX4A","3UUIU9GZC6BQMHTLWW3KSJ0W7IE5TB","3R9WASFE21MHXAT3Y2ACP3NF0J6ZFL","emotion","mismatch","uniform","","","","","","","1850.7999999523163","658077.7000000477","659928.5","[""stimuli/BF04_HO.jpg"",""stimuli/AF10_AO.jpg"",""stimuli/WM09_CC.jpg"",""stimuli/HM10_HE.jpg""]","stimuli/BF04_HO.jpg","stimuli/AF10_AO.jpg","stimuli/WM09_CC.jpg","stimuli/HM10_HE.jpg","pos3","stimuli/WM09_CC.jpg","CC","WM09","2","5","10","8","stimuli/stars_10.png","29","[""HO"",""AO"",""CC"",""HE""]","[""BF04"",""AF10"",""WM09"",""HM10""]","[5,6,10,3]","[6,4,8,2]","","",""
"show-reward","34","659194","0.0-34.0","p819195","A3NRIEMOJVVX4A","3UUIU9GZC6BQMHTLWW3KSJ0W7IE5TB","3R9WASFE21MHXAT3Y2ACP3NF0J6ZFL","emotion","mismatch","uniform","","","","","","","","660430.4000000954","662432.7999999523","","","","","","","","","","","","10","","stimuli/stars_10.png","29","","","","","stimuli/WM09_CC.jpg","",""
"explore-choice","35","661068","0.0-35.0","p819195","A3NRIEMOJVVX4A","3UUIU9GZC6BQMHTLWW3KSJ0W7IE5TB","3R9WASFE21MHXAT3Y2ACP3NF0J6ZFL","emotion","mismatch","uniform","","","","","","","1372.4000000953674","662434","663806.4000000954","[""stimuli/AF10_HO.jpg"",""stimuli/HM10_CC.jpg"",""stimuli/WM09_HE.jpg"",""stimuli/BF04_AO.jpg""]","stimuli/AF10_HO.jpg","stimuli/HM10_CC.jpg","stimuli/WM09_HE.jpg","stimuli/BF04_AO.jpg","pos2","stimuli/HM10_CC.jpg","CC","HM10","1","4","8","8","stimuli/stars_8.png","33","[""HO"",""CC"",""HE"",""AO""]","[""AF10"",""HM10"",""WM09"",""BF04""]","[5,8,2,5]","[6,8,2,4]","","",""
"show-reward","36","663080","0.0-36.0","p819195","A3NRIEMOJVVX4A","3UUIU9GZC6BQMHTLWW3KSJ0W7IE5TB","3R9WASFE21MHXAT3Y2ACP3NF0J6ZFL","emotion","mismatch","uniform","","","","","","","","664308","666319.5","","","","","","","","","","","","8","","stimuli/stars_8.png","33","","","","","stimuli/HM10_CC.jpg","",""
"explore-choice","37","665173","0.0-37.0","p819195","A3NRIEMOJVVX4A","3UUIU9GZC6BQMHTLWW3KSJ0W7IE5TB","3R9WASFE21MHXAT3Y2ACP3NF0J6ZFL","emotion","mismatch","uniform","","","","","","","1590.7000000476837","666321.2999999523","667912","[""stimuli/BF04_HO.jpg"",""stimuli/WM09_AO.jpg"",""stimuli/HM10_HE.jpg"",""stimuli/AF10_CC.jpg""]","stimuli/BF04_HO.jpg","stimuli/WM09_AO.jpg","stimuli/HM10_HE.jpg","stimuli/AF10_CC.jpg","pos3","stimuli/HM10_HE.jpg","HE","HM10","2","0.5","1","2","stimuli/stars_1.png","33.5","[""HO"",""AO"",""HE"",""CC""]","[""BF04"",""WM09"",""HM10"",""AF10""]","[7,3,1,7]","[6,4,2,8]","","",""
"show-reward","38","667180","0.0-38.0","p819195","A3NRIEMOJVVX4A","3UUIU9GZC6BQMHTLWW3KSJ0W7IE5TB","3R9WASFE21MHXAT3Y2ACP3NF0J6ZFL","emotion","mismatch","uniform","","","","","","","","668414.2999999523","670419.2000000477","","","","","","","","","","","","1","","stimuli/stars_1.png","33.5","","","","","stimuli/HM10_HE.jpg","",""
"explore-choice","39","669128","0.0-39.0","p819195","A3NRIEMOJVVX4A","3UUIU9GZC6BQMHTLWW3KSJ0W7IE5TB","3R9WASFE21MHXAT3Y2ACP3NF0J6ZFL","emotion","mismatch","uniform","","","","","","","1435.8999998569489","670420.2000000477","671856.0999999046","[""stimuli/HM10_AO.jpg"",""stimuli/AF10_CC.jpg"",""stimuli/WM09_HO.jpg"",""stimuli/BF04_HE.jpg""]","stimuli/HM10_AO.jpg","stimuli/AF10_CC.jpg","stimuli/WM09_HO.jpg","stimuli/BF04_HE.jpg","pos2","stimuli/AF10_CC.jpg","CC","AF10","1","4","8","8","stimuli/stars_8.png","37.5","[""AO"",""CC"",""HO"",""HE""]","[""HM10"",""AF10"",""WM09"",""BF04""]","[6,8,4,1]","[4,8,6,2]","","",""
"show-reward","40","671143","0.0-40.0","p819195","A3NRIEMOJVVX4A","3UUIU9GZC6BQMHTLWW3KSJ0W7IE5TB","3R9WASFE21MHXAT3Y2ACP3NF0J6ZFL","emotion","mismatch","uniform","","","","","","","","672368.7000000477","674382.5999999046","","","","","","","","","","","","8","","stimuli/stars_8.png","37.5","","","","","stimuli/AF10_CC.jpg","",""
"explore-choice","41","672791","0.0-41.0","p819195","A3NRIEMOJVVX4A","3UUIU9GZC6BQMHTLWW3KSJ0W7IE5TB","3R9WASFE21MHXAT3Y2ACP3NF0J6ZFL","emotion","mismatch","uniform","","","","","","","1144","674384.2000000477","675528.2000000477","[""stimuli/HM10_AO.jpg"",""stimuli/AF10_HO.jpg"",""stimuli/BF04_CC.jpg"",""stimuli/WM09_HE.jpg""]","stimuli/HM10_AO.jpg","stimuli/AF10_HO.jpg","stimuli/BF04_CC.jpg","stimuli/WM09_HE.jpg","pos3","stimuli/BF04_CC.jpg","CC","BF04","2","3","6","8","stimuli/stars_6.png","40.5","[""AO"",""HO"",""CC"",""HE""]","[""HM10"",""AF10"",""BF04"",""WM09""]","[4,8,6,3]","[4,6,8,2]","","",""
"show-reward","42","674810","0.0-42.0","p819195","A3NRIEMOJVVX4A","3UUIU9GZC6BQMHTLWW3KSJ0W7IE5TB","3R9WASFE21MHXAT3Y2ACP3NF0J6ZFL","emotion","mismatch","uniform","","","","","","","","676032.5999999046","678049.2999999523","","","","","","","","","","","","6","","stimuli/stars_6.png","40.5","","","","","stimuli/BF04_CC.jpg","",""
"explore-choice","43","677070","0.0-43.0","p819195","A3NRIEMOJVVX4A","3UUIU9GZC6BQMHTLWW3KSJ0W7IE5TB","3R9WASFE21MHXAT3Y2ACP3NF0J6ZFL","emotion","mismatch","uniform","","","","","","","1758.0999999046326","678050.2000000477","679808.2999999523","[""stimuli/AF10_AO.jpg"",""stimuli/HM10_HO.jpg"",""stimuli/WM09_HE.jpg"",""stimuli/BF04_CC.jpg""]","stimuli/AF10_AO.jpg","stimuli/HM10_HO.jpg","stimuli/WM09_HE.jpg","stimuli/BF04_CC.jpg","pos4","stimuli/BF04_CC.jpg","CC","BF04","3","4.5","9","8","stimuli/stars_9.png","45","[""AO"",""HO"",""HE"",""CC""]","[""AF10"",""HM10"",""WM09"",""BF04""]","[2,6,4,9]","[4,6,2,8]","","",""
"show-reward","44","679078","0.0-44.0","p819195","A3NRIEMOJVVX4A","3UUIU9GZC6BQMHTLWW3KSJ0W7IE5TB","3R9WASFE21MHXAT3Y2ACP3NF0J6ZFL","emotion","mismatch","uniform","","","","","","","","680311.4000000954","682317.2999999523","","","","","","","","","","","","9","","stimuli/stars_9.png","45","","","","","stimuli/BF04_CC.jpg","",""
"explore-choice","45","681381","0.0-45.0","p819195","A3NRIEMOJVVX4A","3UUIU9GZC6BQMHTLWW3KSJ0W7IE5TB","3R9WASFE21MHXAT3Y2ACP3NF0J6ZFL","emotion","mismatch","uniform","","","","","","","1801.0999999046326","682319.2000000477","684120.2999999523","[""stimuli/AF10_HE.jpg"",""stimuli/HM10_CC.jpg"",""stimuli/WM09_AO.jpg"",""stimuli/BF04_HO.jpg""]","stimuli/AF10_HE.jpg","stimuli/HM10_CC.jpg","stimuli/WM09_AO.jpg","stimuli/BF04_HO.jpg","pos2","stimuli/HM10_CC.jpg","CC","HM10","1","5","10","8","stimuli/stars_10.png","50","[""HE"",""CC"",""AO"",""HO""]","[""AF10"",""HM10"",""WM09"",""BF04""]","[4,10,4,6]","[2,8,4,6]","","",""
"show-reward","46","683388","0.0-46.0","p819195","A3NRIEMOJVVX4A","3UUIU9GZC6BQMHTLWW3KSJ0W7IE5TB","3R9WASFE21MHXAT3Y2ACP3NF0J6ZFL","emotion","mismatch","uniform","","","","","","","","684622","686627.5","","","","","","","","","","","","10","","stimuli/stars_10.png","50","","","","","stimuli/HM10_CC.jpg","",""
"explore-choice","47","684826","0.0-47.0","p819195","A3NRIEMOJVVX4A","3UUIU9GZC6BQMHTLWW3KSJ0W7IE5TB","3R9WASFE21MHXAT3Y2ACP3NF0J6ZFL","emotion","mismatch","uniform","","","","","","","923.1000001430511","686629.0999999046","687552.2000000477","[""stimuli/HM10_CC.jpg"",""stimuli/WM09_HO.jpg"",""stimuli/BF04_AO.jpg"",""stimuli/AF10_HE.jpg""]","stimuli/HM10_CC.jpg","stimuli/WM09_HO.jpg","stimuli/BF04_AO.jpg","stimuli/AF10_HE.jpg","pos1","stimuli/HM10_CC.jpg","CC","HM10","0","4","8","8","stimuli/stars_8.png","54","[""CC"",""HO"",""AO"",""HE""]","[""HM10"",""WM09"",""BF04"",""AF10""]","[8,8,2,2]","[8,6,4,2]","","",""
"show-reward","48","686835","0.0-48.0","p819195","A3NRIEMOJVVX4A","3UUIU9GZC6BQMHTLWW3KSJ0W7IE5TB","3R9WASFE21MHXAT3Y2ACP3NF0J6ZFL","emotion","mismatch","uniform","","","","","","","","688067.2000000477","690074.2000000477","","","","","","","","","","","","8","","stimuli/stars_8.png","54","","","","","stimuli/HM10_CC.jpg","",""
"explore-choice","49","690303","0.0-49.0","p819195","A3NRIEMOJVVX4A","3UUIU9GZC6BQMHTLWW3KSJ0W7IE5TB","3R9WASFE21MHXAT3Y2ACP3NF0J6ZFL","emotion","mismatch","uniform","","","","","","","2963.2999999523163","690077","693040.2999999523","[""stimuli/AF10_HE.jpg"",""stimuli/HM10_AO.jpg"",""stimuli/WM09_HO.jpg"",""stimuli/BF04_CC.jpg""]","stimuli/AF10_HE.jpg","stimuli/HM10_AO.jpg","stimuli/WM09_HO.jpg","stimuli/BF04_CC.jpg","pos4","stimuli/BF04_CC.jpg","CC","BF04","3","4","8","8","stimuli/stars_8.png","58","[""HE"",""AO"",""HO"",""CC""]","[""AF10"",""HM10"",""WM09"",""BF04""]","[4,2,6,8]","[2,4,6,8]","","",""
"show-reward","50","692420","0.0-50.0","p819195","A3NRIEMOJVVX4A","3UUIU9GZC6BQMHTLWW3KSJ0W7IE5TB","3R9WASFE21MHXAT3Y2ACP3NF0J6ZFL","emotion","mismatch","uniform","","","","","","","","693544.7000000477","695659","","","","","","","","","","","","8","","stimuli/stars_8.png","58","","","","","stimuli/BF04_CC.jpg","",""
"explore-choice","51","695485","0.0-51.0","p819195","A3NRIEMOJVVX4A","3UUIU9GZC6BQMHTLWW3KSJ0W7IE5TB","3R9WASFE21MHXAT3Y2ACP3NF0J6ZFL","emotion","mismatch","uniform","","","","","","","2563.4000000953674","695660.7999999523","698224.2000000477","[""stimuli/HM10_AO.jpg"",""stimuli/WM09_CC.jpg"",""stimuli/AF10_HE.jpg"",""stimuli/BF04_HO.jpg""]","stimuli/HM10_AO.jpg","stimuli/WM09_CC.jpg","stimuli/AF10_HE.jpg","stimuli/BF04_HO.jpg","pos2","stimuli/WM09_CC.jpg","CC","WM09","1","4.5","9","8","stimuli/stars_9.png","62.5","[""AO"",""CC"",""HE"",""HO""]","[""HM10"",""WM09"",""AF10"",""BF04""]","[3,9,2,5]","[4,8,2,6]","","",""
"show-reward","52","697508","0.0-52.0","p819195","A3NRIEMOJVVX4A","3UUIU9GZC6BQMHTLWW3KSJ0W7IE5TB","3R9WASFE21MHXAT3Y2ACP3NF0J6ZFL","emotion","mismatch","uniform","","","","","","","","698725.7000000477","700747.2999999523","","","","","","","","","","","","9","","stimuli/stars_9.png","62.5","","","","","stimuli/WM09_CC.jpg","",""
"explore-choice","53","700046","0.0-53.0","p819195","A3NRIEMOJVVX4A","3UUIU9GZC6BQMHTLWW3KSJ0W7IE5TB","3R9WASFE21MHXAT3Y2ACP3NF0J6ZFL","emotion","mismatch","uniform","","","","","","","2035.2999999523163","700749.2000000477","702784.5","[""stimuli/WM09_HE.jpg"",""stimuli/BF04_HO.jpg"",""stimuli/HM10_CC.jpg"",""stimuli/AF10_AO.jpg""]","stimuli/WM09_HE.jpg","stimuli/BF04_HO.jpg","stimuli/HM10_CC.jpg","stimuli/AF10_AO.jpg","pos3","stimuli/HM10_CC.jpg","CC","HM10","2","5","10","8","stimuli/stars_10.png","67.5","[""HE"",""HO"",""CC"",""AO""]","[""WM09"",""BF04"",""HM10"",""AF10""]","[2,7,10,6]","[2,6,8,4]","","",""
"show-reward","54","702054","0.0-54.0","p819195","A3NRIEMOJVVX4A","3UUIU9GZC6BQMHTLWW3KSJ0W7IE5TB","3R9WASFE21MHXAT3Y2ACP3NF0J6ZFL","emotion","mismatch","uniform","","","","","","","","703287.0999999046","705293.0999999046","","","","","","","","","","","","10","","stimuli/stars_10.png","67.5","","","","","stimuli/HM10_CC.jpg","",""
"explore-choice","55","707261","0.0-55.0","p819195","A3NRIEMOJVVX4A","3UUIU9GZC6BQMHTLWW3KSJ0W7IE5TB","3R9WASFE21MHXAT3Y2ACP3NF0J6ZFL","emotion","mismatch","uniform","","","","","","","4705.299999952316","705294.9000000954","710000.2000000477","[""stimuli/AF10_HO.jpg"",""stimuli/HM10_CC.jpg"",""stimuli/BF04_AO.jpg"",""stimuli/WM09_HE.jpg""]","stimuli/AF10_HO.jpg","stimuli/HM10_CC.jpg","stimuli/BF04_AO.jpg","stimuli/WM09_HE.jpg","pos2","stimuli/HM10_CC.jpg","CC","HM10","1","4","8","8","stimuli/stars_8.png","71.5","[""HO"",""CC"",""AO"",""HE""]","[""AF10"",""HM10"",""BF04"",""WM09""]","[5,8,5,2]","[6,8,4,2]","","",""
"show-reward","56","709274","0.0-56.0","p819195","A3NRIEMOJVVX4A","3UUIU9GZC6BQMHTLWW3KSJ0W7IE5TB","3R9WASFE21MHXAT3Y2ACP3NF0J6ZFL","emotion","mismatch","uniform","","","","","","","","710502.4000000954","712513.4000000954","","","","","","","","","","","","8","","stimuli/stars_8.png","71.5","","","","","stimuli/HM10_CC.jpg","",""
"explore-choice","57","713921","0.0-57.0","p819195","A3NRIEMOJVVX4A","3UUIU9GZC6BQMHTLWW3KSJ0W7IE5TB","3R9WASFE21MHXAT3Y2ACP3NF0J6ZFL","emotion","mismatch","uniform","","","","","","","4141.600000143051","712514.5999999046","716656.2000000477","[""stimuli/HM10_AO.jpg"",""stimuli/BF04_CC.jpg"",""stimuli/AF10_HE.jpg"",""stimuli/WM09_HO.jpg""]","stimuli/HM10_AO.jpg","stimuli/BF04_CC.jpg","stimuli/AF10_HE.jpg","stimuli/WM09_HO.jpg","pos2","stimuli/BF04_CC.jpg","CC","BF04","1","4","8","8","stimuli/stars_8.png","75.5","[""AO"",""CC"",""HE"",""HO""]","[""HM10"",""BF04"",""AF10"",""WM09""]","[2,8,4,6]","[4,8,2,6]","","",""
"show-reward","58","715926","0.0-58.0","p819195","A3NRIEMOJVVX4A","3UUIU9GZC6BQMHTLWW3KSJ0W7IE5TB","3R9WASFE21MHXAT3Y2ACP3NF0J6ZFL","emotion","mismatch","uniform","","","","","","","","717162.2000000477","719165.2999999523","","","","","","","","","","","","8","","stimuli/stars_8.png","75.5","","","","","stimuli/BF04_CC.jpg","",""
"explore-choice","59","718652","0.0-59.0","p819195","A3NRIEMOJVVX4A","3UUIU9GZC6BQMHTLWW3KSJ0W7IE5TB","3R9WASFE21MHXAT3Y2ACP3NF0J6ZFL","emotion","mismatch","uniform","","","","","","","2225.2999999523163","719166.7999999523","721392.0999999046","[""stimuli/BF04_HE.jpg"",""stimuli/HM10_HO.jpg"",""stimuli/WM09_CC.jpg"",""stimuli/AF10_AO.jpg""]","stimuli/BF04_HE.jpg","stimuli/HM10_HO.jpg","stimuli/WM09_CC.jpg","stimuli/AF10_AO.jpg","pos3","stimuli/WM09_CC.jpg","CC","WM09","2","5","10","8","stimuli/stars_10.png","80.5","[""HE"",""HO"",""CC"",""AO""]","[""BF04"",""HM10"",""WM09"",""AF10""]","[3,7,10,6]","[2,6,8,4]","","",""
"show-reward","60","720665","0.0-60.0","p819195","A3NRIEMOJVVX4A","3UUIU9GZC6BQMHTLWW3KSJ0W7IE5TB","3R9WASFE21MHXAT3Y2ACP3NF0J6ZFL","emotion","mismatch","uniform","","","","","","","","721893.7999999523","723904.7000000477","","","","","","","","","","","","10","","stimuli/stars_10.png","80.5","","","","","stimuli/WM09_CC.jpg","",""
"explore-choice","61","724256","0.0-61.0","p819195","A3NRIEMOJVVX4A","3UUIU9GZC6BQMHTLWW3KSJ0W7IE5TB","3R9WASFE21MHXAT3Y2ACP3NF0J6ZFL","emotion","mismatch","uniform","","","","","","","3077.100000143051","723906.7999999523","726983.9000000954","[""stimuli/WM09_CC.jpg"",""stimuli/HM10_HE.jpg"",""stimuli/AF10_AO.jpg"",""stimuli/BF04_HO.jpg""]","stimuli/WM09_CC.jpg","stimuli/HM10_HE.jpg","stimuli/AF10_AO.jpg","stimuli/BF04_HO.jpg","pos1","stimuli/WM09_CC.jpg","CC","WM09","0","5","10","8","stimuli/stars_10.png","85.5","[""CC"",""HE"",""AO"",""HO""]","[""WM09"",""HM10"",""AF10"",""BF04""]","[10,3,6,5]","[8,2,4,6]","","",""
"show-reward","62","726265","0.0-62.0","p819195","A3NRIEMOJVVX4A","3UUIU9GZC6BQMHTLWW3KSJ0W7IE5TB","3R9WASFE21MHXAT3Y2ACP3NF0J6ZFL","emotion","mismatch","uniform","","","","","","","","727496.7999999523","729505.5999999046","","","","","","","","","","","","10","","stimuli/stars_10.png","85.5","","","","","stimuli/WM09_CC.jpg","",""
"explore-choice","63","729372","0.0-63.0","p819195","A3NRIEMOJVVX4A","3UUIU9GZC6BQMHTLWW3KSJ0W7IE5TB","3R9WASFE21MHXAT3Y2ACP3NF0J6ZFL","emotion","mismatch","uniform","","","","","","","2604.7999999523163","729507.2999999523","732112.0999999046","[""stimuli/AF10_AO.jpg"",""stimuli/WM09_HE.jpg"",""stimuli/BF04_HO.jpg"",""stimuli/HM10_CC.jpg""]","stimuli/AF10_AO.jpg","stimuli/WM09_HE.jpg","stimuli/BF04_HO.jpg","stimuli/HM10_CC.jpg","pos4","stimuli/HM10_CC.jpg","CC","HM10","3","5","10","8","stimuli/stars_10.png","90.5","[""AO"",""HE"",""HO"",""CC""]","[""AF10"",""WM09"",""BF04"",""HM10""]","[6,2,7,10]","[4,2,6,8]","","",""
"show-reward","64","731378","0.0-64.0","p819195","A3NRIEMOJVVX4A","3UUIU9GZC6BQMHTLWW3KSJ0W7IE5TB","3R9WASFE21MHXAT3Y2ACP3NF0J6ZFL","emotion","mismatch","uniform","","","","","","","","732614.7000000477","734618.7000000477","","","","","","","","","","","","10","","stimuli/stars_10.png","90.5","","","","","stimuli/HM10_CC.jpg","",""
"explore-choice","65","733293","0.0-65.0","p819195","A3NRIEMOJVVX4A","3UUIU9GZC6BQMHTLWW3KSJ0W7IE5TB","3R9WASFE21MHXAT3Y2ACP3NF0J6ZFL","emotion","mismatch","uniform","","","","","","","1412.7999999523163","734619.2999999523","736032.0999999046","[""stimuli/AF10_HE.jpg"",""stimuli/WM09_CC.jpg"",""stimuli/BF04_HO.jpg"",""stimuli/HM10_AO.jpg""]","stimuli/AF10_HE.jpg","stimuli/WM09_CC.jpg","stimuli/BF04_HO.jpg","stimuli/HM10_AO.jpg","pos2","stimuli/WM09_CC.jpg","CC","WM09","1","4.5","9","8","stimuli/stars_9.png","95","[""HE"",""CC"",""HO"",""AO""]","[""AF10"",""WM09"",""BF04"",""HM10""]","[2,9,5,3]","[2,8,6,4]","","",""
"show-reward","66","735298","0.0-66.0","p819195","A3NRIEMOJVVX4A","3UUIU9GZC6BQMHTLWW3KSJ0W7IE5TB","3R9WASFE21MHXAT3Y2ACP3NF0J6ZFL","emotion","mismatch","uniform","","","","","","","","736534.7000000477","738538.2000000477","","","","","","","","","","","","9","","stimuli/stars_9.png","95","","","","","stimuli/WM09_CC.jpg","",""
"explore-choice","67","739435","0.0-67.0","p819195","A3NRIEMOJVVX4A","3UUIU9GZC6BQMHTLWW3KSJ0W7IE5TB","3R9WASFE21MHXAT3Y2ACP3NF0J6ZFL","emotion","mismatch","uniform","","","","","","","3628.2999999523163","738539.7999999523","742168.0999999046","[""stimuli/AF10_HO.jpg"",""stimuli/HM10_AO.jpg"",""stimuli/WM09_HE.jpg"",""stimuli/BF04_CC.jpg""]","stimuli/AF10_HO.jpg","stimuli/HM10_AO.jpg","stimuli/WM09_HE.jpg","stimuli/BF04_CC.jpg","pos4","stimuli/BF04_CC.jpg","CC","BF04","3","3","6","8","stimuli/stars_6.png","98","[""HO"",""AO"",""HE"",""CC""]","[""AF10"",""HM10"",""WM09"",""BF04""]","[8,4,3,6]","[6,4,2,8]","","",""
"show-reward","68","741440","0.0-68.0","p819195","A3NRIEMOJVVX4A","3UUIU9GZC6BQMHTLWW3KSJ0W7IE5TB","3R9WASFE21MHXAT3Y2ACP3NF0J6ZFL","emotion","mismatch","uniform","","","","","","","","742677.2000000477","744680.5","","","","","","","","","","","","6","","stimuli/stars_6.png","98","","","","","stimuli/BF04_CC.jpg","",""
"explore-choice","69","746892","0.0-69.0","p819195","A3NRIEMOJVVX4A","3UUIU9GZC6BQMHTLWW3KSJ0W7IE5TB","3R9WASFE21MHXAT3Y2ACP3NF0J6ZFL","emotion","mismatch","uniform","","","","","","","4950.5","744681.5999999046","749632.0999999046","[""stimuli/HM10_AO.jpg"",""stimuli/WM09_HO.jpg"",""stimuli/BF04_HE.jpg"",""stimuli/AF10_CC.jpg""]","stimuli/HM10_AO.jpg","stimuli/WM09_HO.jpg","stimuli/BF04_HE.jpg","stimuli/AF10_CC.jpg","pos4","stimuli/AF10_CC.jpg","CC","AF10","3","4","8","8","stimuli/stars_8.png","102","[""AO"",""HO"",""HE"",""CC""]","[""HM10"",""WM09"",""BF04"",""AF10""]","[6,4,1,8]","[4,6,2,8]","","",""
"show-reward","70","748895","0.0-70.0","p819195","A3NRIEMOJVVX4A","3UUIU9GZC6BQMHTLWW3KSJ0W7IE5TB","3R9WASFE21MHXAT3Y2ACP3NF0J6ZFL","emotion","mismatch","uniform","","","","","","","","750133.5","752135.2000000477","","","","","","","","","","","","8","","stimuli/stars_8.png","102","","","","","stimuli/AF10_CC.jpg","",""
"explore-choice","71","750877","0.0-71.0","p819195","A3NRIEMOJVVX4A","3UUIU9GZC6BQMHTLWW3KSJ0W7IE5TB","3R9WASFE21MHXAT3Y2ACP3NF0J6ZFL","emotion","mismatch","uniform","","","","","","","1479.2999999523163","752136.7999999523","753616.0999999046","[""stimuli/AF10_HO.jpg"",""stimuli/WM09_CC.jpg"",""stimuli/HM10_HE.jpg"",""stimuli/BF04_AO.jpg""]","stimuli/AF10_HO.jpg","stimuli/WM09_CC.jpg","stimuli/HM10_HE.jpg","stimuli/BF04_AO.jpg","pos2","stimuli/WM09_CC.jpg","CC","WM09","1","5","10","8","stimuli/stars_10.png","107","[""HO"",""CC"",""HE"",""AO""]","[""AF10"",""WM09"",""HM10"",""BF04""]","[4,10,4,2]","[6,8,2,4]","","",""
"show-reward","72","752885","0.0-72.0","p819195","A3NRIEMOJVVX4A","3UUIU9GZC6BQMHTLWW3KSJ0W7IE5TB","3R9WASFE21MHXAT3Y2ACP3NF0J6ZFL","emotion","mismatch","uniform","","","","","","","","754118.2000000477","756125.2000000477","","","","","","","","","","","","10","","stimuli/stars_10.png","107","","","","","stimuli/WM09_CC.jpg","",""
"explore-choice","73","754716","0.0-73.0","p819195","A3NRIEMOJVVX4A","3UUIU9GZC6BQMHTLWW3KSJ0W7IE5TB","3R9WASFE21MHXAT3Y2ACP3NF0J6ZFL","emotion","mismatch","uniform","","","","","","","1329","756127.0999999046","757456.0999999046","[""stimuli/BF04_HE.jpg"",""stimuli/AF10_AO.jpg"",""stimuli/HM10_CC.jpg"",""stimuli/WM09_HO.jpg""]","stimuli/BF04_HE.jpg","stimuli/AF10_AO.jpg","stimuli/HM10_CC.jpg","stimuli/WM09_HO.jpg","pos3","stimuli/HM10_CC.jpg","CC","HM10","2","4","8","8","stimuli/stars_8.png","111","[""HE"",""AO"",""CC"",""HO""]","[""BF04"",""AF10"",""HM10"",""WM09""]","[2,5,8,4]","[2,4,8,6]","","",""
"show-reward","74","756722","0.0-74.0","p819195","A3NRIEMOJVVX4A","3UUIU9GZC6BQMHTLWW3KSJ0W7IE5TB","3R9WASFE21MHXAT3Y2ACP3NF0J6ZFL","emotion","mismatch","uniform","","","","","","","","757958.2000000477","759962.5","","","","","","","","","","","","8","","stimuli/stars_8.png","111","","","","","stimuli/HM10_CC.jpg","",""
"explore-choice","75","759437","0.0-75.0","p819195","A3NRIEMOJVVX4A","3UUIU9GZC6BQMHTLWW3KSJ0W7IE5TB","3R9WASFE21MHXAT3Y2ACP3NF0J6ZFL","emotion","mismatch","uniform","","","","","","","2211.899999856949","759964.2000000477","762176.0999999046","[""stimuli/AF10_AO.jpg"",""stimuli/BF04_CC.jpg"",""stimuli/HM10_HE.jpg"",""stimuli/WM09_HO.jpg""]","stimuli/AF10_AO.jpg","stimuli/BF04_CC.jpg","stimuli/HM10_HE.jpg","stimuli/WM09_HO.jpg","pos2","stimuli/BF04_CC.jpg","CC","BF04","1","3","6","8","stimuli/stars_6.png","114","[""AO"",""CC"",""HE"",""HO""]","[""AF10"",""BF04"",""HM10"",""WM09""]","[5,6,0,4]","[4,8,2,6]","","",""
"show-reward","76","761444","0.0-76.0","p819195","A3NRIEMOJVVX4A","3UUIU9GZC6BQMHTLWW3KSJ0W7IE5TB","3R9WASFE21MHXAT3Y2ACP3NF0J6ZFL","emotion","mismatch","uniform","","","","","","","","762678.5","764684.4000000954","","","","","","","","","","","","6","","stimuli/stars_6.png","114","","","","","stimuli/BF04_CC.jpg","",""
"explore-choice","77","764074","0.0-77.0","p819195","A3NRIEMOJVVX4A","3UUIU9GZC6BQMHTLWW3KSJ0W7IE5TB","3R9WASFE21MHXAT3Y2ACP3NF0J6ZFL","emotion","mismatch","uniform","","","","","","","2115.2000000476837","764685.2000000477","766800.4000000954","[""stimuli/AF10_CC.jpg"",""stimuli/BF04_AO.jpg"",""stimuli/WM09_HE.jpg"",""stimuli/HM10_HO.jpg""]","stimuli/AF10_CC.jpg","stimuli/BF04_AO.jpg","stimuli/WM09_HE.jpg","stimuli/HM10_HO.jpg","pos1","stimuli/AF10_CC.jpg","CC","AF10","0","4.5","9","8","stimuli/stars_9.png","118.5","[""CC"",""AO"",""HE"",""HO""]","[""AF10"",""BF04"",""WM09"",""HM10""]","[9,6,1,6]","[8,4,2,6]","","",""
"show-reward","78","766084","0.0-78.0","p819195","A3NRIEMOJVVX4A","3UUIU9GZC6BQMHTLWW3KSJ0W7IE5TB","3R9WASFE21MHXAT3Y2ACP3NF0J6ZFL","emotion","mismatch","uniform","","","","","","","","767315.7999999523","769324.5","","","","","","","","","","","","9","","stimuli/stars_9.png","118.5","","","","","stimuli/AF10_CC.jpg","",""
"explore-choice","79","768069","0.0-79.0","p819195","A3NRIEMOJVVX4A","3UUIU9GZC6BQMHTLWW3KSJ0W7IE5TB","3R9WASFE21MHXAT3Y2ACP3NF0J6ZFL","emotion","mismatch","uniform","","","","","","","1482.7999999523163","769325.4000000954","770808.2000000477","[""stimuli/WM09_AO.jpg"",""stimuli/BF04_HE.jpg"",""stimuli/HM10_CC.jpg"",""stimuli/AF10_HO.jpg""]","stimuli/WM09_AO.jpg","stimuli/BF04_HE.jpg","stimuli/HM10_CC.jpg","stimuli/AF10_HO.jpg","pos2","stimuli/BF04_HE.jpg","HE","BF04","1","1.5","3","2","stimuli/stars_3.png","120","[""AO"",""HE"",""CC"",""HO""]","[""WM09"",""BF04"",""HM10"",""AF10""]","[4,3,8,8]","[4,2,8,6]","","",""
"show-reward","80","770075","0.0-80.0","p819195","A3NRIEMOJVVX4A","3UUIU9GZC6BQMHTLWW3KSJ0W7IE5TB","3R9WASFE21MHXAT3Y2ACP3NF0J6ZFL","emotion","mismatch","uniform","","","","","","","","771311.4000000954","773314.7999999523","","","","","","","","","","","","3","","stimuli/stars_3.png","120","","","","","stimuli/BF04_HE.jpg","",""
"explore-choice","81","771348","0.0-81.0","p819195","A3NRIEMOJVVX4A","3UUIU9GZC6BQMHTLWW3KSJ0W7IE5TB","3R9WASFE21MHXAT3Y2ACP3NF0J6ZFL","emotion","mismatch","uniform","","","","","","","771.5","773316.5","774088","[""stimuli/WM09_HO.jpg"",""stimuli/AF10_CC.jpg"",""stimuli/BF04_AO.jpg"",""stimuli/HM10_HE.jpg""]","stimuli/WM09_HO.jpg","stimuli/AF10_CC.jpg","stimuli/BF04_AO.jpg","stimuli/HM10_HE.jpg","pos3","stimuli/BF04_AO.jpg","AO","BF04","2","3","6","4","stimuli/stars_6.png","123","[""HO"",""CC"",""AO"",""HE""]","[""WM09"",""AF10"",""BF04"",""HM10""]","[8,7,6,0]","[6,8,4,2]","","",""
"show-reward","82","773351","0.0-82.0","p819195","A3NRIEMOJVVX4A","3UUIU9GZC6BQMHTLWW3KSJ0W7IE5TB","3R9WASFE21MHXAT3Y2ACP3NF0J6ZFL","emotion","mismatch","uniform","","","","","","","","774589.2999999523","776591.2000000477","","","","","","","","","","","","6","","stimuli/stars_6.png","123","","","","","stimuli/BF04_AO.jpg","",""
"explore-choice","83","774425","0.0-83.0","p819195","A3NRIEMOJVVX4A","3UUIU9GZC6BQMHTLWW3KSJ0W7IE5TB","3R9WASFE21MHXAT3Y2ACP3NF0J6ZFL","emotion","mismatch","uniform","","","","","","","567.8999998569489","776592.2000000477","777160.0999999046","[""stimuli/AF10_CC.jpg"",""stimuli/HM10_HE.jpg"",""stimuli/WM09_AO.jpg"",""stimuli/BF04_HO.jpg""]","stimuli/AF10_CC.jpg","stimuli/HM10_HE.jpg","stimuli/WM09_AO.jpg","stimuli/BF04_HO.jpg","pos4","stimuli/BF04_HO.jpg","HO","BF04","3","3.5","7","6","stimuli/stars_7.png","126.5","[""CC"",""HE"",""AO"",""HO""]","[""AF10"",""HM10"",""WM09"",""BF04""]","[7,1,3,7]","[8,2,4,6]","","",""
"show-reward","84","776429","0.0-84.0","p819195","A3NRIEMOJVVX4A","3UUIU9GZC6BQMHTLWW3KSJ0W7IE5TB","3R9WASFE21MHXAT3Y2ACP3NF0J6ZFL","emotion","mismatch","uniform","","","","","","","","777666.5999999046","779669.4000000954","","","","","","","","","","","","7","","stimuli/stars_7.png","126.5","","","","","stimuli/BF04_HO.jpg","",""
"explore-choice","85","777445","0.0-85.0","p819195","A3NRIEMOJVVX4A","3UUIU9GZC6BQMHTLWW3KSJ0W7IE5TB","3R9WASFE21MHXAT3Y2ACP3NF0J6ZFL","emotion","mismatch","uniform","","","","","","","513.7000000476837","779670.2000000477","780183.9000000954","[""stimuli/WM09_HE.jpg"",""stimuli/AF10_AO.jpg"",""stimuli/HM10_HO.jpg"",""stimuli/BF04_CC.jpg""]","stimuli/WM09_HE.jpg","stimuli/AF10_AO.jpg","stimuli/HM10_HO.jpg","stimuli/BF04_CC.jpg","pos1","stimuli/WM09_HE.jpg","HE","WM09","0","2","4","2","stimuli/stars_4.png","128.5","[""HE"",""AO"",""HO"",""CC""]","[""WM09"",""AF10"",""HM10"",""BF04""]","[4,2,6,9]","[2,4,6,8]","","",""
"show-reward","86","779451","0.0-86.0","p819195","A3NRIEMOJVVX4A","3UUIU9GZC6BQMHTLWW3KSJ0W7IE5TB","3R9WASFE21MHXAT3Y2ACP3NF0J6ZFL","emotion","mismatch","uniform","","","","","","","","780686.9000000954","782691.4000000954","","","","","","","","","","","","4","","stimuli/stars_4.png","128.5","","","","","stimuli/WM09_HE.jpg","",""
"explore-choice","87","780532","0.0-87.0","p819195","A3NRIEMOJVVX4A","3UUIU9GZC6BQMHTLWW3KSJ0W7IE5TB","3R9WASFE21MHXAT3Y2ACP3NF0J6ZFL","emotion","mismatch","uniform","","","","","","","578.6000001430511","782693.5999999046","783272.2000000477","[""stimuli/WM09_HE.jpg"",""stimuli/AF10_CC.jpg"",""stimuli/HM10_AO.jpg"",""stimuli/BF04_HO.jpg""]","stimuli/WM09_HE.jpg","stimuli/AF10_CC.jpg","stimuli/HM10_AO.jpg","stimuli/BF04_HO.jpg","pos2","stimuli/AF10_CC.jpg","CC","AF10","1","5","10","8","stimuli/stars_10.png","133.5","[""HE"",""CC"",""AO"",""HO""]","[""WM09"",""AF10"",""HM10"",""BF04""]","[1,10,2,4]","[2,8,4,6]","","",""
"show-reward","88","782537","0.0-88.0","p819195","A3NRIEMOJVVX4A","3UUIU9GZC6BQMHTLWW3KSJ0W7IE5TB","3R9WASFE21MHXAT3Y2ACP3NF0J6ZFL","emotion","mismatch","uniform","","","","","","","","783774","785777.2000000477","","","","","","","","","","","","10","","stimuli/stars_10.png","133.5","","","","","stimuli/AF10_CC.jpg","",""
"explore-choice","89","783493","0.0-89.0","p819195","A3NRIEMOJVVX4A","3UUIU9GZC6BQMHTLWW3KSJ0W7IE5TB","3R9WASFE21MHXAT3Y2ACP3NF0J6ZFL","emotion","mismatch","uniform","","","","","","","453.59999990463257","785778.7000000477","786232.2999999523","[""stimuli/AF10_CC.jpg"",""stimuli/BF04_HE.jpg"",""stimuli/HM10_HO.jpg"",""stimuli/WM09_AO.jpg""]","stimuli/AF10_CC.jpg","stimuli/BF04_HE.jpg","stimuli/HM10_HO.jpg","stimuli/WM09_AO.jpg","pos3","stimuli/HM10_HO.jpg","HO","HM10","2","4","8","6","stimuli/stars_8.png","137.5","[""CC"",""HE"",""HO"",""AO""]","[""AF10"",""BF04"",""HM10"",""WM09""]","[10,4,8,5]","[8,2,6,4]","","",""
"show-reward","90","785496","0.0-90.0","p819195","A3NRIEMOJVVX4A","3UUIU9GZC6BQMHTLWW3KSJ0W7IE5TB","3R9WASFE21MHXAT3Y2ACP3NF0J6ZFL","emotion","mismatch","uniform","","","","","","","","786733.9000000954","788736.0999999046","","","","","","","","","","","","8","","stimuli/stars_8.png","137.5","","","","","stimuli/HM10_HO.jpg","",""
"explore-choice","91","786692","0.0-91.0","p819195","A3NRIEMOJVVX4A","3UUIU9GZC6BQMHTLWW3KSJ0W7IE5TB","3R9WASFE21MHXAT3Y2ACP3NF0J6ZFL","emotion","mismatch","uniform","","","","","","","693.9000000953674","788738.0999999046","789432","[""stimuli/HM10_HO.jpg"",""stimuli/WM09_CC.jpg"",""stimuli/BF04_AO.jpg"",""stimuli/AF10_HE.jpg""]","stimuli/HM10_HO.jpg","stimuli/WM09_CC.jpg","stimuli/BF04_AO.jpg","stimuli/AF10_HE.jpg","pos4","stimuli/AF10_HE.jpg","HE","AF10","3","2","4","2","stimuli/stars_4.png","139.5","[""HO"",""CC"",""AO"",""HE""]","[""HM10"",""WM09"",""BF04"",""AF10""]","[7,7,2,4]","[6,8,4,2]","","",""
"show-reward","92","788702","0.0-92.0","p819195","A3NRIEMOJVVX4A","3UUIU9GZC6BQMHTLWW3KSJ0W7IE5TB","3R9WASFE21MHXAT3Y2ACP3NF0J6ZFL","emotion","mismatch","uniform","","","","","","","","789934.0999999046","791942.2999999523","","","","","","","","","","","","4","","stimuli/stars_4.png","139.5","","","","","stimuli/AF10_HE.jpg","",""
"explore-choice","93","789684","0.0-93.0","p819195","A3NRIEMOJVVX4A","3UUIU9GZC6BQMHTLWW3KSJ0W7IE5TB","3R9WASFE21MHXAT3Y2ACP3NF0J6ZFL","emotion","mismatch","uniform","","","","","","","480.09999990463257","791944","792424.0999999046","[""stimuli/BF04_HE.jpg"",""stimuli/HM10_AO.jpg"",""stimuli/AF10_HO.jpg"",""stimuli/WM09_CC.jpg""]","stimuli/BF04_HE.jpg","stimuli/HM10_AO.jpg","stimuli/AF10_HO.jpg","stimuli/WM09_CC.jpg","pos1","stimuli/BF04_HE.jpg","HE","BF04","0","2","4","2","stimuli/stars_4.png","141.5","[""HE"",""AO"",""HO"",""CC""]","[""BF04"",""HM10"",""AF10"",""WM09""]","[4,3,7,10]","[2,4,6,8]","","",""
"show-reward","94","791688","0.0-94.0","p819195","A3NRIEMOJVVX4A","3UUIU9GZC6BQMHTLWW3KSJ0W7IE5TB","3R9WASFE21MHXAT3Y2ACP3NF0J6ZFL","emotion","mismatch","uniform","","","","","","","","792925.5","794927.7999999523","","","","","","","","","","","","4","","stimuli/stars_4.png","141.5","","","","","stimuli/BF04_HE.jpg","",""
"explore-choice","95","792765","0.0-95.0","p819195","A3NRIEMOJVVX4A","3UUIU9GZC6BQMHTLWW3KSJ0W7IE5TB","3R9WASFE21MHXAT3Y2ACP3NF0J6ZFL","emotion","mismatch","uniform","","","","","","","574.5999999046326","794929.5","795504.0999999046","[""stimuli/AF10_HE.jpg"",""stimuli/WM09_AO.jpg"",""stimuli/HM10_CC.jpg"",""stimuli/BF04_HO.jpg""]","stimuli/AF10_HE.jpg","stimuli/WM09_AO.jpg","stimuli/HM10_CC.jpg","stimuli/BF04_HO.jpg","pos2","stimuli/WM09_AO.jpg","AO","WM09","1","2","4","4","stimuli/stars_4.png","143.5","[""HE"",""AO"",""CC"",""HO""]","[""AF10"",""WM09"",""HM10"",""BF04""]","[4,4,10,6]","[2,4,8,6]","","",""
"show-reward","96","794779","0.0-96.0","p819195","A3NRIEMOJVVX4A","3UUIU9GZC6BQMHTLWW3KSJ0W7IE5TB","3R9WASFE21MHXAT3Y2ACP3NF0J6ZFL","emotion","mismatch","uniform","","","","","","","","796006.4000000954","798018.9000000954","","","","","","","","","","","","4","","stimuli/stars_4.png","143.5","","","","","stimuli/WM09_AO.jpg","",""
"explore-choice","97","795765","0.0-97.0","p819195","A3NRIEMOJVVX4A","3UUIU9GZC6BQMHTLWW3KSJ0W7IE5TB","3R9WASFE21MHXAT3Y2ACP3NF0J6ZFL","emotion","mismatch","uniform","","","","","","","483.19999980926514","798020.9000000954","798504.0999999046","[""stimuli/AF10_HE.jpg"",""stimuli/WM09_HO.jpg"",""stimuli/HM10_CC.jpg"",""stimuli/BF04_AO.jpg""]","stimuli/AF10_HE.jpg","stimuli/WM09_HO.jpg","stimuli/HM10_CC.jpg","stimuli/BF04_AO.jpg","pos3","stimuli/HM10_CC.jpg","CC","HM10","2","4","8","8","stimuli/stars_8.png","147.5","[""HE"",""HO"",""CC"",""AO""]","[""AF10"",""WM09"",""HM10"",""BF04""]","[2,8,8,2]","[2,6,8,4]","","",""
"show-reward","98","797772","0.0-98.0","p819195","A3NRIEMOJVVX4A","3UUIU9GZC6BQMHTLWW3KSJ0W7IE5TB","3R9WASFE21MHXAT3Y2ACP3NF0J6ZFL","emotion","mismatch","uniform","","","","","","","","799007.2999999523","801012","","","","","","","","","","","","8","","stimuli/stars_8.png","147.5","","","","","stimuli/HM10_CC.jpg","",""
"explore-choice","99","798755","0.0-99.0","p819195","A3NRIEMOJVVX4A","3UUIU9GZC6BQMHTLWW3KSJ0W7IE5TB","3R9WASFE21MHXAT3Y2ACP3NF0J6ZFL","emotion","mismatch","uniform","","","","","","","474.60000014305115","801013.5999999046","801488.2000000477","[""stimuli/HM10_HO.jpg"",""stimuli/BF04_CC.jpg"",""stimuli/WM09_AO.jpg"",""stimuli/AF10_HE.jpg""]","stimuli/HM10_HO.jpg","stimuli/BF04_CC.jpg","stimuli/WM09_AO.jpg","stimuli/AF10_HE.jpg","pos4","stimuli/AF10_HE.jpg","HE","AF10","3","1.5","3","2","stimuli/stars_3.png","149","[""HO"",""CC"",""AO"",""HE""]","[""HM10"",""BF04"",""WM09"",""AF10""]","[4,6,2,3]","[6,8,4,2]","","",""
"show-reward","100","800759","0.0-100.0","p819195","A3NRIEMOJVVX4A","3UUIU9GZC6BQMHTLWW3KSJ0W7IE5TB","3R9WASFE21MHXAT3Y2ACP3NF0J6ZFL","emotion","mismatch","uniform","","","","","","","","801996.5","803998.5","","","","","","","","","","","","3","","stimuli/stars_3.png","149","","","","","stimuli/AF10_HE.jpg","",""
"explore-choice","101","801957","0.0-101.0","p819195","A3NRIEMOJVVX4A","3UUIU9GZC6BQMHTLWW3KSJ0W7IE5TB","3R9WASFE21MHXAT3Y2ACP3NF0J6ZFL","emotion","mismatch","uniform","","","","","","","695.2999999523163","804000.7000000477","804696","[""stimuli/AF10_HO.jpg"",""stimuli/HM10_HE.jpg"",""stimuli/WM09_AO.jpg"",""stimuli/BF04_CC.jpg""]","stimuli/AF10_HO.jpg","stimuli/HM10_HE.jpg","stimuli/WM09_AO.jpg","stimuli/BF04_CC.jpg","pos2","stimuli/HM10_HE.jpg","HE","HM10","1","1","2","2","stimuli/stars_2.png","150","[""HO"",""HE"",""AO"",""CC""]","[""AF10"",""HM10"",""WM09"",""BF04""]","[7,2,4,6]","[6,2,4,8]","","",""
"show-reward","102","803959","0.0-102.0","p819195","A3NRIEMOJVVX4A","3UUIU9GZC6BQMHTLWW3KSJ0W7IE5TB","3R9WASFE21MHXAT3Y2ACP3NF0J6ZFL","emotion","mismatch","uniform","","","","","","","","805197.5999999046","807199","","","","","","","","","","","","2","","stimuli/stars_2.png","150","","","","","stimuli/HM10_HE.jpg","",""
"explore-choice","103","805877","0.0-103.0","p819195","A3NRIEMOJVVX4A","3UUIU9GZC6BQMHTLWW3KSJ0W7IE5TB","3R9WASFE21MHXAT3Y2ACP3NF0J6ZFL","emotion","mismatch","uniform","","","","","","","1415","807201.0999999046","808616.0999999046","[""stimuli/WF11_SC.jpg"",""stimuli/AM09_FO.jpg"",""stimuli/HF02_SUR.jpg"",""stimuli/HF10_DO.jpg""]","stimuli/WF11_SC.jpg","stimuli/AM09_FO.jpg","stimuli/HF02_SUR.jpg","stimuli/HF10_DO.jpg","pos1","stimuli/WF11_SC.jpg","SC","WF11","0","2","4","2","stimuli/stars_4.png","152","[""SC"",""FO"",""SUR"",""DO""]","[""WF11"",""AM09"",""HF02"",""HF10""]","[4,10,6,6]","[2,8,6,4]","","",""
"show-reward","104","807882","0.0-104.0","p819195","A3NRIEMOJVVX4A","3UUIU9GZC6BQMHTLWW3KSJ0W7IE5TB","3R9WASFE21MHXAT3Y2ACP3NF0J6ZFL","emotion","mismatch","uniform","","","","","","","","809118.9000000954","811122.4000000954","","","","","","","","","","","","4","","stimuli/stars_4.png","152","","","","","stimuli/WF11_SC.jpg","",""
"explore-choice","105","809173","0.0-105.0","p819195","A3NRIEMOJVVX4A","3UUIU9GZC6BQMHTLWW3KSJ0W7IE5TB","3R9WASFE21MHXAT3Y2ACP3NF0J6ZFL","emotion","mismatch","uniform","","","","","","","788.2999999523163","811123.7000000477","811912","[""stimuli/AM09_FO.jpg"",""stimuli/HF02_DO.jpg"",""stimuli/HF10_SUR.jpg"",""stimuli/WF11_SC.jpg""]","stimuli/AM09_FO.jpg","stimuli/HF02_DO.jpg","stimuli/HF10_SUR.jpg","stimuli/WF11_SC.jpg","pos3","stimuli/HF10_SUR.jpg","SUR","HF10","2","1.5","3","4","stimuli/stars_3.png","153.5","[""FO"",""DO"",""SUR"",""SC""]","[""AM09"",""HF02"",""HF10"",""WF11""]","[7,4,3,2]","[8,6,4,2]","","",""
"show-reward","106","811186","0.0-106.0","p819195","A3NRIEMOJVVX4A","3UUIU9GZC6BQMHTLWW3KSJ0W7IE5TB","3R9WASFE21MHXAT3Y2ACP3NF0J6ZFL","emotion","mismatch","uniform","","","","","","","","812415.0999999046","814425.7999999523","","","","","","","","","","","","3","","stimuli/stars_3.png","153.5","","","","","stimuli/HF10_SUR.jpg","",""
"explore-choice","107","812617","0.0-107.0","p819195","A3NRIEMOJVVX4A","3UUIU9GZC6BQMHTLWW3KSJ0W7IE5TB","3R9WASFE21MHXAT3Y2ACP3NF0J6ZFL","emotion","mismatch","uniform","","","","","","","924.5","814427.5","815352","[""stimuli/HF10_FO.jpg"",""stimuli/WF11_SC.jpg"",""stimuli/HF02_DO.jpg"",""stimuli/AM09_SUR.jpg""]","stimuli/HF10_FO.jpg","stimuli/WF11_SC.jpg","stimuli/HF02_DO.jpg","stimuli/AM09_SUR.jpg","pos4","stimuli/AM09_SUR.jpg","SUR","AM09","3","4","8","8","stimuli/stars_8.png","157.5","[""FO"",""SC"",""DO"",""SUR""]","[""HF10"",""WF11"",""HF02"",""AM09""]","[4,1,4,8]","[4,2,6,8]","","",""
"show-reward","108","814622","0.0-108.0","p819195","A3NRIEMOJVVX4A","3UUIU9GZC6BQMHTLWW3KSJ0W7IE5TB","3R9WASFE21MHXAT3Y2ACP3NF0J6ZFL","emotion","mismatch","uniform","","","","","","","","815858.4000000954","817862.2000000477","","","","","","","","","","","","8","","stimuli/stars_8.png","157.5","","","","","stimuli/AM09_SUR.jpg","",""
"explore-choice","109","815933","0.0-109.0","p819195","A3NRIEMOJVVX4A","3UUIU9GZC6BQMHTLWW3KSJ0W7IE5TB","3R9WASFE21MHXAT3Y2ACP3NF0J6ZFL","emotion","mismatch","uniform","","","","","","","808.2000000476837","817864.0999999046","818672.2999999523","[""stimuli/AM09_SC.jpg"",""stimuli/HF10_FO.jpg"",""stimuli/HF02_DO.jpg"",""stimuli/WF11_SUR.jpg""]","stimuli/AM09_SC.jpg","stimuli/HF10_FO.jpg","stimuli/HF02_DO.jpg","stimuli/WF11_SUR.jpg","pos1","stimuli/AM09_SC.jpg","SC","AM09","0","5","10","8","stimuli/stars_10.png","162.5","[""SC"",""FO"",""DO"",""SUR""]","[""AM09"",""HF10"",""HF02"",""WF11""]","[10,2,4,4]","[8,4,6,2]","","",""
"show-reward","110","817942","0.0-110.0","p819195","A3NRIEMOJVVX4A","3UUIU9GZC6BQMHTLWW3KSJ0W7IE5TB","3R9WASFE21MHXAT3Y2ACP3NF0J6ZFL","emotion","mismatch","uniform","","","","","","","","819174.7999999523","821182","","","","","","","","","","","","10","","stimuli/stars_10.png","162.5","","","","","stimuli/AM09_SC.jpg","",""
"explore-choice","111","819061","0.0-111.0","p819195","A3NRIEMOJVVX4A","3UUIU9GZC6BQMHTLWW3KSJ0W7IE5TB","3R9WASFE21MHXAT3Y2ACP3NF0J6ZFL","emotion","mismatch","uniform","","","","","","","616.2999999523163","821183.7999999523","821800.0999999046","[""stimuli/HF02_FO.jpg"",""stimuli/HF10_SUR.jpg"",""stimuli/WF11_DO.jpg"",""stimuli/AM09_SC.jpg""]","stimuli/HF02_FO.jpg","stimuli/HF10_SUR.jpg","stimuli/WF11_DO.jpg","stimuli/AM09_SC.jpg","pos4","stimuli/AM09_SC.jpg","SC","AM09","3","4","8","8","stimuli/stars_8.png","166.5","[""FO"",""SUR"",""DO"",""SC""]","[""HF02"",""HF10"",""WF11"",""AM09""]","[6,3,2,8]","[6,4,2,8]","","",""
"show-reward","112","821066","0.0-112.0","p819195","A3NRIEMOJVVX4A","3UUIU9GZC6BQMHTLWW3KSJ0W7IE5TB","3R9WASFE21MHXAT3Y2ACP3NF0J6ZFL","emotion","mismatch","uniform","","","","","","","","822302.5999999046","824305.9000000954","","","","","","","","","","","","8","","stimuli/stars_8.png","166.5","","","","","stimuli/AM09_SC.jpg","",""
"explore-choice","113","822244","0.0-113.0","p819195","A3NRIEMOJVVX4A","3UUIU9GZC6BQMHTLWW3KSJ0W7IE5TB","3R9WASFE21MHXAT3Y2ACP3NF0J6ZFL","emotion","mismatch","uniform","","","","","","","676.7999999523163","824307.2999999523","824984.0999999046","[""stimuli/WF11_DO.jpg"",""stimuli/HF02_SUR.jpg"",""stimuli/HF10_SC.jpg"",""stimuli/AM09_FO.jpg""]","stimuli/WF11_DO.jpg","stimuli/HF02_SUR.jpg","stimuli/HF10_SC.jpg","stimuli/AM09_FO.jpg","pos1","stimuli/WF11_DO.jpg","DO","WF11","0","1.5","3","2","stimuli/stars_3.png","168","[""DO"",""SUR"",""SC"",""FO""]","[""WF11"",""HF02"",""HF10"",""AM09""]","[3,5,5,8]","[2,6,4,8]","","",""
"show-reward","114","824249","0.0-114.0","p819195","A3NRIEMOJVVX4A","3UUIU9GZC6BQMHTLWW3KSJ0W7IE5TB","3R9WASFE21MHXAT3Y2ACP3NF0J6ZFL","emotion","mismatch","uniform","","","","","","","","825486","827489.0999999046","","","","","","","","","","","","3","","stimuli/stars_3.png","168","","","","","stimuli/WF11_DO.jpg","",""
"explore-choice","115","825381","0.0-115.0","p819195","A3NRIEMOJVVX4A","3UUIU9GZC6BQMHTLWW3KSJ0W7IE5TB","3R9WASFE21MHXAT3Y2ACP3NF0J6ZFL","emotion","mismatch","uniform","","","","","","","629.2000000476837","827490.7000000477","828119.9000000954","[""stimuli/HF02_SC.jpg"",""stimuli/HF10_SUR.jpg"",""stimuli/WF11_FO.jpg"",""stimuli/AM09_DO.jpg""]","stimuli/HF02_SC.jpg","stimuli/HF10_SUR.jpg","stimuli/WF11_FO.jpg","stimuli/AM09_DO.jpg","pos3","stimuli/WF11_FO.jpg","FO","WF11","2","1","2","2","stimuli/stars_2.png","169","[""SC"",""SUR"",""FO"",""DO""]","[""HF02"",""HF10"",""WF11"",""AM09""]","[8,3,2,7]","[6,4,2,8]","","",""
"show-reward","116","827388","0.0-116.0","p819195","A3NRIEMOJVVX4A","3UUIU9GZC6BQMHTLWW3KSJ0W7IE5TB","3R9WASFE21MHXAT3Y2ACP3NF0J6ZFL","emotion","mismatch","uniform","","","","","","","","828622","830627.7999999523","","","","","","","","","","","","2","","stimuli/stars_2.png","169","","","","","stimuli/WF11_FO.jpg","",""
"explore-choice","117","828747","0.0-117.0","p819195","A3NRIEMOJVVX4A","3UUIU9GZC6BQMHTLWW3KSJ0W7IE5TB","3R9WASFE21MHXAT3Y2ACP3NF0J6ZFL","emotion","mismatch","uniform","","","","","","","850.4000000953674","830629.5999999046","831480","[""stimuli/AM09_DO.jpg"",""stimuli/HF02_FO.jpg"",""stimuli/HF10_SC.jpg"",""stimuli/WF11_SUR.jpg""]","stimuli/AM09_DO.jpg","stimuli/HF02_FO.jpg","stimuli/HF10_SC.jpg","stimuli/WF11_SUR.jpg","pos2","stimuli/HF02_FO.jpg","FO","HF02","1","4","8","6","stimuli/stars_8.png","173","[""DO"",""FO"",""SC"",""SUR""]","[""AM09"",""HF02"",""HF10"",""WF11""]","[10,8,5,3]","[8,6,4,2]","","",""
"show-reward","118","830752","0.0-118.0","p819195","A3NRIEMOJVVX4A","3UUIU9GZC6BQMHTLWW3KSJ0W7IE5TB","3R9WASFE21MHXAT3Y2ACP3NF0J6ZFL","emotion","mismatch","uniform","","","","","","","","831988.5","833991.5999999046","","","","","","","","","","","","8","","stimuli/stars_8.png","173","","","","","stimuli/HF02_FO.jpg","",""
"explore-choice","119","831852","0.0-119.0","p819195","A3NRIEMOJVVX4A","3UUIU9GZC6BQMHTLWW3KSJ0W7IE5TB","3R9WASFE21MHXAT3Y2ACP3NF0J6ZFL","emotion","mismatch","uniform","","","","","","","598.7000000476837","833993.2999999523","834592","[""stimuli/AM09_SC.jpg"",""stimuli/HF10_SUR.jpg"",""stimuli/HF02_DO.jpg"",""stimuli/WF11_FO.jpg""]","stimuli/AM09_SC.jpg","stimuli/HF10_SUR.jpg","stimuli/HF02_DO.jpg","stimuli/WF11_FO.jpg","pos1","stimuli/AM09_SC.jpg","SC","AM09","0","4.5","9","8","stimuli/stars_9.png","177.5","[""SC"",""SUR"",""DO"",""FO""]","[""AM09"",""HF10"",""HF02"",""WF11""]","[9,5,6,2]","[8,4,6,2]","","",""
"show-reward","120","833865","0.0-120.0","p819195","A3NRIEMOJVVX4A","3UUIU9GZC6BQMHTLWW3KSJ0W7IE5TB","3R9WASFE21MHXAT3Y2ACP3NF0J6ZFL","emotion","mismatch","uniform","","","","","","","","835093.7000000477","837104.5999999046","","","","","","","","","","","","9","","stimuli/stars_9.png","177.5","","","","","stimuli/AM09_SC.jpg","",""
"explore-choice","121","835093","0.0-121.0","p819195","A3NRIEMOJVVX4A","3UUIU9GZC6BQMHTLWW3KSJ0W7IE5TB","3R9WASFE21MHXAT3Y2ACP3NF0J6ZFL","emotion","mismatch","uniform","","","","","","","725.7000000476837","837106.2999999523","837832","[""stimuli/HF02_DO.jpg"",""stimuli/WF11_SUR.jpg"",""stimuli/AM09_FO.jpg"",""stimuli/HF10_SC.jpg""]","stimuli/HF02_DO.jpg","stimuli/WF11_SUR.jpg","stimuli/AM09_FO.jpg","stimuli/HF10_SC.jpg","pos1","stimuli/HF02_DO.jpg","DO","HF02","0","4","8","6","stimuli/stars_8.png","181.5","[""DO"",""SUR"",""FO"",""SC""]","[""HF02"",""WF11"",""AM09"",""HF10""]","[8,1,7,2]","[6,2,8,4]","","",""
"show-reward","122","837099","0.0-122.0","p819195","A3NRIEMOJVVX4A","3UUIU9GZC6BQMHTLWW3KSJ0W7IE5TB","3R9WASFE21MHXAT3Y2ACP3NF0J6ZFL","emotion","mismatch","uniform","","","","","","","","838334.7999999523","840338.5","","","","","","","","","","","","8","","stimuli/stars_8.png","181.5","","","","","stimuli/HF02_DO.jpg","",""
"explore-choice","123","838165","0.0-123.0","p819195","A3NRIEMOJVVX4A","3UUIU9GZC6BQMHTLWW3KSJ0W7IE5TB","3R9WASFE21MHXAT3Y2ACP3NF0J6ZFL","emotion","mismatch","uniform","","","","","","","563.7000000476837","840340","840903.7000000477","[""stimuli/WF11_FO.jpg"",""stimuli/HF02_SC.jpg"",""stimuli/HF10_DO.jpg"",""stimuli/AM09_SUR.jpg""]","stimuli/WF11_FO.jpg","stimuli/HF02_SC.jpg","stimuli/HF10_DO.jpg","stimuli/AM09_SUR.jpg","pos2","stimuli/HF02_SC.jpg","SC","HF02","1","4","8","6","stimuli/stars_8.png","185.5","[""FO"",""SC"",""DO"",""SUR""]","[""WF11"",""HF02"",""HF10"",""AM09""]","[1,8,2,6]","[2,6,4,8]","","",""
"show-reward","124","840172","0.0-124.0","p819195","A3NRIEMOJVVX4A","3UUIU9GZC6BQMHTLWW3KSJ0W7IE5TB","3R9WASFE21MHXAT3Y2ACP3NF0J6ZFL","emotion","mismatch","uniform","","","","","","","","841405.7000000477","843411.4000000954","","","","","","","","","","","","8","","stimuli/stars_8.png","185.5","","","","","stimuli/HF02_SC.jpg","",""
"explore-choice","125","841310","0.0-125.0","p819195","A3NRIEMOJVVX4A","3UUIU9GZC6BQMHTLWW3KSJ0W7IE5TB","3R9WASFE21MHXAT3Y2ACP3NF0J6ZFL","emotion","mismatch","uniform","","","","","","","635.0999999046326","843413","844048.0999999046","[""stimuli/HF02_FO.jpg"",""stimuli/WF11_SC.jpg"",""stimuli/HF10_SUR.jpg"",""stimuli/AM09_DO.jpg""]","stimuli/HF02_FO.jpg","stimuli/WF11_SC.jpg","stimuli/HF10_SUR.jpg","stimuli/AM09_DO.jpg","pos1","stimuli/HF02_FO.jpg","FO","HF02","0","3","6","6","stimuli/stars_6.png","188.5","[""FO"",""SC"",""SUR"",""DO""]","[""HF02"",""WF11"",""HF10"",""AM09""]","[6,1,3,7]","[6,2,4,8]","","",""
"show-reward","126","843317","0.0-126.0","p819195","A3NRIEMOJVVX4A","3UUIU9GZC6BQMHTLWW3KSJ0W7IE5TB","3R9WASFE21MHXAT3Y2ACP3NF0J6ZFL","emotion","mismatch","uniform","","","","","","","","844551.7999999523","846556.0999999046","","","","","","","","","","","","6","","stimuli/stars_6.png","188.5","","","","","stimuli/HF02_FO.jpg","",""
"explore-choice","127","844381","0.0-127.0","p819195","A3NRIEMOJVVX4A","3UUIU9GZC6BQMHTLWW3KSJ0W7IE5TB","3R9WASFE21MHXAT3Y2ACP3NF0J6ZFL","emotion","mismatch","uniform","","","","","","","563","846557","847120","[""stimuli/HF02_FO.jpg"",""stimuli/WF11_SUR.jpg"",""stimuli/HF10_DO.jpg"",""stimuli/AM09_SC.jpg""]","stimuli/HF02_FO.jpg","stimuli/WF11_SUR.jpg","stimuli/HF10_DO.jpg","stimuli/AM09_SC.jpg","pos4","stimuli/AM09_SC.jpg","SC","AM09","3","5","10","8","stimuli/stars_10.png","193.5","[""FO"",""SUR"",""DO"",""SC""]","[""HF02"",""WF11"",""HF10"",""AM09""]","[8,3,5,10]","[6,2,4,8]","","",""
"show-reward","128","846386","0.0-128.0","p819195","A3NRIEMOJVVX4A","3UUIU9GZC6BQMHTLWW3KSJ0W7IE5TB","3R9WASFE21MHXAT3Y2ACP3NF0J6ZFL","emotion","mismatch","uniform","","","","","","","","847622.0999999046","849625.4000000954","","","","","","","","","","","","10","","stimuli/stars_10.png","193.5","","","","","stimuli/AM09_SC.jpg","",""
"explore-choice","129","847422","0.0-129.0","p819195","A3NRIEMOJVVX4A","3UUIU9GZC6BQMHTLWW3KSJ0W7IE5TB","3R9WASFE21MHXAT3Y2ACP3NF0J6ZFL","emotion","mismatch","uniform","","","","","","","533.2000000476837","849626.7999999523","850160","[""stimuli/AM09_DO.jpg"",""stimuli/HF02_SC.jpg"",""stimuli/WF11_SUR.jpg"",""stimuli/HF10_FO.jpg""]","stimuli/AM09_DO.jpg","stimuli/HF02_SC.jpg","stimuli/WF11_SUR.jpg","stimuli/HF10_FO.jpg","pos1","stimuli/AM09_DO.jpg","DO","AM09","0","4","8","8","stimuli/stars_8.png","197.5","[""DO"",""SC"",""SUR"",""FO""]","[""AM09"",""HF02"",""WF11"",""HF10""]","[8,8,0,4]","[8,6,2,4]","","",""
"show-reward","130","849427","0.0-130.0","p819195","A3NRIEMOJVVX4A","3UUIU9GZC6BQMHTLWW3KSJ0W7IE5TB","3R9WASFE21MHXAT3Y2ACP3NF0J6ZFL","emotion","mismatch","uniform","","","","","","","","850662.7000000477","852666.5","","","","","","","","","","","","8","","stimuli/stars_8.png","197.5","","","","","stimuli/AM09_DO.jpg","",""
"explore-choice","131","850518","0.0-131.0","p819195","A3NRIEMOJVVX4A","3UUIU9GZC6BQMHTLWW3KSJ0W7IE5TB","3R9WASFE21MHXAT3Y2ACP3NF0J6ZFL","emotion","mismatch","uniform","","","","","","","588.9000000953674","852667.0999999046","853256","[""stimuli/AM09_SUR.jpg"",""stimuli/WF11_DO.jpg"",""stimuli/HF02_SC.jpg"",""stimuli/HF10_FO.jpg""]","stimuli/AM09_SUR.jpg","stimuli/WF11_DO.jpg","stimuli/HF02_SC.jpg","stimuli/HF10_FO.jpg","pos4","stimuli/HF10_FO.jpg","FO","HF10","3","3","6","4","stimuli/stars_6.png","200.5","[""SUR"",""DO"",""SC"",""FO""]","[""AM09"",""WF11"",""HF02"",""HF10""]","[9,0,4,6]","[8,2,6,4]","","",""
"show-reward","132","852521","0.0-132.0","p819195","A3NRIEMOJVVX4A","3UUIU9GZC6BQMHTLWW3KSJ0W7IE5TB","3R9WASFE21MHXAT3Y2ACP3NF0J6ZFL","emotion","mismatch","uniform","","","","","","","","853758.2000000477","855760.2999999523","","","","","","","","","","","","6","","stimuli/stars_6.png","200.5","","","","","stimuli/HF10_FO.jpg","",""
"explore-choice","133","853717","0.0-133.0","p819195","A3NRIEMOJVVX4A","3UUIU9GZC6BQMHTLWW3KSJ0W7IE5TB","3R9WASFE21MHXAT3Y2ACP3NF0J6ZFL","emotion","mismatch","uniform","","","","","","","694.2999999523163","855761.7999999523","856456.0999999046","[""stimuli/WF11_SUR.jpg"",""stimuli/AM09_FO.jpg"",""stimuli/HF02_SC.jpg"",""stimuli/HF10_DO.jpg""]","stimuli/WF11_SUR.jpg","stimuli/AM09_FO.jpg","stimuli/HF02_SC.jpg","stimuli/HF10_DO.jpg","pos2","stimuli/AM09_FO.jpg","FO","AM09","1","4","8","8","stimuli/stars_8.png","204.5","[""SUR"",""FO"",""SC"",""DO""]","[""WF11"",""AM09"",""HF02"",""HF10""]","[3,8,7,3]","[2,8,6,4]","","",""
"show-reward","134","855731","0.0-134.0","p819195","A3NRIEMOJVVX4A","3UUIU9GZC6BQMHTLWW3KSJ0W7IE5TB","3R9WASFE21MHXAT3Y2ACP3NF0J6ZFL","emotion","mismatch","uniform","","","","","","","","856957.2000000477","858970.4000000954","","","","","","","","","","","","8","","stimuli/stars_8.png","204.5","","","","","stimuli/AM09_FO.jpg","",""
"explore-choice","135","857261","0.0-135.0","p819195","A3NRIEMOJVVX4A","3UUIU9GZC6BQMHTLWW3KSJ0W7IE5TB","3R9WASFE21MHXAT3Y2ACP3NF0J6ZFL","emotion","mismatch","uniform","","","","","","","1028.7999999523163","858971.2999999523","860000.0999999046","[""stimuli/AM09_SUR.jpg"",""stimuli/HF02_DO.jpg"",""stimuli/WF11_FO.jpg"",""stimuli/HF10_SC.jpg""]","stimuli/AM09_SUR.jpg","stimuli/HF02_DO.jpg","stimuli/WF11_FO.jpg","stimuli/HF10_SC.jpg","pos1","stimuli/AM09_SUR.jpg","SUR","AM09","0","4","8","8","stimuli/stars_8.png","208.5","[""SUR"",""DO"",""FO"",""SC""]","[""AM09"",""HF02"",""WF11"",""HF10""]","[8,8,0,4]","[8,6,2,4]","","",""
"show-reward","136","859281","0.0-136.0","p819195","A3NRIEMOJVVX4A","3UUIU9GZC6BQMHTLWW3KSJ0W7IE5TB","3R9WASFE21MHXAT3Y2ACP3NF0J6ZFL","emotion","mismatch","uniform","","","","","","","","860502","862520.2000000477","","","","","","","","","","","","8","","stimuli/stars_8.png","208.5","","","","","stimuli/AM09_SUR.jpg","",""
"explore-choice","137","860502","0.0-137.0","p819195","A3NRIEMOJVVX4A","3UUIU9GZC6BQMHTLWW3KSJ0W7IE5TB","3R9WASFE21MHXAT3Y2ACP3NF0J6ZFL","emotion","mismatch","uniform","","","","","","","709.6999998092651","862522.4000000954","863232.0999999046","[""stimuli/HF10_FO.jpg"",""stimuli/AM09_DO.jpg"",""stimuli/WF11_SC.jpg"",""stimuli/HF02_SUR.jpg""]","stimuli/HF10_FO.jpg","stimuli/AM09_DO.jpg","stimuli/WF11_SC.jpg","stimuli/HF02_SUR.jpg","pos2","stimuli/AM09_DO.jpg","DO","AM09","1","4","8","8","stimuli/stars_8.png","212.5","[""FO"",""DO"",""SC"",""SUR""]","[""HF10"",""AM09"",""WF11"",""HF02""]","[2,8,3,5]","[4,8,2,6]","","",""
"show-reward","138","862507","0.0-138.0","p819195","A3NRIEMOJVVX4A","3UUIU9GZC6BQMHTLWW3KSJ0W7IE5TB","3R9WASFE21MHXAT3Y2ACP3NF0J6ZFL","emotion","mismatch","uniform","","","","","","","","863742.9000000954","865746.2000000477","","","","","","","","","","","","8","","stimuli/stars_8.png","212.5","","","","","stimuli/AM09_DO.jpg","",""
"explore-choice","139","863494","0.0-139.0","p819195","A3NRIEMOJVVX4A","3UUIU9GZC6BQMHTLWW3KSJ0W7IE5TB","3R9WASFE21MHXAT3Y2ACP3NF0J6ZFL","emotion","mismatch","uniform","","","","","","","484.59999990463257","865747.7000000477","866232.2999999523","[""stimuli/WF11_DO.jpg"",""stimuli/HF02_SC.jpg"",""stimuli/HF10_SUR.jpg"",""stimuli/AM09_FO.jpg""]","stimuli/WF11_DO.jpg","stimuli/HF02_SC.jpg","stimuli/HF10_SUR.jpg","stimuli/AM09_FO.jpg","pos3","stimuli/HF10_SUR.jpg","SUR","HF10","2","1","2","4","stimuli/stars_2.png","213.5","[""DO"",""SC"",""SUR"",""FO""]","[""WF11"",""HF02"",""HF10"",""AM09""]","[0,4,2,9]","[2,6,4,8]","","",""
"show-reward","140","865500","0.0-140.0","p819195","A3NRIEMOJVVX4A","3UUIU9GZC6BQMHTLWW3KSJ0W7IE5TB","3R9WASFE21MHXAT3Y2ACP3NF0J6ZFL","emotion","mismatch","uniform","","","","","","","","866735.4000000954","868739.2000000477","","","","","","","","","","","","2","","stimuli/stars_2.png","213.5","","","","","stimuli/HF10_SUR.jpg","",""
"explore-choice","141","866520","0.0-141.0","p819195","A3NRIEMOJVVX4A","3UUIU9GZC6BQMHTLWW3KSJ0W7IE5TB","3R9WASFE21MHXAT3Y2ACP3NF0J6ZFL","emotion","mismatch","uniform","","","","","","","514.7999999523163","868741.2000000477","869256","[""stimuli/HF10_DO.jpg"",""stimuli/AM09_SUR.jpg"",""stimuli/HF02_FO.jpg"",""stimuli/WF11_SC.jpg""]","stimuli/HF10_DO.jpg","stimuli/AM09_SUR.jpg","stimuli/HF02_FO.jpg","stimuli/WF11_SC.jpg","pos2","stimuli/AM09_SUR.jpg","SUR","AM09","1","4.5","9","8","stimuli/stars_9.png","218","[""DO"",""SUR"",""FO"",""SC""]","[""HF10"",""AM09"",""HF02"",""WF11""]","[3,9,6,1]","[4,8,6,2]","","",""
"show-reward","142","868526","0.0-142.0","p819195","A3NRIEMOJVVX4A","3UUIU9GZC6BQMHTLWW3KSJ0W7IE5TB","3R9WASFE21MHXAT3Y2ACP3NF0J6ZFL","emotion","mismatch","uniform","","","","","","","","869761.7999999523","871765.2999999523","","","","","","","","","","","","9","","stimuli/stars_9.png","218","","","","","stimuli/AM09_SUR.jpg","",""
"explore-choice","143","869572","0.0-143.0","p819195","A3NRIEMOJVVX4A","3UUIU9GZC6BQMHTLWW3KSJ0W7IE5TB","3R9WASFE21MHXAT3Y2ACP3NF0J6ZFL","emotion","mismatch","uniform","","","","","","","537.2999999523163","871766.7000000477","872304","[""stimuli/HF10_FO.jpg"",""stimuli/HF02_SUR.jpg"",""stimuli/WF11_DO.jpg"",""stimuli/AM09_SC.jpg""]","stimuli/HF10_FO.jpg","stimuli/HF02_SUR.jpg","stimuli/WF11_DO.jpg","stimuli/AM09_SC.jpg","pos1","stimuli/HF10_FO.jpg","FO","HF10","0","1","2","4","stimuli/stars_2.png","219","[""FO"",""SUR"",""DO"",""SC""]","[""HF10"",""HF02"",""WF11"",""AM09""]","[2,5,2,8]","[4,6,2,8]","","",""
"show-reward","144","871587","0.0-144.0","p819195","A3NRIEMOJVVX4A","3UUIU9GZC6BQMHTLWW3KSJ0W7IE5TB","3R9WASFE21MHXAT3Y2ACP3NF0J6ZFL","emotion","mismatch","uniform","","","","","","","","872813.0999999046","874826","","","","","","","","","","","","2","","stimuli/stars_2.png","219","","","","","stimuli/HF10_FO.jpg","",""
"explore-choice","145","872541","0.0-145.0","p819195","A3NRIEMOJVVX4A","3UUIU9GZC6BQMHTLWW3KSJ0W7IE5TB","3R9WASFE21MHXAT3Y2ACP3NF0J6ZFL","emotion","mismatch","uniform","","","","","","","451.2999999523163","874828.7000000477","875280","[""stimuli/HF10_SC.jpg"",""stimuli/AM09_SUR.jpg"",""stimuli/HF02_FO.jpg"",""stimuli/WF11_DO.jpg""]","stimuli/HF10_SC.jpg","stimuli/AM09_SUR.jpg","stimuli/HF02_FO.jpg","stimuli/WF11_DO.jpg","pos4","stimuli/WF11_DO.jpg","DO","WF11","3","0.5","1","2","stimuli/stars_1.png","219.5","[""SC"",""SUR"",""FO"",""DO""]","[""HF10"",""AM09"",""HF02"",""WF11""]","[5,8,6,1]","[4,8,6,2]","","",""
"show-reward","146","874549","0.0-146.0","p819195","A3NRIEMOJVVX4A","3UUIU9GZC6BQMHTLWW3KSJ0W7IE5TB","3R9WASFE21MHXAT3Y2ACP3NF0J6ZFL","emotion","mismatch","uniform","","","","","","","","875782.0999999046","877788.2000000477","","","","","","","","","","","","1","","stimuli/stars_1.png","219.5","","","","","stimuli/WF11_DO.jpg","",""
"explore-choice","147","875597","0.0-147.0","p819195","A3NRIEMOJVVX4A","3UUIU9GZC6BQMHTLWW3KSJ0W7IE5TB","3R9WASFE21MHXAT3Y2ACP3NF0J6ZFL","emotion","mismatch","uniform","","","","","","","546","877790","878336","[""stimuli/HF02_SUR.jpg"",""stimuli/WF11_FO.jpg"",""stimuli/AM09_DO.jpg"",""stimuli/HF10_SC.jpg""]","stimuli/HF02_SUR.jpg","stimuli/WF11_FO.jpg","stimuli/AM09_DO.jpg","stimuli/HF10_SC.jpg","pos2","stimuli/WF11_FO.jpg","FO","WF11","1","1.5","3","2","stimuli/stars_3.png","221","[""SUR"",""FO"",""DO"",""SC""]","[""HF02"",""WF11"",""AM09"",""HF10""]","[7,3,10,4]","[6,2,8,4]","","",""
"show-reward","148","877617","0.0-148.0","p819195","A3NRIEMOJVVX4A","3UUIU9GZC6BQMHTLWW3KSJ0W7IE5TB","3R9WASFE21MHXAT3Y2ACP3NF0J6ZFL","emotion","mismatch","uniform","","","","","","","","878838.2000000477","880855.2999999523","","","","","","","","","","","","3","","stimuli/stars_3.png","221","","","","","stimuli/WF11_FO.jpg","",""
"explore-choice","149","878708","0.0-149.0","p819195","A3NRIEMOJVVX4A","3UUIU9GZC6BQMHTLWW3KSJ0W7IE5TB","3R9WASFE21MHXAT3Y2ACP3NF0J6ZFL","emotion","mismatch","uniform","","","","","","","581.7000000476837","880858","881439.7000000477","[""stimuli/WF11_FO.jpg"",""stimuli/HF10_DO.jpg"",""stimuli/HF02_SUR.jpg"",""stimuli/AM09_SC.jpg""]","stimuli/WF11_FO.jpg","stimuli/HF10_DO.jpg","stimuli/HF02_SUR.jpg","stimuli/AM09_SC.jpg","pos3","stimuli/HF02_SUR.jpg","SUR","HF02","2","3.5","7","6","stimuli/stars_7.png","224.5","[""FO"",""DO"",""SUR"",""SC""]","[""WF11"",""HF10"",""HF02"",""AM09""]","[4,6,7,10]","[2,4,6,8]","","",""
"show-reward","150","880719","0.0-150.0","p819195","A3NRIEMOJVVX4A","3UUIU9GZC6BQMHTLWW3KSJ0W7IE5TB","3R9WASFE21MHXAT3Y2ACP3NF0J6ZFL","emotion","mismatch","uniform","","","","","","","","881949.0999999046","883957.7000000477","","","","","","","","","","","","7","","stimuli/stars_7.png","224.5","","","","","stimuli/HF02_SUR.jpg","",""
"explore-choice","151","881931","0.0-151.0","p819195","A3NRIEMOJVVX4A","3UUIU9GZC6BQMHTLWW3KSJ0W7IE5TB","3R9WASFE21MHXAT3Y2ACP3NF0J6ZFL","emotion","mismatch","uniform","","","","","","","704.2999999523163","883959.7000000477","884664","[""stimuli/WF11_FO.jpg"",""stimuli/HF10_SC.jpg"",""stimuli/HF02_SUR.jpg"",""stimuli/AM09_DO.jpg""]","stimuli/WF11_FO.jpg","stimuli/HF10_SC.jpg","stimuli/HF02_SUR.jpg","stimuli/AM09_DO.jpg","pos3","stimuli/HF02_SUR.jpg","SUR","HF02","2","3.5","7","6","stimuli/stars_7.png","228","[""FO"",""SC"",""SUR"",""DO""]","[""WF11"",""HF10"",""HF02"",""AM09""]","[3,4,7,10]","[2,4,6,8]","","",""
"show-reward","152","883948","0.0-152.0","p819195","A3NRIEMOJVVX4A","3UUIU9GZC6BQMHTLWW3KSJ0W7IE5TB","3R9WASFE21MHXAT3Y2ACP3NF0J6ZFL","emotion","mismatch","uniform","","","","","","","","885171.4000000954","887187.2999999523","","","","","","","","","","","","7","","stimuli/stars_7.png","228","","","","","stimuli/HF02_SUR.jpg","",""
"explore-choice","153","885453","0.0-153.0","p819195","A3NRIEMOJVVX4A","3UUIU9GZC6BQMHTLWW3KSJ0W7IE5TB","3R9WASFE21MHXAT3Y2ACP3NF0J6ZFL","emotion","mismatch","uniform","","","","","","","1003","887189.0999999046","888192.0999999046","[""stimuli/HF02_DO.jpg"",""stimuli/HF10_SC.jpg"",""stimuli/WF11_SUR.jpg"",""stimuli/AM09_FO.jpg""]","stimuli/HF02_DO.jpg","stimuli/HF10_SC.jpg","stimuli/WF11_SUR.jpg","stimuli/AM09_FO.jpg","pos1","stimuli/HF02_DO.jpg","DO","HF02","0","4","8","6","stimuli/stars_8.png","232","[""DO"",""SC"",""SUR"",""FO""]","[""HF02"",""HF10"",""WF11"",""AM09""]","[8,2,1,7]","[6,4,2,8]","","",""
"show-reward","154","887466","0.0-154.0","p819195","A3NRIEMOJVVX4A","3UUIU9GZC6BQMHTLWW3KSJ0W7IE5TB","3R9WASFE21MHXAT3Y2ACP3NF0J6ZFL","emotion","mismatch","uniform","","","","","","","","888694","890705.0999999046","","","","","","","","","","","","8","","stimuli/stars_8.png","232","","","","","stimuli/HF02_DO.jpg","",""
"explore-choice","155","888621","0.0-155.0","p819195","A3NRIEMOJVVX4A","3UUIU9GZC6BQMHTLWW3KSJ0W7IE5TB","3R9WASFE21MHXAT3Y2ACP3NF0J6ZFL","emotion","mismatch","uniform","","","","","","","653.9000000953674","890706.0999999046","891360","[""stimuli/HF02_FO.jpg"",""stimuli/WF11_SUR.jpg"",""stimuli/AM09_SC.jpg"",""stimuli/HF10_DO.jpg""]","stimuli/HF02_FO.jpg","stimuli/WF11_SUR.jpg","stimuli/AM09_SC.jpg","stimuli/HF10_DO.jpg","pos1","stimuli/HF02_FO.jpg","FO","HF02","0","4","8","6","stimuli/stars_8.png","236","[""FO"",""SUR"",""SC"",""DO""]","[""HF02"",""WF11"",""AM09"",""HF10""]","[8,3,10,5]","[6,2,8,4]","","",""
"show-reward","156","890642","0.0-156.0","p819195","A3NRIEMOJVVX4A","3UUIU9GZC6BQMHTLWW3KSJ0W7IE5TB","3R9WASFE21MHXAT3Y2ACP3NF0J6ZFL","emotion","mismatch","uniform","","","","","","","","891862.0999999046","893881.5","","","","","","","","","","","","8","","stimuli/stars_8.png","236","","","","","stimuli/HF02_FO.jpg","",""
"explore-choice","157","892064","0.0-157.0","p819195","A3NRIEMOJVVX4A","3UUIU9GZC6BQMHTLWW3KSJ0W7IE5TB","3R9WASFE21MHXAT3Y2ACP3NF0J6ZFL","emotion","mismatch","uniform","","","","","","","916.6000001430511","893883.2999999523","894799.9000000954","[""stimuli/HF10_FO.jpg"",""stimuli/WF11_SUR.jpg"",""stimuli/AM09_SC.jpg"",""stimuli/HF02_DO.jpg""]","stimuli/HF10_FO.jpg","stimuli/WF11_SUR.jpg","stimuli/AM09_SC.jpg","stimuli/HF02_DO.jpg","pos4","stimuli/HF02_DO.jpg","DO","HF02","3","2","4","6","stimuli/stars_4.png","238","[""FO"",""SUR"",""SC"",""DO""]","[""HF10"",""WF11"",""AM09"",""HF02""]","[2,4,10,4]","[4,2,8,6]","","",""
"show-reward","158","894067","0.0-158.0","p819195","A3NRIEMOJVVX4A","3UUIU9GZC6BQMHTLWW3KSJ0W7IE5TB","3R9WASFE21MHXAT3Y2ACP3NF0J6ZFL","emotion","mismatch","uniform","","","","","","","","895304.5999999046","897306.2000000477","","","","","","","","","","","","4","","stimuli/stars_4.png","238","","","","","stimuli/HF02_DO.jpg","",""
"explore-choice","159","895245","0.0-159.0","p819195","A3NRIEMOJVVX4A","3UUIU9GZC6BQMHTLWW3KSJ0W7IE5TB","3R9WASFE21MHXAT3Y2ACP3NF0J6ZFL","emotion","mismatch","uniform","","","","","","","675.9000000953674","897308.0999999046","897984","[""stimuli/HF02_FO.jpg"",""stimuli/AM09_DO.jpg"",""stimuli/HF10_SC.jpg"",""stimuli/WF11_SUR.jpg""]","stimuli/HF02_FO.jpg","stimuli/AM09_DO.jpg","stimuli/HF10_SC.jpg","stimuli/WF11_SUR.jpg","pos1","stimuli/HF02_FO.jpg","FO","HF02","0","4","8","6","stimuli/stars_8.png","242","[""FO"",""DO"",""SC"",""SUR""]","[""HF02"",""AM09"",""HF10"",""WF11""]","[8,10,5,3]","[6,8,4,2]","","",""
"show-reward","160","897258","0.0-160.0","p819195","A3NRIEMOJVVX4A","3UUIU9GZC6BQMHTLWW3KSJ0W7IE5TB","3R9WASFE21MHXAT3Y2ACP3NF0J6ZFL","emotion","mismatch","uniform","","","","","","","","898485.7999999523","900497.2999999523","","","","","","","","","","","","8","","stimuli/stars_8.png","242","","","","","stimuli/HF02_FO.jpg","",""
"explore-choice","161","898813","0.0-161.0","p819195","A3NRIEMOJVVX4A","3UUIU9GZC6BQMHTLWW3KSJ0W7IE5TB","3R9WASFE21MHXAT3Y2ACP3NF0J6ZFL","emotion","mismatch","uniform","","","","","","","1053.0999999046326","900498.9000000954","901552","[""stimuli/HF10_FO.jpg"",""stimuli/AM09_DO.jpg"",""stimuli/WF11_SC.jpg"",""stimuli/HF02_SUR.jpg""]","stimuli/HF10_FO.jpg","stimuli/AM09_DO.jpg","stimuli/WF11_SC.jpg","stimuli/HF02_SUR.jpg","pos2","stimuli/AM09_DO.jpg","DO","AM09","1","4","8","8","stimuli/stars_8.png","246","[""FO"",""DO"",""SC"",""SUR""]","[""HF10"",""AM09"",""WF11"",""HF02""]","[2,8,3,5]","[4,8,2,6]","","",""
"show-reward","162","900819","0.0-162.0","p819195","A3NRIEMOJVVX4A","3UUIU9GZC6BQMHTLWW3KSJ0W7IE5TB","3R9WASFE21MHXAT3Y2ACP3NF0J6ZFL","emotion","mismatch","uniform","","","","","","","","902054.4000000954","904059","","","","","","","","","","","","8","","stimuli/stars_8.png","246","","","","","stimuli/AM09_DO.jpg","",""
"explore-choice","163","901957","0.0-163.0","p819195","A3NRIEMOJVVX4A","3UUIU9GZC6BQMHTLWW3KSJ0W7IE5TB","3R9WASFE21MHXAT3Y2ACP3NF0J6ZFL","emotion","mismatch","uniform","","","","","","","635.6999998092651","904060.4000000954","904696.0999999046","[""stimuli/AM09_SUR.jpg"",""stimuli/HF10_FO.jpg"",""stimuli/WF11_SC.jpg"",""stimuli/HF02_DO.jpg""]","stimuli/AM09_SUR.jpg","stimuli/HF10_FO.jpg","stimuli/WF11_SC.jpg","stimuli/HF02_DO.jpg","pos4","stimuli/HF02_DO.jpg","DO","HF02","3","2","4","6","stimuli/stars_4.png","248","[""SUR"",""FO"",""SC"",""DO""]","[""AM09"",""HF10"",""WF11"",""HF02""]","[8,4,1,4]","[8,4,2,6]","","",""
"show-reward","164","903963","0.0-164.0","p819195","A3NRIEMOJVVX4A","3UUIU9GZC6BQMHTLWW3KSJ0W7IE5TB","3R9WASFE21MHXAT3Y2ACP3NF0J6ZFL","emotion","mismatch","uniform","","","","","","","","905197.7999999523","907201.9000000954","","","","","","","","","","","","4","","stimuli/stars_4.png","248","","","","","stimuli/HF02_DO.jpg","",""
"explore-choice","165","905149","0.0-165.0","p819195","A3NRIEMOJVVX4A","3UUIU9GZC6BQMHTLWW3KSJ0W7IE5TB","3R9WASFE21MHXAT3Y2ACP3NF0J6ZFL","emotion","mismatch","uniform","","","","","","","684.2000000476837","907203.7000000477","907887.9000000954","[""stimuli/HF10_DO.jpg"",""stimuli/HF02_SC.jpg"",""stimuli/AM09_SUR.jpg"",""stimuli/WF11_FO.jpg""]","stimuli/HF10_DO.jpg","stimuli/HF02_SC.jpg","stimuli/AM09_SUR.jpg","stimuli/WF11_FO.jpg","pos1","stimuli/HF10_DO.jpg","DO","HF10","0","1","2","4","stimuli/stars_2.png","249","[""DO"",""SC"",""SUR"",""FO""]","[""HF10"",""HF02"",""AM09"",""WF11""]","[2,8,6,1]","[4,6,8,2]","","",""
"show-reward","166","907151","0.0-166.0","p819195","A3NRIEMOJVVX4A","3UUIU9GZC6BQMHTLWW3KSJ0W7IE5TB","3R9WASFE21MHXAT3Y2ACP3NF0J6ZFL","emotion","mismatch","uniform","","","","","","","","908389.4000000954","910390.9000000954","","","","","","","","","","","","2","","stimuli/stars_2.png","249","","","","","stimuli/HF10_DO.jpg","",""
"explore-choice","167","908333","0.0-167.0","p819195","A3NRIEMOJVVX4A","3UUIU9GZC6BQMHTLWW3KSJ0W7IE5TB","3R9WASFE21MHXAT3Y2ACP3NF0J6ZFL","emotion","mismatch","uniform","","","","","","","679","910392.9000000954","911071.9000000954","[""stimuli/HF02_FO.jpg"",""stimuli/WF11_SC.jpg"",""stimuli/AM09_DO.jpg"",""stimuli/HF10_SUR.jpg""]","stimuli/HF02_FO.jpg","stimuli/WF11_SC.jpg","stimuli/AM09_DO.jpg","stimuli/HF10_SUR.jpg","pos2","stimuli/WF11_SC.jpg","SC","WF11","1","0.5","1","2","stimuli/stars_1.png","249.5","[""FO"",""SC"",""DO"",""SUR""]","[""HF02"",""WF11"",""AM09"",""HF10""]","[6,1,7,3]","[6,2,8,4]","","",""
"show-reward","168","910339","0.0-168.0","p819195","A3NRIEMOJVVX4A","3UUIU9GZC6BQMHTLWW3KSJ0W7IE5TB","3R9WASFE21MHXAT3Y2ACP3NF0J6ZFL","emotion","mismatch","uniform","","","","","","","","911574","913578","","","","","","","","","","","","1","","stimuli/stars_1.png","249.5","","","","","stimuli/WF11_SC.jpg","",""
"explore-choice","169","911525","0.0-169.0","p819195","A3NRIEMOJVVX4A","3UUIU9GZC6BQMHTLWW3KSJ0W7IE5TB","3R9WASFE21MHXAT3Y2ACP3NF0J6ZFL","emotion","mismatch","uniform","","","","","","","683.9000000953674","913580.0999999046","914264","[""stimuli/HF02_SUR.jpg"",""stimuli/AM09_FO.jpg"",""stimuli/WF11_DO.jpg"",""stimuli/HF10_SC.jpg""]","stimuli/HF02_SUR.jpg","stimuli/AM09_FO.jpg","stimuli/WF11_DO.jpg","stimuli/HF10_SC.jpg","pos1","stimuli/HF02_SUR.jpg","SUR","HF02","0","2.5","5","6","stimuli/stars_5.png","252","[""SUR"",""FO"",""DO"",""SC""]","[""HF02"",""AM09"",""WF11"",""HF10""]","[5,8,3,5]","[6,8,2,4]","","",""
"show-reward","170","913530","0.0-170.0","p819195","A3NRIEMOJVVX4A","3UUIU9GZC6BQMHTLWW3KSJ0W7IE5TB","3R9WASFE21MHXAT3Y2ACP3NF0J6ZFL","emotion","mismatch","uniform","","","","","","","","914766","916769.7999999523","","","","","","","","","","","","5","","stimuli/stars_5.png","252","","","","","stimuli/HF02_SUR.jpg","",""
"explore-choice","171","914861","0.0-171.0","p819195","A3NRIEMOJVVX4A","3UUIU9GZC6BQMHTLWW3KSJ0W7IE5TB","3R9WASFE21MHXAT3Y2ACP3NF0J6ZFL","emotion","mismatch","uniform","","","","","","","828.5","916771.4000000954","917599.9000000954","[""stimuli/AM09_DO.jpg"",""stimuli/WF11_SUR.jpg"",""stimuli/HF02_SC.jpg"",""stimuli/HF10_FO.jpg""]","stimuli/AM09_DO.jpg","stimuli/WF11_SUR.jpg","stimuli/HF02_SC.jpg","stimuli/HF10_FO.jpg","pos1","stimuli/AM09_DO.jpg","DO","AM09","0","4","8","8","stimuli/stars_8.png","256","[""DO"",""SUR"",""SC"",""FO""]","[""AM09"",""WF11"",""HF02"",""HF10""]","[8,0,8,4]","[8,2,6,4]","","",""
"show-reward","172","916865","0.0-172.0","p819195","A3NRIEMOJVVX4A","3UUIU9GZC6BQMHTLWW3KSJ0W7IE5TB","3R9WASFE21MHXAT3Y2ACP3NF0J6ZFL","emotion","mismatch","uniform","","","","","","","","918101.5999999046","920104.0999999046","","","","","","","","","","","","8","","stimuli/stars_8.png","256","","","","","stimuli/AM09_DO.jpg","",""
"explore-choice","173","918317","0.0-173.0","p819195","A3NRIEMOJVVX4A","3UUIU9GZC6BQMHTLWW3KSJ0W7IE5TB","3R9WASFE21MHXAT3Y2ACP3NF0J6ZFL","emotion","mismatch","uniform","","","","","","","950.1999998092651","920105.4000000954","921055.5999999046","[""stimuli/HF10_SUR.jpg"",""stimuli/AM09_SC.jpg"",""stimuli/WF11_DO.jpg"",""stimuli/HF02_FO.jpg""]","stimuli/HF10_SUR.jpg","stimuli/AM09_SC.jpg","stimuli/WF11_DO.jpg","stimuli/HF02_FO.jpg","pos4","stimuli/HF02_FO.jpg","FO","HF02","3","3","6","6","stimuli/stars_6.png","259","[""SUR"",""SC"",""DO"",""FO""]","[""HF10"",""AM09"",""WF11"",""HF02""]","[3,8,2,6]","[4,8,2,6]","","",""
"show-reward","174","920331","0.0-174.0","p819195","A3NRIEMOJVVX4A","3UUIU9GZC6BQMHTLWW3KSJ0W7IE5TB","3R9WASFE21MHXAT3Y2ACP3NF0J6ZFL","emotion","mismatch","uniform","","","","","","","","921558","923570.4000000954","","","","","","","","","","","","6","","stimuli/stars_6.png","259","","","","","stimuli/HF02_FO.jpg","",""
"explore-choice","175","921765","0.0-175.0","p819195","A3NRIEMOJVVX4A","3UUIU9GZC6BQMHTLWW3KSJ0W7IE5TB","3R9WASFE21MHXAT3Y2ACP3NF0J6ZFL","emotion","mismatch","uniform","","","","","","","931.5","923572.2999999523","924503.7999999523","[""stimuli/HF02_DO.jpg"",""stimuli/HF10_SC.jpg"",""stimuli/WF11_FO.jpg"",""stimuli/AM09_SUR.jpg""]","stimuli/HF02_DO.jpg","stimuli/HF10_SC.jpg","stimuli/WF11_FO.jpg","stimuli/AM09_SUR.jpg","pos4","stimuli/AM09_SUR.jpg","SUR","AM09","3","4","8","8","stimuli/stars_8.png","263","[""DO"",""SC"",""FO"",""SUR""]","[""HF02"",""HF10"",""WF11"",""AM09""]","[8,4,0,8]","[6,4,2,8]","","",""
"show-reward","176","923775","0.0-176.0","p819195","A3NRIEMOJVVX4A","3UUIU9GZC6BQMHTLWW3KSJ0W7IE5TB","3R9WASFE21MHXAT3Y2ACP3NF0J6ZFL","emotion","mismatch","uniform","","","","","","","","925006","927014.0999999046","","","","","","","","","","","","8","","stimuli/stars_8.png","263","","","","","stimuli/AM09_SUR.jpg","",""
"explore-choice","177","925029","0.0-177.0","p819195","A3NRIEMOJVVX4A","3UUIU9GZC6BQMHTLWW3KSJ0W7IE5TB","3R9WASFE21MHXAT3Y2ACP3NF0J6ZFL","emotion","mismatch","uniform","","","","","","","751.1000001430511","927016.7999999523","927767.9000000954","[""stimuli/AM09_FO.jpg"",""stimuli/WF11_SC.jpg"",""stimuli/HF10_SUR.jpg"",""stimuli/HF02_DO.jpg""]","stimuli/AM09_FO.jpg","stimuli/WF11_SC.jpg","stimuli/HF10_SUR.jpg","stimuli/HF02_DO.jpg","pos1","stimuli/AM09_FO.jpg","FO","AM09","0","3.5","7","8","stimuli/stars_7.png","266.5","[""FO"",""SC"",""SUR"",""DO""]","[""AM09"",""WF11"",""HF10"",""HF02""]","[7,2,3,4]","[8,2,4,6]","","",""
"show-reward","178","927033","0.0-178.0","p819195","A3NRIEMOJVVX4A","3UUIU9GZC6BQMHTLWW3KSJ0W7IE5TB","3R9WASFE21MHXAT3Y2ACP3NF0J6ZFL","emotion","mismatch","uniform","","","","","","","","928269.5","930272.5999999046","","","","","","","","","","","","7","","stimuli/stars_7.png","266.5","","","","","stimuli/AM09_FO.jpg","",""
"explore-choice","179","928434","0.0-179.0","p819195","A3NRIEMOJVVX4A","3UUIU9GZC6BQMHTLWW3KSJ0W7IE5TB","3R9WASFE21MHXAT3Y2ACP3NF0J6ZFL","emotion","mismatch","uniform","","","","","","","893.6000001430511","930274.2999999523","931167.9000000954","[""stimuli/HF02_FO.jpg"",""stimuli/AM09_SUR.jpg"",""stimuli/HF10_SC.jpg"",""stimuli/WF11_DO.jpg""]","stimuli/HF02_FO.jpg","stimuli/AM09_SUR.jpg","stimuli/HF10_SC.jpg","stimuli/WF11_DO.jpg","pos1","stimuli/HF02_FO.jpg","FO","HF02","0","3","6","6","stimuli/stars_6.png","269.5","[""FO"",""SUR"",""SC"",""DO""]","[""HF02"",""AM09"",""HF10"",""WF11""]","[6,8,5,1]","[6,8,4,2]","","",""
"show-reward","180","930446","0.0-180.0","p819195","A3NRIEMOJVVX4A","3UUIU9GZC6BQMHTLWW3KSJ0W7IE5TB","3R9WASFE21MHXAT3Y2ACP3NF0J6ZFL","emotion","mismatch","uniform","","","","","","","","931675.2999999523","933685.2000000477","","","","","","","","","","","","6","","stimuli/stars_6.png","269.5","","","","","stimuli/HF02_FO.jpg","",""
"explore-choice","181","932243","0.0-181.0","p819195","A3NRIEMOJVVX4A","3UUIU9GZC6BQMHTLWW3KSJ0W7IE5TB","3R9WASFE21MHXAT3Y2ACP3NF0J6ZFL","emotion","mismatch","uniform","","","","","","","1288.8000001907349","933687.0999999046","934975.9000000954","[""stimuli/HF10_DO.jpg"",""stimuli/AM09_SC.jpg"",""stimuli/HF02_SUR.jpg"",""stimuli/WF11_FO.jpg""]","stimuli/HF10_DO.jpg","stimuli/AM09_SC.jpg","stimuli/HF02_SUR.jpg","stimuli/WF11_FO.jpg","pos3","stimuli/HF02_SUR.jpg","SUR","HF02","2","3.5","7","6","stimuli/stars_7.png","273","[""DO"",""SC"",""SUR"",""FO""]","[""HF10"",""AM09"",""HF02"",""WF11""]","[6,10,7,4]","[4,8,6,2]","","",""
"show-reward","182","934251","0.0-182.0","p819195","A3NRIEMOJVVX4A","3UUIU9GZC6BQMHTLWW3KSJ0W7IE5TB","3R9WASFE21MHXAT3Y2ACP3NF0J6ZFL","emotion","mismatch","uniform","","","","","","","","935484.5","937490.7999999523","","","","","","","","","","","","7","","stimuli/stars_7.png","273","","","","","stimuli/HF02_SUR.jpg","",""
"explore-choice","183","935800","0.0-183.0","p819195","A3NRIEMOJVVX4A","3UUIU9GZC6BQMHTLWW3KSJ0W7IE5TB","3R9WASFE21MHXAT3Y2ACP3NF0J6ZFL","emotion","mismatch","uniform","","","","","","","1043.2000000476837","937492.7000000477","938535.9000000954","[""stimuli/HF02_FO.jpg"",""stimuli/AM09_SUR.jpg"",""stimuli/WF11_SC.jpg"",""stimuli/HF10_DO.jpg""]","stimuli/HF02_FO.jpg","stimuli/AM09_SUR.jpg","stimuli/WF11_SC.jpg","stimuli/HF10_DO.jpg","pos1","stimuli/HF02_FO.jpg","FO","HF02","0","3","6","6","stimuli/stars_6.png","276","[""FO"",""SUR"",""SC"",""DO""]","[""HF02"",""AM09"",""WF11"",""HF10""]","[6,9,1,3]","[6,8,2,4]","","",""
"show-reward","184","937821","0.0-184.0","p819195","A3NRIEMOJVVX4A","3UUIU9GZC6BQMHTLWW3KSJ0W7IE5TB","3R9WASFE21MHXAT3Y2ACP3NF0J6ZFL","emotion","mismatch","uniform","","","","","","","","939041.7999999523","941061","","","","","","","","","","","","6","","stimuli/stars_6.png","276","","","","","stimuli/HF02_FO.jpg","",""
"explore-choice","185","939093","0.0-185.0","p819195","A3NRIEMOJVVX4A","3UUIU9GZC6BQMHTLWW3KSJ0W7IE5TB","3R9WASFE21MHXAT3Y2ACP3NF0J6ZFL","emotion","mismatch","uniform","","","","","","","769.9000000953674","941062","941831.9000000954","[""stimuli/HF02_SC.jpg"",""stimuli/AM09_SUR.jpg"",""stimuli/HF10_FO.jpg"",""stimuli/WF11_DO.jpg""]","stimuli/HF02_SC.jpg","stimuli/AM09_SUR.jpg","stimuli/HF10_FO.jpg","stimuli/WF11_DO.jpg","pos1","stimuli/HF02_SC.jpg","SC","HF02","0","2","4","6","stimuli/stars_4.png","278","[""SC"",""SUR"",""FO"",""DO""]","[""HF02"",""AM09"",""HF10"",""WF11""]","[4,9,6,0]","[6,8,4,2]","","",""
"show-reward","186","941101","0.0-186.0","p819195","A3NRIEMOJVVX4A","3UUIU9GZC6BQMHTLWW3KSJ0W7IE5TB","3R9WASFE21MHXAT3Y2ACP3NF0J6ZFL","emotion","mismatch","uniform","","","","","","","","942334.2999999523","944340","","","","","","","","","","","","4","","stimuli/stars_4.png","278","","","","","stimuli/HF02_SC.jpg","",""
"explore-choice","187","942446","0.0-187.0","p819195","A3NRIEMOJVVX4A","3UUIU9GZC6BQMHTLWW3KSJ0W7IE5TB","3R9WASFE21MHXAT3Y2ACP3NF0J6ZFL","emotion","mismatch","uniform","","","","","","","842.2000000476837","944341.5999999046","945183.7999999523","[""stimuli/AM09_FO.jpg"",""stimuli/WF11_SC.jpg"",""stimuli/HF02_SUR.jpg"",""stimuli/HF10_DO.jpg""]","stimuli/AM09_FO.jpg","stimuli/WF11_SC.jpg","stimuli/HF02_SUR.jpg","stimuli/HF10_DO.jpg","pos1","stimuli/AM09_FO.jpg","FO","AM09","0","5","10","8","stimuli/stars_10.png","283","[""FO"",""SC"",""SUR"",""DO""]","[""AM09"",""WF11"",""HF02"",""HF10""]","[10,4,6,6]","[8,2,6,4]","","",""
"show-reward","188","944461","0.0-188.0","p819195","A3NRIEMOJVVX4A","3UUIU9GZC6BQMHTLWW3KSJ0W7IE5TB","3R9WASFE21MHXAT3Y2ACP3NF0J6ZFL","emotion","mismatch","uniform","","","","","","","","945687.0999999046","947700.5999999046","","","","","","","","","","","","10","","stimuli/stars_10.png","283","","","","","stimuli/AM09_FO.jpg","",""
"explore-choice","189","946099","0.0-189.0","p819195","A3NRIEMOJVVX4A","3UUIU9GZC6BQMHTLWW3KSJ0W7IE5TB","3R9WASFE21MHXAT3Y2ACP3NF0J6ZFL","emotion","mismatch","uniform","","","","","","","1129.6000001430511","947702.5999999046","948832.2000000477","[""stimuli/HF10_SUR.jpg"",""stimuli/AM09_SC.jpg"",""stimuli/HF02_DO.jpg"",""stimuli/WF11_FO.jpg""]","stimuli/HF10_SUR.jpg","stimuli/AM09_SC.jpg","stimuli/HF02_DO.jpg","stimuli/WF11_FO.jpg","pos3","stimuli/HF02_DO.jpg","DO","HF02","2","3","6","6","stimuli/stars_6.png","286","[""SUR"",""SC"",""DO"",""FO""]","[""HF10"",""AM09"",""HF02"",""WF11""]","[5,9,6,2]","[4,8,6,2]","","",""
"show-reward","190","948114","0.0-190.0","p819195","A3NRIEMOJVVX4A","3UUIU9GZC6BQMHTLWW3KSJ0W7IE5TB","3R9WASFE21MHXAT3Y2ACP3NF0J6ZFL","emotion","mismatch","uniform","","","","","","","","949340.0999999046","951353.7000000477","","","","","","","","","","","","6","","stimuli/stars_6.png","286","","","","","stimuli/HF02_DO.jpg","",""
"explore-choice","191","949605","0.0-191.0","p819195","A3NRIEMOJVVX4A","3UUIU9GZC6BQMHTLWW3KSJ0W7IE5TB","3R9WASFE21MHXAT3Y2ACP3NF0J6ZFL","emotion","mismatch","uniform","","","","","","","988.6999998092651","951355.4000000954","952344.0999999046","[""stimuli/HF10_DO.jpg"",""stimuli/AM09_FO.jpg"",""stimuli/WF11_SUR.jpg"",""stimuli/HF02_SC.jpg""]","stimuli/HF10_DO.jpg","stimuli/AM09_FO.jpg","stimuli/WF11_SUR.jpg","stimuli/HF02_SC.jpg","pos2","stimuli/AM09_FO.jpg","FO","AM09","1","4","8","8","stimuli/stars_8.png","290","[""DO"",""FO"",""SUR"",""SC""]","[""HF10"",""AM09"",""WF11"",""HF02""]","[3,8,3,7]","[4,8,2,6]","","",""
"show-reward","192","951611","0.0-192.0","p819195","A3NRIEMOJVVX4A","3UUIU9GZC6BQMHTLWW3KSJ0W7IE5TB","3R9WASFE21MHXAT3Y2ACP3NF0J6ZFL","emotion","mismatch","uniform","","","","","","","","952846.2999999523","954850.0999999046","","","","","","","","","","","","8","","stimuli/stars_8.png","290","","","","","stimuli/AM09_FO.jpg","",""
"explore-choice","193","952844","0.0-193.0","p819195","A3NRIEMOJVVX4A","3UUIU9GZC6BQMHTLWW3KSJ0W7IE5TB","3R9WASFE21MHXAT3Y2ACP3NF0J6ZFL","emotion","mismatch","uniform","","","","","","","731.7000000476837","954852.2999999523","955584","[""stimuli/HF02_SC.jpg"",""stimuli/AM09_FO.jpg"",""stimuli/HF10_SUR.jpg"",""stimuli/WF11_DO.jpg""]","stimuli/HF02_SC.jpg","stimuli/AM09_FO.jpg","stimuli/HF10_SUR.jpg","stimuli/WF11_DO.jpg","pos1","stimuli/HF02_SC.jpg","SC","HF02","0","2","4","6","stimuli/stars_4.png","292","[""SC"",""FO"",""SUR"",""DO""]","[""HF02"",""AM09"",""HF10"",""WF11""]","[4,9,2,0]","[6,8,4,2]","","",""
"show-reward","194","954858","0.0-194.0","p819195","A3NRIEMOJVVX4A","3UUIU9GZC6BQMHTLWW3KSJ0W7IE5TB","3R9WASFE21MHXAT3Y2ACP3NF0J6ZFL","emotion","mismatch","uniform","","","","","","","","956085","958097.5999999046","","","","","","","","","","","","4","","stimuli/stars_4.png","292","","","","","stimuli/HF02_SC.jpg","",""
"explore-choice","195","956317","0.0-195.0","p819195","A3NRIEMOJVVX4A","3UUIU9GZC6BQMHTLWW3KSJ0W7IE5TB","3R9WASFE21MHXAT3Y2ACP3NF0J6ZFL","emotion","mismatch","uniform","","","","","","","956.4000000953674","958099.5","959055.9000000954","[""stimuli/WF11_FO.jpg"",""stimuli/AM09_DO.jpg"",""stimuli/HF10_SUR.jpg"",""stimuli/HF02_SC.jpg""]","stimuli/WF11_FO.jpg","stimuli/AM09_DO.jpg","stimuli/HF10_SUR.jpg","stimuli/HF02_SC.jpg","pos4","stimuli/HF02_SC.jpg","SC","HF02","3","4","8","6","stimuli/stars_8.png","296","[""FO"",""DO"",""SUR"",""SC""]","[""WF11"",""AM09"",""HF10"",""HF02""]","[2,7,3,8]","[2,8,4,6]","","",""
"show-reward","196","958328","0.0-196.0","p819195","A3NRIEMOJVVX4A","3UUIU9GZC6BQMHTLWW3KSJ0W7IE5TB","3R9WASFE21MHXAT3Y2ACP3NF0J6ZFL","emotion","mismatch","uniform","","","","","","","","959558.7000000477","961566.9000000954","","","","","","","","","","","","8","","stimuli/stars_8.png","296","","","","","stimuli/HF02_SC.jpg","",""
"explore-choice","197","959773","0.0-197.0","p819195","A3NRIEMOJVVX4A","3UUIU9GZC6BQMHTLWW3KSJ0W7IE5TB","3R9WASFE21MHXAT3Y2ACP3NF0J6ZFL","emotion","mismatch","uniform","","","","","","","942.5999999046326","961569.2000000477","962511.7999999523","[""stimuli/WF11_DO.jpg"",""stimuli/AM09_SC.jpg"",""stimuli/HF02_SUR.jpg"",""stimuli/HF10_FO.jpg""]","stimuli/WF11_DO.jpg","stimuli/AM09_SC.jpg","stimuli/HF02_SUR.jpg","stimuli/HF10_FO.jpg","pos3","stimuli/HF02_SUR.jpg","SUR","HF02","2","2.5","5","6","stimuli/stars_5.png","298.5","[""DO"",""SC"",""SUR"",""FO""]","[""WF11"",""AM09"",""HF02"",""HF10""]","[2,8,5,2]","[2,8,6,4]","","",""
"show-reward","198","961780","0.0-198.0","p819195","A3NRIEMOJVVX4A","3UUIU9GZC6BQMHTLWW3KSJ0W7IE5TB","3R9WASFE21MHXAT3Y2ACP3NF0J6ZFL","emotion","mismatch","uniform","","","","","","","","963014.2000000477","965019.4000000954","","","","","","","","","","","","5","","stimuli/stars_5.png","298.5","","","","","stimuli/HF02_SUR.jpg","",""
"instructions","199","966545","0.0-199.0","p819195","A3NRIEMOJVVX4A","3UUIU9GZC6BQMHTLWW3KSJ0W7IE5TB","3R9WASFE21MHXAT3Y2ACP3NF0J6ZFL","emotion","mismatch","uniform","","","","","","[{""page_index"":0,""viewing_time"":4762.200000047684}]","4762.700000047684","","","","","","","","","","","","","","","","","","","","","","","",""
"survey-text","200","969921","0.0-200.0-0.0","p819195","A3NRIEMOJVVX4A","3UUIU9GZC6BQMHTLWW3KSJ0W7IE5TB","3R9WASFE21MHXAT3Y2ACP3NF0J6ZFL","emotion","mismatch","uniform","","","","","","","3355.399999856949","","","","","","","","","","","","","","","","","","","","","","","{""age"":""39""}",""
"survey-text","201","973665","0.0-200.0-1.0","p819195","A3NRIEMOJVVX4A","3UUIU9GZC6BQMHTLWW3KSJ0W7IE5TB","3R9WASFE21MHXAT3Y2ACP3NF0J6ZFL","emotion","mismatch","uniform","","","","","","","3742.2000000476837","","","","","","","","","","","","","","","","","","","","","","","{""gender"":""male""}",""
"survey-text","202","980224","0.0-200.0-2.0","p819195","A3NRIEMOJVVX4A","3UUIU9GZC6BQMHTLWW3KSJ0W7IE5TB","3R9WASFE21MHXAT3Y2ACP3NF0J6ZFL","emotion","mismatch","uniform","","","","","","","6556.5","","","","","","","","","","","","","","","","","","","","","","","{""country"":""United States""}",""
"survey-text","203","989088","0.0-200.0-3.0","p819195","A3NRIEMOJVVX4A","3UUIU9GZC6BQMHTLWW3KSJ0W7IE5TB","3R9WASFE21MHXAT3Y2ACP3NF0J6ZFL","emotion","mismatch","uniform","","","","","","","8862","","","","","","","","","","","","","","","","","","","","","","","{""language"":""English"",""other_languages"":""Spanish""}",""
"survey-multi-select","204","993841","0.0-201.0","p819195","A3NRIEMOJVVX4A","3UUIU9GZC6BQMHTLWW3KSJ0W7IE5TB","3R9WASFE21MHXAT3Y2ACP3NF0J6ZFL","emotion","mismatch","uniform","","","","","","","4747.600000143051","","","","","","","","","","","","","","","","","","","","","","","{""race"":[""White"",""Native Hawaiian or Other Pacific Islander""]}","[0]"
"survey-multi-choice","205","997905","0.0-202.0","p819195","A3NRIEMOJVVX4A","3UUIU9GZC6BQMHTLWW3KSJ0W7IE5TB","3R9WASFE21MHXAT3Y2ACP3NF0J6ZFL","emotion","mismatch","uniform","","","","","","","4061.899999856949","","","","","","","","","","","","","","","","","","","","","","","{""education"":""Bachelor's degree""}","[0]"
"survey-text","206","1005808","0.0-203.0","p819195","A3NRIEMOJVVX4A","3UUIU9GZC6BQMHTLWW3KSJ0W7IE5TB","3R9WASFE21MHXAT3Y2ACP3NF0J6ZFL","emotion","mismatch","uniform","","","","","","","7814.799999952316","","","","","","","","","","","","","","","","","","","","","","","{""patterns"":""No"",""strategy"":""No"",""comments"":""none""}",""
