"trial_type","trial_index","time_elapsed","internal_node_id","subject","workerId","hitId","assignmentId","structure_condition","match_condition","noise_type","success","timeout","failed_images","failed_audio","failed_video","view_history","rt","start_time","end_time","stimuli","image1","image2","image3","image4","choiceLocation","choiceImage","choiceEmotion","choiceModel","choice_index","reward_score","reward","reward_score_unadjusted","reward_image","score_after_trial","emotions","models","rewards","rewards_unadjusted","stimulus","response","question_order"
"pavlovia","0","16","0.0-0.0","p89799","A2MS1GQLGAX9FZ","3RZS0FBRWLGDTA9TUPH81F59AWHPC0","33CUSNVVNPITYZITHY4T2R9PE7R88F","emotion","match","uniform","","","","","","","","","","","","","","","","","","","","","","","","","","","","","","",""
"preload","1","28282","0.0-1.0","p89799","A2MS1GQLGAX9FZ","3RZS0FBRWLGDTA9TUPH81F59AWHPC0","33CUSNVVNPITYZITHY4T2R9PE7R88F","emotion","match","uniform","true","false","[]","[]","[]","","","","","","","","","","","","","","","","","","","","","","","","","",""
"fullscreen","2","133983","0.0-2.0","p89799","A2MS1GQLGAX9FZ","3RZS0FBRWLGDTA9TUPH81F59AWHPC0","33CUSNVVNPITYZITHY4T2R9PE7R88F","emotion","match","uniform","true","","","","","","","","","","","","","","","","","","","","","","","","","","","","","",""
"instructions","3","135638","0.0-3.0","p89799","A2MS1GQLGAX9FZ","3RZS0FBRWLGDTA9TUPH81F59AWHPC0","33CUSNVVNPITYZITHY4T2R9PE7R88F","emotion","match","uniform","","","","","","[{""page_index"":0,""viewing_time"":1653.1000000014901}]","1653.6000000014901","","","","","","","","","","","","","","","","","","","","","","","",""
"explore-choice","4","138626","0.0-4.0","p89799","A2MS1GQLGAX9FZ","3RZS0FBRWLGDTA9TUPH81F59AWHPC0","33CUSNVVNPITYZITHY4T2R9PE7R88F","emotion","match","uniform","","","","","","","2480.300000000745","142585.30000000075","145065.6000000015","[""stimuli/sheep.jpg"",""stimuli/hammer.jpg"",""stimuli/basketball.jpg"",""stimuli/horse.jpg""]","stimuli/sheep.jpg","stimuli/hammer.jpg","stimuli/basketball.jpg","stimuli/horse.jpg","pos4","stimuli/horse.jpg","","","3","64","64","64","stimuli/stars_8.png","65","","","","","","",""
"explore-choice","5","140430","0.0-5.0","p89799","A2MS1GQLGAX9FZ","3RZS0FBRWLGDTA9TUPH81F59AWHPC0","33CUSNVVNPITYZITHY4T2R9PE7R88F","emotion","match","uniform","","","","","","","1296.7000000029802","145573.3999999985","146870.1000000015","[""stimuli/hammer.jpg"",""stimuli/basketball.jpg"",""stimuli/horse.jpg"",""stimuli/sheep.jpg""]","stimuli/hammer.jpg","stimuli/basketball.jpg","stimuli/horse.jpg","stimuli/sheep.jpg","pos1","stimuli/hammer.jpg","","","0","8","8","8","stimuli/stars_2.png","9","","","","","","",""
"instructions","6","147992","0.0-6.0","p89799","A2MS1GQLGAX9FZ","3RZS0FBRWLGDTA9TUPH81F59AWHPC0","33CUSNVVNPITYZITHY4T2R9PE7R88F","emotion","match","uniform","","","","","","[{""page_index"":0,""viewing_time"":7559.800000000745}]","7560.199999999255","","","","","","","","","","","","","","","","","","","","","","","",""
"explore-choice","7","152182","0.0-7.0","p89799","A2MS1GQLGAX9FZ","3RZS0FBRWLGDTA9TUPH81F59AWHPC0","33CUSNVVNPITYZITHY4T2R9PE7R88F","emotion","match","uniform","","","","","","","3682.5","154939","158621.5","[""stimuli/HM02_HE.jpg"",""stimuli/WF11_DO.jpg"",""stimuli/WF06_AO.jpg"",""stimuli/WF04_SC.jpg""]","stimuli/HM02_HE.jpg","stimuli/WF11_DO.jpg","stimuli/WF06_AO.jpg","stimuli/WF04_SC.jpg","pos1","stimuli/HM02_HE.jpg","HE","HM02","0","4","8","8","stimuli/stars_8.png","5","[""HE"",""DO"",""AO"",""SC""]","[""HM02"",""WF11"",""WF06"",""WF04""]","[8,7,3,2]","[8,6,2,4]","","",""
"show-reward","8","154200","0.0-8.0","p89799","A2MS1GQLGAX9FZ","3RZS0FBRWLGDTA9TUPH81F59AWHPC0","33CUSNVVNPITYZITHY4T2R9PE7R88F","emotion","match","uniform","","","","","","","","159131.1000000015","161146.1000000015","","","","","","","","","","","","8","","stimuli/stars_8.png","5","","","","","stimuli/HM02_HE.jpg","",""
"explore-choice","9","157823","0.0-9.0","p89799","A2MS1GQLGAX9FZ","3RZS0FBRWLGDTA9TUPH81F59AWHPC0","33CUSNVVNPITYZITHY4T2R9PE7R88F","emotion","match","uniform","","","","","","","3110.7000000029802","161147.8999999985","164258.6000000015","[""stimuli/WF11_DO.jpg"",""stimuli/WF06_SC.jpg"",""stimuli/WF04_HE.jpg"",""stimuli/HM02_AO.jpg""]","stimuli/WF11_DO.jpg","stimuli/WF06_SC.jpg","stimuli/WF04_HE.jpg","stimuli/HM02_AO.jpg","pos3","stimuli/WF04_HE.jpg","HE","WF04","2","3","6","8","stimuli/stars_6.png","8","[""DO"",""SC"",""HE"",""AO""]","[""WF11"",""WF06"",""WF04"",""HM02""]","[4,5,6,4]","[6,4,8,2]","","",""
"show-reward","10","159841","0.0-10.0","p89799","A2MS1GQLGAX9FZ","3RZS0FBRWLGDTA9TUPH81F59AWHPC0","33CUSNVVNPITYZITHY4T2R9PE7R88F","emotion","match","uniform","","","","","","","","164770.80000000075","166786.8999999985","","","","","","","","","","","","6","","stimuli/stars_6.png","8","","","","","stimuli/WF04_HE.jpg","",""
"explore-choice","11","162820","0.0-11.0","p89799","A2MS1GQLGAX9FZ","3RZS0FBRWLGDTA9TUPH81F59AWHPC0","33CUSNVVNPITYZITHY4T2R9PE7R88F","emotion","match","uniform","","","","","","","2473.400000002235","166788.69999999925","169262.1000000015","[""stimuli/HM02_SC.jpg"",""stimuli/WF04_AO.jpg"",""stimuli/WF11_HE.jpg"",""stimuli/WF06_DO.jpg""]","stimuli/HM02_SC.jpg","stimuli/WF04_AO.jpg","stimuli/WF11_HE.jpg","stimuli/WF06_DO.jpg","pos3","stimuli/WF11_HE.jpg","HE","WF11","2","3.5","7","8","stimuli/stars_7.png","11.5","[""SC"",""AO"",""HE"",""DO""]","[""HM02"",""WF04"",""WF11"",""WF06""]","[6,4,7,6]","[4,2,8,6]","","",""
"show-reward","12","164830","0.0-12.0","p89799","A2MS1GQLGAX9FZ","3RZS0FBRWLGDTA9TUPH81F59AWHPC0","33CUSNVVNPITYZITHY4T2R9PE7R88F","emotion","match","uniform","","","","","","","","169768.19999999925","171775.6000000015","","","","","","","","","","","","7","","stimuli/stars_7.png","11.5","","","","","stimuli/WF11_HE.jpg","",""
"explore-choice","13","166661","0.0-13.0","p89799","A2MS1GQLGAX9FZ","3RZS0FBRWLGDTA9TUPH81F59AWHPC0","33CUSNVVNPITYZITHY4T2R9PE7R88F","emotion","match","uniform","","","","","","","1321","171777.3999999985","173098.3999999985","[""stimuli/HM02_HE.jpg"",""stimuli/WF11_DO.jpg"",""stimuli/WF04_AO.jpg"",""stimuli/WF06_SC.jpg""]","stimuli/HM02_HE.jpg","stimuli/WF11_DO.jpg","stimuli/WF04_AO.jpg","stimuli/WF06_SC.jpg","pos1","stimuli/HM02_HE.jpg","HE","HM02","0","5","10","8","stimuli/stars_10.png","16.5","[""HE"",""DO"",""AO"",""SC""]","[""HM02"",""WF11"",""WF04"",""WF06""]","[10,8,1,3]","[8,6,2,4]","","",""
"show-reward","14","168673","0.0-14.0","p89799","A2MS1GQLGAX9FZ","3RZS0FBRWLGDTA9TUPH81F59AWHPC0","33CUSNVVNPITYZITHY4T2R9PE7R88F","emotion","match","uniform","","","","","","","","173608.3999999985","175619.5","","","","","","","","","","","","10","","stimuli/stars_10.png","16.5","","","","","stimuli/HM02_HE.jpg","",""
"explore-choice","15","170377","0.0-15.0","p89799","A2MS1GQLGAX9FZ","3RZS0FBRWLGDTA9TUPH81F59AWHPC0","33CUSNVVNPITYZITHY4T2R9PE7R88F","emotion","match","uniform","","","","","","","1196.199999999255","175621.1000000015","176817.30000000075","[""stimuli/WF11_HE.jpg"",""stimuli/WF04_AO.jpg"",""stimuli/HM02_DO.jpg"",""stimuli/WF06_SC.jpg""]","stimuli/WF11_HE.jpg","stimuli/WF04_AO.jpg","stimuli/HM02_DO.jpg","stimuli/WF06_SC.jpg","pos1","stimuli/WF11_HE.jpg","HE","WF11","0","4.5","9","8","stimuli/stars_9.png","21","[""HE"",""AO"",""DO"",""SC""]","[""WF11"",""WF04"",""HM02"",""WF06""]","[9,1,4,6]","[8,2,6,4]","","",""
"show-reward","16","172391","0.0-16.0","p89799","A2MS1GQLGAX9FZ","3RZS0FBRWLGDTA9TUPH81F59AWHPC0","33CUSNVVNPITYZITHY4T2R9PE7R88F","emotion","match","uniform","","","","","","","","177324.30000000075","179336.80000000075","","","","","","","","","","","","9","","stimuli/stars_9.png","21","","","","","stimuli/WF11_HE.jpg","",""
"explore-choice","17","174174","0.0-17.0","p89799","A2MS1GQLGAX9FZ","3RZS0FBRWLGDTA9TUPH81F59AWHPC0","33CUSNVVNPITYZITHY4T2R9PE7R88F","emotion","match","uniform","","","","","","","1273.199999999255","179338.19999999925","180611.3999999985","[""stimuli/HM02_HE.jpg"",""stimuli/WF06_DO.jpg"",""stimuli/WF04_AO.jpg"",""stimuli/WF11_SC.jpg""]","stimuli/HM02_HE.jpg","stimuli/WF06_DO.jpg","stimuli/WF04_AO.jpg","stimuli/WF11_SC.jpg","pos2","stimuli/WF06_DO.jpg","DO","WF06","1","2","4","6","stimuli/stars_4.png","23","[""HE"",""DO"",""AO"",""SC""]","[""HM02"",""WF06"",""WF04"",""WF11""]","[10,4,3,3]","[8,6,2,4]","","",""
"show-reward","18","176193","0.0-18.0","p89799","A2MS1GQLGAX9FZ","3RZS0FBRWLGDTA9TUPH81F59AWHPC0","33CUSNVVNPITYZITHY4T2R9PE7R88F","emotion","match","uniform","","","","","","","","181121.6000000015","183139.19999999925","","","","","","","","","","","","4","","stimuli/stars_4.png","23","","","","","stimuli/WF06_DO.jpg","",""
"explore-choice","19","178084","0.0-19.0","p89799","A2MS1GQLGAX9FZ","3RZS0FBRWLGDTA9TUPH81F59AWHPC0","33CUSNVVNPITYZITHY4T2R9PE7R88F","emotion","match","uniform","","","","","","","1381","183140.6000000015","184521.6000000015","[""stimuli/WF11_SC.jpg"",""stimuli/HM02_DO.jpg"",""stimuli/WF06_HE.jpg"",""stimuli/WF04_AO.jpg""]","stimuli/WF11_SC.jpg","stimuli/HM02_DO.jpg","stimuli/WF06_HE.jpg","stimuli/WF04_AO.jpg","pos3","stimuli/WF06_HE.jpg","HE","WF06","2","3","6","8","stimuli/stars_6.png","26","[""SC"",""DO"",""HE"",""AO""]","[""WF11"",""HM02"",""WF06"",""WF04""]","[4,7,6,1]","[4,6,8,2]","","",""
"show-reward","20","180102","0.0-20.0","p89799","A2MS1GQLGAX9FZ","3RZS0FBRWLGDTA9TUPH81F59AWHPC0","33CUSNVVNPITYZITHY4T2R9PE7R88F","emotion","match","uniform","","","","","","","","185031.8999999985","187047.69999999925","","","","","","","","","","","","6","","stimuli/stars_6.png","26","","","","","stimuli/WF06_HE.jpg","",""
"explore-choice","21","182650","0.0-21.0","p89799","A2MS1GQLGAX9FZ","3RZS0FBRWLGDTA9TUPH81F59AWHPC0","33CUSNVVNPITYZITHY4T2R9PE7R88F","emotion","match","uniform","","","","","","","2045","187049.1000000015","189094.1000000015","[""stimuli/HM02_SC.jpg"",""stimuli/WF06_HE.jpg"",""stimuli/WF04_AO.jpg"",""stimuli/WF11_DO.jpg""]","stimuli/HM02_SC.jpg","stimuli/WF06_HE.jpg","stimuli/WF04_AO.jpg","stimuli/WF11_DO.jpg","pos4","stimuli/WF11_DO.jpg","DO","WF11","3","2","4","6","stimuli/stars_4.png","28","[""SC"",""HE"",""AO"",""DO""]","[""HM02"",""WF06"",""WF04"",""WF11""]","[3,6,2,4]","[4,8,2,6]","","",""
"show-reward","22","184667","0.0-22.0","p89799","A2MS1GQLGAX9FZ","3RZS0FBRWLGDTA9TUPH81F59AWHPC0","33CUSNVVNPITYZITHY4T2R9PE7R88F","emotion","match","uniform","","","","","","","","189597.69999999925","191612.69999999925","","","","","","","","","","","","4","","stimuli/stars_4.png","28","","","","","stimuli/WF11_DO.jpg","",""
"explore-choice","23","186530","0.0-23.0","p89799","A2MS1GQLGAX9FZ","3RZS0FBRWLGDTA9TUPH81F59AWHPC0","33CUSNVVNPITYZITHY4T2R9PE7R88F","emotion","match","uniform","","","","","","","1352.199999999255","191614","192966.19999999925","[""stimuli/WF04_HE.jpg"",""stimuli/HM02_DO.jpg"",""stimuli/WF06_SC.jpg"",""stimuli/WF11_AO.jpg""]","stimuli/WF04_HE.jpg","stimuli/HM02_DO.jpg","stimuli/WF06_SC.jpg","stimuli/WF11_AO.jpg","pos1","stimuli/WF04_HE.jpg","HE","WF04","0","4.5","9","8","stimuli/stars_9.png","32.5","[""HE"",""DO"",""SC"",""AO""]","[""WF04"",""HM02"",""WF06"",""WF11""]","[9,6,6,4]","[8,6,4,2]","","",""
"show-reward","24","188545","0.0-24.0","p89799","A2MS1GQLGAX9FZ","3RZS0FBRWLGDTA9TUPH81F59AWHPC0","33CUSNVVNPITYZITHY4T2R9PE7R88F","emotion","match","uniform","","","","","","","","193477.6000000015","195491.3999999985","","","","","","","","","","","","9","","stimuli/stars_9.png","32.5","","","","","stimuli/WF04_HE.jpg","",""
"explore-choice","25","190583","0.0-25.0","p89799","A2MS1GQLGAX9FZ","3RZS0FBRWLGDTA9TUPH81F59AWHPC0","33CUSNVVNPITYZITHY4T2R9PE7R88F","emotion","match","uniform","","","","","","","1525.800000000745","195492.69999999925","197018.5","[""stimuli/WF06_HE.jpg"",""stimuli/WF04_DO.jpg"",""stimuli/WF11_AO.jpg"",""stimuli/HM02_SC.jpg""]","stimuli/WF06_HE.jpg","stimuli/WF04_DO.jpg","stimuli/WF11_AO.jpg","stimuli/HM02_SC.jpg","pos1","stimuli/WF06_HE.jpg","HE","WF06","0","4","8","8","stimuli/stars_8.png","36.5","[""HE"",""DO"",""AO"",""SC""]","[""WF06"",""WF04"",""WF11"",""HM02""]","[8,8,4,4]","[8,6,2,4]","","",""
"show-reward","26","192597","0.0-26.0","p89799","A2MS1GQLGAX9FZ","3RZS0FBRWLGDTA9TUPH81F59AWHPC0","33CUSNVVNPITYZITHY4T2R9PE7R88F","emotion","match","uniform","","","","","","","","197530.6000000015","199543.19999999925","","","","","","","","","","","","8","","stimuli/stars_8.png","36.5","","","","","stimuli/WF06_HE.jpg","",""
"explore-choice","27","194286","0.0-27.0","p89799","A2MS1GQLGAX9FZ","3RZS0FBRWLGDTA9TUPH81F59AWHPC0","33CUSNVVNPITYZITHY4T2R9PE7R88F","emotion","match","uniform","","","","","","","1178.699999999255","199544.5","200723.19999999925","[""stimuli/HM02_AO.jpg"",""stimuli/WF06_HE.jpg"",""stimuli/WF04_SC.jpg"",""stimuli/WF11_DO.jpg""]","stimuli/HM02_AO.jpg","stimuli/WF06_HE.jpg","stimuli/WF04_SC.jpg","stimuli/WF11_DO.jpg","pos2","stimuli/WF06_HE.jpg","HE","WF06","1","5","10","8","stimuli/stars_10.png","41.5","[""AO"",""HE"",""SC"",""DO""]","[""HM02"",""WF06"",""WF04"",""WF11""]","[2,10,2,6]","[2,8,4,6]","","",""
"show-reward","28","196303","0.0-28.0","p89799","A2MS1GQLGAX9FZ","3RZS0FBRWLGDTA9TUPH81F59AWHPC0","33CUSNVVNPITYZITHY4T2R9PE7R88F","emotion","match","uniform","","","","","","","","201233.8999999985","203249.3999999985","","","","","","","","","","","","10","","stimuli/stars_10.png","41.5","","","","","stimuli/WF06_HE.jpg","",""
"explore-choice","29","198195","0.0-29.0","p89799","A2MS1GQLGAX9FZ","3RZS0FBRWLGDTA9TUPH81F59AWHPC0","33CUSNVVNPITYZITHY4T2R9PE7R88F","emotion","match","uniform","","","","","","","1383.699999999255","203250.69999999925","204634.3999999985","[""stimuli/WF11_DO.jpg"",""stimuli/HM02_SC.jpg"",""stimuli/WF04_HE.jpg"",""stimuli/WF06_AO.jpg""]","stimuli/WF11_DO.jpg","stimuli/HM02_SC.jpg","stimuli/WF04_HE.jpg","stimuli/WF06_AO.jpg","pos3","stimuli/WF04_HE.jpg","HE","WF04","2","5","10","8","stimuli/stars_10.png","46.5","[""DO"",""SC"",""HE"",""AO""]","[""WF11"",""HM02"",""WF04"",""WF06""]","[5,3,10,1]","[6,4,8,2]","","",""
"show-reward","30","200212","0.0-30.0","p89799","A2MS1GQLGAX9FZ","3RZS0FBRWLGDTA9TUPH81F59AWHPC0","33CUSNVVNPITYZITHY4T2R9PE7R88F","emotion","match","uniform","","","","","","","","205142.69999999925","207158.69999999925","","","","","","","","","","","","10","","stimuli/stars_10.png","46.5","","","","","stimuli/WF04_HE.jpg","",""
"explore-choice","31","201962","0.0-31.0","p89799","A2MS1GQLGAX9FZ","3RZS0FBRWLGDTA9TUPH81F59AWHPC0","33CUSNVVNPITYZITHY4T2R9PE7R88F","emotion","match","uniform","","","","","","","1242","207159.8999999985","208401.8999999985","[""stimuli/WF06_SC.jpg"",""stimuli/WF11_HE.jpg"",""stimuli/WF04_DO.jpg"",""stimuli/HM02_AO.jpg""]","stimuli/WF06_SC.jpg","stimuli/WF11_HE.jpg","stimuli/WF04_DO.jpg","stimuli/HM02_AO.jpg","pos2","stimuli/WF11_HE.jpg","HE","WF11","1","3.5","7","8","stimuli/stars_7.png","50","[""SC"",""HE"",""DO"",""AO""]","[""WF06"",""WF11"",""WF04"",""HM02""]","[3,7,7,3]","[4,8,6,2]","","",""
"show-reward","32","203967","0.0-32.0","p89799","A2MS1GQLGAX9FZ","3RZS0FBRWLGDTA9TUPH81F59AWHPC0","33CUSNVVNPITYZITHY4T2R9PE7R88F","emotion","match","uniform","","","","","","","","208910.30000000075","210913.69999999925","","","","","","","","","","","","7","","stimuli/stars_7.png","50","","","","","stimuli/WF11_HE.jpg","",""
"explore-choice","33","206356","0.0-33.0","p89799","A2MS1GQLGAX9FZ","3RZS0FBRWLGDTA9TUPH81F59AWHPC0","33CUSNVVNPITYZITHY4T2R9PE7R88F","emotion","match","uniform","","","","","","","1878.199999999255","210915.30000000075","212793.5","[""stimuli/WF11_SC.jpg"",""stimuli/WF04_DO.jpg"",""stimuli/HM02_AO.jpg"",""stimuli/WF06_HE.jpg""]","stimuli/WF11_SC.jpg","stimuli/WF04_DO.jpg","stimuli/HM02_AO.jpg","stimuli/WF06_HE.jpg","pos4","stimuli/WF06_HE.jpg","HE","WF06","3","3","6","8","stimuli/stars_6.png","53","[""SC"",""DO"",""AO"",""HE""]","[""WF11"",""WF04"",""HM02"",""WF06""]","[6,6,0,6]","[4,6,2,8]","","",""
"show-reward","34","208360","0.0-34.0","p89799","A2MS1GQLGAX9FZ","3RZS0FBRWLGDTA9TUPH81F59AWHPC0","33CUSNVVNPITYZITHY4T2R9PE7R88F","emotion","match","uniform","","","","","","","","213303.19999999925","215306.6000000015","","","","","","","","","","","","6","","stimuli/stars_6.png","53","","","","","stimuli/WF06_HE.jpg","",""
"explore-choice","35","209946","0.0-35.0","p89799","A2MS1GQLGAX9FZ","3RZS0FBRWLGDTA9TUPH81F59AWHPC0","33CUSNVVNPITYZITHY4T2R9PE7R88F","emotion","match","uniform","","","","","","","1074.199999999255","215308","216382.19999999925","[""stimuli/WF06_HE.jpg"",""stimuli/HM02_DO.jpg"",""stimuli/WF04_SC.jpg"",""stimuli/WF11_AO.jpg""]","stimuli/WF06_HE.jpg","stimuli/HM02_DO.jpg","stimuli/WF04_SC.jpg","stimuli/WF11_AO.jpg","pos1","stimuli/WF06_HE.jpg","HE","WF06","0","5","10","8","stimuli/stars_10.png","58","[""HE"",""DO"",""SC"",""AO""]","[""WF06"",""HM02"",""WF04"",""WF11""]","[10,6,2,1]","[8,6,4,2]","","",""
"show-reward","36","211962","0.0-36.0","p89799","A2MS1GQLGAX9FZ","3RZS0FBRWLGDTA9TUPH81F59AWHPC0","33CUSNVVNPITYZITHY4T2R9PE7R88F","emotion","match","uniform","","","","","","","","216893","218908.19999999925","","","","","","","","","","","","10","","stimuli/stars_10.png","58","","","","","stimuli/WF06_HE.jpg","",""
"explore-choice","37","213509","0.0-37.0","p89799","A2MS1GQLGAX9FZ","3RZS0FBRWLGDTA9TUPH81F59AWHPC0","33CUSNVVNPITYZITHY4T2R9PE7R88F","emotion","match","uniform","","","","","","","1037","218909.19999999925","219946.19999999925","[""stimuli/WF11_HE.jpg"",""stimuli/HM02_DO.jpg"",""stimuli/WF06_AO.jpg"",""stimuli/WF04_SC.jpg""]","stimuli/WF11_HE.jpg","stimuli/HM02_DO.jpg","stimuli/WF06_AO.jpg","stimuli/WF04_SC.jpg","pos1","stimuli/WF11_HE.jpg","HE","WF11","0","4.5","9","8","stimuli/stars_9.png","62.5","[""HE"",""DO"",""AO"",""SC""]","[""WF11"",""HM02"",""WF06"",""WF04""]","[9,4,2,6]","[8,6,2,4]","","",""
"show-reward","38","215522","0.0-38.0","p89799","A2MS1GQLGAX9FZ","3RZS0FBRWLGDTA9TUPH81F59AWHPC0","33CUSNVVNPITYZITHY4T2R9PE7R88F","emotion","match","uniform","","","","","","","","220456.5","222467.69999999925","","","","","","","","","","","","9","","stimuli/stars_9.png","62.5","","","","","stimuli/WF11_HE.jpg","",""
"explore-choice","39","217978","0.0-39.0","p89799","A2MS1GQLGAX9FZ","3RZS0FBRWLGDTA9TUPH81F59AWHPC0","33CUSNVVNPITYZITHY4T2R9PE7R88F","emotion","match","uniform","","","","","","","1946.9000000022352","222469.3999999985","224416.30000000075","[""stimuli/HM02_HE.jpg"",""stimuli/WF11_AO.jpg"",""stimuli/WF04_SC.jpg"",""stimuli/WF06_DO.jpg""]","stimuli/HM02_HE.jpg","stimuli/WF11_AO.jpg","stimuli/WF04_SC.jpg","stimuli/WF06_DO.jpg","pos1","stimuli/HM02_HE.jpg","HE","HM02","0","3.5","7","8","stimuli/stars_7.png","66","[""HE"",""AO"",""SC"",""DO""]","[""HM02"",""WF11"",""WF04"",""WF06""]","[7,2,6,5]","[8,2,4,6]","","",""
"show-reward","40","219995","0.0-40.0","p89799","A2MS1GQLGAX9FZ","3RZS0FBRWLGDTA9TUPH81F59AWHPC0","33CUSNVVNPITYZITHY4T2R9PE7R88F","emotion","match","uniform","","","","","","","","224925.5","226941.69999999925","","","","","","","","","","","","7","","stimuli/stars_7.png","66","","","","","stimuli/HM02_HE.jpg","",""
"explore-choice","41","221452","0.0-41.0","p89799","A2MS1GQLGAX9FZ","3RZS0FBRWLGDTA9TUPH81F59AWHPC0","33CUSNVVNPITYZITHY4T2R9PE7R88F","emotion","match","uniform","","","","","","","946.6999999992549","226942.80000000075","227889.5","[""stimuli/WF04_HE.jpg"",""stimuli/WF06_DO.jpg"",""stimuli/WF11_SC.jpg"",""stimuli/HM02_AO.jpg""]","stimuli/WF04_HE.jpg","stimuli/WF06_DO.jpg","stimuli/WF11_SC.jpg","stimuli/HM02_AO.jpg","pos1","stimuli/WF04_HE.jpg","HE","WF04","0","5","10","8","stimuli/stars_10.png","71","[""HE"",""DO"",""SC"",""AO""]","[""WF04"",""WF06"",""WF11"",""HM02""]","[10,6,2,1]","[8,6,4,2]","","",""
"show-reward","42","223458","0.0-42.0","p89799","A2MS1GQLGAX9FZ","3RZS0FBRWLGDTA9TUPH81F59AWHPC0","33CUSNVVNPITYZITHY4T2R9PE7R88F","emotion","match","uniform","","","","","","","","228399.3999999985","230404.6000000015","","","","","","","","","","","","10","","stimuli/stars_10.png","71","","","","","stimuli/WF04_HE.jpg","",""
"explore-choice","43","225305","0.0-43.0","p89799","A2MS1GQLGAX9FZ","3RZS0FBRWLGDTA9TUPH81F59AWHPC0","33CUSNVVNPITYZITHY4T2R9PE7R88F","emotion","match","uniform","","","","","","","1335.0999999977648","230406.1000000015","231741.19999999925","[""stimuli/WF06_SC.jpg"",""stimuli/WF11_AO.jpg"",""stimuli/HM02_HE.jpg"",""stimuli/WF04_DO.jpg""]","stimuli/WF06_SC.jpg","stimuli/WF11_AO.jpg","stimuli/HM02_HE.jpg","stimuli/WF04_DO.jpg","pos3","stimuli/HM02_HE.jpg","HE","HM02","2","4","8","8","stimuli/stars_8.png","75","[""SC"",""AO"",""HE"",""DO""]","[""WF06"",""WF11"",""HM02"",""WF04""]","[6,2,8,4]","[4,2,8,6]","","",""
"show-reward","44","227325","0.0-44.0","p89799","A2MS1GQLGAX9FZ","3RZS0FBRWLGDTA9TUPH81F59AWHPC0","33CUSNVVNPITYZITHY4T2R9PE7R88F","emotion","match","uniform","","","","","","","","232253","234271.1000000015","","","","","","","","","","","","8","","stimuli/stars_8.png","75","","","","","stimuli/HM02_HE.jpg","",""
"explore-choice","45","229512","0.0-45.0","p89799","A2MS1GQLGAX9FZ","3RZS0FBRWLGDTA9TUPH81F59AWHPC0","33CUSNVVNPITYZITHY4T2R9PE7R88F","emotion","match","uniform","","","","","","","1678","234272.5","235950.5","[""stimuli/WF06_DO.jpg"",""stimuli/WF04_SC.jpg"",""stimuli/HM02_AO.jpg"",""stimuli/WF11_HE.jpg""]","stimuli/WF06_DO.jpg","stimuli/WF04_SC.jpg","stimuli/HM02_AO.jpg","stimuli/WF11_HE.jpg","pos4","stimuli/WF11_HE.jpg","HE","WF11","3","5","10","8","stimuli/stars_10.png","80","[""DO"",""SC"",""AO"",""HE""]","[""WF06"",""WF04"",""HM02"",""WF11""]","[4,4,4,10]","[6,4,2,8]","","",""
"show-reward","46","231528","0.0-46.0","p89799","A2MS1GQLGAX9FZ","3RZS0FBRWLGDTA9TUPH81F59AWHPC0","33CUSNVVNPITYZITHY4T2R9PE7R88F","emotion","match","uniform","","","","","","","","236459.8999999985","238474.1000000015","","","","","","","","","","","","10","","stimuli/stars_10.png","80","","","","","stimuli/WF11_HE.jpg","",""
"explore-choice","47","233269","0.0-47.0","p89799","A2MS1GQLGAX9FZ","3RZS0FBRWLGDTA9TUPH81F59AWHPC0","33CUSNVVNPITYZITHY4T2R9PE7R88F","emotion","match","uniform","","","","","","","1233.800000000745","238475.80000000075","239709.6000000015","[""stimuli/HM02_HE.jpg"",""stimuli/WF04_DO.jpg"",""stimuli/WF06_AO.jpg"",""stimuli/WF11_SC.jpg""]","stimuli/HM02_HE.jpg","stimuli/WF04_DO.jpg","stimuli/WF06_AO.jpg","stimuli/WF11_SC.jpg","pos1","stimuli/HM02_HE.jpg","HE","HM02","0","5","10","8","stimuli/stars_10.png","85","[""HE"",""DO"",""AO"",""SC""]","[""HM02"",""WF04"",""WF06"",""WF11""]","[10,4,0,5]","[8,6,2,4]","","",""
"show-reward","48","235277","0.0-48.0","p89799","A2MS1GQLGAX9FZ","3RZS0FBRWLGDTA9TUPH81F59AWHPC0","33CUSNVVNPITYZITHY4T2R9PE7R88F","emotion","match","uniform","","","","","","","","240216.69999999925","242223.3999999985","","","","","","","","","","","","10","","stimuli/stars_10.png","85","","","","","stimuli/HM02_HE.jpg","",""
"explore-choice","49","237154","0.0-49.0","p89799","A2MS1GQLGAX9FZ","3RZS0FBRWLGDTA9TUPH81F59AWHPC0","33CUSNVVNPITYZITHY4T2R9PE7R88F","emotion","match","uniform","","","","","","","1365.5","242224.80000000075","243590.30000000075","[""stimuli/WF04_DO.jpg"",""stimuli/WF06_AO.jpg"",""stimuli/WF11_HE.jpg"",""stimuli/HM02_SC.jpg""]","stimuli/WF04_DO.jpg","stimuli/WF06_AO.jpg","stimuli/WF11_HE.jpg","stimuli/HM02_SC.jpg","pos3","stimuli/WF11_HE.jpg","HE","WF11","2","3","6","8","stimuli/stars_6.png","88","[""DO"",""AO"",""HE"",""SC""]","[""WF04"",""WF06"",""WF11"",""HM02""]","[6,0,6,2]","[6,2,8,4]","","",""
"show-reward","50","239168","0.0-50.0","p89799","A2MS1GQLGAX9FZ","3RZS0FBRWLGDTA9TUPH81F59AWHPC0","33CUSNVVNPITYZITHY4T2R9PE7R88F","emotion","match","uniform","","","","","","","","244102","246114.5","","","","","","","","","","","","6","","stimuli/stars_6.png","88","","","","","stimuli/WF11_HE.jpg","",""
"explore-choice","51","240625","0.0-51.0","p89799","A2MS1GQLGAX9FZ","3RZS0FBRWLGDTA9TUPH81F59AWHPC0","33CUSNVVNPITYZITHY4T2R9PE7R88F","emotion","match","uniform","","","","","","","946.6000000014901","246115.8999999985","247062.5","[""stimuli/HM02_DO.jpg"",""stimuli/WF06_AO.jpg"",""stimuli/WF04_HE.jpg"",""stimuli/WF11_SC.jpg""]","stimuli/HM02_DO.jpg","stimuli/WF06_AO.jpg","stimuli/WF04_HE.jpg","stimuli/WF11_SC.jpg","pos3","stimuli/WF04_HE.jpg","HE","WF04","2","3","6","8","stimuli/stars_6.png","91","[""DO"",""AO"",""HE"",""SC""]","[""HM02"",""WF06"",""WF04"",""WF11""]","[5,0,6,4]","[6,2,8,4]","","",""
"show-reward","52","242643","0.0-52.0","p89799","A2MS1GQLGAX9FZ","3RZS0FBRWLGDTA9TUPH81F59AWHPC0","33CUSNVVNPITYZITHY4T2R9PE7R88F","emotion","match","uniform","","","","","","","","247572.8999999985","249589.6000000015","","","","","","","","","","","","6","","stimuli/stars_6.png","91","","","","","stimuli/WF04_HE.jpg","",""
"explore-choice","53","244566","0.0-53.0","p89799","A2MS1GQLGAX9FZ","3RZS0FBRWLGDTA9TUPH81F59AWHPC0","33CUSNVVNPITYZITHY4T2R9PE7R88F","emotion","match","uniform","","","","","","","1412.1000000014901","249591","251003.1000000015","[""stimuli/WF04_HE.jpg"",""stimuli/WF06_DO.jpg"",""stimuli/WF11_AO.jpg"",""stimuli/HM02_SC.jpg""]","stimuli/WF04_HE.jpg","stimuli/WF06_DO.jpg","stimuli/WF11_AO.jpg","stimuli/HM02_SC.jpg","pos1","stimuli/WF04_HE.jpg","HE","WF04","0","4","8","8","stimuli/stars_8.png","95","[""HE"",""DO"",""AO"",""SC""]","[""WF04"",""WF06"",""WF11"",""HM02""]","[8,4,3,2]","[8,6,2,4]","","",""
"show-reward","54","246582","0.0-54.0","p89799","A2MS1GQLGAX9FZ","3RZS0FBRWLGDTA9TUPH81F59AWHPC0","33CUSNVVNPITYZITHY4T2R9PE7R88F","emotion","match","uniform","","","","","","","","251513.1000000015","253527.8999999985","","","","","","","","","","","","8","","stimuli/stars_8.png","95","","","","","stimuli/WF04_HE.jpg","",""
"explore-choice","55","248410","0.0-55.0","p89799","A2MS1GQLGAX9FZ","3RZS0FBRWLGDTA9TUPH81F59AWHPC0","33CUSNVVNPITYZITHY4T2R9PE7R88F","emotion","match","uniform","","","","","","","1321.6000000014901","253529.19999999925","254850.80000000075","[""stimuli/HM02_SC.jpg"",""stimuli/WF06_HE.jpg"",""stimuli/WF11_AO.jpg"",""stimuli/WF04_DO.jpg""]","stimuli/HM02_SC.jpg","stimuli/WF06_HE.jpg","stimuli/WF11_AO.jpg","stimuli/WF04_DO.jpg","pos2","stimuli/WF06_HE.jpg","HE","WF06","1","4","8","8","stimuli/stars_8.png","99","[""SC"",""HE"",""AO"",""DO""]","[""HM02"",""WF06"",""WF11"",""WF04""]","[4,8,4,8]","[4,8,2,6]","","",""
"show-reward","56","250427","0.0-56.0","p89799","A2MS1GQLGAX9FZ","3RZS0FBRWLGDTA9TUPH81F59AWHPC0","33CUSNVVNPITYZITHY4T2R9PE7R88F","emotion","match","uniform","","","","","","","","255357.6000000015","257373.6000000015","","","","","","","","","","","","8","","stimuli/stars_8.png","99","","","","","stimuli/WF06_HE.jpg","",""
"explore-choice","57","252799","0.0-57.0","p89799","A2MS1GQLGAX9FZ","3RZS0FBRWLGDTA9TUPH81F59AWHPC0","33CUSNVVNPITYZITHY4T2R9PE7R88F","emotion","match","uniform","","","","","","","1859.3999999985099","257375","259234.3999999985","[""stimuli/HM02_DO.jpg"",""stimuli/WF06_SC.jpg"",""stimuli/WF04_AO.jpg"",""stimuli/WF11_HE.jpg""]","stimuli/HM02_DO.jpg","stimuli/WF06_SC.jpg","stimuli/WF04_AO.jpg","stimuli/WF11_HE.jpg","pos4","stimuli/WF11_HE.jpg","HE","WF11","3","4.5","9","8","stimuli/stars_9.png","103.5","[""DO"",""SC"",""AO"",""HE""]","[""HM02"",""WF06"",""WF04"",""WF11""]","[4,6,1,9]","[6,4,2,8]","","",""
"show-reward","58","254804","0.0-58.0","p89799","A2MS1GQLGAX9FZ","3RZS0FBRWLGDTA9TUPH81F59AWHPC0","33CUSNVVNPITYZITHY4T2R9PE7R88F","emotion","match","uniform","","","","","","","","259746.19999999925","261750.3999999985","","","","","","","","","","","","9","","stimuli/stars_9.png","103.5","","","","","stimuli/WF11_HE.jpg","",""
"explore-choice","59","256417","0.0-59.0","p89799","A2MS1GQLGAX9FZ","3RZS0FBRWLGDTA9TUPH81F59AWHPC0","33CUSNVVNPITYZITHY4T2R9PE7R88F","emotion","match","uniform","","","","","","","1105.300000000745","261751.80000000075","262857.1000000015","[""stimuli/WF06_HE.jpg"",""stimuli/WF04_SC.jpg"",""stimuli/HM02_DO.jpg"",""stimuli/WF11_AO.jpg""]","stimuli/WF06_HE.jpg","stimuli/WF04_SC.jpg","stimuli/HM02_DO.jpg","stimuli/WF11_AO.jpg","pos1","stimuli/WF06_HE.jpg","HE","WF06","0","5","10","8","stimuli/stars_10.png","108.5","[""HE"",""SC"",""DO"",""AO""]","[""WF06"",""WF04"",""HM02"",""WF11""]","[10,2,6,1]","[8,4,6,2]","","",""
"show-reward","60","258431","0.0-60.0","p89799","A2MS1GQLGAX9FZ","3RZS0FBRWLGDTA9TUPH81F59AWHPC0","33CUSNVVNPITYZITHY4T2R9PE7R88F","emotion","match","uniform","","","","","","","","263364.69999999925","265377.1000000015","","","","","","","","","","","","10","","stimuli/stars_10.png","108.5","","","","","stimuli/WF06_HE.jpg","",""
"explore-choice","61","260466","0.0-61.0","p89799","A2MS1GQLGAX9FZ","3RZS0FBRWLGDTA9TUPH81F59AWHPC0","33CUSNVVNPITYZITHY4T2R9PE7R88F","emotion","match","uniform","","","","","","","1523.699999999255","265378.5","266902.19999999925","[""stimuli/WF11_DO.jpg"",""stimuli/WF06_AO.jpg"",""stimuli/WF04_SC.jpg"",""stimuli/HM02_HE.jpg""]","stimuli/WF11_DO.jpg","stimuli/WF06_AO.jpg","stimuli/WF04_SC.jpg","stimuli/HM02_HE.jpg","pos4","stimuli/HM02_HE.jpg","HE","HM02","3","4","8","8","stimuli/stars_8.png","112.5","[""DO"",""AO"",""SC"",""HE""]","[""WF11"",""WF06"",""WF04"",""HM02""]","[7,3,2,8]","[6,2,4,8]","","",""
"show-reward","62","262481","0.0-62.0","p89799","A2MS1GQLGAX9FZ","3RZS0FBRWLGDTA9TUPH81F59AWHPC0","33CUSNVVNPITYZITHY4T2R9PE7R88F","emotion","match","uniform","","","","","","","","267413.8999999985","269427","","","","","","","","","","","","8","","stimuli/stars_8.png","112.5","","","","","stimuli/HM02_HE.jpg","",""
"explore-choice","63","264067","0.0-63.0","p89799","A2MS1GQLGAX9FZ","3RZS0FBRWLGDTA9TUPH81F59AWHPC0","33CUSNVVNPITYZITHY4T2R9PE7R88F","emotion","match","uniform","","","","","","","1071.199999999255","269428.6000000015","270499.80000000075","[""stimuli/WF11_HE.jpg"",""stimuli/HM02_AO.jpg"",""stimuli/WF06_SC.jpg"",""stimuli/WF04_DO.jpg""]","stimuli/WF11_HE.jpg","stimuli/HM02_AO.jpg","stimuli/WF06_SC.jpg","stimuli/WF04_DO.jpg","pos1","stimuli/WF11_HE.jpg","HE","WF11","0","3.5","7","8","stimuli/stars_7.png","116","[""HE"",""AO"",""SC"",""DO""]","[""WF11"",""HM02"",""WF06"",""WF04""]","[7,3,3,7]","[8,2,4,6]","","",""
"show-reward","64","266074","0.0-64.0","p89799","A2MS1GQLGAX9FZ","3RZS0FBRWLGDTA9TUPH81F59AWHPC0","33CUSNVVNPITYZITHY4T2R9PE7R88F","emotion","match","uniform","","","","","","","","271014.6000000015","273019.80000000075","","","","","","","","","","","","7","","stimuli/stars_7.png","116","","","","","stimuli/WF11_HE.jpg","",""
"explore-choice","65","270553","0.0-65.0","p89799","A2MS1GQLGAX9FZ","3RZS0FBRWLGDTA9TUPH81F59AWHPC0","33CUSNVVNPITYZITHY4T2R9PE7R88F","emotion","match","uniform","","","","","","","3969.5","273021.19999999925","276990.69999999925","[""stimuli/WF06_DO.jpg"",""stimuli/WF04_SC.jpg"",""stimuli/WF11_HE.jpg"",""stimuli/HM02_AO.jpg""]","stimuli/WF06_DO.jpg","stimuli/WF04_SC.jpg","stimuli/WF11_HE.jpg","stimuli/HM02_AO.jpg","pos3","stimuli/WF11_HE.jpg","HE","WF11","2","5","10","8","stimuli/stars_10.png","121","[""DO"",""SC"",""HE"",""AO""]","[""WF06"",""WF04"",""WF11"",""HM02""]","[4,4,10,4]","[6,4,8,2]","","",""
"show-reward","66","272571","0.0-66.0","p89799","A2MS1GQLGAX9FZ","3RZS0FBRWLGDTA9TUPH81F59AWHPC0","33CUSNVVNPITYZITHY4T2R9PE7R88F","emotion","match","uniform","","","","","","","","277501.19999999925","279516.8999999985","","","","","","","","","","","","10","","stimuli/stars_10.png","121","","","","","stimuli/WF11_HE.jpg","",""
"explore-choice","67","274532","0.0-67.0","p89799","A2MS1GQLGAX9FZ","3RZS0FBRWLGDTA9TUPH81F59AWHPC0","33CUSNVVNPITYZITHY4T2R9PE7R88F","emotion","match","uniform","","","","","","","1452","279518.30000000075","280970.30000000075","[""stimuli/WF06_HE.jpg"",""stimuli/WF11_DO.jpg"",""stimuli/WF04_AO.jpg"",""stimuli/HM02_SC.jpg""]","stimuli/WF06_HE.jpg","stimuli/WF11_DO.jpg","stimuli/WF04_AO.jpg","stimuli/HM02_SC.jpg","pos1","stimuli/WF06_HE.jpg","HE","WF06","0","3","6","8","stimuli/stars_6.png","124","[""HE"",""DO"",""AO"",""SC""]","[""WF06"",""WF11"",""WF04"",""HM02""]","[6,4,2,3]","[8,6,2,4]","","",""
"show-reward","68","276545","0.0-68.0","p89799","A2MS1GQLGAX9FZ","3RZS0FBRWLGDTA9TUPH81F59AWHPC0","33CUSNVVNPITYZITHY4T2R9PE7R88F","emotion","match","uniform","","","","","","","","281479.5","283491.1000000015","","","","","","","","","","","","6","","stimuli/stars_6.png","124","","","","","stimuli/WF06_HE.jpg","",""
"explore-choice","69","278715","0.0-69.0","p89799","A2MS1GQLGAX9FZ","3RZS0FBRWLGDTA9TUPH81F59AWHPC0","33CUSNVVNPITYZITHY4T2R9PE7R88F","emotion","match","uniform","","","","","","","1661.699999999255","283492.30000000075","285154","[""stimuli/WF11_DO.jpg"",""stimuli/WF04_AO.jpg"",""stimuli/WF06_SC.jpg"",""stimuli/HM02_HE.jpg""]","stimuli/WF11_DO.jpg","stimuli/WF04_AO.jpg","stimuli/WF06_SC.jpg","stimuli/HM02_HE.jpg","pos4","stimuli/HM02_HE.jpg","HE","HM02","3","5","10","8","stimuli/stars_10.png","129","[""DO"",""AO"",""SC"",""HE""]","[""WF11"",""WF04"",""WF06"",""HM02""]","[8,1,3,10]","[6,2,4,8]","","",""
"show-reward","70","280732","0.0-70.0","p89799","A2MS1GQLGAX9FZ","3RZS0FBRWLGDTA9TUPH81F59AWHPC0","33CUSNVVNPITYZITHY4T2R9PE7R88F","emotion","match","uniform","","","","","","","","285662.6000000015","287678.3999999985","","","","","","","","","","","","10","","stimuli/stars_10.png","129","","","","","stimuli/HM02_HE.jpg","",""
"explore-choice","71","284411","0.0-71.0","p89799","A2MS1GQLGAX9FZ","3RZS0FBRWLGDTA9TUPH81F59AWHPC0","33CUSNVVNPITYZITHY4T2R9PE7R88F","emotion","match","uniform","","","","","","","3168.300000000745","287679.30000000075","290847.6000000015","[""stimuli/HM02_AO.jpg"",""stimuli/WF11_SC.jpg"",""stimuli/WF06_HE.jpg"",""stimuli/WF04_DO.jpg""]","stimuli/HM02_AO.jpg","stimuli/WF11_SC.jpg","stimuli/WF06_HE.jpg","stimuli/WF04_DO.jpg","pos3","stimuli/WF06_HE.jpg","HE","WF06","2","3","6","8","stimuli/stars_6.png","132","[""AO"",""SC"",""HE"",""DO""]","[""HM02"",""WF11"",""WF06"",""WF04""]","[0,6,6,6]","[2,4,8,6]","","",""
"show-reward","72","286430","0.0-72.0","p89799","A2MS1GQLGAX9FZ","3RZS0FBRWLGDTA9TUPH81F59AWHPC0","33CUSNVVNPITYZITHY4T2R9PE7R88F","emotion","match","uniform","","","","","","","","291358.3999999985","293376.30000000075","","","","","","","","","","","","6","","stimuli/stars_6.png","132","","","","","stimuli/WF06_HE.jpg","",""
"explore-choice","73","288390","0.0-73.0","p89799","A2MS1GQLGAX9FZ","3RZS0FBRWLGDTA9TUPH81F59AWHPC0","33CUSNVVNPITYZITHY4T2R9PE7R88F","emotion","match","uniform","","","","","","","1445.7000000029802","293377.3999999985","294823.1000000015","[""stimuli/WF11_DO.jpg"",""stimuli/WF06_AO.jpg"",""stimuli/WF04_HE.jpg"",""stimuli/HM02_SC.jpg""]","stimuli/WF11_DO.jpg","stimuli/WF06_AO.jpg","stimuli/WF04_HE.jpg","stimuli/HM02_SC.jpg","pos3","stimuli/WF04_HE.jpg","HE","WF04","2","5","10","8","stimuli/stars_10.png","137","[""DO"",""AO"",""HE"",""SC""]","[""WF11"",""WF06"",""WF04"",""HM02""]","[5,1,10,3]","[6,2,8,4]","","",""
"show-reward","74","290395","0.0-74.0","p89799","A2MS1GQLGAX9FZ","3RZS0FBRWLGDTA9TUPH81F59AWHPC0","33CUSNVVNPITYZITHY4T2R9PE7R88F","emotion","match","uniform","","","","","","","","295337.30000000075","297341.3999999985","","","","","","","","","","","","10","","stimuli/stars_10.png","137","","","","","stimuli/WF04_HE.jpg","",""
"explore-choice","75","292552","0.0-75.0","p89799","A2MS1GQLGAX9FZ","3RZS0FBRWLGDTA9TUPH81F59AWHPC0","33CUSNVVNPITYZITHY4T2R9PE7R88F","emotion","match","uniform","","","","","","","1644.199999999255","297342.69999999925","298986.8999999985","[""stimuli/HM02_AO.jpg"",""stimuli/WF04_SC.jpg"",""stimuli/WF11_DO.jpg"",""stimuli/WF06_HE.jpg""]","stimuli/HM02_AO.jpg","stimuli/WF04_SC.jpg","stimuli/WF11_DO.jpg","stimuli/WF06_HE.jpg","pos4","stimuli/WF06_HE.jpg","HE","WF06","3","5","10","8","stimuli/stars_10.png","142","[""AO"",""SC"",""DO"",""HE""]","[""HM02"",""WF04"",""WF11"",""WF06""]","[2,2,6,10]","[2,4,6,8]","","",""
"show-reward","76","294561","0.0-76.0","p89799","A2MS1GQLGAX9FZ","3RZS0FBRWLGDTA9TUPH81F59AWHPC0","33CUSNVVNPITYZITHY4T2R9PE7R88F","emotion","match","uniform","","","","","","","","299499.6000000015","301506.80000000075","","","","","","","","","","","","10","","stimuli/stars_10.png","142","","","","","stimuli/WF06_HE.jpg","",""
"explore-choice","77","296490","0.0-77.0","p89799","A2MS1GQLGAX9FZ","3RZS0FBRWLGDTA9TUPH81F59AWHPC0","33CUSNVVNPITYZITHY4T2R9PE7R88F","emotion","match","uniform","","","","","","","1420.0999999977648","301508.30000000075","302928.3999999985","[""stimuli/WF11_AO.jpg"",""stimuli/HM02_HE.jpg"",""stimuli/WF06_DO.jpg"",""stimuli/WF04_SC.jpg""]","stimuli/WF11_AO.jpg","stimuli/HM02_HE.jpg","stimuli/WF06_DO.jpg","stimuli/WF04_SC.jpg","pos2","stimuli/HM02_HE.jpg","HE","HM02","1","3.5","7","8","stimuli/stars_7.png","145.5","[""AO"",""HE"",""DO"",""SC""]","[""WF11"",""HM02"",""WF06"",""WF04""]","[2,7,5,6]","[2,8,6,4]","","",""
"show-reward","78","298503","0.0-78.0","p89799","A2MS1GQLGAX9FZ","3RZS0FBRWLGDTA9TUPH81F59AWHPC0","33CUSNVVNPITYZITHY4T2R9PE7R88F","emotion","match","uniform","","","","","","","","303437.1000000015","305449.3999999985","","","","","","","","","","","","7","","stimuli/stars_7.png","145.5","","","","","stimuli/HM02_HE.jpg","",""
"explore-choice","79","300473","0.0-79.0","p89799","A2MS1GQLGAX9FZ","3RZS0FBRWLGDTA9TUPH81F59AWHPC0","33CUSNVVNPITYZITHY4T2R9PE7R88F","emotion","match","uniform","","","","","","","1462.199999999255","305450.80000000075","306913","[""stimuli/WF04_AO.jpg"",""stimuli/HM02_DO.jpg"",""stimuli/WF06_HE.jpg"",""stimuli/WF11_SC.jpg""]","stimuli/WF04_AO.jpg","stimuli/HM02_DO.jpg","stimuli/WF06_HE.jpg","stimuli/WF11_SC.jpg","pos3","stimuli/WF06_HE.jpg","HE","WF06","2","3","6","8","stimuli/stars_6.png","148.5","[""AO"",""DO"",""HE"",""SC""]","[""WF04"",""HM02"",""WF06"",""WF11""]","[1,7,6,4]","[2,6,8,4]","","",""
"show-reward","80","302490","0.0-80.0","p89799","A2MS1GQLGAX9FZ","3RZS0FBRWLGDTA9TUPH81F59AWHPC0","33CUSNVVNPITYZITHY4T2R9PE7R88F","emotion","match","uniform","","","","","","","","307421.19999999925","309436.3999999985","","","","","","","","","","","","6","","stimuli/stars_6.png","148.5","","","","","stimuli/WF06_HE.jpg","",""
"explore-choice","81","304802","0.0-81.0","p89799","A2MS1GQLGAX9FZ","3RZS0FBRWLGDTA9TUPH81F59AWHPC0","33CUSNVVNPITYZITHY4T2R9PE7R88F","emotion","match","uniform","","","","","","","1801.199999999255","309437.6000000015","311238.80000000075","[""stimuli/WF04_AO.jpg"",""stimuli/WF06_DO.jpg"",""stimuli/HM02_HE.jpg"",""stimuli/WF11_SC.jpg""]","stimuli/WF04_AO.jpg","stimuli/WF06_DO.jpg","stimuli/HM02_HE.jpg","stimuli/WF11_SC.jpg","pos3","stimuli/HM02_HE.jpg","HE","HM02","2","5","10","8","stimuli/stars_10.png","153.5","[""AO"",""DO"",""HE"",""SC""]","[""WF04"",""WF06"",""HM02"",""WF11""]","[3,4,10,3]","[2,6,8,4]","","",""
"show-reward","82","306818","0.0-82.0","p89799","A2MS1GQLGAX9FZ","3RZS0FBRWLGDTA9TUPH81F59AWHPC0","33CUSNVVNPITYZITHY4T2R9PE7R88F","emotion","match","uniform","","","","","","","","311749.69999999925","313764.69999999925","","","","","","","","","","","","10","","stimuli/stars_10.png","153.5","","","","","stimuli/HM02_HE.jpg","",""
"explore-choice","83","308635","0.0-83.0","p89799","A2MS1GQLGAX9FZ","3RZS0FBRWLGDTA9TUPH81F59AWHPC0","33CUSNVVNPITYZITHY4T2R9PE7R88F","emotion","match","uniform","","","","","","","1307.5999999977648","313766.1000000015","315073.69999999925","[""stimuli/WF11_AO.jpg"",""stimuli/HM02_DO.jpg"",""stimuli/WF04_HE.jpg"",""stimuli/WF06_SC.jpg""]","stimuli/WF11_AO.jpg","stimuli/HM02_DO.jpg","stimuli/WF04_HE.jpg","stimuli/WF06_SC.jpg","pos3","stimuli/WF04_HE.jpg","HE","WF04","2","4.5","9","8","stimuli/stars_9.png","158","[""AO"",""DO"",""HE"",""SC""]","[""WF11"",""HM02"",""WF04"",""WF06""]","[4,6,9,6]","[2,6,8,4]","","",""
"show-reward","84","310640","0.0-84.0","p89799","A2MS1GQLGAX9FZ","3RZS0FBRWLGDTA9TUPH81F59AWHPC0","33CUSNVVNPITYZITHY4T2R9PE7R88F","emotion","match","uniform","","","","","","","","315582.19999999925","317586.1000000015","","","","","","","","","","","","9","","stimuli/stars_9.png","158","","","","","stimuli/WF04_HE.jpg","",""
"explore-choice","85","312284","0.0-85.0","p89799","A2MS1GQLGAX9FZ","3RZS0FBRWLGDTA9TUPH81F59AWHPC0","33CUSNVVNPITYZITHY4T2R9PE7R88F","emotion","match","uniform","","","","","","","1131.7999999970198","317587.6000000015","318719.3999999985","[""stimuli/WF06_AO.jpg"",""stimuli/HM02_DO.jpg"",""stimuli/WF04_HE.jpg"",""stimuli/WF11_SC.jpg""]","stimuli/WF06_AO.jpg","stimuli/HM02_DO.jpg","stimuli/WF04_HE.jpg","stimuli/WF11_SC.jpg","pos3","stimuli/WF04_HE.jpg","HE","WF04","2","3","6","8","stimuli/stars_6.png","161","[""AO"",""DO"",""HE"",""SC""]","[""WF06"",""HM02"",""WF04"",""WF11""]","[0,5,6,4]","[2,6,8,4]","","",""
"show-reward","86","314288","0.0-86.0","p89799","A2MS1GQLGAX9FZ","3RZS0FBRWLGDTA9TUPH81F59AWHPC0","33CUSNVVNPITYZITHY4T2R9PE7R88F","emotion","match","uniform","","","","","","","","319232","321234.30000000075","","","","","","","","","","","","6","","stimuli/stars_6.png","161","","","","","stimuli/WF04_HE.jpg","",""
"explore-choice","87","316570","0.0-87.0","p89799","A2MS1GQLGAX9FZ","3RZS0FBRWLGDTA9TUPH81F59AWHPC0","33CUSNVVNPITYZITHY4T2R9PE7R88F","emotion","match","uniform","","","","","","","1770.5999999977648","321235.6000000015","323006.19999999925","[""stimuli/WF04_DO.jpg"",""stimuli/WF06_AO.jpg"",""stimuli/WF11_SC.jpg"",""stimuli/HM02_HE.jpg""]","stimuli/WF04_DO.jpg","stimuli/WF06_AO.jpg","stimuli/WF11_SC.jpg","stimuli/HM02_HE.jpg","pos4","stimuli/HM02_HE.jpg","HE","HM02","3","5","10","8","stimuli/stars_10.png","166","[""DO"",""AO"",""SC"",""HE""]","[""WF04"",""WF06"",""WF11"",""HM02""]","[4,0,5,10]","[6,2,4,8]","","",""
"show-reward","88","318585","0.0-88.0","p89799","A2MS1GQLGAX9FZ","3RZS0FBRWLGDTA9TUPH81F59AWHPC0","33CUSNVVNPITYZITHY4T2R9PE7R88F","emotion","match","uniform","","","","","","","","323518.6000000015","325531.6000000015","","","","","","","","","","","","10","","stimuli/stars_10.png","166","","","","","stimuli/HM02_HE.jpg","",""
"explore-choice","89","320218","0.0-89.0","p89799","A2MS1GQLGAX9FZ","3RZS0FBRWLGDTA9TUPH81F59AWHPC0","33CUSNVVNPITYZITHY4T2R9PE7R88F","emotion","match","uniform","","","","","","","1121.1000000014901","325532.69999999925","326653.80000000075","[""stimuli/WF04_HE.jpg"",""stimuli/HM02_AO.jpg"",""stimuli/WF11_DO.jpg"",""stimuli/WF06_SC.jpg""]","stimuli/WF04_HE.jpg","stimuli/HM02_AO.jpg","stimuli/WF11_DO.jpg","stimuli/WF06_SC.jpg","pos1","stimuli/WF04_HE.jpg","HE","WF04","0","3","6","8","stimuli/stars_6.png","169","[""HE"",""AO"",""DO"",""SC""]","[""WF04"",""HM02"",""WF11"",""WF06""]","[6,4,4,5]","[8,2,6,4]","","",""
"show-reward","90","322228","0.0-90.0","p89799","A2MS1GQLGAX9FZ","3RZS0FBRWLGDTA9TUPH81F59AWHPC0","33CUSNVVNPITYZITHY4T2R9PE7R88F","emotion","match","uniform","","","","","","","","327166","329174.80000000075","","","","","","","","","","","","6","","stimuli/stars_6.png","169","","","","","stimuli/WF04_HE.jpg","",""
"explore-choice","91","325098","0.0-91.0","p89799","A2MS1GQLGAX9FZ","3RZS0FBRWLGDTA9TUPH81F59AWHPC0","33CUSNVVNPITYZITHY4T2R9PE7R88F","emotion","match","uniform","","","","","","","2360.599999997765","329176.1000000015","331536.69999999925","[""stimuli/WF04_AO.jpg"",""stimuli/WF11_HE.jpg"",""stimuli/WF06_DO.jpg"",""stimuli/HM02_SC.jpg""]","stimuli/WF04_AO.jpg","stimuli/WF11_HE.jpg","stimuli/WF06_DO.jpg","stimuli/HM02_SC.jpg","pos2","stimuli/WF11_HE.jpg","HE","WF11","1","3.5","7","8","stimuli/stars_7.png","172.5","[""AO"",""HE"",""DO"",""SC""]","[""WF04"",""WF11"",""WF06"",""HM02""]","[4,7,6,6]","[2,8,6,4]","","",""
"show-reward","92","327113","0.0-92.0","p89799","A2MS1GQLGAX9FZ","3RZS0FBRWLGDTA9TUPH81F59AWHPC0","33CUSNVVNPITYZITHY4T2R9PE7R88F","emotion","match","uniform","","","","","","","","332046.19999999925","334059.30000000075","","","","","","","","","","","","7","","stimuli/stars_7.png","172.5","","","","","stimuli/WF11_HE.jpg","",""
"explore-choice","93","329806","0.0-93.0","p89799","A2MS1GQLGAX9FZ","3RZS0FBRWLGDTA9TUPH81F59AWHPC0","33CUSNVVNPITYZITHY4T2R9PE7R88F","emotion","match","uniform","","","","","","","2184","334060.8999999985","336244.8999999985","[""stimuli/WF06_AO.jpg"",""stimuli/WF11_HE.jpg"",""stimuli/WF04_SC.jpg"",""stimuli/HM02_DO.jpg""]","stimuli/WF06_AO.jpg","stimuli/WF11_HE.jpg","stimuli/WF04_SC.jpg","stimuli/HM02_DO.jpg","pos2","stimuli/WF11_HE.jpg","HE","WF11","1","4.5","9","8","stimuli/stars_9.png","177","[""AO"",""HE"",""SC"",""DO""]","[""WF06"",""WF11"",""WF04"",""HM02""]","[2,9,6,4]","[2,8,4,6]","","",""
"show-reward","94","331818","0.0-94.0","p89799","A2MS1GQLGAX9FZ","3RZS0FBRWLGDTA9TUPH81F59AWHPC0","33CUSNVVNPITYZITHY4T2R9PE7R88F","emotion","match","uniform","","","","","","","","336753.30000000075","338764.1000000015","","","","","","","","","","","","9","","stimuli/stars_9.png","177","","","","","stimuli/WF11_HE.jpg","",""
"explore-choice","95","334031","0.0-95.0","p89799","A2MS1GQLGAX9FZ","3RZS0FBRWLGDTA9TUPH81F59AWHPC0","33CUSNVVNPITYZITHY4T2R9PE7R88F","emotion","match","uniform","","","","","","","1693.3999999985099","338766","340459.3999999985","[""stimuli/HM02_SC.jpg"",""stimuli/WF06_AO.jpg"",""stimuli/WF11_HE.jpg"",""stimuli/WF04_DO.jpg""]","stimuli/HM02_SC.jpg","stimuli/WF06_AO.jpg","stimuli/WF11_HE.jpg","stimuli/WF04_DO.jpg","pos3","stimuli/WF11_HE.jpg","HE","WF11","2","3","6","8","stimuli/stars_6.png","180","[""SC"",""AO"",""HE"",""DO""]","[""HM02"",""WF06"",""WF11"",""WF04""]","[2,0,6,6]","[4,2,8,6]","","",""
"show-reward","96","336045","0.0-96.0","p89799","A2MS1GQLGAX9FZ","3RZS0FBRWLGDTA9TUPH81F59AWHPC0","33CUSNVVNPITYZITHY4T2R9PE7R88F","emotion","match","uniform","","","","","","","","340978.8999999985","342991.30000000075","","","","","","","","","","","","6","","stimuli/stars_6.png","180","","","","","stimuli/WF11_HE.jpg","",""
"explore-choice","97","338092","0.0-97.0","p89799","A2MS1GQLGAX9FZ","3RZS0FBRWLGDTA9TUPH81F59AWHPC0","33CUSNVVNPITYZITHY4T2R9PE7R88F","emotion","match","uniform","","","","","","","1538.699999999255","342992.69999999925","344531.3999999985","[""stimuli/WF06_DO.jpg"",""stimuli/HM02_AO.jpg"",""stimuli/WF11_SC.jpg"",""stimuli/WF04_HE.jpg""]","stimuli/WF06_DO.jpg","stimuli/HM02_AO.jpg","stimuli/WF11_SC.jpg","stimuli/WF04_HE.jpg","pos4","stimuli/WF04_HE.jpg","HE","WF04","3","5","10","8","stimuli/stars_10.png","185","[""DO"",""AO"",""SC"",""HE""]","[""WF06"",""HM02"",""WF11"",""WF04""]","[6,1,2,10]","[6,2,4,8]","","",""
"show-reward","98","340097","0.0-98.0","p89799","A2MS1GQLGAX9FZ","3RZS0FBRWLGDTA9TUPH81F59AWHPC0","33CUSNVVNPITYZITHY4T2R9PE7R88F","emotion","match","uniform","","","","","","","","345040.19999999925","347043.80000000075","","","","","","","","","","","","10","","stimuli/stars_10.png","185","","","","","stimuli/WF04_HE.jpg","",""
"explore-choice","99","341850","0.0-99.0","p89799","A2MS1GQLGAX9FZ","3RZS0FBRWLGDTA9TUPH81F59AWHPC0","33CUSNVVNPITYZITHY4T2R9PE7R88F","emotion","match","uniform","","","","","","","1241.9000000022352","347045.19999999925","348287.1000000015","[""stimuli/WF04_DO.jpg"",""stimuli/HM02_HE.jpg"",""stimuli/WF06_SC.jpg"",""stimuli/WF11_AO.jpg""]","stimuli/WF04_DO.jpg","stimuli/HM02_HE.jpg","stimuli/WF06_SC.jpg","stimuli/WF11_AO.jpg","pos2","stimuli/HM02_HE.jpg","HE","HM02","1","4","8","8","stimuli/stars_8.png","189","[""DO"",""HE"",""SC"",""AO""]","[""WF04"",""HM02"",""WF06"",""WF11""]","[4,8,6,2]","[6,8,4,2]","","",""
"show-reward","100","343865","0.0-100.0","p89799","A2MS1GQLGAX9FZ","3RZS0FBRWLGDTA9TUPH81F59AWHPC0","33CUSNVVNPITYZITHY4T2R9PE7R88F","emotion","match","uniform","","","","","","","","348797.3999999985","350811.3999999985","","","","","","","","","","","","8","","stimuli/stars_8.png","189","","","","","stimuli/HM02_HE.jpg","",""
"explore-choice","101","345808","0.0-101.0","p89799","A2MS1GQLGAX9FZ","3RZS0FBRWLGDTA9TUPH81F59AWHPC0","33CUSNVVNPITYZITHY4T2R9PE7R88F","emotion","match","uniform","","","","","","","1433","350812.69999999925","352245.69999999925","[""stimuli/HM02_SC.jpg"",""stimuli/WF06_DO.jpg"",""stimuli/WF04_HE.jpg"",""stimuli/WF11_AO.jpg""]","stimuli/HM02_SC.jpg","stimuli/WF06_DO.jpg","stimuli/WF04_HE.jpg","stimuli/WF11_AO.jpg","pos3","stimuli/WF04_HE.jpg","HE","WF04","2","4","8","8","stimuli/stars_8.png","193","[""SC"",""DO"",""HE"",""AO""]","[""HM02"",""WF06"",""WF04"",""WF11""]","[2,4,8,3]","[4,6,8,2]","","",""
"show-reward","102","347822","0.0-102.0","p89799","A2MS1GQLGAX9FZ","3RZS0FBRWLGDTA9TUPH81F59AWHPC0","33CUSNVVNPITYZITHY4T2R9PE7R88F","emotion","match","uniform","","","","","","","","352755.69999999925","354768.80000000075","","","","","","","","","","","","8","","stimuli/stars_8.png","193","","","","","stimuli/WF04_HE.jpg","",""
"explore-choice","103","350033","0.0-103.0","p89799","A2MS1GQLGAX9FZ","3RZS0FBRWLGDTA9TUPH81F59AWHPC0","33CUSNVVNPITYZITHY4T2R9PE7R88F","emotion","match","uniform","","","","","","","1699.2999999970198","354770.1000000015","356469.3999999985","[""stimuli/WM13_SUR.jpg"",""stimuli/BM16_CC.jpg"",""stimuli/HM10_FO.jpg"",""stimuli/BM04_HO.jpg""]","stimuli/WM13_SUR.jpg","stimuli/BM16_CC.jpg","stimuli/HM10_FO.jpg","stimuli/BM04_HO.jpg","pos4","stimuli/BM04_HO.jpg","HO","BM04","3","1.5","3","2","stimuli/stars_3.png","194.5","[""SUR"",""CC"",""FO"",""HO""]","[""WM13"",""BM16"",""HM10"",""BM04""]","[8,2,8,3]","[6,4,8,2]","","",""
"show-reward","104","352046","0.0-104.0","p89799","A2MS1GQLGAX9FZ","3RZS0FBRWLGDTA9TUPH81F59AWHPC0","33CUSNVVNPITYZITHY4T2R9PE7R88F","emotion","match","uniform","","","","","","","","356980.6000000015","358992.1000000015","","","","","","","","","","","","3","","stimuli/stars_3.png","194.5","","","","","stimuli/BM04_HO.jpg","",""
"explore-choice","105","356175","0.0-105.0","p89799","A2MS1GQLGAX9FZ","3RZS0FBRWLGDTA9TUPH81F59AWHPC0","33CUSNVVNPITYZITHY4T2R9PE7R88F","emotion","match","uniform","","","","","","","3627.300000000745","358993.5","362620.80000000075","[""stimuli/WM13_FO.jpg"",""stimuli/HM10_SUR.jpg"",""stimuli/BM04_HO.jpg"",""stimuli/BM16_CC.jpg""]","stimuli/WM13_FO.jpg","stimuli/HM10_SUR.jpg","stimuli/BM04_HO.jpg","stimuli/BM16_CC.jpg","pos2","stimuli/HM10_SUR.jpg","SUR","HM10","1","3.5","7","6","stimuli/stars_7.png","198","[""FO"",""SUR"",""HO"",""CC""]","[""WM13"",""HM10"",""BM04"",""BM16""]","[7,7,2,2]","[8,6,2,4]","","",""
"show-reward","106","358185","0.0-106.0","p89799","A2MS1GQLGAX9FZ","3RZS0FBRWLGDTA9TUPH81F59AWHPC0","33CUSNVVNPITYZITHY4T2R9PE7R88F","emotion","match","uniform","","","","","","","","363123.5","365131.3999999985","","","","","","","","","","","","7","","stimuli/stars_7.png","198","","","","","stimuli/HM10_SUR.jpg","",""
"explore-choice","107","360582","0.0-107.0","p89799","A2MS1GQLGAX9FZ","3RZS0FBRWLGDTA9TUPH81F59AWHPC0","33CUSNVVNPITYZITHY4T2R9PE7R88F","emotion","match","uniform","","","","","","","1890.8999999985099","365132.30000000075","367023.19999999925","[""stimuli/BM16_FO.jpg"",""stimuli/HM10_SUR.jpg"",""stimuli/WM13_CC.jpg"",""stimuli/BM04_HO.jpg""]","stimuli/BM16_FO.jpg","stimuli/HM10_SUR.jpg","stimuli/WM13_CC.jpg","stimuli/BM04_HO.jpg","pos2","stimuli/HM10_SUR.jpg","SUR","HM10","1","3.5","7","6","stimuli/stars_7.png","201.5","[""FO"",""SUR"",""CC"",""HO""]","[""BM16"",""HM10"",""WM13"",""BM04""]","[9,7,4,0]","[8,6,4,2]","","",""
"show-reward","108","362591","0.0-108.0","p89799","A2MS1GQLGAX9FZ","3RZS0FBRWLGDTA9TUPH81F59AWHPC0","33CUSNVVNPITYZITHY4T2R9PE7R88F","emotion","match","uniform","","","","","","","","367529.8999999985","369537.80000000075","","","","","","","","","","","","7","","stimuli/stars_7.png","201.5","","","","","stimuli/HM10_SUR.jpg","",""
"explore-choice","109","364249","0.0-109.0","p89799","A2MS1GQLGAX9FZ","3RZS0FBRWLGDTA9TUPH81F59AWHPC0","33CUSNVVNPITYZITHY4T2R9PE7R88F","emotion","match","uniform","","","","","","","1145.7999999970198","369539.1000000015","370684.8999999985","[""stimuli/HM10_HO.jpg"",""stimuli/BM04_SUR.jpg"",""stimuli/BM16_CC.jpg"",""stimuli/WM13_FO.jpg""]","stimuli/HM10_HO.jpg","stimuli/BM04_SUR.jpg","stimuli/BM16_CC.jpg","stimuli/WM13_FO.jpg","pos1","stimuli/HM10_HO.jpg","HO","HM10","0","2","4","2","stimuli/stars_4.png","203.5","[""HO"",""SUR"",""CC"",""FO""]","[""HM10"",""BM04"",""BM16"",""WM13""]","[4,5,6,9]","[2,6,4,8]","","",""
"show-reward","110","366260","0.0-110.0","p89799","A2MS1GQLGAX9FZ","3RZS0FBRWLGDTA9TUPH81F59AWHPC0","33CUSNVVNPITYZITHY4T2R9PE7R88F","emotion","match","uniform","","","","","","","","371196.5","373206.19999999925","","","","","","","","","","","","4","","stimuli/stars_4.png","203.5","","","","","stimuli/HM10_HO.jpg","",""
"explore-choice","111","368135","0.0-111.0","p89799","A2MS1GQLGAX9FZ","3RZS0FBRWLGDTA9TUPH81F59AWHPC0","33CUSNVVNPITYZITHY4T2R9PE7R88F","emotion","match","uniform","","","","","","","1365.199999999255","373207.80000000075","374573","[""stimuli/HM10_CC.jpg"",""stimuli/BM16_HO.jpg"",""stimuli/WM13_SUR.jpg"",""stimuli/BM04_FO.jpg""]","stimuli/HM10_CC.jpg","stimuli/BM16_HO.jpg","stimuli/WM13_SUR.jpg","stimuli/BM04_FO.jpg","pos2","stimuli/BM16_HO.jpg","HO","BM16","1","1.5","3","2","stimuli/stars_3.png","205","[""CC"",""HO"",""SUR"",""FO""]","[""HM10"",""BM16"",""WM13"",""BM04""]","[6,3,6,7]","[4,2,6,8]","","",""
"show-reward","112","370146","0.0-112.0","p89799","A2MS1GQLGAX9FZ","3RZS0FBRWLGDTA9TUPH81F59AWHPC0","33CUSNVVNPITYZITHY4T2R9PE7R88F","emotion","match","uniform","","","","","","","","375082.3999999985","377092.80000000075","","","","","","","","","","","","3","","stimuli/stars_3.png","205","","","","","stimuli/BM16_HO.jpg","",""
"explore-choice","113","372021","0.0-113.0","p89799","A2MS1GQLGAX9FZ","3RZS0FBRWLGDTA9TUPH81F59AWHPC0","33CUSNVVNPITYZITHY4T2R9PE7R88F","emotion","match","uniform","","","","","","","1365.7999999970198","377094.1000000015","378459.8999999985","[""stimuli/BM16_FO.jpg"",""stimuli/WM13_HO.jpg"",""stimuli/HM10_SUR.jpg"",""stimuli/BM04_CC.jpg""]","stimuli/BM16_FO.jpg","stimuli/WM13_HO.jpg","stimuli/HM10_SUR.jpg","stimuli/BM04_CC.jpg","pos1","stimuli/BM16_FO.jpg","FO","BM16","0","4.5","9","8","stimuli/stars_9.png","209.5","[""FO"",""HO"",""SUR"",""CC""]","[""BM16"",""WM13"",""HM10"",""BM04""]","[9,2,8,5]","[8,2,6,4]","","",""
"show-reward","114","374036","0.0-114.0","p89799","A2MS1GQLGAX9FZ","3RZS0FBRWLGDTA9TUPH81F59AWHPC0","33CUSNVVNPITYZITHY4T2R9PE7R88F","emotion","match","uniform","","","","","","","","378968.3999999985","380982.5","","","","","","","","","","","","9","","stimuli/stars_9.png","209.5","","","","","stimuli/BM16_FO.jpg","",""
"explore-choice","115","376992","0.0-115.0","p89799","A2MS1GQLGAX9FZ","3RZS0FBRWLGDTA9TUPH81F59AWHPC0","33CUSNVVNPITYZITHY4T2R9PE7R88F","emotion","match","uniform","","","","","","","2449.39999999851","380984","383433.3999999985","[""stimuli/BM16_HO.jpg"",""stimuli/HM10_FO.jpg"",""stimuli/WM13_CC.jpg"",""stimuli/BM04_SUR.jpg""]","stimuli/BM16_HO.jpg","stimuli/HM10_FO.jpg","stimuli/WM13_CC.jpg","stimuli/BM04_SUR.jpg","pos2","stimuli/HM10_FO.jpg","FO","HM10","1","3.5","7","8","stimuli/stars_7.png","213","[""HO"",""FO"",""CC"",""SUR""]","[""BM16"",""HM10"",""WM13"",""BM04""]","[2,7,2,6]","[2,8,4,6]","","",""
"show-reward","116","379005","0.0-116.0","p89799","A2MS1GQLGAX9FZ","3RZS0FBRWLGDTA9TUPH81F59AWHPC0","33CUSNVVNPITYZITHY4T2R9PE7R88F","emotion","match","uniform","","","","","","","","383940.8999999985","385951.5","","","","","","","","","","","","7","","stimuli/stars_7.png","213","","","","","stimuli/HM10_FO.jpg","",""
"explore-choice","117","382631","0.0-117.0","p89799","A2MS1GQLGAX9FZ","3RZS0FBRWLGDTA9TUPH81F59AWHPC0","33CUSNVVNPITYZITHY4T2R9PE7R88F","emotion","match","uniform","","","","","","","3118.800000000745","385952.69999999925","389071.5","[""stimuli/BM04_CC.jpg"",""stimuli/HM10_SUR.jpg"",""stimuli/BM16_HO.jpg"",""stimuli/WM13_FO.jpg""]","stimuli/BM04_CC.jpg","stimuli/HM10_SUR.jpg","stimuli/BM16_HO.jpg","stimuli/WM13_FO.jpg","pos4","stimuli/WM13_FO.jpg","FO","WM13","3","4.5","9","8","stimuli/stars_9.png","217.5","[""CC"",""SUR"",""HO"",""FO""]","[""BM04"",""HM10"",""BM16"",""WM13""]","[5,8,2,9]","[4,6,2,8]","","",""
"show-reward","118","384649","0.0-118.0","p89799","A2MS1GQLGAX9FZ","3RZS0FBRWLGDTA9TUPH81F59AWHPC0","33CUSNVVNPITYZITHY4T2R9PE7R88F","emotion","match","uniform","","","","","","","","389579","391595.69999999925","","","","","","","","","","","","9","","stimuli/stars_9.png","217.5","","","","","stimuli/WM13_FO.jpg","",""
"explore-choice","119","386527","0.0-119.0","p89799","A2MS1GQLGAX9FZ","3RZS0FBRWLGDTA9TUPH81F59AWHPC0","33CUSNVVNPITYZITHY4T2R9PE7R88F","emotion","match","uniform","","","","","","","1364.2000000029802","391596.8999999985","392961.1000000015","[""stimuli/WM13_FO.jpg"",""stimuli/HM10_CC.jpg"",""stimuli/BM16_SUR.jpg"",""stimuli/BM04_HO.jpg""]","stimuli/WM13_FO.jpg","stimuli/HM10_CC.jpg","stimuli/BM16_SUR.jpg","stimuli/BM04_HO.jpg","pos1","stimuli/WM13_FO.jpg","FO","WM13","0","4.5","9","8","stimuli/stars_9.png","222","[""FO"",""CC"",""SUR"",""HO""]","[""WM13"",""HM10"",""BM16"",""BM04""]","[9,5,5,2]","[8,4,6,2]","","",""
"show-reward","120","388544","0.0-120.0","p89799","A2MS1GQLGAX9FZ","3RZS0FBRWLGDTA9TUPH81F59AWHPC0","33CUSNVVNPITYZITHY4T2R9PE7R88F","emotion","match","uniform","","","","","","","","393474.80000000075","395491","","","","","","","","","","","","9","","stimuli/stars_9.png","222","","","","","stimuli/WM13_FO.jpg","",""
"explore-choice","121","390856","0.0-121.0","p89799","A2MS1GQLGAX9FZ","3RZS0FBRWLGDTA9TUPH81F59AWHPC0","33CUSNVVNPITYZITHY4T2R9PE7R88F","emotion","match","uniform","","","","","","","1803","395492.19999999925","397295.19999999925","[""stimuli/BM16_SUR.jpg"",""stimuli/HM10_HO.jpg"",""stimuli/BM04_CC.jpg"",""stimuli/WM13_FO.jpg""]","stimuli/BM16_SUR.jpg","stimuli/HM10_HO.jpg","stimuli/BM04_CC.jpg","stimuli/WM13_FO.jpg","pos4","stimuli/WM13_FO.jpg","FO","WM13","3","5","10","8","stimuli/stars_10.png","227","[""SUR"",""HO"",""CC"",""FO""]","[""BM16"",""HM10"",""BM04"",""WM13""]","[8,1,2,10]","[6,2,4,8]","","",""
"show-reward","122","392872","0.0-122.0","p89799","A2MS1GQLGAX9FZ","3RZS0FBRWLGDTA9TUPH81F59AWHPC0","33CUSNVVNPITYZITHY4T2R9PE7R88F","emotion","match","uniform","","","","","","","","397804.6000000015","399819.1000000015","","","","","","","","","","","","10","","stimuli/stars_10.png","227","","","","","stimuli/WM13_FO.jpg","",""
"explore-choice","123","395500","0.0-123.0","p89799","A2MS1GQLGAX9FZ","3RZS0FBRWLGDTA9TUPH81F59AWHPC0","33CUSNVVNPITYZITHY4T2R9PE7R88F","emotion","match","uniform","","","","","","","2115.199999999255","399820.69999999925","401935.8999999985","[""stimuli/WM13_HO.jpg"",""stimuli/BM04_FO.jpg"",""stimuli/HM10_CC.jpg"",""stimuli/BM16_SUR.jpg""]","stimuli/WM13_HO.jpg","stimuli/BM04_FO.jpg","stimuli/HM10_CC.jpg","stimuli/BM16_SUR.jpg","pos2","stimuli/BM04_FO.jpg","FO","BM04","1","4","8","8","stimuli/stars_8.png","231","[""HO"",""FO"",""CC"",""SUR""]","[""WM13"",""BM04"",""HM10"",""BM16""]","[4,8,5,6]","[2,8,4,6]","","",""
"show-reward","124","397515","0.0-124.0","p89799","A2MS1GQLGAX9FZ","3RZS0FBRWLGDTA9TUPH81F59AWHPC0","33CUSNVVNPITYZITHY4T2R9PE7R88F","emotion","match","uniform","","","","","","","","402447.30000000075","404462.5","","","","","","","","","","","","8","","stimuli/stars_8.png","231","","","","","stimuli/BM04_FO.jpg","",""
"explore-choice","125","399892","0.0-125.0","p89799","A2MS1GQLGAX9FZ","3RZS0FBRWLGDTA9TUPH81F59AWHPC0","33CUSNVVNPITYZITHY4T2R9PE7R88F","emotion","match","uniform","","","","","","","1868.300000000745","404464","406332.30000000075","[""stimuli/BM04_HO.jpg"",""stimuli/HM10_CC.jpg"",""stimuli/WM13_SUR.jpg"",""stimuli/BM16_FO.jpg""]","stimuli/BM04_HO.jpg","stimuli/HM10_CC.jpg","stimuli/WM13_SUR.jpg","stimuli/BM16_FO.jpg","pos3","stimuli/WM13_SUR.jpg","SUR","WM13","2","3","6","6","stimuli/stars_6.png","234","[""HO"",""CC"",""SUR"",""FO""]","[""BM04"",""HM10"",""WM13"",""BM16""]","[0,6,6,9]","[2,4,6,8]","","",""
"show-reward","126","401897","0.0-126.0","p89799","A2MS1GQLGAX9FZ","3RZS0FBRWLGDTA9TUPH81F59AWHPC0","33CUSNVVNPITYZITHY4T2R9PE7R88F","emotion","match","uniform","","","","","","","","406840.19999999925","408843.6000000015","","","","","","","","","","","","6","","stimuli/stars_6.png","234","","","","","stimuli/WM13_SUR.jpg","",""
"explore-choice","127","404533","0.0-127.0","p89799","A2MS1GQLGAX9FZ","3RZS0FBRWLGDTA9TUPH81F59AWHPC0","33CUSNVVNPITYZITHY4T2R9PE7R88F","emotion","match","uniform","","","","","","","2125.39999999851","408845","410970.3999999985","[""stimuli/BM16_HO.jpg"",""stimuli/WM13_SUR.jpg"",""stimuli/HM10_FO.jpg"",""stimuli/BM04_CC.jpg""]","stimuli/BM16_HO.jpg","stimuli/WM13_SUR.jpg","stimuli/HM10_FO.jpg","stimuli/BM04_CC.jpg","pos3","stimuli/HM10_FO.jpg","FO","HM10","2","4.5","9","8","stimuli/stars_9.png","238.5","[""HO"",""SUR"",""FO"",""CC""]","[""BM16"",""WM13"",""HM10"",""BM04""]","[3,8,9,3]","[2,6,8,4]","","",""
"show-reward","128","406550","0.0-128.0","p89799","A2MS1GQLGAX9FZ","3RZS0FBRWLGDTA9TUPH81F59AWHPC0","33CUSNVVNPITYZITHY4T2R9PE7R88F","emotion","match","uniform","","","","","","","","411481.1000000015","413496.8999999985","","","","","","","","","","","","9","","stimuli/stars_9.png","238.5","","","","","stimuli/HM10_FO.jpg","",""
"explore-choice","129","408470","0.0-129.0","p89799","A2MS1GQLGAX9FZ","3RZS0FBRWLGDTA9TUPH81F59AWHPC0","33CUSNVVNPITYZITHY4T2R9PE7R88F","emotion","match","uniform","","","","","","","1412.8999999985099","413498.30000000075","414911.19999999925","[""stimuli/BM04_FO.jpg"",""stimuli/WM13_SUR.jpg"",""stimuli/HM10_HO.jpg"",""stimuli/BM16_CC.jpg""]","stimuli/BM04_FO.jpg","stimuli/WM13_SUR.jpg","stimuli/HM10_HO.jpg","stimuli/BM16_CC.jpg","pos2","stimuli/WM13_SUR.jpg","SUR","WM13","1","2.5","5","6","stimuli/stars_5.png","241","[""FO"",""SUR"",""HO"",""CC""]","[""BM04"",""WM13"",""HM10"",""BM16""]","[7,5,3,4]","[8,6,2,4]","","",""
"show-reward","130","410488","0.0-130.0","p89799","A2MS1GQLGAX9FZ","3RZS0FBRWLGDTA9TUPH81F59AWHPC0","33CUSNVVNPITYZITHY4T2R9PE7R88F","emotion","match","uniform","","","","","","","","415417.80000000075","417434.3999999985","","","","","","","","","","","","5","","stimuli/stars_5.png","241","","","","","stimuli/WM13_SUR.jpg","",""
"explore-choice","131","412522","0.0-131.0","p89799","A2MS1GQLGAX9FZ","3RZS0FBRWLGDTA9TUPH81F59AWHPC0","33CUSNVVNPITYZITHY4T2R9PE7R88F","emotion","match","uniform","","","","","","","1527.8999999985099","417436","418963.8999999985","[""stimuli/BM04_FO.jpg"",""stimuli/WM13_CC.jpg"",""stimuli/BM16_SUR.jpg"",""stimuli/HM10_HO.jpg""]","stimuli/BM04_FO.jpg","stimuli/WM13_CC.jpg","stimuli/BM16_SUR.jpg","stimuli/HM10_HO.jpg","pos1","stimuli/BM04_FO.jpg","FO","BM04","0","4.5","9","8","stimuli/stars_9.png","245.5","[""FO"",""CC"",""SUR"",""HO""]","[""BM04"",""WM13"",""BM16"",""HM10""]","[9,4,6,0]","[8,4,6,2]","","",""
"show-reward","132","414530","0.0-132.0","p89799","A2MS1GQLGAX9FZ","3RZS0FBRWLGDTA9TUPH81F59AWHPC0","33CUSNVVNPITYZITHY4T2R9PE7R88F","emotion","match","uniform","","","","","","","","419470.5","421476.3999999985","","","","","","","","","","","","9","","stimuli/stars_9.png","245.5","","","","","stimuli/BM04_FO.jpg","",""
"explore-choice","133","416479","0.0-133.0","p89799","A2MS1GQLGAX9FZ","3RZS0FBRWLGDTA9TUPH81F59AWHPC0","33CUSNVVNPITYZITHY4T2R9PE7R88F","emotion","match","uniform","","","","","","","1441.800000000745","421477.80000000075","422919.6000000015","[""stimuli/BM04_SUR.jpg"",""stimuli/BM16_FO.jpg"",""stimuli/HM10_CC.jpg"",""stimuli/WM13_HO.jpg""]","stimuli/BM04_SUR.jpg","stimuli/BM16_FO.jpg","stimuli/HM10_CC.jpg","stimuli/WM13_HO.jpg","pos2","stimuli/BM16_FO.jpg","FO","BM16","1","3","6","8","stimuli/stars_6.png","248.5","[""SUR"",""FO"",""CC"",""HO""]","[""BM04"",""BM16"",""HM10"",""WM13""]","[4,6,3,1]","[6,8,4,2]","","",""
"show-reward","134","418489","0.0-134.0","p89799","A2MS1GQLGAX9FZ","3RZS0FBRWLGDTA9TUPH81F59AWHPC0","33CUSNVVNPITYZITHY4T2R9PE7R88F","emotion","match","uniform","","","","","","","","423427.19999999925","425436","","","","","","","","","","","","6","","stimuli/stars_6.png","248.5","","","","","stimuli/BM16_FO.jpg","",""
"explore-choice","135","421252","0.0-135.0","p89799","A2MS1GQLGAX9FZ","3RZS0FBRWLGDTA9TUPH81F59AWHPC0","33CUSNVVNPITYZITHY4T2R9PE7R88F","emotion","match","uniform","","","","","","","2247.199999999255","425437.5","427684.69999999925","[""stimuli/WM13_CC.jpg"",""stimuli/BM04_SUR.jpg"",""stimuli/BM16_FO.jpg"",""stimuli/HM10_HO.jpg""]","stimuli/WM13_CC.jpg","stimuli/BM04_SUR.jpg","stimuli/BM16_FO.jpg","stimuli/HM10_HO.jpg","pos2","stimuli/BM04_SUR.jpg","SUR","BM04","1","2.5","5","6","stimuli/stars_5.png","251","[""CC"",""SUR"",""FO"",""HO""]","[""WM13"",""BM04"",""BM16"",""HM10""]","[3,5,6,1]","[4,6,8,2]","","",""
"show-reward","136","423266","0.0-136.0","p89799","A2MS1GQLGAX9FZ","3RZS0FBRWLGDTA9TUPH81F59AWHPC0","33CUSNVVNPITYZITHY4T2R9PE7R88F","emotion","match","uniform","","","","","","","","428200.1000000015","430212.69999999925","","","","","","","","","","","","5","","stimuli/stars_5.png","251","","","","","stimuli/BM04_SUR.jpg","",""
"explore-choice","137","425354","0.0-137.0","p89799","A2MS1GQLGAX9FZ","3RZS0FBRWLGDTA9TUPH81F59AWHPC0","33CUSNVVNPITYZITHY4T2R9PE7R88F","emotion","match","uniform","","","","","","","1576.6000000014901","430214.3999999985","431791","[""stimuli/BM04_SUR.jpg"",""stimuli/WM13_FO.jpg"",""stimuli/HM10_CC.jpg"",""stimuli/BM16_HO.jpg""]","stimuli/BM04_SUR.jpg","stimuli/WM13_FO.jpg","stimuli/HM10_CC.jpg","stimuli/BM16_HO.jpg","pos2","stimuli/WM13_FO.jpg","FO","WM13","1","3.5","7","8","stimuli/stars_7.png","254.5","[""SUR"",""FO"",""CC"",""HO""]","[""BM04"",""WM13"",""HM10"",""BM16""]","[6,7,2,0]","[6,8,4,2]","","",""
"show-reward","138","427366","0.0-138.0","p89799","A2MS1GQLGAX9FZ","3RZS0FBRWLGDTA9TUPH81F59AWHPC0","33CUSNVVNPITYZITHY4T2R9PE7R88F","emotion","match","uniform","","","","","","","","432302.1000000015","434313.1000000015","","","","","","","","","","","","7","","stimuli/stars_7.png","254.5","","","","","stimuli/WM13_FO.jpg","",""
"explore-choice","139","429822","0.0-139.0","p89799","A2MS1GQLGAX9FZ","3RZS0FBRWLGDTA9TUPH81F59AWHPC0","33CUSNVVNPITYZITHY4T2R9PE7R88F","emotion","match","uniform","","","","","","","1943.2999999970198","434314.6000000015","436257.8999999985","[""stimuli/HM10_SUR.jpg"",""stimuli/BM16_HO.jpg"",""stimuli/WM13_CC.jpg"",""stimuli/BM04_FO.jpg""]","stimuli/HM10_SUR.jpg","stimuli/BM16_HO.jpg","stimuli/WM13_CC.jpg","stimuli/BM04_FO.jpg","pos3","stimuli/WM13_CC.jpg","CC","WM13","2","1.5","3","4","stimuli/stars_3.png","256","[""SUR"",""HO"",""CC"",""FO""]","[""HM10"",""BM16"",""WM13"",""BM04""]","[7,1,3,6]","[6,2,4,8]","","",""
"show-reward","140","431834","0.0-140.0","p89799","A2MS1GQLGAX9FZ","3RZS0FBRWLGDTA9TUPH81F59AWHPC0","33CUSNVVNPITYZITHY4T2R9PE7R88F","emotion","match","uniform","","","","","","","","436770.69999999925","438780.8999999985","","","","","","","","","","","","3","","stimuli/stars_3.png","256","","","","","stimuli/WM13_CC.jpg","",""
"explore-choice","141","433617","0.0-141.0","p89799","A2MS1GQLGAX9FZ","3RZS0FBRWLGDTA9TUPH81F59AWHPC0","33CUSNVVNPITYZITHY4T2R9PE7R88F","emotion","match","uniform","","","","","","","1273.8999999985099","438782.30000000075","440056.19999999925","[""stimuli/HM10_HO.jpg"",""stimuli/WM13_SUR.jpg"",""stimuli/BM16_FO.jpg"",""stimuli/BM04_CC.jpg""]","stimuli/HM10_HO.jpg","stimuli/WM13_SUR.jpg","stimuli/BM16_FO.jpg","stimuli/BM04_CC.jpg","pos2","stimuli/WM13_SUR.jpg","SUR","WM13","1","3.5","7","6","stimuli/stars_7.png","259.5","[""HO"",""SUR"",""FO"",""CC""]","[""HM10"",""WM13"",""BM16"",""BM04""]","[1,7,7,2]","[2,6,8,4]","","",""
"show-reward","142","435622","0.0-142.0","p89799","A2MS1GQLGAX9FZ","3RZS0FBRWLGDTA9TUPH81F59AWHPC0","33CUSNVVNPITYZITHY4T2R9PE7R88F","emotion","match","uniform","","","","","","","","440565.30000000075","442567.69999999925","","","","","","","","","","","","7","","stimuli/stars_7.png","259.5","","","","","stimuli/WM13_SUR.jpg","",""
"explore-choice","143","437548","0.0-143.0","p89799","A2MS1GQLGAX9FZ","3RZS0FBRWLGDTA9TUPH81F59AWHPC0","33CUSNVVNPITYZITHY4T2R9PE7R88F","emotion","match","uniform","","","","","","","1414.699999999255","442569.19999999925","443983.8999999985","[""stimuli/BM16_CC.jpg"",""stimuli/HM10_SUR.jpg"",""stimuli/BM04_FO.jpg"",""stimuli/WM13_HO.jpg""]","stimuli/BM16_CC.jpg","stimuli/HM10_SUR.jpg","stimuli/BM04_FO.jpg","stimuli/WM13_HO.jpg","pos2","stimuli/HM10_SUR.jpg","SUR","HM10","1","4","8","6","stimuli/stars_8.png","263.5","[""CC"",""SUR"",""FO"",""HO""]","[""BM16"",""HM10"",""BM04"",""WM13""]","[2,8,9,3]","[4,6,8,2]","","",""
"show-reward","144","439563","0.0-144.0","p89799","A2MS1GQLGAX9FZ","3RZS0FBRWLGDTA9TUPH81F59AWHPC0","33CUSNVVNPITYZITHY4T2R9PE7R88F","emotion","match","uniform","","","","","","","","444495.30000000075","446508.8999999985","","","","","","","","","","","","8","","stimuli/stars_8.png","263.5","","","","","stimuli/HM10_SUR.jpg","",""
"explore-choice","145","442498","0.0-145.0","p89799","A2MS1GQLGAX9FZ","3RZS0FBRWLGDTA9TUPH81F59AWHPC0","33CUSNVVNPITYZITHY4T2R9PE7R88F","emotion","match","uniform","","","","","","","2424.10000000149","446510.3999999985","448934.5","[""stimuli/HM10_FO.jpg"",""stimuli/WM13_HO.jpg"",""stimuli/BM16_SUR.jpg"",""stimuli/BM04_CC.jpg""]","stimuli/HM10_FO.jpg","stimuli/WM13_HO.jpg","stimuli/BM16_SUR.jpg","stimuli/BM04_CC.jpg","pos3","stimuli/BM16_SUR.jpg","SUR","BM16","2","4","8","6","stimuli/stars_8.png","267.5","[""FO"",""HO"",""SUR"",""CC""]","[""HM10"",""WM13"",""BM16"",""BM04""]","[9,2,8,5]","[8,2,6,4]","","",""
"show-reward","146","444509","0.0-146.0","p89799","A2MS1GQLGAX9FZ","3RZS0FBRWLGDTA9TUPH81F59AWHPC0","33CUSNVVNPITYZITHY4T2R9PE7R88F","emotion","match","uniform","","","","","","","","449444.8999999985","451455.30000000075","","","","","","","","","","","","8","","stimuli/stars_8.png","267.5","","","","","stimuli/BM16_SUR.jpg","",""
"explore-choice","147","446485","0.0-147.0","p89799","A2MS1GQLGAX9FZ","3RZS0FBRWLGDTA9TUPH81F59AWHPC0","33CUSNVVNPITYZITHY4T2R9PE7R88F","emotion","match","uniform","","","","","","","1465.1000000014901","451457","452922.1000000015","[""stimuli/WM13_CC.jpg"",""stimuli/HM10_FO.jpg"",""stimuli/BM04_HO.jpg"",""stimuli/BM16_SUR.jpg""]","stimuli/WM13_CC.jpg","stimuli/HM10_FO.jpg","stimuli/BM04_HO.jpg","stimuli/BM16_SUR.jpg","pos4","stimuli/BM16_SUR.jpg","SUR","BM16","3","2.5","5","6","stimuli/stars_5.png","270","[""CC"",""FO"",""HO"",""SUR""]","[""WM13"",""HM10"",""BM04"",""BM16""]","[6,10,2,5]","[4,8,2,6]","","",""
"show-reward","148","448500","0.0-148.0","p89799","A2MS1GQLGAX9FZ","3RZS0FBRWLGDTA9TUPH81F59AWHPC0","33CUSNVVNPITYZITHY4T2R9PE7R88F","emotion","match","uniform","","","","","","","","453432.19999999925","455446.1000000015","","","","","","","","","","","","5","","stimuli/stars_5.png","270","","","","","stimuli/BM16_SUR.jpg","",""
"explore-choice","149","451622","0.0-149.0","p89799","A2MS1GQLGAX9FZ","3RZS0FBRWLGDTA9TUPH81F59AWHPC0","33CUSNVVNPITYZITHY4T2R9PE7R88F","emotion","match","uniform","","","","","","","2610.10000000149","455447.3999999985","458057.5","[""stimuli/WM13_HO.jpg"",""stimuli/BM04_SUR.jpg"",""stimuli/HM10_FO.jpg"",""stimuli/BM16_CC.jpg""]","stimuli/WM13_HO.jpg","stimuli/BM04_SUR.jpg","stimuli/HM10_FO.jpg","stimuli/BM16_CC.jpg","pos2","stimuli/BM04_SUR.jpg","SUR","BM04","1","4","8","6","stimuli/stars_8.png","274","[""HO"",""SUR"",""FO"",""CC""]","[""WM13"",""BM04"",""HM10"",""BM16""]","[2,8,7,5]","[2,6,8,4]","","",""
"show-reward","150","453639","0.0-150.0","p89799","A2MS1GQLGAX9FZ","3RZS0FBRWLGDTA9TUPH81F59AWHPC0","33CUSNVVNPITYZITHY4T2R9PE7R88F","emotion","match","uniform","","","","","","","","458569.30000000075","460585.19999999925","","","","","","","","","","","","8","","stimuli/stars_8.png","274","","","","","stimuli/BM04_SUR.jpg","",""
"explore-choice","151","456812","0.0-151.0","p89799","A2MS1GQLGAX9FZ","3RZS0FBRWLGDTA9TUPH81F59AWHPC0","33CUSNVVNPITYZITHY4T2R9PE7R88F","emotion","match","uniform","","","","","","","2663.5","460586.80000000075","463250.30000000075","[""stimuli/WM13_HO.jpg"",""stimuli/BM16_FO.jpg"",""stimuli/BM04_CC.jpg"",""stimuli/HM10_SUR.jpg""]","stimuli/WM13_HO.jpg","stimuli/BM16_FO.jpg","stimuli/BM04_CC.jpg","stimuli/HM10_SUR.jpg","pos4","stimuli/HM10_SUR.jpg","SUR","HM10","3","4","8","6","stimuli/stars_8.png","278","[""HO"",""FO"",""CC"",""SUR""]","[""WM13"",""BM16"",""BM04"",""HM10""]","[2,9,5,8]","[2,8,4,6]","","",""
"show-reward","152","458825","0.0-152.0","p89799","A2MS1GQLGAX9FZ","3RZS0FBRWLGDTA9TUPH81F59AWHPC0","33CUSNVVNPITYZITHY4T2R9PE7R88F","emotion","match","uniform","","","","","","","","463759.69999999925","465771.30000000075","","","","","","","","","","","","8","","stimuli/stars_8.png","278","","","","","stimuli/HM10_SUR.jpg","",""
"explore-choice","153","460764","0.0-153.0","p89799","A2MS1GQLGAX9FZ","3RZS0FBRWLGDTA9TUPH81F59AWHPC0","33CUSNVVNPITYZITHY4T2R9PE7R88F","emotion","match","uniform","","","","","","","1428.9000000022352","465772.69999999925","467201.6000000015","[""stimuli/HM10_SUR.jpg"",""stimuli/WM13_FO.jpg"",""stimuli/BM04_CC.jpg"",""stimuli/BM16_HO.jpg""]","stimuli/HM10_SUR.jpg","stimuli/WM13_FO.jpg","stimuli/BM04_CC.jpg","stimuli/BM16_HO.jpg","pos1","stimuli/HM10_SUR.jpg","SUR","HM10","0","4","8","6","stimuli/stars_8.png","282","[""SUR"",""FO"",""CC"",""HO""]","[""HM10"",""WM13"",""BM04"",""BM16""]","[8,9,5,2]","[6,8,4,2]","","",""
"show-reward","154","462781","0.0-154.0","p89799","A2MS1GQLGAX9FZ","3RZS0FBRWLGDTA9TUPH81F59AWHPC0","33CUSNVVNPITYZITHY4T2R9PE7R88F","emotion","match","uniform","","","","","","","","467711.5","469727.5","","","","","","","","","","","","8","","stimuli/stars_8.png","282","","","","","stimuli/HM10_SUR.jpg","",""
"explore-choice","155","464582","0.0-155.0","p89799","A2MS1GQLGAX9FZ","3RZS0FBRWLGDTA9TUPH81F59AWHPC0","33CUSNVVNPITYZITHY4T2R9PE7R88F","emotion","match","uniform","","","","","","","1291.9000000022352","469728.8999999985","471020.80000000075","[""stimuli/BM04_CC.jpg"",""stimuli/HM10_HO.jpg"",""stimuli/BM16_FO.jpg"",""stimuli/WM13_SUR.jpg""]","stimuli/BM04_CC.jpg","stimuli/HM10_HO.jpg","stimuli/BM16_FO.jpg","stimuli/WM13_SUR.jpg","pos4","stimuli/WM13_SUR.jpg","SUR","WM13","3","3.5","7","6","stimuli/stars_7.png","285.5","[""CC"",""HO"",""FO"",""SUR""]","[""BM04"",""HM10"",""BM16"",""WM13""]","[2,1,7,7]","[4,2,8,6]","","",""
"show-reward","156","466600","0.0-156.0","p89799","A2MS1GQLGAX9FZ","3RZS0FBRWLGDTA9TUPH81F59AWHPC0","33CUSNVVNPITYZITHY4T2R9PE7R88F","emotion","match","uniform","","","","","","","","471529.8999999985","473546.19999999925","","","","","","","","","","","","7","","stimuli/stars_7.png","285.5","","","","","stimuli/WM13_SUR.jpg","",""
"explore-choice","157","468817","0.0-157.0","p89799","A2MS1GQLGAX9FZ","3RZS0FBRWLGDTA9TUPH81F59AWHPC0","33CUSNVVNPITYZITHY4T2R9PE7R88F","emotion","match","uniform","","","","","","","1705.2999999970198","473547.6000000015","475252.8999999985","[""stimuli/WM13_CC.jpg"",""stimuli/BM16_HO.jpg"",""stimuli/HM10_FO.jpg"",""stimuli/BM04_SUR.jpg""]","stimuli/WM13_CC.jpg","stimuli/BM16_HO.jpg","stimuli/HM10_FO.jpg","stimuli/BM04_SUR.jpg","pos3","stimuli/HM10_FO.jpg","FO","HM10","2","3.5","7","8","stimuli/stars_7.png","289","[""CC"",""HO"",""FO"",""SUR""]","[""WM13"",""BM16"",""HM10"",""BM04""]","[2,2,7,6]","[4,2,8,6]","","",""
"show-reward","158","470829","0.0-158.0","p89799","A2MS1GQLGAX9FZ","3RZS0FBRWLGDTA9TUPH81F59AWHPC0","33CUSNVVNPITYZITHY4T2R9PE7R88F","emotion","match","uniform","","","","","","","","475764.1000000015","477774.5","","","","","","","","","","","","7","","stimuli/stars_7.png","289","","","","","stimuli/HM10_FO.jpg","",""
"explore-choice","159","472955","0.0-159.0","p89799","A2MS1GQLGAX9FZ","3RZS0FBRWLGDTA9TUPH81F59AWHPC0","33CUSNVVNPITYZITHY4T2R9PE7R88F","emotion","match","uniform","","","","","","","1615.9000000022352","477775.8999999985","479391.80000000075","[""stimuli/BM16_FO.jpg"",""stimuli/WM13_SUR.jpg"",""stimuli/HM10_CC.jpg"",""stimuli/BM04_HO.jpg""]","stimuli/BM16_FO.jpg","stimuli/WM13_SUR.jpg","stimuli/HM10_CC.jpg","stimuli/BM04_HO.jpg","pos1","stimuli/BM16_FO.jpg","FO","BM16","0","4.5","9","8","stimuli/stars_9.png","293.5","[""FO"",""SUR"",""CC"",""HO""]","[""BM16"",""WM13"",""HM10"",""BM04""]","[9,6,6,0]","[8,6,4,2]","","",""
"show-reward","160","474965","0.0-160.0","p89799","A2MS1GQLGAX9FZ","3RZS0FBRWLGDTA9TUPH81F59AWHPC0","33CUSNVVNPITYZITHY4T2R9PE7R88F","emotion","match","uniform","","","","","","","","479902.5","481910.3999999985","","","","","","","","","","","","9","","stimuli/stars_9.png","293.5","","","","","stimuli/BM16_FO.jpg","",""
"explore-choice","161","476688","0.0-161.0","p89799","A2MS1GQLGAX9FZ","3RZS0FBRWLGDTA9TUPH81F59AWHPC0","33CUSNVVNPITYZITHY4T2R9PE7R88F","emotion","match","uniform","","","","","","","1211.300000000745","481912","483123.30000000075","[""stimuli/BM04_CC.jpg"",""stimuli/BM16_SUR.jpg"",""stimuli/HM10_HO.jpg"",""stimuli/WM13_FO.jpg""]","stimuli/BM04_CC.jpg","stimuli/BM16_SUR.jpg","stimuli/HM10_HO.jpg","stimuli/WM13_FO.jpg","pos2","stimuli/BM16_SUR.jpg","SUR","BM16","1","4","8","6","stimuli/stars_8.png","297.5","[""CC"",""SUR"",""HO"",""FO""]","[""BM04"",""BM16"",""HM10"",""WM13""]","[2,8,1,10]","[4,6,2,8]","","",""
"show-reward","162","478692","0.0-162.0","p89799","A2MS1GQLGAX9FZ","3RZS0FBRWLGDTA9TUPH81F59AWHPC0","33CUSNVVNPITYZITHY4T2R9PE7R88F","emotion","match","uniform","","","","","","","","483634.8999999985","485637.6000000015","","","","","","","","","","","","8","","stimuli/stars_8.png","297.5","","","","","stimuli/BM16_SUR.jpg","",""
"explore-choice","163","480259","0.0-163.0","p89799","A2MS1GQLGAX9FZ","3RZS0FBRWLGDTA9TUPH81F59AWHPC0","33CUSNVVNPITYZITHY4T2R9PE7R88F","emotion","match","uniform","","","","","","","1055.300000000745","485639.30000000075","486694.6000000015","[""stimuli/WM13_CC.jpg"",""stimuli/BM16_FO.jpg"",""stimuli/BM04_HO.jpg"",""stimuli/HM10_SUR.jpg""]","stimuli/WM13_CC.jpg","stimuli/BM16_FO.jpg","stimuli/BM04_HO.jpg","stimuli/HM10_SUR.jpg","pos2","stimuli/BM16_FO.jpg","FO","BM16","1","4.5","9","8","stimuli/stars_9.png","302","[""CC"",""FO"",""HO"",""SUR""]","[""WM13"",""BM16"",""BM04"",""HM10""]","[4,9,0,7]","[4,8,2,6]","","",""
"show-reward","164","482278","0.0-164.0","p89799","A2MS1GQLGAX9FZ","3RZS0FBRWLGDTA9TUPH81F59AWHPC0","33CUSNVVNPITYZITHY4T2R9PE7R88F","emotion","match","uniform","","","","","","","","487206.8999999985","489224.19999999925","","","","","","","","","","","","9","","stimuli/stars_9.png","302","","","","","stimuli/BM16_FO.jpg","",""
"explore-choice","165","484000","0.0-165.0","p89799","A2MS1GQLGAX9FZ","3RZS0FBRWLGDTA9TUPH81F59AWHPC0","33CUSNVVNPITYZITHY4T2R9PE7R88F","emotion","match","uniform","","","","","","","1210.300000000745","489225.5","490435.80000000075","[""stimuli/HM10_CC.jpg"",""stimuli/WM13_SUR.jpg"",""stimuli/BM16_HO.jpg"",""stimuli/BM04_FO.jpg""]","stimuli/HM10_CC.jpg","stimuli/WM13_SUR.jpg","stimuli/BM16_HO.jpg","stimuli/BM04_FO.jpg","pos2","stimuli/WM13_SUR.jpg","SUR","WM13","1","3","6","6","stimuli/stars_6.png","305","[""CC"",""SUR"",""HO"",""FO""]","[""HM10"",""WM13"",""BM16"",""BM04""]","[6,6,3,7]","[4,6,2,8]","","",""
"show-reward","166","486017","0.0-166.0","p89799","A2MS1GQLGAX9FZ","3RZS0FBRWLGDTA9TUPH81F59AWHPC0","33CUSNVVNPITYZITHY4T2R9PE7R88F","emotion","match","uniform","","","","","","","","490948.5","492963.3999999985","","","","","","","","","","","","6","","stimuli/stars_6.png","305","","","","","stimuli/WM13_SUR.jpg","",""
"explore-choice","167","488328","0.0-167.0","p89799","A2MS1GQLGAX9FZ","3RZS0FBRWLGDTA9TUPH81F59AWHPC0","33CUSNVVNPITYZITHY4T2R9PE7R88F","emotion","match","uniform","","","","","","","1797.5","492964.8999999985","494762.3999999985","[""stimuli/WM13_SUR.jpg"",""stimuli/BM04_FO.jpg"",""stimuli/HM10_HO.jpg"",""stimuli/BM16_CC.jpg""]","stimuli/WM13_SUR.jpg","stimuli/BM04_FO.jpg","stimuli/HM10_HO.jpg","stimuli/BM16_CC.jpg","pos2","stimuli/BM04_FO.jpg","FO","BM04","1","3.5","7","8","stimuli/stars_7.png","308.5","[""SUR"",""FO"",""HO"",""CC""]","[""WM13"",""BM04"",""HM10"",""BM16""]","[5,7,3,4]","[6,8,2,4]","","",""
"show-reward","168","490335","0.0-168.0","p89799","A2MS1GQLGAX9FZ","3RZS0FBRWLGDTA9TUPH81F59AWHPC0","33CUSNVVNPITYZITHY4T2R9PE7R88F","emotion","match","uniform","","","","","","","","495275.1000000015","497280.30000000075","","","","","","","","","","","","7","","stimuli/stars_7.png","308.5","","","","","stimuli/BM04_FO.jpg","",""
"explore-choice","169","492073","0.0-169.0","p89799","A2MS1GQLGAX9FZ","3RZS0FBRWLGDTA9TUPH81F59AWHPC0","33CUSNVVNPITYZITHY4T2R9PE7R88F","emotion","match","uniform","","","","","","","1227.6000000014901","497282","498509.6000000015","[""stimuli/BM04_CC.jpg"",""stimuli/WM13_SUR.jpg"",""stimuli/BM16_HO.jpg"",""stimuli/HM10_FO.jpg""]","stimuli/BM04_CC.jpg","stimuli/WM13_SUR.jpg","stimuli/BM16_HO.jpg","stimuli/HM10_FO.jpg","pos2","stimuli/WM13_SUR.jpg","SUR","WM13","1","4","8","6","stimuli/stars_8.png","312.5","[""CC"",""SUR"",""HO"",""FO""]","[""BM04"",""WM13"",""BM16"",""HM10""]","[3,8,3,9]","[4,6,2,8]","","",""
"show-reward","170","494088","0.0-170.0","p89799","A2MS1GQLGAX9FZ","3RZS0FBRWLGDTA9TUPH81F59AWHPC0","33CUSNVVNPITYZITHY4T2R9PE7R88F","emotion","match","uniform","","","","","","","","499020.3999999985","501034.19999999925","","","","","","","","","","","","8","","stimuli/stars_8.png","312.5","","","","","stimuli/WM13_SUR.jpg","",""
"explore-choice","171","495720","0.0-171.0","p89799","A2MS1GQLGAX9FZ","3RZS0FBRWLGDTA9TUPH81F59AWHPC0","33CUSNVVNPITYZITHY4T2R9PE7R88F","emotion","match","uniform","","","","","","","1119.4000000022352","501035.69999999925","502155.1000000015","[""stimuli/BM04_HO.jpg"",""stimuli/WM13_SUR.jpg"",""stimuli/HM10_FO.jpg"",""stimuli/BM16_CC.jpg""]","stimuli/BM04_HO.jpg","stimuli/WM13_SUR.jpg","stimuli/HM10_FO.jpg","stimuli/BM16_CC.jpg","pos2","stimuli/WM13_SUR.jpg","SUR","WM13","1","4","8","6","stimuli/stars_8.png","316.5","[""HO"",""SUR"",""FO"",""CC""]","[""BM04"",""WM13"",""HM10"",""BM16""]","[3,8,8,2]","[2,6,8,4]","","",""
"show-reward","172","497724","0.0-172.0","p89799","A2MS1GQLGAX9FZ","3RZS0FBRWLGDTA9TUPH81F59AWHPC0","33CUSNVVNPITYZITHY4T2R9PE7R88F","emotion","match","uniform","","","","","","","","502667.80000000075","504670.3999999985","","","","","","","","","","","","8","","stimuli/stars_8.png","316.5","","","","","stimuli/WM13_SUR.jpg","",""
"explore-choice","173","499969","0.0-173.0","p89799","A2MS1GQLGAX9FZ","3RZS0FBRWLGDTA9TUPH81F59AWHPC0","33CUSNVVNPITYZITHY4T2R9PE7R88F","emotion","match","uniform","","","","","","","1738.5","504672.1000000015","506410.6000000015","[""stimuli/BM16_SUR.jpg"",""stimuli/WM13_HO.jpg"",""stimuli/BM04_CC.jpg"",""stimuli/HM10_FO.jpg""]","stimuli/BM16_SUR.jpg","stimuli/WM13_HO.jpg","stimuli/BM04_CC.jpg","stimuli/HM10_FO.jpg","pos1","stimuli/BM16_SUR.jpg","SUR","BM16","0","4","8","6","stimuli/stars_8.png","320.5","[""SUR"",""HO"",""CC"",""FO""]","[""BM16"",""WM13"",""BM04"",""HM10""]","[8,2,5,9]","[6,2,4,8]","","",""
"show-reward","174","501988","0.0-174.0","p89799","A2MS1GQLGAX9FZ","3RZS0FBRWLGDTA9TUPH81F59AWHPC0","33CUSNVVNPITYZITHY4T2R9PE7R88F","emotion","match","uniform","","","","","","","","506917.3999999985","508934.8999999985","","","","","","","","","","","","8","","stimuli/stars_8.png","320.5","","","","","stimuli/BM16_SUR.jpg","",""
"explore-choice","175","503745","0.0-175.0","p89799","A2MS1GQLGAX9FZ","3RZS0FBRWLGDTA9TUPH81F59AWHPC0","33CUSNVVNPITYZITHY4T2R9PE7R88F","emotion","match","uniform","","","","","","","1249.1000000014901","508936.19999999925","510185.30000000075","[""stimuli/WM13_CC.jpg"",""stimuli/HM10_FO.jpg"",""stimuli/BM16_SUR.jpg"",""stimuli/BM04_HO.jpg""]","stimuli/WM13_CC.jpg","stimuli/HM10_FO.jpg","stimuli/BM16_SUR.jpg","stimuli/BM04_HO.jpg","pos3","stimuli/BM16_SUR.jpg","SUR","BM16","2","2.5","5","6","stimuli/stars_5.png","323","[""CC"",""FO"",""SUR"",""HO""]","[""WM13"",""HM10"",""BM16"",""BM04""]","[6,10,5,2]","[4,8,6,2]","","",""
"show-reward","176","505761","0.0-176.0","p89799","A2MS1GQLGAX9FZ","3RZS0FBRWLGDTA9TUPH81F59AWHPC0","33CUSNVVNPITYZITHY4T2R9PE7R88F","emotion","match","uniform","","","","","","","","510693","512707.8999999985","","","","","","","","","","","","5","","stimuli/stars_5.png","323","","","","","stimuli/BM16_SUR.jpg","",""
"explore-choice","177","507441","0.0-177.0","p89799","A2MS1GQLGAX9FZ","3RZS0FBRWLGDTA9TUPH81F59AWHPC0","33CUSNVVNPITYZITHY4T2R9PE7R88F","emotion","match","uniform","","","","","","","1170.1000000014901","512709.19999999925","513879.30000000075","[""stimuli/BM04_SUR.jpg"",""stimuli/HM10_HO.jpg"",""stimuli/WM13_FO.jpg"",""stimuli/BM16_CC.jpg""]","stimuli/BM04_SUR.jpg","stimuli/HM10_HO.jpg","stimuli/WM13_FO.jpg","stimuli/BM16_CC.jpg","pos2","stimuli/HM10_HO.jpg","HO","HM10","1","2","4","2","stimuli/stars_4.png","325","[""SUR"",""HO"",""FO"",""CC""]","[""BM04"",""HM10"",""WM13"",""BM16""]","[5,4,9,6]","[6,2,8,4]","","",""
"show-reward","178","509444","0.0-178.0","p89799","A2MS1GQLGAX9FZ","3RZS0FBRWLGDTA9TUPH81F59AWHPC0","33CUSNVVNPITYZITHY4T2R9PE7R88F","emotion","match","uniform","","","","","","","","514389.1000000015","516390.8999999985","","","","","","","","","","","","4","","stimuli/stars_4.png","325","","","","","stimuli/HM10_HO.jpg","",""
"explore-choice","179","511948","0.0-179.0","p89799","A2MS1GQLGAX9FZ","3RZS0FBRWLGDTA9TUPH81F59AWHPC0","33CUSNVVNPITYZITHY4T2R9PE7R88F","emotion","match","uniform","","","","","","","1993.9000000022352","516392.19999999925","518386.1000000015","[""stimuli/BM04_FO.jpg"",""stimuli/BM16_SUR.jpg"",""stimuli/WM13_CC.jpg"",""stimuli/HM10_HO.jpg""]","stimuli/BM04_FO.jpg","stimuli/BM16_SUR.jpg","stimuli/WM13_CC.jpg","stimuli/HM10_HO.jpg","pos1","stimuli/BM04_FO.jpg","FO","BM04","0","4.5","9","8","stimuli/stars_9.png","329.5","[""FO"",""SUR"",""CC"",""HO""]","[""BM04"",""BM16"",""WM13"",""HM10""]","[9,6,4,0]","[8,6,4,2]","","",""
"show-reward","180","513958","0.0-180.0","p89799","A2MS1GQLGAX9FZ","3RZS0FBRWLGDTA9TUPH81F59AWHPC0","33CUSNVVNPITYZITHY4T2R9PE7R88F","emotion","match","uniform","","","","","","","","518896","520904.69999999925","","","","","","","","","","","","9","","stimuli/stars_9.png","329.5","","","","","stimuli/BM04_FO.jpg","",""
"explore-choice","181","515765","0.0-181.0","p89799","A2MS1GQLGAX9FZ","3RZS0FBRWLGDTA9TUPH81F59AWHPC0","33CUSNVVNPITYZITHY4T2R9PE7R88F","emotion","match","uniform","","","","","","","1298.199999999255","520906","522204.19999999925","[""stimuli/HM10_CC.jpg"",""stimuli/WM13_FO.jpg"",""stimuli/BM04_SUR.jpg"",""stimuli/BM16_HO.jpg""]","stimuli/HM10_CC.jpg","stimuli/WM13_FO.jpg","stimuli/BM04_SUR.jpg","stimuli/BM16_HO.jpg","pos3","stimuli/BM04_SUR.jpg","SUR","BM04","2","3","6","6","stimuli/stars_6.png","332.5","[""CC"",""FO"",""SUR"",""HO""]","[""HM10"",""WM13"",""BM04"",""BM16""]","[2,7,6,0]","[4,8,6,2]","","",""
"show-reward","182","517782","0.0-182.0","p89799","A2MS1GQLGAX9FZ","3RZS0FBRWLGDTA9TUPH81F59AWHPC0","33CUSNVVNPITYZITHY4T2R9PE7R88F","emotion","match","uniform","","","","","","","","522713","524728.6999999993","","","","","","","","","","","","6","","stimuli/stars_6.png","332.5","","","","","stimuli/BM04_SUR.jpg","",""
"explore-choice","183","519341","0.0-183.0","p89799","A2MS1GQLGAX9FZ","3RZS0FBRWLGDTA9TUPH81F59AWHPC0","33CUSNVVNPITYZITHY4T2R9PE7R88F","emotion","match","uniform","","","","","","","1050.300000000745","524730","525780.3000000007","[""stimuli/HM10_SUR.jpg"",""stimuli/BM16_CC.jpg"",""stimuli/WM13_FO.jpg"",""stimuli/BM04_HO.jpg""]","stimuli/HM10_SUR.jpg","stimuli/BM16_CC.jpg","stimuli/WM13_FO.jpg","stimuli/BM04_HO.jpg","pos2","stimuli/BM16_CC.jpg","CC","BM16","1","1","2","4","stimuli/stars_2.png","333.5","[""SUR"",""CC"",""FO"",""HO""]","[""HM10"",""BM16"",""WM13"",""BM04""]","[7,2,7,2]","[6,4,8,2]","","",""
"show-reward","184","521356","0.0-184.0","p89799","A2MS1GQLGAX9FZ","3RZS0FBRWLGDTA9TUPH81F59AWHPC0","33CUSNVVNPITYZITHY4T2R9PE7R88F","emotion","match","uniform","","","","","","","","526289.1999999993","528302.6000000015","","","","","","","","","","","","2","","stimuli/stars_2.png","333.5","","","","","stimuli/BM16_CC.jpg","",""
"explore-choice","185","522983","0.0-185.0","p89799","A2MS1GQLGAX9FZ","3RZS0FBRWLGDTA9TUPH81F59AWHPC0","33CUSNVVNPITYZITHY4T2R9PE7R88F","emotion","match","uniform","","","","","","","1117.9000000022352","528303.8999999985","529421.8000000007","[""stimuli/WM13_FO.jpg"",""stimuli/BM16_SUR.jpg"",""stimuli/HM10_CC.jpg"",""stimuli/BM04_HO.jpg""]","stimuli/WM13_FO.jpg","stimuli/BM16_SUR.jpg","stimuli/HM10_CC.jpg","stimuli/BM04_HO.jpg","pos1","stimuli/WM13_FO.jpg","FO","WM13","0","4.5","9","8","stimuli/stars_9.png","338","[""FO"",""SUR"",""CC"",""HO""]","[""WM13"",""BM16"",""HM10"",""BM04""]","[9,5,5,2]","[8,6,4,2]","","",""
"show-reward","186","524999","0.0-186.0","p89799","A2MS1GQLGAX9FZ","3RZS0FBRWLGDTA9TUPH81F59AWHPC0","33CUSNVVNPITYZITHY4T2R9PE7R88F","emotion","match","uniform","","","","","","","","529931","531945.5","","","","","","","","","","","","9","","stimuli/stars_9.png","338","","","","","stimuli/WM13_FO.jpg","",""
"explore-choice","187","527507","0.0-187.0","p89799","A2MS1GQLGAX9FZ","3RZS0FBRWLGDTA9TUPH81F59AWHPC0","33CUSNVVNPITYZITHY4T2R9PE7R88F","emotion","match","uniform","","","","","","","1996.300000000745","531946.8000000007","533943.1000000015","[""stimuli/BM04_FO.jpg"",""stimuli/WM13_HO.jpg"",""stimuli/HM10_CC.jpg"",""stimuli/BM16_SUR.jpg""]","stimuli/BM04_FO.jpg","stimuli/WM13_HO.jpg","stimuli/HM10_CC.jpg","stimuli/BM16_SUR.jpg","pos4","stimuli/BM16_SUR.jpg","SUR","BM16","3","3","6","6","stimuli/stars_6.png","341","[""FO"",""HO"",""CC"",""SUR""]","[""BM04"",""WM13"",""HM10"",""BM16""]","[8,4,5,6]","[8,2,4,6]","","",""
"show-reward","188","529523","0.0-188.0","p89799","A2MS1GQLGAX9FZ","3RZS0FBRWLGDTA9TUPH81F59AWHPC0","33CUSNVVNPITYZITHY4T2R9PE7R88F","emotion","match","uniform","","","","","","","","534455.6000000015","536469.1000000015","","","","","","","","","","","","6","","stimuli/stars_6.png","341","","","","","stimuli/BM16_SUR.jpg","",""
"explore-choice","189","532814","0.0-189.0","p89799","A2MS1GQLGAX9FZ","3RZS0FBRWLGDTA9TUPH81F59AWHPC0","33CUSNVVNPITYZITHY4T2R9PE7R88F","emotion","match","uniform","","","","","","","2781","536470.6000000015","539251.6000000015","[""stimuli/WM13_HO.jpg"",""stimuli/BM04_SUR.jpg"",""stimuli/HM10_FO.jpg"",""stimuli/BM16_CC.jpg""]","stimuli/WM13_HO.jpg","stimuli/BM04_SUR.jpg","stimuli/HM10_FO.jpg","stimuli/BM16_CC.jpg","pos3","stimuli/HM10_FO.jpg","FO","HM10","2","3.5","7","8","stimuli/stars_7.png","344.5","[""HO"",""SUR"",""FO"",""CC""]","[""WM13"",""BM04"",""HM10"",""BM16""]","[2,8,7,5]","[2,6,8,4]","","",""
"show-reward","190","534828","0.0-190.0","p89799","A2MS1GQLGAX9FZ","3RZS0FBRWLGDTA9TUPH81F59AWHPC0","33CUSNVVNPITYZITHY4T2R9PE7R88F","emotion","match","uniform","","","","","","","","539762.1999999993","541774.1000000015","","","","","","","","","","","","7","","stimuli/stars_7.png","344.5","","","","","stimuli/HM10_FO.jpg","",""
"explore-choice","191","537465","0.0-191.0","p89799","A2MS1GQLGAX9FZ","3RZS0FBRWLGDTA9TUPH81F59AWHPC0","33CUSNVVNPITYZITHY4T2R9PE7R88F","emotion","match","uniform","","","","","","","2128","541775.5","543903.5","[""stimuli/HM10_SUR.jpg"",""stimuli/BM16_CC.jpg"",""stimuli/WM13_HO.jpg"",""stimuli/BM04_FO.jpg""]","stimuli/HM10_SUR.jpg","stimuli/BM16_CC.jpg","stimuli/WM13_HO.jpg","stimuli/BM04_FO.jpg","pos4","stimuli/BM04_FO.jpg","FO","BM04","3","4.5","9","8","stimuli/stars_9.png","349","[""SUR"",""CC"",""HO"",""FO""]","[""HM10"",""BM16"",""WM13"",""BM04""]","[8,2,3,9]","[6,4,2,8]","","",""
"show-reward","192","539476","0.0-192.0","p89799","A2MS1GQLGAX9FZ","3RZS0FBRWLGDTA9TUPH81F59AWHPC0","33CUSNVVNPITYZITHY4T2R9PE7R88F","emotion","match","uniform","","","","","","","","544412.6999999993","546422.1999999993","","","","","","","","","","","","9","","stimuli/stars_9.png","349","","","","","stimuli/BM04_FO.jpg","",""
"explore-choice","193","541472","0.0-193.0","p89799","A2MS1GQLGAX9FZ","3RZS0FBRWLGDTA9TUPH81F59AWHPC0","33CUSNVVNPITYZITHY4T2R9PE7R88F","emotion","match","uniform","","","","","","","1486.3999999985099","546423.8000000007","547910.1999999993","[""stimuli/BM16_HO.jpg"",""stimuli/HM10_SUR.jpg"",""stimuli/WM13_CC.jpg"",""stimuli/BM04_FO.jpg""]","stimuli/BM16_HO.jpg","stimuli/HM10_SUR.jpg","stimuli/WM13_CC.jpg","stimuli/BM04_FO.jpg","pos4","stimuli/BM04_FO.jpg","FO","BM04","3","3","6","8","stimuli/stars_6.png","352","[""HO"",""SUR"",""CC"",""FO""]","[""BM16"",""HM10"",""WM13"",""BM04""]","[1,7,3,6]","[2,6,4,8]","","",""
"show-reward","194","543486","0.0-194.0","p89799","A2MS1GQLGAX9FZ","3RZS0FBRWLGDTA9TUPH81F59AWHPC0","33CUSNVVNPITYZITHY4T2R9PE7R88F","emotion","match","uniform","","","","","","","","548419.8999999985","550432.6999999993","","","","","","","","","","","","6","","stimuli/stars_6.png","352","","","","","stimuli/BM04_FO.jpg","",""
"explore-choice","195","545566","0.0-195.0","p89799","A2MS1GQLGAX9FZ","3RZS0FBRWLGDTA9TUPH81F59AWHPC0","33CUSNVVNPITYZITHY4T2R9PE7R88F","emotion","match","uniform","","","","","","","1571.1000000014901","550434.1999999993","552005.3000000007","[""stimuli/BM04_SUR.jpg"",""stimuli/BM16_FO.jpg"",""stimuli/HM10_CC.jpg"",""stimuli/WM13_HO.jpg""]","stimuli/BM04_SUR.jpg","stimuli/BM16_FO.jpg","stimuli/HM10_CC.jpg","stimuli/WM13_HO.jpg","pos1","stimuli/BM04_SUR.jpg","SUR","BM04","0","2","4","6","stimuli/stars_4.png","354","[""SUR"",""FO"",""CC"",""HO""]","[""BM04"",""BM16"",""HM10"",""WM13""]","[4,6,3,1]","[6,8,4,2]","","",""
"show-reward","196","547580","0.0-196.0","p89799","A2MS1GQLGAX9FZ","3RZS0FBRWLGDTA9TUPH81F59AWHPC0","33CUSNVVNPITYZITHY4T2R9PE7R88F","emotion","match","uniform","","","","","","","","552513.8999999985","554526.8000000007","","","","","","","","","","","","4","","stimuli/stars_4.png","354","","","","","stimuli/BM04_SUR.jpg","",""
"explore-choice","197","549205","0.0-197.0","p89799","A2MS1GQLGAX9FZ","3RZS0FBRWLGDTA9TUPH81F59AWHPC0","33CUSNVVNPITYZITHY4T2R9PE7R88F","emotion","match","uniform","","","","","","","1117.800000000745","554528","555645.8000000007","[""stimuli/WM13_CC.jpg"",""stimuli/BM16_FO.jpg"",""stimuli/BM04_SUR.jpg"",""stimuli/HM10_HO.jpg""]","stimuli/WM13_CC.jpg","stimuli/BM16_FO.jpg","stimuli/BM04_SUR.jpg","stimuli/HM10_HO.jpg","pos2","stimuli/BM16_FO.jpg","FO","BM16","1","3","6","8","stimuli/stars_6.png","357","[""CC"",""FO"",""SUR"",""HO""]","[""WM13"",""BM16"",""BM04"",""HM10""]","[3,6,5,1]","[4,8,6,2]","","",""
"show-reward","198","551220","0.0-198.0","p89799","A2MS1GQLGAX9FZ","3RZS0FBRWLGDTA9TUPH81F59AWHPC0","33CUSNVVNPITYZITHY4T2R9PE7R88F","emotion","match","uniform","","","","","","","","556152.8999999985","558166.8999999985","","","","","","","","","","","","6","","stimuli/stars_6.png","357","","","","","stimuli/BM16_FO.jpg","",""
"instructions","199","556867","0.0-199.0","p89799","A2MS1GQLGAX9FZ","3RZS0FBRWLGDTA9TUPH81F59AWHPC0","33CUSNVVNPITYZITHY4T2R9PE7R88F","emotion","match","uniform","","","","","","[{""page_index"":0,""viewing_time"":5645.199999999255}]","5645.800000000745","","","","","","","","","","","","","","","","","","","","","","","",""
"survey-text","200","559004","0.0-200.0-0.0","p89799","A2MS1GQLGAX9FZ","3RZS0FBRWLGDTA9TUPH81F59AWHPC0","33CUSNVVNPITYZITHY4T2R9PE7R88F","emotion","match","uniform","","","","","","","2130","","","","","","","","","","","","","","","","","","","","","","","{""age"":""24""}",""
"survey-text","201","561308","0.0-200.0-1.0","p89799","A2MS1GQLGAX9FZ","3RZS0FBRWLGDTA9TUPH81F59AWHPC0","33CUSNVVNPITYZITHY4T2R9PE7R88F","emotion","match","uniform","","","","","","","2299.10000000149","","","","","","","","","","","","","","","","","","","","","","","{""gender"":""female""}",""
"survey-text","202","564783","0.0-200.0-2.0","p89799","A2MS1GQLGAX9FZ","3RZS0FBRWLGDTA9TUPH81F59AWHPC0","33CUSNVVNPITYZITHY4T2R9PE7R88F","emotion","match","uniform","","","","","","","3471.099999997765","","","","","","","","","","","","","","","","","","","","","","","{""country"":""united states""}",""
"survey-text","203","570113","0.0-200.0-3.0","p89799","A2MS1GQLGAX9FZ","3RZS0FBRWLGDTA9TUPH81F59AWHPC0","33CUSNVVNPITYZITHY4T2R9PE7R88F","emotion","match","uniform","","","","","","","5325.29999999702","","","","","","","","","","","","","","","","","","","","","","","{""language"":""English"",""other_languages"":""""}",""
"survey-multi-select","204","572852","0.0-201.0","p89799","A2MS1GQLGAX9FZ","3RZS0FBRWLGDTA9TUPH81F59AWHPC0","33CUSNVVNPITYZITHY4T2R9PE7R88F","emotion","match","uniform","","","","","","","2729.699999999255","","","","","","","","","","","","","","","","","","","","","","","{""race"":[""Asian""]}","[0]"
"survey-multi-choice","205","575707","0.0-202.0","p89799","A2MS1GQLGAX9FZ","3RZS0FBRWLGDTA9TUPH81F59AWHPC0","33CUSNVVNPITYZITHY4T2R9PE7R88F","emotion","match","uniform","","","","","","","2851.599999997765","","","","","","","","","","","","","","","","","","","","","","","{""education"":""Bachelor's degree""}","[0]"
"survey-text","206","597920","0.0-203.0","p89799","A2MS1GQLGAX9FZ","3RZS0FBRWLGDTA9TUPH81F59AWHPC0","33CUSNVVNPITYZITHY4T2R9PE7R88F","emotion","match","uniform","","","","","","","22207.599999997765","","","","","","","","","","","","","","","","","","","","","","","{""patterns"":""I noticed the stars corresponded to the expression"",""strategy"":""At first I clicked happy faces, then surprised/fearful faces"",""comments"":""""}",""
