"trial_type","trial_index","time_elapsed","internal_node_id","subject","workerId","hitId","assignmentId","structure_condition","match_condition","noise_type","success","timeout","failed_images","failed_audio","failed_video","view_history","rt","start_time","end_time","stimuli","image1","image2","image3","image4","choiceLocation","choiceImage","choiceEmotion","choiceModel","choice_index","reward_score","reward","reward_score_unadjusted","reward_image","score_after_trial","emotions","models","rewards","rewards_unadjusted","stimulus","response","question_order"
"pavlovia","0","16","0.0-0.0","p512429","A1EDLMO8ACUTBP","3WRBLBQ2GSENM5LEFQY1C5PG0GV0GC","3TXD01ZLD6NQDV248YFLH7B99BIU43","emotion","match","uniform","","","","","","","","","","","","","","","","","","","","","","","","","","","","","","",""
"preload","1","1352","0.0-1.0","p512429","A1EDLMO8ACUTBP","3WRBLBQ2GSENM5LEFQY1C5PG0GV0GC","3TXD01ZLD6NQDV248YFLH7B99BIU43","emotion","match","uniform","true","false","[]","[]","[]","","","","","","","","","","","","","","","","","","","","","","","","","",""
"fullscreen","2","4741","0.0-2.0","p512429","A1EDLMO8ACUTBP","3WRBLBQ2GSENM5LEFQY1C5PG0GV0GC","3TXD01ZLD6NQDV248YFLH7B99BIU43","emotion","match","uniform","true","","","","","","","","","","","","","","","","","","","","","","","","","","","","","",""
"instructions","3","6182","0.0-3.0","p512429","A1EDLMO8ACUTBP","3WRBLBQ2GSENM5LEFQY1C5PG0GV0GC","3TXD01ZLD6NQDV248YFLH7B99BIU43","emotion","match","uniform","","","","","","[{""page_index"":0,""viewing_time"":1439.6000000238419}]","1440.1000000238419","","","","","","","","","","","","","","","","","","","","","","","",""
"explore-choice","4","10538","0.0-4.0","p512429","A1EDLMO8ACUTBP","3WRBLBQ2GSENM5LEFQY1C5PG0GV0GC","3TXD01ZLD6NQDV248YFLH7B99BIU43","emotion","match","uniform","","","","","","","3837.899999976158","7274.5","11112.399999976158","[""stimuli/sheep.jpg"",""stimuli/hammer.jpg"",""stimuli/basketball.jpg"",""stimuli/horse.jpg""]","stimuli/sheep.jpg","stimuli/hammer.jpg","stimuli/basketball.jpg","stimuli/horse.jpg","pos4","stimuli/horse.jpg","","","3","64","64","64","stimuli/stars_8.png","65","","","","","","",""
"explore-choice","5","18856","0.0-5.0","p512429","A1EDLMO8ACUTBP","3WRBLBQ2GSENM5LEFQY1C5PG0GV0GC","3TXD01ZLD6NQDV248YFLH7B99BIU43","emotion","match","uniform","","","","","","","7804.199999928474","11628.800000071526","19433","[""stimuli/hammer.jpg"",""stimuli/basketball.jpg"",""stimuli/horse.jpg"",""stimuli/sheep.jpg""]","stimuli/hammer.jpg","stimuli/basketball.jpg","stimuli/horse.jpg","stimuli/sheep.jpg","pos1","stimuli/hammer.jpg","","","0","8","8","8","stimuli/stars_2.png","9","","","","","","",""
"instructions","6","21166","0.0-6.0","p512429","A1EDLMO8ACUTBP","3WRBLBQ2GSENM5LEFQY1C5PG0GV0GC","3TXD01ZLD6NQDV248YFLH7B99BIU43","emotion","match","uniform","","","","","","[{""page_index"":0,""viewing_time"":2309.2999999523163}]","2309.5","","","","","","","","","","","","","","","","","","","","","","","",""
"explore-choice","7","29400","0.0-7.0","p512429","A1EDLMO8ACUTBP","3WRBLBQ2GSENM5LEFQY1C5PG0GV0GC","3TXD01ZLD6NQDV248YFLH7B99BIU43","emotion","match","uniform","","","","","","","7731.200000047684","22258.600000023842","29989.800000071526","[""stimuli/HF04_HE.jpg"",""stimuli/BF06_CC.jpg"",""stimuli/HM07_SC.jpg"",""stimuli/AF10_FO.jpg""]","stimuli/HF04_HE.jpg","stimuli/BF06_CC.jpg","stimuli/HM07_SC.jpg","stimuli/AF10_FO.jpg","pos1","stimuli/HF04_HE.jpg","HE","HF04","0","3.5","7","6","stimuli/stars_7.png","4.5","[""HE"",""CC"",""SC"",""FO""]","[""HF04"",""BF06"",""HM07"",""AF10""]","[7,6,8,0]","[6,4,8,2]","","",""
"show-reward","8","31413","0.0-8.0","p512429","A1EDLMO8ACUTBP","3WRBLBQ2GSENM5LEFQY1C5PG0GV0GC","3TXD01ZLD6NQDV248YFLH7B99BIU43","emotion","match","uniform","","","","","","","","30492.100000023842","32503.200000047684","","","","","","","","","","","","7","","stimuli/stars_7.png","4.5","","","","","stimuli/HF04_HE.jpg","",""
"explore-choice","9","38247","0.0-9.0","p512429","A1EDLMO8ACUTBP","3WRBLBQ2GSENM5LEFQY1C5PG0GV0GC","3TXD01ZLD6NQDV248YFLH7B99BIU43","emotion","match","uniform","","","","","","","6332.5","32504.399999976158","38836.89999997616","[""stimuli/HF04_HE.jpg"",""stimuli/AF10_CC.jpg"",""stimuli/HM07_SC.jpg"",""stimuli/BF06_FO.jpg""]","stimuli/HF04_HE.jpg","stimuli/AF10_CC.jpg","stimuli/HM07_SC.jpg","stimuli/BF06_FO.jpg","pos1","stimuli/HF04_HE.jpg","HE","HF04","0","3.5","7","6","stimuli/stars_7.png","8","[""HE"",""CC"",""SC"",""FO""]","[""HF04"",""AF10"",""HM07"",""BF06""]","[7,6,8,1]","[6,4,8,2]","","",""
"show-reward","10","40254","0.0-10.0","p512429","A1EDLMO8ACUTBP","3WRBLBQ2GSENM5LEFQY1C5PG0GV0GC","3TXD01ZLD6NQDV248YFLH7B99BIU43","emotion","match","uniform","","","","","","","","39338.800000071526","41343.60000002384","","","","","","","","","","","","7","","stimuli/stars_7.png","8","","","","","stimuli/HF04_HE.jpg","",""
"explore-choice","11","46669","0.0-11.0","p512429","A1EDLMO8ACUTBP","3WRBLBQ2GSENM5LEFQY1C5PG0GV0GC","3TXD01ZLD6NQDV248YFLH7B99BIU43","emotion","match","uniform","","","","","","","5910.300000071526","41344.5","47254.800000071526","[""stimuli/BF06_SC.jpg"",""stimuli/HF04_HE.jpg"",""stimuli/AF10_CC.jpg"",""stimuli/HM07_FO.jpg""]","stimuli/BF06_SC.jpg","stimuli/HF04_HE.jpg","stimuli/AF10_CC.jpg","stimuli/HM07_FO.jpg","pos1","stimuli/BF06_SC.jpg","SC","BF06","0","5","10","8","stimuli/stars_10.png","13","[""SC"",""HE"",""CC"",""FO""]","[""BF06"",""HF04"",""AF10"",""HM07""]","[10,4,3,2]","[8,6,4,2]","","",""
"show-reward","12","48679","0.0-12.0","p512429","A1EDLMO8ACUTBP","3WRBLBQ2GSENM5LEFQY1C5PG0GV0GC","3TXD01ZLD6NQDV248YFLH7B99BIU43","emotion","match","uniform","","","","","","","","47759.89999997616","49768.800000071526","","","","","","","","","","","","10","","stimuli/stars_10.png","13","","","","","stimuli/BF06_SC.jpg","",""
"explore-choice","13","50369","0.0-13.0","p512429","A1EDLMO8ACUTBP","3WRBLBQ2GSENM5LEFQY1C5PG0GV0GC","3TXD01ZLD6NQDV248YFLH7B99BIU43","emotion","match","uniform","","","","","","","1188.8999999761581","49769.700000047684","50958.60000002384","[""stimuli/HF04_HE.jpg"",""stimuli/AF10_SC.jpg"",""stimuli/BF06_CC.jpg"",""stimuli/HM07_FO.jpg""]","stimuli/HF04_HE.jpg","stimuli/AF10_SC.jpg","stimuli/BF06_CC.jpg","stimuli/HM07_FO.jpg","pos2","stimuli/AF10_SC.jpg","SC","AF10","1","3","6","8","stimuli/stars_6.png","16","[""HE"",""SC"",""CC"",""FO""]","[""HF04"",""AF10"",""BF06"",""HM07""]","[6,6,3,3]","[6,8,4,2]","","",""
"show-reward","14","52384","0.0-14.0","p512429","A1EDLMO8ACUTBP","3WRBLBQ2GSENM5LEFQY1C5PG0GV0GC","3TXD01ZLD6NQDV248YFLH7B99BIU43","emotion","match","uniform","","","","","","","","51460.300000071526","53473.39999997616","","","","","","","","","","","","6","","stimuli/stars_6.png","16","","","","","stimuli/AF10_SC.jpg","",""
"explore-choice","15","53288","0.0-15.0","p512429","A1EDLMO8ACUTBP","3WRBLBQ2GSENM5LEFQY1C5PG0GV0GC","3TXD01ZLD6NQDV248YFLH7B99BIU43","emotion","match","uniform","","","","","","","402.5","53474.60000002384","53877.10000002384","[""stimuli/HM07_FO.jpg"",""stimuli/AF10_HE.jpg"",""stimuli/BF06_SC.jpg"",""stimuli/HF04_CC.jpg""]","stimuli/HM07_FO.jpg","stimuli/AF10_HE.jpg","stimuli/BF06_SC.jpg","stimuli/HF04_CC.jpg","pos2","stimuli/AF10_HE.jpg","HE","AF10","1","3","6","6","stimuli/stars_6.png","19","[""FO"",""HE"",""SC"",""CC""]","[""HM07"",""AF10"",""BF06"",""HF04""]","[0,6,8,3]","[2,6,8,4]","","",""
"show-reward","16","55297","0.0-16.0","p512429","A1EDLMO8ACUTBP","3WRBLBQ2GSENM5LEFQY1C5PG0GV0GC","3TXD01ZLD6NQDV248YFLH7B99BIU43","emotion","match","uniform","","","","","","","","54379.700000047684","56387.39999997616","","","","","","","","","","","","6","","stimuli/stars_6.png","19","","","","","stimuli/AF10_HE.jpg","",""
"explore-choice","17","58259","0.0-17.0","p512429","A1EDLMO8ACUTBP","3WRBLBQ2GSENM5LEFQY1C5PG0GV0GC","3TXD01ZLD6NQDV248YFLH7B99BIU43","emotion","match","uniform","","","","","","","2460.2000000476837","56389","58849.200000047684","[""stimuli/BF06_FO.jpg"",""stimuli/HF04_CC.jpg"",""stimuli/HM07_SC.jpg"",""stimuli/AF10_HE.jpg""]","stimuli/BF06_FO.jpg","stimuli/HF04_CC.jpg","stimuli/HM07_SC.jpg","stimuli/AF10_HE.jpg","pos2","stimuli/HF04_CC.jpg","CC","HF04","1","1","2","4","stimuli/stars_2.png","20","[""FO"",""CC"",""SC"",""HE""]","[""BF06"",""HF04"",""HM07"",""AF10""]","[0,2,7,8]","[2,4,8,6]","","",""
"show-reward","18","60278","0.0-18.0","p512429","A1EDLMO8ACUTBP","3WRBLBQ2GSENM5LEFQY1C5PG0GV0GC","3TXD01ZLD6NQDV248YFLH7B99BIU43","emotion","match","uniform","","","","","","","","59350.700000047684","61368.10000002384","","","","","","","","","","","","2","","stimuli/stars_2.png","20","","","","","stimuli/HF04_CC.jpg","",""
"explore-choice","19","62385","0.0-19.0","p512429","A1EDLMO8ACUTBP","3WRBLBQ2GSENM5LEFQY1C5PG0GV0GC","3TXD01ZLD6NQDV248YFLH7B99BIU43","emotion","match","uniform","","","","","","","1603.5","61369.39999997616","62972.89999997616","[""stimuli/HM07_FO.jpg"",""stimuli/BF06_HE.jpg"",""stimuli/AF10_CC.jpg"",""stimuli/HF04_SC.jpg""]","stimuli/HM07_FO.jpg","stimuli/BF06_HE.jpg","stimuli/AF10_CC.jpg","stimuli/HF04_SC.jpg","pos1","stimuli/HM07_FO.jpg","FO","HM07","0","2","4","2","stimuli/stars_4.png","22","[""FO"",""HE"",""CC"",""SC""]","[""HM07"",""BF06"",""AF10"",""HF04""]","[4,6,2,8]","[2,6,4,8]","","",""
"show-reward","20","64403","0.0-20.0","p512429","A1EDLMO8ACUTBP","3WRBLBQ2GSENM5LEFQY1C5PG0GV0GC","3TXD01ZLD6NQDV248YFLH7B99BIU43","emotion","match","uniform","","","","","","","","63476.700000047684","65493.5","","","","","","","","","","","","4","","stimuli/stars_4.png","22","","","","","stimuli/HM07_FO.jpg","",""
"explore-choice","21","76252","0.0-21.0","p512429","A1EDLMO8ACUTBP","3WRBLBQ2GSENM5LEFQY1C5PG0GV0GC","3TXD01ZLD6NQDV248YFLH7B99BIU43","emotion","match","uniform","","","","","","","11346.100000023842","65495.200000047684","76841.30000007153","[""stimuli/HM07_SC.jpg"",""stimuli/AF10_FO.jpg"",""stimuli/BF06_HE.jpg"",""stimuli/HF04_CC.jpg""]","stimuli/HM07_SC.jpg","stimuli/AF10_FO.jpg","stimuli/BF06_HE.jpg","stimuli/HF04_CC.jpg","pos2","stimuli/AF10_FO.jpg","FO","AF10","1","2","4","2","stimuli/stars_4.png","24","[""SC"",""FO"",""HE"",""CC""]","[""HM07"",""AF10"",""BF06"",""HF04""]","[10,4,8,4]","[8,2,6,4]","","",""
"show-reward","22","78257","0.0-22.0","p512429","A1EDLMO8ACUTBP","3WRBLBQ2GSENM5LEFQY1C5PG0GV0GC","3TXD01ZLD6NQDV248YFLH7B99BIU43","emotion","match","uniform","","","","","","","","77343.10000002384","79347.60000002384","","","","","","","","","","","","4","","stimuli/stars_4.png","24","","","","","stimuli/AF10_FO.jpg","",""
"explore-choice","23","82232","0.0-23.0","p512429","A1EDLMO8ACUTBP","3WRBLBQ2GSENM5LEFQY1C5PG0GV0GC","3TXD01ZLD6NQDV248YFLH7B99BIU43","emotion","match","uniform","","","","","","","3473.5","79348.39999997616","82821.89999997616","[""stimuli/BF06_CC.jpg"",""stimuli/HF04_FO.jpg"",""stimuli/HM07_SC.jpg"",""stimuli/AF10_HE.jpg""]","stimuli/BF06_CC.jpg","stimuli/HF04_FO.jpg","stimuli/HM07_SC.jpg","stimuli/AF10_HE.jpg","pos2","stimuli/HF04_FO.jpg","FO","HF04","1","0.5","1","2","stimuli/stars_1.png","24.5","[""CC"",""FO"",""SC"",""HE""]","[""BF06"",""HF04"",""HM07"",""AF10""]","[5,1,7,8]","[4,2,8,6]","","",""
"show-reward","24","84243","0.0-24.0","p512429","A1EDLMO8ACUTBP","3WRBLBQ2GSENM5LEFQY1C5PG0GV0GC","3TXD01ZLD6NQDV248YFLH7B99BIU43","emotion","match","uniform","","","","","","","","83324.10000002384","85333.30000007153","","","","","","","","","","","","1","","stimuli/stars_1.png","24.5","","","","","stimuli/HF04_FO.jpg","",""
"explore-choice","25","102383","0.0-25.0","p512429","A1EDLMO8ACUTBP","3WRBLBQ2GSENM5LEFQY1C5PG0GV0GC","3TXD01ZLD6NQDV248YFLH7B99BIU43","emotion","match","uniform","","","","","","","17636","85336","102972","[""stimuli/HF04_SC.jpg"",""stimuli/BF06_CC.jpg"",""stimuli/HM07_HE.jpg"",""stimuli/AF10_FO.jpg""]","stimuli/HF04_SC.jpg","stimuli/BF06_CC.jpg","stimuli/HM07_HE.jpg","stimuli/AF10_FO.jpg","pos2","stimuli/BF06_CC.jpg","CC","BF06","1","1","2","4","stimuli/stars_2.png","25.5","[""SC"",""CC"",""HE"",""FO""]","[""HF04"",""BF06"",""HM07"",""AF10""]","[6,2,8,2]","[8,4,6,2]","","",""
"show-reward","26","104386","0.0-26.0","p512429","A1EDLMO8ACUTBP","3WRBLBQ2GSENM5LEFQY1C5PG0GV0GC","3TXD01ZLD6NQDV248YFLH7B99BIU43","emotion","match","uniform","","","","","","","","103474.20000004768","105476.60000002384","","","","","","","","","","","","2","","stimuli/stars_2.png","25.5","","","","","stimuli/BF06_CC.jpg","",""
"explore-choice","27","110671","0.0-27.0","p512429","A1EDLMO8ACUTBP","3WRBLBQ2GSENM5LEFQY1C5PG0GV0GC","3TXD01ZLD6NQDV248YFLH7B99BIU43","emotion","match","uniform","","","","","","","5778.200000047684","105477.39999997616","111255.60000002384","[""stimuli/HM07_CC.jpg"",""stimuli/AF10_HE.jpg"",""stimuli/BF06_FO.jpg"",""stimuli/HF04_SC.jpg""]","stimuli/HM07_CC.jpg","stimuli/AF10_HE.jpg","stimuli/BF06_FO.jpg","stimuli/HF04_SC.jpg","pos1","stimuli/HM07_CC.jpg","CC","HM07","0","2.5","5","4","stimuli/stars_5.png","28","[""CC"",""HE"",""FO"",""SC""]","[""HM07"",""AF10"",""BF06"",""HF04""]","[5,8,1,7]","[4,6,2,8]","","",""
"show-reward","28","112675","0.0-28.0","p512429","A1EDLMO8ACUTBP","3WRBLBQ2GSENM5LEFQY1C5PG0GV0GC","3TXD01ZLD6NQDV248YFLH7B99BIU43","emotion","match","uniform","","","","","","","","111762.70000004768","113765.10000002384","","","","","","","","","","","","5","","stimuli/stars_5.png","28","","","","","stimuli/HM07_CC.jpg","",""
"explore-choice","29","113842","0.0-29.0","p512429","A1EDLMO8ACUTBP","3WRBLBQ2GSENM5LEFQY1C5PG0GV0GC","3TXD01ZLD6NQDV248YFLH7B99BIU43","emotion","match","uniform","","","","","","","657.8999999761581","113766.10000002384","114424","[""stimuli/HF04_SC.jpg"",""stimuli/HM07_HE.jpg"",""stimuli/AF10_CC.jpg"",""stimuli/BF06_FO.jpg""]","stimuli/HF04_SC.jpg","stimuli/HM07_HE.jpg","stimuli/AF10_CC.jpg","stimuli/BF06_FO.jpg","pos2","stimuli/HM07_HE.jpg","HE","HM07","1","4","8","6","stimuli/stars_8.png","32","[""SC"",""HE"",""CC"",""FO""]","[""HF04"",""HM07"",""AF10"",""BF06""]","[8,8,5,2]","[8,6,4,2]","","",""
"show-reward","30","115847","0.0-30.0","p512429","A1EDLMO8ACUTBP","3WRBLBQ2GSENM5LEFQY1C5PG0GV0GC","3TXD01ZLD6NQDV248YFLH7B99BIU43","emotion","match","uniform","","","","","","","","114934.39999997616","116937.5","","","","","","","","","","","","8","","stimuli/stars_8.png","32","","","","","stimuli/HM07_HE.jpg","",""
"explore-choice","31","117491","0.0-31.0","p512429","A1EDLMO8ACUTBP","3WRBLBQ2GSENM5LEFQY1C5PG0GV0GC","3TXD01ZLD6NQDV248YFLH7B99BIU43","emotion","match","uniform","","","","","","","1127.8999999761581","116938.30000007153","118066.20000004768","[""stimuli/HM07_CC.jpg"",""stimuli/BF06_HE.jpg"",""stimuli/AF10_FO.jpg"",""stimuli/HF04_SC.jpg""]","stimuli/HM07_CC.jpg","stimuli/BF06_HE.jpg","stimuli/AF10_FO.jpg","stimuli/HF04_SC.jpg","pos1","stimuli/HM07_CC.jpg","CC","HM07","0","3","6","4","stimuli/stars_6.png","35","[""CC"",""HE"",""FO"",""SC""]","[""HM07"",""BF06"",""AF10"",""HF04""]","[6,8,1,6]","[4,6,2,8]","","",""
"show-reward","32","119496","0.0-32.0","p512429","A1EDLMO8ACUTBP","3WRBLBQ2GSENM5LEFQY1C5PG0GV0GC","3TXD01ZLD6NQDV248YFLH7B99BIU43","emotion","match","uniform","","","","","","","","118582.80000007153","120586.5","","","","","","","","","","","","6","","stimuli/stars_6.png","35","","","","","stimuli/HM07_CC.jpg","",""
"explore-choice","33","124729","0.0-33.0","p512429","A1EDLMO8ACUTBP","3WRBLBQ2GSENM5LEFQY1C5PG0GV0GC","3TXD01ZLD6NQDV248YFLH7B99BIU43","emotion","match","uniform","","","","","","","4728.800000071526","120587.39999997616","125316.20000004768","[""stimuli/AF10_SC.jpg"",""stimuli/HM07_CC.jpg"",""stimuli/HF04_HE.jpg"",""stimuli/BF06_FO.jpg""]","stimuli/AF10_SC.jpg","stimuli/HM07_CC.jpg","stimuli/HF04_HE.jpg","stimuli/BF06_FO.jpg","pos2","stimuli/HM07_CC.jpg","CC","HM07","1","3","6","4","stimuli/stars_6.png","38","[""SC"",""CC"",""HE"",""FO""]","[""AF10"",""HM07"",""HF04"",""BF06""]","[9,6,7,0]","[8,4,6,2]","","",""
"show-reward","34","126733","0.0-34.0","p512429","A1EDLMO8ACUTBP","3WRBLBQ2GSENM5LEFQY1C5PG0GV0GC","3TXD01ZLD6NQDV248YFLH7B99BIU43","emotion","match","uniform","","","","","","","","125821.5","127823.60000002384","","","","","","","","","","","","6","","stimuli/stars_6.png","38","","","","","stimuli/HM07_CC.jpg","",""
"explore-choice","35","131264","0.0-35.0","p512429","A1EDLMO8ACUTBP","3WRBLBQ2GSENM5LEFQY1C5PG0GV0GC","3TXD01ZLD6NQDV248YFLH7B99BIU43","emotion","match","uniform","","","","","","","4021.5","127824.5","131846","[""stimuli/HM07_HE.jpg"",""stimuli/BF06_FO.jpg"",""stimuli/AF10_SC.jpg"",""stimuli/HF04_CC.jpg""]","stimuli/HM07_HE.jpg","stimuli/BF06_FO.jpg","stimuli/AF10_SC.jpg","stimuli/HF04_CC.jpg","pos2","stimuli/BF06_FO.jpg","FO","BF06","1","1","2","2","stimuli/stars_2.png","39","[""HE"",""FO"",""SC"",""CC""]","[""HM07"",""BF06"",""AF10"",""HF04""]","[8,2,10,6]","[6,2,8,4]","","",""
"show-reward","36","133268","0.0-36.0","p512429","A1EDLMO8ACUTBP","3WRBLBQ2GSENM5LEFQY1C5PG0GV0GC","3TXD01ZLD6NQDV248YFLH7B99BIU43","emotion","match","uniform","","","","","","","","132356","134358.60000002384","","","","","","","","","","","","2","","stimuli/stars_2.png","39","","","","","stimuli/BF06_FO.jpg","",""
"explore-choice","37","137242","0.0-37.0","p512429","A1EDLMO8ACUTBP","3WRBLBQ2GSENM5LEFQY1C5PG0GV0GC","3TXD01ZLD6NQDV248YFLH7B99BIU43","emotion","match","uniform","","","","","","","3458.8000000715256","134359.39999997616","137818.20000004768","[""stimuli/HF04_FO.jpg"",""stimuli/AF10_SC.jpg"",""stimuli/BF06_HE.jpg"",""stimuli/HM07_CC.jpg""]","stimuli/HF04_FO.jpg","stimuli/AF10_SC.jpg","stimuli/BF06_HE.jpg","stimuli/HM07_CC.jpg","pos1","stimuli/HF04_FO.jpg","FO","HF04","0","1","2","2","stimuli/stars_2.png","40","[""FO"",""SC"",""HE"",""CC""]","[""HF04"",""AF10"",""BF06"",""HM07""]","[2,8,7,4]","[2,8,6,4]","","",""
"show-reward","38","139255","0.0-38.0","p512429","A1EDLMO8ACUTBP","3WRBLBQ2GSENM5LEFQY1C5PG0GV0GC","3TXD01ZLD6NQDV248YFLH7B99BIU43","emotion","match","uniform","","","","","","","","138334.20000004768","140345.89999997616","","","","","","","","","","","","2","","stimuli/stars_2.png","40","","","","","stimuli/HF04_FO.jpg","",""
"explore-choice","39","140156","0.0-39.0","p512429","A1EDLMO8ACUTBP","3WRBLBQ2GSENM5LEFQY1C5PG0GV0GC","3TXD01ZLD6NQDV248YFLH7B99BIU43","emotion","match","uniform","","","","","","","397","140347.70000004768","140744.70000004768","[""stimuli/HM07_FO.jpg"",""stimuli/BF06_CC.jpg"",""stimuli/AF10_HE.jpg"",""stimuli/HF04_SC.jpg""]","stimuli/HM07_FO.jpg","stimuli/BF06_CC.jpg","stimuli/AF10_HE.jpg","stimuli/HF04_SC.jpg","pos2","stimuli/BF06_CC.jpg","CC","BF06","1","2.5","5","4","stimuli/stars_5.png","42.5","[""FO"",""CC"",""HE"",""SC""]","[""HM07"",""BF06"",""AF10"",""HF04""]","[3,5,4,10]","[2,4,6,8]","","",""
"show-reward","40","142164","0.0-40.0","p512429","A1EDLMO8ACUTBP","3WRBLBQ2GSENM5LEFQY1C5PG0GV0GC","3TXD01ZLD6NQDV248YFLH7B99BIU43","emotion","match","uniform","","","","","","","","141247.39999997616","143255.30000007153","","","","","","","","","","","","5","","stimuli/stars_5.png","42.5","","","","","stimuli/BF06_CC.jpg","",""
"explore-choice","41","150702","0.0-41.0","p512429","A1EDLMO8ACUTBP","3WRBLBQ2GSENM5LEFQY1C5PG0GV0GC","3TXD01ZLD6NQDV248YFLH7B99BIU43","emotion","match","uniform","","","","","","","8036","143256.20000004768","151292.20000004768","[""stimuli/HM07_SC.jpg"",""stimuli/AF10_CC.jpg"",""stimuli/BF06_HE.jpg"",""stimuli/HF04_FO.jpg""]","stimuli/HM07_SC.jpg","stimuli/AF10_CC.jpg","stimuli/BF06_HE.jpg","stimuli/HF04_FO.jpg","pos1","stimuli/HM07_SC.jpg","SC","HM07","0","4","8","8","stimuli/stars_8.png","46.5","[""SC"",""CC"",""HE"",""FO""]","[""HM07"",""AF10"",""BF06"",""HF04""]","[8,2,6,0]","[8,4,6,2]","","",""
"show-reward","42","152716","0.0-42.0","p512429","A1EDLMO8ACUTBP","3WRBLBQ2GSENM5LEFQY1C5PG0GV0GC","3TXD01ZLD6NQDV248YFLH7B99BIU43","emotion","match","uniform","","","","","","","","151794.30000007153","153807.30000007153","","","","","","","","","","","","8","","stimuli/stars_8.png","46.5","","","","","stimuli/HM07_SC.jpg","",""
"explore-choice","43","153393","0.0-43.0","p512429","A1EDLMO8ACUTBP","3WRBLBQ2GSENM5LEFQY1C5PG0GV0GC","3TXD01ZLD6NQDV248YFLH7B99BIU43","emotion","match","uniform","","","","","","","173.89999997615814","153808.5","153982.39999997616","[""stimuli/HF04_FO.jpg"",""stimuli/AF10_CC.jpg"",""stimuli/BF06_SC.jpg"",""stimuli/HM07_HE.jpg""]","stimuli/HF04_FO.jpg","stimuli/AF10_CC.jpg","stimuli/BF06_SC.jpg","stimuli/HM07_HE.jpg","pos1","stimuli/HF04_FO.jpg","FO","HF04","0","1.5","3","2","stimuli/stars_3.png","48","[""FO"",""CC"",""SC"",""HE""]","[""HF04"",""AF10"",""BF06"",""HM07""]","[3,4,6,8]","[2,4,8,6]","","",""
"show-reward","44","155395","0.0-44.0","p512429","A1EDLMO8ACUTBP","3WRBLBQ2GSENM5LEFQY1C5PG0GV0GC","3TXD01ZLD6NQDV248YFLH7B99BIU43","emotion","match","uniform","","","","","","","","154484.5","156486.20000004768","","","","","","","","","","","","3","","stimuli/stars_3.png","48","","","","","stimuli/HF04_FO.jpg","",""
"explore-choice","45","156117","0.0-45.0","p512429","A1EDLMO8ACUTBP","3WRBLBQ2GSENM5LEFQY1C5PG0GV0GC","3TXD01ZLD6NQDV248YFLH7B99BIU43","emotion","match","uniform","","","","","","","219.5","156487.20000004768","156706.70000004768","[""stimuli/AF10_HE.jpg"",""stimuli/HF04_FO.jpg"",""stimuli/BF06_SC.jpg"",""stimuli/HM07_CC.jpg""]","stimuli/AF10_HE.jpg","stimuli/HF04_FO.jpg","stimuli/BF06_SC.jpg","stimuli/HM07_CC.jpg","pos2","stimuli/HF04_FO.jpg","FO","HF04","1","1.5","3","2","stimuli/stars_3.png","49.5","[""HE"",""FO"",""SC"",""CC""]","[""AF10"",""HF04"",""BF06"",""HM07""]","[4,3,8,4]","[6,2,8,4]","","",""
"show-reward","46","158119","0.0-46.0","p512429","A1EDLMO8ACUTBP","3WRBLBQ2GSENM5LEFQY1C5PG0GV0GC","3TXD01ZLD6NQDV248YFLH7B99BIU43","emotion","match","uniform","","","","","","","","157208.60000002384","159210.10000002384","","","","","","","","","","","","3","","stimuli/stars_3.png","49.5","","","","","stimuli/HF04_FO.jpg","",""
"explore-choice","47","161305","0.0-47.0","p512429","A1EDLMO8ACUTBP","3WRBLBQ2GSENM5LEFQY1C5PG0GV0GC","3TXD01ZLD6NQDV248YFLH7B99BIU43","emotion","match","uniform","","","","","","","2677.7999999523163","159211.20000004768","161889","[""stimuli/HM07_HE.jpg"",""stimuli/BF06_CC.jpg"",""stimuli/AF10_SC.jpg"",""stimuli/HF04_FO.jpg""]","stimuli/HM07_HE.jpg","stimuli/BF06_CC.jpg","stimuli/AF10_SC.jpg","stimuli/HF04_FO.jpg","pos4","stimuli/HF04_FO.jpg","FO","HF04","3","0","0","2","stimuli/stars_0.png","49.5","[""HE"",""CC"",""SC"",""FO""]","[""HM07"",""BF06"",""AF10"",""HF04""]","[4,6,6,0]","[6,4,8,2]","","",""
"show-reward","48","163316","0.0-48.0","p512429","A1EDLMO8ACUTBP","3WRBLBQ2GSENM5LEFQY1C5PG0GV0GC","3TXD01ZLD6NQDV248YFLH7B99BIU43","emotion","match","uniform","","","","","","","","162397.10000002384","164406.70000004768","","","","","","","","","","","","0","","stimuli/stars_0.png","49.5","","","","","stimuli/HF04_FO.jpg","",""
"explore-choice","49","165045","0.0-49.0","p512429","A1EDLMO8ACUTBP","3WRBLBQ2GSENM5LEFQY1C5PG0GV0GC","3TXD01ZLD6NQDV248YFLH7B99BIU43","emotion","match","uniform","","","","","","","1217.5","164407.60000002384","165625.10000002384","[""stimuli/AF10_SC.jpg"",""stimuli/HF04_CC.jpg"",""stimuli/HM07_FO.jpg"",""stimuli/BF06_HE.jpg""]","stimuli/AF10_SC.jpg","stimuli/HF04_CC.jpg","stimuli/HM07_FO.jpg","stimuli/BF06_HE.jpg","pos2","stimuli/HF04_CC.jpg","CC","HF04","1","1.5","3","4","stimuli/stars_3.png","51","[""SC"",""CC"",""FO"",""HE""]","[""AF10"",""HF04"",""HM07"",""BF06""]","[9,3,2,7]","[8,4,2,6]","","",""
"show-reward","50","167054","0.0-50.0","p512429","A1EDLMO8ACUTBP","3WRBLBQ2GSENM5LEFQY1C5PG0GV0GC","3TXD01ZLD6NQDV248YFLH7B99BIU43","emotion","match","uniform","","","","","","","","166136.39999997616","168145.10000002384","","","","","","","","","","","","3","","stimuli/stars_3.png","51","","","","","stimuli/HF04_CC.jpg","",""
"explore-choice","51","169203","0.0-51.0","p512429","A1EDLMO8ACUTBP","3WRBLBQ2GSENM5LEFQY1C5PG0GV0GC","3TXD01ZLD6NQDV248YFLH7B99BIU43","emotion","match","uniform","","","","","","","1640.7999999523163","168145.80000007153","169786.60000002384","[""stimuli/AF10_FO.jpg"",""stimuli/HF04_HE.jpg"",""stimuli/BF06_SC.jpg"",""stimuli/HM07_CC.jpg""]","stimuli/AF10_FO.jpg","stimuli/HF04_HE.jpg","stimuli/BF06_SC.jpg","stimuli/HM07_CC.jpg","pos1","stimuli/AF10_FO.jpg","FO","AF10","0","0.5","1","2","stimuli/stars_1.png","51.5","[""FO"",""HE"",""SC"",""CC""]","[""AF10"",""HF04"",""BF06"",""HM07""]","[1,7,10,4]","[2,6,8,4]","","",""
"show-reward","52","171206","0.0-52.0","p512429","A1EDLMO8ACUTBP","3WRBLBQ2GSENM5LEFQY1C5PG0GV0GC","3TXD01ZLD6NQDV248YFLH7B99BIU43","emotion","match","uniform","","","","","","","","170295","172296.80000007153","","","","","","","","","","","","1","","stimuli/stars_1.png","51.5","","","","","stimuli/AF10_FO.jpg","",""
"explore-choice","53","174304","0.0-53.0","p512429","A1EDLMO8ACUTBP","3WRBLBQ2GSENM5LEFQY1C5PG0GV0GC","3TXD01ZLD6NQDV248YFLH7B99BIU43","emotion","match","uniform","","","","","","","2591.399999976158","172297.60000002384","174889","[""stimuli/HF04_CC.jpg"",""stimuli/AF10_FO.jpg"",""stimuli/BF06_SC.jpg"",""stimuli/HM07_HE.jpg""]","stimuli/HF04_CC.jpg","stimuli/AF10_FO.jpg","stimuli/BF06_SC.jpg","stimuli/HM07_HE.jpg","pos2","stimuli/AF10_FO.jpg","FO","AF10","1","0","0","2","stimuli/stars_0.png","51.5","[""CC"",""FO"",""SC"",""HE""]","[""HF04"",""AF10"",""BF06"",""HM07""]","[2,0,7,5]","[4,2,8,6]","","",""
"show-reward","54","176308","0.0-54.0","p512429","A1EDLMO8ACUTBP","3WRBLBQ2GSENM5LEFQY1C5PG0GV0GC","3TXD01ZLD6NQDV248YFLH7B99BIU43","emotion","match","uniform","","","","","","","","175396.20000004768","177399.20000004768","","","","","","","","","","","","0","","stimuli/stars_0.png","51.5","","","","","stimuli/AF10_FO.jpg","",""
"explore-choice","55","183227","0.0-55.0","p512429","A1EDLMO8ACUTBP","3WRBLBQ2GSENM5LEFQY1C5PG0GV0GC","3TXD01ZLD6NQDV248YFLH7B99BIU43","emotion","match","uniform","","","","","","","6409.299999952316","177400.20000004768","183809.5","[""stimuli/BF06_FO.jpg"",""stimuli/HM07_CC.jpg"",""stimuli/HF04_HE.jpg"",""stimuli/AF10_SC.jpg""]","stimuli/BF06_FO.jpg","stimuli/HM07_CC.jpg","stimuli/HF04_HE.jpg","stimuli/AF10_SC.jpg","pos3","stimuli/HF04_HE.jpg","HE","HF04","2","3.5","7","6","stimuli/stars_7.png","55","[""FO"",""CC"",""HE"",""SC""]","[""BF06"",""HM07"",""HF04"",""AF10""]","[0,6,7,9]","[2,4,6,8]","","",""
"show-reward","56","185241","0.0-56.0","p512429","A1EDLMO8ACUTBP","3WRBLBQ2GSENM5LEFQY1C5PG0GV0GC","3TXD01ZLD6NQDV248YFLH7B99BIU43","emotion","match","uniform","","","","","","","","184319.20000004768","186332.39999997616","","","","","","","","","","","","7","","stimuli/stars_7.png","55","","","","","stimuli/HF04_HE.jpg","",""
"explore-choice","57","187751","0.0-57.0","p512429","A1EDLMO8ACUTBP","3WRBLBQ2GSENM5LEFQY1C5PG0GV0GC","3TXD01ZLD6NQDV248YFLH7B99BIU43","emotion","match","uniform","","","","","","","1997.5","186333.39999997616","188330.89999997616","[""stimuli/HM07_HE.jpg"",""stimuli/AF10_CC.jpg"",""stimuli/BF06_FO.jpg"",""stimuli/HF04_SC.jpg""]","stimuli/HM07_HE.jpg","stimuli/AF10_CC.jpg","stimuli/BF06_FO.jpg","stimuli/HF04_SC.jpg","pos3","stimuli/BF06_FO.jpg","FO","BF06","2","1","2","2","stimuli/stars_2.png","56","[""HE"",""CC"",""FO"",""SC""]","[""HM07"",""AF10"",""BF06"",""HF04""]","[8,5,2,8]","[6,4,2,8]","","",""
"show-reward","58","189753","0.0-58.0","p512429","A1EDLMO8ACUTBP","3WRBLBQ2GSENM5LEFQY1C5PG0GV0GC","3TXD01ZLD6NQDV248YFLH7B99BIU43","emotion","match","uniform","","","","","","","","188843.30000007153","190844.89999997616","","","","","","","","","","","","2","","stimuli/stars_2.png","56","","","","","stimuli/BF06_FO.jpg","",""
"explore-choice","59","190697","0.0-59.0","p512429","A1EDLMO8ACUTBP","3WRBLBQ2GSENM5LEFQY1C5PG0GV0GC","3TXD01ZLD6NQDV248YFLH7B99BIU43","emotion","match","uniform","","","","","","","433.5","190845.60000002384","191279.10000002384","[""stimuli/HM07_CC.jpg"",""stimuli/BF06_SC.jpg"",""stimuli/HF04_HE.jpg"",""stimuli/AF10_FO.jpg""]","stimuli/HM07_CC.jpg","stimuli/BF06_SC.jpg","stimuli/HF04_HE.jpg","stimuli/AF10_FO.jpg","pos1","stimuli/HM07_CC.jpg","CC","HM07","0","2","4","4","stimuli/stars_4.png","58","[""CC"",""SC"",""HE"",""FO""]","[""HM07"",""BF06"",""HF04"",""AF10""]","[4,10,7,1]","[4,8,6,2]","","",""
"show-reward","60","192701","0.0-60.0","p512429","A1EDLMO8ACUTBP","3WRBLBQ2GSENM5LEFQY1C5PG0GV0GC","3TXD01ZLD6NQDV248YFLH7B99BIU43","emotion","match","uniform","","","","","","","","191789.5","193792.10000002384","","","","","","","","","","","","4","","stimuli/stars_4.png","58","","","","","stimuli/HM07_CC.jpg","",""
"explore-choice","61","196515","0.0-61.0","p512429","A1EDLMO8ACUTBP","3WRBLBQ2GSENM5LEFQY1C5PG0GV0GC","3TXD01ZLD6NQDV248YFLH7B99BIU43","emotion","match","uniform","","","","","","","3312.5999999046326","193792.80000007153","197105.39999997616","[""stimuli/BF06_HE.jpg"",""stimuli/AF10_CC.jpg"",""stimuli/HF04_FO.jpg"",""stimuli/HM07_SC.jpg""]","stimuli/BF06_HE.jpg","stimuli/AF10_CC.jpg","stimuli/HF04_FO.jpg","stimuli/HM07_SC.jpg","pos1","stimuli/BF06_HE.jpg","HE","BF06","0","3","6","6","stimuli/stars_6.png","61","[""HE"",""CC"",""FO"",""SC""]","[""BF06"",""AF10"",""HF04"",""HM07""]","[6,2,0,8]","[6,4,2,8]","","",""
"show-reward","62","198524","0.0-62.0","p512429","A1EDLMO8ACUTBP","3WRBLBQ2GSENM5LEFQY1C5PG0GV0GC","3TXD01ZLD6NQDV248YFLH7B99BIU43","emotion","match","uniform","","","","","","","","197607.20000004768","199614.89999997616","","","","","","","","","","","","6","","stimuli/stars_6.png","61","","","","","stimuli/BF06_HE.jpg","",""
"explore-choice","63","200291","0.0-63.0","p512429","A1EDLMO8ACUTBP","3WRBLBQ2GSENM5LEFQY1C5PG0GV0GC","3TXD01ZLD6NQDV248YFLH7B99BIU43","emotion","match","uniform","","","","","","","1255.6000000238419","199616","200871.60000002384","[""stimuli/HM07_HE.jpg"",""stimuli/BF06_SC.jpg"",""stimuli/AF10_CC.jpg"",""stimuli/HF04_FO.jpg""]","stimuli/HM07_HE.jpg","stimuli/BF06_SC.jpg","stimuli/AF10_CC.jpg","stimuli/HF04_FO.jpg","pos2","stimuli/BF06_SC.jpg","SC","BF06","1","3","6","8","stimuli/stars_6.png","64","[""HE"",""SC"",""CC"",""FO""]","[""HM07"",""BF06"",""AF10"",""HF04""]","[8,6,4,3]","[6,8,4,2]","","",""
"show-reward","64","202295","0.0-64.0","p512429","A1EDLMO8ACUTBP","3WRBLBQ2GSENM5LEFQY1C5PG0GV0GC","3TXD01ZLD6NQDV248YFLH7B99BIU43","emotion","match","uniform","","","","","","","","201383.10000002384","203385.89999997616","","","","","","","","","","","","6","","stimuli/stars_6.png","64","","","","","stimuli/BF06_SC.jpg","",""
"explore-choice","65","205699","0.0-65.0","p512429","A1EDLMO8ACUTBP","3WRBLBQ2GSENM5LEFQY1C5PG0GV0GC","3TXD01ZLD6NQDV248YFLH7B99BIU43","emotion","match","uniform","","","","","","","2896.100000023842","203386.89999997616","206283","[""stimuli/AF10_HE.jpg"",""stimuli/HF04_CC.jpg"",""stimuli/HM07_FO.jpg"",""stimuli/BF06_SC.jpg""]","stimuli/AF10_HE.jpg","stimuli/HF04_CC.jpg","stimuli/HM07_FO.jpg","stimuli/BF06_SC.jpg","pos4","stimuli/BF06_SC.jpg","SC","BF06","3","4","8","8","stimuli/stars_8.png","68","[""HE"",""CC"",""FO"",""SC""]","[""AF10"",""HF04"",""HM07"",""BF06""]","[6,3,0,8]","[6,4,2,8]","","",""
"show-reward","66","207701","0.0-66.0","p512429","A1EDLMO8ACUTBP","3WRBLBQ2GSENM5LEFQY1C5PG0GV0GC","3TXD01ZLD6NQDV248YFLH7B99BIU43","emotion","match","uniform","","","","","","","","206790.89999997616","208792.80000007153","","","","","","","","","","","","8","","stimuli/stars_8.png","68","","","","","stimuli/BF06_SC.jpg","",""
"explore-choice","67","209452","0.0-67.0","p512429","A1EDLMO8ACUTBP","3WRBLBQ2GSENM5LEFQY1C5PG0GV0GC","3TXD01ZLD6NQDV248YFLH7B99BIU43","emotion","match","uniform","","","","","","","1233.7999999523163","208793.80000007153","210027.60000002384","[""stimuli/BF06_CC.jpg"",""stimuli/AF10_HE.jpg"",""stimuli/HM07_SC.jpg"",""stimuli/HF04_FO.jpg""]","stimuli/BF06_CC.jpg","stimuli/AF10_HE.jpg","stimuli/HM07_SC.jpg","stimuli/HF04_FO.jpg","pos2","stimuli/AF10_HE.jpg","HE","AF10","1","4","8","6","stimuli/stars_8.png","72","[""CC"",""HE"",""SC"",""FO""]","[""BF06"",""AF10"",""HM07"",""HF04""]","[5,8,7,1]","[4,6,8,2]","","",""
"show-reward","68","211455","0.0-68.0","p512429","A1EDLMO8ACUTBP","3WRBLBQ2GSENM5LEFQY1C5PG0GV0GC","3TXD01ZLD6NQDV248YFLH7B99BIU43","emotion","match","uniform","","","","","","","","210544.39999997616","212546.60000002384","","","","","","","","","","","","8","","stimuli/stars_8.png","72","","","","","stimuli/AF10_HE.jpg","",""
"explore-choice","69","214216","0.0-69.0","p512429","A1EDLMO8ACUTBP","3WRBLBQ2GSENM5LEFQY1C5PG0GV0GC","3TXD01ZLD6NQDV248YFLH7B99BIU43","emotion","match","uniform","","","","","","","2248.100000023842","212547.39999997616","214795.5","[""stimuli/BF06_CC.jpg"",""stimuli/HF04_SC.jpg"",""stimuli/AF10_HE.jpg"",""stimuli/HM07_FO.jpg""]","stimuli/BF06_CC.jpg","stimuli/HF04_SC.jpg","stimuli/AF10_HE.jpg","stimuli/HM07_FO.jpg","pos1","stimuli/BF06_CC.jpg","CC","BF06","0","2.5","5","4","stimuli/stars_5.png","74.5","[""CC"",""SC"",""HE"",""FO""]","[""BF06"",""HF04"",""AF10"",""HM07""]","[5,10,4,3]","[4,8,6,2]","","",""
"show-reward","70","216220","0.0-70.0","p512429","A1EDLMO8ACUTBP","3WRBLBQ2GSENM5LEFQY1C5PG0GV0GC","3TXD01ZLD6NQDV248YFLH7B99BIU43","emotion","match","uniform","","","","","","","","215308.60000002384","217311.70000004768","","","","","","","","","","","","5","","stimuli/stars_5.png","74.5","","","","","stimuli/BF06_CC.jpg","",""
"explore-choice","71","218365","0.0-71.0","p512429","A1EDLMO8ACUTBP","3WRBLBQ2GSENM5LEFQY1C5PG0GV0GC","3TXD01ZLD6NQDV248YFLH7B99BIU43","emotion","match","uniform","","","","","","","1643.5","217312.60000002384","218956.10000002384","[""stimuli/AF10_FO.jpg"",""stimuli/HM07_SC.jpg"",""stimuli/HF04_HE.jpg"",""stimuli/BF06_CC.jpg""]","stimuli/AF10_FO.jpg","stimuli/HM07_SC.jpg","stimuli/HF04_HE.jpg","stimuli/BF06_CC.jpg","pos4","stimuli/BF06_CC.jpg","CC","BF06","3","3","6","4","stimuli/stars_6.png","77.5","[""FO"",""SC"",""HE"",""CC""]","[""AF10"",""HM07"",""HF04"",""BF06""]","[0,8,7,6]","[2,8,6,4]","","",""
"show-reward","72","220382","0.0-72.0","p512429","A1EDLMO8ACUTBP","3WRBLBQ2GSENM5LEFQY1C5PG0GV0GC","3TXD01ZLD6NQDV248YFLH7B99BIU43","emotion","match","uniform","","","","","","","","219457.89999997616","221473.10000002384","","","","","","","","","","","","6","","stimuli/stars_6.png","77.5","","","","","stimuli/BF06_CC.jpg","",""
"explore-choice","73","222227","0.0-73.0","p512429","A1EDLMO8ACUTBP","3WRBLBQ2GSENM5LEFQY1C5PG0GV0GC","3TXD01ZLD6NQDV248YFLH7B99BIU43","emotion","match","uniform","","","","","","","1343.8999999761581","221474","222817.89999997616","[""stimuli/AF10_HE.jpg"",""stimuli/HF04_FO.jpg"",""stimuli/HM07_CC.jpg"",""stimuli/BF06_SC.jpg""]","stimuli/AF10_HE.jpg","stimuli/HF04_FO.jpg","stimuli/HM07_CC.jpg","stimuli/BF06_SC.jpg","pos1","stimuli/AF10_HE.jpg","HE","AF10","0","2","4","6","stimuli/stars_4.png","79.5","[""HE"",""FO"",""CC"",""SC""]","[""AF10"",""HF04"",""HM07"",""BF06""]","[4,3,4,8]","[6,2,4,8]","","",""
"show-reward","74","224233","0.0-74.0","p512429","A1EDLMO8ACUTBP","3WRBLBQ2GSENM5LEFQY1C5PG0GV0GC","3TXD01ZLD6NQDV248YFLH7B99BIU43","emotion","match","uniform","","","","","","","","223320","225323.89999997616","","","","","","","","","","","","4","","stimuli/stars_4.png","79.5","","","","","stimuli/AF10_HE.jpg","",""
"explore-choice","75","226192","0.0-75.0","p512429","A1EDLMO8ACUTBP","3WRBLBQ2GSENM5LEFQY1C5PG0GV0GC","3TXD01ZLD6NQDV248YFLH7B99BIU43","emotion","match","uniform","","","","","","","1442.7000000476837","225325","226767.70000004768","[""stimuli/AF10_FO.jpg"",""stimuli/HM07_HE.jpg"",""stimuli/HF04_SC.jpg"",""stimuli/BF06_CC.jpg""]","stimuli/AF10_FO.jpg","stimuli/HM07_HE.jpg","stimuli/HF04_SC.jpg","stimuli/BF06_CC.jpg","pos3","stimuli/HF04_SC.jpg","SC","HF04","2","3","6","8","stimuli/stars_6.png","82.5","[""FO"",""HE"",""SC"",""CC""]","[""AF10"",""HM07"",""HF04"",""BF06""]","[2,8,6,2]","[2,6,8,4]","","",""
"show-reward","76","228208","0.0-76.0","p512429","A1EDLMO8ACUTBP","3WRBLBQ2GSENM5LEFQY1C5PG0GV0GC","3TXD01ZLD6NQDV248YFLH7B99BIU43","emotion","match","uniform","","","","","","","","227284.20000004768","229299.39999997616","","","","","","","","","","","","6","","stimuli/stars_6.png","82.5","","","","","stimuli/HF04_SC.jpg","",""
"explore-choice","77","229172","0.0-77.0","p512429","A1EDLMO8ACUTBP","3WRBLBQ2GSENM5LEFQY1C5PG0GV0GC","3TXD01ZLD6NQDV248YFLH7B99BIU43","emotion","match","uniform","","","","","","","461.5","229300.60000002384","229762.10000002384","[""stimuli/BF06_HE.jpg"",""stimuli/AF10_FO.jpg"",""stimuli/HF04_SC.jpg"",""stimuli/HM07_CC.jpg""]","stimuli/BF06_HE.jpg","stimuli/AF10_FO.jpg","stimuli/HF04_SC.jpg","stimuli/HM07_CC.jpg","pos1","stimuli/BF06_HE.jpg","HE","BF06","0","4","8","6","stimuli/stars_8.png","86.5","[""HE"",""FO"",""SC"",""CC""]","[""BF06"",""AF10"",""HF04"",""HM07""]","[8,1,6,6]","[6,2,8,4]","","",""
"show-reward","78","231184","0.0-78.0","p512429","A1EDLMO8ACUTBP","3WRBLBQ2GSENM5LEFQY1C5PG0GV0GC","3TXD01ZLD6NQDV248YFLH7B99BIU43","emotion","match","uniform","","","","","","","","230264.20000004768","232275.60000002384","","","","","","","","","","","","8","","stimuli/stars_8.png","86.5","","","","","stimuli/BF06_HE.jpg","",""
"explore-choice","79","232390","0.0-79.0","p512429","A1EDLMO8ACUTBP","3WRBLBQ2GSENM5LEFQY1C5PG0GV0GC","3TXD01ZLD6NQDV248YFLH7B99BIU43","emotion","match","uniform","","","","","","","695.5","232276.60000002384","232972.10000002384","[""stimuli/BF06_HE.jpg"",""stimuli/HM07_FO.jpg"",""stimuli/HF04_SC.jpg"",""stimuli/AF10_CC.jpg""]","stimuli/BF06_HE.jpg","stimuli/HM07_FO.jpg","stimuli/HF04_SC.jpg","stimuli/AF10_CC.jpg","pos2","stimuli/HM07_FO.jpg","FO","HM07","1","2","4","2","stimuli/stars_4.png","88.5","[""HE"",""FO"",""SC"",""CC""]","[""BF06"",""HM07"",""HF04"",""AF10""]","[6,4,8,2]","[6,2,8,4]","","",""
"show-reward","80","234409","0.0-80.0","p512429","A1EDLMO8ACUTBP","3WRBLBQ2GSENM5LEFQY1C5PG0GV0GC","3TXD01ZLD6NQDV248YFLH7B99BIU43","emotion","match","uniform","","","","","","","","233482.80000007153","235500","","","","","","","","","","","","4","","stimuli/stars_4.png","88.5","","","","","stimuli/HM07_FO.jpg","",""
"explore-choice","81","236151","0.0-81.0","p512429","A1EDLMO8ACUTBP","3WRBLBQ2GSENM5LEFQY1C5PG0GV0GC","3TXD01ZLD6NQDV248YFLH7B99BIU43","emotion","match","uniform","","","","","","","1240.8000000715256","235500.89999997616","236741.70000004768","[""stimuli/HF04_CC.jpg"",""stimuli/BF06_FO.jpg"",""stimuli/HM07_SC.jpg"",""stimuli/AF10_HE.jpg""]","stimuli/HF04_CC.jpg","stimuli/BF06_FO.jpg","stimuli/HM07_SC.jpg","stimuli/AF10_HE.jpg","pos1","stimuli/HF04_CC.jpg","CC","HF04","0","1","2","4","stimuli/stars_2.png","89.5","[""CC"",""FO"",""SC"",""HE""]","[""HF04"",""BF06"",""HM07"",""AF10""]","[2,0,7,8]","[4,2,8,6]","","",""
"show-reward","82","238154","0.0-82.0","p512429","A1EDLMO8ACUTBP","3WRBLBQ2GSENM5LEFQY1C5PG0GV0GC","3TXD01ZLD6NQDV248YFLH7B99BIU43","emotion","match","uniform","","","","","","","","237243.60000002384","239245.60000002384","","","","","","","","","","","","2","","stimuli/stars_2.png","89.5","","","","","stimuli/HF04_CC.jpg","",""
"explore-choice","83","240181","0.0-83.0","p512429","A1EDLMO8ACUTBP","3WRBLBQ2GSENM5LEFQY1C5PG0GV0GC","3TXD01ZLD6NQDV248YFLH7B99BIU43","emotion","match","uniform","","","","","","","1517.8999999761581","239246.60000002384","240764.5","[""stimuli/AF10_FO.jpg"",""stimuli/HF04_CC.jpg"",""stimuli/HM07_SC.jpg"",""stimuli/BF06_HE.jpg""]","stimuli/AF10_FO.jpg","stimuli/HF04_CC.jpg","stimuli/HM07_SC.jpg","stimuli/BF06_HE.jpg","pos4","stimuli/BF06_HE.jpg","HE","BF06","3","4","8","6","stimuli/stars_8.png","93.5","[""FO"",""CC"",""SC"",""HE""]","[""AF10"",""HF04"",""HM07"",""BF06""]","[4,4,10,8]","[2,4,8,6]","","",""
"show-reward","84","242184","0.0-84.0","p512429","A1EDLMO8ACUTBP","3WRBLBQ2GSENM5LEFQY1C5PG0GV0GC","3TXD01ZLD6NQDV248YFLH7B99BIU43","emotion","match","uniform","","","","","","","","241273","243275.10000002384","","","","","","","","","","","","8","","stimuli/stars_8.png","93.5","","","","","stimuli/BF06_HE.jpg","",""
"explore-choice","85","243608","0.0-85.0","p512429","A1EDLMO8ACUTBP","3WRBLBQ2GSENM5LEFQY1C5PG0GV0GC","3TXD01ZLD6NQDV248YFLH7B99BIU43","emotion","match","uniform","","","","","","","914","243276.20000004768","244190.20000004768","[""stimuli/HF04_CC.jpg"",""stimuli/HM07_FO.jpg"",""stimuli/AF10_SC.jpg"",""stimuli/BF06_HE.jpg""]","stimuli/HF04_CC.jpg","stimuli/HM07_FO.jpg","stimuli/AF10_SC.jpg","stimuli/BF06_HE.jpg","pos1","stimuli/HF04_CC.jpg","CC","HF04","0","1.5","3","4","stimuli/stars_3.png","95","[""CC"",""FO"",""SC"",""HE""]","[""HF04"",""HM07"",""AF10"",""BF06""]","[3,2,9,7]","[4,2,8,6]","","",""
"show-reward","86","245611","0.0-86.0","p512429","A1EDLMO8ACUTBP","3WRBLBQ2GSENM5LEFQY1C5PG0GV0GC","3TXD01ZLD6NQDV248YFLH7B99BIU43","emotion","match","uniform","","","","","","","","244700.10000002384","246702","","","","","","","","","","","","3","","stimuli/stars_3.png","95","","","","","stimuli/HF04_CC.jpg","",""
"explore-choice","87","247112","0.0-87.0","p512429","A1EDLMO8ACUTBP","3WRBLBQ2GSENM5LEFQY1C5PG0GV0GC","3TXD01ZLD6NQDV248YFLH7B99BIU43","emotion","match","uniform","","","","","","","989.2000000476837","246703","247692.20000004768","[""stimuli/AF10_SC.jpg"",""stimuli/HM07_FO.jpg"",""stimuli/HF04_HE.jpg"",""stimuli/BF06_CC.jpg""]","stimuli/AF10_SC.jpg","stimuli/HM07_FO.jpg","stimuli/HF04_HE.jpg","stimuli/BF06_CC.jpg","pos2","stimuli/HM07_FO.jpg","FO","HM07","1","1.5","3","2","stimuli/stars_3.png","96.5","[""SC"",""FO"",""HE"",""CC""]","[""AF10"",""HM07"",""HF04"",""BF06""]","[6,3,6,3]","[8,2,6,4]","","",""
"show-reward","88","249119","0.0-88.0","p512429","A1EDLMO8ACUTBP","3WRBLBQ2GSENM5LEFQY1C5PG0GV0GC","3TXD01ZLD6NQDV248YFLH7B99BIU43","emotion","match","uniform","","","","","","","","248204.39999997616","250210.70000004768","","","","","","","","","","","","3","","stimuli/stars_3.png","96.5","","","","","stimuli/HM07_FO.jpg","",""
"explore-choice","89","252072","0.0-89.0","p512429","A1EDLMO8ACUTBP","3WRBLBQ2GSENM5LEFQY1C5PG0GV0GC","3TXD01ZLD6NQDV248YFLH7B99BIU43","emotion","match","uniform","","","","","","","2436.899999976158","250211.70000004768","252648.60000002384","[""stimuli/HM07_CC.jpg"",""stimuli/HF04_FO.jpg"",""stimuli/BF06_HE.jpg"",""stimuli/AF10_SC.jpg""]","stimuli/HM07_CC.jpg","stimuli/HF04_FO.jpg","stimuli/BF06_HE.jpg","stimuli/AF10_SC.jpg","pos4","stimuli/AF10_SC.jpg","SC","AF10","3","4","8","8","stimuli/stars_8.png","100.5","[""CC"",""FO"",""HE"",""SC""]","[""HM07"",""HF04"",""BF06"",""AF10""]","[4,2,7,8]","[4,2,6,8]","","",""
"show-reward","90","254088","0.0-90.0","p512429","A1EDLMO8ACUTBP","3WRBLBQ2GSENM5LEFQY1C5PG0GV0GC","3TXD01ZLD6NQDV248YFLH7B99BIU43","emotion","match","uniform","","","","","","","","253164.60000002384","255179.39999997616","","","","","","","","","","","","8","","stimuli/stars_8.png","100.5","","","","","stimuli/AF10_SC.jpg","",""
"explore-choice","91","258388","0.0-91.0","p512429","A1EDLMO8ACUTBP","3WRBLBQ2GSENM5LEFQY1C5PG0GV0GC","3TXD01ZLD6NQDV248YFLH7B99BIU43","emotion","match","uniform","","","","","","","3793.899999976158","255180.60000002384","258974.5","[""stimuli/BF06_CC.jpg"",""stimuli/HM07_HE.jpg"",""stimuli/AF10_SC.jpg"",""stimuli/HF04_FO.jpg""]","stimuli/BF06_CC.jpg","stimuli/HM07_HE.jpg","stimuli/AF10_SC.jpg","stimuli/HF04_FO.jpg","pos1","stimuli/BF06_CC.jpg","CC","BF06","0","3","6","4","stimuli/stars_6.png","103.5","[""CC"",""HE"",""SC"",""FO""]","[""BF06"",""HM07"",""AF10"",""HF04""]","[6,4,6,0]","[4,6,8,2]","","",""
"show-reward","92","260401","0.0-92.0","p512429","A1EDLMO8ACUTBP","3WRBLBQ2GSENM5LEFQY1C5PG0GV0GC","3TXD01ZLD6NQDV248YFLH7B99BIU43","emotion","match","uniform","","","","","","","","259480.5","261492.20000004768","","","","","","","","","","","","6","","stimuli/stars_6.png","103.5","","","","","stimuli/BF06_CC.jpg","",""
"explore-choice","93","262459","0.0-93.0","p512429","A1EDLMO8ACUTBP","3WRBLBQ2GSENM5LEFQY1C5PG0GV0GC","3TXD01ZLD6NQDV248YFLH7B99BIU43","emotion","match","uniform","","","","","","","1549.1999999284744","261493.20000004768","263042.39999997616","[""stimuli/BF06_FO.jpg"",""stimuli/AF10_HE.jpg"",""stimuli/HM07_CC.jpg"",""stimuli/HF04_SC.jpg""]","stimuli/BF06_FO.jpg","stimuli/AF10_HE.jpg","stimuli/HM07_CC.jpg","stimuli/HF04_SC.jpg","pos2","stimuli/AF10_HE.jpg","HE","AF10","1","4","8","6","stimuli/stars_8.png","107.5","[""FO"",""HE"",""CC"",""SC""]","[""BF06"",""AF10"",""HM07"",""HF04""]","[1,8,5,7]","[2,6,4,8]","","",""
"show-reward","94","264462","0.0-94.0","p512429","A1EDLMO8ACUTBP","3WRBLBQ2GSENM5LEFQY1C5PG0GV0GC","3TXD01ZLD6NQDV248YFLH7B99BIU43","emotion","match","uniform","","","","","","","","263551.8000000715","265553.39999997616","","","","","","","","","","","","8","","stimuli/stars_8.png","107.5","","","","","stimuli/AF10_HE.jpg","",""
"explore-choice","95","266224","0.0-95.0","p512429","A1EDLMO8ACUTBP","3WRBLBQ2GSENM5LEFQY1C5PG0GV0GC","3TXD01ZLD6NQDV248YFLH7B99BIU43","emotion","match","uniform","","","","","","","1251.0999999046326","265554.3000000715","266805.39999997616","[""stimuli/HF04_CC.jpg"",""stimuli/BF06_FO.jpg"",""stimuli/HM07_HE.jpg"",""stimuli/AF10_SC.jpg""]","stimuli/HF04_CC.jpg","stimuli/BF06_FO.jpg","stimuli/HM07_HE.jpg","stimuli/AF10_SC.jpg","pos3","stimuli/HM07_HE.jpg","HE","HM07","2","4","8","6","stimuli/stars_8.png","111.5","[""CC"",""FO"",""HE"",""SC""]","[""HF04"",""BF06"",""HM07"",""AF10""]","[6,2,8,10]","[4,2,6,8]","","",""
"show-reward","96","268230","0.0-96.0","p512429","A1EDLMO8ACUTBP","3WRBLBQ2GSENM5LEFQY1C5PG0GV0GC","3TXD01ZLD6NQDV248YFLH7B99BIU43","emotion","match","uniform","","","","","","","","267316.60000002384","269321.39999997616","","","","","","","","","","","","8","","stimuli/stars_8.png","111.5","","","","","stimuli/HM07_HE.jpg","",""
"explore-choice","97","269551","0.0-97.0","p512429","A1EDLMO8ACUTBP","3WRBLBQ2GSENM5LEFQY1C5PG0GV0GC","3TXD01ZLD6NQDV248YFLH7B99BIU43","emotion","match","uniform","","","","","","","817.7000000476837","269322.60000002384","270140.3000000715","[""stimuli/BF06_FO.jpg"",""stimuli/AF10_CC.jpg"",""stimuli/HF04_HE.jpg"",""stimuli/HM07_SC.jpg""]","stimuli/BF06_FO.jpg","stimuli/AF10_CC.jpg","stimuli/HF04_HE.jpg","stimuli/HM07_SC.jpg","pos1","stimuli/BF06_FO.jpg","FO","BF06","0","0.5","1","2","stimuli/stars_1.png","112","[""FO"",""CC"",""HE"",""SC""]","[""BF06"",""AF10"",""HF04"",""HM07""]","[1,6,7,8]","[2,4,6,8]","","",""
"show-reward","98","271554","0.0-98.0","p512429","A1EDLMO8ACUTBP","3WRBLBQ2GSENM5LEFQY1C5PG0GV0GC","3TXD01ZLD6NQDV248YFLH7B99BIU43","emotion","match","uniform","","","","","","","","270643.3000000715","272645.7000000477","","","","","","","","","","","","1","","stimuli/stars_1.png","112","","","","","stimuli/BF06_FO.jpg","",""
"explore-choice","99","273180","0.0-99.0","p512429","A1EDLMO8ACUTBP","3WRBLBQ2GSENM5LEFQY1C5PG0GV0GC","3TXD01ZLD6NQDV248YFLH7B99BIU43","emotion","match","uniform","","","","","","","1108.5","272646.7000000477","273755.2000000477","[""stimuli/AF10_FO.jpg"",""stimuli/HM07_HE.jpg"",""stimuli/BF06_SC.jpg"",""stimuli/HF04_CC.jpg""]","stimuli/AF10_FO.jpg","stimuli/HM07_HE.jpg","stimuli/BF06_SC.jpg","stimuli/HF04_CC.jpg","pos2","stimuli/HM07_HE.jpg","HE","HM07","1","2.5","5","6","stimuli/stars_5.png","114.5","[""FO"",""HE"",""SC"",""CC""]","[""AF10"",""HM07"",""BF06"",""HF04""]","[0,5,7,2]","[2,6,8,4]","","",""
"show-reward","100","275185","0.0-100.0","p512429","A1EDLMO8ACUTBP","3WRBLBQ2GSENM5LEFQY1C5PG0GV0GC","3TXD01ZLD6NQDV248YFLH7B99BIU43","emotion","match","uniform","","","","","","","","274272","276276.8000000715","","","","","","","","","","","","5","","stimuli/stars_5.png","114.5","","","","","stimuli/HM07_HE.jpg","",""
"explore-choice","101","277362","0.0-101.0","p512429","A1EDLMO8ACUTBP","3WRBLBQ2GSENM5LEFQY1C5PG0GV0GC","3TXD01ZLD6NQDV248YFLH7B99BIU43","emotion","match","uniform","","","","","","","1675.6000000238419","276277.60000002384","277953.2000000477","[""stimuli/HF04_HE.jpg"",""stimuli/BF06_SC.jpg"",""stimuli/HM07_FO.jpg"",""stimuli/AF10_CC.jpg""]","stimuli/HF04_HE.jpg","stimuli/BF06_SC.jpg","stimuli/HM07_FO.jpg","stimuli/AF10_CC.jpg","pos2","stimuli/BF06_SC.jpg","SC","BF06","1","5","10","8","stimuli/stars_10.png","119.5","[""HE"",""SC"",""FO"",""CC""]","[""HF04"",""BF06"",""HM07"",""AF10""]","[4,10,2,3]","[6,8,2,4]","","",""
"show-reward","102","279365","0.0-102.0","p512429","A1EDLMO8ACUTBP","3WRBLBQ2GSENM5LEFQY1C5PG0GV0GC","3TXD01ZLD6NQDV248YFLH7B99BIU43","emotion","match","uniform","","","","","","","","278454.8000000715","280457","","","","","","","","","","","","10","","stimuli/stars_10.png","119.5","","","","","stimuli/BF06_SC.jpg","",""
"explore-choice","103","285278","0.0-103.0","p512429","A1EDLMO8ACUTBP","3WRBLBQ2GSENM5LEFQY1C5PG0GV0GC","3TXD01ZLD6NQDV248YFLH7B99BIU43","emotion","match","uniform","","","","","","","5401.199999928474","280457.8000000715","285859","[""stimuli/HM02_HO.jpg"",""stimuli/HF10_AO.jpg"",""stimuli/HF09_DO.jpg"",""stimuli/WM13_SUR.jpg""]","stimuli/HM02_HO.jpg","stimuli/HF10_AO.jpg","stimuli/HF09_DO.jpg","stimuli/WM13_SUR.jpg","pos2","stimuli/HF10_AO.jpg","AO","HF10","1","1.5","3","2","stimuli/stars_3.png","121","[""HO"",""AO"",""DO"",""SUR""]","[""HM02"",""HF10"",""HF09"",""WM13""]","[2,3,7,8]","[4,2,8,6]","","",""
"show-reward","104","287288","0.0-104.0","p512429","A1EDLMO8ACUTBP","3WRBLBQ2GSENM5LEFQY1C5PG0GV0GC","3TXD01ZLD6NQDV248YFLH7B99BIU43","emotion","match","uniform","","","","","","","","286370.60000002384","288379.89999997616","","","","","","","","","","","","3","","stimuli/stars_3.png","121","","","","","stimuli/HF10_AO.jpg","",""
"explore-choice","105","290612","0.0-105.0","p512429","A1EDLMO8ACUTBP","3WRBLBQ2GSENM5LEFQY1C5PG0GV0GC","3TXD01ZLD6NQDV248YFLH7B99BIU43","emotion","match","uniform","","","","","","","2821.899999976158","288381.2000000477","291203.10000002384","[""stimuli/HM02_HO.jpg"",""stimuli/HF09_DO.jpg"",""stimuli/HF10_SUR.jpg"",""stimuli/WM13_AO.jpg""]","stimuli/HM02_HO.jpg","stimuli/HF09_DO.jpg","stimuli/HF10_SUR.jpg","stimuli/WM13_AO.jpg","pos1","stimuli/HM02_HO.jpg","HO","HM02","0","2.5","5","4","stimuli/stars_5.png","123.5","[""HO"",""DO"",""SUR"",""AO""]","[""HM02"",""HF09"",""HF10"",""WM13""]","[5,10,6,3]","[4,8,6,2]","","",""
"show-reward","106","292623","0.0-106.0","p512429","A1EDLMO8ACUTBP","3WRBLBQ2GSENM5LEFQY1C5PG0GV0GC","3TXD01ZLD6NQDV248YFLH7B99BIU43","emotion","match","uniform","","","","","","","","291704.3000000715","293714.10000002384","","","","","","","","","","","","5","","stimuli/stars_5.png","123.5","","","","","stimuli/HM02_HO.jpg","",""
"explore-choice","107","296307","0.0-107.0","p512429","A1EDLMO8ACUTBP","3WRBLBQ2GSENM5LEFQY1C5PG0GV0GC","3TXD01ZLD6NQDV248YFLH7B99BIU43","emotion","match","uniform","","","","","","","3172.100000023842","293714.89999997616","296887","[""stimuli/HF09_SUR.jpg"",""stimuli/HF10_AO.jpg"",""stimuli/WM13_HO.jpg"",""stimuli/HM02_DO.jpg""]","stimuli/HF09_SUR.jpg","stimuli/HF10_AO.jpg","stimuli/WM13_HO.jpg","stimuli/HM02_DO.jpg","pos2","stimuli/HF10_AO.jpg","AO","HF10","1","1","2","2","stimuli/stars_2.png","124.5","[""SUR"",""AO"",""HO"",""DO""]","[""HF09"",""HF10"",""WM13"",""HM02""]","[5,2,5,7]","[6,2,4,8]","","",""
"show-reward","108","298313","0.0-108.0","p512429","A1EDLMO8ACUTBP","3WRBLBQ2GSENM5LEFQY1C5PG0GV0GC","3TXD01ZLD6NQDV248YFLH7B99BIU43","emotion","match","uniform","","","","","","","","297400.39999997616","299405.2000000477","","","","","","","","","","","","2","","stimuli/stars_2.png","124.5","","","","","stimuli/HF10_AO.jpg","",""
"explore-choice","109","302694","0.0-109.0","p512429","A1EDLMO8ACUTBP","3WRBLBQ2GSENM5LEFQY1C5PG0GV0GC","3TXD01ZLD6NQDV248YFLH7B99BIU43","emotion","match","uniform","","","","","","","3878.8000000715256","299406.39999997616","303285.2000000477","[""stimuli/WM13_SUR.jpg"",""stimuli/HF10_DO.jpg"",""stimuli/HF09_HO.jpg"",""stimuli/HM02_AO.jpg""]","stimuli/WM13_SUR.jpg","stimuli/HF10_DO.jpg","stimuli/HF09_HO.jpg","stimuli/HM02_AO.jpg","pos4","stimuli/HM02_AO.jpg","AO","HM02","3","1.5","3","2","stimuli/stars_3.png","126","[""SUR"",""DO"",""HO"",""AO""]","[""WM13"",""HF10"",""HF09"",""HM02""]","[5,6,2,3]","[6,8,4,2]","","",""
"show-reward","110","304697","0.0-110.0","p512429","A1EDLMO8ACUTBP","3WRBLBQ2GSENM5LEFQY1C5PG0GV0GC","3TXD01ZLD6NQDV248YFLH7B99BIU43","emotion","match","uniform","","","","","","","","303787.2000000477","305789.2000000477","","","","","","","","","","","","3","","stimuli/stars_3.png","126","","","","","stimuli/HM02_AO.jpg","",""
"explore-choice","111","307698","0.0-111.0","p512429","A1EDLMO8ACUTBP","3WRBLBQ2GSENM5LEFQY1C5PG0GV0GC","3TXD01ZLD6NQDV248YFLH7B99BIU43","emotion","match","uniform","","","","","","","2499.1999999284744","305790.2000000477","308289.39999997616","[""stimuli/HF09_HO.jpg"",""stimuli/WM13_DO.jpg"",""stimuli/HM02_AO.jpg"",""stimuli/HF10_SUR.jpg""]","stimuli/HF09_HO.jpg","stimuli/WM13_DO.jpg","stimuli/HM02_AO.jpg","stimuli/HF10_SUR.jpg","pos1","stimuli/HF09_HO.jpg","HO","HF09","0","3","6","4","stimuli/stars_6.png","129","[""HO"",""DO"",""AO"",""SUR""]","[""HF09"",""WM13"",""HM02"",""HF10""]","[6,9,1,6]","[4,8,2,6]","","",""
"show-reward","112","309709","0.0-112.0","p512429","A1EDLMO8ACUTBP","3WRBLBQ2GSENM5LEFQY1C5PG0GV0GC","3TXD01ZLD6NQDV248YFLH7B99BIU43","emotion","match","uniform","","","","","","","","308791","310801.39999997616","","","","","","","","","","","","6","","stimuli/stars_6.png","129","","","","","stimuli/HF09_HO.jpg","",""
"explore-choice","113","314356","0.0-113.0","p512429","A1EDLMO8ACUTBP","3WRBLBQ2GSENM5LEFQY1C5PG0GV0GC","3TXD01ZLD6NQDV248YFLH7B99BIU43","emotion","match","uniform","","","","","","","4144.599999904633","310802.8000000715","314947.39999997616","[""stimuli/HM02_AO.jpg"",""stimuli/WM13_HO.jpg"",""stimuli/HF09_SUR.jpg"",""stimuli/HF10_DO.jpg""]","stimuli/HM02_AO.jpg","stimuli/WM13_HO.jpg","stimuli/HF09_SUR.jpg","stimuli/HF10_DO.jpg","pos3","stimuli/HF09_SUR.jpg","SUR","HF09","2","2.5","5","6","stimuli/stars_5.png","131.5","[""AO"",""HO"",""SUR"",""DO""]","[""HM02"",""WM13"",""HF09"",""HF10""]","[4,4,5,9]","[2,4,6,8]","","",""
"show-reward","114","316368","0.0-114.0","p512429","A1EDLMO8ACUTBP","3WRBLBQ2GSENM5LEFQY1C5PG0GV0GC","3TXD01ZLD6NQDV248YFLH7B99BIU43","emotion","match","uniform","","","","","","","","315449.10000002384","317459.8000000715","","","","","","","","","","","","5","","stimuli/stars_5.png","131.5","","","","","stimuli/HF09_SUR.jpg","",""
"explore-choice","115","322053","0.0-115.0","p512429","A1EDLMO8ACUTBP","3WRBLBQ2GSENM5LEFQY1C5PG0GV0GC","3TXD01ZLD6NQDV248YFLH7B99BIU43","emotion","match","uniform","","","","","","","5170.700000047684","317460.89999997616","322631.60000002384","[""stimuli/HF10_HO.jpg"",""stimuli/HM02_DO.jpg"",""stimuli/WM13_AO.jpg"",""stimuli/HF09_SUR.jpg""]","stimuli/HF10_HO.jpg","stimuli/HM02_DO.jpg","stimuli/WM13_AO.jpg","stimuli/HF09_SUR.jpg","pos2","stimuli/HM02_DO.jpg","DO","HM02","1","3.5","7","8","stimuli/stars_7.png","135","[""HO"",""DO"",""AO"",""SUR""]","[""HF10"",""HM02"",""WM13"",""HF09""]","[3,7,4,4]","[4,8,2,6]","","",""
"show-reward","116","324060","0.0-116.0","p512429","A1EDLMO8ACUTBP","3WRBLBQ2GSENM5LEFQY1C5PG0GV0GC","3TXD01ZLD6NQDV248YFLH7B99BIU43","emotion","match","uniform","","","","","","","","323145.89999997616","325152.10000002384","","","","","","","","","","","","7","","stimuli/stars_7.png","135","","","","","stimuli/HM02_DO.jpg","",""
"explore-choice","117","328483","0.0-117.0","p512429","A1EDLMO8ACUTBP","3WRBLBQ2GSENM5LEFQY1C5PG0GV0GC","3TXD01ZLD6NQDV248YFLH7B99BIU43","emotion","match","uniform","","","","","","","3920.399999976158","325153","329073.39999997616","[""stimuli/HM02_AO.jpg"",""stimuli/HF10_SUR.jpg"",""stimuli/HF09_DO.jpg"",""stimuli/WM13_HO.jpg""]","stimuli/HM02_AO.jpg","stimuli/HF10_SUR.jpg","stimuli/HF09_DO.jpg","stimuli/WM13_HO.jpg","pos1","stimuli/HM02_AO.jpg","AO","HM02","0","2","4","2","stimuli/stars_4.png","137","[""AO"",""SUR"",""DO"",""HO""]","[""HM02"",""HF10"",""HF09"",""WM13""]","[4,7,10,3]","[2,6,8,4]","","",""
"show-reward","118","330499","0.0-118.0","p512429","A1EDLMO8ACUTBP","3WRBLBQ2GSENM5LEFQY1C5PG0GV0GC","3TXD01ZLD6NQDV248YFLH7B99BIU43","emotion","match","uniform","","","","","","","","329576.5","331591.39999997616","","","","","","","","","","","","4","","stimuli/stars_4.png","137","","","","","stimuli/HM02_AO.jpg","",""
"explore-choice","119","334343","0.0-119.0","p512429","A1EDLMO8ACUTBP","3WRBLBQ2GSENM5LEFQY1C5PG0GV0GC","3TXD01ZLD6NQDV248YFLH7B99BIU43","emotion","match","uniform","","","","","","","3330.2999999523163","331593.60000002384","334923.89999997616","[""stimuli/WM13_AO.jpg"",""stimuli/HF09_SUR.jpg"",""stimuli/HM02_HO.jpg"",""stimuli/HF10_DO.jpg""]","stimuli/WM13_AO.jpg","stimuli/HF09_SUR.jpg","stimuli/HM02_HO.jpg","stimuli/HF10_DO.jpg","pos4","stimuli/HF10_DO.jpg","DO","HF10","3","3.5","7","8","stimuli/stars_7.png","140.5","[""AO"",""SUR"",""HO"",""DO""]","[""WM13"",""HF09"",""HM02"",""HF10""]","[3,7,2,7]","[2,6,4,8]","","",""
"show-reward","120","336345","0.0-120.0","p512429","A1EDLMO8ACUTBP","3WRBLBQ2GSENM5LEFQY1C5PG0GV0GC","3TXD01ZLD6NQDV248YFLH7B99BIU43","emotion","match","uniform","","","","","","","","335435.60000002384","337437.5","","","","","","","","","","","","7","","stimuli/stars_7.png","140.5","","","","","stimuli/HF10_DO.jpg","",""
"explore-choice","121","338697","0.0-121.0","p512429","A1EDLMO8ACUTBP","3WRBLBQ2GSENM5LEFQY1C5PG0GV0GC","3TXD01ZLD6NQDV248YFLH7B99BIU43","emotion","match","uniform","","","","","","","1849","337438.60000002384","339287.60000002384","[""stimuli/HF09_HO.jpg"",""stimuli/HM02_DO.jpg"",""stimuli/HF10_AO.jpg"",""stimuli/WM13_SUR.jpg""]","stimuli/HF09_HO.jpg","stimuli/HM02_DO.jpg","stimuli/HF10_AO.jpg","stimuli/WM13_SUR.jpg","pos2","stimuli/HM02_DO.jpg","DO","HM02","1","4","8","8","stimuli/stars_8.png","144.5","[""HO"",""DO"",""AO"",""SUR""]","[""HF09"",""HM02"",""HF10"",""WM13""]","[2,8,4,7]","[4,8,2,6]","","",""
"show-reward","122","340711","0.0-122.0","p512429","A1EDLMO8ACUTBP","3WRBLBQ2GSENM5LEFQY1C5PG0GV0GC","3TXD01ZLD6NQDV248YFLH7B99BIU43","emotion","match","uniform","","","","","","","","339790.39999997616","341802.8000000715","","","","","","","","","","","","8","","stimuli/stars_8.png","144.5","","","","","stimuli/HM02_DO.jpg","",""
"explore-choice","123","343456","0.0-123.0","p512429","A1EDLMO8ACUTBP","3WRBLBQ2GSENM5LEFQY1C5PG0GV0GC","3TXD01ZLD6NQDV248YFLH7B99BIU43","emotion","match","uniform","","","","","","","2244.399999976158","341803.7000000477","344048.10000002384","[""stimuli/HF10_SUR.jpg"",""stimuli/HM02_DO.jpg"",""stimuli/HF09_HO.jpg"",""stimuli/WM13_AO.jpg""]","stimuli/HF10_SUR.jpg","stimuli/HM02_DO.jpg","stimuli/HF09_HO.jpg","stimuli/WM13_AO.jpg","pos3","stimuli/HF09_HO.jpg","HO","HF09","2","1","2","4","stimuli/stars_2.png","145.5","[""SUR"",""DO"",""HO"",""AO""]","[""HF10"",""HM02"",""HF09"",""WM13""]","[7,10,2,2]","[6,8,4,2]","","",""
"show-reward","124","345472","0.0-124.0","p512429","A1EDLMO8ACUTBP","3WRBLBQ2GSENM5LEFQY1C5PG0GV0GC","3TXD01ZLD6NQDV248YFLH7B99BIU43","emotion","match","uniform","","","","","","","","344549.2000000477","346563.5","","","","","","","","","","","","2","","stimuli/stars_2.png","145.5","","","","","stimuli/HF09_HO.jpg","",""
"explore-choice","125","349732","0.0-125.0","p512429","A1EDLMO8ACUTBP","3WRBLBQ2GSENM5LEFQY1C5PG0GV0GC","3TXD01ZLD6NQDV248YFLH7B99BIU43","emotion","match","uniform","","","","","","","3757.8000000715256","346564.5","350322.3000000715","[""stimuli/HF10_DO.jpg"",""stimuli/HF09_HO.jpg"",""stimuli/WM13_AO.jpg"",""stimuli/HM02_SUR.jpg""]","stimuli/HF10_DO.jpg","stimuli/HF09_HO.jpg","stimuli/WM13_AO.jpg","stimuli/HM02_SUR.jpg","pos2","stimuli/HF09_HO.jpg","HO","HF09","1","2.5","5","4","stimuli/stars_5.png","148","[""DO"",""HO"",""AO"",""SUR""]","[""HF10"",""HF09"",""WM13"",""HM02""]","[10,5,4,7]","[8,4,2,6]","","",""
"show-reward","126","351735","0.0-126.0","p512429","A1EDLMO8ACUTBP","3WRBLBQ2GSENM5LEFQY1C5PG0GV0GC","3TXD01ZLD6NQDV248YFLH7B99BIU43","emotion","match","uniform","","","","","","","","350824.89999997616","352827.3000000715","","","","","","","","","","","","5","","stimuli/stars_5.png","148","","","","","stimuli/HF09_HO.jpg","",""
"explore-choice","127","354095","0.0-127.0","p512429","A1EDLMO8ACUTBP","3WRBLBQ2GSENM5LEFQY1C5PG0GV0GC","3TXD01ZLD6NQDV248YFLH7B99BIU43","emotion","match","uniform","","","","","","","1849.8000000715256","352828.39999997616","354678.2000000477","[""stimuli/HF09_SUR.jpg"",""stimuli/HF10_AO.jpg"",""stimuli/WM13_DO.jpg"",""stimuli/HM02_HO.jpg""]","stimuli/HF09_SUR.jpg","stimuli/HF10_AO.jpg","stimuli/WM13_DO.jpg","stimuli/HM02_HO.jpg","pos2","stimuli/HF10_AO.jpg","AO","HF10","1","2","4","2","stimuli/stars_4.png","150","[""SUR"",""AO"",""DO"",""HO""]","[""HF09"",""HF10"",""WM13"",""HM02""]","[6,4,7,5]","[6,2,8,4]","","",""
"show-reward","128","356108","0.0-128.0","p512429","A1EDLMO8ACUTBP","3WRBLBQ2GSENM5LEFQY1C5PG0GV0GC","3TXD01ZLD6NQDV248YFLH7B99BIU43","emotion","match","uniform","","","","","","","","355188","357200","","","","","","","","","","","","4","","stimuli/stars_4.png","150","","","","","stimuli/HF10_AO.jpg","",""
"explore-choice","129","358088","0.0-129.0","p512429","A1EDLMO8ACUTBP","3WRBLBQ2GSENM5LEFQY1C5PG0GV0GC","3TXD01ZLD6NQDV248YFLH7B99BIU43","emotion","match","uniform","","","","","","","1462.3000000715256","357202","358664.3000000715","[""stimuli/HF09_AO.jpg"",""stimuli/HM02_DO.jpg"",""stimuli/HF10_SUR.jpg"",""stimuli/WM13_HO.jpg""]","stimuli/HF09_AO.jpg","stimuli/HM02_DO.jpg","stimuli/HF10_SUR.jpg","stimuli/WM13_HO.jpg","pos3","stimuli/HF10_SUR.jpg","SUR","HF10","2","4","8","6","stimuli/stars_8.png","154","[""AO"",""DO"",""SUR"",""HO""]","[""HF09"",""HM02"",""HF10"",""WM13""]","[1,9,8,6]","[2,8,6,4]","","",""
"show-reward","130","360094","0.0-130.0","p512429","A1EDLMO8ACUTBP","3WRBLBQ2GSENM5LEFQY1C5PG0GV0GC","3TXD01ZLD6NQDV248YFLH7B99BIU43","emotion","match","uniform","","","","","","","","359181.2000000477","361184.5","","","","","","","","","","","","8","","stimuli/stars_8.png","154","","","","","stimuli/HF10_SUR.jpg","",""
"explore-choice","131","363230","0.0-131.0","p512429","A1EDLMO8ACUTBP","3WRBLBQ2GSENM5LEFQY1C5PG0GV0GC","3TXD01ZLD6NQDV248YFLH7B99BIU43","emotion","match","uniform","","","","","","","2635.2000000476837","361187.10000002384","363822.3000000715","[""stimuli/HM02_SUR.jpg"",""stimuli/WM13_AO.jpg"",""stimuli/HF10_HO.jpg"",""stimuli/HF09_DO.jpg""]","stimuli/HM02_SUR.jpg","stimuli/WM13_AO.jpg","stimuli/HF10_HO.jpg","stimuli/HF09_DO.jpg","pos4","stimuli/HF09_DO.jpg","DO","HF09","3","4.5","9","8","stimuli/stars_9.png","158.5","[""SUR"",""AO"",""HO"",""DO""]","[""HM02"",""WM13"",""HF10"",""HF09""]","[5,0,5,9]","[6,2,4,8]","","",""
"show-reward","132","365248","0.0-132.0","p512429","A1EDLMO8ACUTBP","3WRBLBQ2GSENM5LEFQY1C5PG0GV0GC","3TXD01ZLD6NQDV248YFLH7B99BIU43","emotion","match","uniform","","","","","","","","364323.89999997616","366340","","","","","","","","","","","","9","","stimuli/stars_9.png","158.5","","","","","stimuli/HF09_DO.jpg","",""
"explore-choice","133","367706","0.0-133.0","p512429","A1EDLMO8ACUTBP","3WRBLBQ2GSENM5LEFQY1C5PG0GV0GC","3TXD01ZLD6NQDV248YFLH7B99BIU43","emotion","match","uniform","","","","","","","1943.5","366341","368284.5","[""stimuli/HM02_HO.jpg"",""stimuli/WM13_DO.jpg"",""stimuli/HF10_SUR.jpg"",""stimuli/HF09_AO.jpg""]","stimuli/HM02_HO.jpg","stimuli/WM13_DO.jpg","stimuli/HF10_SUR.jpg","stimuli/HF09_AO.jpg","pos1","stimuli/HM02_HO.jpg","HO","HM02","0","3","6","4","stimuli/stars_6.png","161.5","[""HO"",""DO"",""SUR"",""AO""]","[""HM02"",""WM13"",""HF10"",""HF09""]","[6,8,7,0]","[4,8,6,2]","","",""
"show-reward","134","369716","0.0-134.0","p512429","A1EDLMO8ACUTBP","3WRBLBQ2GSENM5LEFQY1C5PG0GV0GC","3TXD01ZLD6NQDV248YFLH7B99BIU43","emotion","match","uniform","","","","","","","","368799.10000002384","370808.2000000477","","","","","","","","","","","","6","","stimuli/stars_6.png","161.5","","","","","stimuli/HM02_HO.jpg","",""
"explore-choice","135","374992","0.0-135.0","p512429","A1EDLMO8ACUTBP","3WRBLBQ2GSENM5LEFQY1C5PG0GV0GC","3TXD01ZLD6NQDV248YFLH7B99BIU43","emotion","match","uniform","","","","","","","4761","370809.60000002384","375570.60000002384","[""stimuli/HM02_DO.jpg"",""stimuli/HF09_AO.jpg"",""stimuli/WM13_SUR.jpg"",""stimuli/HF10_HO.jpg""]","stimuli/HM02_DO.jpg","stimuli/HF09_AO.jpg","stimuli/WM13_SUR.jpg","stimuli/HF10_HO.jpg","pos2","stimuli/HF09_AO.jpg","AO","HF09","1","0.5","1","2","stimuli/stars_1.png","162","[""DO"",""AO"",""SUR"",""HO""]","[""HM02"",""HF09"",""WM13"",""HF10""]","[7,1,6,5]","[8,2,6,4]","","",""
"show-reward","136","376996","0.0-136.0","p512429","A1EDLMO8ACUTBP","3WRBLBQ2GSENM5LEFQY1C5PG0GV0GC","3TXD01ZLD6NQDV248YFLH7B99BIU43","emotion","match","uniform","","","","","","","","376085.8000000715","378088.60000002384","","","","","","","","","","","","1","","stimuli/stars_1.png","162","","","","","stimuli/HF09_AO.jpg","",""
"explore-choice","137","379983","0.0-137.0","p512429","A1EDLMO8ACUTBP","3WRBLBQ2GSENM5LEFQY1C5PG0GV0GC","3TXD01ZLD6NQDV248YFLH7B99BIU43","emotion","match","uniform","","","","","","","2484.600000023842","378089.39999997616","380574","[""stimuli/WM13_DO.jpg"",""stimuli/HF10_HO.jpg"",""stimuli/HM02_AO.jpg"",""stimuli/HF09_SUR.jpg""]","stimuli/WM13_DO.jpg","stimuli/HF10_HO.jpg","stimuli/HM02_AO.jpg","stimuli/HF09_SUR.jpg","pos1","stimuli/WM13_DO.jpg","DO","WM13","0","3","6","8","stimuli/stars_6.png","165","[""DO"",""HO"",""AO"",""SUR""]","[""WM13"",""HF10"",""HM02"",""HF09""]","[6,6,2,8]","[8,4,2,6]","","",""
"show-reward","138","381986","0.0-138.0","p512429","A1EDLMO8ACUTBP","3WRBLBQ2GSENM5LEFQY1C5PG0GV0GC","3TXD01ZLD6NQDV248YFLH7B99BIU43","emotion","match","uniform","","","","","","","","381076.10000002384","383078.5","","","","","","","","","","","","6","","stimuli/stars_6.png","165","","","","","stimuli/WM13_DO.jpg","",""
"explore-choice","139","384520","0.0-139.0","p512429","A1EDLMO8ACUTBP","3WRBLBQ2GSENM5LEFQY1C5PG0GV0GC","3TXD01ZLD6NQDV248YFLH7B99BIU43","emotion","match","uniform","","","","","","","2031.3999999761581","383079.3000000715","385110.7000000477","[""stimuli/HF10_DO.jpg"",""stimuli/WM13_HO.jpg"",""stimuli/HF09_AO.jpg"",""stimuli/HM02_SUR.jpg""]","stimuli/HF10_DO.jpg","stimuli/WM13_HO.jpg","stimuli/HF09_AO.jpg","stimuli/HM02_SUR.jpg","pos2","stimuli/WM13_HO.jpg","HO","WM13","1","2.5","5","4","stimuli/stars_5.png","167.5","[""DO"",""HO"",""AO"",""SUR""]","[""HF10"",""WM13"",""HF09"",""HM02""]","[9,5,2,7]","[8,4,2,6]","","",""
"show-reward","140","386523","0.0-140.0","p512429","A1EDLMO8ACUTBP","3WRBLBQ2GSENM5LEFQY1C5PG0GV0GC","3TXD01ZLD6NQDV248YFLH7B99BIU43","emotion","match","uniform","","","","","","","","385613.2000000477","387615.89999997616","","","","","","","","","","","","5","","stimuli/stars_5.png","167.5","","","","","stimuli/WM13_HO.jpg","",""
"explore-choice","141","388762","0.0-141.0","p512429","A1EDLMO8ACUTBP","3WRBLBQ2GSENM5LEFQY1C5PG0GV0GC","3TXD01ZLD6NQDV248YFLH7B99BIU43","emotion","match","uniform","","","","","","","1721.6000000238419","387617.2000000477","389338.8000000715","[""stimuli/WM13_SUR.jpg"",""stimuli/HF09_AO.jpg"",""stimuli/HM02_HO.jpg"",""stimuli/HF10_DO.jpg""]","stimuli/WM13_SUR.jpg","stimuli/HF09_AO.jpg","stimuli/HM02_HO.jpg","stimuli/HF10_DO.jpg","pos4","stimuli/HF10_DO.jpg","DO","HF10","3","4.5","9","8","stimuli/stars_9.png","172","[""SUR"",""AO"",""HO"",""DO""]","[""WM13"",""HF09"",""HM02"",""HF10""]","[5,1,5,9]","[6,2,4,8]","","",""
"show-reward","142","390771","0.0-142.0","p512429","A1EDLMO8ACUTBP","3WRBLBQ2GSENM5LEFQY1C5PG0GV0GC","3TXD01ZLD6NQDV248YFLH7B99BIU43","emotion","match","uniform","","","","","","","","389855.10000002384","391863.7000000477","","","","","","","","","","","","9","","stimuli/stars_9.png","172","","","","","stimuli/HF10_DO.jpg","",""
"explore-choice","143","393741","0.0-143.0","p512429","A1EDLMO8ACUTBP","3WRBLBQ2GSENM5LEFQY1C5PG0GV0GC","3TXD01ZLD6NQDV248YFLH7B99BIU43","emotion","match","uniform","","","","","","","2468.600000023842","391864.5","394333.10000002384","[""stimuli/HF09_DO.jpg"",""stimuli/WM13_HO.jpg"",""stimuli/HF10_AO.jpg"",""stimuli/HM02_SUR.jpg""]","stimuli/HF09_DO.jpg","stimuli/WM13_HO.jpg","stimuli/HF10_AO.jpg","stimuli/HM02_SUR.jpg","pos3","stimuli/HF10_AO.jpg","AO","HF10","2","0.5","1","2","stimuli/stars_1.png","172.5","[""DO"",""HO"",""AO"",""SUR""]","[""HF09"",""WM13"",""HF10"",""HM02""]","[6,3,1,4]","[8,4,2,6]","","",""
"show-reward","144","395744","0.0-144.0","p512429","A1EDLMO8ACUTBP","3WRBLBQ2GSENM5LEFQY1C5PG0GV0GC","3TXD01ZLD6NQDV248YFLH7B99BIU43","emotion","match","uniform","","","","","","","","394834.89999997616","396836.5","","","","","","","","","","","","1","","stimuli/stars_1.png","172.5","","","","","stimuli/HF10_AO.jpg","",""
"explore-choice","145","397940","0.0-145.0","p512429","A1EDLMO8ACUTBP","3WRBLBQ2GSENM5LEFQY1C5PG0GV0GC","3TXD01ZLD6NQDV248YFLH7B99BIU43","emotion","match","uniform","","","","","","","1685.0999999046326","396837.3000000715","398522.39999997616","[""stimuli/HF09_HO.jpg"",""stimuli/HM02_SUR.jpg"",""stimuli/HF10_AO.jpg"",""stimuli/WM13_DO.jpg""]","stimuli/HF09_HO.jpg","stimuli/HM02_SUR.jpg","stimuli/HF10_AO.jpg","stimuli/WM13_DO.jpg","pos2","stimuli/HM02_SUR.jpg","SUR","HM02","1","2","4","6","stimuli/stars_4.png","174.5","[""HO"",""SUR"",""AO"",""DO""]","[""HF09"",""HM02"",""HF10"",""WM13""]","[5,4,3,10]","[4,6,2,8]","","",""
"show-reward","146","399956","0.0-146.0","p512429","A1EDLMO8ACUTBP","3WRBLBQ2GSENM5LEFQY1C5PG0GV0GC","3TXD01ZLD6NQDV248YFLH7B99BIU43","emotion","match","uniform","","","","","","","","399033.60000002384","401048.39999997616","","","","","","","","","","","","4","","stimuli/stars_4.png","174.5","","","","","stimuli/HM02_SUR.jpg","",""
"explore-choice","147","401997","0.0-147.0","p512429","A1EDLMO8ACUTBP","3WRBLBQ2GSENM5LEFQY1C5PG0GV0GC","3TXD01ZLD6NQDV248YFLH7B99BIU43","emotion","match","uniform","","","","","","","1537.8000000715256","401049.39999997616","402587.2000000477","[""stimuli/HF10_HO.jpg"",""stimuli/HF09_DO.jpg"",""stimuli/HM02_AO.jpg"",""stimuli/WM13_SUR.jpg""]","stimuli/HF10_HO.jpg","stimuli/HF09_DO.jpg","stimuli/HM02_AO.jpg","stimuli/WM13_SUR.jpg","pos4","stimuli/WM13_SUR.jpg","SUR","WM13","3","4","8","6","stimuli/stars_8.png","178.5","[""HO"",""DO"",""AO"",""SUR""]","[""HF10"",""HF09"",""HM02"",""WM13""]","[3,10,3,8]","[4,8,2,6]","","",""
"show-reward","148","404015","0.0-148.0","p512429","A1EDLMO8ACUTBP","3WRBLBQ2GSENM5LEFQY1C5PG0GV0GC","3TXD01ZLD6NQDV248YFLH7B99BIU43","emotion","match","uniform","","","","","","","","403089.89999997616","405107","","","","","","","","","","","","8","","stimuli/stars_8.png","178.5","","","","","stimuli/WM13_SUR.jpg","",""
"explore-choice","149","406730","0.0-149.0","p512429","A1EDLMO8ACUTBP","3WRBLBQ2GSENM5LEFQY1C5PG0GV0GC","3TXD01ZLD6NQDV248YFLH7B99BIU43","emotion","match","uniform","","","","","","","2212.899999976158","405108.2000000477","407321.10000002384","[""stimuli/WM13_DO.jpg"",""stimuli/HF09_AO.jpg"",""stimuli/HM02_SUR.jpg"",""stimuli/HF10_HO.jpg""]","stimuli/WM13_DO.jpg","stimuli/HF09_AO.jpg","stimuli/HM02_SUR.jpg","stimuli/HF10_HO.jpg","pos2","stimuli/HF09_AO.jpg","AO","HF09","1","1.5","3","2","stimuli/stars_3.png","180","[""DO"",""AO"",""SUR"",""HO""]","[""WM13"",""HF09"",""HM02"",""HF10""]","[6,3,6,6]","[8,2,6,4]","","",""
"show-reward","150","408733","0.0-150.0","p512429","A1EDLMO8ACUTBP","3WRBLBQ2GSENM5LEFQY1C5PG0GV0GC","3TXD01ZLD6NQDV248YFLH7B99BIU43","emotion","match","uniform","","","","","","","","407823.7000000477","409825.39999997616","","","","","","","","","","","","3","","stimuli/stars_3.png","180","","","","","stimuli/HF09_AO.jpg","",""
"explore-choice","151","410527","0.0-151.0","p512429","A1EDLMO8ACUTBP","3WRBLBQ2GSENM5LEFQY1C5PG0GV0GC","3TXD01ZLD6NQDV248YFLH7B99BIU43","emotion","match","uniform","","","","","","","1287.5","409826.3000000715","411113.8000000715","[""stimuli/HF09_AO.jpg"",""stimuli/HF10_HO.jpg"",""stimuli/WM13_DO.jpg"",""stimuli/HM02_SUR.jpg""]","stimuli/HF09_AO.jpg","stimuli/HF10_HO.jpg","stimuli/WM13_DO.jpg","stimuli/HM02_SUR.jpg","pos4","stimuli/HM02_SUR.jpg","SUR","HM02","3","3","6","6","stimuli/stars_6.png","183","[""AO"",""HO"",""DO"",""SUR""]","[""HF09"",""HF10"",""WM13"",""HM02""]","[3,6,6,6]","[2,4,8,6]","","",""
"show-reward","152","412533","0.0-152.0","p512429","A1EDLMO8ACUTBP","3WRBLBQ2GSENM5LEFQY1C5PG0GV0GC","3TXD01ZLD6NQDV248YFLH7B99BIU43","emotion","match","uniform","","","","","","","","411620.3000000715","413625.60000002384","","","","","","","","","","","","6","","stimuli/stars_6.png","183","","","","","stimuli/HM02_SUR.jpg","",""
"explore-choice","153","414471","0.0-153.0","p512429","A1EDLMO8ACUTBP","3WRBLBQ2GSENM5LEFQY1C5PG0GV0GC","3TXD01ZLD6NQDV248YFLH7B99BIU43","emotion","match","uniform","","","","","","","1431.1000000238419","413626.60000002384","415057.7000000477","[""stimuli/HF10_HO.jpg"",""stimuli/HM02_DO.jpg"",""stimuli/HF09_AO.jpg"",""stimuli/WM13_SUR.jpg""]","stimuli/HF10_HO.jpg","stimuli/HM02_DO.jpg","stimuli/HF09_AO.jpg","stimuli/WM13_SUR.jpg","pos1","stimuli/HF10_HO.jpg","HO","HF10","0","2.5","5","4","stimuli/stars_5.png","185.5","[""HO"",""DO"",""AO"",""SUR""]","[""HF10"",""HM02"",""HF09"",""WM13""]","[5,7,1,6]","[4,8,2,6]","","",""
"show-reward","154","416474","0.0-154.0","p512429","A1EDLMO8ACUTBP","3WRBLBQ2GSENM5LEFQY1C5PG0GV0GC","3TXD01ZLD6NQDV248YFLH7B99BIU43","emotion","match","uniform","","","","","","","","415564.3000000715","417566.60000002384","","","","","","","","","","","","5","","stimuli/stars_5.png","185.5","","","","","stimuli/HF10_HO.jpg","",""
"explore-choice","155","421906","0.0-155.0","p512429","A1EDLMO8ACUTBP","3WRBLBQ2GSENM5LEFQY1C5PG0GV0GC","3TXD01ZLD6NQDV248YFLH7B99BIU43","emotion","match","uniform","","","","","","","4924.800000071526","417567.5","422492.3000000715","[""stimuli/HF10_AO.jpg"",""stimuli/HM02_HO.jpg"",""stimuli/WM13_DO.jpg"",""stimuli/HF09_SUR.jpg""]","stimuli/HF10_AO.jpg","stimuli/HM02_HO.jpg","stimuli/WM13_DO.jpg","stimuli/HF09_SUR.jpg","pos2","stimuli/HM02_HO.jpg","HO","HM02","1","2.5","5","4","stimuli/stars_5.png","188","[""AO"",""HO"",""DO"",""SUR""]","[""HF10"",""HM02"",""WM13"",""HF09""]","[4,5,7,6]","[2,4,8,6]","","",""
"show-reward","156","423908","0.0-156.0","p512429","A1EDLMO8ACUTBP","3WRBLBQ2GSENM5LEFQY1C5PG0GV0GC","3TXD01ZLD6NQDV248YFLH7B99BIU43","emotion","match","uniform","","","","","","","","422999.60000002384","425000.7000000477","","","","","","","","","","","","5","","stimuli/stars_5.png","188","","","","","stimuli/HM02_HO.jpg","",""
"explore-choice","157","426156","0.0-157.0","p512429","A1EDLMO8ACUTBP","3WRBLBQ2GSENM5LEFQY1C5PG0GV0GC","3TXD01ZLD6NQDV248YFLH7B99BIU43","emotion","match","uniform","","","","","","","1746.6000000238419","425001.39999997616","426748","[""stimuli/HM02_AO.jpg"",""stimuli/HF09_SUR.jpg"",""stimuli/WM13_HO.jpg"",""stimuli/HF10_DO.jpg""]","stimuli/HM02_AO.jpg","stimuli/HF09_SUR.jpg","stimuli/WM13_HO.jpg","stimuli/HF10_DO.jpg","pos4","stimuli/HF10_DO.jpg","DO","HF10","3","4.5","9","8","stimuli/stars_9.png","192.5","[""AO"",""SUR"",""HO"",""DO""]","[""HM02"",""HF09"",""WM13"",""HF10""]","[4,5,4,9]","[2,6,4,8]","","",""
"show-reward","158","428159","0.0-158.0","p512429","A1EDLMO8ACUTBP","3WRBLBQ2GSENM5LEFQY1C5PG0GV0GC","3TXD01ZLD6NQDV248YFLH7B99BIU43","emotion","match","uniform","","","","","","","","427249.8000000715","429251.8000000715","","","","","","","","","","","","9","","stimuli/stars_9.png","192.5","","","","","stimuli/HF10_DO.jpg","",""
"explore-choice","159","430012","0.0-159.0","p512429","A1EDLMO8ACUTBP","3WRBLBQ2GSENM5LEFQY1C5PG0GV0GC","3TXD01ZLD6NQDV248YFLH7B99BIU43","emotion","match","uniform","","","","","","","1343.1000000238419","429252.7000000477","430595.8000000715","[""stimuli/HF09_HO.jpg"",""stimuli/HM02_SUR.jpg"",""stimuli/HF10_DO.jpg"",""stimuli/WM13_AO.jpg""]","stimuli/HF09_HO.jpg","stimuli/HM02_SUR.jpg","stimuli/HF10_DO.jpg","stimuli/WM13_AO.jpg","pos3","stimuli/HF10_DO.jpg","DO","HF10","2","5","10","8","stimuli/stars_10.png","197.5","[""HO"",""SUR"",""DO"",""AO""]","[""HF09"",""HM02"",""HF10"",""WM13""]","[5,7,10,4]","[4,6,8,2]","","",""
"show-reward","160","432015","0.0-160.0","p512429","A1EDLMO8ACUTBP","3WRBLBQ2GSENM5LEFQY1C5PG0GV0GC","3TXD01ZLD6NQDV248YFLH7B99BIU43","emotion","match","uniform","","","","","","","","431105.60000002384","433107.8000000715","","","","","","","","","","","","10","","stimuli/stars_10.png","197.5","","","","","stimuli/HF10_DO.jpg","",""
"explore-choice","161","433879","0.0-161.0","p512429","A1EDLMO8ACUTBP","3WRBLBQ2GSENM5LEFQY1C5PG0GV0GC","3TXD01ZLD6NQDV248YFLH7B99BIU43","emotion","match","uniform","","","","","","","1361.3999999761581","433108.7000000477","434470.10000002384","[""stimuli/HF09_DO.jpg"",""stimuli/HF10_HO.jpg"",""stimuli/WM13_AO.jpg"",""stimuli/HM02_SUR.jpg""]","stimuli/HF09_DO.jpg","stimuli/HF10_HO.jpg","stimuli/WM13_AO.jpg","stimuli/HM02_SUR.jpg","pos1","stimuli/HF09_DO.jpg","DO","HF09","0","4.5","9","8","stimuli/stars_9.png","202","[""DO"",""HO"",""AO"",""SUR""]","[""HF09"",""HF10"",""WM13"",""HM02""]","[9,5,0,5]","[8,4,2,6]","","",""
"show-reward","162","435885","0.0-162.0","p512429","A1EDLMO8ACUTBP","3WRBLBQ2GSENM5LEFQY1C5PG0GV0GC","3TXD01ZLD6NQDV248YFLH7B99BIU43","emotion","match","uniform","","","","","","","","434972.8000000715","436977.89999997616","","","","","","","","","","","","9","","stimuli/stars_9.png","202","","","","","stimuli/HF09_DO.jpg","",""
"explore-choice","163","437651","0.0-163.0","p512429","A1EDLMO8ACUTBP","3WRBLBQ2GSENM5LEFQY1C5PG0GV0GC","3TXD01ZLD6NQDV248YFLH7B99BIU43","emotion","match","uniform","","","","","","","1263.4000000953674","436978.89999997616","438242.3000000715","[""stimuli/HM02_AO.jpg"",""stimuli/HF10_SUR.jpg"",""stimuli/WM13_DO.jpg"",""stimuli/HF09_HO.jpg""]","stimuli/HM02_AO.jpg","stimuli/HF10_SUR.jpg","stimuli/WM13_DO.jpg","stimuli/HF09_HO.jpg","pos2","stimuli/HF10_SUR.jpg","SUR","HF10","1","3","6","6","stimuli/stars_6.png","205","[""AO"",""SUR"",""DO"",""HO""]","[""HM02"",""HF10"",""WM13"",""HF09""]","[1,6,9,6]","[2,6,8,4]","","",""
"show-reward","164","439664","0.0-164.0","p512429","A1EDLMO8ACUTBP","3WRBLBQ2GSENM5LEFQY1C5PG0GV0GC","3TXD01ZLD6NQDV248YFLH7B99BIU43","emotion","match","uniform","","","","","","","","438745","440756.89999997616","","","","","","","","","","","","6","","stimuli/stars_6.png","205","","","","","stimuli/HF10_SUR.jpg","",""
"explore-choice","165","442265","0.0-165.0","p512429","A1EDLMO8ACUTBP","3WRBLBQ2GSENM5LEFQY1C5PG0GV0GC","3TXD01ZLD6NQDV248YFLH7B99BIU43","emotion","match","uniform","","","","","","","2089.8000000715256","440757.89999997616","442847.7000000477","[""stimuli/WM13_SUR.jpg"",""stimuli/HF09_AO.jpg"",""stimuli/HM02_HO.jpg"",""stimuli/HF10_DO.jpg""]","stimuli/WM13_SUR.jpg","stimuli/HF09_AO.jpg","stimuli/HM02_HO.jpg","stimuli/HF10_DO.jpg","pos3","stimuli/HM02_HO.jpg","HO","HM02","2","2.5","5","4","stimuli/stars_5.png","207.5","[""SUR"",""AO"",""HO"",""DO""]","[""WM13"",""HF09"",""HM02"",""HF10""]","[5,1,5,9]","[6,2,4,8]","","",""
"show-reward","166","444268","0.0-166.0","p512429","A1EDLMO8ACUTBP","3WRBLBQ2GSENM5LEFQY1C5PG0GV0GC","3TXD01ZLD6NQDV248YFLH7B99BIU43","emotion","match","uniform","","","","","","","","443358.89999997616","445360.89999997616","","","","","","","","","","","","5","","stimuli/stars_5.png","207.5","","","","","stimuli/HM02_HO.jpg","",""
"explore-choice","167","446472","0.0-167.0","p512429","A1EDLMO8ACUTBP","3WRBLBQ2GSENM5LEFQY1C5PG0GV0GC","3TXD01ZLD6NQDV248YFLH7B99BIU43","emotion","match","uniform","","","","","","","1688.1000000238419","445361.7000000477","447049.8000000715","[""stimuli/HF09_AO.jpg"",""stimuli/HM02_HO.jpg"",""stimuli/HF10_SUR.jpg"",""stimuli/WM13_DO.jpg""]","stimuli/HF09_AO.jpg","stimuli/HM02_HO.jpg","stimuli/HF10_SUR.jpg","stimuli/WM13_DO.jpg","pos2","stimuli/HM02_HO.jpg","HO","HM02","1","3","6","4","stimuli/stars_6.png","210.5","[""AO"",""HO"",""SUR"",""DO""]","[""HF09"",""HM02"",""HF10"",""WM13""]","[0,6,7,8]","[2,4,6,8]","","",""
"show-reward","168","448476","0.0-168.0","p512429","A1EDLMO8ACUTBP","3WRBLBQ2GSENM5LEFQY1C5PG0GV0GC","3TXD01ZLD6NQDV248YFLH7B99BIU43","emotion","match","uniform","","","","","","","","447566.2000000477","449568.7000000477","","","","","","","","","","","","6","","stimuli/stars_6.png","210.5","","","","","stimuli/HM02_HO.jpg","",""
"explore-choice","169","454218","0.0-169.0","p512429","A1EDLMO8ACUTBP","3WRBLBQ2GSENM5LEFQY1C5PG0GV0GC","3TXD01ZLD6NQDV248YFLH7B99BIU43","emotion","match","uniform","","","","","","","5228.700000047684","449569.5","454798.2000000477","[""stimuli/WM13_SUR.jpg"",""stimuli/HM02_AO.jpg"",""stimuli/HF10_HO.jpg"",""stimuli/HF09_DO.jpg""]","stimuli/WM13_SUR.jpg","stimuli/HM02_AO.jpg","stimuli/HF10_HO.jpg","stimuli/HF09_DO.jpg","pos4","stimuli/HF09_DO.jpg","DO","HF09","3","5","10","8","stimuli/stars_10.png","215.5","[""SUR"",""AO"",""HO"",""DO""]","[""WM13"",""HM02"",""HF10"",""HF09""]","[8,3,3,10]","[6,2,4,8]","","",""
"show-reward","170","456221","0.0-170.0","p512429","A1EDLMO8ACUTBP","3WRBLBQ2GSENM5LEFQY1C5PG0GV0GC","3TXD01ZLD6NQDV248YFLH7B99BIU43","emotion","match","uniform","","","","","","","","455312.10000002384","457314.10000002384","","","","","","","","","","","","10","","stimuli/stars_10.png","215.5","","","","","stimuli/HF09_DO.jpg","",""
"explore-choice","171","458250","0.0-171.0","p512429","A1EDLMO8ACUTBP","3WRBLBQ2GSENM5LEFQY1C5PG0GV0GC","3TXD01ZLD6NQDV248YFLH7B99BIU43","emotion","match","uniform","","","","","","","1523.1000000238419","457315","458838.10000002384","[""stimuli/HF10_DO.jpg"",""stimuli/HF09_AO.jpg"",""stimuli/HM02_SUR.jpg"",""stimuli/WM13_HO.jpg""]","stimuli/HF10_DO.jpg","stimuli/HF09_AO.jpg","stimuli/HM02_SUR.jpg","stimuli/WM13_HO.jpg","pos2","stimuli/HF09_AO.jpg","AO","HF09","1","1","2","2","stimuli/stars_2.png","216.5","[""DO"",""AO"",""SUR"",""HO""]","[""HF10"",""HF09"",""HM02"",""WM13""]","[9,2,7,5]","[8,2,6,4]","","",""
"show-reward","172","460252","0.0-172.0","p512429","A1EDLMO8ACUTBP","3WRBLBQ2GSENM5LEFQY1C5PG0GV0GC","3TXD01ZLD6NQDV248YFLH7B99BIU43","emotion","match","uniform","","","","","","","","459344","461345.3000000715","","","","","","","","","","","","2","","stimuli/stars_2.png","216.5","","","","","stimuli/HF09_AO.jpg","",""
"explore-choice","173","462940","0.0-173.0","p512429","A1EDLMO8ACUTBP","3WRBLBQ2GSENM5LEFQY1C5PG0GV0GC","3TXD01ZLD6NQDV248YFLH7B99BIU43","emotion","match","uniform","","","","","","","2173.7000000476837","461346.10000002384","463519.8000000715","[""stimuli/HF09_HO.jpg"",""stimuli/HM02_AO.jpg"",""stimuli/WM13_SUR.jpg"",""stimuli/HF10_DO.jpg""]","stimuli/HF09_HO.jpg","stimuli/HM02_AO.jpg","stimuli/WM13_SUR.jpg","stimuli/HF10_DO.jpg","pos1","stimuli/HF09_HO.jpg","HO","HF09","0","1","2","4","stimuli/stars_2.png","217.5","[""HO"",""AO"",""SUR"",""DO""]","[""HF09"",""HM02"",""WM13"",""HF10""]","[2,3,5,6]","[4,2,6,8]","","",""
"show-reward","174","464943","0.0-174.0","p512429","A1EDLMO8ACUTBP","3WRBLBQ2GSENM5LEFQY1C5PG0GV0GC","3TXD01ZLD6NQDV248YFLH7B99BIU43","emotion","match","uniform","","","","","","","","464034","466036.3000000715","","","","","","","","","","","","2","","stimuli/stars_2.png","217.5","","","","","stimuli/HF09_HO.jpg","",""
"explore-choice","175","466862","0.0-175.0","p512429","A1EDLMO8ACUTBP","3WRBLBQ2GSENM5LEFQY1C5PG0GV0GC","3TXD01ZLD6NQDV248YFLH7B99BIU43","emotion","match","uniform","","","","","","","1412","466042","467454","[""stimuli/HF09_SUR.jpg"",""stimuli/HM02_AO.jpg"",""stimuli/WM13_DO.jpg"",""stimuli/HF10_HO.jpg""]","stimuli/HF09_SUR.jpg","stimuli/HM02_AO.jpg","stimuli/WM13_DO.jpg","stimuli/HF10_HO.jpg","pos2","stimuli/HM02_AO.jpg","AO","HM02","1","1","2","2","stimuli/stars_2.png","218.5","[""SUR"",""AO"",""DO"",""HO""]","[""HF09"",""HM02"",""WM13"",""HF10""]","[8,2,6,6]","[6,2,8,4]","","",""
"show-reward","176","468865","0.0-176.0","p512429","A1EDLMO8ACUTBP","3WRBLBQ2GSENM5LEFQY1C5PG0GV0GC","3TXD01ZLD6NQDV248YFLH7B99BIU43","emotion","match","uniform","","","","","","","","467955.60000002384","469958","","","","","","","","","","","","2","","stimuli/stars_2.png","218.5","","","","","stimuli/HM02_AO.jpg","",""
"explore-choice","177","470513","0.0-177.0","p512429","A1EDLMO8ACUTBP","3WRBLBQ2GSENM5LEFQY1C5PG0GV0GC","3TXD01ZLD6NQDV248YFLH7B99BIU43","emotion","match","uniform","","","","","","","1139.5999999046326","469958.8000000715","471098.39999997616","[""stimuli/HF10_AO.jpg"",""stimuli/HF09_DO.jpg"",""stimuli/WM13_SUR.jpg"",""stimuli/HM02_HO.jpg""]","stimuli/HF10_AO.jpg","stimuli/HF09_DO.jpg","stimuli/WM13_SUR.jpg","stimuli/HM02_HO.jpg","pos2","stimuli/HF09_DO.jpg","DO","HF09","1","3.5","7","8","stimuli/stars_7.png","222","[""AO"",""DO"",""SUR"",""HO""]","[""HF10"",""HF09"",""WM13"",""HM02""]","[3,7,8,2]","[2,8,6,4]","","",""
"show-reward","178","472515","0.0-178.0","p512429","A1EDLMO8ACUTBP","3WRBLBQ2GSENM5LEFQY1C5PG0GV0GC","3TXD01ZLD6NQDV248YFLH7B99BIU43","emotion","match","uniform","","","","","","","","471606.89999997616","473608.2000000477","","","","","","","","","","","","7","","stimuli/stars_7.png","222","","","","","stimuli/HF09_DO.jpg","",""
"explore-choice","179","474430","0.0-179.0","p512429","A1EDLMO8ACUTBP","3WRBLBQ2GSENM5LEFQY1C5PG0GV0GC","3TXD01ZLD6NQDV248YFLH7B99BIU43","emotion","match","uniform","","","","","","","1407.9000000953674","473608.89999997616","475016.8000000715","[""stimuli/HF10_SUR.jpg"",""stimuli/WM13_HO.jpg"",""stimuli/HF09_AO.jpg"",""stimuli/HM02_DO.jpg""]","stimuli/HF10_SUR.jpg","stimuli/WM13_HO.jpg","stimuli/HF09_AO.jpg","stimuli/HM02_DO.jpg","pos4","stimuli/HM02_DO.jpg","DO","HM02","3","4.5","9","8","stimuli/stars_9.png","226.5","[""SUR"",""HO"",""AO"",""DO""]","[""HF10"",""WM13"",""HF09"",""HM02""]","[8,6,1,9]","[6,4,2,8]","","",""
"show-reward","180","476431","0.0-180.0","p512429","A1EDLMO8ACUTBP","3WRBLBQ2GSENM5LEFQY1C5PG0GV0GC","3TXD01ZLD6NQDV248YFLH7B99BIU43","emotion","match","uniform","","","","","","","","475523.3000000715","477524.7000000477","","","","","","","","","","","","9","","stimuli/stars_9.png","226.5","","","","","stimuli/HM02_DO.jpg","",""
"explore-choice","181","478447","0.0-181.0","p512429","A1EDLMO8ACUTBP","3WRBLBQ2GSENM5LEFQY1C5PG0GV0GC","3TXD01ZLD6NQDV248YFLH7B99BIU43","emotion","match","uniform","","","","","","","1513.1000000238419","477525.5","479038.60000002384","[""stimuli/WM13_AO.jpg"",""stimuli/HF09_HO.jpg"",""stimuli/HM02_DO.jpg"",""stimuli/HF10_SUR.jpg""]","stimuli/WM13_AO.jpg","stimuli/HF09_HO.jpg","stimuli/HM02_DO.jpg","stimuli/HF10_SUR.jpg","pos1","stimuli/WM13_AO.jpg","AO","WM13","0","1","2","2","stimuli/stars_2.png","227.5","[""AO"",""HO"",""DO"",""SUR""]","[""WM13"",""HF09"",""HM02"",""HF10""]","[2,2,10,7]","[2,4,8,6]","","",""
"show-reward","182","480460","0.0-182.0","p512429","A1EDLMO8ACUTBP","3WRBLBQ2GSENM5LEFQY1C5PG0GV0GC","3TXD01ZLD6NQDV248YFLH7B99BIU43","emotion","match","uniform","","","","","","","","479541.2000000477","481553.3000000715","","","","","","","","","","","","2","","stimuli/stars_2.png","227.5","","","","","stimuli/WM13_AO.jpg","",""
"explore-choice","183","482206","0.0-183.0","p512429","A1EDLMO8ACUTBP","3WRBLBQ2GSENM5LEFQY1C5PG0GV0GC","3TXD01ZLD6NQDV248YFLH7B99BIU43","emotion","match","uniform","","","","","","","1244.3999999761581","481554.3000000715","482798.7000000477","[""stimuli/HF09_DO.jpg"",""stimuli/HF10_SUR.jpg"",""stimuli/HM02_HO.jpg"",""stimuli/WM13_AO.jpg""]","stimuli/HF09_DO.jpg","stimuli/HF10_SUR.jpg","stimuli/HM02_HO.jpg","stimuli/WM13_AO.jpg","pos1","stimuli/HF09_DO.jpg","DO","HF09","0","5","10","8","stimuli/stars_10.png","232.5","[""DO"",""SUR"",""HO"",""AO""]","[""HF09"",""HF10"",""HM02"",""WM13""]","[10,6,5,3]","[8,6,4,2]","","",""
"show-reward","184","484210","0.0-184.0","p512429","A1EDLMO8ACUTBP","3WRBLBQ2GSENM5LEFQY1C5PG0GV0GC","3TXD01ZLD6NQDV248YFLH7B99BIU43","emotion","match","uniform","","","","","","","","483301.60000002384","485303.2000000477","","","","","","","","","","","","10","","stimuli/stars_10.png","232.5","","","","","stimuli/HF09_DO.jpg","",""
"explore-choice","185","486050","0.0-185.0","p512429","A1EDLMO8ACUTBP","3WRBLBQ2GSENM5LEFQY1C5PG0GV0GC","3TXD01ZLD6NQDV248YFLH7B99BIU43","emotion","match","uniform","","","","","","","1321.8000000715256","485305.5","486627.3000000715","[""stimuli/WM13_DO.jpg"",""stimuli/HM02_SUR.jpg"",""stimuli/HF10_AO.jpg"",""stimuli/HF09_HO.jpg""]","stimuli/WM13_DO.jpg","stimuli/HM02_SUR.jpg","stimuli/HF10_AO.jpg","stimuli/HF09_HO.jpg","pos1","stimuli/WM13_DO.jpg","DO","WM13","0","5","10","8","stimuli/stars_10.png","237.5","[""DO"",""SUR"",""AO"",""HO""]","[""WM13"",""HM02"",""HF10"",""HF09""]","[10,4,3,5]","[8,6,2,4]","","",""
"show-reward","186","488061","0.0-186.0","p512429","A1EDLMO8ACUTBP","3WRBLBQ2GSENM5LEFQY1C5PG0GV0GC","3TXD01ZLD6NQDV248YFLH7B99BIU43","emotion","match","uniform","","","","","","","","487143.7000000477","489154.60000002384","","","","","","","","","","","","10","","stimuli/stars_10.png","237.5","","","","","stimuli/WM13_DO.jpg","",""
"explore-choice","187","489748","0.0-187.0","p512429","A1EDLMO8ACUTBP","3WRBLBQ2GSENM5LEFQY1C5PG0GV0GC","3TXD01ZLD6NQDV248YFLH7B99BIU43","emotion","match","uniform","","","","","","","1184.8999999761581","489155.60000002384","490340.5","[""stimuli/HF10_AO.jpg"",""stimuli/HF09_DO.jpg"",""stimuli/HM02_SUR.jpg"",""stimuli/WM13_HO.jpg""]","stimuli/HF10_AO.jpg","stimuli/HF09_DO.jpg","stimuli/HM02_SUR.jpg","stimuli/WM13_HO.jpg","pos2","stimuli/HF09_DO.jpg","DO","HF09","1","3","6","8","stimuli/stars_6.png","240.5","[""AO"",""DO"",""SUR"",""HO""]","[""HF10"",""HF09"",""HM02"",""WM13""]","[1,6,4,3]","[2,8,6,4]","","",""
"show-reward","188","491751","0.0-188.0","p512429","A1EDLMO8ACUTBP","3WRBLBQ2GSENM5LEFQY1C5PG0GV0GC","3TXD01ZLD6NQDV248YFLH7B99BIU43","emotion","match","uniform","","","","","","","","490842.39999997616","492844.7000000477","","","","","","","","","","","","6","","stimuli/stars_6.png","240.5","","","","","stimuli/HF09_DO.jpg","",""
"explore-choice","189","493533","0.0-189.0","p512429","A1EDLMO8ACUTBP","3WRBLBQ2GSENM5LEFQY1C5PG0GV0GC","3TXD01ZLD6NQDV248YFLH7B99BIU43","emotion","match","uniform","","","","","","","1277.1000000238419","492845.60000002384","494122.7000000477","[""stimuli/HF10_HO.jpg"",""stimuli/HM02_DO.jpg"",""stimuli/HF09_SUR.jpg"",""stimuli/WM13_AO.jpg""]","stimuli/HF10_HO.jpg","stimuli/HM02_DO.jpg","stimuli/HF09_SUR.jpg","stimuli/WM13_AO.jpg","pos2","stimuli/HM02_DO.jpg","DO","HM02","1","3.5","7","8","stimuli/stars_7.png","244","[""HO"",""DO"",""SUR"",""AO""]","[""HF10"",""HM02"",""HF09"",""WM13""]","[3,7,4,4]","[4,8,6,2]","","",""
"show-reward","190","495536","0.0-190.0","p512429","A1EDLMO8ACUTBP","3WRBLBQ2GSENM5LEFQY1C5PG0GV0GC","3TXD01ZLD6NQDV248YFLH7B99BIU43","emotion","match","uniform","","","","","","","","494627.39999997616","496629.39999997616","","","","","","","","","","","","7","","stimuli/stars_7.png","244","","","","","stimuli/HM02_DO.jpg","",""
"explore-choice","191","499394","0.0-191.0","p512429","A1EDLMO8ACUTBP","3WRBLBQ2GSENM5LEFQY1C5PG0GV0GC","3TXD01ZLD6NQDV248YFLH7B99BIU43","emotion","match","uniform","","","","","","","3352.600000023842","496630.2000000477","499982.8000000715","[""stimuli/HF10_AO.jpg"",""stimuli/WM13_HO.jpg"",""stimuli/HM02_DO.jpg"",""stimuli/HF09_SUR.jpg""]","stimuli/HF10_AO.jpg","stimuli/WM13_HO.jpg","stimuli/HM02_DO.jpg","stimuli/HF09_SUR.jpg","pos2","stimuli/WM13_HO.jpg","HO","WM13","1","2.5","5","4","stimuli/stars_5.png","246.5","[""AO"",""HO"",""DO"",""SUR""]","[""HF10"",""WM13"",""HM02"",""HF09""]","[2,5,7,5]","[2,4,8,6]","","",""
"show-reward","192","501399","0.0-192.0","p512429","A1EDLMO8ACUTBP","3WRBLBQ2GSENM5LEFQY1C5PG0GV0GC","3TXD01ZLD6NQDV248YFLH7B99BIU43","emotion","match","uniform","","","","","","","","500488.7000000477","502492.39999997616","","","","","","","","","","","","5","","stimuli/stars_5.png","246.5","","","","","stimuli/WM13_HO.jpg","",""
"explore-choice","193","502983","0.0-193.0","p512429","A1EDLMO8ACUTBP","3WRBLBQ2GSENM5LEFQY1C5PG0GV0GC","3TXD01ZLD6NQDV248YFLH7B99BIU43","emotion","match","uniform","","","","","","","1078.5","502493.2000000477","503571.7000000477","[""stimuli/HF09_DO.jpg"",""stimuli/HF10_SUR.jpg"",""stimuli/HM02_AO.jpg"",""stimuli/WM13_HO.jpg""]","stimuli/HF09_DO.jpg","stimuli/HF10_SUR.jpg","stimuli/HM02_AO.jpg","stimuli/WM13_HO.jpg","pos2","stimuli/HF10_SUR.jpg","SUR","HF10","1","3.5","7","6","stimuli/stars_7.png","250","[""DO"",""SUR"",""AO"",""HO""]","[""HF09"",""HF10"",""HM02"",""WM13""]","[10,7,4,3]","[8,6,2,4]","","",""
"show-reward","194","504985","0.0-194.0","p512429","A1EDLMO8ACUTBP","3WRBLBQ2GSENM5LEFQY1C5PG0GV0GC","3TXD01ZLD6NQDV248YFLH7B99BIU43","emotion","match","uniform","","","","","","","","504077","506078.39999997616","","","","","","","","","","","","7","","stimuli/stars_7.png","250","","","","","stimuli/HF10_SUR.jpg","",""
"explore-choice","195","506584","0.0-195.0","p512429","A1EDLMO8ACUTBP","3WRBLBQ2GSENM5LEFQY1C5PG0GV0GC","3TXD01ZLD6NQDV248YFLH7B99BIU43","emotion","match","uniform","","","","","","","1086.1999999284744","506079.2000000477","507165.39999997616","[""stimuli/HF10_AO.jpg"",""stimuli/HM02_DO.jpg"",""stimuli/WM13_SUR.jpg"",""stimuli/HF09_HO.jpg""]","stimuli/HF10_AO.jpg","stimuli/HM02_DO.jpg","stimuli/WM13_SUR.jpg","stimuli/HF09_HO.jpg","pos2","stimuli/HM02_DO.jpg","DO","HM02","1","4","8","8","stimuli/stars_8.png","254","[""AO"",""DO"",""SUR"",""HO""]","[""HF10"",""HM02"",""WM13"",""HF09""]","[4,8,7,2]","[2,8,6,4]","","",""
"show-reward","196","508588","0.0-196.0","p512429","A1EDLMO8ACUTBP","3WRBLBQ2GSENM5LEFQY1C5PG0GV0GC","3TXD01ZLD6NQDV248YFLH7B99BIU43","emotion","match","uniform","","","","","","","","507678.5","509680.89999997616","","","","","","","","","","","","8","","stimuli/stars_8.png","254","","","","","stimuli/HM02_DO.jpg","",""
"explore-choice","197","510726","0.0-197.0","p512429","A1EDLMO8ACUTBP","3WRBLBQ2GSENM5LEFQY1C5PG0GV0GC","3TXD01ZLD6NQDV248YFLH7B99BIU43","emotion","match","uniform","","","","","","","1637.5","509681.7000000477","511319.2000000477","[""stimuli/WM13_AO.jpg"",""stimuli/HM02_HO.jpg"",""stimuli/HF09_SUR.jpg"",""stimuli/HF10_DO.jpg""]","stimuli/WM13_AO.jpg","stimuli/HM02_HO.jpg","stimuli/HF09_SUR.jpg","stimuli/HF10_DO.jpg","pos1","stimuli/WM13_AO.jpg","AO","WM13","0","1.5","3","2","stimuli/stars_3.png","255.5","[""AO"",""HO"",""SUR"",""DO""]","[""WM13"",""HM02"",""HF09"",""HF10""]","[3,2,7,7]","[2,4,6,8]","","",""
"show-reward","198","512729","0.0-198.0","p512429","A1EDLMO8ACUTBP","3WRBLBQ2GSENM5LEFQY1C5PG0GV0GC","3TXD01ZLD6NQDV248YFLH7B99BIU43","emotion","match","uniform","","","","","","","","511820.60000002384","513822.39999997616","","","","","","","","","","","","3","","stimuli/stars_3.png","255.5","","","","","stimuli/WM13_AO.jpg","",""
"instructions","199","514359","0.0-199.0","p512429","A1EDLMO8ACUTBP","3WRBLBQ2GSENM5LEFQY1C5PG0GV0GC","3TXD01ZLD6NQDV248YFLH7B99BIU43","emotion","match","uniform","","","","","","[{""page_index"":0,""viewing_time"":1629.2999999523163}]","1629.6000000238419","","","","","","","","","","","","","","","","","","","","","","","",""
"survey-text","200","518698","0.0-200.0-0.0","p512429","A1EDLMO8ACUTBP","3WRBLBQ2GSENM5LEFQY1C5PG0GV0GC","3TXD01ZLD6NQDV248YFLH7B99BIU43","emotion","match","uniform","","","","","","","4335.100000023842","","","","","","","","","","","","","","","","","","","","","","","{""age"":""25""}",""
"survey-text","201","524009","0.0-200.0-1.0","p512429","A1EDLMO8ACUTBP","3WRBLBQ2GSENM5LEFQY1C5PG0GV0GC","3TXD01ZLD6NQDV248YFLH7B99BIU43","emotion","match","uniform","","","","","","","5307.5","","","","","","","","","","","","","","","","","","","","","","","{""gender"":""Male""}",""
"survey-text","202","532151","0.0-200.0-2.0","p512429","A1EDLMO8ACUTBP","3WRBLBQ2GSENM5LEFQY1C5PG0GV0GC","3TXD01ZLD6NQDV248YFLH7B99BIU43","emotion","match","uniform","","","","","","","8138.100000023842","","","","","","","","","","","","","","","","","","","","","","","{""country"":""USA""}",""
"survey-text","203","541951","0.0-200.0-3.0","p512429","A1EDLMO8ACUTBP","3WRBLBQ2GSENM5LEFQY1C5PG0GV0GC","3TXD01ZLD6NQDV248YFLH7B99BIU43","emotion","match","uniform","","","","","","","9797.5","","","","","","","","","","","","","","","","","","","","","","","{""language"":""English"",""other_languages"":""""}",""
"survey-multi-select","204","545013","0.0-201.0","p512429","A1EDLMO8ACUTBP","3WRBLBQ2GSENM5LEFQY1C5PG0GV0GC","3TXD01ZLD6NQDV248YFLH7B99BIU43","emotion","match","uniform","","","","","","","3056.7000000476837","","","","","","","","","","","","","","","","","","","","","","","{""race"":[""White""]}","[0]"
"survey-multi-choice","205","548377","0.0-202.0","p512429","A1EDLMO8ACUTBP","3WRBLBQ2GSENM5LEFQY1C5PG0GV0GC","3TXD01ZLD6NQDV248YFLH7B99BIU43","emotion","match","uniform","","","","","","","3360.7000000476837","","","","","","","","","","","","","","","","","","","","","","","{""education"":""Bachelor's degree""}","[0]"
"survey-text","206","551961","0.0-203.0","p512429","A1EDLMO8ACUTBP","3WRBLBQ2GSENM5LEFQY1C5PG0GV0GC","3TXD01ZLD6NQDV248YFLH7B99BIU43","emotion","match","uniform","","","","","","","3578","","","","","","","","","","","","","","","","","","","","","","","{""patterns"":"""",""strategy"":"""",""comments"":""""}",""
