"trial_type","trial_index","time_elapsed","internal_node_id","subject","workerId","hitId","assignmentId","structure_condition","match_condition","noise_type","success","timeout","failed_images","failed_audio","failed_video","view_history","rt","start_time","end_time","stimuli","image1","image2","image3","image4","choiceLocation","choiceImage","choiceEmotion","choiceModel","choice_index","reward_score","reward","reward_score_unadjusted","reward_image","score_after_trial","emotions","models","rewards","rewards_unadjusted","stimulus","response","question_order"
"pavlovia","0","8","0.0-0.0","p823268","ARVXIBUCA8WDZ","3UUIU9GZC6BQMHTLWW3KSJ0W7IE5TB","3DEL4X4EL8RYS6AJ2AEFH3EKYUYXYJ","emotion","mismatch","uniform","","","","","","","","","","","","","","","","","","","","","","","","","","","","","","",""
"preload","1","2059","0.0-1.0","p823268","ARVXIBUCA8WDZ","3UUIU9GZC6BQMHTLWW3KSJ0W7IE5TB","3DEL4X4EL8RYS6AJ2AEFH3EKYUYXYJ","emotion","mismatch","uniform","true","false","[]","[]","[]","","","","","","","","","","","","","","","","","","","","","","","","","",""
"fullscreen","2","6087","0.0-2.0","p823268","ARVXIBUCA8WDZ","3UUIU9GZC6BQMHTLWW3KSJ0W7IE5TB","3DEL4X4EL8RYS6AJ2AEFH3EKYUYXYJ","emotion","mismatch","uniform","true","","","","","","","","","","","","","","","","","","","","","","","","","","","","","",""
"instructions","3","8489","0.0-3.0","p823268","ARVXIBUCA8WDZ","3UUIU9GZC6BQMHTLWW3KSJ0W7IE5TB","3DEL4X4EL8RYS6AJ2AEFH3EKYUYXYJ","emotion","mismatch","uniform","","","","","","[{""page_index"":0,""viewing_time"":2400.899999856949}]","2401.0999999046326","","","","","","","","","","","","","","","","","","","","","","","",""
"explore-choice","4","10549","0.0-4.0","p823268","ARVXIBUCA8WDZ","3UUIU9GZC6BQMHTLWW3KSJ0W7IE5TB","3DEL4X4EL8RYS6AJ2AEFH3EKYUYXYJ","emotion","mismatch","uniform","","","","","","","1552.5","10002.900000095367","11555.400000095367","[""stimuli/sheep.jpg"",""stimuli/hammer.jpg"",""stimuli/basketball.jpg"",""stimuli/horse.jpg""]","stimuli/sheep.jpg","stimuli/hammer.jpg","stimuli/basketball.jpg","stimuli/horse.jpg","pos4","stimuli/horse.jpg","","","3","64","64","64","stimuli/stars_8.png","65","","","","","","",""
"explore-choice","5","12146","0.0-5.0","p823268","ARVXIBUCA8WDZ","3UUIU9GZC6BQMHTLWW3KSJ0W7IE5TB","3DEL4X4EL8RYS6AJ2AEFH3EKYUYXYJ","emotion","mismatch","uniform","","","","","","","1081.7999999523163","12063.200000047684","13145","[""stimuli/hammer.jpg"",""stimuli/basketball.jpg"",""stimuli/horse.jpg"",""stimuli/sheep.jpg""]","stimuli/hammer.jpg","stimuli/basketball.jpg","stimuli/horse.jpg","stimuli/sheep.jpg","pos1","stimuli/hammer.jpg","","","0","8","8","8","stimuli/stars_2.png","9","","","","","","",""
"instructions","6","19203","0.0-6.0","p823268","ARVXIBUCA8WDZ","3UUIU9GZC6BQMHTLWW3KSJ0W7IE5TB","3DEL4X4EL8RYS6AJ2AEFH3EKYUYXYJ","emotion","mismatch","uniform","","","","","","[{""page_index"":0,""viewing_time"":7056.100000143051}]","7056.299999952316","","","","","","","","","","","","","","","","","","","","","","","",""
"explore-choice","7","20842","0.0-7.0","p823268","ARVXIBUCA8WDZ","3UUIU9GZC6BQMHTLWW3KSJ0W7IE5TB","3DEL4X4EL8RYS6AJ2AEFH3EKYUYXYJ","emotion","mismatch","uniform","","","","","","","1122.2999999523163","20717.10000014305","21839.400000095367","[""stimuli/AF02_SC.jpg"",""stimuli/HF02_HO.jpg"",""stimuli/WM13_DO.jpg"",""stimuli/AM09_HE.jpg""]","stimuli/AF02_SC.jpg","stimuli/HF02_HO.jpg","stimuli/WM13_DO.jpg","stimuli/AM09_HE.jpg","pos1","stimuli/AF02_SC.jpg","SC","AF02","0","2","4","2","stimuli/stars_4.png","3","[""SC"",""HO"",""DO"",""HE""]","[""AF02"",""HF02"",""WM13"",""AM09""]","[4,6,3,9]","[2,6,4,8]","","",""
"show-reward","8","22845","0.0-8.0","p823268","ARVXIBUCA8WDZ","3UUIU9GZC6BQMHTLWW3KSJ0W7IE5TB","3DEL4X4EL8RYS6AJ2AEFH3EKYUYXYJ","emotion","mismatch","uniform","","","","","","","","22356.799999952316","24358.700000047684","","","","","","","","","","","","4","","stimuli/stars_4.png","3","","","","","stimuli/AF02_SC.jpg","",""
"explore-choice","9","24923","0.0-9.0","p823268","ARVXIBUCA8WDZ","3UUIU9GZC6BQMHTLWW3KSJ0W7IE5TB","3DEL4X4EL8RYS6AJ2AEFH3EKYUYXYJ","emotion","mismatch","uniform","","","","","","","1574.6000001430511","24359.799999952316","25934.400000095367","[""stimuli/AM09_HE.jpg"",""stimuli/AF02_HO.jpg"",""stimuli/WM13_SC.jpg"",""stimuli/HF02_DO.jpg""]","stimuli/AM09_HE.jpg","stimuli/AF02_HO.jpg","stimuli/WM13_SC.jpg","stimuli/HF02_DO.jpg","pos2","stimuli/AF02_HO.jpg","HO","AF02","1","3","6","6","stimuli/stars_6.png","6","[""HE"",""HO"",""SC"",""DO""]","[""AM09"",""AF02"",""WM13"",""HF02""]","[9,6,2,2]","[8,6,2,4]","","",""
"show-reward","10","26931","0.0-10.0","p823268","ARVXIBUCA8WDZ","3UUIU9GZC6BQMHTLWW3KSJ0W7IE5TB","3DEL4X4EL8RYS6AJ2AEFH3EKYUYXYJ","emotion","mismatch","uniform","","","","","","","","26436.5","28444.700000047684","","","","","","","","","","","","6","","stimuli/stars_6.png","6","","","","","stimuli/AF02_HO.jpg","",""
"explore-choice","11","28598","0.0-11.0","p823268","ARVXIBUCA8WDZ","3UUIU9GZC6BQMHTLWW3KSJ0W7IE5TB","3DEL4X4EL8RYS6AJ2AEFH3EKYUYXYJ","emotion","mismatch","uniform","","","","","","","1156.5999999046326","28445.400000095367","29602","[""stimuli/WM13_DO.jpg"",""stimuli/AM09_SC.jpg"",""stimuli/AF02_HE.jpg"",""stimuli/HF02_HO.jpg""]","stimuli/WM13_DO.jpg","stimuli/AM09_SC.jpg","stimuli/AF02_HE.jpg","stimuli/HF02_HO.jpg","pos3","stimuli/AF02_HE.jpg","HE","AF02","2","3.5","7","8","stimuli/stars_7.png","9.5","[""DO"",""SC"",""HE"",""HO""]","[""WM13"",""AM09"",""AF02"",""HF02""]","[4,3,7,8]","[4,2,8,6]","","",""
"show-reward","12","30601","0.0-12.0","p823268","ARVXIBUCA8WDZ","3UUIU9GZC6BQMHTLWW3KSJ0W7IE5TB","3DEL4X4EL8RYS6AJ2AEFH3EKYUYXYJ","emotion","mismatch","uniform","","","","","","","","30111.799999952316","32114.299999952316","","","","","","","","","","","","7","","stimuli/stars_7.png","9.5","","","","","stimuli/AF02_HE.jpg","",""
"explore-choice","13","32851","0.0-13.0","p823268","ARVXIBUCA8WDZ","3UUIU9GZC6BQMHTLWW3KSJ0W7IE5TB","3DEL4X4EL8RYS6AJ2AEFH3EKYUYXYJ","emotion","mismatch","uniform","","","","","","","1749.5","32114.900000095367","33864.40000009537","[""stimuli/WM13_HO.jpg"",""stimuli/HF02_SC.jpg"",""stimuli/AF02_HE.jpg"",""stimuli/AM09_DO.jpg""]","stimuli/WM13_HO.jpg","stimuli/HF02_SC.jpg","stimuli/AF02_HE.jpg","stimuli/AM09_DO.jpg","pos3","stimuli/AF02_HE.jpg","HE","AF02","2","4.5","9","8","stimuli/stars_9.png","14","[""HO"",""SC"",""HE"",""DO""]","[""WM13"",""HF02"",""AF02"",""AM09""]","[8,3,9,6]","[6,2,8,4]","","",""
"show-reward","14","34853","0.0-14.0","p823268","ARVXIBUCA8WDZ","3UUIU9GZC6BQMHTLWW3KSJ0W7IE5TB","3DEL4X4EL8RYS6AJ2AEFH3EKYUYXYJ","emotion","mismatch","uniform","","","","","","","","34365.200000047684","36366.60000014305","","","","","","","","","","","","9","","stimuli/stars_9.png","14","","","","","stimuli/AF02_HE.jpg","",""
"explore-choice","15","36415","0.0-15.0","p823268","ARVXIBUCA8WDZ","3UUIU9GZC6BQMHTLWW3KSJ0W7IE5TB","3DEL4X4EL8RYS6AJ2AEFH3EKYUYXYJ","emotion","mismatch","uniform","","","","","","","1057.8000001907349","36367.299999952316","37425.10000014305","[""stimuli/HF02_SC.jpg"",""stimuli/WM13_DO.jpg"",""stimuli/AM09_HO.jpg"",""stimuli/AF02_HE.jpg""]","stimuli/HF02_SC.jpg","stimuli/WM13_DO.jpg","stimuli/AM09_HO.jpg","stimuli/AF02_HE.jpg","pos4","stimuli/AF02_HE.jpg","HE","AF02","3","5","10","8","stimuli/stars_10.png","19","[""SC"",""DO"",""HO"",""HE""]","[""HF02"",""WM13"",""AM09"",""AF02""]","[0,2,4,10]","[2,4,6,8]","","",""
"show-reward","16","38426","0.0-16.0","p823268","ARVXIBUCA8WDZ","3UUIU9GZC6BQMHTLWW3KSJ0W7IE5TB","3DEL4X4EL8RYS6AJ2AEFH3EKYUYXYJ","emotion","mismatch","uniform","","","","","","","","37929.10000014305","39939","","","","","","","","","","","","10","","stimuli/stars_10.png","19","","","","","stimuli/AF02_HE.jpg","",""
"explore-choice","17","39876","0.0-17.0","p823268","ARVXIBUCA8WDZ","3UUIU9GZC6BQMHTLWW3KSJ0W7IE5TB","3DEL4X4EL8RYS6AJ2AEFH3EKYUYXYJ","emotion","mismatch","uniform","","","","","","","949.2000000476837","39939.799999952316","40889","[""stimuli/HF02_DO.jpg"",""stimuli/AM09_SC.jpg"",""stimuli/AF02_HO.jpg"",""stimuli/WM13_HE.jpg""]","stimuli/HF02_DO.jpg","stimuli/AM09_SC.jpg","stimuli/AF02_HO.jpg","stimuli/WM13_HE.jpg","pos3","stimuli/AF02_HO.jpg","HO","AF02","2","3.5","7","6","stimuli/stars_7.png","22.5","[""DO"",""SC"",""HO"",""HE""]","[""HF02"",""AM09"",""AF02"",""WM13""]","[6,0,7,6]","[4,2,6,8]","","",""
"show-reward","18","41879","0.0-18.0","p823268","ARVXIBUCA8WDZ","3UUIU9GZC6BQMHTLWW3KSJ0W7IE5TB","3DEL4X4EL8RYS6AJ2AEFH3EKYUYXYJ","emotion","mismatch","uniform","","","","","","","","41390.60000014305","43392.200000047684","","","","","","","","","","","","7","","stimuli/stars_7.png","22.5","","","","","stimuli/AF02_HO.jpg","",""
"explore-choice","19","43803","0.0-19.0","p823268","ARVXIBUCA8WDZ","3UUIU9GZC6BQMHTLWW3KSJ0W7IE5TB","3DEL4X4EL8RYS6AJ2AEFH3EKYUYXYJ","emotion","mismatch","uniform","","","","","","","1421.8999998569489","43392.90000009537","44814.799999952316","[""stimuli/AF02_HO.jpg"",""stimuli/HF02_SC.jpg"",""stimuli/WM13_DO.jpg"",""stimuli/AM09_HE.jpg""]","stimuli/AF02_HO.jpg","stimuli/HF02_SC.jpg","stimuli/WM13_DO.jpg","stimuli/AM09_HE.jpg","pos4","stimuli/AM09_HE.jpg","HE","AM09","3","5","10","8","stimuli/stars_10.png","27.5","[""HO"",""SC"",""DO"",""HE""]","[""AF02"",""HF02"",""WM13"",""AM09""]","[8,1,2,10]","[6,2,4,8]","","",""
"show-reward","20","45805","0.0-20.0","p823268","ARVXIBUCA8WDZ","3UUIU9GZC6BQMHTLWW3KSJ0W7IE5TB","3DEL4X4EL8RYS6AJ2AEFH3EKYUYXYJ","emotion","mismatch","uniform","","","","","","","","45316.700000047684","47318.10000014305","","","","","","","","","","","","10","","stimuli/stars_10.png","27.5","","","","","stimuli/AM09_HE.jpg","",""
"explore-choice","21","48015","0.0-21.0","p823268","ARVXIBUCA8WDZ","3UUIU9GZC6BQMHTLWW3KSJ0W7IE5TB","3DEL4X4EL8RYS6AJ2AEFH3EKYUYXYJ","emotion","mismatch","uniform","","","","","","","1709.2000000476837","47318.700000047684","49027.90000009537","[""stimuli/HF02_DO.jpg"",""stimuli/AF02_HE.jpg"",""stimuli/AM09_HO.jpg"",""stimuli/WM13_SC.jpg""]","stimuli/HF02_DO.jpg","stimuli/AF02_HE.jpg","stimuli/AM09_HO.jpg","stimuli/WM13_SC.jpg","pos2","stimuli/AF02_HE.jpg","HE","AF02","1","5","10","8","stimuli/stars_10.png","32.5","[""DO"",""HE"",""HO"",""SC""]","[""HF02"",""AF02"",""AM09"",""WM13""]","[5,10,8,4]","[4,8,6,2]","","",""
"show-reward","22","50019","0.0-22.0","p823268","ARVXIBUCA8WDZ","3UUIU9GZC6BQMHTLWW3KSJ0W7IE5TB","3DEL4X4EL8RYS6AJ2AEFH3EKYUYXYJ","emotion","mismatch","uniform","","","","","","","","49529.60000014305","51532.10000014305","","","","","","","","","","","","10","","stimuli/stars_10.png","32.5","","","","","stimuli/AF02_HE.jpg","",""
"explore-choice","23","51908","0.0-23.0","p823268","ARVXIBUCA8WDZ","3UUIU9GZC6BQMHTLWW3KSJ0W7IE5TB","3DEL4X4EL8RYS6AJ2AEFH3EKYUYXYJ","emotion","mismatch","uniform","","","","","","","1387.2000000476837","51532.700000047684","52919.90000009537","[""stimuli/AM09_DO.jpg"",""stimuli/WM13_SC.jpg"",""stimuli/HF02_HO.jpg"",""stimuli/AF02_HE.jpg""]","stimuli/AM09_DO.jpg","stimuli/WM13_SC.jpg","stimuli/HF02_HO.jpg","stimuli/AF02_HE.jpg","pos4","stimuli/AF02_HE.jpg","HE","AF02","3","4","8","8","stimuli/stars_8.png","36.5","[""DO"",""SC"",""HO"",""HE""]","[""AM09"",""WM13"",""HF02"",""AF02""]","[6,2,5,8]","[4,2,6,8]","","",""
"show-reward","24","53912","0.0-24.0","p823268","ARVXIBUCA8WDZ","3UUIU9GZC6BQMHTLWW3KSJ0W7IE5TB","3DEL4X4EL8RYS6AJ2AEFH3EKYUYXYJ","emotion","mismatch","uniform","","","","","","","","53422.60000014305","55425.5","","","","","","","","","","","","8","","stimuli/stars_8.png","36.5","","","","","stimuli/AF02_HE.jpg","",""
"explore-choice","25","56334","0.0-25.0","p823268","ARVXIBUCA8WDZ","3UUIU9GZC6BQMHTLWW3KSJ0W7IE5TB","3DEL4X4EL8RYS6AJ2AEFH3EKYUYXYJ","emotion","mismatch","uniform","","","","","","","1919.8999998569489","55425.90000009537","57345.799999952316","[""stimuli/AM09_HE.jpg"",""stimuli/AF02_DO.jpg"",""stimuli/HF02_HO.jpg"",""stimuli/WM13_SC.jpg""]","stimuli/AM09_HE.jpg","stimuli/AF02_DO.jpg","stimuli/HF02_HO.jpg","stimuli/WM13_SC.jpg","pos1","stimuli/AM09_HE.jpg","HE","AM09","0","3","6","8","stimuli/stars_6.png","39.5","[""HE"",""DO"",""HO"",""SC""]","[""AM09"",""AF02"",""HF02"",""WM13""]","[6,6,4,1]","[8,4,6,2]","","",""
"show-reward","26","58335","0.0-26.0","p823268","ARVXIBUCA8WDZ","3UUIU9GZC6BQMHTLWW3KSJ0W7IE5TB","3DEL4X4EL8RYS6AJ2AEFH3EKYUYXYJ","emotion","mismatch","uniform","","","","","","","","57847.40000009537","59848.5","","","","","","","","","","","","6","","stimuli/stars_6.png","39.5","","","","","stimuli/AM09_HE.jpg","",""
"explore-choice","27","60508","0.0-27.0","p823268","ARVXIBUCA8WDZ","3UUIU9GZC6BQMHTLWW3KSJ0W7IE5TB","3DEL4X4EL8RYS6AJ2AEFH3EKYUYXYJ","emotion","mismatch","uniform","","","","","","","1670.4000000953674","59849.5","61519.90000009537","[""stimuli/AF02_DO.jpg"",""stimuli/WM13_HE.jpg"",""stimuli/AM09_SC.jpg"",""stimuli/HF02_HO.jpg""]","stimuli/AF02_DO.jpg","stimuli/WM13_HE.jpg","stimuli/AM09_SC.jpg","stimuli/HF02_HO.jpg","pos2","stimuli/WM13_HE.jpg","HE","WM13","1","5","10","8","stimuli/stars_10.png","44.5","[""DO"",""HE"",""SC"",""HO""]","[""AF02"",""WM13"",""AM09"",""HF02""]","[5,10,3,8]","[4,8,2,6]","","",""
"show-reward","28","62510","0.0-28.0","p823268","ARVXIBUCA8WDZ","3UUIU9GZC6BQMHTLWW3KSJ0W7IE5TB","3DEL4X4EL8RYS6AJ2AEFH3EKYUYXYJ","emotion","mismatch","uniform","","","","","","","","62021.5","64022.90000009537","","","","","","","","","","","","10","","stimuli/stars_10.png","44.5","","","","","stimuli/WM13_HE.jpg","",""
"explore-choice","29","64564","0.0-29.0","p823268","ARVXIBUCA8WDZ","3UUIU9GZC6BQMHTLWW3KSJ0W7IE5TB","3DEL4X4EL8RYS6AJ2AEFH3EKYUYXYJ","emotion","mismatch","uniform","","","","","","","1552.2999999523163","64023.700000047684","65576","[""stimuli/AM09_HE.jpg"",""stimuli/WM13_HO.jpg"",""stimuli/AF02_DO.jpg"",""stimuli/HF02_SC.jpg""]","stimuli/AM09_HE.jpg","stimuli/WM13_HO.jpg","stimuli/AF02_DO.jpg","stimuli/HF02_SC.jpg","pos2","stimuli/WM13_HO.jpg","HO","WM13","1","4","8","6","stimuli/stars_8.png","48.5","[""HE"",""HO"",""DO"",""SC""]","[""AM09"",""WM13"",""AF02"",""HF02""]","[6,8,5,2]","[8,6,4,2]","","",""
"show-reward","30","66565","0.0-30.0","p823268","ARVXIBUCA8WDZ","3UUIU9GZC6BQMHTLWW3KSJ0W7IE5TB","3DEL4X4EL8RYS6AJ2AEFH3EKYUYXYJ","emotion","mismatch","uniform","","","","","","","","66077.29999995232","68078.70000004768","","","","","","","","","","","","8","","stimuli/stars_8.png","48.5","","","","","stimuli/WM13_HO.jpg","",""
"explore-choice","31","68865","0.0-31.0","p823268","ARVXIBUCA8WDZ","3UUIU9GZC6BQMHTLWW3KSJ0W7IE5TB","3DEL4X4EL8RYS6AJ2AEFH3EKYUYXYJ","emotion","mismatch","uniform","","","","","","","1797.6000001430511","68079.29999995232","69876.90000009537","[""stimuli/AM09_DO.jpg"",""stimuli/HF02_HE.jpg"",""stimuli/AF02_HO.jpg"",""stimuli/WM13_SC.jpg""]","stimuli/AM09_DO.jpg","stimuli/HF02_HE.jpg","stimuli/AF02_HO.jpg","stimuli/WM13_SC.jpg","pos2","stimuli/HF02_HE.jpg","HE","HF02","1","5","10","8","stimuli/stars_10.png","53.5","[""DO"",""HE"",""HO"",""SC""]","[""AM09"",""HF02"",""AF02"",""WM13""]","[3,10,6,1]","[4,8,6,2]","","",""
"show-reward","32","70866","0.0-32.0","p823268","ARVXIBUCA8WDZ","3UUIU9GZC6BQMHTLWW3KSJ0W7IE5TB","3DEL4X4EL8RYS6AJ2AEFH3EKYUYXYJ","emotion","mismatch","uniform","","","","","","","","70378.40000009537","72379.70000004768","","","","","","","","","","","","10","","stimuli/stars_10.png","53.5","","","","","stimuli/HF02_HE.jpg","",""
"explore-choice","33","73173","0.0-33.0","p823268","ARVXIBUCA8WDZ","3UUIU9GZC6BQMHTLWW3KSJ0W7IE5TB","3DEL4X4EL8RYS6AJ2AEFH3EKYUYXYJ","emotion","mismatch","uniform","","","","","","","1804.3999998569489","72380.40000009537","74184.79999995232","[""stimuli/AM09_DO.jpg"",""stimuli/WM13_HE.jpg"",""stimuli/AF02_SC.jpg"",""stimuli/HF02_HO.jpg""]","stimuli/AM09_DO.jpg","stimuli/WM13_HE.jpg","stimuli/AF02_SC.jpg","stimuli/HF02_HO.jpg","pos2","stimuli/WM13_HE.jpg","HE","WM13","1","3","6","8","stimuli/stars_6.png","56.5","[""DO"",""HE"",""SC"",""HO""]","[""AM09"",""WM13"",""AF02"",""HF02""]","[4,6,4,8]","[4,8,2,6]","","",""
"show-reward","34","75174","0.0-34.0","p823268","ARVXIBUCA8WDZ","3UUIU9GZC6BQMHTLWW3KSJ0W7IE5TB","3DEL4X4EL8RYS6AJ2AEFH3EKYUYXYJ","emotion","mismatch","uniform","","","","","","","","74686.20000004768","76687.5","","","","","","","","","","","","6","","stimuli/stars_6.png","56.5","","","","","stimuli/WM13_HE.jpg","",""
"explore-choice","35","77258","0.0-35.0","p823268","ARVXIBUCA8WDZ","3UUIU9GZC6BQMHTLWW3KSJ0W7IE5TB","3DEL4X4EL8RYS6AJ2AEFH3EKYUYXYJ","emotion","mismatch","uniform","","","","","","","1583.0999999046326","76688.10000014305","78271.20000004768","[""stimuli/AF02_HO.jpg"",""stimuli/HF02_SC.jpg"",""stimuli/AM09_DO.jpg"",""stimuli/WM13_HE.jpg""]","stimuli/AF02_HO.jpg","stimuli/HF02_SC.jpg","stimuli/AM09_DO.jpg","stimuli/WM13_HE.jpg","pos4","stimuli/WM13_HE.jpg","HE","WM13","3","4","8","8","stimuli/stars_8.png","60.5","[""HO"",""SC"",""DO"",""HE""]","[""AF02"",""HF02"",""AM09"",""WM13""]","[4,0,6,8]","[6,2,4,8]","","",""
"show-reward","36","79261","0.0-36.0","p823268","ARVXIBUCA8WDZ","3UUIU9GZC6BQMHTLWW3KSJ0W7IE5TB","3DEL4X4EL8RYS6AJ2AEFH3EKYUYXYJ","emotion","mismatch","uniform","","","","","","","","78772.29999995232","80773.79999995232","","","","","","","","","","","","8","","stimuli/stars_8.png","60.5","","","","","stimuli/WM13_HE.jpg","",""
"explore-choice","37","81002","0.0-37.0","p823268","ARVXIBUCA8WDZ","3UUIU9GZC6BQMHTLWW3KSJ0W7IE5TB","3DEL4X4EL8RYS6AJ2AEFH3EKYUYXYJ","emotion","mismatch","uniform","","","","","","","1229.5","80774.60000014305","82004.10000014305","[""stimuli/AM09_SC.jpg"",""stimuli/WM13_HO.jpg"",""stimuli/HF02_HE.jpg"",""stimuli/AF02_DO.jpg""]","stimuli/AM09_SC.jpg","stimuli/WM13_HO.jpg","stimuli/HF02_HE.jpg","stimuli/AF02_DO.jpg","pos3","stimuli/HF02_HE.jpg","HE","HF02","2","3.5","7","8","stimuli/stars_7.png","64","[""SC"",""HO"",""HE"",""DO""]","[""AM09"",""WM13"",""HF02"",""AF02""]","[0,7,7,5]","[2,6,8,4]","","",""
"show-reward","38","83005","0.0-38.0","p823268","ARVXIBUCA8WDZ","3UUIU9GZC6BQMHTLWW3KSJ0W7IE5TB","3DEL4X4EL8RYS6AJ2AEFH3EKYUYXYJ","emotion","mismatch","uniform","","","","","","","","82516.20000004768","84518.20000004768","","","","","","","","","","","","7","","stimuli/stars_7.png","64","","","","","stimuli/HF02_HE.jpg","",""
"explore-choice","39","84338","0.0-39.0","p823268","ARVXIBUCA8WDZ","3UUIU9GZC6BQMHTLWW3KSJ0W7IE5TB","3DEL4X4EL8RYS6AJ2AEFH3EKYUYXYJ","emotion","mismatch","uniform","","","","","","","832.2999999523163","84518.70000004768","85351","[""stimuli/HF02_HE.jpg"",""stimuli/WM13_DO.jpg"",""stimuli/AM09_HO.jpg"",""stimuli/AF02_SC.jpg""]","stimuli/HF02_HE.jpg","stimuli/WM13_DO.jpg","stimuli/AM09_HO.jpg","stimuli/AF02_SC.jpg","pos1","stimuli/HF02_HE.jpg","HE","HF02","0","5","10","8","stimuli/stars_10.png","69","[""HE"",""DO"",""HO"",""SC""]","[""HF02"",""WM13"",""AM09"",""AF02""]","[10,5,6,3]","[8,4,6,2]","","",""
"show-reward","40","86342","0.0-40.0","p823268","ARVXIBUCA8WDZ","3UUIU9GZC6BQMHTLWW3KSJ0W7IE5TB","3DEL4X4EL8RYS6AJ2AEFH3EKYUYXYJ","emotion","mismatch","uniform","","","","","","","","85852.20000004768","87854.90000009537","","","","","","","","","","","","10","","stimuli/stars_10.png","69","","","","","stimuli/HF02_HE.jpg","",""
"explore-choice","41","87505","0.0-41.0","p823268","ARVXIBUCA8WDZ","3UUIU9GZC6BQMHTLWW3KSJ0W7IE5TB","3DEL4X4EL8RYS6AJ2AEFH3EKYUYXYJ","emotion","mismatch","uniform","","","","","","","661.0999999046326","87855.90000009537","88517","[""stimuli/HF02_HE.jpg"",""stimuli/WM13_HO.jpg"",""stimuli/AF02_SC.jpg"",""stimuli/AM09_DO.jpg""]","stimuli/HF02_HE.jpg","stimuli/WM13_HO.jpg","stimuli/AF02_SC.jpg","stimuli/AM09_DO.jpg","pos1","stimuli/HF02_HE.jpg","HE","HF02","0","5","10","8","stimuli/stars_10.png","74","[""HE"",""HO"",""SC"",""DO""]","[""HF02"",""WM13"",""AF02"",""AM09""]","[10,7,2,2]","[8,6,2,4]","","",""
"show-reward","42","89508","0.0-42.0","p823268","ARVXIBUCA8WDZ","3UUIU9GZC6BQMHTLWW3KSJ0W7IE5TB","3DEL4X4EL8RYS6AJ2AEFH3EKYUYXYJ","emotion","mismatch","uniform","","","","","","","","89018.60000014305","91020.79999995232","","","","","","","","","","","","10","","stimuli/stars_10.png","74","","","","","stimuli/HF02_HE.jpg","",""
"explore-choice","43","92150","0.0-43.0","p823268","ARVXIBUCA8WDZ","3UUIU9GZC6BQMHTLWW3KSJ0W7IE5TB","3DEL4X4EL8RYS6AJ2AEFH3EKYUYXYJ","emotion","mismatch","uniform","","","","","","","2140.399999856949","91021.40000009537","93161.79999995232","[""stimuli/WM13_HE.jpg"",""stimuli/AF02_DO.jpg"",""stimuli/HF02_SC.jpg"",""stimuli/AM09_HO.jpg""]","stimuli/WM13_HE.jpg","stimuli/AF02_DO.jpg","stimuli/HF02_SC.jpg","stimuli/AM09_HO.jpg","pos1","stimuli/WM13_HE.jpg","HE","WM13","0","5","10","8","stimuli/stars_10.png","79","[""HE"",""DO"",""SC"",""HO""]","[""WM13"",""AF02"",""HF02"",""AM09""]","[10,3,4,8]","[8,4,2,6]","","",""
"show-reward","44","94152","0.0-44.0","p823268","ARVXIBUCA8WDZ","3UUIU9GZC6BQMHTLWW3KSJ0W7IE5TB","3DEL4X4EL8RYS6AJ2AEFH3EKYUYXYJ","emotion","mismatch","uniform","","","","","","","","93663.40000009537","95665.29999995232","","","","","","","","","","","","10","","stimuli/stars_10.png","79","","","","","stimuli/WM13_HE.jpg","",""
"explore-choice","45","96262","0.0-45.0","p823268","ARVXIBUCA8WDZ","3UUIU9GZC6BQMHTLWW3KSJ0W7IE5TB","3DEL4X4EL8RYS6AJ2AEFH3EKYUYXYJ","emotion","mismatch","uniform","","","","","","","1608.7999999523163","95665.90000009537","97274.70000004768","[""stimuli/HF02_HE.jpg"",""stimuli/WM13_DO.jpg"",""stimuli/AM09_SC.jpg"",""stimuli/AF02_HO.jpg""]","stimuli/HF02_HE.jpg","stimuli/WM13_DO.jpg","stimuli/AM09_SC.jpg","stimuli/AF02_HO.jpg","pos1","stimuli/HF02_HE.jpg","HE","HF02","0","3","6","8","stimuli/stars_6.png","82","[""HE"",""DO"",""SC"",""HO""]","[""HF02"",""WM13"",""AM09"",""AF02""]","[6,4,2,4]","[8,4,2,6]","","",""
"show-reward","46","98264","0.0-46.0","p823268","ARVXIBUCA8WDZ","3UUIU9GZC6BQMHTLWW3KSJ0W7IE5TB","3DEL4X4EL8RYS6AJ2AEFH3EKYUYXYJ","emotion","mismatch","uniform","","","","","","","","97775.79999995232","99777.60000014305","","","","","","","","","","","","6","","stimuli/stars_6.png","82","","","","","stimuli/HF02_HE.jpg","",""
"explore-choice","47","101263","0.0-47.0","p823268","ARVXIBUCA8WDZ","3UUIU9GZC6BQMHTLWW3KSJ0W7IE5TB","3DEL4X4EL8RYS6AJ2AEFH3EKYUYXYJ","emotion","mismatch","uniform","","","","","","","2496.5","99778.40000009537","102274.90000009537","[""stimuli/AM09_HE.jpg"",""stimuli/HF02_DO.jpg"",""stimuli/AF02_SC.jpg"",""stimuli/WM13_HO.jpg""]","stimuli/AM09_HE.jpg","stimuli/HF02_DO.jpg","stimuli/AF02_SC.jpg","stimuli/WM13_HO.jpg","pos4","stimuli/WM13_HO.jpg","HO","WM13","3","2.5","5","6","stimuli/stars_5.png","84.5","[""HE"",""DO"",""SC"",""HO""]","[""AM09"",""HF02"",""AF02"",""WM13""]","[9,6,1,5]","[8,4,2,6]","","",""
"show-reward","48","103266","0.0-48.0","p823268","ARVXIBUCA8WDZ","3UUIU9GZC6BQMHTLWW3KSJ0W7IE5TB","3DEL4X4EL8RYS6AJ2AEFH3EKYUYXYJ","emotion","mismatch","uniform","","","","","","","","102776.40000009537","104779.10000014305","","","","","","","","","","","","5","","stimuli/stars_5.png","84.5","","","","","stimuli/WM13_HO.jpg","",""
"explore-choice","49","105311","0.0-49.0","p823268","ARVXIBUCA8WDZ","3UUIU9GZC6BQMHTLWW3KSJ0W7IE5TB","3DEL4X4EL8RYS6AJ2AEFH3EKYUYXYJ","emotion","mismatch","uniform","","","","","","","1544.4000000953674","104779.70000004768","106324.10000014305","[""stimuli/AF02_DO.jpg"",""stimuli/AM09_HO.jpg"",""stimuli/HF02_HE.jpg"",""stimuli/WM13_SC.jpg""]","stimuli/AF02_DO.jpg","stimuli/AM09_HO.jpg","stimuli/HF02_HE.jpg","stimuli/WM13_SC.jpg","pos3","stimuli/HF02_HE.jpg","HE","HF02","2","4.5","9","8","stimuli/stars_9.png","89","[""DO"",""HO"",""HE"",""SC""]","[""AF02"",""AM09"",""HF02"",""WM13""]","[6,6,9,0]","[4,6,8,2]","","",""
"show-reward","50","107313","0.0-50.0","p823268","ARVXIBUCA8WDZ","3UUIU9GZC6BQMHTLWW3KSJ0W7IE5TB","3DEL4X4EL8RYS6AJ2AEFH3EKYUYXYJ","emotion","mismatch","uniform","","","","","","","","106825.29999995232","108826.5","","","","","","","","","","","","9","","stimuli/stars_9.png","89","","","","","stimuli/HF02_HE.jpg","",""
"explore-choice","51","109202","0.0-51.0","p823268","ARVXIBUCA8WDZ","3UUIU9GZC6BQMHTLWW3KSJ0W7IE5TB","3DEL4X4EL8RYS6AJ2AEFH3EKYUYXYJ","emotion","mismatch","uniform","","","","","","","1387.7999999523163","108827.10000014305","110214.90000009537","[""stimuli/AF02_HE.jpg"",""stimuli/HF02_DO.jpg"",""stimuli/WM13_HO.jpg"",""stimuli/AM09_SC.jpg""]","stimuli/AF02_HE.jpg","stimuli/HF02_DO.jpg","stimuli/WM13_HO.jpg","stimuli/AM09_SC.jpg","pos1","stimuli/AF02_HE.jpg","HE","AF02","0","4","8","8","stimuli/stars_8.png","93","[""HE"",""DO"",""HO"",""SC""]","[""AF02"",""HF02"",""WM13"",""AM09""]","[8,2,7,2]","[8,4,6,2]","","",""
"show-reward","52","111205","0.0-52.0","p823268","ARVXIBUCA8WDZ","3UUIU9GZC6BQMHTLWW3KSJ0W7IE5TB","3DEL4X4EL8RYS6AJ2AEFH3EKYUYXYJ","emotion","mismatch","uniform","","","","","","","","110715.70000004768","112717.5","","","","","","","","","","","","8","","stimuli/stars_8.png","93","","","","","stimuli/AF02_HE.jpg","",""
"explore-choice","53","112408","0.0-53.0","p823268","ARVXIBUCA8WDZ","3UUIU9GZC6BQMHTLWW3KSJ0W7IE5TB","3DEL4X4EL8RYS6AJ2AEFH3EKYUYXYJ","emotion","mismatch","uniform","","","","","","","702.5","112718.20000004768","113420.70000004768","[""stimuli/HF02_DO.jpg"",""stimuli/WM13_HE.jpg"",""stimuli/AF02_SC.jpg"",""stimuli/AM09_HO.jpg""]","stimuli/HF02_DO.jpg","stimuli/WM13_HE.jpg","stimuli/AF02_SC.jpg","stimuli/AM09_HO.jpg","pos4","stimuli/AM09_HO.jpg","HO","AM09","3","3.5","7","6","stimuli/stars_7.png","96.5","[""DO"",""HE"",""SC"",""HO""]","[""HF02"",""WM13"",""AF02"",""AM09""]","[3,8,3,7]","[4,8,2,6]","","",""
"show-reward","54","114411","0.0-54.0","p823268","ARVXIBUCA8WDZ","3UUIU9GZC6BQMHTLWW3KSJ0W7IE5TB","3DEL4X4EL8RYS6AJ2AEFH3EKYUYXYJ","emotion","mismatch","uniform","","","","","","","","113922.10000014305","115924.29999995232","","","","","","","","","","","","7","","stimuli/stars_7.png","96.5","","","","","stimuli/AM09_HO.jpg","",""
"explore-choice","55","115920","0.0-55.0","p823268","ARVXIBUCA8WDZ","3UUIU9GZC6BQMHTLWW3KSJ0W7IE5TB","3DEL4X4EL8RYS6AJ2AEFH3EKYUYXYJ","emotion","mismatch","uniform","","","","","","","1007.3000001907349","115924.79999995232","116932.10000014305","[""stimuli/AM09_SC.jpg"",""stimuli/AF02_DO.jpg"",""stimuli/WM13_HO.jpg"",""stimuli/HF02_HE.jpg""]","stimuli/AM09_SC.jpg","stimuli/AF02_DO.jpg","stimuli/WM13_HO.jpg","stimuli/HF02_HE.jpg","pos4","stimuli/HF02_HE.jpg","HE","HF02","3","3.5","7","8","stimuli/stars_7.png","100","[""SC"",""DO"",""HO"",""HE""]","[""AM09"",""AF02"",""WM13"",""HF02""]","[0,5,7,7]","[2,4,6,8]","","",""
"show-reward","56","117922","0.0-56.0","p823268","ARVXIBUCA8WDZ","3UUIU9GZC6BQMHTLWW3KSJ0W7IE5TB","3DEL4X4EL8RYS6AJ2AEFH3EKYUYXYJ","emotion","mismatch","uniform","","","","","","","","117433.40000009537","119434.90000009537","","","","","","","","","","","","7","","stimuli/stars_7.png","100","","","","","stimuli/HF02_HE.jpg","",""
"explore-choice","57","119265","0.0-57.0","p823268","ARVXIBUCA8WDZ","3UUIU9GZC6BQMHTLWW3KSJ0W7IE5TB","3DEL4X4EL8RYS6AJ2AEFH3EKYUYXYJ","emotion","mismatch","uniform","","","","","","","841.2000000476837","119435.5","120276.70000004768","[""stimuli/AM09_HE.jpg"",""stimuli/AF02_HO.jpg"",""stimuli/WM13_DO.jpg"",""stimuli/HF02_SC.jpg""]","stimuli/AM09_HE.jpg","stimuli/AF02_HO.jpg","stimuli/WM13_DO.jpg","stimuli/HF02_SC.jpg","pos1","stimuli/AM09_HE.jpg","HE","AM09","0","5","10","8","stimuli/stars_10.png","105","[""HE"",""HO"",""DO"",""SC""]","[""AM09"",""AF02"",""WM13"",""HF02""]","[10,8,2,1]","[8,6,4,2]","","",""
"show-reward","58","121268","0.0-58.0","p823268","ARVXIBUCA8WDZ","3UUIU9GZC6BQMHTLWW3KSJ0W7IE5TB","3DEL4X4EL8RYS6AJ2AEFH3EKYUYXYJ","emotion","mismatch","uniform","","","","","","","","120778.5","122780.70000004768","","","","","","","","","","","","10","","stimuli/stars_10.png","105","","","","","stimuli/AM09_HE.jpg","",""
"explore-choice","59","123409","0.0-59.0","p823268","ARVXIBUCA8WDZ","3UUIU9GZC6BQMHTLWW3KSJ0W7IE5TB","3DEL4X4EL8RYS6AJ2AEFH3EKYUYXYJ","emotion","mismatch","uniform","","","","","","","1639.5","122781.40000009537","124420.90000009537","[""stimuli/WM13_DO.jpg"",""stimuli/AM09_HE.jpg"",""stimuli/AF02_SC.jpg"",""stimuli/HF02_HO.jpg""]","stimuli/WM13_DO.jpg","stimuli/AM09_HE.jpg","stimuli/AF02_SC.jpg","stimuli/HF02_HO.jpg","pos2","stimuli/AM09_HE.jpg","HE","AM09","1","4.5","9","8","stimuli/stars_9.png","109.5","[""DO"",""HE"",""SC"",""HO""]","[""WM13"",""AM09"",""AF02"",""HF02""]","[3,9,4,6]","[4,8,2,6]","","",""
"show-reward","60","125413","0.0-60.0","p823268","ARVXIBUCA8WDZ","3UUIU9GZC6BQMHTLWW3KSJ0W7IE5TB","3DEL4X4EL8RYS6AJ2AEFH3EKYUYXYJ","emotion","mismatch","uniform","","","","","","","","124923.20000004768","126925.60000014305","","","","","","","","","","","","9","","stimuli/stars_9.png","109.5","","","","","stimuli/AM09_HE.jpg","",""
"explore-choice","61","127398","0.0-61.0","p823268","ARVXIBUCA8WDZ","3UUIU9GZC6BQMHTLWW3KSJ0W7IE5TB","3DEL4X4EL8RYS6AJ2AEFH3EKYUYXYJ","emotion","mismatch","uniform","","","","","","","1483.7000000476837","126926.20000004768","128409.90000009537","[""stimuli/WM13_HO.jpg"",""stimuli/HF02_DO.jpg"",""stimuli/AF02_SC.jpg"",""stimuli/AM09_HE.jpg""]","stimuli/WM13_HO.jpg","stimuli/HF02_DO.jpg","stimuli/AF02_SC.jpg","stimuli/AM09_HE.jpg","pos4","stimuli/AM09_HE.jpg","HE","AM09","3","4.5","9","8","stimuli/stars_9.png","114","[""HO"",""DO"",""SC"",""HE""]","[""WM13"",""HF02"",""AF02"",""AM09""]","[5,6,1,9]","[6,4,2,8]","","",""
"show-reward","62","129401","0.0-62.0","p823268","ARVXIBUCA8WDZ","3UUIU9GZC6BQMHTLWW3KSJ0W7IE5TB","3DEL4X4EL8RYS6AJ2AEFH3EKYUYXYJ","emotion","mismatch","uniform","","","","","","","","128911.29999995232","130913.60000014305","","","","","","","","","","","","9","","stimuli/stars_9.png","114","","","","","stimuli/AM09_HE.jpg","",""
"explore-choice","63","131195","0.0-63.0","p823268","ARVXIBUCA8WDZ","3UUIU9GZC6BQMHTLWW3KSJ0W7IE5TB","3DEL4X4EL8RYS6AJ2AEFH3EKYUYXYJ","emotion","mismatch","uniform","","","","","","","1292.7000000476837","130914.20000004768","132206.90000009537","[""stimuli/AF02_DO.jpg"",""stimuli/WM13_SC.jpg"",""stimuli/HF02_HE.jpg"",""stimuli/AM09_HO.jpg""]","stimuli/AF02_DO.jpg","stimuli/WM13_SC.jpg","stimuli/HF02_HE.jpg","stimuli/AM09_HO.jpg","pos3","stimuli/HF02_HE.jpg","HE","HF02","2","4.5","9","8","stimuli/stars_9.png","118.5","[""DO"",""SC"",""HE"",""HO""]","[""AF02"",""WM13"",""HF02"",""AM09""]","[6,0,9,6]","[4,2,8,6]","","",""
"show-reward","64","133198","0.0-64.0","p823268","ARVXIBUCA8WDZ","3UUIU9GZC6BQMHTLWW3KSJ0W7IE5TB","3DEL4X4EL8RYS6AJ2AEFH3EKYUYXYJ","emotion","mismatch","uniform","","","","","","","","132708.5","134711.10000014305","","","","","","","","","","","","9","","stimuli/stars_9.png","118.5","","","","","stimuli/HF02_HE.jpg","",""
"explore-choice","65","135027","0.0-65.0","p823268","ARVXIBUCA8WDZ","3UUIU9GZC6BQMHTLWW3KSJ0W7IE5TB","3DEL4X4EL8RYS6AJ2AEFH3EKYUYXYJ","emotion","mismatch","uniform","","","","","","","1327.8999998569489","134711.90000009537","136039.79999995232","[""stimuli/AM09_DO.jpg"",""stimuli/HF02_SC.jpg"",""stimuli/WM13_HO.jpg"",""stimuli/AF02_HE.jpg""]","stimuli/AM09_DO.jpg","stimuli/HF02_SC.jpg","stimuli/WM13_HO.jpg","stimuli/AF02_HE.jpg","pos4","stimuli/AF02_HE.jpg","HE","AF02","3","4.5","9","8","stimuli/stars_9.png","123","[""DO"",""SC"",""HO"",""HE""]","[""AM09"",""HF02"",""WM13"",""AF02""]","[6,3,8,9]","[4,2,6,8]","","",""
"show-reward","66","137032","0.0-66.0","p823268","ARVXIBUCA8WDZ","3UUIU9GZC6BQMHTLWW3KSJ0W7IE5TB","3DEL4X4EL8RYS6AJ2AEFH3EKYUYXYJ","emotion","mismatch","uniform","","","","","","","","136541.20000004768","138544.60000014305","","","","","","","","","","","","9","","stimuli/stars_9.png","123","","","","","stimuli/AF02_HE.jpg","",""
"explore-choice","67","139101","0.0-67.0","p823268","ARVXIBUCA8WDZ","3UUIU9GZC6BQMHTLWW3KSJ0W7IE5TB","3DEL4X4EL8RYS6AJ2AEFH3EKYUYXYJ","emotion","mismatch","uniform","","","","","","","1567.2999999523163","138545.40000009537","140112.70000004768","[""stimuli/AM09_SC.jpg"",""stimuli/HF02_HO.jpg"",""stimuli/WM13_DO.jpg"",""stimuli/AF02_HE.jpg""]","stimuli/AM09_SC.jpg","stimuli/HF02_HO.jpg","stimuli/WM13_DO.jpg","stimuli/AF02_HE.jpg","pos4","stimuli/AF02_HE.jpg","HE","AF02","3","3.5","7","8","stimuli/stars_7.png","126.5","[""SC"",""HO"",""DO"",""HE""]","[""AM09"",""HF02"",""WM13"",""AF02""]","[3,8,4,7]","[2,6,4,8]","","",""
"show-reward","68","141103","0.0-68.0","p823268","ARVXIBUCA8WDZ","3UUIU9GZC6BQMHTLWW3KSJ0W7IE5TB","3DEL4X4EL8RYS6AJ2AEFH3EKYUYXYJ","emotion","mismatch","uniform","","","","","","","","140614.40000009537","142616","","","","","","","","","","","","7","","stimuli/stars_7.png","126.5","","","","","stimuli/AF02_HE.jpg","",""
"explore-choice","69","143010","0.0-69.0","p823268","ARVXIBUCA8WDZ","3UUIU9GZC6BQMHTLWW3KSJ0W7IE5TB","3DEL4X4EL8RYS6AJ2AEFH3EKYUYXYJ","emotion","mismatch","uniform","","","","","","","1406.2999999523163","142616.5","144022.79999995232","[""stimuli/AM09_DO.jpg"",""stimuli/AF02_HE.jpg"",""stimuli/WM13_SC.jpg"",""stimuli/HF02_HO.jpg""]","stimuli/AM09_DO.jpg","stimuli/AF02_HE.jpg","stimuli/WM13_SC.jpg","stimuli/HF02_HO.jpg","pos2","stimuli/AF02_HE.jpg","HE","AF02","1","4","8","8","stimuli/stars_8.png","130.5","[""DO"",""HE"",""SC"",""HO""]","[""AM09"",""AF02"",""WM13"",""HF02""]","[6,8,2,5]","[4,8,2,6]","","",""
"show-reward","70","145012","0.0-70.0","p823268","ARVXIBUCA8WDZ","3UUIU9GZC6BQMHTLWW3KSJ0W7IE5TB","3DEL4X4EL8RYS6AJ2AEFH3EKYUYXYJ","emotion","mismatch","uniform","","","","","","","","144523.5","146525.5","","","","","","","","","","","","8","","stimuli/stars_8.png","130.5","","","","","stimuli/AF02_HE.jpg","",""
"explore-choice","71","146780","0.0-71.0","p823268","ARVXIBUCA8WDZ","3UUIU9GZC6BQMHTLWW3KSJ0W7IE5TB","3DEL4X4EL8RYS6AJ2AEFH3EKYUYXYJ","emotion","mismatch","uniform","","","","","","","1265.8999998569489","146526.10000014305","147792","[""stimuli/HF02_HE.jpg"",""stimuli/AF02_HO.jpg"",""stimuli/AM09_SC.jpg"",""stimuli/WM13_DO.jpg""]","stimuli/HF02_HE.jpg","stimuli/AF02_HO.jpg","stimuli/AM09_SC.jpg","stimuli/WM13_DO.jpg","pos1","stimuli/HF02_HE.jpg","HE","HF02","0","3","6","8","stimuli/stars_6.png","133.5","[""HE"",""HO"",""SC"",""DO""]","[""HF02"",""AF02"",""AM09"",""WM13""]","[6,4,2,4]","[8,6,2,4]","","",""
"show-reward","72","148783","0.0-72.0","p823268","ARVXIBUCA8WDZ","3UUIU9GZC6BQMHTLWW3KSJ0W7IE5TB","3DEL4X4EL8RYS6AJ2AEFH3EKYUYXYJ","emotion","mismatch","uniform","","","","","","","","148293.70000004768","150295.60000014305","","","","","","","","","","","","6","","stimuli/stars_6.png","133.5","","","","","stimuli/HF02_HE.jpg","",""
"explore-choice","73","149950","0.0-73.0","p823268","ARVXIBUCA8WDZ","3UUIU9GZC6BQMHTLWW3KSJ0W7IE5TB","3DEL4X4EL8RYS6AJ2AEFH3EKYUYXYJ","emotion","mismatch","uniform","","","","","","","665.7000000476837","150296.29999995232","150962","[""stimuli/HF02_HE.jpg"",""stimuli/AM09_DO.jpg"",""stimuli/WM13_HO.jpg"",""stimuli/AF02_SC.jpg""]","stimuli/HF02_HE.jpg","stimuli/AM09_DO.jpg","stimuli/WM13_HO.jpg","stimuli/AF02_SC.jpg","pos1","stimuli/HF02_HE.jpg","HE","HF02","0","5","10","8","stimuli/stars_10.png","138.5","[""HE"",""DO"",""HO"",""SC""]","[""HF02"",""AM09"",""WM13"",""AF02""]","[10,2,7,2]","[8,4,6,2]","","",""
"show-reward","74","151952","0.0-74.0","p823268","ARVXIBUCA8WDZ","3UUIU9GZC6BQMHTLWW3KSJ0W7IE5TB","3DEL4X4EL8RYS6AJ2AEFH3EKYUYXYJ","emotion","mismatch","uniform","","","","","","","","151463.5","153464.5","","","","","","","","","","","","10","","stimuli/stars_10.png","138.5","","","","","stimuli/HF02_HE.jpg","",""
"explore-choice","75","154527","0.0-75.0","p823268","ARVXIBUCA8WDZ","3UUIU9GZC6BQMHTLWW3KSJ0W7IE5TB","3DEL4X4EL8RYS6AJ2AEFH3EKYUYXYJ","emotion","mismatch","uniform","","","","","","","2074.7999999523163","153465.20000004768","155540","[""stimuli/AM09_SC.jpg"",""stimuli/WM13_HO.jpg"",""stimuli/HF02_DO.jpg"",""stimuli/AF02_HE.jpg""]","stimuli/AM09_SC.jpg","stimuli/WM13_HO.jpg","stimuli/HF02_DO.jpg","stimuli/AF02_HE.jpg","pos4","stimuli/AF02_HE.jpg","HE","AF02","3","4","8","8","stimuli/stars_8.png","142.5","[""SC"",""HO"",""DO"",""HE""]","[""AM09"",""WM13"",""HF02"",""AF02""]","[2,7,2,8]","[2,6,4,8]","","",""
"show-reward","76","156530","0.0-76.0","p823268","ARVXIBUCA8WDZ","3UUIU9GZC6BQMHTLWW3KSJ0W7IE5TB","3DEL4X4EL8RYS6AJ2AEFH3EKYUYXYJ","emotion","mismatch","uniform","","","","","","","","156040.70000004768","158042.70000004768","","","","","","","","","","","","8","","stimuli/stars_8.png","142.5","","","","","stimuli/AF02_HE.jpg","",""
"explore-choice","77","158128","0.0-77.0","p823268","ARVXIBUCA8WDZ","3UUIU9GZC6BQMHTLWW3KSJ0W7IE5TB","3DEL4X4EL8RYS6AJ2AEFH3EKYUYXYJ","emotion","mismatch","uniform","","","","","","","1097.8000001907349","158043.29999995232","159141.10000014305","[""stimuli/AF02_SC.jpg"",""stimuli/AM09_HO.jpg"",""stimuli/WM13_DO.jpg"",""stimuli/HF02_HE.jpg""]","stimuli/AF02_SC.jpg","stimuli/AM09_HO.jpg","stimuli/WM13_DO.jpg","stimuli/HF02_HE.jpg","pos4","stimuli/HF02_HE.jpg","HE","HF02","3","5","10","8","stimuli/stars_10.png","147.5","[""SC"",""HO"",""DO"",""HE""]","[""AF02"",""AM09"",""WM13"",""HF02""]","[3,6,5,10]","[2,6,4,8]","","",""
"show-reward","78","160131","0.0-78.0","p823268","ARVXIBUCA8WDZ","3UUIU9GZC6BQMHTLWW3KSJ0W7IE5TB","3DEL4X4EL8RYS6AJ2AEFH3EKYUYXYJ","emotion","mismatch","uniform","","","","","","","","159642.29999995232","161644.5","","","","","","","","","","","","10","","stimuli/stars_10.png","147.5","","","","","stimuli/HF02_HE.jpg","",""
"explore-choice","79","163901","0.0-79.0","p823268","ARVXIBUCA8WDZ","3UUIU9GZC6BQMHTLWW3KSJ0W7IE5TB","3DEL4X4EL8RYS6AJ2AEFH3EKYUYXYJ","emotion","mismatch","uniform","","","","","","","3267.5","161645.10000014305","164912.60000014305","[""stimuli/WM13_SC.jpg"",""stimuli/HF02_DO.jpg"",""stimuli/AM09_HE.jpg"",""stimuli/AF02_HO.jpg""]","stimuli/WM13_SC.jpg","stimuli/HF02_DO.jpg","stimuli/AM09_HE.jpg","stimuli/AF02_HO.jpg","pos3","stimuli/AM09_HE.jpg","HE","AM09","2","4.5","9","8","stimuli/stars_9.png","152","[""SC"",""DO"",""HE"",""HO""]","[""WM13"",""HF02"",""AM09"",""AF02""]","[2,2,9,6]","[2,4,8,6]","","",""
"show-reward","80","165903","0.0-80.0","p823268","ARVXIBUCA8WDZ","3UUIU9GZC6BQMHTLWW3KSJ0W7IE5TB","3DEL4X4EL8RYS6AJ2AEFH3EKYUYXYJ","emotion","mismatch","uniform","","","","","","","","165414.29999995232","167415.60000014305","","","","","","","","","","","","9","","stimuli/stars_9.png","152","","","","","stimuli/AM09_HE.jpg","",""
"explore-choice","81","168276","0.0-81.0","p823268","ARVXIBUCA8WDZ","3UUIU9GZC6BQMHTLWW3KSJ0W7IE5TB","3DEL4X4EL8RYS6AJ2AEFH3EKYUYXYJ","emotion","mismatch","uniform","","","","","","","1872.7999999523163","167416.40000009537","169289.20000004768","[""stimuli/HF02_HO.jpg"",""stimuli/WM13_HE.jpg"",""stimuli/AM09_SC.jpg"",""stimuli/AF02_DO.jpg""]","stimuli/HF02_HO.jpg","stimuli/WM13_HE.jpg","stimuli/AM09_SC.jpg","stimuli/AF02_DO.jpg","pos2","stimuli/WM13_HE.jpg","HE","WM13","1","5","10","8","stimuli/stars_10.png","157","[""HO"",""HE"",""SC"",""DO""]","[""HF02"",""WM13"",""AM09"",""AF02""]","[8,10,3,5]","[6,8,2,4]","","",""
"show-reward","82","170279","0.0-82.0","p823268","ARVXIBUCA8WDZ","3UUIU9GZC6BQMHTLWW3KSJ0W7IE5TB","3DEL4X4EL8RYS6AJ2AEFH3EKYUYXYJ","emotion","mismatch","uniform","","","","","","","","169790.40000009537","171792.40000009537","","","","","","","","","","","","10","","stimuli/stars_10.png","157","","","","","stimuli/WM13_HE.jpg","",""
"explore-choice","83","171794","0.0-83.0","p823268","ARVXIBUCA8WDZ","3UUIU9GZC6BQMHTLWW3KSJ0W7IE5TB","3DEL4X4EL8RYS6AJ2AEFH3EKYUYXYJ","emotion","mismatch","uniform","","","","","","","1013.6999998092651","171793.10000014305","172806.79999995232","[""stimuli/AF02_SC.jpg"",""stimuli/AM09_DO.jpg"",""stimuli/WM13_HE.jpg"",""stimuli/HF02_HO.jpg""]","stimuli/AF02_SC.jpg","stimuli/AM09_DO.jpg","stimuli/WM13_HE.jpg","stimuli/HF02_HO.jpg","pos3","stimuli/WM13_HE.jpg","HE","WM13","2","3","6","8","stimuli/stars_6.png","160","[""SC"",""DO"",""HE"",""HO""]","[""AF02"",""AM09"",""WM13"",""HF02""]","[4,4,6,8]","[2,4,8,6]","","",""
"show-reward","84","173796","0.0-84.0","p823268","ARVXIBUCA8WDZ","3UUIU9GZC6BQMHTLWW3KSJ0W7IE5TB","3DEL4X4EL8RYS6AJ2AEFH3EKYUYXYJ","emotion","mismatch","uniform","","","","","","","","173308","175309.79999995232","","","","","","","","","","","","6","","stimuli/stars_6.png","160","","","","","stimuli/WM13_HE.jpg","",""
"explore-choice","85","176459","0.0-85.0","p823268","ARVXIBUCA8WDZ","3UUIU9GZC6BQMHTLWW3KSJ0W7IE5TB","3DEL4X4EL8RYS6AJ2AEFH3EKYUYXYJ","emotion","mismatch","uniform","","","","","","","2161.4000000953674","175310.29999995232","177471.70000004768","[""stimuli/AM09_HE.jpg"",""stimuli/WM13_HO.jpg"",""stimuli/HF02_SC.jpg"",""stimuli/AF02_DO.jpg""]","stimuli/AM09_HE.jpg","stimuli/WM13_HO.jpg","stimuli/HF02_SC.jpg","stimuli/AF02_DO.jpg","pos1","stimuli/AM09_HE.jpg","HE","AM09","0","3","6","8","stimuli/stars_6.png","163","[""HE"",""HO"",""SC"",""DO""]","[""AM09"",""WM13"",""HF02"",""AF02""]","[6,8,2,5]","[8,6,2,4]","","",""
"show-reward","86","178462","0.0-86.0","p823268","ARVXIBUCA8WDZ","3UUIU9GZC6BQMHTLWW3KSJ0W7IE5TB","3DEL4X4EL8RYS6AJ2AEFH3EKYUYXYJ","emotion","mismatch","uniform","","","","","","","","177973.29999995232","179975.5","","","","","","","","","","","","6","","stimuli/stars_6.png","163","","","","","stimuli/AM09_HE.jpg","",""
"explore-choice","87","180791","0.0-87.0","p823268","ARVXIBUCA8WDZ","3UUIU9GZC6BQMHTLWW3KSJ0W7IE5TB","3DEL4X4EL8RYS6AJ2AEFH3EKYUYXYJ","emotion","mismatch","uniform","","","","","","","1828.3000001907349","179976.29999995232","181804.60000014305","[""stimuli/HF02_DO.jpg"",""stimuli/WM13_SC.jpg"",""stimuli/AF02_HE.jpg"",""stimuli/AM09_HO.jpg""]","stimuli/HF02_DO.jpg","stimuli/WM13_SC.jpg","stimuli/AF02_HE.jpg","stimuli/AM09_HO.jpg","pos3","stimuli/AF02_HE.jpg","HE","AF02","2","5","10","8","stimuli/stars_10.png","168","[""DO"",""SC"",""HE"",""HO""]","[""HF02"",""WM13"",""AF02"",""AM09""]","[5,4,10,8]","[4,2,8,6]","","",""
"show-reward","88","182794","0.0-88.0","p823268","ARVXIBUCA8WDZ","3UUIU9GZC6BQMHTLWW3KSJ0W7IE5TB","3DEL4X4EL8RYS6AJ2AEFH3EKYUYXYJ","emotion","mismatch","uniform","","","","","","","","182305.5","184307.70000004768","","","","","","","","","","","","10","","stimuli/stars_10.png","168","","","","","stimuli/AF02_HE.jpg","",""
"explore-choice","89","184537","0.0-89.0","p823268","ARVXIBUCA8WDZ","3UUIU9GZC6BQMHTLWW3KSJ0W7IE5TB","3DEL4X4EL8RYS6AJ2AEFH3EKYUYXYJ","emotion","mismatch","uniform","","","","","","","1242.1000001430511","184308.5","185550.60000014305","[""stimuli/HF02_SC.jpg"",""stimuli/AF02_HO.jpg"",""stimuli/WM13_HE.jpg"",""stimuli/AM09_DO.jpg""]","stimuli/HF02_SC.jpg","stimuli/AF02_HO.jpg","stimuli/WM13_HE.jpg","stimuli/AM09_DO.jpg","pos3","stimuli/WM13_HE.jpg","HE","WM13","2","4","8","8","stimuli/stars_8.png","172","[""SC"",""HO"",""HE"",""DO""]","[""HF02"",""AF02"",""WM13"",""AM09""]","[0,4,8,6]","[2,6,8,4]","","",""
"show-reward","90","186540","0.0-90.0","p823268","ARVXIBUCA8WDZ","3UUIU9GZC6BQMHTLWW3KSJ0W7IE5TB","3DEL4X4EL8RYS6AJ2AEFH3EKYUYXYJ","emotion","mismatch","uniform","","","","","","","","186051.40000009537","188053.60000014305","","","","","","","","","","","","8","","stimuli/stars_8.png","172","","","","","stimuli/WM13_HE.jpg","",""
"explore-choice","91","187968","0.0-91.0","p823268","ARVXIBUCA8WDZ","3UUIU9GZC6BQMHTLWW3KSJ0W7IE5TB","3DEL4X4EL8RYS6AJ2AEFH3EKYUYXYJ","emotion","mismatch","uniform","","","","","","","926.7000000476837","188054.29999995232","188981","[""stimuli/HF02_HE.jpg"",""stimuli/AF02_HO.jpg"",""stimuli/AM09_DO.jpg"",""stimuli/WM13_SC.jpg""]","stimuli/HF02_HE.jpg","stimuli/AF02_HO.jpg","stimuli/AM09_DO.jpg","stimuli/WM13_SC.jpg","pos1","stimuli/HF02_HE.jpg","HE","HF02","0","5","10","8","stimuli/stars_10.png","177","[""HE"",""HO"",""DO"",""SC""]","[""HF02"",""AF02"",""AM09"",""WM13""]","[10,6,3,1]","[8,6,4,2]","","",""
"show-reward","92","189970","0.0-92.0","p823268","ARVXIBUCA8WDZ","3UUIU9GZC6BQMHTLWW3KSJ0W7IE5TB","3DEL4X4EL8RYS6AJ2AEFH3EKYUYXYJ","emotion","mismatch","uniform","","","","","","","","189482.20000004768","191483.70000004768","","","","","","","","","","","","10","","stimuli/stars_10.png","177","","","","","stimuli/HF02_HE.jpg","",""
"explore-choice","93","194481","0.0-93.0","p823268","ARVXIBUCA8WDZ","3UUIU9GZC6BQMHTLWW3KSJ0W7IE5TB","3DEL4X4EL8RYS6AJ2AEFH3EKYUYXYJ","emotion","mismatch","uniform","","","","","","","4009.2000000476837","191484.40000009537","195493.60000014305","[""stimuli/WM13_HE.jpg"",""stimuli/AF02_SC.jpg"",""stimuli/HF02_DO.jpg"",""stimuli/AM09_HO.jpg""]","stimuli/WM13_HE.jpg","stimuli/AF02_SC.jpg","stimuli/HF02_DO.jpg","stimuli/AM09_HO.jpg","pos1","stimuli/WM13_HE.jpg","HE","WM13","0","4","8","8","stimuli/stars_8.png","181","[""HE"",""SC"",""DO"",""HO""]","[""WM13"",""AF02"",""HF02"",""AM09""]","[8,3,3,7]","[8,2,4,6]","","",""
"show-reward","94","196484","0.0-94.0","p823268","ARVXIBUCA8WDZ","3UUIU9GZC6BQMHTLWW3KSJ0W7IE5TB","3DEL4X4EL8RYS6AJ2AEFH3EKYUYXYJ","emotion","mismatch","uniform","","","","","","","","195995.60000014305","197997.60000014305","","","","","","","","","","","","8","","stimuli/stars_8.png","181","","","","","stimuli/WM13_HE.jpg","",""
"explore-choice","95","198455","0.0-95.0","p823268","ARVXIBUCA8WDZ","3UUIU9GZC6BQMHTLWW3KSJ0W7IE5TB","3DEL4X4EL8RYS6AJ2AEFH3EKYUYXYJ","emotion","mismatch","uniform","","","","","","","1469.3000001907349","197998.29999995232","199467.60000014305","[""stimuli/WM13_SC.jpg"",""stimuli/AF02_DO.jpg"",""stimuli/AM09_HE.jpg"",""stimuli/HF02_HO.jpg""]","stimuli/WM13_SC.jpg","stimuli/AF02_DO.jpg","stimuli/AM09_HE.jpg","stimuli/HF02_HO.jpg","pos3","stimuli/AM09_HE.jpg","HE","AM09","2","3","6","8","stimuli/stars_6.png","184","[""SC"",""DO"",""HE"",""HO""]","[""WM13"",""AF02"",""AM09"",""HF02""]","[1,6,6,4]","[2,4,8,6]","","",""
"show-reward","96","200458","0.0-96.0","p823268","ARVXIBUCA8WDZ","3UUIU9GZC6BQMHTLWW3KSJ0W7IE5TB","3DEL4X4EL8RYS6AJ2AEFH3EKYUYXYJ","emotion","mismatch","uniform","","","","","","","","199969.5","201972.10000014305","","","","","","","","","","","","6","","stimuli/stars_6.png","184","","","","","stimuli/AM09_HE.jpg","",""
"explore-choice","97","202531","0.0-97.0","p823268","ARVXIBUCA8WDZ","3UUIU9GZC6BQMHTLWW3KSJ0W7IE5TB","3DEL4X4EL8RYS6AJ2AEFH3EKYUYXYJ","emotion","mismatch","uniform","","","","","","","1571.2000000476837","201972.70000004768","203543.90000009537","[""stimuli/HF02_SC.jpg"",""stimuli/AM09_HO.jpg"",""stimuli/WM13_HE.jpg"",""stimuli/AF02_DO.jpg""]","stimuli/HF02_SC.jpg","stimuli/AM09_HO.jpg","stimuli/WM13_HE.jpg","stimuli/AF02_DO.jpg","pos3","stimuli/WM13_HE.jpg","HE","WM13","2","5","10","8","stimuli/stars_10.png","189","[""SC"",""HO"",""HE"",""DO""]","[""HF02"",""AM09"",""WM13"",""AF02""]","[4,8,10,3]","[2,6,8,4]","","",""
"show-reward","98","204533","0.0-98.0","p823268","ARVXIBUCA8WDZ","3UUIU9GZC6BQMHTLWW3KSJ0W7IE5TB","3DEL4X4EL8RYS6AJ2AEFH3EKYUYXYJ","emotion","mismatch","uniform","","","","","","","","204045.60000014305","206046.60000014305","","","","","","","","","","","","10","","stimuli/stars_10.png","189","","","","","stimuli/WM13_HE.jpg","",""
"explore-choice","99","207585","0.0-99.0","p823268","ARVXIBUCA8WDZ","3UUIU9GZC6BQMHTLWW3KSJ0W7IE5TB","3DEL4X4EL8RYS6AJ2AEFH3EKYUYXYJ","emotion","mismatch","uniform","","","","","","","2550.5","206047.20000004768","208597.70000004768","[""stimuli/AM09_HO.jpg"",""stimuli/AF02_HE.jpg"",""stimuli/HF02_SC.jpg"",""stimuli/WM13_DO.jpg""]","stimuli/AM09_HO.jpg","stimuli/AF02_HE.jpg","stimuli/HF02_SC.jpg","stimuli/WM13_DO.jpg","pos2","stimuli/AF02_HE.jpg","HE","AF02","1","5","10","8","stimuli/stars_10.png","194","[""HO"",""HE"",""SC"",""DO""]","[""AM09"",""AF02"",""HF02"",""WM13""]","[4,10,0,2]","[6,8,2,4]","","",""
"show-reward","100","209587","0.0-100.0","p823268","ARVXIBUCA8WDZ","3UUIU9GZC6BQMHTLWW3KSJ0W7IE5TB","3DEL4X4EL8RYS6AJ2AEFH3EKYUYXYJ","emotion","mismatch","uniform","","","","","","","","209099.20000004768","211101","","","","","","","","","","","","10","","stimuli/stars_10.png","194","","","","","stimuli/AF02_HE.jpg","",""
"explore-choice","101","213166","0.0-101.0","p823268","ARVXIBUCA8WDZ","3UUIU9GZC6BQMHTLWW3KSJ0W7IE5TB","3DEL4X4EL8RYS6AJ2AEFH3EKYUYXYJ","emotion","mismatch","uniform","","","","","","","3077.2999999523163","211101.5","214178.79999995232","[""stimuli/WM13_HE.jpg"",""stimuli/AM09_SC.jpg"",""stimuli/HF02_DO.jpg"",""stimuli/AF02_HO.jpg""]","stimuli/WM13_HE.jpg","stimuli/AM09_SC.jpg","stimuli/HF02_DO.jpg","stimuli/AF02_HO.jpg","pos4","stimuli/AF02_HO.jpg","HO","AF02","3","3.5","7","6","stimuli/stars_7.png","197.5","[""HE"",""SC"",""DO"",""HO""]","[""WM13"",""AM09"",""HF02"",""AF02""]","[6,0,6,7]","[8,2,4,6]","","",""
"show-reward","102","215168","0.0-102.0","p823268","ARVXIBUCA8WDZ","3UUIU9GZC6BQMHTLWW3KSJ0W7IE5TB","3DEL4X4EL8RYS6AJ2AEFH3EKYUYXYJ","emotion","mismatch","uniform","","","","","","","","214679.60000014305","216681.60000014305","","","","","","","","","","","","7","","stimuli/stars_7.png","197.5","","","","","stimuli/AF02_HO.jpg","",""
"explore-choice","103","218969","0.0-103.0","p823268","ARVXIBUCA8WDZ","3UUIU9GZC6BQMHTLWW3KSJ0W7IE5TB","3DEL4X4EL8RYS6AJ2AEFH3EKYUYXYJ","emotion","mismatch","uniform","","","","","","","3297.9000000953674","216682.29999995232","219980.20000004768","[""stimuli/WF11_AO.jpg"",""stimuli/BF05_FO.jpg"",""stimuli/BM07_CC.jpg"",""stimuli/WF04_SUR.jpg""]","stimuli/WF11_AO.jpg","stimuli/BF05_FO.jpg","stimuli/BM07_CC.jpg","stimuli/WF04_SUR.jpg","pos4","stimuli/WF04_SUR.jpg","SUR","WF04","3","1.5","3","4","stimuli/stars_3.png","199","[""AO"",""FO"",""CC"",""SUR""]","[""WF11"",""BF05"",""BM07"",""WF04""]","[9,6,3,3]","[8,6,2,4]","","",""
"show-reward","104","220971","0.0-104.0","p823268","ARVXIBUCA8WDZ","3UUIU9GZC6BQMHTLWW3KSJ0W7IE5TB","3DEL4X4EL8RYS6AJ2AEFH3EKYUYXYJ","emotion","mismatch","uniform","","","","","","","","220482.60000014305","222484.20000004768","","","","","","","","","","","","3","","stimuli/stars_3.png","199","","","","","stimuli/WF04_SUR.jpg","",""
"explore-choice","105","223231","0.0-105.0","p823268","ARVXIBUCA8WDZ","3UUIU9GZC6BQMHTLWW3KSJ0W7IE5TB","3DEL4X4EL8RYS6AJ2AEFH3EKYUYXYJ","emotion","mismatch","uniform","","","","","","","1760","222484.79999995232","224244.79999995232","[""stimuli/BF05_SUR.jpg"",""stimuli/WF04_AO.jpg"",""stimuli/WF11_CC.jpg"",""stimuli/BM07_FO.jpg""]","stimuli/BF05_SUR.jpg","stimuli/WF04_AO.jpg","stimuli/WF11_CC.jpg","stimuli/BM07_FO.jpg","pos2","stimuli/WF04_AO.jpg","AO","WF04","1","2","4","4","stimuli/stars_4.png","201","[""SUR"",""AO"",""CC"",""FO""]","[""BF05"",""WF04"",""WF11"",""BM07""]","[6,4,7,1]","[6,4,8,2]","","",""
"show-reward","106","225234","0.0-106.0","p823268","ARVXIBUCA8WDZ","3UUIU9GZC6BQMHTLWW3KSJ0W7IE5TB","3DEL4X4EL8RYS6AJ2AEFH3EKYUYXYJ","emotion","mismatch","uniform","","","","","","","","224745.5","226747.60000014305","","","","","","","","","","","","4","","stimuli/stars_4.png","201","","","","","stimuli/WF04_AO.jpg","",""
"explore-choice","107","227692","0.0-107.0","p823268","ARVXIBUCA8WDZ","3UUIU9GZC6BQMHTLWW3KSJ0W7IE5TB","3DEL4X4EL8RYS6AJ2AEFH3EKYUYXYJ","emotion","mismatch","uniform","","","","","","","1955.5","226748.29999995232","228703.79999995232","[""stimuli/WF11_SUR.jpg"",""stimuli/BM07_AO.jpg"",""stimuli/WF04_FO.jpg"",""stimuli/BF05_CC.jpg""]","stimuli/WF11_SUR.jpg","stimuli/BM07_AO.jpg","stimuli/WF04_FO.jpg","stimuli/BF05_CC.jpg","pos3","stimuli/WF04_FO.jpg","FO","WF04","2","2.5","5","4","stimuli/stars_5.png","203.5","[""SUR"",""AO"",""FO"",""CC""]","[""WF11"",""BM07"",""WF04"",""BF05""]","[7,1,5,5]","[8,2,4,6]","","",""
"show-reward","108","229694","0.0-108.0","p823268","ARVXIBUCA8WDZ","3UUIU9GZC6BQMHTLWW3KSJ0W7IE5TB","3DEL4X4EL8RYS6AJ2AEFH3EKYUYXYJ","emotion","mismatch","uniform","","","","","","","","229205.70000004768","231207.5","","","","","","","","","","","","5","","stimuli/stars_5.png","203.5","","","","","stimuli/WF04_FO.jpg","",""
"explore-choice","109","230803","0.0-109.0","p823268","ARVXIBUCA8WDZ","3UUIU9GZC6BQMHTLWW3KSJ0W7IE5TB","3DEL4X4EL8RYS6AJ2AEFH3EKYUYXYJ","emotion","mismatch","uniform","","","","","","","608.3999998569489","231208.40000009537","231816.79999995232","[""stimuli/WF04_SUR.jpg"",""stimuli/BF05_FO.jpg"",""stimuli/BM07_AO.jpg"",""stimuli/WF11_CC.jpg""]","stimuli/WF04_SUR.jpg","stimuli/BF05_FO.jpg","stimuli/BM07_AO.jpg","stimuli/WF11_CC.jpg","pos3","stimuli/BM07_AO.jpg","AO","BM07","2","0","0","2","stimuli/stars_0.png","203.5","[""SUR"",""FO"",""AO"",""CC""]","[""WF04"",""BF05"",""BM07"",""WF11""]","[4,4,0,9]","[4,6,2,8]","","",""
"show-reward","110","232806","0.0-110.0","p823268","ARVXIBUCA8WDZ","3UUIU9GZC6BQMHTLWW3KSJ0W7IE5TB","3DEL4X4EL8RYS6AJ2AEFH3EKYUYXYJ","emotion","mismatch","uniform","","","","","","","","232317.40000009537","234319.60000014305","","","","","","","","","","","","0","","stimuli/stars_0.png","203.5","","","","","stimuli/BM07_AO.jpg","",""
"explore-choice","111","234763","0.0-111.0","p823268","ARVXIBUCA8WDZ","3UUIU9GZC6BQMHTLWW3KSJ0W7IE5TB","3DEL4X4EL8RYS6AJ2AEFH3EKYUYXYJ","emotion","mismatch","uniform","","","","","","","1455.7000000476837","234320.20000004768","235775.90000009537","[""stimuli/BM07_AO.jpg"",""stimuli/WF11_SUR.jpg"",""stimuli/BF05_FO.jpg"",""stimuli/WF04_CC.jpg""]","stimuli/BM07_AO.jpg","stimuli/WF11_SUR.jpg","stimuli/BF05_FO.jpg","stimuli/WF04_CC.jpg","pos3","stimuli/BF05_FO.jpg","FO","BF05","2","4","8","6","stimuli/stars_8.png","207.5","[""AO"",""SUR"",""FO"",""CC""]","[""BM07"",""WF11"",""BF05"",""WF04""]","[2,6,8,5]","[2,8,6,4]","","",""
"show-reward","112","236766","0.0-112.0","p823268","ARVXIBUCA8WDZ","3UUIU9GZC6BQMHTLWW3KSJ0W7IE5TB","3DEL4X4EL8RYS6AJ2AEFH3EKYUYXYJ","emotion","mismatch","uniform","","","","","","","","236277.40000009537","238279.29999995232","","","","","","","","","","","","8","","stimuli/stars_8.png","207.5","","","","","stimuli/BF05_FO.jpg","",""
"explore-choice","113","238886","0.0-113.0","p823268","ARVXIBUCA8WDZ","3UUIU9GZC6BQMHTLWW3KSJ0W7IE5TB","3DEL4X4EL8RYS6AJ2AEFH3EKYUYXYJ","emotion","mismatch","uniform","","","","","","","1618.7999999523163","238279.90000009537","239898.70000004768","[""stimuli/WF04_AO.jpg"",""stimuli/BF05_SUR.jpg"",""stimuli/BM07_CC.jpg"",""stimuli/WF11_FO.jpg""]","stimuli/WF04_AO.jpg","stimuli/BF05_SUR.jpg","stimuli/BM07_CC.jpg","stimuli/WF11_FO.jpg","pos2","stimuli/BF05_SUR.jpg","SUR","BF05","1","2.5","5","6","stimuli/stars_5.png","210","[""AO"",""SUR"",""CC"",""FO""]","[""WF04"",""BF05"",""BM07"",""WF11""]","[3,5,4,10]","[4,6,2,8]","","",""
"show-reward","114","240888","0.0-114.0","p823268","ARVXIBUCA8WDZ","3UUIU9GZC6BQMHTLWW3KSJ0W7IE5TB","3DEL4X4EL8RYS6AJ2AEFH3EKYUYXYJ","emotion","mismatch","uniform","","","","","","","","240399.60000014305","242401.70000004768","","","","","","","","","","","","5","","stimuli/stars_5.png","210","","","","","stimuli/BF05_SUR.jpg","",""
"explore-choice","115","243837","0.0-115.0","p823268","ARVXIBUCA8WDZ","3UUIU9GZC6BQMHTLWW3KSJ0W7IE5TB","3DEL4X4EL8RYS6AJ2AEFH3EKYUYXYJ","emotion","mismatch","uniform","","","","","","","2447.5999999046326","242402.20000004768","244849.79999995232","[""stimuli/WF04_SUR.jpg"",""stimuli/BF05_AO.jpg"",""stimuli/WF11_CC.jpg"",""stimuli/BM07_FO.jpg""]","stimuli/WF04_SUR.jpg","stimuli/BF05_AO.jpg","stimuli/WF11_CC.jpg","stimuli/BM07_FO.jpg","pos1","stimuli/WF04_SUR.jpg","SUR","WF04","0","1","2","4","stimuli/stars_2.png","211","[""SUR"",""AO"",""CC"",""FO""]","[""WF04"",""BF05"",""WF11"",""BM07""]","[2,5,6,2]","[4,6,8,2]","","",""
"show-reward","116","245840","0.0-116.0","p823268","ARVXIBUCA8WDZ","3UUIU9GZC6BQMHTLWW3KSJ0W7IE5TB","3DEL4X4EL8RYS6AJ2AEFH3EKYUYXYJ","emotion","mismatch","uniform","","","","","","","","245351.10000014305","247353.29999995232","","","","","","","","","","","","2","","stimuli/stars_2.png","211","","","","","stimuli/WF04_SUR.jpg","",""
"explore-choice","117","247820","0.0-117.0","p823268","ARVXIBUCA8WDZ","3UUIU9GZC6BQMHTLWW3KSJ0W7IE5TB","3DEL4X4EL8RYS6AJ2AEFH3EKYUYXYJ","emotion","mismatch","uniform","","","","","","","1478.7000000476837","247353.90000009537","248832.60000014305","[""stimuli/BM07_FO.jpg"",""stimuli/WF04_AO.jpg"",""stimuli/WF11_SUR.jpg"",""stimuli/BF05_CC.jpg""]","stimuli/BM07_FO.jpg","stimuli/WF04_AO.jpg","stimuli/WF11_SUR.jpg","stimuli/BF05_CC.jpg","pos4","stimuli/BF05_CC.jpg","CC","BF05","3","3.5","7","6","stimuli/stars_7.png","214.5","[""FO"",""AO"",""SUR"",""CC""]","[""BM07"",""WF04"",""WF11"",""BF05""]","[0,4,7,7]","[2,4,8,6]","","",""
"show-reward","118","249824","0.0-118.0","p823268","ARVXIBUCA8WDZ","3UUIU9GZC6BQMHTLWW3KSJ0W7IE5TB","3DEL4X4EL8RYS6AJ2AEFH3EKYUYXYJ","emotion","mismatch","uniform","","","","","","","","249334.79999995232","251337.70000004768","","","","","","","","","","","","7","","stimuli/stars_7.png","214.5","","","","","stimuli/BF05_CC.jpg","",""
"explore-choice","119","251884","0.0-119.0","p823268","ARVXIBUCA8WDZ","3UUIU9GZC6BQMHTLWW3KSJ0W7IE5TB","3DEL4X4EL8RYS6AJ2AEFH3EKYUYXYJ","emotion","mismatch","uniform","","","","","","","1557.8000001907349","251338.29999995232","252896.10000014305","[""stimuli/BF05_SUR.jpg"",""stimuli/WF04_CC.jpg"",""stimuli/BM07_AO.jpg"",""stimuli/WF11_FO.jpg""]","stimuli/BF05_SUR.jpg","stimuli/WF04_CC.jpg","stimuli/BM07_AO.jpg","stimuli/WF11_FO.jpg","pos2","stimuli/WF04_CC.jpg","CC","WF04","1","1","2","4","stimuli/stars_2.png","215.5","[""SUR"",""CC"",""AO"",""FO""]","[""BF05"",""WF04"",""BM07"",""WF11""]","[5,2,2,7]","[6,4,2,8]","","",""
"show-reward","120","253887","0.0-120.0","p823268","ARVXIBUCA8WDZ","3UUIU9GZC6BQMHTLWW3KSJ0W7IE5TB","3DEL4X4EL8RYS6AJ2AEFH3EKYUYXYJ","emotion","mismatch","uniform","","","","","","","","253398.29999995232","255399.90000009537","","","","","","","","","","","","2","","stimuli/stars_2.png","215.5","","","","","stimuli/WF04_CC.jpg","",""
"explore-choice","121","255469","0.0-121.0","p823268","ARVXIBUCA8WDZ","3UUIU9GZC6BQMHTLWW3KSJ0W7IE5TB","3DEL4X4EL8RYS6AJ2AEFH3EKYUYXYJ","emotion","mismatch","uniform","","","","","","","1081.2999999523163","255400.70000004768","256482","[""stimuli/BF05_CC.jpg"",""stimuli/WF11_FO.jpg"",""stimuli/WF04_SUR.jpg"",""stimuli/BM07_AO.jpg""]","stimuli/BF05_CC.jpg","stimuli/WF11_FO.jpg","stimuli/WF04_SUR.jpg","stimuli/BM07_AO.jpg","pos1","stimuli/BF05_CC.jpg","CC","BF05","0","3.5","7","6","stimuli/stars_7.png","219","[""CC"",""FO"",""SUR"",""AO""]","[""BF05"",""WF11"",""WF04"",""BM07""]","[7,9,3,0]","[6,8,4,2]","","",""
"show-reward","122","257472","0.0-122.0","p823268","ARVXIBUCA8WDZ","3UUIU9GZC6BQMHTLWW3KSJ0W7IE5TB","3DEL4X4EL8RYS6AJ2AEFH3EKYUYXYJ","emotion","mismatch","uniform","","","","","","","","256983.5","258985.79999995232","","","","","","","","","","","","7","","stimuli/stars_7.png","219","","","","","stimuli/BF05_CC.jpg","",""
"explore-choice","123","260249","0.0-123.0","p823268","ARVXIBUCA8WDZ","3UUIU9GZC6BQMHTLWW3KSJ0W7IE5TB","3DEL4X4EL8RYS6AJ2AEFH3EKYUYXYJ","emotion","mismatch","uniform","","","","","","","2274.2000000476837","258986.5","261260.70000004768","[""stimuli/WF11_SUR.jpg"",""stimuli/BF05_AO.jpg"",""stimuli/WF04_CC.jpg"",""stimuli/BM07_FO.jpg""]","stimuli/WF11_SUR.jpg","stimuli/BF05_AO.jpg","stimuli/WF04_CC.jpg","stimuli/BM07_FO.jpg","pos1","stimuli/WF11_SUR.jpg","SUR","WF11","0","3","6","8","stimuli/stars_6.png","222","[""SUR"",""AO"",""CC"",""FO""]","[""WF11"",""BF05"",""WF04"",""BM07""]","[6,4,2,3]","[8,6,4,2]","","",""
"show-reward","124","262252","0.0-124.0","p823268","ARVXIBUCA8WDZ","3UUIU9GZC6BQMHTLWW3KSJ0W7IE5TB","3DEL4X4EL8RYS6AJ2AEFH3EKYUYXYJ","emotion","mismatch","uniform","","","","","","","","261763.40000009537","263765.7000000477","","","","","","","","","","","","6","","stimuli/stars_6.png","222","","","","","stimuli/WF11_SUR.jpg","",""
"explore-choice","125","264814","0.0-125.0","p823268","ARVXIBUCA8WDZ","3UUIU9GZC6BQMHTLWW3KSJ0W7IE5TB","3DEL4X4EL8RYS6AJ2AEFH3EKYUYXYJ","emotion","mismatch","uniform","","","","","","","2060.5","263766.2999999523","265826.7999999523","[""stimuli/BM07_CC.jpg"",""stimuli/WF11_SUR.jpg"",""stimuli/WF04_AO.jpg"",""stimuli/BF05_FO.jpg""]","stimuli/BM07_CC.jpg","stimuli/WF11_SUR.jpg","stimuli/WF04_AO.jpg","stimuli/BF05_FO.jpg","pos2","stimuli/WF11_SUR.jpg","SUR","WF11","1","5","10","8","stimuli/stars_10.png","227","[""CC"",""SUR"",""AO"",""FO""]","[""BM07"",""WF11"",""WF04"",""BF05""]","[4,10,6,7]","[2,8,4,6]","","",""
"show-reward","126","266817","0.0-126.0","p823268","ARVXIBUCA8WDZ","3UUIU9GZC6BQMHTLWW3KSJ0W7IE5TB","3DEL4X4EL8RYS6AJ2AEFH3EKYUYXYJ","emotion","mismatch","uniform","","","","","","","","266328.2999999523","268330.7000000477","","","","","","","","","","","","10","","stimuli/stars_10.png","227","","","","","stimuli/WF11_SUR.jpg","",""
"explore-choice","127","268972","0.0-127.0","p823268","ARVXIBUCA8WDZ","3UUIU9GZC6BQMHTLWW3KSJ0W7IE5TB","3DEL4X4EL8RYS6AJ2AEFH3EKYUYXYJ","emotion","mismatch","uniform","","","","","","","1652.9000000953674","268331.2000000477","269984.10000014305","[""stimuli/BF05_SUR.jpg"",""stimuli/BM07_FO.jpg"",""stimuli/WF04_CC.jpg"",""stimuli/WF11_AO.jpg""]","stimuli/BF05_SUR.jpg","stimuli/BM07_FO.jpg","stimuli/WF04_CC.jpg","stimuli/WF11_AO.jpg","pos4","stimuli/WF11_AO.jpg","AO","WF11","3","5","10","8","stimuli/stars_10.png","232","[""SUR"",""FO"",""CC"",""AO""]","[""BF05"",""BM07"",""WF04"",""WF11""]","[7,3,3,10]","[6,2,4,8]","","",""
"show-reward","128","270973","0.0-128.0","p823268","ARVXIBUCA8WDZ","3UUIU9GZC6BQMHTLWW3KSJ0W7IE5TB","3DEL4X4EL8RYS6AJ2AEFH3EKYUYXYJ","emotion","mismatch","uniform","","","","","","","","270485.60000014305","272486.60000014305","","","","","","","","","","","","10","","stimuli/stars_10.png","232","","","","","stimuli/WF11_AO.jpg","",""
"explore-choice","129","272505","0.0-129.0","p823268","ARVXIBUCA8WDZ","3UUIU9GZC6BQMHTLWW3KSJ0W7IE5TB","3DEL4X4EL8RYS6AJ2AEFH3EKYUYXYJ","emotion","mismatch","uniform","","","","","","","1030.5","272487.2000000477","273517.7000000477","[""stimuli/WF11_AO.jpg"",""stimuli/WF04_CC.jpg"",""stimuli/BF05_FO.jpg"",""stimuli/BM07_SUR.jpg""]","stimuli/WF11_AO.jpg","stimuli/WF04_CC.jpg","stimuli/BF05_FO.jpg","stimuli/BM07_SUR.jpg","pos1","stimuli/WF11_AO.jpg","AO","WF11","0","3","6","8","stimuli/stars_6.png","235","[""AO"",""CC"",""FO"",""SUR""]","[""WF11"",""WF04"",""BF05"",""BM07""]","[6,4,6,4]","[8,4,6,2]","","",""
"show-reward","130","274508","0.0-130.0","p823268","ARVXIBUCA8WDZ","3UUIU9GZC6BQMHTLWW3KSJ0W7IE5TB","3DEL4X4EL8RYS6AJ2AEFH3EKYUYXYJ","emotion","mismatch","uniform","","","","","","","","274019.2999999523","276021","","","","","","","","","","","","6","","stimuli/stars_6.png","235","","","","","stimuli/WF11_AO.jpg","",""
"explore-choice","131","275593","0.0-131.0","p823268","ARVXIBUCA8WDZ","3UUIU9GZC6BQMHTLWW3KSJ0W7IE5TB","3DEL4X4EL8RYS6AJ2AEFH3EKYUYXYJ","emotion","mismatch","uniform","","","","","","","585.2000000476837","276021.7000000477","276606.90000009537","[""stimuli/WF11_FO.jpg"",""stimuli/BF05_CC.jpg"",""stimuli/BM07_SUR.jpg"",""stimuli/WF04_AO.jpg""]","stimuli/WF11_FO.jpg","stimuli/BF05_CC.jpg","stimuli/BM07_SUR.jpg","stimuli/WF04_AO.jpg","pos1","stimuli/WF11_FO.jpg","FO","WF11","0","4","8","8","stimuli/stars_8.png","239","[""FO"",""CC"",""SUR"",""AO""]","[""WF11"",""BF05"",""BM07"",""WF04""]","[8,5,4,2]","[8,6,2,4]","","",""
"show-reward","132","277608","0.0-132.0","p823268","ARVXIBUCA8WDZ","3UUIU9GZC6BQMHTLWW3KSJ0W7IE5TB","3DEL4X4EL8RYS6AJ2AEFH3EKYUYXYJ","emotion","mismatch","uniform","","","","","","","","277107.5","279121.10000014305","","","","","","","","","","","","8","","stimuli/stars_8.png","239","","","","","stimuli/WF11_FO.jpg","",""
"explore-choice","133","280047","0.0-133.0","p823268","ARVXIBUCA8WDZ","3UUIU9GZC6BQMHTLWW3KSJ0W7IE5TB","3DEL4X4EL8RYS6AJ2AEFH3EKYUYXYJ","emotion","mismatch","uniform","","","","","","","1938.5","279121.60000014305","281060.10000014305","[""stimuli/BM07_CC.jpg"",""stimuli/BF05_AO.jpg"",""stimuli/WF04_FO.jpg"",""stimuli/WF11_SUR.jpg""]","stimuli/BM07_CC.jpg","stimuli/BF05_AO.jpg","stimuli/WF04_FO.jpg","stimuli/WF11_SUR.jpg","pos4","stimuli/WF11_SUR.jpg","SUR","WF11","3","5","10","8","stimuli/stars_10.png","244","[""CC"",""AO"",""FO"",""SUR""]","[""BM07"",""BF05"",""WF04"",""WF11""]","[0,7,2,10]","[2,6,4,8]","","",""
"show-reward","134","282051","0.0-134.0","p823268","ARVXIBUCA8WDZ","3UUIU9GZC6BQMHTLWW3KSJ0W7IE5TB","3DEL4X4EL8RYS6AJ2AEFH3EKYUYXYJ","emotion","mismatch","uniform","","","","","","","","281561.2999999523","283564.10000014305","","","","","","","","","","","","10","","stimuli/stars_10.png","244","","","","","stimuli/WF11_SUR.jpg","",""
"explore-choice","135","283597","0.0-135.0","p823268","ARVXIBUCA8WDZ","3UUIU9GZC6BQMHTLWW3KSJ0W7IE5TB","3DEL4X4EL8RYS6AJ2AEFH3EKYUYXYJ","emotion","mismatch","uniform","","","","","","","1044.7000000476837","283565","284609.7000000477","[""stimuli/BM07_SUR.jpg"",""stimuli/BF05_AO.jpg"",""stimuli/WF04_FO.jpg"",""stimuli/WF11_CC.jpg""]","stimuli/BM07_SUR.jpg","stimuli/BF05_AO.jpg","stimuli/WF04_FO.jpg","stimuli/WF11_CC.jpg","pos4","stimuli/WF11_CC.jpg","CC","WF11","3","4.5","9","8","stimuli/stars_9.png","248.5","[""SUR"",""AO"",""FO"",""CC""]","[""BM07"",""BF05"",""WF04"",""WF11""]","[2,5,5,9]","[2,6,4,8]","","",""
"show-reward","136","285599","0.0-136.0","p823268","ARVXIBUCA8WDZ","3UUIU9GZC6BQMHTLWW3KSJ0W7IE5TB","3DEL4X4EL8RYS6AJ2AEFH3EKYUYXYJ","emotion","mismatch","uniform","","","","","","","","285110.60000014305","287112.5","","","","","","","","","","","","9","","stimuli/stars_9.png","248.5","","","","","stimuli/WF11_CC.jpg","",""
"explore-choice","137","287032","0.0-137.0","p823268","ARVXIBUCA8WDZ","3UUIU9GZC6BQMHTLWW3KSJ0W7IE5TB","3DEL4X4EL8RYS6AJ2AEFH3EKYUYXYJ","emotion","mismatch","uniform","","","","","","","930.6999998092651","287113.10000014305","288043.7999999523","[""stimuli/WF04_SUR.jpg"",""stimuli/BM07_CC.jpg"",""stimuli/BF05_AO.jpg"",""stimuli/WF11_FO.jpg""]","stimuli/WF04_SUR.jpg","stimuli/BM07_CC.jpg","stimuli/BF05_AO.jpg","stimuli/WF11_FO.jpg","pos4","stimuli/WF11_FO.jpg","FO","WF11","3","3.5","7","8","stimuli/stars_7.png","252","[""SUR"",""CC"",""AO"",""FO""]","[""WF04"",""BM07"",""BF05"",""WF11""]","[4,2,8,7]","[4,2,6,8]","","",""
"show-reward","138","289035","0.0-138.0","p823268","ARVXIBUCA8WDZ","3UUIU9GZC6BQMHTLWW3KSJ0W7IE5TB","3DEL4X4EL8RYS6AJ2AEFH3EKYUYXYJ","emotion","mismatch","uniform","","","","","","","","288546.5","290547.7999999523","","","","","","","","","","","","7","","stimuli/stars_7.png","252","","","","","stimuli/WF11_FO.jpg","",""
"explore-choice","139","290430","0.0-139.0","p823268","ARVXIBUCA8WDZ","3UUIU9GZC6BQMHTLWW3KSJ0W7IE5TB","3DEL4X4EL8RYS6AJ2AEFH3EKYUYXYJ","emotion","mismatch","uniform","","","","","","","893.2999999523163","290548.40000009537","291441.7000000477","[""stimuli/WF11_FO.jpg"",""stimuli/BM07_SUR.jpg"",""stimuli/BF05_AO.jpg"",""stimuli/WF04_CC.jpg""]","stimuli/WF11_FO.jpg","stimuli/BM07_SUR.jpg","stimuli/BF05_AO.jpg","stimuli/WF04_CC.jpg","pos1","stimuli/WF11_FO.jpg","FO","WF11","0","3.5","7","8","stimuli/stars_7.png","255.5","[""FO"",""SUR"",""AO"",""CC""]","[""WF11"",""BM07"",""BF05"",""WF04""]","[7,2,7,2]","[8,2,6,4]","","",""
"show-reward","140","292432","0.0-140.0","p823268","ARVXIBUCA8WDZ","3UUIU9GZC6BQMHTLWW3KSJ0W7IE5TB","3DEL4X4EL8RYS6AJ2AEFH3EKYUYXYJ","emotion","mismatch","uniform","","","","","","","","291943.2999999523","293944.90000009537","","","","","","","","","","","","7","","stimuli/stars_7.png","255.5","","","","","stimuli/WF11_FO.jpg","",""
"explore-choice","141","293571","0.0-141.0","p823268","ARVXIBUCA8WDZ","3UUIU9GZC6BQMHTLWW3KSJ0W7IE5TB","3DEL4X4EL8RYS6AJ2AEFH3EKYUYXYJ","emotion","mismatch","uniform","","","","","","","637.2999999523163","293945.60000014305","294582.90000009537","[""stimuli/WF11_AO.jpg"",""stimuli/BM07_SUR.jpg"",""stimuli/BF05_CC.jpg"",""stimuli/WF04_FO.jpg""]","stimuli/WF11_AO.jpg","stimuli/BM07_SUR.jpg","stimuli/BF05_CC.jpg","stimuli/WF04_FO.jpg","pos1","stimuli/WF11_AO.jpg","AO","WF11","0","4","8","8","stimuli/stars_8.png","259.5","[""AO"",""SUR"",""CC"",""FO""]","[""WF11"",""BM07"",""BF05"",""WF04""]","[8,4,7,3]","[8,2,6,4]","","",""
"show-reward","142","295573","0.0-142.0","p823268","ARVXIBUCA8WDZ","3UUIU9GZC6BQMHTLWW3KSJ0W7IE5TB","3DEL4X4EL8RYS6AJ2AEFH3EKYUYXYJ","emotion","mismatch","uniform","","","","","","","","295084.7999999523","297086","","","","","","","","","","","","8","","stimuli/stars_8.png","259.5","","","","","stimuli/WF11_AO.jpg","",""
"explore-choice","143","296829","0.0-143.0","p823268","ARVXIBUCA8WDZ","3UUIU9GZC6BQMHTLWW3KSJ0W7IE5TB","3DEL4X4EL8RYS6AJ2AEFH3EKYUYXYJ","emotion","mismatch","uniform","","","","","","","754.2000000476837","297086.5","297840.7000000477","[""stimuli/WF11_AO.jpg"",""stimuli/BF05_CC.jpg"",""stimuli/BM07_FO.jpg"",""stimuli/WF04_SUR.jpg""]","stimuli/WF11_AO.jpg","stimuli/BF05_CC.jpg","stimuli/BM07_FO.jpg","stimuli/WF04_SUR.jpg","pos1","stimuli/WF11_AO.jpg","AO","WF11","0","3","6","8","stimuli/stars_6.png","262.5","[""AO"",""CC"",""FO"",""SUR""]","[""WF11"",""BF05"",""BM07"",""WF04""]","[6,8,3,6]","[8,6,2,4]","","",""
"show-reward","144","298832","0.0-144.0","p823268","ARVXIBUCA8WDZ","3UUIU9GZC6BQMHTLWW3KSJ0W7IE5TB","3DEL4X4EL8RYS6AJ2AEFH3EKYUYXYJ","emotion","mismatch","uniform","","","","","","","","298342.7999999523","300345.2000000477","","","","","","","","","","","","6","","stimuli/stars_6.png","262.5","","","","","stimuli/WF11_AO.jpg","",""
"explore-choice","145","299870","0.0-145.0","p823268","ARVXIBUCA8WDZ","3UUIU9GZC6BQMHTLWW3KSJ0W7IE5TB","3DEL4X4EL8RYS6AJ2AEFH3EKYUYXYJ","emotion","mismatch","uniform","","","","","","","535.5999999046326","300346.10000014305","300881.7000000477","[""stimuli/WF11_AO.jpg"",""stimuli/BM07_CC.jpg"",""stimuli/BF05_SUR.jpg"",""stimuli/WF04_FO.jpg""]","stimuli/WF11_AO.jpg","stimuli/BM07_CC.jpg","stimuli/BF05_SUR.jpg","stimuli/WF04_FO.jpg","pos1","stimuli/WF11_AO.jpg","AO","WF11","0","4","8","8","stimuli/stars_8.png","266.5","[""AO"",""CC"",""SUR"",""FO""]","[""WF11"",""BM07"",""BF05"",""WF04""]","[8,1,8,2]","[8,2,6,4]","","",""
"show-reward","146","301872","0.0-146.0","p823268","ARVXIBUCA8WDZ","3UUIU9GZC6BQMHTLWW3KSJ0W7IE5TB","3DEL4X4EL8RYS6AJ2AEFH3EKYUYXYJ","emotion","mismatch","uniform","","","","","","","","301383.40000009537","303385","","","","","","","","","","","","8","","stimuli/stars_8.png","266.5","","","","","stimuli/WF11_AO.jpg","",""
"explore-choice","147","303443","0.0-147.0","p823268","ARVXIBUCA8WDZ","3UUIU9GZC6BQMHTLWW3KSJ0W7IE5TB","3DEL4X4EL8RYS6AJ2AEFH3EKYUYXYJ","emotion","mismatch","uniform","","","","","","","1070.0999999046326","303385.7000000477","304455.7999999523","[""stimuli/BF05_FO.jpg"",""stimuli/BM07_SUR.jpg"",""stimuli/WF11_CC.jpg"",""stimuli/WF04_AO.jpg""]","stimuli/BF05_FO.jpg","stimuli/BM07_SUR.jpg","stimuli/WF11_CC.jpg","stimuli/WF04_AO.jpg","pos3","stimuli/WF11_CC.jpg","CC","WF11","2","3","6","8","stimuli/stars_6.png","269.5","[""FO"",""SUR"",""CC"",""AO""]","[""BF05"",""BM07"",""WF11"",""WF04""]","[7,4,6,4]","[6,2,8,4]","","",""
"show-reward","148","305447","0.0-148.0","p823268","ARVXIBUCA8WDZ","3UUIU9GZC6BQMHTLWW3KSJ0W7IE5TB","3DEL4X4EL8RYS6AJ2AEFH3EKYUYXYJ","emotion","mismatch","uniform","","","","","","","","304956.90000009537","306960.10000014305","","","","","","","","","","","","6","","stimuli/stars_6.png","269.5","","","","","stimuli/WF11_CC.jpg","",""
"explore-choice","149","306890","0.0-149.0","p823268","ARVXIBUCA8WDZ","3UUIU9GZC6BQMHTLWW3KSJ0W7IE5TB","3DEL4X4EL8RYS6AJ2AEFH3EKYUYXYJ","emotion","mismatch","uniform","","","","","","","941","306960.90000009537","307901.90000009537","[""stimuli/WF04_FO.jpg"",""stimuli/BM07_AO.jpg"",""stimuli/BF05_SUR.jpg"",""stimuli/WF11_CC.jpg""]","stimuli/WF04_FO.jpg","stimuli/BM07_AO.jpg","stimuli/BF05_SUR.jpg","stimuli/WF11_CC.jpg","pos4","stimuli/WF11_CC.jpg","CC","WF11","3","4.5","9","8","stimuli/stars_9.png","274","[""FO"",""AO"",""SUR"",""CC""]","[""WF04"",""BM07"",""BF05"",""WF11""]","[3,4,5,9]","[4,2,6,8]","","",""
"show-reward","150","308893","0.0-150.0","p823268","ARVXIBUCA8WDZ","3UUIU9GZC6BQMHTLWW3KSJ0W7IE5TB","3DEL4X4EL8RYS6AJ2AEFH3EKYUYXYJ","emotion","mismatch","uniform","","","","","","","","308403.90000009537","310405.60000014305","","","","","","","","","","","","9","","stimuli/stars_9.png","274","","","","","stimuli/WF11_CC.jpg","",""
"explore-choice","151","310365","0.0-151.0","p823268","ARVXIBUCA8WDZ","3UUIU9GZC6BQMHTLWW3KSJ0W7IE5TB","3DEL4X4EL8RYS6AJ2AEFH3EKYUYXYJ","emotion","mismatch","uniform","","","","","","","970.2999999523163","310406.40000009537","311376.7000000477","[""stimuli/BF05_FO.jpg"",""stimuli/WF11_CC.jpg"",""stimuli/BM07_SUR.jpg"",""stimuli/WF04_AO.jpg""]","stimuli/BF05_FO.jpg","stimuli/WF11_CC.jpg","stimuli/BM07_SUR.jpg","stimuli/WF04_AO.jpg","pos2","stimuli/WF11_CC.jpg","CC","WF11","1","3","6","8","stimuli/stars_6.png","277","[""FO"",""CC"",""SUR"",""AO""]","[""BF05"",""WF11"",""BM07"",""WF04""]","[7,6,4,4]","[6,8,2,4]","","",""
"show-reward","152","312367","0.0-152.0","p823268","ARVXIBUCA8WDZ","3UUIU9GZC6BQMHTLWW3KSJ0W7IE5TB","3DEL4X4EL8RYS6AJ2AEFH3EKYUYXYJ","emotion","mismatch","uniform","","","","","","","","311878.2999999523","313880","","","","","","","","","","","","6","","stimuli/stars_6.png","277","","","","","stimuli/WF11_CC.jpg","",""
"explore-choice","153","313692","0.0-153.0","p823268","ARVXIBUCA8WDZ","3UUIU9GZC6BQMHTLWW3KSJ0W7IE5TB","3DEL4X4EL8RYS6AJ2AEFH3EKYUYXYJ","emotion","mismatch","uniform","","","","","","","823.0999999046326","313880.60000014305","314703.7000000477","[""stimuli/WF11_SUR.jpg"",""stimuli/BF05_AO.jpg"",""stimuli/WF04_CC.jpg"",""stimuli/BM07_FO.jpg""]","stimuli/WF11_SUR.jpg","stimuli/BF05_AO.jpg","stimuli/WF04_CC.jpg","stimuli/BM07_FO.jpg","pos1","stimuli/WF11_SUR.jpg","SUR","WF11","0","3","6","8","stimuli/stars_6.png","280","[""SUR"",""AO"",""CC"",""FO""]","[""WF11"",""BF05"",""WF04"",""BM07""]","[6,4,2,3]","[8,6,4,2]","","",""
"show-reward","154","315693","0.0-154.0","p823268","ARVXIBUCA8WDZ","3UUIU9GZC6BQMHTLWW3KSJ0W7IE5TB","3DEL4X4EL8RYS6AJ2AEFH3EKYUYXYJ","emotion","mismatch","uniform","","","","","","","","315205","317205.90000009537","","","","","","","","","","","","6","","stimuli/stars_6.png","280","","","","","stimuli/WF11_SUR.jpg","",""
"explore-choice","155","316826","0.0-155.0","p823268","ARVXIBUCA8WDZ","3UUIU9GZC6BQMHTLWW3KSJ0W7IE5TB","3DEL4X4EL8RYS6AJ2AEFH3EKYUYXYJ","emotion","mismatch","uniform","","","","","","","631.3999998569489","317206.40000009537","317837.7999999523","[""stimuli/WF11_FO.jpg"",""stimuli/WF04_CC.jpg"",""stimuli/BF05_SUR.jpg"",""stimuli/BM07_AO.jpg""]","stimuli/WF11_FO.jpg","stimuli/WF04_CC.jpg","stimuli/BF05_SUR.jpg","stimuli/BM07_AO.jpg","pos1","stimuli/WF11_FO.jpg","FO","WF11","0","3.5","7","8","stimuli/stars_7.png","283.5","[""FO"",""CC"",""SUR"",""AO""]","[""WF11"",""WF04"",""BF05"",""BM07""]","[7,2,5,2]","[8,4,6,2]","","",""
"show-reward","156","318829","0.0-156.0","p823268","ARVXIBUCA8WDZ","3UUIU9GZC6BQMHTLWW3KSJ0W7IE5TB","3DEL4X4EL8RYS6AJ2AEFH3EKYUYXYJ","emotion","mismatch","uniform","","","","","","","","318339.7000000477","320341.60000014305","","","","","","","","","","","","7","","stimuli/stars_7.png","283.5","","","","","stimuli/WF11_FO.jpg","",""
"explore-choice","157","320934","0.0-157.0","p823268","ARVXIBUCA8WDZ","3UUIU9GZC6BQMHTLWW3KSJ0W7IE5TB","3DEL4X4EL8RYS6AJ2AEFH3EKYUYXYJ","emotion","mismatch","uniform","","","","","","","1604","320342.10000014305","321946.10000014305","[""stimuli/BM07_CC.jpg"",""stimuli/WF11_SUR.jpg"",""stimuli/WF04_FO.jpg"",""stimuli/BF05_AO.jpg""]","stimuli/BM07_CC.jpg","stimuli/WF11_SUR.jpg","stimuli/WF04_FO.jpg","stimuli/BF05_AO.jpg","pos2","stimuli/WF11_SUR.jpg","SUR","WF11","1","5","10","8","stimuli/stars_10.png","288.5","[""CC"",""SUR"",""FO"",""AO""]","[""BM07"",""WF11"",""WF04"",""BF05""]","[0,10,2,7]","[2,8,4,6]","","",""
"show-reward","158","322936","0.0-158.0","p823268","ARVXIBUCA8WDZ","3UUIU9GZC6BQMHTLWW3KSJ0W7IE5TB","3DEL4X4EL8RYS6AJ2AEFH3EKYUYXYJ","emotion","mismatch","uniform","","","","","","","","322447.60000014305","324448.7999999523","","","","","","","","","","","","10","","stimuli/stars_10.png","288.5","","","","","stimuli/WF11_SUR.jpg","",""
"explore-choice","159","324663","0.0-159.0","p823268","ARVXIBUCA8WDZ","3UUIU9GZC6BQMHTLWW3KSJ0W7IE5TB","3DEL4X4EL8RYS6AJ2AEFH3EKYUYXYJ","emotion","mismatch","uniform","","","","","","","1226.2000000476837","324449.5","325675.7000000477","[""stimuli/WF04_SUR.jpg"",""stimuli/BM07_AO.jpg"",""stimuli/WF11_CC.jpg"",""stimuli/BF05_FO.jpg""]","stimuli/WF04_SUR.jpg","stimuli/BM07_AO.jpg","stimuli/WF11_CC.jpg","stimuli/BF05_FO.jpg","pos3","stimuli/WF11_CC.jpg","CC","WF11","2","4.5","9","8","stimuli/stars_9.png","293","[""SUR"",""AO"",""CC"",""FO""]","[""WF04"",""BM07"",""WF11"",""BF05""]","[4,0,9,4]","[4,2,8,6]","","",""
"show-reward","160","326665","0.0-160.0","p823268","ARVXIBUCA8WDZ","3UUIU9GZC6BQMHTLWW3KSJ0W7IE5TB","3DEL4X4EL8RYS6AJ2AEFH3EKYUYXYJ","emotion","mismatch","uniform","","","","","","","","326176.5","328177.40000009537","","","","","","","","","","","","9","","stimuli/stars_9.png","293","","","","","stimuli/WF11_CC.jpg","",""
"explore-choice","161","328145","0.0-161.0","p823268","ARVXIBUCA8WDZ","3UUIU9GZC6BQMHTLWW3KSJ0W7IE5TB","3DEL4X4EL8RYS6AJ2AEFH3EKYUYXYJ","emotion","mismatch","uniform","","","","","","","979.5999999046326","328178.10000014305","329157.7000000477","[""stimuli/BM07_SUR.jpg"",""stimuli/BF05_FO.jpg"",""stimuli/WF11_AO.jpg"",""stimuli/WF04_CC.jpg""]","stimuli/BM07_SUR.jpg","stimuli/BF05_FO.jpg","stimuli/WF11_AO.jpg","stimuli/WF04_CC.jpg","pos3","stimuli/WF11_AO.jpg","AO","WF11","2","3","6","8","stimuli/stars_6.png","296","[""SUR"",""FO"",""AO"",""CC""]","[""BM07"",""BF05"",""WF11"",""WF04""]","[4,6,6,4]","[2,6,8,4]","","",""
"show-reward","162","330147","0.0-162.0","p823268","ARVXIBUCA8WDZ","3UUIU9GZC6BQMHTLWW3KSJ0W7IE5TB","3DEL4X4EL8RYS6AJ2AEFH3EKYUYXYJ","emotion","mismatch","uniform","","","","","","","","329658.60000014305","331659.7000000477","","","","","","","","","","","","6","","stimuli/stars_6.png","296","","","","","stimuli/WF11_AO.jpg","",""
"explore-choice","163","331912","0.0-163.0","p823268","ARVXIBUCA8WDZ","3UUIU9GZC6BQMHTLWW3KSJ0W7IE5TB","3DEL4X4EL8RYS6AJ2AEFH3EKYUYXYJ","emotion","mismatch","uniform","","","","","","","1264.3000001907349","331660.2999999523","332924.60000014305","[""stimuli/BF05_CC.jpg"",""stimuli/WF11_FO.jpg"",""stimuli/BM07_SUR.jpg"",""stimuli/WF04_AO.jpg""]","stimuli/BF05_CC.jpg","stimuli/WF11_FO.jpg","stimuli/BM07_SUR.jpg","stimuli/WF04_AO.jpg","pos2","stimuli/WF11_FO.jpg","FO","WF11","1","4","8","8","stimuli/stars_8.png","300","[""CC"",""FO"",""SUR"",""AO""]","[""BF05"",""WF11"",""BM07"",""WF04""]","[5,8,4,2]","[6,8,2,4]","","",""
"show-reward","164","333915","0.0-164.0","p823268","ARVXIBUCA8WDZ","3UUIU9GZC6BQMHTLWW3KSJ0W7IE5TB","3DEL4X4EL8RYS6AJ2AEFH3EKYUYXYJ","emotion","mismatch","uniform","","","","","","","","333425.5","335428","","","","","","","","","","","","8","","stimuli/stars_8.png","300","","","","","stimuli/WF11_FO.jpg","",""
"explore-choice","165","335043","0.0-165.0","p823268","ARVXIBUCA8WDZ","3UUIU9GZC6BQMHTLWW3KSJ0W7IE5TB","3DEL4X4EL8RYS6AJ2AEFH3EKYUYXYJ","emotion","mismatch","uniform","","","","","","","610.9000000953674","335434","336044.90000009537","[""stimuli/BM07_SUR.jpg"",""stimuli/WF11_AO.jpg"",""stimuli/WF04_FO.jpg"",""stimuli/BF05_CC.jpg""]","stimuli/BM07_SUR.jpg","stimuli/WF11_AO.jpg","stimuli/WF04_FO.jpg","stimuli/BF05_CC.jpg","pos2","stimuli/WF11_AO.jpg","AO","WF11","1","4","8","8","stimuli/stars_8.png","304","[""SUR"",""AO"",""FO"",""CC""]","[""BM07"",""WF11"",""WF04"",""BF05""]","[4,8,3,7]","[2,8,4,6]","","",""
"show-reward","166","337045","0.0-166.0","p823268","ARVXIBUCA8WDZ","3UUIU9GZC6BQMHTLWW3KSJ0W7IE5TB","3DEL4X4EL8RYS6AJ2AEFH3EKYUYXYJ","emotion","mismatch","uniform","","","","","","","","336556.5","338557.7999999523","","","","","","","","","","","","8","","stimuli/stars_8.png","304","","","","","stimuli/WF11_AO.jpg","",""
"explore-choice","167","357935","0.0-167.0","p823268","ARVXIBUCA8WDZ","3UUIU9GZC6BQMHTLWW3KSJ0W7IE5TB","3DEL4X4EL8RYS6AJ2AEFH3EKYUYXYJ","emotion","mismatch","uniform","","","","","","","20389.200000047684","338558.7999999523","358948","[""stimuli/WF04_AO.jpg"",""stimuli/BF05_FO.jpg"",""stimuli/WF11_SUR.jpg"",""stimuli/BM07_CC.jpg""]","stimuli/WF04_AO.jpg","stimuli/BF05_FO.jpg","stimuli/WF11_SUR.jpg","stimuli/BM07_CC.jpg","pos3","stimuli/WF11_SUR.jpg","SUR","WF11","2","5","10","8","stimuli/stars_10.png","309","[""AO"",""FO"",""SUR"",""CC""]","[""WF04"",""BF05"",""WF11"",""BM07""]","[6,7,10,4]","[4,6,8,2]","","",""
"show-reward","168","359938","0.0-168.0","p823268","ARVXIBUCA8WDZ","3UUIU9GZC6BQMHTLWW3KSJ0W7IE5TB","3DEL4X4EL8RYS6AJ2AEFH3EKYUYXYJ","emotion","mismatch","uniform","","","","","","","","359449.40000009537","361451.2000000477","","","","","","","","","","","","10","","stimuli/stars_10.png","309","","","","","stimuli/WF11_SUR.jpg","",""
"explore-choice","169","362333","0.0-169.0","p823268","ARVXIBUCA8WDZ","3UUIU9GZC6BQMHTLWW3KSJ0W7IE5TB","3DEL4X4EL8RYS6AJ2AEFH3EKYUYXYJ","emotion","mismatch","uniform","","","","","","","1892.7999999523163","361452","363344.7999999523","[""stimuli/WF11_FO.jpg"",""stimuli/BF05_CC.jpg"",""stimuli/WF04_SUR.jpg"",""stimuli/BM07_AO.jpg""]","stimuli/WF11_FO.jpg","stimuli/BF05_CC.jpg","stimuli/WF04_SUR.jpg","stimuli/BM07_AO.jpg","pos1","stimuli/WF11_FO.jpg","FO","WF11","0","4.5","9","8","stimuli/stars_9.png","313.5","[""FO"",""CC"",""SUR"",""AO""]","[""WF11"",""BF05"",""WF04"",""BM07""]","[9,7,3,0]","[8,6,4,2]","","",""
"show-reward","170","364334","0.0-170.0","p823268","ARVXIBUCA8WDZ","3UUIU9GZC6BQMHTLWW3KSJ0W7IE5TB","3DEL4X4EL8RYS6AJ2AEFH3EKYUYXYJ","emotion","mismatch","uniform","","","","","","","","363846.40000009537","365847.7000000477","","","","","","","","","","","","9","","stimuli/stars_9.png","313.5","","","","","stimuli/WF11_FO.jpg","",""
"explore-choice","171","365642","0.0-171.0","p823268","ARVXIBUCA8WDZ","3UUIU9GZC6BQMHTLWW3KSJ0W7IE5TB","3DEL4X4EL8RYS6AJ2AEFH3EKYUYXYJ","emotion","mismatch","uniform","","","","","","","806.4000000953674","365848.2999999523","366654.7000000477","[""stimuli/BM07_SUR.jpg"",""stimuli/WF11_CC.jpg"",""stimuli/WF04_FO.jpg"",""stimuli/BF05_AO.jpg""]","stimuli/BM07_SUR.jpg","stimuli/WF11_CC.jpg","stimuli/WF04_FO.jpg","stimuli/BF05_AO.jpg","pos2","stimuli/WF11_CC.jpg","CC","WF11","1","4.5","9","8","stimuli/stars_9.png","318","[""SUR"",""CC"",""FO"",""AO""]","[""BM07"",""WF11"",""WF04"",""BF05""]","[2,9,5,5]","[2,8,4,6]","","",""
"show-reward","172","367643","0.0-172.0","p823268","ARVXIBUCA8WDZ","3UUIU9GZC6BQMHTLWW3KSJ0W7IE5TB","3DEL4X4EL8RYS6AJ2AEFH3EKYUYXYJ","emotion","mismatch","uniform","","","","","","","","367155.40000009537","369156.60000014305","","","","","","","","","","","","9","","stimuli/stars_9.png","318","","","","","stimuli/WF11_CC.jpg","",""
"explore-choice","173","369321","0.0-173.0","p823268","ARVXIBUCA8WDZ","3UUIU9GZC6BQMHTLWW3KSJ0W7IE5TB","3DEL4X4EL8RYS6AJ2AEFH3EKYUYXYJ","emotion","mismatch","uniform","","","","","","","1156.5","369157.10000014305","370313.60000014305","[""stimuli/WF11_AO.jpg"",""stimuli/WF04_FO.jpg"",""stimuli/BF05_SUR.jpg"",""stimuli/BM07_CC.jpg""]","stimuli/WF11_AO.jpg","stimuli/WF04_FO.jpg","stimuli/BF05_SUR.jpg","stimuli/BM07_CC.jpg","pos1","stimuli/WF11_AO.jpg","AO","WF11","0","4","8","8","stimuli/stars_8.png","322","[""AO"",""FO"",""SUR"",""CC""]","[""WF11"",""WF04"",""BF05"",""BM07""]","[8,2,8,1]","[8,4,6,2]","","",""
"show-reward","174","371325","0.0-174.0","p823268","ARVXIBUCA8WDZ","3UUIU9GZC6BQMHTLWW3KSJ0W7IE5TB","3DEL4X4EL8RYS6AJ2AEFH3EKYUYXYJ","emotion","mismatch","uniform","","","","","","","","370835.60000014305","372838.7999999523","","","","","","","","","","","","8","","stimuli/stars_8.png","322","","","","","stimuli/WF11_AO.jpg","",""
"explore-choice","175","372641","0.0-175.0","p823268","ARVXIBUCA8WDZ","3UUIU9GZC6BQMHTLWW3KSJ0W7IE5TB","3DEL4X4EL8RYS6AJ2AEFH3EKYUYXYJ","emotion","mismatch","uniform","","","","","","","814.3999998569489","372839.40000009537","373653.7999999523","[""stimuli/BM07_FO.jpg"",""stimuli/WF11_CC.jpg"",""stimuli/WF04_AO.jpg"",""stimuli/BF05_SUR.jpg""]","stimuli/BM07_FO.jpg","stimuli/WF11_CC.jpg","stimuli/WF04_AO.jpg","stimuli/BF05_SUR.jpg","pos2","stimuli/WF11_CC.jpg","CC","WF11","1","3.5","7","8","stimuli/stars_7.png","325.5","[""FO"",""CC"",""AO"",""SUR""]","[""BM07"",""WF11"",""WF04"",""BF05""]","[1,7,4,6]","[2,8,4,6]","","",""
"show-reward","176","374643","0.0-176.0","p823268","ARVXIBUCA8WDZ","3UUIU9GZC6BQMHTLWW3KSJ0W7IE5TB","3DEL4X4EL8RYS6AJ2AEFH3EKYUYXYJ","emotion","mismatch","uniform","","","","","","","","374154.60000014305","376156.5","","","","","","","","","","","","7","","stimuli/stars_7.png","325.5","","","","","stimuli/WF11_CC.jpg","",""
"explore-choice","177","375924","0.0-177.0","p823268","ARVXIBUCA8WDZ","3UUIU9GZC6BQMHTLWW3KSJ0W7IE5TB","3DEL4X4EL8RYS6AJ2AEFH3EKYUYXYJ","emotion","mismatch","uniform","","","","","","","779.7999999523163","376157.10000014305","376936.90000009537","[""stimuli/WF11_AO.jpg"",""stimuli/BM07_FO.jpg"",""stimuli/BF05_CC.jpg"",""stimuli/WF04_SUR.jpg""]","stimuli/WF11_AO.jpg","stimuli/BM07_FO.jpg","stimuli/BF05_CC.jpg","stimuli/WF04_SUR.jpg","pos1","stimuli/WF11_AO.jpg","AO","WF11","0","3","6","8","stimuli/stars_6.png","328.5","[""AO"",""FO"",""CC"",""SUR""]","[""WF11"",""BM07"",""BF05"",""WF04""]","[6,3,8,6]","[8,2,6,4]","","",""
"show-reward","178","377927","0.0-178.0","p823268","ARVXIBUCA8WDZ","3UUIU9GZC6BQMHTLWW3KSJ0W7IE5TB","3DEL4X4EL8RYS6AJ2AEFH3EKYUYXYJ","emotion","mismatch","uniform","","","","","","","","377438.2999999523","379440.40000009537","","","","","","","","","","","","6","","stimuli/stars_6.png","328.5","","","","","stimuli/WF11_AO.jpg","",""
"explore-choice","179","379260","0.0-179.0","p823268","ARVXIBUCA8WDZ","3UUIU9GZC6BQMHTLWW3KSJ0W7IE5TB","3DEL4X4EL8RYS6AJ2AEFH3EKYUYXYJ","emotion","mismatch","uniform","","","","","","","831.9000000953674","379441","380272.90000009537","[""stimuli/WF04_FO.jpg"",""stimuli/WF11_CC.jpg"",""stimuli/BF05_SUR.jpg"",""stimuli/BM07_AO.jpg""]","stimuli/WF04_FO.jpg","stimuli/WF11_CC.jpg","stimuli/BF05_SUR.jpg","stimuli/BM07_AO.jpg","pos2","stimuli/WF11_CC.jpg","CC","WF11","1","4.5","9","8","stimuli/stars_9.png","333","[""FO"",""CC"",""SUR"",""AO""]","[""WF04"",""WF11"",""BF05"",""BM07""]","[3,9,5,4]","[4,8,6,2]","","",""
"show-reward","180","381262","0.0-180.0","p823268","ARVXIBUCA8WDZ","3UUIU9GZC6BQMHTLWW3KSJ0W7IE5TB","3DEL4X4EL8RYS6AJ2AEFH3EKYUYXYJ","emotion","mismatch","uniform","","","","","","","","380774.2999999523","382775.7000000477","","","","","","","","","","","","9","","stimuli/stars_9.png","333","","","","","stimuli/WF11_CC.jpg","",""
"explore-choice","181","382423","0.0-181.0","p823268","ARVXIBUCA8WDZ","3UUIU9GZC6BQMHTLWW3KSJ0W7IE5TB","3DEL4X4EL8RYS6AJ2AEFH3EKYUYXYJ","emotion","mismatch","uniform","","","","","","","659.5","382776.40000009537","383435.90000009537","[""stimuli/BF05_CC.jpg"",""stimuli/WF11_SUR.jpg"",""stimuli/WF04_FO.jpg"",""stimuli/BM07_AO.jpg""]","stimuli/BF05_CC.jpg","stimuli/WF11_SUR.jpg","stimuli/WF04_FO.jpg","stimuli/BM07_AO.jpg","pos2","stimuli/WF11_SUR.jpg","SUR","WF11","1","3.5","7","8","stimuli/stars_7.png","336.5","[""CC"",""SUR"",""FO"",""AO""]","[""BF05"",""WF11"",""WF04"",""BM07""]","[5,7,5,1]","[6,8,4,2]","","",""
"show-reward","182","384425","0.0-182.0","p823268","ARVXIBUCA8WDZ","3UUIU9GZC6BQMHTLWW3KSJ0W7IE5TB","3DEL4X4EL8RYS6AJ2AEFH3EKYUYXYJ","emotion","mismatch","uniform","","","","","","","","383937.40000009537","385938.7000000477","","","","","","","","","","","","7","","stimuli/stars_7.png","336.5","","","","","stimuli/WF11_SUR.jpg","",""
"explore-choice","183","386355","0.0-183.0","p823268","ARVXIBUCA8WDZ","3UUIU9GZC6BQMHTLWW3KSJ0W7IE5TB","3DEL4X4EL8RYS6AJ2AEFH3EKYUYXYJ","emotion","mismatch","uniform","","","","","","","1428.2000000476837","385939.40000009537","387367.60000014305","[""stimuli/WF11_SUR.jpg"",""stimuli/WF04_CC.jpg"",""stimuli/BM07_AO.jpg"",""stimuli/BF05_FO.jpg""]","stimuli/WF11_SUR.jpg","stimuli/WF04_CC.jpg","stimuli/BM07_AO.jpg","stimuli/BF05_FO.jpg","pos1","stimuli/WF11_SUR.jpg","SUR","WF11","0","3","6","8","stimuli/stars_6.png","339.5","[""SUR"",""CC"",""AO"",""FO""]","[""WF11"",""WF04"",""BM07"",""BF05""]","[6,5,2,8]","[8,4,2,6]","","",""
"show-reward","184","388356","0.0-184.0","p823268","ARVXIBUCA8WDZ","3UUIU9GZC6BQMHTLWW3KSJ0W7IE5TB","3DEL4X4EL8RYS6AJ2AEFH3EKYUYXYJ","emotion","mismatch","uniform","","","","","","","","387868.7000000477","389869.7999999523","","","","","","","","","","","","6","","stimuli/stars_6.png","339.5","","","","","stimuli/WF11_SUR.jpg","",""
"explore-choice","185","389944","0.0-185.0","p823268","ARVXIBUCA8WDZ","3UUIU9GZC6BQMHTLWW3KSJ0W7IE5TB","3DEL4X4EL8RYS6AJ2AEFH3EKYUYXYJ","emotion","mismatch","uniform","","","","","","","1086.3999998569489","389870.40000009537","390956.7999999523","[""stimuli/WF11_FO.jpg"",""stimuli/WF04_AO.jpg"",""stimuli/BF05_SUR.jpg"",""stimuli/BM07_CC.jpg""]","stimuli/WF11_FO.jpg","stimuli/WF04_AO.jpg","stimuli/BF05_SUR.jpg","stimuli/BM07_CC.jpg","pos1","stimuli/WF11_FO.jpg","FO","WF11","0","5","10","8","stimuli/stars_10.png","344.5","[""FO"",""AO"",""SUR"",""CC""]","[""WF11"",""WF04"",""BF05"",""BM07""]","[10,3,5,4]","[8,4,6,2]","","",""
"show-reward","186","391947","0.0-186.0","p823268","ARVXIBUCA8WDZ","3UUIU9GZC6BQMHTLWW3KSJ0W7IE5TB","3DEL4X4EL8RYS6AJ2AEFH3EKYUYXYJ","emotion","mismatch","uniform","","","","","","","","391457.5","393459.7999999523","","","","","","","","","","","","10","","stimuli/stars_10.png","344.5","","","","","stimuli/WF11_FO.jpg","",""
"explore-choice","187","393245","0.0-187.0","p823268","ARVXIBUCA8WDZ","3UUIU9GZC6BQMHTLWW3KSJ0W7IE5TB","3DEL4X4EL8RYS6AJ2AEFH3EKYUYXYJ","emotion","mismatch","uniform","","","","","","","797.1000001430511","393460.5","394257.60000014305","[""stimuli/BF05_FO.jpg"",""stimuli/WF11_AO.jpg"",""stimuli/WF04_SUR.jpg"",""stimuli/BM07_CC.jpg""]","stimuli/BF05_FO.jpg","stimuli/WF11_AO.jpg","stimuli/WF04_SUR.jpg","stimuli/BM07_CC.jpg","pos2","stimuli/WF11_AO.jpg","AO","WF11","1","4.5","9","8","stimuli/stars_9.png","349","[""FO"",""AO"",""SUR"",""CC""]","[""BF05"",""WF11"",""WF04"",""BM07""]","[6,9,3,3]","[6,8,4,2]","","",""
"show-reward","188","395249","0.0-188.0","p823268","ARVXIBUCA8WDZ","3UUIU9GZC6BQMHTLWW3KSJ0W7IE5TB","3DEL4X4EL8RYS6AJ2AEFH3EKYUYXYJ","emotion","mismatch","uniform","","","","","","","","394759.40000009537","396762.7999999523","","","","","","","","","","","","9","","stimuli/stars_9.png","349","","","","","stimuli/WF11_AO.jpg","",""
"explore-choice","189","397428","0.0-189.0","p823268","ARVXIBUCA8WDZ","3UUIU9GZC6BQMHTLWW3KSJ0W7IE5TB","3DEL4X4EL8RYS6AJ2AEFH3EKYUYXYJ","emotion","mismatch","uniform","","","","","","","1676.6000001430511","396763.2999999523","398439.90000009537","[""stimuli/WF04_SUR.jpg"",""stimuli/BF05_AO.jpg"",""stimuli/WF11_CC.jpg"",""stimuli/BM07_FO.jpg""]","stimuli/WF04_SUR.jpg","stimuli/BF05_AO.jpg","stimuli/WF11_CC.jpg","stimuli/BM07_FO.jpg","pos3","stimuli/WF11_CC.jpg","CC","WF11","2","3","6","8","stimuli/stars_6.png","352","[""SUR"",""AO"",""CC"",""FO""]","[""WF04"",""BF05"",""WF11"",""BM07""]","[2,5,6,2]","[4,6,8,2]","","",""
"show-reward","190","399430","0.0-190.0","p823268","ARVXIBUCA8WDZ","3UUIU9GZC6BQMHTLWW3KSJ0W7IE5TB","3DEL4X4EL8RYS6AJ2AEFH3EKYUYXYJ","emotion","mismatch","uniform","","","","","","","","398941.5","400943.5","","","","","","","","","","","","6","","stimuli/stars_6.png","352","","","","","stimuli/WF11_CC.jpg","",""
"explore-choice","191","400567","0.0-191.0","p823268","ARVXIBUCA8WDZ","3UUIU9GZC6BQMHTLWW3KSJ0W7IE5TB","3DEL4X4EL8RYS6AJ2AEFH3EKYUYXYJ","emotion","mismatch","uniform","","","","","","","635.4000000953674","400944.2000000477","401579.60000014305","[""stimuli/BF05_AO.jpg"",""stimuli/WF11_FO.jpg"",""stimuli/WF04_CC.jpg"",""stimuli/BM07_SUR.jpg""]","stimuli/BF05_AO.jpg","stimuli/WF11_FO.jpg","stimuli/WF04_CC.jpg","stimuli/BM07_SUR.jpg","pos2","stimuli/WF11_FO.jpg","FO","WF11","1","3.5","7","8","stimuli/stars_7.png","355.5","[""AO"",""FO"",""CC"",""SUR""]","[""BF05"",""WF11"",""WF04"",""BM07""]","[7,7,2,2]","[6,8,4,2]","","",""
"show-reward","192","402571","0.0-192.0","p823268","ARVXIBUCA8WDZ","3UUIU9GZC6BQMHTLWW3KSJ0W7IE5TB","3DEL4X4EL8RYS6AJ2AEFH3EKYUYXYJ","emotion","mismatch","uniform","","","","","","","","402081.5","404084","","","","","","","","","","","","7","","stimuli/stars_7.png","355.5","","","","","stimuli/WF11_FO.jpg","",""
"explore-choice","193","403772","0.0-193.0","p823268","ARVXIBUCA8WDZ","3UUIU9GZC6BQMHTLWW3KSJ0W7IE5TB","3DEL4X4EL8RYS6AJ2AEFH3EKYUYXYJ","emotion","mismatch","uniform","","","","","","","700.8000001907349","404084.7999999523","404785.60000014305","[""stimuli/WF11_SUR.jpg"",""stimuli/BF05_CC.jpg"",""stimuli/WF04_AO.jpg"",""stimuli/BM07_FO.jpg""]","stimuli/WF11_SUR.jpg","stimuli/BF05_CC.jpg","stimuli/WF04_AO.jpg","stimuli/BM07_FO.jpg","pos1","stimuli/WF11_SUR.jpg","SUR","WF11","0","3.5","7","8","stimuli/stars_7.png","359","[""SUR"",""CC"",""AO"",""FO""]","[""WF11"",""BF05"",""WF04"",""BM07""]","[7,7,4,0]","[8,6,4,2]","","",""
"show-reward","194","405775","0.0-194.0","p823268","ARVXIBUCA8WDZ","3UUIU9GZC6BQMHTLWW3KSJ0W7IE5TB","3DEL4X4EL8RYS6AJ2AEFH3EKYUYXYJ","emotion","mismatch","uniform","","","","","","","","405286.2999999523","407287.90000009537","","","","","","","","","","","","7","","stimuli/stars_7.png","359","","","","","stimuli/WF11_SUR.jpg","",""
"explore-choice","195","407037","0.0-195.0","p823268","ARVXIBUCA8WDZ","3UUIU9GZC6BQMHTLWW3KSJ0W7IE5TB","3DEL4X4EL8RYS6AJ2AEFH3EKYUYXYJ","emotion","mismatch","uniform","","","","","","","760.2000000476837","407288.5","408048.7000000477","[""stimuli/WF04_CC.jpg"",""stimuli/BM07_FO.jpg"",""stimuli/WF11_AO.jpg"",""stimuli/BF05_SUR.jpg""]","stimuli/WF04_CC.jpg","stimuli/BM07_FO.jpg","stimuli/WF11_AO.jpg","stimuli/BF05_SUR.jpg","pos3","stimuli/WF11_AO.jpg","AO","WF11","2","5","10","8","stimuli/stars_10.png","364","[""CC"",""FO"",""AO"",""SUR""]","[""WF04"",""BM07"",""WF11"",""BF05""]","[3,3,10,7]","[4,2,8,6]","","",""
"show-reward","196","409039","0.0-196.0","p823268","ARVXIBUCA8WDZ","3UUIU9GZC6BQMHTLWW3KSJ0W7IE5TB","3DEL4X4EL8RYS6AJ2AEFH3EKYUYXYJ","emotion","mismatch","uniform","","","","","","","","408550.5","410551.90000009537","","","","","","","","","","","","10","","stimuli/stars_10.png","364","","","","","stimuli/WF11_AO.jpg","",""
"explore-choice","197","410578","0.0-197.0","p823268","ARVXIBUCA8WDZ","3UUIU9GZC6BQMHTLWW3KSJ0W7IE5TB","3DEL4X4EL8RYS6AJ2AEFH3EKYUYXYJ","emotion","mismatch","uniform","","","","","","","1036.8999998569489","410552.60000014305","411589.5","[""stimuli/WF11_FO.jpg"",""stimuli/WF04_SUR.jpg"",""stimuli/BF05_AO.jpg"",""stimuli/BM07_CC.jpg""]","stimuli/WF11_FO.jpg","stimuli/WF04_SUR.jpg","stimuli/BF05_AO.jpg","stimuli/BM07_CC.jpg","pos1","stimuli/WF11_FO.jpg","FO","WF11","0","3.5","7","8","stimuli/stars_7.png","367.5","[""FO"",""SUR"",""AO"",""CC""]","[""WF11"",""WF04"",""BF05"",""BM07""]","[7,4,8,2]","[8,4,6,2]","","",""
"show-reward","198","412580","0.0-198.0","p823268","ARVXIBUCA8WDZ","3UUIU9GZC6BQMHTLWW3KSJ0W7IE5TB","3DEL4X4EL8RYS6AJ2AEFH3EKYUYXYJ","emotion","mismatch","uniform","","","","","","","","412091.7999999523","414093.7999999523","","","","","","","","","","","","7","","stimuli/stars_7.png","367.5","","","","","stimuli/WF11_FO.jpg","",""
"instructions","199","416559","0.0-199.0","p823268","ARVXIBUCA8WDZ","3UUIU9GZC6BQMHTLWW3KSJ0W7IE5TB","3DEL4X4EL8RYS6AJ2AEFH3EKYUYXYJ","emotion","mismatch","uniform","","","","","","[{""page_index"":0,""viewing_time"":3977.199999809265}]","3977.5999999046326","","","","","","","","","","","","","","","","","","","","","","","",""
"survey-text","200","419418","0.0-200.0-0.0","p823268","ARVXIBUCA8WDZ","3UUIU9GZC6BQMHTLWW3KSJ0W7IE5TB","3DEL4X4EL8RYS6AJ2AEFH3EKYUYXYJ","emotion","mismatch","uniform","","","","","","","2856.800000190735","","","","","","","","","","","","","","","","","","","","","","","{""age"":""36""}",""
"survey-text","201","422017","0.0-200.0-1.0","p823268","ARVXIBUCA8WDZ","3UUIU9GZC6BQMHTLWW3KSJ0W7IE5TB","3DEL4X4EL8RYS6AJ2AEFH3EKYUYXYJ","emotion","mismatch","uniform","","","","","","","2596.7000000476837","","","","","","","","","","","","","","","","","","","","","","","{""gender"":""Male""}",""
"survey-text","202","428713","0.0-200.0-2.0","p823268","ARVXIBUCA8WDZ","3UUIU9GZC6BQMHTLWW3KSJ0W7IE5TB","3DEL4X4EL8RYS6AJ2AEFH3EKYUYXYJ","emotion","mismatch","uniform","","","","","","","6694.200000047684","","","","","","","","","","","","","","","","","","","","","","","{""country"":""United States""}",""
"survey-text","203","434569","0.0-200.0-3.0","p823268","ARVXIBUCA8WDZ","3UUIU9GZC6BQMHTLWW3KSJ0W7IE5TB","3DEL4X4EL8RYS6AJ2AEFH3EKYUYXYJ","emotion","mismatch","uniform","","","","","","","5854.099999904633","","","","","","","","","","","","","","","","","","","","","","","{""language"":""English"",""other_languages"":""n/a""}",""
"survey-multi-select","204","440534","0.0-201.0","p823268","ARVXIBUCA8WDZ","3UUIU9GZC6BQMHTLWW3KSJ0W7IE5TB","3DEL4X4EL8RYS6AJ2AEFH3EKYUYXYJ","emotion","mismatch","uniform","","","","","","","5961.600000143051","","","","","","","","","","","","","","","","","","","","","","","{""race"":[""White""]}","[0]"
"survey-multi-choice","205","443388","0.0-202.0","p823268","ARVXIBUCA8WDZ","3UUIU9GZC6BQMHTLWW3KSJ0W7IE5TB","3DEL4X4EL8RYS6AJ2AEFH3EKYUYXYJ","emotion","mismatch","uniform","","","","","","","2852.100000143051","","","","","","","","","","","","","","","","","","","","","","","{""education"":""High school""}","[0]"
"survey-text","206","489523","0.0-203.0","p823268","ARVXIBUCA8WDZ","3UUIU9GZC6BQMHTLWW3KSJ0W7IE5TB","3DEL4X4EL8RYS6AJ2AEFH3EKYUYXYJ","emotion","mismatch","uniform","","","","","","","46132.200000047684","","","","","","","","","","","","","","","","","","","","","","","{""patterns"":""The pattern originally seemed like the happier a person was, the more stars it would give. The second pattern seemed like one woman in particular gave more stars than others."",""strategy"":""I followed the patterns I noticed above."",""comments"":""No.""}",""
