"trial_type","trial_index","time_elapsed","internal_node_id","subject","workerId","hitId","assignmentId","structure_condition","match_condition","noise_type","success","timeout","failed_images","failed_audio","failed_video","view_history","rt","start_time","end_time","stimuli","image1","image2","image3","image4","choiceLocation","choiceImage","choiceEmotion","choiceModel","choice_index","reward_score","reward","reward_score_unadjusted","reward_image","score_after_trial","emotions","models","rewards","rewards_unadjusted","stimulus","response","question_order"
"pavlovia","0","33","0.0-0.0","p888260","AROOCBM042SJD","3UUIU9GZC6BQMHTLWW3KSJ0W7IE5TB","3AWETUDC94Y171VTZAGXS007GBYZIC","model","mismatch","uniform","","","","","","","","","","","","","","","","","","","","","","","","","","","","","","",""
"preload","1","5474","0.0-1.0","p888260","AROOCBM042SJD","3UUIU9GZC6BQMHTLWW3KSJ0W7IE5TB","3AWETUDC94Y171VTZAGXS007GBYZIC","model","mismatch","uniform","true","false","[]","[]","[]","","","","","","","","","","","","","","","","","","","","","","","","","",""
"fullscreen","2","9100","0.0-2.0","p888260","AROOCBM042SJD","3UUIU9GZC6BQMHTLWW3KSJ0W7IE5TB","3AWETUDC94Y171VTZAGXS007GBYZIC","model","mismatch","uniform","true","","","","","","","","","","","","","","","","","","","","","","","","","","","","","",""
"instructions","3","12794","0.0-3.0","p888260","AROOCBM042SJD","3UUIU9GZC6BQMHTLWW3KSJ0W7IE5TB","3AWETUDC94Y171VTZAGXS007GBYZIC","model","mismatch","uniform","","","","","","[{""page_index"":0,""viewing_time"":3688.7000000178814}]","3690","","","","","","","","","","","","","","","","","","","","","","","",""
"explore-choice","4","15333","0.0-4.0","p888260","AROOCBM042SJD","3UUIU9GZC6BQMHTLWW3KSJ0W7IE5TB","3AWETUDC94Y171VTZAGXS007GBYZIC","model","mismatch","uniform","","","","","","","2020.300000011921","15094.5","17114.80000001192","[""stimuli/sheep.jpg"",""stimuli/hammer.jpg"",""stimuli/basketball.jpg"",""stimuli/horse.jpg""]","stimuli/sheep.jpg","stimuli/hammer.jpg","stimuli/basketball.jpg","stimuli/horse.jpg","pos4","stimuli/horse.jpg","","","3","64","64","64","stimuli/stars_8.png","65","","","","","","",""
"explore-choice","5","17135","0.0-5.0","p888260","AROOCBM042SJD","3UUIU9GZC6BQMHTLWW3KSJ0W7IE5TB","3AWETUDC94Y171VTZAGXS007GBYZIC","model","mismatch","uniform","","","","","","","1294","17635.90000000596","18929.90000000596","[""stimuli/hammer.jpg"",""stimuli/basketball.jpg"",""stimuli/horse.jpg"",""stimuli/sheep.jpg""]","stimuli/hammer.jpg","stimuli/basketball.jpg","stimuli/horse.jpg","stimuli/sheep.jpg","pos1","stimuli/hammer.jpg","","","0","8","8","8","stimuli/stars_2.png","9","","","","","","",""
"instructions","6","27543","0.0-6.0","p888260","AROOCBM042SJD","3UUIU9GZC6BQMHTLWW3KSJ0W7IE5TB","3AWETUDC94Y171VTZAGXS007GBYZIC","model","mismatch","uniform","","","","","","[{""page_index"":0,""viewing_time"":10406.59999999404}]","10407.199999988079","","","","","","","","","","","","","","","","","","","","","","","",""
"explore-choice","7","29749","0.0-7.0","p888260","AROOCBM042SJD","3UUIU9GZC6BQMHTLWW3KSJ0W7IE5TB","3AWETUDC94Y171VTZAGXS007GBYZIC","model","mismatch","uniform","","","","","","","1701","29844.80000001192","31545.80000001192","[""stimuli/AF09_AO.jpg"",""stimuli/BF06_SUR.jpg"",""stimuli/WF04_HE.jpg"",""stimuli/WM09_CC.jpg""]","stimuli/AF09_AO.jpg","stimuli/BF06_SUR.jpg","stimuli/WF04_HE.jpg","stimuli/WM09_CC.jpg","pos2","stimuli/BF06_SUR.jpg","SUR","BF06","1","0","0","2","stimuli/stars_0.png","1","[""AO"",""SUR"",""HE"",""CC""]","[""AF09"",""BF06"",""WF04"",""WM09""]","[3,0,4,9]","[4,2,6,8]","","",""
"show-reward","8","31784","0.0-8.0","p888260","AROOCBM042SJD","3UUIU9GZC6BQMHTLWW3KSJ0W7IE5TB","3AWETUDC94Y171VTZAGXS007GBYZIC","model","mismatch","uniform","","","","","","","","32054.59999999404","34082.40000000596","","","","","","","","","","","","0","","stimuli/stars_0.png","1","","","","","stimuli/BF06_SUR.jpg","",""
"explore-choice","9","34158","0.0-9.0","p888260","AROOCBM042SJD","3UUIU9GZC6BQMHTLWW3KSJ0W7IE5TB","3AWETUDC94Y171VTZAGXS007GBYZIC","model","mismatch","uniform","","","","","","","1867.2999999821186","34086.70000001788","35954","[""stimuli/BF06_HE.jpg"",""stimuli/WF04_SUR.jpg"",""stimuli/AF09_CC.jpg"",""stimuli/WM09_AO.jpg""]","stimuli/BF06_HE.jpg","stimuli/WF04_SUR.jpg","stimuli/AF09_CC.jpg","stimuli/WM09_AO.jpg","pos1","stimuli/BF06_HE.jpg","HE","BF06","0","2","4","2","stimuli/stars_4.png","3","[""HE"",""SUR"",""CC"",""AO""]","[""BF06"",""WF04"",""AF09"",""WM09""]","[4,4,4,8]","[2,6,4,8]","","",""
"show-reward","10","36171","0.0-10.0","p888260","AROOCBM042SJD","3UUIU9GZC6BQMHTLWW3KSJ0W7IE5TB","3AWETUDC94Y171VTZAGXS007GBYZIC","model","mismatch","uniform","","","","","","","","36458.80000001192","38469","","","","","","","","","","","","4","","stimuli/stars_4.png","3","","","","","stimuli/BF06_HE.jpg","",""
"explore-choice","11","38640","0.0-11.0","p888260","AROOCBM042SJD","3UUIU9GZC6BQMHTLWW3KSJ0W7IE5TB","3AWETUDC94Y171VTZAGXS007GBYZIC","model","mismatch","uniform","","","","","","","1962.199999988079","38471.90000000596","40434.09999999404","[""stimuli/WM09_SUR.jpg"",""stimuli/BF06_CC.jpg"",""stimuli/AF09_HE.jpg"",""stimuli/WF04_AO.jpg""]","stimuli/WM09_SUR.jpg","stimuli/BF06_CC.jpg","stimuli/AF09_HE.jpg","stimuli/WF04_AO.jpg","pos3","stimuli/AF09_HE.jpg","HE","AF09","2","2.5","5","4","stimuli/stars_5.png","5.5","[""SUR"",""CC"",""HE"",""AO""]","[""WM09"",""BF06"",""AF09"",""WF04""]","[7,4,5,5]","[8,2,4,6]","","",""
"show-reward","12","40654","0.0-12.0","p888260","AROOCBM042SJD","3UUIU9GZC6BQMHTLWW3KSJ0W7IE5TB","3AWETUDC94Y171VTZAGXS007GBYZIC","model","mismatch","uniform","","","","","","","","40940.90000000596","42952.30000001192","","","","","","","","","","","","5","","stimuli/stars_5.png","5.5","","","","","stimuli/AF09_HE.jpg","",""
"explore-choice","13","54779","0.0-13.0","p888260","AROOCBM042SJD","3UUIU9GZC6BQMHTLWW3KSJ0W7IE5TB","3AWETUDC94Y171VTZAGXS007GBYZIC","model","mismatch","uniform","","","","","","","13614.799999982119","42955.20000001788","56570","[""stimuli/BF06_SUR.jpg"",""stimuli/WF04_AO.jpg"",""stimuli/AF09_CC.jpg"",""stimuli/WM09_HE.jpg""]","stimuli/BF06_SUR.jpg","stimuli/WF04_AO.jpg","stimuli/AF09_CC.jpg","stimuli/WM09_HE.jpg","pos4","stimuli/WM09_HE.jpg","HE","WM09","3","3","6","8","stimuli/stars_6.png","8.5","[""SUR"",""AO"",""CC"",""HE""]","[""BF06"",""WF04"",""AF09"",""WM09""]","[1,4,6,6]","[2,6,4,8]","","",""
"show-reward","14","56795","0.0-14.0","p888260","AROOCBM042SJD","3UUIU9GZC6BQMHTLWW3KSJ0W7IE5TB","3AWETUDC94Y171VTZAGXS007GBYZIC","model","mismatch","uniform","","","","","","","","57081","59093.70000001788","","","","","","","","","","","","6","","stimuli/stars_6.png","8.5","","","","","stimuli/WM09_HE.jpg","",""
"explore-choice","15","58963","0.0-15.0","p888260","AROOCBM042SJD","3UUIU9GZC6BQMHTLWW3KSJ0W7IE5TB","3AWETUDC94Y171VTZAGXS007GBYZIC","model","mismatch","uniform","","","","","","","1657.199999988079","59096.80000001192","60754","[""stimuli/AF09_SUR.jpg"",""stimuli/BF06_CC.jpg"",""stimuli/WF04_HE.jpg"",""stimuli/WM09_AO.jpg""]","stimuli/AF09_SUR.jpg","stimuli/BF06_CC.jpg","stimuli/WF04_HE.jpg","stimuli/WM09_AO.jpg","pos3","stimuli/WF04_HE.jpg","HE","WF04","2","4","8","6","stimuli/stars_8.png","12.5","[""SUR"",""CC"",""HE"",""AO""]","[""AF09"",""BF06"",""WF04"",""WM09""]","[5,2,8,6]","[4,2,6,8]","","",""
"show-reward","16","60977","0.0-16.0","p888260","AROOCBM042SJD","3UUIU9GZC6BQMHTLWW3KSJ0W7IE5TB","3AWETUDC94Y171VTZAGXS007GBYZIC","model","mismatch","uniform","","","","","","","","61263.09999999404","63275.70000001788","","","","","","","","","","","","8","","stimuli/stars_8.png","12.5","","","","","stimuli/WF04_HE.jpg","",""
"explore-choice","17","63167","0.0-17.0","p888260","AROOCBM042SJD","3UUIU9GZC6BQMHTLWW3KSJ0W7IE5TB","3AWETUDC94Y171VTZAGXS007GBYZIC","model","mismatch","uniform","","","","","","","1684.800000011921","63277.40000000596","64962.20000001788","[""stimuli/WM09_CC.jpg"",""stimuli/AF09_AO.jpg"",""stimuli/BF06_HE.jpg"",""stimuli/WF04_SUR.jpg""]","stimuli/WM09_CC.jpg","stimuli/AF09_AO.jpg","stimuli/BF06_HE.jpg","stimuli/WF04_SUR.jpg","pos3","stimuli/BF06_HE.jpg","HE","BF06","2","0","0","2","stimuli/stars_0.png","12.5","[""CC"",""AO"",""HE"",""SUR""]","[""WM09"",""AF09"",""BF06"",""WF04""]","[7,6,0,6]","[8,4,2,6]","","",""
"show-reward","18","65186","0.0-18.0","p888260","AROOCBM042SJD","3UUIU9GZC6BQMHTLWW3KSJ0W7IE5TB","3AWETUDC94Y171VTZAGXS007GBYZIC","model","mismatch","uniform","","","","","","","","65467","67484","","","","","","","","","","","","0","","stimuli/stars_0.png","12.5","","","","","stimuli/BF06_HE.jpg","",""
"explore-choice","19","66464","0.0-19.0","p888260","AROOCBM042SJD","3UUIU9GZC6BQMHTLWW3KSJ0W7IE5TB","3AWETUDC94Y171VTZAGXS007GBYZIC","model","mismatch","uniform","","","","","","","763.5","67487.20000001788","68250.70000001788","[""stimuli/WM09_HE.jpg"",""stimuli/WF04_SUR.jpg"",""stimuli/AF09_AO.jpg"",""stimuli/BF06_CC.jpg""]","stimuli/WM09_HE.jpg","stimuli/WF04_SUR.jpg","stimuli/AF09_AO.jpg","stimuli/BF06_CC.jpg","pos1","stimuli/WM09_HE.jpg","HE","WM09","0","5","10","8","stimuli/stars_10.png","17.5","[""HE"",""SUR"",""AO"",""CC""]","[""WM09"",""WF04"",""AF09"",""BF06""]","[10,8,5,4]","[8,6,4,2]","","",""
"show-reward","20","68488","0.0-20.0","p888260","AROOCBM042SJD","3UUIU9GZC6BQMHTLWW3KSJ0W7IE5TB","3AWETUDC94Y171VTZAGXS007GBYZIC","model","mismatch","uniform","","","","","","","","68765.5","70785.90000000596","","","","","","","","","","","","10","","stimuli/stars_10.png","17.5","","","","","stimuli/WM09_HE.jpg","",""
"explore-choice","21","71328","0.0-21.0","p888260","AROOCBM042SJD","3UUIU9GZC6BQMHTLWW3KSJ0W7IE5TB","3AWETUDC94Y171VTZAGXS007GBYZIC","model","mismatch","uniform","","","","","","","2333","70789.09999999404","73122.09999999404","[""stimuli/BF06_HE.jpg"",""stimuli/WM09_AO.jpg"",""stimuli/WF04_CC.jpg"",""stimuli/AF09_SUR.jpg""]","stimuli/BF06_HE.jpg","stimuli/WM09_AO.jpg","stimuli/WF04_CC.jpg","stimuli/AF09_SUR.jpg","pos3","stimuli/WF04_CC.jpg","CC","WF04","2","2","4","6","stimuli/stars_4.png","19.5","[""HE"",""AO"",""CC"",""SUR""]","[""BF06"",""WM09"",""WF04"",""AF09""]","[2,8,4,6]","[2,8,6,4]","","",""
"show-reward","22","73351","0.0-22.0","p888260","AROOCBM042SJD","3UUIU9GZC6BQMHTLWW3KSJ0W7IE5TB","3AWETUDC94Y171VTZAGXS007GBYZIC","model","mismatch","uniform","","","","","","","","73629.5","75648.70000001788","","","","","","","","","","","","4","","stimuli/stars_4.png","19.5","","","","","stimuli/WF04_CC.jpg","",""
"explore-choice","23","75859","0.0-23.0","p888260","AROOCBM042SJD","3UUIU9GZC6BQMHTLWW3KSJ0W7IE5TB","3AWETUDC94Y171VTZAGXS007GBYZIC","model","mismatch","uniform","","","","","","","1994.4000000059605","75651.09999999404","77645.5","[""stimuli/BF06_CC.jpg"",""stimuli/WF04_SUR.jpg"",""stimuli/WM09_AO.jpg"",""stimuli/AF09_HE.jpg""]","stimuli/BF06_CC.jpg","stimuli/WF04_SUR.jpg","stimuli/WM09_AO.jpg","stimuli/AF09_HE.jpg","pos4","stimuli/AF09_HE.jpg","HE","AF09","3","2.5","5","4","stimuli/stars_5.png","22","[""CC"",""SUR"",""AO"",""HE""]","[""BF06"",""WF04"",""WM09"",""AF09""]","[3,4,10,5]","[2,6,8,4]","","",""
"show-reward","24","77878","0.0-24.0","p888260","AROOCBM042SJD","3UUIU9GZC6BQMHTLWW3KSJ0W7IE5TB","3AWETUDC94Y171VTZAGXS007GBYZIC","model","mismatch","uniform","","","","","","","","78161.09999999404","80175.59999999404","","","","","","","","","","","","5","","stimuli/stars_5.png","22","","","","","stimuli/AF09_HE.jpg","",""
"explore-choice","25","81927","0.0-25.0","p888260","AROOCBM042SJD","3UUIU9GZC6BQMHTLWW3KSJ0W7IE5TB","3AWETUDC94Y171VTZAGXS007GBYZIC","model","mismatch","uniform","","","","","","","3541.0999999940395","80180.70000001788","83721.80000001192","[""stimuli/WF04_AO.jpg"",""stimuli/AF09_HE.jpg"",""stimuli/WM09_CC.jpg"",""stimuli/BF06_SUR.jpg""]","stimuli/WF04_AO.jpg","stimuli/AF09_HE.jpg","stimuli/WM09_CC.jpg","stimuli/BF06_SUR.jpg","pos2","stimuli/AF09_HE.jpg","HE","AF09","1","2","4","4","stimuli/stars_4.png","24","[""AO"",""HE"",""CC"",""SUR""]","[""WF04"",""AF09"",""WM09"",""BF06""]","[7,4,8,4]","[6,4,8,2]","","",""
"show-reward","26","83947","0.0-26.0","p888260","AROOCBM042SJD","3UUIU9GZC6BQMHTLWW3KSJ0W7IE5TB","3AWETUDC94Y171VTZAGXS007GBYZIC","model","mismatch","uniform","","","","","","","","84228.30000001192","86245.5","","","","","","","","","","","","4","","stimuli/stars_4.png","24","","","","","stimuli/AF09_HE.jpg","",""
"explore-choice","27","87088","0.0-27.0","p888260","AROOCBM042SJD","3UUIU9GZC6BQMHTLWW3KSJ0W7IE5TB","3AWETUDC94Y171VTZAGXS007GBYZIC","model","mismatch","uniform","","","","","","","2634.300000011921","86248","88882.30000001192","[""stimuli/AF09_CC.jpg"",""stimuli/BF06_HE.jpg"",""stimuli/WF04_AO.jpg"",""stimuli/WM09_SUR.jpg""]","stimuli/AF09_CC.jpg","stimuli/BF06_HE.jpg","stimuli/WF04_AO.jpg","stimuli/WM09_SUR.jpg","pos4","stimuli/WM09_SUR.jpg","SUR","WM09","3","3.5","7","8","stimuli/stars_7.png","27.5","[""CC"",""HE"",""AO"",""SUR""]","[""AF09"",""BF06"",""WF04"",""WM09""]","[2,1,6,7]","[4,2,6,8]","","",""
"show-reward","28","89111","0.0-28.0","p888260","AROOCBM042SJD","3UUIU9GZC6BQMHTLWW3KSJ0W7IE5TB","3AWETUDC94Y171VTZAGXS007GBYZIC","model","mismatch","uniform","","","","","","","","89389.70000001788","91408.59999999404","","","","","","","","","","","","7","","stimuli/stars_7.png","27.5","","","","","stimuli/WM09_SUR.jpg","",""
"explore-choice","29","91556","0.0-29.0","p888260","AROOCBM042SJD","3UUIU9GZC6BQMHTLWW3KSJ0W7IE5TB","3AWETUDC94Y171VTZAGXS007GBYZIC","model","mismatch","uniform","","","","","","","1942.5","91411","93353.5","[""stimuli/WM09_SUR.jpg"",""stimuli/WF04_HE.jpg"",""stimuli/BF06_CC.jpg"",""stimuli/AF09_AO.jpg""]","stimuli/WM09_SUR.jpg","stimuli/WF04_HE.jpg","stimuli/BF06_CC.jpg","stimuli/AF09_AO.jpg","pos2","stimuli/WF04_HE.jpg","HE","WF04","1","4","8","6","stimuli/stars_8.png","31.5","[""SUR"",""HE"",""CC"",""AO""]","[""WM09"",""WF04"",""BF06"",""AF09""]","[6,8,1,4]","[8,6,2,4]","","",""
"show-reward","30","93569","0.0-30.0","p888260","AROOCBM042SJD","3UUIU9GZC6BQMHTLWW3KSJ0W7IE5TB","3AWETUDC94Y171VTZAGXS007GBYZIC","model","mismatch","uniform","","","","","","","","93856.09999999404","95867.20000001788","","","","","","","","","","","","8","","stimuli/stars_8.png","31.5","","","","","stimuli/WF04_HE.jpg","",""
"explore-choice","31","98302","0.0-31.0","p888260","AROOCBM042SJD","3UUIU9GZC6BQMHTLWW3KSJ0W7IE5TB","3AWETUDC94Y171VTZAGXS007GBYZIC","model","mismatch","uniform","","","","","","","4228.899999976158","95868.70000001788","100097.59999999404","[""stimuli/WM09_SUR.jpg"",""stimuli/AF09_AO.jpg"",""stimuli/WF04_CC.jpg"",""stimuli/BF06_HE.jpg""]","stimuli/WM09_SUR.jpg","stimuli/AF09_AO.jpg","stimuli/WF04_CC.jpg","stimuli/BF06_HE.jpg","pos1","stimuli/WM09_SUR.jpg","SUR","WM09","0","4","8","8","stimuli/stars_8.png","35.5","[""SUR"",""AO"",""CC"",""HE""]","[""WM09"",""AF09"",""WF04"",""BF06""]","[8,4,8,4]","[8,4,6,2]","","",""
"show-reward","32","100328","0.0-32.0","p888260","AROOCBM042SJD","3UUIU9GZC6BQMHTLWW3KSJ0W7IE5TB","3AWETUDC94Y171VTZAGXS007GBYZIC","model","mismatch","uniform","","","","","","","","100602.5","102625.80000001192","","","","","","","","","","","","8","","stimuli/stars_8.png","35.5","","","","","stimuli/WM09_SUR.jpg","",""
"explore-choice","33","102489","0.0-33.0","p888260","AROOCBM042SJD","3UUIU9GZC6BQMHTLWW3KSJ0W7IE5TB","3AWETUDC94Y171VTZAGXS007GBYZIC","model","mismatch","uniform","","","","","","","1653","102628.70000001788","104281.70000001788","[""stimuli/WM09_AO.jpg"",""stimuli/BF06_SUR.jpg"",""stimuli/WF04_HE.jpg"",""stimuli/AF09_CC.jpg""]","stimuli/WM09_AO.jpg","stimuli/BF06_SUR.jpg","stimuli/WF04_HE.jpg","stimuli/AF09_CC.jpg","pos3","stimuli/WF04_HE.jpg","HE","WF04","2","3","6","6","stimuli/stars_6.png","38.5","[""AO"",""SUR"",""HE"",""CC""]","[""WM09"",""BF06"",""WF04"",""AF09""]","[9,1,6,4]","[8,2,6,4]","","",""
"show-reward","34","104503","0.0-34.0","p888260","AROOCBM042SJD","3UUIU9GZC6BQMHTLWW3KSJ0W7IE5TB","3AWETUDC94Y171VTZAGXS007GBYZIC","model","mismatch","uniform","","","","","","","","104789.90000000596","106801.20000001788","","","","","","","","","","","","6","","stimuli/stars_6.png","38.5","","","","","stimuli/WF04_HE.jpg","",""
"explore-choice","35","106991","0.0-35.0","p888260","AROOCBM042SJD","3UUIU9GZC6BQMHTLWW3KSJ0W7IE5TB","3AWETUDC94Y171VTZAGXS007GBYZIC","model","mismatch","uniform","","","","","","","1982","106803.90000000596","108785.90000000596","[""stimuli/AF09_SUR.jpg"",""stimuli/WF04_CC.jpg"",""stimuli/WM09_HE.jpg"",""stimuli/BF06_AO.jpg""]","stimuli/AF09_SUR.jpg","stimuli/WF04_CC.jpg","stimuli/WM09_HE.jpg","stimuli/BF06_AO.jpg","pos3","stimuli/WM09_HE.jpg","HE","WM09","2","4","8","8","stimuli/stars_8.png","42.5","[""SUR"",""CC"",""HE"",""AO""]","[""AF09"",""WF04"",""WM09"",""BF06""]","[3,6,8,3]","[4,6,8,2]","","",""
"show-reward","36","109007","0.0-36.0","p888260","AROOCBM042SJD","3UUIU9GZC6BQMHTLWW3KSJ0W7IE5TB","3AWETUDC94Y171VTZAGXS007GBYZIC","model","mismatch","uniform","","","","","","","","109291.90000000596","111304.5","","","","","","","","","","","","8","","stimuli/stars_8.png","42.5","","","","","stimuli/WM09_HE.jpg","",""
"explore-choice","37","111702","0.0-37.0","p888260","AROOCBM042SJD","3UUIU9GZC6BQMHTLWW3KSJ0W7IE5TB","3AWETUDC94Y171VTZAGXS007GBYZIC","model","mismatch","uniform","","","","","","","2182.2999999821186","111307.30000001192","113489.59999999404","[""stimuli/BF06_HE.jpg"",""stimuli/AF09_SUR.jpg"",""stimuli/WM09_CC.jpg"",""stimuli/WF04_AO.jpg""]","stimuli/BF06_HE.jpg","stimuli/AF09_SUR.jpg","stimuli/WM09_CC.jpg","stimuli/WF04_AO.jpg","pos4","stimuli/WF04_AO.jpg","AO","WF04","3","4","8","6","stimuli/stars_8.png","46.5","[""HE"",""SUR"",""CC"",""AO""]","[""BF06"",""AF09"",""WM09"",""WF04""]","[3,2,7,8]","[2,4,8,6]","","",""
"show-reward","38","113720","0.0-38.0","p888260","AROOCBM042SJD","3UUIU9GZC6BQMHTLWW3KSJ0W7IE5TB","3AWETUDC94Y171VTZAGXS007GBYZIC","model","mismatch","uniform","","","","","","","","114003.30000001192","116017.90000000596","","","","","","","","","","","","8","","stimuli/stars_8.png","46.5","","","","","stimuli/WF04_AO.jpg","",""
"explore-choice","39","115453","0.0-39.0","p888260","AROOCBM042SJD","3UUIU9GZC6BQMHTLWW3KSJ0W7IE5TB","3AWETUDC94Y171VTZAGXS007GBYZIC","model","mismatch","uniform","","","","","","","1221","116020.80000001192","117241.80000001192","[""stimuli/WF04_CC.jpg"",""stimuli/AF09_HE.jpg"",""stimuli/WM09_SUR.jpg"",""stimuli/BF06_AO.jpg""]","stimuli/WF04_CC.jpg","stimuli/AF09_HE.jpg","stimuli/WM09_SUR.jpg","stimuli/BF06_AO.jpg","pos3","stimuli/WM09_SUR.jpg","SUR","WM09","2","5","10","8","stimuli/stars_10.png","51.5","[""CC"",""HE"",""SUR"",""AO""]","[""WF04"",""AF09"",""WM09"",""BF06""]","[8,2,10,1]","[6,4,8,2]","","",""
"show-reward","40","117478","0.0-40.0","p888260","AROOCBM042SJD","3UUIU9GZC6BQMHTLWW3KSJ0W7IE5TB","3AWETUDC94Y171VTZAGXS007GBYZIC","model","mismatch","uniform","","","","","","","","117754.09999999404","119775.59999999404","","","","","","","","","","","","10","","stimuli/stars_10.png","51.5","","","","","stimuli/WM09_SUR.jpg","",""
"explore-choice","41","119513","0.0-41.0","p888260","AROOCBM042SJD","3UUIU9GZC6BQMHTLWW3KSJ0W7IE5TB","3AWETUDC94Y171VTZAGXS007GBYZIC","model","mismatch","uniform","","","","","","","1526.5","119779.20000001788","121305.70000001788","[""stimuli/WF04_AO.jpg"",""stimuli/WM09_HE.jpg"",""stimuli/AF09_SUR.jpg"",""stimuli/BF06_CC.jpg""]","stimuli/WF04_AO.jpg","stimuli/WM09_HE.jpg","stimuli/AF09_SUR.jpg","stimuli/BF06_CC.jpg","pos2","stimuli/WM09_HE.jpg","HE","WM09","1","3","6","8","stimuli/stars_6.png","54.5","[""AO"",""HE"",""SUR"",""CC""]","[""WF04"",""WM09"",""AF09"",""BF06""]","[5,6,3,2]","[6,8,4,2]","","",""
"show-reward","42","121534","0.0-42.0","p888260","AROOCBM042SJD","3UUIU9GZC6BQMHTLWW3KSJ0W7IE5TB","3AWETUDC94Y171VTZAGXS007GBYZIC","model","mismatch","uniform","","","","","","","","121814.5","123832.09999999404","","","","","","","","","","","","6","","stimuli/stars_6.png","54.5","","","","","stimuli/WM09_HE.jpg","",""
"explore-choice","43","123319","0.0-43.0","p888260","AROOCBM042SJD","3UUIU9GZC6BQMHTLWW3KSJ0W7IE5TB","3AWETUDC94Y171VTZAGXS007GBYZIC","model","mismatch","uniform","","","","","","","1278.699999988079","123835.20000001788","125113.90000000596","[""stimuli/AF09_HE.jpg"",""stimuli/WF04_CC.jpg"",""stimuli/BF06_SUR.jpg"",""stimuli/WM09_AO.jpg""]","stimuli/AF09_HE.jpg","stimuli/WF04_CC.jpg","stimuli/BF06_SUR.jpg","stimuli/WM09_AO.jpg","pos1","stimuli/AF09_HE.jpg","HE","AF09","0","1","2","4","stimuli/stars_2.png","55.5","[""HE"",""CC"",""SUR"",""AO""]","[""AF09"",""WF04"",""BF06"",""WM09""]","[2,7,0,7]","[4,6,2,8]","","",""
"show-reward","44","125345","0.0-44.0","p888260","AROOCBM042SJD","3UUIU9GZC6BQMHTLWW3KSJ0W7IE5TB","3AWETUDC94Y171VTZAGXS007GBYZIC","model","mismatch","uniform","","","","","","","","125620","127643.59999999404","","","","","","","","","","","","2","","stimuli/stars_2.png","55.5","","","","","stimuli/AF09_HE.jpg","",""
"explore-choice","45","127334","0.0-45.0","p888260","AROOCBM042SJD","3UUIU9GZC6BQMHTLWW3KSJ0W7IE5TB","3AWETUDC94Y171VTZAGXS007GBYZIC","model","mismatch","uniform","","","","","","","1467.300000011921","127646.59999999404","129113.90000000596","[""stimuli/WF04_SUR.jpg"",""stimuli/WM09_HE.jpg"",""stimuli/AF09_CC.jpg"",""stimuli/BF06_AO.jpg""]","stimuli/WF04_SUR.jpg","stimuli/WM09_HE.jpg","stimuli/AF09_CC.jpg","stimuli/BF06_AO.jpg","pos2","stimuli/WM09_HE.jpg","HE","WM09","1","4","8","8","stimuli/stars_8.png","59.5","[""SUR"",""HE"",""CC"",""AO""]","[""WF04"",""WM09"",""AF09"",""BF06""]","[8,8,4,2]","[6,8,4,2]","","",""
"show-reward","46","129353","0.0-46.0","p888260","AROOCBM042SJD","3UUIU9GZC6BQMHTLWW3KSJ0W7IE5TB","3AWETUDC94Y171VTZAGXS007GBYZIC","model","mismatch","uniform","","","","","","","","129635.59999999404","131652","","","","","","","","","","","","8","","stimuli/stars_8.png","59.5","","","","","stimuli/WM09_HE.jpg","",""
"explore-choice","47","132490","0.0-47.0","p888260","AROOCBM042SJD","3UUIU9GZC6BQMHTLWW3KSJ0W7IE5TB","3AWETUDC94Y171VTZAGXS007GBYZIC","model","mismatch","uniform","","","","","","","2619.5","131654.5","134274","[""stimuli/BF06_SUR.jpg"",""stimuli/AF09_AO.jpg"",""stimuli/WF04_CC.jpg"",""stimuli/WM09_HE.jpg""]","stimuli/BF06_SUR.jpg","stimuli/AF09_AO.jpg","stimuli/WF04_CC.jpg","stimuli/WM09_HE.jpg","pos3","stimuli/WF04_CC.jpg","CC","WF04","2","2.5","5","6","stimuli/stars_5.png","62","[""SUR"",""AO"",""CC"",""HE""]","[""BF06"",""AF09"",""WF04"",""WM09""]","[0,4,5,10]","[2,4,6,8]","","",""
"show-reward","48","134500","0.0-48.0","p888260","AROOCBM042SJD","3UUIU9GZC6BQMHTLWW3KSJ0W7IE5TB","3AWETUDC94Y171VTZAGXS007GBYZIC","model","mismatch","uniform","","","","","","","","134791.40000000596","136798.70000001788","","","","","","","","","","","","5","","stimuli/stars_5.png","62","","","","","stimuli/WF04_CC.jpg","",""
"explore-choice","49","136326","0.0-49.0","p888260","AROOCBM042SJD","3UUIU9GZC6BQMHTLWW3KSJ0W7IE5TB","3AWETUDC94Y171VTZAGXS007GBYZIC","model","mismatch","uniform","","","","","","","1312.9000000059605","136801","138113.90000000596","[""stimuli/AF09_CC.jpg"",""stimuli/WM09_SUR.jpg"",""stimuli/WF04_HE.jpg"",""stimuli/BF06_AO.jpg""]","stimuli/AF09_CC.jpg","stimuli/WM09_SUR.jpg","stimuli/WF04_HE.jpg","stimuli/BF06_AO.jpg","pos2","stimuli/WM09_SUR.jpg","SUR","WM09","1","5","10","8","stimuli/stars_10.png","67","[""CC"",""SUR"",""HE"",""AO""]","[""AF09"",""WM09"",""WF04"",""BF06""]","[5,10,4,2]","[4,8,6,2]","","",""
"show-reward","50","138344","0.0-50.0","p888260","AROOCBM042SJD","3UUIU9GZC6BQMHTLWW3KSJ0W7IE5TB","3AWETUDC94Y171VTZAGXS007GBYZIC","model","mismatch","uniform","","","","","","","","138627.20000001788","140642.80000001192","","","","","","","","","","","","10","","stimuli/stars_10.png","67","","","","","stimuli/WM09_SUR.jpg","",""
"explore-choice","51","140888","0.0-51.0","p888260","AROOCBM042SJD","3UUIU9GZC6BQMHTLWW3KSJ0W7IE5TB","3AWETUDC94Y171VTZAGXS007GBYZIC","model","mismatch","uniform","","","","","","","2037.8999999761581","140644.20000001788","142682.09999999404","[""stimuli/BF06_AO.jpg"",""stimuli/AF09_HE.jpg"",""stimuli/WF04_SUR.jpg"",""stimuli/WM09_CC.jpg""]","stimuli/BF06_AO.jpg","stimuli/AF09_HE.jpg","stimuli/WF04_SUR.jpg","stimuli/WM09_CC.jpg","pos3","stimuli/WF04_SUR.jpg","SUR","WF04","2","4","8","6","stimuli/stars_8.png","71","[""AO"",""HE"",""SUR"",""CC""]","[""BF06"",""AF09"",""WF04"",""WM09""]","[3,5,8,10]","[2,4,6,8]","","",""
"show-reward","52","142915","0.0-52.0","p888260","AROOCBM042SJD","3UUIU9GZC6BQMHTLWW3KSJ0W7IE5TB","3AWETUDC94Y171VTZAGXS007GBYZIC","model","mismatch","uniform","","","","","","","","143189.70000001788","145213.5","","","","","","","","","","","","8","","stimuli/stars_8.png","71","","","","","stimuli/WF04_SUR.jpg","",""
"explore-choice","53","144715","0.0-53.0","p888260","AROOCBM042SJD","3UUIU9GZC6BQMHTLWW3KSJ0W7IE5TB","3AWETUDC94Y171VTZAGXS007GBYZIC","model","mismatch","uniform","","","","","","","1282.1000000238419","145215.59999999404","146497.70000001788","[""stimuli/WF04_HE.jpg"",""stimuli/AF09_SUR.jpg"",""stimuli/WM09_CC.jpg"",""stimuli/BF06_AO.jpg""]","stimuli/WF04_HE.jpg","stimuli/AF09_SUR.jpg","stimuli/WM09_CC.jpg","stimuli/BF06_AO.jpg","pos2","stimuli/AF09_SUR.jpg","SUR","AF09","1","2","4","4","stimuli/stars_4.png","73","[""HE"",""SUR"",""CC"",""AO""]","[""WF04"",""AF09"",""WM09"",""BF06""]","[8,4,9,3]","[6,4,8,2]","","",""
"show-reward","54","146737","0.0-54.0","p888260","AROOCBM042SJD","3UUIU9GZC6BQMHTLWW3KSJ0W7IE5TB","3AWETUDC94Y171VTZAGXS007GBYZIC","model","mismatch","uniform","","","","","","","","147019.09999999404","149035","","","","","","","","","","","","4","","stimuli/stars_4.png","73","","","","","stimuli/AF09_SUR.jpg","",""
"explore-choice","55","148278","0.0-55.0","p888260","AROOCBM042SJD","3UUIU9GZC6BQMHTLWW3KSJ0W7IE5TB","3AWETUDC94Y171VTZAGXS007GBYZIC","model","mismatch","uniform","","","","","","","1028.300000011921","149038","150066.30000001192","[""stimuli/AF09_AO.jpg"",""stimuli/WM09_SUR.jpg"",""stimuli/WF04_CC.jpg"",""stimuli/BF06_HE.jpg""]","stimuli/AF09_AO.jpg","stimuli/WM09_SUR.jpg","stimuli/WF04_CC.jpg","stimuli/BF06_HE.jpg","pos2","stimuli/WM09_SUR.jpg","SUR","WM09","1","4","8","8","stimuli/stars_8.png","77","[""AO"",""SUR"",""CC"",""HE""]","[""AF09"",""WM09"",""WF04"",""BF06""]","[4,8,8,4]","[4,8,6,2]","","",""
"show-reward","56","150300","0.0-56.0","p888260","AROOCBM042SJD","3UUIU9GZC6BQMHTLWW3KSJ0W7IE5TB","3AWETUDC94Y171VTZAGXS007GBYZIC","model","mismatch","uniform","","","","","","","","150578.90000000596","152598.09999999404","","","","","","","","","","","","8","","stimuli/stars_8.png","77","","","","","stimuli/WM09_SUR.jpg","",""
"explore-choice","57","155963","0.0-57.0","p888260","AROOCBM042SJD","3UUIU9GZC6BQMHTLWW3KSJ0W7IE5TB","3AWETUDC94Y171VTZAGXS007GBYZIC","model","mismatch","uniform","","","","","","","5152.699999988079","152600.80000001192","157753.5","[""stimuli/AF09_SUR.jpg"",""stimuli/WM09_AO.jpg"",""stimuli/WF04_HE.jpg"",""stimuli/BF06_CC.jpg""]","stimuli/AF09_SUR.jpg","stimuli/WM09_AO.jpg","stimuli/WF04_HE.jpg","stimuli/BF06_CC.jpg","pos1","stimuli/AF09_SUR.jpg","SUR","AF09","0","2.5","5","4","stimuli/stars_5.png","79.5","[""SUR"",""AO"",""HE"",""CC""]","[""AF09"",""WM09"",""WF04"",""BF06""]","[5,6,8,2]","[4,8,6,2]","","",""
"show-reward","58","157980","0.0-58.0","p888260","AROOCBM042SJD","3UUIU9GZC6BQMHTLWW3KSJ0W7IE5TB","3AWETUDC94Y171VTZAGXS007GBYZIC","model","mismatch","uniform","","","","","","","","158265.09999999404","160278.59999999404","","","","","","","","","","","","5","","stimuli/stars_5.png","79.5","","","","","stimuli/AF09_SUR.jpg","",""
"explore-choice","59","160100","0.0-59.0","p888260","AROOCBM042SJD","3UUIU9GZC6BQMHTLWW3KSJ0W7IE5TB","3AWETUDC94Y171VTZAGXS007GBYZIC","model","mismatch","uniform","","","","","","","1609.3999999761581","160280.20000001788","161889.59999999404","[""stimuli/WM09_SUR.jpg"",""stimuli/AF09_CC.jpg"",""stimuli/WF04_HE.jpg"",""stimuli/BF06_AO.jpg""]","stimuli/WM09_SUR.jpg","stimuli/AF09_CC.jpg","stimuli/WF04_HE.jpg","stimuli/BF06_AO.jpg","pos3","stimuli/WF04_HE.jpg","HE","WF04","2","2","4","6","stimuli/stars_4.png","81.5","[""SUR"",""CC"",""HE"",""AO""]","[""WM09"",""AF09"",""WF04"",""BF06""]","[10,5,4,2]","[8,4,6,2]","","",""
"show-reward","60","162115","0.0-60.0","p888260","AROOCBM042SJD","3UUIU9GZC6BQMHTLWW3KSJ0W7IE5TB","3AWETUDC94Y171VTZAGXS007GBYZIC","model","mismatch","uniform","","","","","","","","162401.59999999404","164413.30000001192","","","","","","","","","","","","4","","stimuli/stars_4.png","81.5","","","","","stimuli/WF04_HE.jpg","",""
"explore-choice","61","163216","0.0-61.0","p888260","AROOCBM042SJD","3UUIU9GZC6BQMHTLWW3KSJ0W7IE5TB","3AWETUDC94Y171VTZAGXS007GBYZIC","model","mismatch","uniform","","","","","","","594.7000000178814","164415.5","165010.20000001788","[""stimuli/WF04_SUR.jpg"",""stimuli/WM09_HE.jpg"",""stimuli/BF06_AO.jpg"",""stimuli/AF09_CC.jpg""]","stimuli/WF04_SUR.jpg","stimuli/WM09_HE.jpg","stimuli/BF06_AO.jpg","stimuli/AF09_CC.jpg","pos2","stimuli/WM09_HE.jpg","HE","WM09","1","4","8","8","stimuli/stars_8.png","85.5","[""SUR"",""HE"",""AO"",""CC""]","[""WF04"",""WM09"",""BF06"",""AF09""]","[8,8,2,4]","[6,8,2,4]","","",""
"show-reward","62","165231","0.0-62.0","p888260","AROOCBM042SJD","3UUIU9GZC6BQMHTLWW3KSJ0W7IE5TB","3AWETUDC94Y171VTZAGXS007GBYZIC","model","mismatch","uniform","","","","","","","","165516.80000001192","167529.90000000596","","","","","","","","","","","","8","","stimuli/stars_8.png","85.5","","","","","stimuli/WM09_HE.jpg","",""
"explore-choice","63","166479","0.0-63.0","p888260","AROOCBM042SJD","3UUIU9GZC6BQMHTLWW3KSJ0W7IE5TB","3AWETUDC94Y171VTZAGXS007GBYZIC","model","mismatch","uniform","","","","","","","741.7000000178814","167532.5","168274.20000001788","[""stimuli/WM09_AO.jpg"",""stimuli/BF06_SUR.jpg"",""stimuli/WF04_CC.jpg"",""stimuli/AF09_HE.jpg""]","stimuli/WM09_AO.jpg","stimuli/BF06_SUR.jpg","stimuli/WF04_CC.jpg","stimuli/AF09_HE.jpg","pos1","stimuli/WM09_AO.jpg","AO","WM09","0","3.5","7","8","stimuli/stars_7.png","89","[""AO"",""SUR"",""CC"",""HE""]","[""WM09"",""BF06"",""WF04"",""AF09""]","[7,0,7,2]","[8,2,6,4]","","",""
"show-reward","64","168495","0.0-64.0","p888260","AROOCBM042SJD","3UUIU9GZC6BQMHTLWW3KSJ0W7IE5TB","3AWETUDC94Y171VTZAGXS007GBYZIC","model","mismatch","uniform","","","","","","","","168780.20000001788","170792.90000000596","","","","","","","","","","","","7","","stimuli/stars_7.png","89","","","","","stimuli/WM09_AO.jpg","",""
"explore-choice","65","170963","0.0-65.0","p888260","AROOCBM042SJD","3UUIU9GZC6BQMHTLWW3KSJ0W7IE5TB","3AWETUDC94Y171VTZAGXS007GBYZIC","model","mismatch","uniform","","","","","","","1956.7999999821186","170796.70000001788","172753.5","[""stimuli/WM09_CC.jpg"",""stimuli/WF04_SUR.jpg"",""stimuli/AF09_AO.jpg"",""stimuli/BF06_HE.jpg""]","stimuli/WM09_CC.jpg","stimuli/WF04_SUR.jpg","stimuli/AF09_AO.jpg","stimuli/BF06_HE.jpg","pos4","stimuli/BF06_HE.jpg","HE","BF06","3","0","0","2","stimuli/stars_0.png","89","[""CC"",""SUR"",""AO"",""HE""]","[""WM09"",""WF04"",""AF09"",""BF06""]","[7,6,6,0]","[8,6,4,2]","","",""
"show-reward","66","172980","0.0-66.0","p888260","AROOCBM042SJD","3UUIU9GZC6BQMHTLWW3KSJ0W7IE5TB","3AWETUDC94Y171VTZAGXS007GBYZIC","model","mismatch","uniform","","","","","","","","173264.59999999404","175278.40000000596","","","","","","","","","","","","0","","stimuli/stars_0.png","89","","","","","stimuli/BF06_HE.jpg","",""
"explore-choice","67","174071","0.0-67.0","p888260","AROOCBM042SJD","3UUIU9GZC6BQMHTLWW3KSJ0W7IE5TB","3AWETUDC94Y171VTZAGXS007GBYZIC","model","mismatch","uniform","","","","","","","582.9000000059605","175282.90000000596","175865.80000001192","[""stimuli/WF04_AO.jpg"",""stimuli/AF09_SUR.jpg"",""stimuli/WM09_CC.jpg"",""stimuli/BF06_HE.jpg""]","stimuli/WF04_AO.jpg","stimuli/AF09_SUR.jpg","stimuli/WM09_CC.jpg","stimuli/BF06_HE.jpg","pos2","stimuli/AF09_SUR.jpg","SUR","AF09","1","1","2","4","stimuli/stars_2.png","90","[""AO"",""SUR"",""CC"",""HE""]","[""WF04"",""AF09"",""WM09"",""BF06""]","[8,2,7,3]","[6,4,8,2]","","",""
"show-reward","68","176098","0.0-68.0","p888260","AROOCBM042SJD","3UUIU9GZC6BQMHTLWW3KSJ0W7IE5TB","3AWETUDC94Y171VTZAGXS007GBYZIC","model","mismatch","uniform","","","","","","","","176373.40000000596","178396.70000001788","","","","","","","","","","","","2","","stimuli/stars_2.png","90","","","","","stimuli/AF09_SUR.jpg","",""
"explore-choice","69","179219","0.0-69.0","p888260","AROOCBM042SJD","3UUIU9GZC6BQMHTLWW3KSJ0W7IE5TB","3AWETUDC94Y171VTZAGXS007GBYZIC","model","mismatch","uniform","","","","","","","2617.899999976158","178399.70000001788","181017.59999999404","[""stimuli/WM09_SUR.jpg"",""stimuli/BF06_CC.jpg"",""stimuli/WF04_HE.jpg"",""stimuli/AF09_AO.jpg""]","stimuli/WM09_SUR.jpg","stimuli/BF06_CC.jpg","stimuli/WF04_HE.jpg","stimuli/AF09_AO.jpg","pos1","stimuli/WM09_SUR.jpg","SUR","WM09","0","3","6","8","stimuli/stars_6.png","93","[""SUR"",""CC"",""HE"",""AO""]","[""WM09"",""BF06"",""WF04"",""AF09""]","[6,1,8,4]","[8,2,6,4]","","",""
"show-reward","70","181231","0.0-70.0","p888260","AROOCBM042SJD","3UUIU9GZC6BQMHTLWW3KSJ0W7IE5TB","3AWETUDC94Y171VTZAGXS007GBYZIC","model","mismatch","uniform","","","","","","","","181520.59999999404","183529.70000001788","","","","","","","","","","","","6","","stimuli/stars_6.png","93","","","","","stimuli/WM09_SUR.jpg","",""
"explore-choice","71","184850","0.0-71.0","p888260","AROOCBM042SJD","3UUIU9GZC6BQMHTLWW3KSJ0W7IE5TB","3AWETUDC94Y171VTZAGXS007GBYZIC","model","mismatch","uniform","","","","","","","3108.9000000059605","183532.80000001192","186641.70000001788","[""stimuli/WF04_CC.jpg"",""stimuli/AF09_HE.jpg"",""stimuli/WM09_SUR.jpg"",""stimuli/BF06_AO.jpg""]","stimuli/WF04_CC.jpg","stimuli/AF09_HE.jpg","stimuli/WM09_SUR.jpg","stimuli/BF06_AO.jpg","pos3","stimuli/WM09_SUR.jpg","SUR","WM09","2","5","10","8","stimuli/stars_10.png","98","[""CC"",""HE"",""SUR"",""AO""]","[""WF04"",""AF09"",""WM09"",""BF06""]","[8,2,10,1]","[6,4,8,2]","","",""
"show-reward","72","186863","0.0-72.0","p888260","AROOCBM042SJD","3UUIU9GZC6BQMHTLWW3KSJ0W7IE5TB","3AWETUDC94Y171VTZAGXS007GBYZIC","model","mismatch","uniform","","","","","","","","187151.20000001788","189162.5","","","","","","","","","","","","10","","stimuli/stars_10.png","98","","","","","stimuli/WM09_SUR.jpg","",""
"explore-choice","73","188407","0.0-73.0","p888260","AROOCBM042SJD","3UUIU9GZC6BQMHTLWW3KSJ0W7IE5TB","3AWETUDC94Y171VTZAGXS007GBYZIC","model","mismatch","uniform","","","","","","","1030.4000000059605","189163.90000000596","190194.30000001192","[""stimuli/WF04_CC.jpg"",""stimuli/WM09_HE.jpg"",""stimuli/BF06_AO.jpg"",""stimuli/AF09_SUR.jpg""]","stimuli/WF04_CC.jpg","stimuli/WM09_HE.jpg","stimuli/BF06_AO.jpg","stimuli/AF09_SUR.jpg","pos2","stimuli/WM09_HE.jpg","HE","WM09","1","4","8","8","stimuli/stars_8.png","102","[""CC"",""HE"",""AO"",""SUR""]","[""WF04"",""WM09"",""BF06"",""AF09""]","[6,8,3,3]","[6,8,2,4]","","",""
"show-reward","74","190422","0.0-74.0","p888260","AROOCBM042SJD","3UUIU9GZC6BQMHTLWW3KSJ0W7IE5TB","3AWETUDC94Y171VTZAGXS007GBYZIC","model","mismatch","uniform","","","","","","","","190709.09999999404","192721.20000001788","","","","","","","","","","","","8","","stimuli/stars_8.png","102","","","","","stimuli/WM09_HE.jpg","",""
"explore-choice","75","191917","0.0-75.0","p888260","AROOCBM042SJD","3UUIU9GZC6BQMHTLWW3KSJ0W7IE5TB","3AWETUDC94Y171VTZAGXS007GBYZIC","model","mismatch","uniform","","","","","","","981.5999999940395","192724.20000001788","193705.80000001192","[""stimuli/WM09_HE.jpg"",""stimuli/AF09_SUR.jpg"",""stimuli/WF04_AO.jpg"",""stimuli/BF06_CC.jpg""]","stimuli/WM09_HE.jpg","stimuli/AF09_SUR.jpg","stimuli/WF04_AO.jpg","stimuli/BF06_CC.jpg","pos1","stimuli/WM09_HE.jpg","HE","WM09","0","3","6","8","stimuli/stars_6.png","105","[""HE"",""SUR"",""AO"",""CC""]","[""WM09"",""AF09"",""WF04"",""BF06""]","[6,3,5,2]","[8,4,6,2]","","",""
"show-reward","76","193934","0.0-76.0","p888260","AROOCBM042SJD","3UUIU9GZC6BQMHTLWW3KSJ0W7IE5TB","3AWETUDC94Y171VTZAGXS007GBYZIC","model","mismatch","uniform","","","","","","","","194218.09999999404","196231.80000001192","","","","","","","","","","","","6","","stimuli/stars_6.png","105","","","","","stimuli/WM09_HE.jpg","",""
"explore-choice","77","195802","0.0-77.0","p888260","AROOCBM042SJD","3UUIU9GZC6BQMHTLWW3KSJ0W7IE5TB","3AWETUDC94Y171VTZAGXS007GBYZIC","model","mismatch","uniform","","","","","","","1358.4000000059605","196235.5","197593.90000000596","[""stimuli/BF06_AO.jpg"",""stimuli/AF09_SUR.jpg"",""stimuli/WM09_CC.jpg"",""stimuli/WF04_HE.jpg""]","stimuli/BF06_AO.jpg","stimuli/AF09_SUR.jpg","stimuli/WM09_CC.jpg","stimuli/WF04_HE.jpg","pos4","stimuli/WF04_HE.jpg","HE","WF04","3","4","8","6","stimuli/stars_8.png","109","[""AO"",""SUR"",""CC"",""HE""]","[""BF06"",""AF09"",""WM09"",""WF04""]","[3,4,9,8]","[2,4,8,6]","","",""
"show-reward","78","197822","0.0-78.0","p888260","AROOCBM042SJD","3UUIU9GZC6BQMHTLWW3KSJ0W7IE5TB","3AWETUDC94Y171VTZAGXS007GBYZIC","model","mismatch","uniform","","","","","","","","198103.70000001788","200121.20000001788","","","","","","","","","","","","8","","stimuli/stars_8.png","109","","","","","stimuli/WF04_HE.jpg","",""
"explore-choice","79","202091","0.0-79.0","p888260","AROOCBM042SJD","3UUIU9GZC6BQMHTLWW3KSJ0W7IE5TB","3AWETUDC94Y171VTZAGXS007GBYZIC","model","mismatch","uniform","","","","","","","3759.0999999940395","200122.70000001788","203881.80000001192","[""stimuli/WM09_HE.jpg"",""stimuli/AF09_CC.jpg"",""stimuli/WF04_AO.jpg"",""stimuli/BF06_SUR.jpg""]","stimuli/WM09_HE.jpg","stimuli/AF09_CC.jpg","stimuli/WF04_AO.jpg","stimuli/BF06_SUR.jpg","pos3","stimuli/WF04_AO.jpg","AO","WF04","2","2","4","6","stimuli/stars_4.png","111","[""HE"",""CC"",""AO"",""SUR""]","[""WM09"",""AF09"",""WF04"",""BF06""]","[6,6,4,1]","[8,4,6,2]","","",""
"show-reward","80","204102","0.0-80.0","p888260","AROOCBM042SJD","3UUIU9GZC6BQMHTLWW3KSJ0W7IE5TB","3AWETUDC94Y171VTZAGXS007GBYZIC","model","mismatch","uniform","","","","","","","","204392.09999999404","206400.30000001192","","","","","","","","","","","","4","","stimuli/stars_4.png","111","","","","","stimuli/WF04_AO.jpg","",""
"explore-choice","81","206016","0.0-81.0","p888260","AROOCBM042SJD","3UUIU9GZC6BQMHTLWW3KSJ0W7IE5TB","3AWETUDC94Y171VTZAGXS007GBYZIC","model","mismatch","uniform","","","","","","","1405.8999999761581","206403.70000001788","207809.59999999404","[""stimuli/WF04_HE.jpg"",""stimuli/WM09_AO.jpg"",""stimuli/AF09_CC.jpg"",""stimuli/BF06_SUR.jpg""]","stimuli/WF04_HE.jpg","stimuli/WM09_AO.jpg","stimuli/AF09_CC.jpg","stimuli/BF06_SUR.jpg","pos4","stimuli/BF06_SUR.jpg","SUR","BF06","3","0.5","1","2","stimuli/stars_1.png","111.5","[""HE"",""AO"",""CC"",""SUR""]","[""WF04"",""WM09"",""AF09"",""BF06""]","[6,9,4,1]","[6,8,4,2]","","",""
"show-reward","82","208030","0.0-82.0","p888260","AROOCBM042SJD","3UUIU9GZC6BQMHTLWW3KSJ0W7IE5TB","3AWETUDC94Y171VTZAGXS007GBYZIC","model","mismatch","uniform","","","","","","","","208317.20000001788","210329.30000001192","","","","","","","","","","","","1","","stimuli/stars_1.png","111.5","","","","","stimuli/BF06_SUR.jpg","",""
"explore-choice","83","210162","0.0-83.0","p888260","AROOCBM042SJD","3UUIU9GZC6BQMHTLWW3KSJ0W7IE5TB","3AWETUDC94Y171VTZAGXS007GBYZIC","model","mismatch","uniform","","","","","","","1623.0999999940395","210330.70000001788","211953.80000001192","[""stimuli/BF06_CC.jpg"",""stimuli/WF04_SUR.jpg"",""stimuli/WM09_HE.jpg"",""stimuli/AF09_AO.jpg""]","stimuli/BF06_CC.jpg","stimuli/WF04_SUR.jpg","stimuli/WM09_HE.jpg","stimuli/AF09_AO.jpg","pos3","stimuli/WM09_HE.jpg","HE","WM09","2","5","10","8","stimuli/stars_10.png","116.5","[""CC"",""SUR"",""HE"",""AO""]","[""BF06"",""WF04"",""WM09"",""AF09""]","[4,8,10,5]","[2,6,8,4]","","",""
"show-reward","84","212184","0.0-84.0","p888260","AROOCBM042SJD","3UUIU9GZC6BQMHTLWW3KSJ0W7IE5TB","3AWETUDC94Y171VTZAGXS007GBYZIC","model","mismatch","uniform","","","","","","","","212463.90000000596","214482.5","","","","","","","","","","","","10","","stimuli/stars_10.png","116.5","","","","","stimuli/WM09_HE.jpg","",""
"explore-choice","85","220070","0.0-85.0","p888260","AROOCBM042SJD","3UUIU9GZC6BQMHTLWW3KSJ0W7IE5TB","3AWETUDC94Y171VTZAGXS007GBYZIC","model","mismatch","uniform","","","","","","","7381.0999999940395","214484.90000000596","221866","[""stimuli/AF09_HE.jpg"",""stimuli/WF04_AO.jpg"",""stimuli/WM09_SUR.jpg"",""stimuli/BF06_CC.jpg""]","stimuli/AF09_HE.jpg","stimuli/WF04_AO.jpg","stimuli/WM09_SUR.jpg","stimuli/BF06_CC.jpg","pos3","stimuli/WM09_SUR.jpg","SUR","WM09","2","3.5","7","8","stimuli/stars_7.png","120","[""HE"",""AO"",""SUR"",""CC""]","[""AF09"",""WF04"",""WM09"",""BF06""]","[5,5,7,4]","[4,6,8,2]","","",""
"show-reward","86","222078","0.0-86.0","p888260","AROOCBM042SJD","3UUIU9GZC6BQMHTLWW3KSJ0W7IE5TB","3AWETUDC94Y171VTZAGXS007GBYZIC","model","mismatch","uniform","","","","","","","","222371","224376.80000001192","","","","","","","","","","","","7","","stimuli/stars_7.png","120","","","","","stimuli/WM09_SUR.jpg","",""
"explore-choice","87","227809","0.0-87.0","p888260","AROOCBM042SJD","3UUIU9GZC6BQMHTLWW3KSJ0W7IE5TB","3AWETUDC94Y171VTZAGXS007GBYZIC","model","mismatch","uniform","","","","","","","5222.300000011921","224379.90000000596","229602.20000001788","[""stimuli/AF09_HE.jpg"",""stimuli/WF04_SUR.jpg"",""stimuli/WM09_AO.jpg"",""stimuli/BF06_CC.jpg""]","stimuli/AF09_HE.jpg","stimuli/WF04_SUR.jpg","stimuli/WM09_AO.jpg","stimuli/BF06_CC.jpg","pos2","stimuli/WF04_SUR.jpg","SUR","WF04","1","2","4","6","stimuli/stars_4.png","122","[""HE"",""SUR"",""AO"",""CC""]","[""AF09"",""WF04"",""WM09"",""BF06""]","[5,4,10,3]","[4,6,8,2]","","",""
"show-reward","88","229831","0.0-88.0","p888260","AROOCBM042SJD","3UUIU9GZC6BQMHTLWW3KSJ0W7IE5TB","3AWETUDC94Y171VTZAGXS007GBYZIC","model","mismatch","uniform","","","","","","","","230112","232129.09999999404","","","","","","","","","","","","4","","stimuli/stars_4.png","122","","","","","stimuli/WF04_SUR.jpg","",""
"explore-choice","89","234832","0.0-89.0","p888260","AROOCBM042SJD","3UUIU9GZC6BQMHTLWW3KSJ0W7IE5TB","3AWETUDC94Y171VTZAGXS007GBYZIC","model","mismatch","uniform","","","","","","","4485.9000000059605","232132.5","236618.40000000596","[""stimuli/WM09_AO.jpg"",""stimuli/BF06_HE.jpg"",""stimuli/WF04_SUR.jpg"",""stimuli/AF09_CC.jpg""]","stimuli/WM09_AO.jpg","stimuli/BF06_HE.jpg","stimuli/WF04_SUR.jpg","stimuli/AF09_CC.jpg","pos1","stimuli/WM09_AO.jpg","AO","WM09","0","4","8","8","stimuli/stars_8.png","126","[""AO"",""HE"",""SUR"",""CC""]","[""WM09"",""BF06"",""WF04"",""AF09""]","[8,4,4,4]","[8,2,6,4]","","",""
"show-reward","90","236846","0.0-90.0","p888260","AROOCBM042SJD","3UUIU9GZC6BQMHTLWW3KSJ0W7IE5TB","3AWETUDC94Y171VTZAGXS007GBYZIC","model","mismatch","uniform","","","","","","","","237132.70000001788","239144.80000001192","","","","","","","","","","","","8","","stimuli/stars_8.png","126","","","","","stimuli/WM09_AO.jpg","",""
"explore-choice","91","240109","0.0-91.0","p888260","AROOCBM042SJD","3UUIU9GZC6BQMHTLWW3KSJ0W7IE5TB","3AWETUDC94Y171VTZAGXS007GBYZIC","model","mismatch","uniform","","","","","","","2758.0999999940395","239147.90000000596","241906","[""stimuli/AF09_SUR.jpg"",""stimuli/WM09_AO.jpg"",""stimuli/BF06_HE.jpg"",""stimuli/WF04_CC.jpg""]","stimuli/AF09_SUR.jpg","stimuli/WM09_AO.jpg","stimuli/BF06_HE.jpg","stimuli/WF04_CC.jpg","pos2","stimuli/WM09_AO.jpg","AO","WM09","1","4","8","8","stimuli/stars_8.png","130","[""SUR"",""AO"",""HE"",""CC""]","[""AF09"",""WM09"",""BF06"",""WF04""]","[6,8,2,4]","[4,8,2,6]","","",""
"show-reward","92","242127","0.0-92.0","p888260","AROOCBM042SJD","3UUIU9GZC6BQMHTLWW3KSJ0W7IE5TB","3AWETUDC94Y171VTZAGXS007GBYZIC","model","mismatch","uniform","","","","","","","","242410.5","244425.20000001788","","","","","","","","","","","","8","","stimuli/stars_8.png","130","","","","","stimuli/WM09_AO.jpg","",""
"explore-choice","93","244218","0.0-93.0","p888260","AROOCBM042SJD","3UUIU9GZC6BQMHTLWW3KSJ0W7IE5TB","3AWETUDC94Y171VTZAGXS007GBYZIC","model","mismatch","uniform","","","","","","","1581.300000011921","244428","246009.30000001192","[""stimuli/BF06_AO.jpg"",""stimuli/AF09_HE.jpg"",""stimuli/WF04_SUR.jpg"",""stimuli/WM09_CC.jpg""]","stimuli/BF06_AO.jpg","stimuli/AF09_HE.jpg","stimuli/WF04_SUR.jpg","stimuli/WM09_CC.jpg","pos1","stimuli/BF06_AO.jpg","AO","BF06","0","1.5","3","2","stimuli/stars_3.png","131.5","[""AO"",""HE"",""SUR"",""CC""]","[""BF06"",""AF09"",""WF04"",""WM09""]","[3,5,8,10]","[2,4,6,8]","","",""
"show-reward","94","246235","0.0-94.0","p888260","AROOCBM042SJD","3UUIU9GZC6BQMHTLWW3KSJ0W7IE5TB","3AWETUDC94Y171VTZAGXS007GBYZIC","model","mismatch","uniform","","","","","","","","246518.5","248532.90000000596","","","","","","","","","","","","3","","stimuli/stars_3.png","131.5","","","","","stimuli/BF06_AO.jpg","",""
"explore-choice","95","247913","0.0-95.0","p888260","AROOCBM042SJD","3UUIU9GZC6BQMHTLWW3KSJ0W7IE5TB","3AWETUDC94Y171VTZAGXS007GBYZIC","model","mismatch","uniform","","","","","","","1170.6000000238419","248535.59999999404","249706.20000001788","[""stimuli/BF06_SUR.jpg"",""stimuli/WM09_HE.jpg"",""stimuli/AF09_AO.jpg"",""stimuli/WF04_CC.jpg""]","stimuli/BF06_SUR.jpg","stimuli/WM09_HE.jpg","stimuli/AF09_AO.jpg","stimuli/WF04_CC.jpg","pos4","stimuli/WF04_CC.jpg","CC","WF04","3","2.5","5","6","stimuli/stars_5.png","134","[""SUR"",""HE"",""AO"",""CC""]","[""BF06"",""WM09"",""AF09"",""WF04""]","[0,10,4,5]","[2,8,4,6]","","",""
"show-reward","96","249939","0.0-96.0","p888260","AROOCBM042SJD","3UUIU9GZC6BQMHTLWW3KSJ0W7IE5TB","3AWETUDC94Y171VTZAGXS007GBYZIC","model","mismatch","uniform","","","","","","","","250215","252237.70000001788","","","","","","","","","","","","5","","stimuli/stars_5.png","134","","","","","stimuli/WF04_CC.jpg","",""
"explore-choice","97","251957","0.0-97.0","p888260","AROOCBM042SJD","3UUIU9GZC6BQMHTLWW3KSJ0W7IE5TB","3AWETUDC94Y171VTZAGXS007GBYZIC","model","mismatch","uniform","","","","","","","1504.5","252241","253745.5","[""stimuli/BF06_SUR.jpg"",""stimuli/AF09_AO.jpg"",""stimuli/WM09_CC.jpg"",""stimuli/WF04_HE.jpg""]","stimuli/BF06_SUR.jpg","stimuli/AF09_AO.jpg","stimuli/WM09_CC.jpg","stimuli/WF04_HE.jpg","pos3","stimuli/WM09_CC.jpg","CC","WM09","2","4.5","9","8","stimuli/stars_9.png","138.5","[""SUR"",""AO"",""CC"",""HE""]","[""BF06"",""AF09"",""WM09"",""WF04""]","[0,3,9,4]","[2,4,8,6]","","",""
"show-reward","98","253981","0.0-98.0","p888260","AROOCBM042SJD","3UUIU9GZC6BQMHTLWW3KSJ0W7IE5TB","3AWETUDC94Y171VTZAGXS007GBYZIC","model","mismatch","uniform","","","","","","","","254259.59999999404","256278.90000000596","","","","","","","","","","","","9","","stimuli/stars_9.png","138.5","","","","","stimuli/WM09_CC.jpg","",""
"explore-choice","99","255477","0.0-99.0","p888260","AROOCBM042SJD","3UUIU9GZC6BQMHTLWW3KSJ0W7IE5TB","3AWETUDC94Y171VTZAGXS007GBYZIC","model","mismatch","uniform","","","","","","","991.3000000119209","256282.09999999404","257273.40000000596","[""stimuli/WF04_AO.jpg"",""stimuli/WM09_CC.jpg"",""stimuli/AF09_HE.jpg"",""stimuli/BF06_SUR.jpg""]","stimuli/WF04_AO.jpg","stimuli/WM09_CC.jpg","stimuli/AF09_HE.jpg","stimuli/BF06_SUR.jpg","pos2","stimuli/WM09_CC.jpg","CC","WM09","1","4","8","8","stimuli/stars_8.png","142.5","[""AO"",""CC"",""HE"",""SUR""]","[""WF04"",""WM09"",""AF09"",""BF06""]","[7,8,4,4]","[6,8,4,2]","","",""
"show-reward","100","257485","0.0-100.0","p888260","AROOCBM042SJD","3UUIU9GZC6BQMHTLWW3KSJ0W7IE5TB","3AWETUDC94Y171VTZAGXS007GBYZIC","model","mismatch","uniform","","","","","","","","257777","259782.80000001192","","","","","","","","","","","","8","","stimuli/stars_8.png","142.5","","","","","stimuli/WM09_CC.jpg","",""
"explore-choice","101","259101","0.0-101.0","p888260","AROOCBM042SJD","3UUIU9GZC6BQMHTLWW3KSJ0W7IE5TB","3AWETUDC94Y171VTZAGXS007GBYZIC","model","mismatch","uniform","","","","","","","1096","259785.90000000596","260881.90000000596","[""stimuli/BF06_HE.jpg"",""stimuli/WF04_AO.jpg"",""stimuli/AF09_CC.jpg"",""stimuli/WM09_SUR.jpg""]","stimuli/BF06_HE.jpg","stimuli/WF04_AO.jpg","stimuli/AF09_CC.jpg","stimuli/WM09_SUR.jpg","pos2","stimuli/WF04_AO.jpg","AO","WF04","1","3","6","6","stimuli/stars_6.png","145.5","[""HE"",""AO"",""CC"",""SUR""]","[""BF06"",""WF04"",""AF09"",""WM09""]","[1,6,2,7]","[2,6,4,8]","","",""
"show-reward","102","261120","0.0-102.0","p888260","AROOCBM042SJD","3UUIU9GZC6BQMHTLWW3KSJ0W7IE5TB","3AWETUDC94Y171VTZAGXS007GBYZIC","model","mismatch","uniform","","","","","","","","261402","263418.5","","","","","","","","","","","","6","","stimuli/stars_6.png","145.5","","","","","stimuli/WF04_AO.jpg","",""
"explore-choice","103","265807","0.0-103.0","p888260","AROOCBM042SJD","3UUIU9GZC6BQMHTLWW3KSJ0W7IE5TB","3AWETUDC94Y171VTZAGXS007GBYZIC","model","mismatch","uniform","","","","","","","4172.200000017881","263421.59999999404","267593.8000000119","[""stimuli/HM10_HO.jpg"",""stimuli/BM16_SC.jpg"",""stimuli/BF05_DO.jpg"",""stimuli/HF04_FO.jpg""]","stimuli/HM10_HO.jpg","stimuli/BM16_SC.jpg","stimuli/BF05_DO.jpg","stimuli/HF04_FO.jpg","pos1","stimuli/HM10_HO.jpg","HO","HM10","0","3.5","7","6","stimuli/stars_7.png","149","[""HO"",""SC"",""DO"",""FO""]","[""HM10"",""BM16"",""BF05"",""HF04""]","[7,9,4,2]","[6,8,2,4]","","",""
"show-reward","104","267832","0.0-104.0","p888260","AROOCBM042SJD","3UUIU9GZC6BQMHTLWW3KSJ0W7IE5TB","3AWETUDC94Y171VTZAGXS007GBYZIC","model","mismatch","uniform","","","","","","","","268107","270129.5","","","","","","","","","","","","7","","stimuli/stars_7.png","149","","","","","stimuli/HM10_HO.jpg","",""
"explore-choice","105","269595","0.0-105.0","p888260","AROOCBM042SJD","3UUIU9GZC6BQMHTLWW3KSJ0W7IE5TB","3AWETUDC94Y171VTZAGXS007GBYZIC","model","mismatch","uniform","","","","","","","1252.800000011921","270133","271385.8000000119","[""stimuli/HF04_FO.jpg"",""stimuli/BM16_HO.jpg"",""stimuli/BF05_SC.jpg"",""stimuli/HM10_DO.jpg""]","stimuli/HF04_FO.jpg","stimuli/BM16_HO.jpg","stimuli/BF05_SC.jpg","stimuli/HM10_DO.jpg","pos2","stimuli/BM16_HO.jpg","HO","BM16","1","4","8","6","stimuli/stars_8.png","153","[""FO"",""HO"",""SC"",""DO""]","[""HF04"",""BM16"",""BF05"",""HM10""]","[6,8,10,2]","[4,6,8,2]","","",""
"show-reward","106","271613","0.0-106.0","p888260","AROOCBM042SJD","3UUIU9GZC6BQMHTLWW3KSJ0W7IE5TB","3AWETUDC94Y171VTZAGXS007GBYZIC","model","mismatch","uniform","","","","","","","","271901.40000000596","273911.59999999404","","","","","","","","","","","","8","","stimuli/stars_8.png","153","","","","","stimuli/BM16_HO.jpg","",""
"explore-choice","107","273878","0.0-107.0","p888260","AROOCBM042SJD","3UUIU9GZC6BQMHTLWW3KSJ0W7IE5TB","3AWETUDC94Y171VTZAGXS007GBYZIC","model","mismatch","uniform","","","","","","","1751.7000000178814","273914.5","275666.2000000179","[""stimuli/HM10_SC.jpg"",""stimuli/BF05_DO.jpg"",""stimuli/BM16_HO.jpg"",""stimuli/HF04_FO.jpg""]","stimuli/HM10_SC.jpg","stimuli/BF05_DO.jpg","stimuli/BM16_HO.jpg","stimuli/HF04_FO.jpg","pos4","stimuli/HF04_FO.jpg","FO","HF04","3","3","6","4","stimuli/stars_6.png","156","[""SC"",""DO"",""HO"",""FO""]","[""HM10"",""BF05"",""BM16"",""HF04""]","[8,0,6,6]","[8,2,6,4]","","",""
"show-reward","108","275897","0.0-108.0","p888260","AROOCBM042SJD","3UUIU9GZC6BQMHTLWW3KSJ0W7IE5TB","3AWETUDC94Y171VTZAGXS007GBYZIC","model","mismatch","uniform","","","","","","","","276179.40000000596","278194.5","","","","","","","","","","","","6","","stimuli/stars_6.png","156","","","","","stimuli/HF04_FO.jpg","",""
"explore-choice","109","278455","0.0-109.0","p888260","AROOCBM042SJD","3UUIU9GZC6BQMHTLWW3KSJ0W7IE5TB","3AWETUDC94Y171VTZAGXS007GBYZIC","model","mismatch","uniform","","","","","","","2051.7000000178814","278198.09999999404","280249.8000000119","[""stimuli/BM16_DO.jpg"",""stimuli/HF04_SC.jpg"",""stimuli/HM10_HO.jpg"",""stimuli/BF05_FO.jpg""]","stimuli/BM16_DO.jpg","stimuli/HF04_SC.jpg","stimuli/HM10_HO.jpg","stimuli/BF05_FO.jpg","pos4","stimuli/BF05_FO.jpg","FO","BF05","3","2","4","4","stimuli/stars_4.png","158","[""DO"",""SC"",""HO"",""FO""]","[""BM16"",""HF04"",""HM10"",""BF05""]","[3,7,6,4]","[2,8,6,4]","","",""
"show-reward","110","280479","0.0-110.0","p888260","AROOCBM042SJD","3UUIU9GZC6BQMHTLWW3KSJ0W7IE5TB","3AWETUDC94Y171VTZAGXS007GBYZIC","model","mismatch","uniform","","","","","","","","280755.3000000119","282777.3000000119","","","","","","","","","","","","4","","stimuli/stars_4.png","158","","","","","stimuli/BF05_FO.jpg","",""
"explore-choice","111","282454","0.0-111.0","p888260","AROOCBM042SJD","3UUIU9GZC6BQMHTLWW3KSJ0W7IE5TB","3AWETUDC94Y171VTZAGXS007GBYZIC","model","mismatch","uniform","","","","","","","1470.800000011921","282778.90000000596","284249.7000000179","[""stimuli/BF05_FO.jpg"",""stimuli/HF04_SC.jpg"",""stimuli/BM16_HO.jpg"",""stimuli/HM10_DO.jpg""]","stimuli/BF05_FO.jpg","stimuli/HF04_SC.jpg","stimuli/BM16_HO.jpg","stimuli/HM10_DO.jpg","pos3","stimuli/BM16_HO.jpg","HO","BM16","2","2","4","6","stimuli/stars_4.png","160","[""FO"",""SC"",""HO"",""DO""]","[""BF05"",""HF04"",""BM16"",""HM10""]","[5,7,4,4]","[4,8,6,2]","","",""
"show-reward","112","284474","0.0-112.0","p888260","AROOCBM042SJD","3UUIU9GZC6BQMHTLWW3KSJ0W7IE5TB","3AWETUDC94Y171VTZAGXS007GBYZIC","model","mismatch","uniform","","","","","","","","284754.2000000179","286772.2000000179","","","","","","","","","","","","4","","stimuli/stars_4.png","160","","","","","stimuli/BM16_HO.jpg","",""
"explore-choice","113","286191","0.0-113.0","p888260","AROOCBM042SJD","3UUIU9GZC6BQMHTLWW3KSJ0W7IE5TB","3AWETUDC94Y171VTZAGXS007GBYZIC","model","mismatch","uniform","","","","","","","1195.300000011921","286774.09999999404","287969.40000000596","[""stimuli/HF04_DO.jpg"",""stimuli/BF05_FO.jpg"",""stimuli/BM16_SC.jpg"",""stimuli/HM10_HO.jpg""]","stimuli/HF04_DO.jpg","stimuli/BF05_FO.jpg","stimuli/BM16_SC.jpg","stimuli/HM10_HO.jpg","pos4","stimuli/HM10_HO.jpg","HO","HM10","3","2","4","6","stimuli/stars_4.png","162","[""DO"",""FO"",""SC"",""HO""]","[""HF04"",""BF05"",""BM16"",""HM10""]","[3,6,6,4]","[2,4,8,6]","","",""
"show-reward","114","288215","0.0-114.0","p888260","AROOCBM042SJD","3UUIU9GZC6BQMHTLWW3KSJ0W7IE5TB","3AWETUDC94Y171VTZAGXS007GBYZIC","model","mismatch","uniform","","","","","","","","288492.5","290513","","","","","","","","","","","","4","","stimuli/stars_4.png","162","","","","","stimuli/HM10_HO.jpg","",""
"explore-choice","115","289471","0.0-115.0","p888260","AROOCBM042SJD","3UUIU9GZC6BQMHTLWW3KSJ0W7IE5TB","3AWETUDC94Y171VTZAGXS007GBYZIC","model","mismatch","uniform","","","","","","","749.5999999940395","290516","291265.59999999404","[""stimuli/HF04_HO.jpg"",""stimuli/HM10_FO.jpg"",""stimuli/BF05_SC.jpg"",""stimuli/BM16_DO.jpg""]","stimuli/HF04_HO.jpg","stimuli/HM10_FO.jpg","stimuli/BF05_SC.jpg","stimuli/BM16_DO.jpg","pos1","stimuli/HF04_HO.jpg","HO","HF04","0","3.5","7","6","stimuli/stars_7.png","165.5","[""HO"",""FO"",""SC"",""DO""]","[""HF04"",""HM10"",""BF05"",""BM16""]","[7,4,7,0]","[6,4,8,2]","","",""
"show-reward","116","291484","0.0-116.0","p888260","AROOCBM042SJD","3UUIU9GZC6BQMHTLWW3KSJ0W7IE5TB","3AWETUDC94Y171VTZAGXS007GBYZIC","model","mismatch","uniform","","","","","","","","291770.5","293782","","","","","","","","","","","","7","","stimuli/stars_7.png","165.5","","","","","stimuli/HF04_HO.jpg","",""
"explore-choice","117","292944","0.0-117.0","p888260","AROOCBM042SJD","3UUIU9GZC6BQMHTLWW3KSJ0W7IE5TB","3AWETUDC94Y171VTZAGXS007GBYZIC","model","mismatch","uniform","","","","","","","945.5","293784.5","294730","[""stimuli/HM10_FO.jpg"",""stimuli/BM16_HO.jpg"",""stimuli/HF04_DO.jpg"",""stimuli/BF05_SC.jpg""]","stimuli/HM10_FO.jpg","stimuli/BM16_HO.jpg","stimuli/HF04_DO.jpg","stimuli/BF05_SC.jpg","pos3","stimuli/HF04_DO.jpg","DO","HF04","2","0","0","2","stimuli/stars_0.png","165.5","[""FO"",""HO"",""DO"",""SC""]","[""HM10"",""BM16"",""HF04"",""BF05""]","[2,4,0,10]","[4,6,2,8]","","",""
"show-reward","118","294964","0.0-118.0","p888260","AROOCBM042SJD","3UUIU9GZC6BQMHTLWW3KSJ0W7IE5TB","3AWETUDC94Y171VTZAGXS007GBYZIC","model","mismatch","uniform","","","","","","","","295245.7000000179","297261.59999999404","","","","","","","","","","","","0","","stimuli/stars_0.png","165.5","","","","","stimuli/HF04_DO.jpg","",""
"explore-choice","119","296597","0.0-119.0","p888260","AROOCBM042SJD","3UUIU9GZC6BQMHTLWW3KSJ0W7IE5TB","3AWETUDC94Y171VTZAGXS007GBYZIC","model","mismatch","uniform","","","","","","","1129.4000000059605","297264.59999999404","298394","[""stimuli/BF05_HO.jpg"",""stimuli/HF04_SC.jpg"",""stimuli/BM16_DO.jpg"",""stimuli/HM10_FO.jpg""]","stimuli/BF05_HO.jpg","stimuli/HF04_SC.jpg","stimuli/BM16_DO.jpg","stimuli/HM10_FO.jpg","pos2","stimuli/HF04_SC.jpg","SC","HF04","1","5","10","8","stimuli/stars_10.png","170.5","[""HO"",""SC"",""DO"",""FO""]","[""BF05"",""HF04"",""BM16"",""HM10""]","[5,10,2,4]","[6,8,2,4]","","",""
"show-reward","120","298617","0.0-120.0","p888260","AROOCBM042SJD","3UUIU9GZC6BQMHTLWW3KSJ0W7IE5TB","3AWETUDC94Y171VTZAGXS007GBYZIC","model","mismatch","uniform","","","","","","","","298898.90000000596","300915.2000000179","","","","","","","","","","","","10","","stimuli/stars_10.png","170.5","","","","","stimuli/HF04_SC.jpg","",""
"explore-choice","121","301350","0.0-121.0","p888260","AROOCBM042SJD","3UUIU9GZC6BQMHTLWW3KSJ0W7IE5TB","3AWETUDC94Y171VTZAGXS007GBYZIC","model","mismatch","uniform","","","","","","","2228.399999976158","300917.7000000179","303146.09999999404","[""stimuli/BM16_SC.jpg"",""stimuli/HF04_HO.jpg"",""stimuli/HM10_FO.jpg"",""stimuli/BF05_DO.jpg""]","stimuli/BM16_SC.jpg","stimuli/HF04_HO.jpg","stimuli/HM10_FO.jpg","stimuli/BF05_DO.jpg","pos1","stimuli/BM16_SC.jpg","SC","BM16","0","4.5","9","8","stimuli/stars_9.png","175","[""SC"",""HO"",""FO"",""DO""]","[""BM16"",""HF04"",""HM10"",""BF05""]","[9,8,3,3]","[8,6,4,2]","","",""
"show-reward","122","303370","0.0-122.0","p888260","AROOCBM042SJD","3UUIU9GZC6BQMHTLWW3KSJ0W7IE5TB","3AWETUDC94Y171VTZAGXS007GBYZIC","model","mismatch","uniform","","","","","","","","303651.2000000179","305668.5","","","","","","","","","","","","9","","stimuli/stars_9.png","175","","","","","stimuli/BM16_SC.jpg","",""
"explore-choice","123","305239","0.0-123.0","p888260","AROOCBM042SJD","3UUIU9GZC6BQMHTLWW3KSJ0W7IE5TB","3AWETUDC94Y171VTZAGXS007GBYZIC","model","mismatch","uniform","","","","","","","1362","305671.3000000119","307033.3000000119","[""stimuli/BF05_FO.jpg"",""stimuli/HF04_DO.jpg"",""stimuli/HM10_SC.jpg"",""stimuli/BM16_HO.jpg""]","stimuli/BF05_FO.jpg","stimuli/HF04_DO.jpg","stimuli/HM10_SC.jpg","stimuli/BM16_HO.jpg","pos3","stimuli/HM10_SC.jpg","SC","HM10","2","3.5","7","8","stimuli/stars_7.png","178.5","[""FO"",""DO"",""SC"",""HO""]","[""BF05"",""HF04"",""HM10"",""BM16""]","[4,4,7,6]","[4,2,8,6]","","",""
"show-reward","124","307261","0.0-124.0","p888260","AROOCBM042SJD","3UUIU9GZC6BQMHTLWW3KSJ0W7IE5TB","3AWETUDC94Y171VTZAGXS007GBYZIC","model","mismatch","uniform","","","","","","","","307540.2000000179","309559.90000000596","","","","","","","","","","","","7","","stimuli/stars_7.png","178.5","","","","","stimuli/HM10_SC.jpg","",""
"explore-choice","125","310712","0.0-125.0","p888260","AROOCBM042SJD","3UUIU9GZC6BQMHTLWW3KSJ0W7IE5TB","3AWETUDC94Y171VTZAGXS007GBYZIC","model","mismatch","uniform","","","","","","","2943","309562.7000000179","312505.7000000179","[""stimuli/BF05_SC.jpg"",""stimuli/HF04_HO.jpg"",""stimuli/BM16_FO.jpg"",""stimuli/HM10_DO.jpg""]","stimuli/BF05_SC.jpg","stimuli/HF04_HO.jpg","stimuli/BM16_FO.jpg","stimuli/HM10_DO.jpg","pos3","stimuli/BM16_FO.jpg","FO","BM16","2","1","2","4","stimuli/stars_2.png","179.5","[""SC"",""HO"",""FO"",""DO""]","[""BF05"",""HF04"",""BM16"",""HM10""]","[10,4,2,2]","[8,6,4,2]","","",""
"show-reward","126","312734","0.0-126.0","p888260","AROOCBM042SJD","3UUIU9GZC6BQMHTLWW3KSJ0W7IE5TB","3AWETUDC94Y171VTZAGXS007GBYZIC","model","mismatch","uniform","","","","","","","","313013.8000000119","315032.2000000179","","","","","","","","","","","","2","","stimuli/stars_2.png","179.5","","","","","stimuli/BM16_FO.jpg","",""
"explore-choice","127","314482","0.0-127.0","p888260","AROOCBM042SJD","3UUIU9GZC6BQMHTLWW3KSJ0W7IE5TB","3AWETUDC94Y171VTZAGXS007GBYZIC","model","mismatch","uniform","","","","","","","1238.4000000059605","315035.09999999404","316273.5","[""stimuli/BF05_FO.jpg"",""stimuli/HF04_HO.jpg"",""stimuli/HM10_DO.jpg"",""stimuli/BM16_SC.jpg""]","stimuli/BF05_FO.jpg","stimuli/HF04_HO.jpg","stimuli/HM10_DO.jpg","stimuli/BM16_SC.jpg","pos1","stimuli/BF05_FO.jpg","FO","BF05","0","3","6","4","stimuli/stars_6.png","182.5","[""FO"",""HO"",""DO"",""SC""]","[""BF05"",""HF04"",""HM10"",""BM16""]","[6,4,2,9]","[4,6,2,8]","","",""
"show-reward","128","316506","0.0-128.0","p888260","AROOCBM042SJD","3UUIU9GZC6BQMHTLWW3KSJ0W7IE5TB","3AWETUDC94Y171VTZAGXS007GBYZIC","model","mismatch","uniform","","","","","","","","316784","318804.40000000596","","","","","","","","","","","","6","","stimuli/stars_6.png","182.5","","","","","stimuli/BF05_FO.jpg","",""
"explore-choice","129","317888","0.0-129.0","p888260","AROOCBM042SJD","3UUIU9GZC6BQMHTLWW3KSJ0W7IE5TB","3AWETUDC94Y171VTZAGXS007GBYZIC","model","mismatch","uniform","","","","","","","874.2000000178814","318807.5","319681.7000000179","[""stimuli/BF05_DO.jpg"",""stimuli/BM16_FO.jpg"",""stimuli/HF04_HO.jpg"",""stimuli/HM10_SC.jpg""]","stimuli/BF05_DO.jpg","stimuli/BM16_FO.jpg","stimuli/HF04_HO.jpg","stimuli/HM10_SC.jpg","pos4","stimuli/HM10_SC.jpg","SC","HM10","3","3.5","7","8","stimuli/stars_7.png","186","[""DO"",""FO"",""HO"",""SC""]","[""BF05"",""BM16"",""HF04"",""HM10""]","[4,2,7,7]","[2,4,6,8]","","",""
"show-reward","130","319908","0.0-130.0","p888260","AROOCBM042SJD","3UUIU9GZC6BQMHTLWW3KSJ0W7IE5TB","3AWETUDC94Y171VTZAGXS007GBYZIC","model","mismatch","uniform","","","","","","","","320189.40000000596","322206.3000000119","","","","","","","","","","","","7","","stimuli/stars_7.png","186","","","","","stimuli/HM10_SC.jpg","",""
"explore-choice","131","321868","0.0-131.0","p888260","AROOCBM042SJD","3UUIU9GZC6BQMHTLWW3KSJ0W7IE5TB","3AWETUDC94Y171VTZAGXS007GBYZIC","model","mismatch","uniform","","","","","","","1448.7000000178814","322209","323657.7000000179","[""stimuli/HF04_FO.jpg"",""stimuli/BF05_SC.jpg"",""stimuli/BM16_DO.jpg"",""stimuli/HM10_HO.jpg""]","stimuli/HF04_FO.jpg","stimuli/BF05_SC.jpg","stimuli/BM16_DO.jpg","stimuli/HM10_HO.jpg","pos1","stimuli/HF04_FO.jpg","FO","HF04","0","3","6","4","stimuli/stars_6.png","189","[""FO"",""SC"",""DO"",""HO""]","[""HF04"",""BF05"",""BM16"",""HM10""]","[6,8,4,5]","[4,8,2,6]","","",""
"show-reward","132","323884","0.0-132.0","p888260","AROOCBM042SJD","3UUIU9GZC6BQMHTLWW3KSJ0W7IE5TB","3AWETUDC94Y171VTZAGXS007GBYZIC","model","mismatch","uniform","","","","","","","","324169.40000000596","326182.59999999404","","","","","","","","","","","","6","","stimuli/stars_6.png","189","","","","","stimuli/HF04_FO.jpg","",""
"explore-choice","133","325813","0.0-133.0","p888260","AROOCBM042SJD","3UUIU9GZC6BQMHTLWW3KSJ0W7IE5TB","3AWETUDC94Y171VTZAGXS007GBYZIC","model","mismatch","uniform","","","","","","","1416.0999999940395","326185.5","327601.59999999404","[""stimuli/BF05_FO.jpg"",""stimuli/HF04_HO.jpg"",""stimuli/HM10_SC.jpg"",""stimuli/BM16_DO.jpg""]","stimuli/BF05_FO.jpg","stimuli/HF04_HO.jpg","stimuli/HM10_SC.jpg","stimuli/BM16_DO.jpg","pos3","stimuli/HM10_SC.jpg","SC","HM10","2","3.5","7","8","stimuli/stars_7.png","192.5","[""FO"",""HO"",""SC"",""DO""]","[""BF05"",""HF04"",""HM10"",""BM16""]","[6,8,7,2]","[4,6,8,2]","","",""
"show-reward","134","327833","0.0-134.0","p888260","AROOCBM042SJD","3UUIU9GZC6BQMHTLWW3KSJ0W7IE5TB","3AWETUDC94Y171VTZAGXS007GBYZIC","model","mismatch","uniform","","","","","","","","328115.09999999404","330131.09999999404","","","","","","","","","","","","7","","stimuli/stars_7.png","192.5","","","","","stimuli/HM10_SC.jpg","",""
"explore-choice","135","331951","0.0-135.0","p888260","AROOCBM042SJD","3UUIU9GZC6BQMHTLWW3KSJ0W7IE5TB","3AWETUDC94Y171VTZAGXS007GBYZIC","model","mismatch","uniform","","","","","","","3611.7000000178814","330133.59999999404","333745.3000000119","[""stimuli/BF05_HO.jpg"",""stimuli/HF04_DO.jpg"",""stimuli/BM16_SC.jpg"",""stimuli/HM10_FO.jpg""]","stimuli/BF05_HO.jpg","stimuli/HF04_DO.jpg","stimuli/BM16_SC.jpg","stimuli/HM10_FO.jpg","pos2","stimuli/HF04_DO.jpg","DO","HF04","1","0.5","1","2","stimuli/stars_1.png","193","[""HO"",""DO"",""SC"",""FO""]","[""BF05"",""HF04"",""BM16"",""HM10""]","[8,1,9,5]","[6,2,8,4]","","",""
"show-reward","136","333969","0.0-136.0","p888260","AROOCBM042SJD","3UUIU9GZC6BQMHTLWW3KSJ0W7IE5TB","3AWETUDC94Y171VTZAGXS007GBYZIC","model","mismatch","uniform","","","","","","","","334252.7000000179","336266.90000000596","","","","","","","","","","","","1","","stimuli/stars_1.png","193","","","","","stimuli/HF04_DO.jpg","",""
"explore-choice","137","335462","0.0-137.0","p888260","AROOCBM042SJD","3UUIU9GZC6BQMHTLWW3KSJ0W7IE5TB","3AWETUDC94Y171VTZAGXS007GBYZIC","model","mismatch","uniform","","","","","","","979","336270.7000000179","337249.7000000179","[""stimuli/HM10_SC.jpg"",""stimuli/HF04_FO.jpg"",""stimuli/BM16_DO.jpg"",""stimuli/BF05_HO.jpg""]","stimuli/HM10_SC.jpg","stimuli/HF04_FO.jpg","stimuli/BM16_DO.jpg","stimuli/BF05_HO.jpg","pos1","stimuli/HM10_SC.jpg","SC","HM10","0","3.5","7","8","stimuli/stars_7.png","196.5","[""SC"",""FO"",""DO"",""HO""]","[""HM10"",""HF04"",""BM16"",""BF05""]","[7,5,3,7]","[8,4,2,6]","","",""
"show-reward","138","337480","0.0-138.0","p888260","AROOCBM042SJD","3UUIU9GZC6BQMHTLWW3KSJ0W7IE5TB","3AWETUDC94Y171VTZAGXS007GBYZIC","model","mismatch","uniform","","","","","","","","337762.90000000596","339778.3000000119","","","","","","","","","","","","7","","stimuli/stars_7.png","196.5","","","","","stimuli/HM10_SC.jpg","",""
"explore-choice","139","343693","0.0-139.0","p888260","AROOCBM042SJD","3UUIU9GZC6BQMHTLWW3KSJ0W7IE5TB","3AWETUDC94Y171VTZAGXS007GBYZIC","model","mismatch","uniform","","","","","","","5694.300000011921","339780","345474.3000000119","[""stimuli/BM16_HO.jpg"",""stimuli/BF05_DO.jpg"",""stimuli/HF04_SC.jpg"",""stimuli/HM10_FO.jpg""]","stimuli/BM16_HO.jpg","stimuli/BF05_DO.jpg","stimuli/HF04_SC.jpg","stimuli/HM10_FO.jpg","pos1","stimuli/BM16_HO.jpg","HO","BM16","0","3","6","6","stimuli/stars_6.png","199.5","[""HO"",""DO"",""SC"",""FO""]","[""BM16"",""BF05"",""HF04"",""HM10""]","[6,1,6,6]","[6,2,8,4]","","",""
"show-reward","140","345712","0.0-140.0","p888260","AROOCBM042SJD","3UUIU9GZC6BQMHTLWW3KSJ0W7IE5TB","3AWETUDC94Y171VTZAGXS007GBYZIC","model","mismatch","uniform","","","","","","","","345994","348010.09999999404","","","","","","","","","","","","6","","stimuli/stars_6.png","199.5","","","","","stimuli/BM16_HO.jpg","",""
"explore-choice","141","347879","0.0-141.0","p888260","AROOCBM042SJD","3UUIU9GZC6BQMHTLWW3KSJ0W7IE5TB","3AWETUDC94Y171VTZAGXS007GBYZIC","model","mismatch","uniform","","","","","","","1652.6000000238419","348013.09999999404","349665.7000000179","[""stimuli/HF04_SC.jpg"",""stimuli/BF05_HO.jpg"",""stimuli/BM16_FO.jpg"",""stimuli/HM10_DO.jpg""]","stimuli/HF04_SC.jpg","stimuli/BF05_HO.jpg","stimuli/BM16_FO.jpg","stimuli/HM10_DO.jpg","pos2","stimuli/BF05_HO.jpg","HO","BF05","1","3.5","7","6","stimuli/stars_7.png","203","[""SC"",""HO"",""FO"",""DO""]","[""HF04"",""BF05"",""BM16"",""HM10""]","[6,7,3,3]","[8,6,4,2]","","",""
"show-reward","142","349889","0.0-142.0","p888260","AROOCBM042SJD","3UUIU9GZC6BQMHTLWW3KSJ0W7IE5TB","3AWETUDC94Y171VTZAGXS007GBYZIC","model","mismatch","uniform","","","","","","","","350179.7000000179","352187.90000000596","","","","","","","","","","","","7","","stimuli/stars_7.png","203","","","","","stimuli/BF05_HO.jpg","",""
"explore-choice","143","352254","0.0-143.0","p888260","AROOCBM042SJD","3UUIU9GZC6BQMHTLWW3KSJ0W7IE5TB","3AWETUDC94Y171VTZAGXS007GBYZIC","model","mismatch","uniform","","","","","","","1859.0999999940395","352190.3000000119","354049.40000000596","[""stimuli/HF04_FO.jpg"",""stimuli/BF05_HO.jpg"",""stimuli/BM16_SC.jpg"",""stimuli/HM10_DO.jpg""]","stimuli/HF04_FO.jpg","stimuli/BF05_HO.jpg","stimuli/BM16_SC.jpg","stimuli/HM10_DO.jpg","pos4","stimuli/HM10_DO.jpg","DO","HM10","3","1","2","2","stimuli/stars_2.png","204","[""FO"",""HO"",""SC"",""DO""]","[""HF04"",""BF05"",""BM16"",""HM10""]","[4,5,9,2]","[4,6,8,2]","","",""
"show-reward","144","354270","0.0-144.0","p888260","AROOCBM042SJD","3UUIU9GZC6BQMHTLWW3KSJ0W7IE5TB","3AWETUDC94Y171VTZAGXS007GBYZIC","model","mismatch","uniform","","","","","","","","354555.2000000179","356568.59999999404","","","","","","","","","","","","2","","stimuli/stars_2.png","204","","","","","stimuli/HM10_DO.jpg","",""
"explore-choice","145","355906","0.0-145.0","p888260","AROOCBM042SJD","3UUIU9GZC6BQMHTLWW3KSJ0W7IE5TB","3AWETUDC94Y171VTZAGXS007GBYZIC","model","mismatch","uniform","","","","","","","1117.9000000059605","356571.8000000119","357689.7000000179","[""stimuli/BF05_HO.jpg"",""stimuli/BM16_FO.jpg"",""stimuli/HF04_DO.jpg"",""stimuli/HM10_SC.jpg""]","stimuli/BF05_HO.jpg","stimuli/BM16_FO.jpg","stimuli/HF04_DO.jpg","stimuli/HM10_SC.jpg","pos2","stimuli/BM16_FO.jpg","FO","BM16","1","2","4","4","stimuli/stars_4.png","206","[""HO"",""FO"",""DO"",""SC""]","[""BF05"",""BM16"",""HF04"",""HM10""]","[5,4,0,7]","[6,4,2,8]","","",""
"show-reward","146","357929","0.0-146.0","p888260","AROOCBM042SJD","3UUIU9GZC6BQMHTLWW3KSJ0W7IE5TB","3AWETUDC94Y171VTZAGXS007GBYZIC","model","mismatch","uniform","","","","","","","","358207.09999999404","360226.7000000179","","","","","","","","","","","","4","","stimuli/stars_4.png","206","","","","","stimuli/BM16_FO.jpg","",""
"explore-choice","147","360448","0.0-147.0","p888260","AROOCBM042SJD","3UUIU9GZC6BQMHTLWW3KSJ0W7IE5TB","3AWETUDC94Y171VTZAGXS007GBYZIC","model","mismatch","uniform","","","","","","","2011.6000000238419","360230.09999999404","362241.7000000179","[""stimuli/BF05_SC.jpg"",""stimuli/HM10_HO.jpg"",""stimuli/BM16_FO.jpg"",""stimuli/HF04_DO.jpg""]","stimuli/BF05_SC.jpg","stimuli/HM10_HO.jpg","stimuli/BM16_FO.jpg","stimuli/HF04_DO.jpg","pos3","stimuli/BM16_FO.jpg","FO","BM16","2","2","4","4","stimuli/stars_4.png","208","[""SC"",""HO"",""FO"",""DO""]","[""BF05"",""HM10"",""BM16"",""HF04""]","[8,7,4,4]","[8,6,4,2]","","",""
"show-reward","148","362459","0.0-148.0","p888260","AROOCBM042SJD","3UUIU9GZC6BQMHTLWW3KSJ0W7IE5TB","3AWETUDC94Y171VTZAGXS007GBYZIC","model","mismatch","uniform","","","","","","","","362749","364757.40000000596","","","","","","","","","","","","4","","stimuli/stars_4.png","208","","","","","stimuli/BM16_FO.jpg","",""
"explore-choice","149","364558","0.0-149.0","p888260","AROOCBM042SJD","3UUIU9GZC6BQMHTLWW3KSJ0W7IE5TB","3AWETUDC94Y171VTZAGXS007GBYZIC","model","mismatch","uniform","","","","","","","1585.6000000238419","364760.09999999404","366345.7000000179","[""stimuli/HF04_SC.jpg"",""stimuli/HM10_HO.jpg"",""stimuli/BM16_FO.jpg"",""stimuli/BF05_DO.jpg""]","stimuli/HF04_SC.jpg","stimuli/HM10_HO.jpg","stimuli/BM16_FO.jpg","stimuli/BF05_DO.jpg","pos1","stimuli/HF04_SC.jpg","SC","HF04","0","4.5","9","8","stimuli/stars_9.png","212.5","[""SC"",""HO"",""FO"",""DO""]","[""HF04"",""HM10"",""BM16"",""BF05""]","[9,8,4,4]","[8,6,4,2]","","",""
"show-reward","150","366578","0.0-150.0","p888260","AROOCBM042SJD","3UUIU9GZC6BQMHTLWW3KSJ0W7IE5TB","3AWETUDC94Y171VTZAGXS007GBYZIC","model","mismatch","uniform","","","","","","","","366860.59999999404","368875.40000000596","","","","","","","","","","","","9","","stimuli/stars_9.png","212.5","","","","","stimuli/HF04_SC.jpg","",""
"explore-choice","151","367970","0.0-151.0","p888260","AROOCBM042SJD","3UUIU9GZC6BQMHTLWW3KSJ0W7IE5TB","3AWETUDC94Y171VTZAGXS007GBYZIC","model","mismatch","uniform","","","","","","","880.7999999821186","368880.8000000119","369761.59999999404","[""stimuli/BF05_DO.jpg"",""stimuli/HF04_FO.jpg"",""stimuli/BM16_SC.jpg"",""stimuli/HM10_HO.jpg""]","stimuli/BF05_DO.jpg","stimuli/HF04_FO.jpg","stimuli/BM16_SC.jpg","stimuli/HM10_HO.jpg","pos2","stimuli/HF04_FO.jpg","FO","HF04","1","1","2","4","stimuli/stars_2.png","213.5","[""DO"",""FO"",""SC"",""HO""]","[""BF05"",""HF04"",""BM16"",""HM10""]","[4,2,9,7]","[2,4,8,6]","","",""
"show-reward","152","369992","0.0-152.0","p888260","AROOCBM042SJD","3UUIU9GZC6BQMHTLWW3KSJ0W7IE5TB","3AWETUDC94Y171VTZAGXS007GBYZIC","model","mismatch","uniform","","","","","","","","370271.5","372290.5","","","","","","","","","","","","2","","stimuli/stars_2.png","213.5","","","","","stimuli/HF04_FO.jpg","",""
"explore-choice","153","371524","0.0-153.0","p888260","AROOCBM042SJD","3UUIU9GZC6BQMHTLWW3KSJ0W7IE5TB","3AWETUDC94Y171VTZAGXS007GBYZIC","model","mismatch","uniform","","","","","","","1020.9000000059605","372292.09999999404","373313","[""stimuli/HF04_DO.jpg"",""stimuli/BM16_HO.jpg"",""stimuli/HM10_FO.jpg"",""stimuli/BF05_SC.jpg""]","stimuli/HF04_DO.jpg","stimuli/BM16_HO.jpg","stimuli/HM10_FO.jpg","stimuli/BF05_SC.jpg","pos1","stimuli/HF04_DO.jpg","DO","HF04","0","0","0","2","stimuli/stars_0.png","213.5","[""DO"",""HO"",""FO"",""SC""]","[""HF04"",""BM16"",""HM10"",""BF05""]","[0,4,2,10]","[2,6,4,8]","","",""
"show-reward","154","373547","0.0-154.0","p888260","AROOCBM042SJD","3UUIU9GZC6BQMHTLWW3KSJ0W7IE5TB","3AWETUDC94Y171VTZAGXS007GBYZIC","model","mismatch","uniform","","","","","","","","373827.2000000179","375845.40000000596","","","","","","","","","","","","0","","stimuli/stars_0.png","213.5","","","","","stimuli/HF04_DO.jpg","",""
"explore-choice","155","467223","0.0-155.0","p888260","AROOCBM042SJD","3UUIU9GZC6BQMHTLWW3KSJ0W7IE5TB","3AWETUDC94Y171VTZAGXS007GBYZIC","model","mismatch","uniform","","","","","","","93162","375847.2000000179","469009.2000000179","[""stimuli/HF04_DO.jpg"",""stimuli/BM16_SC.jpg"",""stimuli/HM10_HO.jpg"",""stimuli/BF05_FO.jpg""]","stimuli/HF04_DO.jpg","stimuli/BM16_SC.jpg","stimuli/HM10_HO.jpg","stimuli/BF05_FO.jpg","pos2","stimuli/BM16_SC.jpg","SC","BM16","1","3","6","8","stimuli/stars_6.png","216.5","[""DO"",""SC"",""HO"",""FO""]","[""HF04"",""BM16"",""HM10"",""BF05""]","[3,6,4,6]","[2,8,6,4]","","",""
"show-reward","156","469235","0.0-156.0","p888260","AROOCBM042SJD","3UUIU9GZC6BQMHTLWW3KSJ0W7IE5TB","3AWETUDC94Y171VTZAGXS007GBYZIC","model","mismatch","uniform","","","","","","","","469524.7000000179","471534.7000000179","","","","","","","","","","","","6","","stimuli/stars_6.png","216.5","","","","","stimuli/BM16_SC.jpg","",""
"explore-choice","157","470594","0.0-157.0","p888260","AROOCBM042SJD","3UUIU9GZC6BQMHTLWW3KSJ0W7IE5TB","3AWETUDC94Y171VTZAGXS007GBYZIC","model","mismatch","uniform","","","","","","","856.6999999880791","471536.90000000596","472393.59999999404","[""stimuli/BM16_SC.jpg"",""stimuli/HM10_FO.jpg"",""stimuli/BF05_DO.jpg"",""stimuli/HF04_HO.jpg""]","stimuli/BM16_SC.jpg","stimuli/HM10_FO.jpg","stimuli/BF05_DO.jpg","stimuli/HF04_HO.jpg","pos2","stimuli/HM10_FO.jpg","FO","HM10","1","1.5","3","4","stimuli/stars_3.png","218","[""SC"",""FO"",""DO"",""HO""]","[""BM16"",""HM10"",""BF05"",""HF04""]","[9,3,3,8]","[8,4,2,6]","","",""
"show-reward","158","472621","0.0-158.0","p888260","AROOCBM042SJD","3UUIU9GZC6BQMHTLWW3KSJ0W7IE5TB","3AWETUDC94Y171VTZAGXS007GBYZIC","model","mismatch","uniform","","","","","","","","472895.8000000119","474920.5","","","","","","","","","","","","3","","stimuli/stars_3.png","218","","","","","stimuli/HM10_FO.jpg","",""
"explore-choice","159","474758","0.0-159.0","p888260","AROOCBM042SJD","3UUIU9GZC6BQMHTLWW3KSJ0W7IE5TB","3AWETUDC94Y171VTZAGXS007GBYZIC","model","mismatch","uniform","","","","","","","1631.1000000238419","474923.09999999404","476554.2000000179","[""stimuli/BF05_DO.jpg"",""stimuli/HF04_SC.jpg"",""stimuli/BM16_HO.jpg"",""stimuli/HM10_FO.jpg""]","stimuli/BF05_DO.jpg","stimuli/HF04_SC.jpg","stimuli/BM16_HO.jpg","stimuli/HM10_FO.jpg","pos3","stimuli/BM16_HO.jpg","HO","BM16","2","3","6","6","stimuli/stars_6.png","221","[""DO"",""SC"",""HO"",""FO""]","[""BF05"",""HF04"",""BM16"",""HM10""]","[1,6,6,6]","[2,8,6,4]","","",""
"show-reward","160","476775","0.0-160.0","p888260","AROOCBM042SJD","3UUIU9GZC6BQMHTLWW3KSJ0W7IE5TB","3AWETUDC94Y171VTZAGXS007GBYZIC","model","mismatch","uniform","","","","","","","","477059.2000000179","479074.3000000119","","","","","","","","","","","","6","","stimuli/stars_6.png","221","","","","","stimuli/BM16_HO.jpg","",""
"explore-choice","161","478356","0.0-161.0","p888260","AROOCBM042SJD","3UUIU9GZC6BQMHTLWW3KSJ0W7IE5TB","3AWETUDC94Y171VTZAGXS007GBYZIC","model","mismatch","uniform","","","","","","","1077.9000000059605","479075.8000000119","480153.7000000179","[""stimuli/HF04_SC.jpg"",""stimuli/BM16_FO.jpg"",""stimuli/HM10_HO.jpg"",""stimuli/BF05_DO.jpg""]","stimuli/HF04_SC.jpg","stimuli/BM16_FO.jpg","stimuli/HM10_HO.jpg","stimuli/BF05_DO.jpg","pos4","stimuli/BF05_DO.jpg","DO","BF05","3","2","4","2","stimuli/stars_4.png","223","[""SC"",""FO"",""HO"",""DO""]","[""HF04"",""BM16"",""HM10"",""BF05""]","[9,4,8,4]","[8,4,6,2]","","",""
"show-reward","162","480377","0.0-162.0","p888260","AROOCBM042SJD","3UUIU9GZC6BQMHTLWW3KSJ0W7IE5TB","3AWETUDC94Y171VTZAGXS007GBYZIC","model","mismatch","uniform","","","","","","","","480657.90000000596","482675.59999999404","","","","","","","","","","","","4","","stimuli/stars_4.png","223","","","","","stimuli/BF05_DO.jpg","",""
"explore-choice","163","482074","0.0-163.0","p888260","AROOCBM042SJD","3UUIU9GZC6BQMHTLWW3KSJ0W7IE5TB","3AWETUDC94Y171VTZAGXS007GBYZIC","model","mismatch","uniform","","","","","","","1186.9000000059605","482679.09999999404","483866","[""stimuli/BF05_HO.jpg"",""stimuli/HF04_SC.jpg"",""stimuli/BM16_DO.jpg"",""stimuli/HM10_FO.jpg""]","stimuli/BF05_HO.jpg","stimuli/HF04_SC.jpg","stimuli/BM16_DO.jpg","stimuli/HM10_FO.jpg","pos3","stimuli/BM16_DO.jpg","DO","BM16","2","1","2","2","stimuli/stars_2.png","224","[""HO"",""SC"",""DO"",""FO""]","[""BF05"",""HF04"",""BM16"",""HM10""]","[5,10,2,4]","[6,8,2,4]","","",""
"show-reward","164","484091","0.0-164.0","p888260","AROOCBM042SJD","3UUIU9GZC6BQMHTLWW3KSJ0W7IE5TB","3AWETUDC94Y171VTZAGXS007GBYZIC","model","mismatch","uniform","","","","","","","","484376.3000000119","486390.5","","","","","","","","","","","","2","","stimuli/stars_2.png","224","","","","","stimuli/BM16_DO.jpg","",""
"explore-choice","165","487064","0.0-165.0","p888260","AROOCBM042SJD","3UUIU9GZC6BQMHTLWW3KSJ0W7IE5TB","3AWETUDC94Y171VTZAGXS007GBYZIC","model","mismatch","uniform","","","","","","","2456.4000000059605","486393.3000000119","488849.7000000179","[""stimuli/HF04_HO.jpg"",""stimuli/BM16_DO.jpg"",""stimuli/HM10_SC.jpg"",""stimuli/BF05_FO.jpg""]","stimuli/HF04_HO.jpg","stimuli/BM16_DO.jpg","stimuli/HM10_SC.jpg","stimuli/BF05_FO.jpg","pos2","stimuli/BM16_DO.jpg","DO","BM16","1","1","2","2","stimuli/stars_2.png","225","[""HO"",""DO"",""SC"",""FO""]","[""HF04"",""BM16"",""HM10"",""BF05""]","[8,2,7,6]","[6,2,8,4]","","",""
"show-reward","166","489082","0.0-166.0","p888260","AROOCBM042SJD","3UUIU9GZC6BQMHTLWW3KSJ0W7IE5TB","3AWETUDC94Y171VTZAGXS007GBYZIC","model","mismatch","uniform","","","","","","","","489366.8000000119","491381.3000000119","","","","","","","","","","","","2","","stimuli/stars_2.png","225","","","","","stimuli/BM16_DO.jpg","",""
"explore-choice","167","490365","0.0-167.0","p888260","AROOCBM042SJD","3UUIU9GZC6BQMHTLWW3KSJ0W7IE5TB","3AWETUDC94Y171VTZAGXS007GBYZIC","model","mismatch","uniform","","","","","","","778.5","491384","492162.5","[""stimuli/HF04_FO.jpg"",""stimuli/BF05_DO.jpg"",""stimuli/BM16_HO.jpg"",""stimuli/HM10_SC.jpg""]","stimuli/HF04_FO.jpg","stimuli/BF05_DO.jpg","stimuli/BM16_HO.jpg","stimuli/HM10_SC.jpg","pos1","stimuli/HF04_FO.jpg","FO","HF04","0","3","6","4","stimuli/stars_6.png","228","[""FO"",""DO"",""HO"",""SC""]","[""HF04"",""BF05"",""BM16"",""HM10""]","[6,0,6,8]","[4,2,6,8]","","",""
"show-reward","168","492389","0.0-168.0","p888260","AROOCBM042SJD","3UUIU9GZC6BQMHTLWW3KSJ0W7IE5TB","3AWETUDC94Y171VTZAGXS007GBYZIC","model","mismatch","uniform","","","","","","","","492671.40000000596","494688.09999999404","","","","","","","","","","","","6","","stimuli/stars_6.png","228","","","","","stimuli/HF04_FO.jpg","",""
"explore-choice","169","493859","0.0-169.0","p888260","AROOCBM042SJD","3UUIU9GZC6BQMHTLWW3KSJ0W7IE5TB","3AWETUDC94Y171VTZAGXS007GBYZIC","model","mismatch","uniform","","","","","","","959.2000000178814","494690","495649.2000000179","[""stimuli/HM10_DO.jpg"",""stimuli/HF04_FO.jpg"",""stimuli/BF05_HO.jpg"",""stimuli/BM16_SC.jpg""]","stimuli/HM10_DO.jpg","stimuli/HF04_FO.jpg","stimuli/BF05_HO.jpg","stimuli/BM16_SC.jpg","pos1","stimuli/HM10_DO.jpg","DO","HM10","0","1","2","2","stimuli/stars_2.png","229","[""DO"",""FO"",""HO"",""SC""]","[""HM10"",""HF04"",""BF05"",""BM16""]","[2,4,5,9]","[2,4,6,8]","","",""
"show-reward","170","495874","0.0-170.0","p888260","AROOCBM042SJD","3UUIU9GZC6BQMHTLWW3KSJ0W7IE5TB","3AWETUDC94Y171VTZAGXS007GBYZIC","model","mismatch","uniform","","","","","","","","496159.7000000179","498173.09999999404","","","","","","","","","","","","2","","stimuli/stars_2.png","229","","","","","stimuli/HM10_DO.jpg","",""
"explore-choice","171","497491","0.0-171.0","p888260","AROOCBM042SJD","3UUIU9GZC6BQMHTLWW3KSJ0W7IE5TB","3AWETUDC94Y171VTZAGXS007GBYZIC","model","mismatch","uniform","","","","","","","1105.5","498176.2000000179","499281.7000000179","[""stimuli/BM16_DO.jpg"",""stimuli/HF04_FO.jpg"",""stimuli/BF05_SC.jpg"",""stimuli/HM10_HO.jpg""]","stimuli/BM16_DO.jpg","stimuli/HF04_FO.jpg","stimuli/BF05_SC.jpg","stimuli/HM10_HO.jpg","pos4","stimuli/HM10_HO.jpg","HO","HM10","3","2.5","5","6","stimuli/stars_5.png","231.5","[""DO"",""FO"",""SC"",""HO""]","[""BM16"",""HF04"",""BF05"",""HM10""]","[4,6,8,5]","[2,4,8,6]","","",""
"show-reward","172","499505","0.0-172.0","p888260","AROOCBM042SJD","3UUIU9GZC6BQMHTLWW3KSJ0W7IE5TB","3AWETUDC94Y171VTZAGXS007GBYZIC","model","mismatch","uniform","","","","","","","","499793.40000000596","501804.7000000179","","","","","","","","","","","","5","","stimuli/stars_5.png","231.5","","","","","stimuli/HM10_HO.jpg","",""
"explore-choice","173","503212","0.0-173.0","p888260","AROOCBM042SJD","3UUIU9GZC6BQMHTLWW3KSJ0W7IE5TB","3AWETUDC94Y171VTZAGXS007GBYZIC","model","mismatch","uniform","","","","","","","3202.5999999940395","501807.90000000596","505010.5","[""stimuli/HF04_HO.jpg"",""stimuli/BM16_FO.jpg"",""stimuli/HM10_SC.jpg"",""stimuli/BF05_DO.jpg""]","stimuli/HF04_HO.jpg","stimuli/BM16_FO.jpg","stimuli/HM10_SC.jpg","stimuli/BF05_DO.jpg","pos1","stimuli/HF04_HO.jpg","HO","HF04","0","3.5","7","6","stimuli/stars_7.png","235","[""HO"",""FO"",""SC"",""DO""]","[""HF04"",""BM16"",""HM10"",""BF05""]","[7,2,7,4]","[6,4,8,2]","","",""
"show-reward","174","505237","0.0-174.0","p888260","AROOCBM042SJD","3UUIU9GZC6BQMHTLWW3KSJ0W7IE5TB","3AWETUDC94Y171VTZAGXS007GBYZIC","model","mismatch","uniform","","","","","","","","505516","507534.7000000179","","","","","","","","","","","","7","","stimuli/stars_7.png","235","","","","","stimuli/HF04_HO.jpg","",""
"explore-choice","175","507953","0.0-175.0","p888260","AROOCBM042SJD","3UUIU9GZC6BQMHTLWW3KSJ0W7IE5TB","3AWETUDC94Y171VTZAGXS007GBYZIC","model","mismatch","uniform","","","","","","","2207.4000000059605","507538.09999999404","509745.5","[""stimuli/BF05_SC.jpg"",""stimuli/HF04_DO.jpg"",""stimuli/BM16_FO.jpg"",""stimuli/HM10_HO.jpg""]","stimuli/BF05_SC.jpg","stimuli/HF04_DO.jpg","stimuli/BM16_FO.jpg","stimuli/HM10_HO.jpg","pos3","stimuli/BM16_FO.jpg","FO","BM16","2","2","4","4","stimuli/stars_4.png","237","[""SC"",""DO"",""FO"",""HO""]","[""BF05"",""HF04"",""BM16"",""HM10""]","[8,4,4,7]","[8,2,4,6]","","",""
"show-reward","176","509970","0.0-176.0","p888260","AROOCBM042SJD","3UUIU9GZC6BQMHTLWW3KSJ0W7IE5TB","3AWETUDC94Y171VTZAGXS007GBYZIC","model","mismatch","uniform","","","","","","","","510253.40000000596","512268.09999999404","","","","","","","","","","","","4","","stimuli/stars_4.png","237","","","","","stimuli/BM16_FO.jpg","",""
"explore-choice","177","518137","0.0-177.0","p888260","AROOCBM042SJD","3UUIU9GZC6BQMHTLWW3KSJ0W7IE5TB","3AWETUDC94Y171VTZAGXS007GBYZIC","model","mismatch","uniform","","","","","","","7658.699999988079","512270.8000000119","519929.5","[""stimuli/HF04_HO.jpg"",""stimuli/HM10_FO.jpg"",""stimuli/BF05_SC.jpg"",""stimuli/BM16_DO.jpg""]","stimuli/HF04_HO.jpg","stimuli/HM10_FO.jpg","stimuli/BF05_SC.jpg","stimuli/BM16_DO.jpg","pos1","stimuli/HF04_HO.jpg","HO","HF04","0","3.5","7","6","stimuli/stars_7.png","240.5","[""HO"",""FO"",""SC"",""DO""]","[""HF04"",""HM10"",""BF05"",""BM16""]","[7,4,7,0]","[6,4,8,2]","","",""
"show-reward","178","520156","0.0-178.0","p888260","AROOCBM042SJD","3UUIU9GZC6BQMHTLWW3KSJ0W7IE5TB","3AWETUDC94Y171VTZAGXS007GBYZIC","model","mismatch","uniform","","","","","","","","520439.2000000179","522454.5","","","","","","","","","","","","7","","stimuli/stars_7.png","240.5","","","","","stimuli/HF04_HO.jpg","",""
"explore-choice","179","522070","0.0-179.0","p888260","AROOCBM042SJD","3UUIU9GZC6BQMHTLWW3KSJ0W7IE5TB","3AWETUDC94Y171VTZAGXS007GBYZIC","model","mismatch","uniform","","","","","","","1400.7000000178814","522457.09999999404","523857.8000000119","[""stimuli/HF04_SC.jpg"",""stimuli/HM10_DO.jpg"",""stimuli/BM16_FO.jpg"",""stimuli/BF05_HO.jpg""]","stimuli/HF04_SC.jpg","stimuli/HM10_DO.jpg","stimuli/BM16_FO.jpg","stimuli/BF05_HO.jpg","pos2","stimuli/HM10_DO.jpg","DO","HM10","1","1.5","3","2","stimuli/stars_3.png","242","[""SC"",""DO"",""FO"",""HO""]","[""HF04"",""HM10"",""BM16"",""BF05""]","[6,3,3,7]","[8,2,4,6]","","",""
"show-reward","180","524087","0.0-180.0","p888260","AROOCBM042SJD","3UUIU9GZC6BQMHTLWW3KSJ0W7IE5TB","3AWETUDC94Y171VTZAGXS007GBYZIC","model","mismatch","uniform","","","","","","","","524372","526385.8000000119","","","","","","","","","","","","3","","stimuli/stars_3.png","242","","","","","stimuli/HM10_DO.jpg","",""
"explore-choice","181","529308","0.0-181.0","p888260","AROOCBM042SJD","3UUIU9GZC6BQMHTLWW3KSJ0W7IE5TB","3AWETUDC94Y171VTZAGXS007GBYZIC","model","mismatch","uniform","","","","","","","4709.4000000059605","526388.3000000119","531097.7000000179","[""stimuli/HF04_SC.jpg"",""stimuli/HM10_DO.jpg"",""stimuli/BM16_HO.jpg"",""stimuli/BF05_FO.jpg""]","stimuli/HF04_SC.jpg","stimuli/HM10_DO.jpg","stimuli/BM16_HO.jpg","stimuli/BF05_FO.jpg","pos2","stimuli/HM10_DO.jpg","DO","HM10","1","2","4","2","stimuli/stars_4.png","244","[""SC"",""DO"",""HO"",""FO""]","[""HF04"",""HM10"",""BM16"",""BF05""]","[7,4,4,5]","[8,2,6,4]","","",""
"show-reward","182","531326","0.0-182.0","p888260","AROOCBM042SJD","3UUIU9GZC6BQMHTLWW3KSJ0W7IE5TB","3AWETUDC94Y171VTZAGXS007GBYZIC","model","mismatch","uniform","","","","","","","","531609.5","533624.900000006","","","","","","","","","","","","4","","stimuli/stars_4.png","244","","","","","stimuli/HM10_DO.jpg","",""
"explore-choice","183","543446","0.0-183.0","p888260","AROOCBM042SJD","3UUIU9GZC6BQMHTLWW3KSJ0W7IE5TB","3AWETUDC94Y171VTZAGXS007GBYZIC","model","mismatch","uniform","","","","","","","11614.799999982119","533626.7000000179","545241.5","[""stimuli/BM16_DO.jpg"",""stimuli/HF04_FO.jpg"",""stimuli/BF05_HO.jpg"",""stimuli/HM10_SC.jpg""]","stimuli/BM16_DO.jpg","stimuli/HF04_FO.jpg","stimuli/BF05_HO.jpg","stimuli/HM10_SC.jpg","pos3","stimuli/BF05_HO.jpg","HO","BF05","2","3.5","7","6","stimuli/stars_7.png","247.5","[""DO"",""FO"",""HO"",""SC""]","[""BM16"",""HF04"",""BF05"",""HM10""]","[3,5,7,7]","[2,4,6,8]","","",""
"show-reward","184","545460","0.0-184.0","p888260","AROOCBM042SJD","3UUIU9GZC6BQMHTLWW3KSJ0W7IE5TB","3AWETUDC94Y171VTZAGXS007GBYZIC","model","mismatch","uniform","","","","","","","","545747.900000006","547758.400000006","","","","","","","","","","","","7","","stimuli/stars_7.png","247.5","","","","","stimuli/BF05_HO.jpg","",""
"explore-choice","185","555790","0.0-185.0","p888260","AROOCBM042SJD","3UUIU9GZC6BQMHTLWW3KSJ0W7IE5TB","3AWETUDC94Y171VTZAGXS007GBYZIC","model","mismatch","uniform","","","","","","","9824","547761.599999994","557585.599999994","[""stimuli/HF04_HO.jpg"",""stimuli/BF05_SC.jpg"",""stimuli/BM16_FO.jpg"",""stimuli/HM10_DO.jpg""]","stimuli/HF04_HO.jpg","stimuli/BF05_SC.jpg","stimuli/BM16_FO.jpg","stimuli/HM10_DO.jpg","pos2","stimuli/BF05_SC.jpg","SC","BF05","1","5","10","8","stimuli/stars_10.png","252.5","[""HO"",""SC"",""FO"",""DO""]","[""HF04"",""BF05"",""BM16"",""HM10""]","[4,10,2,2]","[6,8,4,2]","","",""
"show-reward","186","557806","0.0-186.0","p888260","AROOCBM042SJD","3UUIU9GZC6BQMHTLWW3KSJ0W7IE5TB","3AWETUDC94Y171VTZAGXS007GBYZIC","model","mismatch","uniform","","","","","","","","558091.2000000179","560105.2000000179","","","","","","","","","","","","10","","stimuli/stars_10.png","252.5","","","","","stimuli/BF05_SC.jpg","",""
"explore-choice","187","559443","0.0-187.0","p888260","AROOCBM042SJD","3UUIU9GZC6BQMHTLWW3KSJ0W7IE5TB","3AWETUDC94Y171VTZAGXS007GBYZIC","model","mismatch","uniform","","","","","","","1125.699999988079","560107.900000006","561233.599999994","[""stimuli/BM16_DO.jpg"",""stimuli/HF04_SC.jpg"",""stimuli/HM10_HO.jpg"",""stimuli/BF05_FO.jpg""]","stimuli/BM16_DO.jpg","stimuli/HF04_SC.jpg","stimuli/HM10_HO.jpg","stimuli/BF05_FO.jpg","pos2","stimuli/HF04_SC.jpg","SC","HF04","1","3.5","7","8","stimuli/stars_7.png","256","[""DO"",""SC"",""HO"",""FO""]","[""BM16"",""HF04"",""HM10"",""BF05""]","[3,7,6,4]","[2,8,6,4]","","",""
"show-reward","188","561464","0.0-188.0","p888260","AROOCBM042SJD","3UUIU9GZC6BQMHTLWW3KSJ0W7IE5TB","3AWETUDC94Y171VTZAGXS007GBYZIC","model","mismatch","uniform","","","","","","","","561744.8000000119","563762.2000000179","","","","","","","","","","","","7","","stimuli/stars_7.png","256","","","","","stimuli/HF04_SC.jpg","",""
"explore-choice","189","562704","0.0-189.0","p888260","AROOCBM042SJD","3UUIU9GZC6BQMHTLWW3KSJ0W7IE5TB","3AWETUDC94Y171VTZAGXS007GBYZIC","model","mismatch","uniform","","","","","","","731.5999999940395","563765.900000006","564497.5","[""stimuli/BM16_FO.jpg"",""stimuli/HF04_DO.jpg"",""stimuli/BF05_HO.jpg"",""stimuli/HM10_SC.jpg""]","stimuli/BM16_FO.jpg","stimuli/HF04_DO.jpg","stimuli/BF05_HO.jpg","stimuli/HM10_SC.jpg","pos1","stimuli/BM16_FO.jpg","FO","BM16","0","2","4","4","stimuli/stars_4.png","258","[""FO"",""DO"",""HO"",""SC""]","[""BM16"",""HF04"",""BF05"",""HM10""]","[4,0,5,7]","[4,2,6,8]","","",""
"show-reward","190","564725","0.0-190.0","p888260","AROOCBM042SJD","3UUIU9GZC6BQMHTLWW3KSJ0W7IE5TB","3AWETUDC94Y171VTZAGXS007GBYZIC","model","mismatch","uniform","","","","","","","","565006.2000000179","567024.400000006","","","","","","","","","","","","4","","stimuli/stars_4.png","258","","","","","stimuli/BM16_FO.jpg","",""
"explore-choice","191","566812","0.0-191.0","p888260","AROOCBM042SJD","3UUIU9GZC6BQMHTLWW3KSJ0W7IE5TB","3AWETUDC94Y171VTZAGXS007GBYZIC","model","mismatch","uniform","","","","","","","1574.300000011921","567027","568601.3000000119","[""stimuli/HM10_DO.jpg"",""stimuli/HF04_FO.jpg"",""stimuli/BM16_HO.jpg"",""stimuli/BF05_SC.jpg""]","stimuli/HM10_DO.jpg","stimuli/HF04_FO.jpg","stimuli/BM16_HO.jpg","stimuli/BF05_SC.jpg","pos4","stimuli/BF05_SC.jpg","SC","BF05","3","5","10","8","stimuli/stars_10.png","263","[""DO"",""FO"",""HO"",""SC""]","[""HM10"",""HF04"",""BM16"",""BF05""]","[2,6,8,10]","[2,4,6,8]","","",""
"show-reward","192","568834","0.0-192.0","p888260","AROOCBM042SJD","3UUIU9GZC6BQMHTLWW3KSJ0W7IE5TB","3AWETUDC94Y171VTZAGXS007GBYZIC","model","mismatch","uniform","","","","","","","","569114.3000000119","571132.400000006","","","","","","","","","","","","10","","stimuli/stars_10.png","263","","","","","stimuli/BF05_SC.jpg","",""
"explore-choice","193","570673","0.0-193.0","p888260","AROOCBM042SJD","3UUIU9GZC6BQMHTLWW3KSJ0W7IE5TB","3AWETUDC94Y171VTZAGXS007GBYZIC","model","mismatch","uniform","","","","","","","1329.0999999940395","571136.400000006","572465.5","[""stimuli/HM10_DO.jpg"",""stimuli/BM16_SC.jpg"",""stimuli/BF05_FO.jpg"",""stimuli/HF04_HO.jpg""]","stimuli/HM10_DO.jpg","stimuli/BM16_SC.jpg","stimuli/BF05_FO.jpg","stimuli/HF04_HO.jpg","pos3","stimuli/BF05_FO.jpg","FO","BF05","2","3","6","4","stimuli/stars_6.png","266","[""DO"",""SC"",""FO"",""HO""]","[""HM10"",""BM16"",""BF05"",""HF04""]","[2,9,6,4]","[2,8,4,6]","","",""
"show-reward","194","572692","0.0-194.0","p888260","AROOCBM042SJD","3UUIU9GZC6BQMHTLWW3KSJ0W7IE5TB","3AWETUDC94Y171VTZAGXS007GBYZIC","model","mismatch","uniform","","","","","","","","572974.8000000119","574990.7000000179","","","","","","","","","","","","6","","stimuli/stars_6.png","266","","","","","stimuli/BF05_FO.jpg","",""
"explore-choice","195","575315","0.0-195.0","p888260","AROOCBM042SJD","3UUIU9GZC6BQMHTLWW3KSJ0W7IE5TB","3AWETUDC94Y171VTZAGXS007GBYZIC","model","mismatch","uniform","","","","","","","2111.600000023842","574993.599999994","577105.2000000179","[""stimuli/HM10_SC.jpg"",""stimuli/BM16_HO.jpg"",""stimuli/BF05_FO.jpg"",""stimuli/HF04_DO.jpg""]","stimuli/HM10_SC.jpg","stimuli/BM16_HO.jpg","stimuli/BF05_FO.jpg","stimuli/HF04_DO.jpg","pos2","stimuli/BM16_HO.jpg","HO","BM16","1","3","6","6","stimuli/stars_6.png","269","[""SC"",""HO"",""FO"",""DO""]","[""HM10"",""BM16"",""BF05"",""HF04""]","[7,6,4,4]","[8,6,4,2]","","",""
"show-reward","196","577330","0.0-196.0","p888260","AROOCBM042SJD","3UUIU9GZC6BQMHTLWW3KSJ0W7IE5TB","3AWETUDC94Y171VTZAGXS007GBYZIC","model","mismatch","uniform","","","","","","","","577616.8000000119","579629","","","","","","","","","","","","6","","stimuli/stars_6.png","269","","","","","stimuli/BM16_HO.jpg","",""
"explore-choice","197","579724","0.0-197.0","p888260","AROOCBM042SJD","3UUIU9GZC6BQMHTLWW3KSJ0W7IE5TB","3AWETUDC94Y171VTZAGXS007GBYZIC","model","mismatch","uniform","","","","","","","1890.7000000178814","579630.5","581521.2000000179","[""stimuli/BM16_SC.jpg"",""stimuli/HM10_FO.jpg"",""stimuli/BF05_HO.jpg"",""stimuli/HF04_DO.jpg""]","stimuli/BM16_SC.jpg","stimuli/HM10_FO.jpg","stimuli/BF05_HO.jpg","stimuli/HF04_DO.jpg","pos3","stimuli/BF05_HO.jpg","HO","BF05","2","4","8","6","stimuli/stars_8.png","273","[""SC"",""FO"",""HO"",""DO""]","[""BM16"",""HM10"",""BF05"",""HF04""]","[9,5,8,1]","[8,4,6,2]","","",""
"show-reward","198","581742","0.0-198.0","p888260","AROOCBM042SJD","3UUIU9GZC6BQMHTLWW3KSJ0W7IE5TB","3AWETUDC94Y171VTZAGXS007GBYZIC","model","mismatch","uniform","","","","","","","","582026.099999994","584040.900000006","","","","","","","","","","","","8","","stimuli/stars_8.png","273","","","","","stimuli/BF05_HO.jpg","",""
"instructions","199","587176","0.0-199.0","p888260","AROOCBM042SJD","3UUIU9GZC6BQMHTLWW3KSJ0W7IE5TB","3AWETUDC94Y171VTZAGXS007GBYZIC","model","mismatch","uniform","","","","","","[{""page_index"":0,""viewing_time"":5428.800000011921}]","5430.700000017881","","","","","","","","","","","","","","","","","","","","","","","",""
"survey-text","200","591520","0.0-200.0-0.0","p888260","AROOCBM042SJD","3UUIU9GZC6BQMHTLWW3KSJ0W7IE5TB","3AWETUDC94Y171VTZAGXS007GBYZIC","model","mismatch","uniform","","","","","","","4319","","","","","","","","","","","","","","","","","","","","","","","{""age"":""37""}",""
"survey-text","201","595469","0.0-200.0-1.0","p888260","AROOCBM042SJD","3UUIU9GZC6BQMHTLWW3KSJ0W7IE5TB","3AWETUDC94Y171VTZAGXS007GBYZIC","model","mismatch","uniform","","","","","","","3944.699999988079","","","","","","","","","","","","","","","","","","","","","","","{""gender"":""female""}",""
"survey-text","202","603142","0.0-200.0-2.0","p888260","AROOCBM042SJD","3UUIU9GZC6BQMHTLWW3KSJ0W7IE5TB","3AWETUDC94Y171VTZAGXS007GBYZIC","model","mismatch","uniform","","","","","","","7663.9000000059605","","","","","","","","","","","","","","","","","","","","","","","{""country"":""United States""}",""
"survey-text","203","618510","0.0-200.0-3.0","p888260","AROOCBM042SJD","3UUIU9GZC6BQMHTLWW3KSJ0W7IE5TB","3AWETUDC94Y171VTZAGXS007GBYZIC","model","mismatch","uniform","","","","","","","15363.699999988079","","","","","","","","","","","","","","","","","","","","","","","{""language"":""English"",""other_languages"":""none""}",""
"survey-multi-select","204","624271","0.0-201.0","p888260","AROOCBM042SJD","3UUIU9GZC6BQMHTLWW3KSJ0W7IE5TB","3AWETUDC94Y171VTZAGXS007GBYZIC","model","mismatch","uniform","","","","","","","5744.199999988079","","","","","","","","","","","","","","","","","","","","","","","{""race"":[""Black or African American""]}","[0]"
"survey-multi-choice","205","626319","0.0-202.0","p888260","AROOCBM042SJD","3UUIU9GZC6BQMHTLWW3KSJ0W7IE5TB","3AWETUDC94Y171VTZAGXS007GBYZIC","model","mismatch","uniform","","","","","","","2043.699999988079","","","","","","","","","","","","","","","","","","","","","","","{""education"":""Some college/ university""}","[0]"
"survey-text","206","634270","0.0-203.0","p888260","AROOCBM042SJD","3UUIU9GZC6BQMHTLWW3KSJ0W7IE5TB","3AWETUDC94Y171VTZAGXS007GBYZIC","model","mismatch","uniform","","","","","","","7913.700000017881","","","","","","","","","","","","","","","","","","","","","","","{""patterns"":""No"",""strategy"":""no"",""comments"":""no""}",""
