"trial_type","trial_index","time_elapsed","internal_node_id","subject","workerId","hitId","assignmentId","structure_condition","match_condition","noise_type","success","timeout","failed_images","failed_audio","failed_video","view_history","rt","start_time","end_time","stimuli","image1","image2","image3","image4","choiceLocation","choiceImage","choiceEmotion","choiceModel","choice_index","reward_score","reward","reward_score_unadjusted","reward_image","score_after_trial","emotions","models","rewards","rewards_unadjusted","stimulus","response","question_order"
"pavlovia","0","8","0.0-0.0","p198253","A2APG8MSLJ6G2K","3087LXLJ6NMH85PJ46SJUKP4Z1V0FD","3QAPZX2QN6J0UVB16DIDZLQ498J02B","model","match","uniform","","","","","","","","","","","","","","","","","","","","","","","","","","","","","","",""
"preload","1","3548","0.0-1.0","p198253","A2APG8MSLJ6G2K","3087LXLJ6NMH85PJ46SJUKP4Z1V0FD","3QAPZX2QN6J0UVB16DIDZLQ498J02B","model","match","uniform","true","false","[]","[]","[]","","","","","","","","","","","","","","","","","","","","","","","","","",""
"fullscreen","2","8129","0.0-2.0","p198253","A2APG8MSLJ6G2K","3087LXLJ6NMH85PJ46SJUKP4Z1V0FD","3QAPZX2QN6J0UVB16DIDZLQ498J02B","model","match","uniform","true","","","","","","","","","","","","","","","","","","","","","","","","","","","","","",""
"instructions","3","15708","0.0-3.0","p198253","A2APG8MSLJ6G2K","3087LXLJ6NMH85PJ46SJUKP4Z1V0FD","3QAPZX2QN6J0UVB16DIDZLQ498J02B","model","match","uniform","","","","","","[{""page_index"":0,""viewing_time"":7578.5}]","7579","","","","","","","","","","","","","","","","","","","","","","","",""
"explore-choice","4","18156","0.0-4.0","p198253","A2APG8MSLJ6G2K","3087LXLJ6NMH85PJ46SJUKP4Z1V0FD","3QAPZX2QN6J0UVB16DIDZLQ498J02B","model","match","uniform","","","","","","","1936.199999988079","17995","19931.19999998808","[""stimuli/sheep.jpg"",""stimuli/hammer.jpg"",""stimuli/basketball.jpg"",""stimuli/horse.jpg""]","stimuli/sheep.jpg","stimuli/hammer.jpg","stimuli/basketball.jpg","stimuli/horse.jpg","pos4","stimuli/horse.jpg","","","3","64","64","64","stimuli/stars_8.png","65","","","","","","",""
"explore-choice","5","20029","0.0-5.0","p198253","A2APG8MSLJ6G2K","3087LXLJ6NMH85PJ46SJUKP4Z1V0FD","3QAPZX2QN6J0UVB16DIDZLQ498J02B","model","match","uniform","","","","","","","1361.9000000059605","20442.90000000596","21804.80000001192","[""stimuli/hammer.jpg"",""stimuli/basketball.jpg"",""stimuli/horse.jpg"",""stimuli/sheep.jpg""]","stimuli/hammer.jpg","stimuli/basketball.jpg","stimuli/horse.jpg","stimuli/sheep.jpg","pos1","stimuli/hammer.jpg","","","0","8","8","8","stimuli/stars_2.png","9","","","","","","",""
"instructions","6","36549","0.0-6.0","p198253","A2APG8MSLJ6G2K","3087LXLJ6NMH85PJ46SJUKP4Z1V0FD","3QAPZX2QN6J0UVB16DIDZLQ498J02B","model","match","uniform","","","","","","[{""page_index"":0,""viewing_time"":16519.69999998808}]","16519.79999998212","","","","","","","","","","","","","","","","","","","","","","","",""
"explore-choice","7","42089","0.0-7.0","p198253","A2APG8MSLJ6G2K","3087LXLJ6NMH85PJ46SJUKP4Z1V0FD","3QAPZX2QN6J0UVB16DIDZLQ498J02B","model","match","uniform","","","","","","","5030.5999999940395","38836.09999999404","43866.69999998808","[""stimuli/BF06_HE.jpg"",""stimuli/WM11_FO.jpg"",""stimuli/BF05_DO.jpg"",""stimuli/BF04_SC.jpg""]","stimuli/BF06_HE.jpg","stimuli/WM11_FO.jpg","stimuli/BF05_DO.jpg","stimuli/BF04_SC.jpg","pos1","stimuli/BF06_HE.jpg","HE","BF06","0","4","8","8","stimuli/stars_8.png","5","[""HE"",""FO"",""DO"",""SC""]","[""BF06"",""WM11"",""BF05"",""BF04""]","[8,7,0,2]","[8,6,2,4]","","",""
"show-reward","8","44103","0.0-8.0","p198253","A2APG8MSLJ6G2K","3087LXLJ6NMH85PJ46SJUKP4Z1V0FD","3QAPZX2QN6J0UVB16DIDZLQ498J02B","model","match","uniform","","","","","","","","44376.30000001192","46389.09999999404","","","","","","","","","","","","8","","stimuli/stars_8.png","5","","","","","stimuli/BF06_HE.jpg","",""
"explore-choice","9","47797","0.0-9.0","p198253","A2APG8MSLJ6G2K","3087LXLJ6NMH85PJ46SJUKP4Z1V0FD","3QAPZX2QN6J0UVB16DIDZLQ498J02B","model","match","uniform","","","","","","","3181.5","46390.30000001192","49571.80000001192","[""stimuli/BF06_HE.jpg"",""stimuli/BF04_DO.jpg"",""stimuli/BF05_FO.jpg"",""stimuli/WM11_SC.jpg""]","stimuli/BF06_HE.jpg","stimuli/BF04_DO.jpg","stimuli/BF05_FO.jpg","stimuli/WM11_SC.jpg","pos1","stimuli/BF06_HE.jpg","HE","BF06","0","3","6","8","stimuli/stars_6.png","8","[""HE"",""DO"",""FO"",""SC""]","[""BF06"",""BF04"",""BF05"",""WM11""]","[6,3,2,8]","[8,4,2,6]","","",""
"show-reward","10","49807","0.0-10.0","p198253","A2APG8MSLJ6G2K","3087LXLJ6NMH85PJ46SJUKP4Z1V0FD","3QAPZX2QN6J0UVB16DIDZLQ498J02B","model","match","uniform","","","","","","","","50084.40000000596","52093.30000001192","","","","","","","","","","","","6","","stimuli/stars_6.png","8","","","","","stimuli/BF06_HE.jpg","",""
"explore-choice","11","53003","0.0-11.0","p198253","A2APG8MSLJ6G2K","3087LXLJ6NMH85PJ46SJUKP4Z1V0FD","3QAPZX2QN6J0UVB16DIDZLQ498J02B","model","match","uniform","","","","","","","2690.5","52094.09999999404","54784.59999999404","[""stimuli/BF05_SC.jpg"",""stimuli/BF06_FO.jpg"",""stimuli/BF04_HE.jpg"",""stimuli/WM11_DO.jpg""]","stimuli/BF05_SC.jpg","stimuli/BF06_FO.jpg","stimuli/BF04_HE.jpg","stimuli/WM11_DO.jpg","pos3","stimuli/BF04_HE.jpg","HE","BF04","2","1","2","4","stimuli/stars_2.png","9","[""SC"",""FO"",""HE"",""DO""]","[""BF05"",""BF06"",""BF04"",""WM11""]","[2,6,2,7]","[2,8,4,6]","","",""
"show-reward","12","55014","0.0-12.0","p198253","A2APG8MSLJ6G2K","3087LXLJ6NMH85PJ46SJUKP4Z1V0FD","3QAPZX2QN6J0UVB16DIDZLQ498J02B","model","match","uniform","","","","","","","","55290","57300.59999999404","","","","","","","","","","","","2","","stimuli/stars_2.png","9","","","","","stimuli/BF04_HE.jpg","",""
"explore-choice","13","56854","0.0-13.0","p198253","A2APG8MSLJ6G2K","3087LXLJ6NMH85PJ46SJUKP4Z1V0FD","3QAPZX2QN6J0UVB16DIDZLQ498J02B","model","match","uniform","","","","","","","1323.4000000059605","57301.40000000596","58624.80000001192","[""stimuli/BF04_DO.jpg"",""stimuli/BF05_HE.jpg"",""stimuli/WM11_FO.jpg"",""stimuli/BF06_SC.jpg""]","stimuli/BF04_DO.jpg","stimuli/BF05_HE.jpg","stimuli/WM11_FO.jpg","stimuli/BF06_SC.jpg","pos1","stimuli/BF04_DO.jpg","DO","BF04","0","3","6","4","stimuli/stars_6.png","12","[""DO"",""HE"",""FO"",""SC""]","[""BF04"",""BF05"",""WM11"",""BF06""]","[6,0,8,6]","[4,2,6,8]","","",""
"show-reward","14","58865","0.0-14.0","p198253","A2APG8MSLJ6G2K","3087LXLJ6NMH85PJ46SJUKP4Z1V0FD","3QAPZX2QN6J0UVB16DIDZLQ498J02B","model","match","uniform","","","","","","","","59141.30000001192","61151","","","","","","","","","","","","6","","stimuli/stars_6.png","12","","","","","stimuli/BF04_DO.jpg","",""
"explore-choice","15","61368","0.0-15.0","p198253","A2APG8MSLJ6G2K","3087LXLJ6NMH85PJ46SJUKP4Z1V0FD","3QAPZX2QN6J0UVB16DIDZLQ498J02B","model","match","uniform","","","","","","","1987.800000011921","61152","63139.80000001192","[""stimuli/BF06_DO.jpg"",""stimuli/BF05_FO.jpg"",""stimuli/BF04_HE.jpg"",""stimuli/WM11_SC.jpg""]","stimuli/BF06_DO.jpg","stimuli/BF05_FO.jpg","stimuli/BF04_HE.jpg","stimuli/WM11_SC.jpg","pos4","stimuli/WM11_SC.jpg","SC","WM11","3","3.5","7","6","stimuli/stars_7.png","15.5","[""DO"",""FO"",""HE"",""SC""]","[""BF06"",""BF05"",""BF04"",""WM11""]","[10,1,5,7]","[8,2,4,6]","","",""
"show-reward","16","63377","0.0-16.0","p198253","A2APG8MSLJ6G2K","3087LXLJ6NMH85PJ46SJUKP4Z1V0FD","3QAPZX2QN6J0UVB16DIDZLQ498J02B","model","match","uniform","","","","","","","","63655.19999998808","65663.40000000596","","","","","","","","","","","","7","","stimuli/stars_7.png","15.5","","","","","stimuli/WM11_SC.jpg","",""
"explore-choice","17","65168","0.0-17.0","p198253","A2APG8MSLJ6G2K","3087LXLJ6NMH85PJ46SJUKP4Z1V0FD","3QAPZX2QN6J0UVB16DIDZLQ498J02B","model","match","uniform","","","","","","","1285.2999999821186","65664.30000001192","66949.59999999404","[""stimuli/BF04_DO.jpg"",""stimuli/BF05_FO.jpg"",""stimuli/BF06_SC.jpg"",""stimuli/WM11_HE.jpg""]","stimuli/BF04_DO.jpg","stimuli/BF05_FO.jpg","stimuli/BF06_SC.jpg","stimuli/WM11_HE.jpg","pos2","stimuli/BF05_FO.jpg","FO","BF05","1","0.5","1","2","stimuli/stars_1.png","16","[""DO"",""FO"",""SC"",""HE""]","[""BF04"",""BF05"",""BF06"",""WM11""]","[5,1,8,5]","[4,2,8,6]","","",""
"show-reward","18","67180","0.0-18.0","p198253","A2APG8MSLJ6G2K","3087LXLJ6NMH85PJ46SJUKP4Z1V0FD","3QAPZX2QN6J0UVB16DIDZLQ498J02B","model","match","uniform","","","","","","","","67455.30000001192","69466","","","","","","","","","","","","1","","stimuli/stars_1.png","16","","","","","stimuli/BF05_FO.jpg","",""
"explore-choice","19","69019","0.0-19.0","p198253","A2APG8MSLJ6G2K","3087LXLJ6NMH85PJ46SJUKP4Z1V0FD","3QAPZX2QN6J0UVB16DIDZLQ498J02B","model","match","uniform","","","","","","","1329.199999988079","69466.80000001192","70796","[""stimuli/BF04_DO.jpg"",""stimuli/BF05_SC.jpg"",""stimuli/WM11_FO.jpg"",""stimuli/BF06_HE.jpg""]","stimuli/BF04_DO.jpg","stimuli/BF05_SC.jpg","stimuli/WM11_FO.jpg","stimuli/BF06_HE.jpg","pos3","stimuli/WM11_FO.jpg","FO","WM11","2","2","4","6","stimuli/stars_4.png","18","[""DO"",""SC"",""FO"",""HE""]","[""BF04"",""BF05"",""WM11"",""BF06""]","[4,1,4,10]","[4,2,6,8]","","",""
"show-reward","20","71030","0.0-20.0","p198253","A2APG8MSLJ6G2K","3087LXLJ6NMH85PJ46SJUKP4Z1V0FD","3QAPZX2QN6J0UVB16DIDZLQ498J02B","model","match","uniform","","","","","","","","71305.69999998808","73316.19999998808","","","","","","","","","","","","4","","stimuli/stars_4.png","18","","","","","stimuli/WM11_FO.jpg","",""
"explore-choice","21","74379","0.0-21.0","p198253","A2APG8MSLJ6G2K","3087LXLJ6NMH85PJ46SJUKP4Z1V0FD","3QAPZX2QN6J0UVB16DIDZLQ498J02B","model","match","uniform","","","","","","","2842.300000011921","73317","76159.30000001192","[""stimuli/BF04_FO.jpg"",""stimuli/BF06_SC.jpg"",""stimuli/BF05_DO.jpg"",""stimuli/WM11_HE.jpg""]","stimuli/BF04_FO.jpg","stimuli/BF06_SC.jpg","stimuli/BF05_DO.jpg","stimuli/WM11_HE.jpg","pos2","stimuli/BF06_SC.jpg","SC","BF06","1","3.5","7","8","stimuli/stars_7.png","21.5","[""FO"",""SC"",""DO"",""HE""]","[""BF04"",""BF06"",""BF05"",""WM11""]","[5,7,2,5]","[4,8,2,6]","","",""
"show-reward","22","76387","0.0-22.0","p198253","A2APG8MSLJ6G2K","3087LXLJ6NMH85PJ46SJUKP4Z1V0FD","3QAPZX2QN6J0UVB16DIDZLQ498J02B","model","match","uniform","","","","","","","","76666.40000000596","78673.30000001192","","","","","","","","","","","","7","","stimuli/stars_7.png","21.5","","","","","stimuli/BF06_SC.jpg","",""
"explore-choice","23","78751","0.0-23.0","p198253","A2APG8MSLJ6G2K","3087LXLJ6NMH85PJ46SJUKP4Z1V0FD","3QAPZX2QN6J0UVB16DIDZLQ498J02B","model","match","uniform","","","","","","","1851.4000000059605","78674.09999999404","80525.5","[""stimuli/BF05_DO.jpg"",""stimuli/WM11_FO.jpg"",""stimuli/BF06_SC.jpg"",""stimuli/BF04_HE.jpg""]","stimuli/BF05_DO.jpg","stimuli/WM11_FO.jpg","stimuli/BF06_SC.jpg","stimuli/BF04_HE.jpg","pos1","stimuli/BF05_DO.jpg","DO","BF05","0","0","0","2","stimuli/stars_0.png","21.5","[""DO"",""FO"",""SC"",""HE""]","[""BF05"",""WM11"",""BF06"",""BF04""]","[0,5,6,5]","[2,6,8,4]","","",""
"show-reward","24","80763","0.0-24.0","p198253","A2APG8MSLJ6G2K","3087LXLJ6NMH85PJ46SJUKP4Z1V0FD","3QAPZX2QN6J0UVB16DIDZLQ498J02B","model","match","uniform","","","","","","","","81037.90000000596","83048.90000000596","","","","","","","","","","","","0","","stimuli/stars_0.png","21.5","","","","","stimuli/BF05_DO.jpg","",""
"explore-choice","25","82148","0.0-25.0","p198253","A2APG8MSLJ6G2K","3087LXLJ6NMH85PJ46SJUKP4Z1V0FD","3QAPZX2QN6J0UVB16DIDZLQ498J02B","model","match","uniform","","","","","","","880.5999999940395","83049.59999999404","83930.19999998808","[""stimuli/BF05_HE.jpg"",""stimuli/BF04_SC.jpg"",""stimuli/BF06_DO.jpg"",""stimuli/WM11_FO.jpg""]","stimuli/BF05_HE.jpg","stimuli/BF04_SC.jpg","stimuli/BF06_DO.jpg","stimuli/WM11_FO.jpg","pos4","stimuli/WM11_FO.jpg","FO","WM11","3","3","6","6","stimuli/stars_6.png","24.5","[""HE"",""SC"",""DO"",""FO""]","[""BF05"",""BF04"",""BF06"",""WM11""]","[2,3,6,6]","[2,4,8,6]","","",""
"show-reward","26","84161","0.0-26.0","p198253","A2APG8MSLJ6G2K","3087LXLJ6NMH85PJ46SJUKP4Z1V0FD","3QAPZX2QN6J0UVB16DIDZLQ498J02B","model","match","uniform","","","","","","","","84434.90000000596","86446.90000000596","","","","","","","","","","","","6","","stimuli/stars_6.png","24.5","","","","","stimuli/WM11_FO.jpg","",""
"explore-choice","27","85825","0.0-27.0","p198253","A2APG8MSLJ6G2K","3087LXLJ6NMH85PJ46SJUKP4Z1V0FD","3QAPZX2QN6J0UVB16DIDZLQ498J02B","model","match","uniform","","","","","","","1159.800000011921","86447.59999999404","87607.40000000596","[""stimuli/BF05_HE.jpg"",""stimuli/BF06_FO.jpg"",""stimuli/BF04_SC.jpg"",""stimuli/WM11_DO.jpg""]","stimuli/BF05_HE.jpg","stimuli/BF06_FO.jpg","stimuli/BF04_SC.jpg","stimuli/WM11_DO.jpg","pos2","stimuli/BF06_FO.jpg","FO","BF06","1","3","6","8","stimuli/stars_6.png","27.5","[""HE"",""FO"",""SC"",""DO""]","[""BF05"",""BF06"",""BF04"",""WM11""]","[2,6,2,7]","[2,8,4,6]","","",""
"show-reward","28","87840","0.0-28.0","p198253","A2APG8MSLJ6G2K","3087LXLJ6NMH85PJ46SJUKP4Z1V0FD","3QAPZX2QN6J0UVB16DIDZLQ498J02B","model","match","uniform","","","","","","","","88112.30000001192","90126","","","","","","","","","","","","6","","stimuli/stars_6.png","27.5","","","","","stimuli/BF06_FO.jpg","",""
"explore-choice","29","89376","0.0-29.0","p198253","A2APG8MSLJ6G2K","3087LXLJ6NMH85PJ46SJUKP4Z1V0FD","3QAPZX2QN6J0UVB16DIDZLQ498J02B","model","match","uniform","","","","","","","1030.9000000059605","90126.69999998808","91157.59999999404","[""stimuli/BF06_FO.jpg"",""stimuli/BF05_SC.jpg"",""stimuli/BF04_DO.jpg"",""stimuli/WM11_HE.jpg""]","stimuli/BF06_FO.jpg","stimuli/BF05_SC.jpg","stimuli/BF04_DO.jpg","stimuli/WM11_HE.jpg","pos4","stimuli/WM11_HE.jpg","HE","WM11","3","3","6","6","stimuli/stars_6.png","30.5","[""FO"",""SC"",""DO"",""HE""]","[""BF06"",""BF05"",""BF04"",""WM11""]","[7,2,5,6]","[8,2,4,6]","","",""
"show-reward","30","91384","0.0-30.0","p198253","A2APG8MSLJ6G2K","3087LXLJ6NMH85PJ46SJUKP4Z1V0FD","3QAPZX2QN6J0UVB16DIDZLQ498J02B","model","match","uniform","","","","","","","","91663.5","93670.19999998808","","","","","","","","","","","","6","","stimuli/stars_6.png","30.5","","","","","stimuli/WM11_HE.jpg","",""
"explore-choice","31","93151","0.0-31.0","p198253","A2APG8MSLJ6G2K","3087LXLJ6NMH85PJ46SJUKP4Z1V0FD","3QAPZX2QN6J0UVB16DIDZLQ498J02B","model","match","uniform","","","","","","","1261.800000011921","93671","94932.80000001192","[""stimuli/BF06_FO.jpg"",""stimuli/BF05_HE.jpg"",""stimuli/WM11_SC.jpg"",""stimuli/BF04_DO.jpg""]","stimuli/BF06_FO.jpg","stimuli/BF05_HE.jpg","stimuli/WM11_SC.jpg","stimuli/BF04_DO.jpg","pos3","stimuli/WM11_SC.jpg","SC","WM11","2","3.5","7","6","stimuli/stars_7.png","34","[""FO"",""HE"",""SC"",""DO""]","[""BF06"",""BF05"",""WM11"",""BF04""]","[8,3,7,6]","[8,2,6,4]","","",""
"show-reward","32","95158","0.0-32.0","p198253","A2APG8MSLJ6G2K","3087LXLJ6NMH85PJ46SJUKP4Z1V0FD","3QAPZX2QN6J0UVB16DIDZLQ498J02B","model","match","uniform","","","","","","","","95438.09999999404","97444","","","","","","","","","","","","7","","stimuli/stars_7.png","34","","","","","stimuli/WM11_SC.jpg","",""
"explore-choice","33","97196","0.0-33.0","p198253","A2APG8MSLJ6G2K","3087LXLJ6NMH85PJ46SJUKP4Z1V0FD","3QAPZX2QN6J0UVB16DIDZLQ498J02B","model","match","uniform","","","","","","","1527.199999988079","97445.80000001192","98973","[""stimuli/BF04_SC.jpg"",""stimuli/BF06_HE.jpg"",""stimuli/WM11_DO.jpg"",""stimuli/BF05_FO.jpg""]","stimuli/BF04_SC.jpg","stimuli/BF06_HE.jpg","stimuli/WM11_DO.jpg","stimuli/BF05_FO.jpg","pos2","stimuli/BF06_HE.jpg","HE","BF06","1","4","8","8","stimuli/stars_8.png","38","[""SC"",""HE"",""DO"",""FO""]","[""BF04"",""BF06"",""WM11"",""BF05""]","[3,8,6,4]","[4,8,6,2]","","",""
"show-reward","34","99205","0.0-34.0","p198253","A2APG8MSLJ6G2K","3087LXLJ6NMH85PJ46SJUKP4Z1V0FD","3QAPZX2QN6J0UVB16DIDZLQ498J02B","model","match","uniform","","","","","","","","99482.90000000596","101491.69999998808","","","","","","","","","","","","8","","stimuli/stars_8.png","38","","","","","stimuli/BF06_HE.jpg","",""
"explore-choice","35","101965","0.0-35.0","p198253","A2APG8MSLJ6G2K","3087LXLJ6NMH85PJ46SJUKP4Z1V0FD","3QAPZX2QN6J0UVB16DIDZLQ498J02B","model","match","uniform","","","","","","","2254.5999999940395","101492.30000001192","103746.90000000596","[""stimuli/BF04_FO.jpg"",""stimuli/BF06_HE.jpg"",""stimuli/BF05_SC.jpg"",""stimuli/WM11_DO.jpg""]","stimuli/BF04_FO.jpg","stimuli/BF06_HE.jpg","stimuli/BF05_SC.jpg","stimuli/WM11_DO.jpg","pos4","stimuli/WM11_DO.jpg","DO","WM11","3","2.5","5","6","stimuli/stars_5.png","40.5","[""FO"",""HE"",""SC"",""DO""]","[""BF04"",""BF06"",""BF05"",""WM11""]","[4,9,3,5]","[4,8,2,6]","","",""
"show-reward","36","103973","0.0-36.0","p198253","A2APG8MSLJ6G2K","3087LXLJ6NMH85PJ46SJUKP4Z1V0FD","3QAPZX2QN6J0UVB16DIDZLQ498J02B","model","match","uniform","","","","","","","","104251.69999998808","106258.80000001192","","","","","","","","","","","","5","","stimuli/stars_5.png","40.5","","","","","stimuli/WM11_DO.jpg","",""
"explore-choice","37","105299","0.0-37.0","p198253","A2APG8MSLJ6G2K","3087LXLJ6NMH85PJ46SJUKP4Z1V0FD","3QAPZX2QN6J0UVB16DIDZLQ498J02B","model","match","uniform","","","","","","","825","106259.59999999404","107084.59999999404","[""stimuli/WM11_SC.jpg"",""stimuli/BF06_HE.jpg"",""stimuli/BF05_DO.jpg"",""stimuli/BF04_FO.jpg""]","stimuli/WM11_SC.jpg","stimuli/BF06_HE.jpg","stimuli/BF05_DO.jpg","stimuli/BF04_FO.jpg","pos1","stimuli/WM11_SC.jpg","SC","WM11","0","2.5","5","6","stimuli/stars_5.png","43","[""SC"",""HE"",""DO"",""FO""]","[""WM11"",""BF06"",""BF05"",""BF04""]","[5,7,0,2]","[6,8,2,4]","","",""
"show-reward","38","107308","0.0-38.0","p198253","A2APG8MSLJ6G2K","3087LXLJ6NMH85PJ46SJUKP4Z1V0FD","3QAPZX2QN6J0UVB16DIDZLQ498J02B","model","match","uniform","","","","","","","","107586","109594.40000000596","","","","","","","","","","","","5","","stimuli/stars_5.png","43","","","","","stimuli/WM11_SC.jpg","",""
"explore-choice","39","110480","0.0-39.0","p198253","A2APG8MSLJ6G2K","3087LXLJ6NMH85PJ46SJUKP4Z1V0FD","3QAPZX2QN6J0UVB16DIDZLQ498J02B","model","match","uniform","","","","","","","2658.4000000059605","109595.19999998808","112253.59999999404","[""stimuli/BF06_DO.jpg"",""stimuli/BF05_FO.jpg"",""stimuli/BF04_SC.jpg"",""stimuli/WM11_HE.jpg""]","stimuli/BF06_DO.jpg","stimuli/BF05_FO.jpg","stimuli/BF04_SC.jpg","stimuli/WM11_HE.jpg","pos3","stimuli/BF04_SC.jpg","SC","BF04","2","2","4","4","stimuli/stars_4.png","45","[""DO"",""FO"",""SC"",""HE""]","[""BF06"",""BF05"",""BF04"",""WM11""]","[10,3,4,4]","[8,2,4,6]","","",""
"show-reward","40","112488","0.0-40.0","p198253","A2APG8MSLJ6G2K","3087LXLJ6NMH85PJ46SJUKP4Z1V0FD","3QAPZX2QN6J0UVB16DIDZLQ498J02B","model","match","uniform","","","","","","","","112766.5","114773.90000000596","","","","","","","","","","","","4","","stimuli/stars_4.png","45","","","","","stimuli/BF04_SC.jpg","",""
"explore-choice","41","113825","0.0-41.0","p198253","A2APG8MSLJ6G2K","3087LXLJ6NMH85PJ46SJUKP4Z1V0FD","3QAPZX2QN6J0UVB16DIDZLQ498J02B","model","match","uniform","","","","","","","824.2000000178814","114774.69999998808","115598.90000000596","[""stimuli/BF06_FO.jpg"",""stimuli/BF04_SC.jpg"",""stimuli/WM11_HE.jpg"",""stimuli/BF05_DO.jpg""]","stimuli/BF06_FO.jpg","stimuli/BF04_SC.jpg","stimuli/WM11_HE.jpg","stimuli/BF05_DO.jpg","pos1","stimuli/BF06_FO.jpg","FO","BF06","0","4.5","9","8","stimuli/stars_9.png","49.5","[""FO"",""SC"",""HE"",""DO""]","[""BF06"",""BF04"",""WM11"",""BF05""]","[9,3,4,1]","[8,4,6,2]","","",""
"show-reward","42","115841","0.0-42.0","p198253","A2APG8MSLJ6G2K","3087LXLJ6NMH85PJ46SJUKP4Z1V0FD","3QAPZX2QN6J0UVB16DIDZLQ498J02B","model","match","uniform","","","","","","","","116111.69999998808","118127.5","","","","","","","","","","","","9","","stimuli/stars_9.png","49.5","","","","","stimuli/BF06_FO.jpg","",""
"explore-choice","43","117370","0.0-43.0","p198253","A2APG8MSLJ6G2K","3087LXLJ6NMH85PJ46SJUKP4Z1V0FD","3QAPZX2QN6J0UVB16DIDZLQ498J02B","model","match","uniform","","","","","","","1014.9000000059605","118128","119142.90000000596","[""stimuli/WM11_DO.jpg"",""stimuli/BF05_HE.jpg"",""stimuli/BF04_FO.jpg"",""stimuli/BF06_SC.jpg""]","stimuli/WM11_DO.jpg","stimuli/BF05_HE.jpg","stimuli/BF04_FO.jpg","stimuli/BF06_SC.jpg","pos1","stimuli/WM11_DO.jpg","DO","WM11","0","2","4","6","stimuli/stars_4.png","51.5","[""DO"",""HE"",""FO"",""SC""]","[""WM11"",""BF05"",""BF04"",""BF06""]","[4,1,3,9]","[6,2,4,8]","","",""
"show-reward","44","119375","0.0-44.0","p198253","A2APG8MSLJ6G2K","3087LXLJ6NMH85PJ46SJUKP4Z1V0FD","3QAPZX2QN6J0UVB16DIDZLQ498J02B","model","match","uniform","","","","","","","","119657","121660.90000000596","","","","","","","","","","","","4","","stimuli/stars_4.png","51.5","","","","","stimuli/WM11_DO.jpg","",""
"explore-choice","45","120902","0.0-45.0","p198253","A2APG8MSLJ6G2K","3087LXLJ6NMH85PJ46SJUKP4Z1V0FD","3QAPZX2QN6J0UVB16DIDZLQ498J02B","model","match","uniform","","","","","","","1013.2000000178814","121661.59999999404","122674.80000001192","[""stimuli/BF05_HE.jpg"",""stimuli/BF04_FO.jpg"",""stimuli/WM11_SC.jpg"",""stimuli/BF06_DO.jpg""]","stimuli/BF05_HE.jpg","stimuli/BF04_FO.jpg","stimuli/WM11_SC.jpg","stimuli/BF06_DO.jpg","pos4","stimuli/BF06_DO.jpg","DO","BF06","3","4.5","9","8","stimuli/stars_9.png","56","[""HE"",""FO"",""SC"",""DO""]","[""BF05"",""BF04"",""WM11"",""BF06""]","[1,3,5,9]","[2,4,6,8]","","",""
"show-reward","46","122916","0.0-46.0","p198253","A2APG8MSLJ6G2K","3087LXLJ6NMH85PJ46SJUKP4Z1V0FD","3QAPZX2QN6J0UVB16DIDZLQ498J02B","model","match","uniform","","","","","","","","123188.69999998808","125202.5","","","","","","","","","","","","9","","stimuli/stars_9.png","56","","","","","stimuli/BF06_DO.jpg","",""
"explore-choice","47","125455","0.0-47.0","p198253","A2APG8MSLJ6G2K","3087LXLJ6NMH85PJ46SJUKP4Z1V0FD","3QAPZX2QN6J0UVB16DIDZLQ498J02B","model","match","uniform","","","","","","","2031.2999999821186","125203.30000001192","127234.59999999404","[""stimuli/BF05_DO.jpg"",""stimuli/BF04_HE.jpg"",""stimuli/BF06_FO.jpg"",""stimuli/WM11_SC.jpg""]","stimuli/BF05_DO.jpg","stimuli/BF04_HE.jpg","stimuli/BF06_FO.jpg","stimuli/WM11_SC.jpg","pos2","stimuli/BF04_HE.jpg","HE","BF04","1","3","6","4","stimuli/stars_6.png","59","[""DO"",""HE"",""FO"",""SC""]","[""BF05"",""BF04"",""BF06"",""WM11""]","[1,6,9,6]","[2,4,8,6]","","",""
"show-reward","48","127467","0.0-48.0","p198253","A2APG8MSLJ6G2K","3087LXLJ6NMH85PJ46SJUKP4Z1V0FD","3QAPZX2QN6J0UVB16DIDZLQ498J02B","model","match","uniform","","","","","","","","127742","129753","","","","","","","","","","","","6","","stimuli/stars_6.png","59","","","","","stimuli/BF04_HE.jpg","",""
"explore-choice","49","130118","0.0-49.0","p198253","A2APG8MSLJ6G2K","3087LXLJ6NMH85PJ46SJUKP4Z1V0FD","3QAPZX2QN6J0UVB16DIDZLQ498J02B","model","match","uniform","","","","","","","2141.300000011921","129753.69999998808","131895","[""stimuli/BF05_SC.jpg"",""stimuli/BF06_DO.jpg"",""stimuli/BF04_HE.jpg"",""stimuli/WM11_FO.jpg""]","stimuli/BF05_SC.jpg","stimuli/BF06_DO.jpg","stimuli/BF04_HE.jpg","stimuli/WM11_FO.jpg","pos4","stimuli/WM11_FO.jpg","FO","WM11","3","3.5","7","6","stimuli/stars_7.png","62.5","[""SC"",""DO"",""HE"",""FO""]","[""BF05"",""BF06"",""BF04"",""WM11""]","[4,7,4,7]","[2,8,4,6]","","",""
"show-reward","50","132128","0.0-50.0","p198253","A2APG8MSLJ6G2K","3087LXLJ6NMH85PJ46SJUKP4Z1V0FD","3QAPZX2QN6J0UVB16DIDZLQ498J02B","model","match","uniform","","","","","","","","132404.69999998808","134414.09999999404","","","","","","","","","","","","7","","stimuli/stars_7.png","62.5","","","","","stimuli/WM11_FO.jpg","",""
"explore-choice","51","133841","0.0-51.0","p198253","A2APG8MSLJ6G2K","3087LXLJ6NMH85PJ46SJUKP4Z1V0FD","3QAPZX2QN6J0UVB16DIDZLQ498J02B","model","match","uniform","","","","","","","1204.0999999940395","134414.80000001192","135618.90000000596","[""stimuli/BF04_FO.jpg"",""stimuli/WM11_HE.jpg"",""stimuli/BF06_DO.jpg"",""stimuli/BF05_SC.jpg""]","stimuli/BF04_FO.jpg","stimuli/WM11_HE.jpg","stimuli/BF06_DO.jpg","stimuli/BF05_SC.jpg","pos1","stimuli/BF04_FO.jpg","FO","BF04","0","1","2","4","stimuli/stars_2.png","63.5","[""FO"",""HE"",""DO"",""SC""]","[""BF04"",""WM11"",""BF06"",""BF05""]","[2,4,10,0]","[4,6,8,2]","","",""
"show-reward","52","135856","0.0-52.0","p198253","A2APG8MSLJ6G2K","3087LXLJ6NMH85PJ46SJUKP4Z1V0FD","3QAPZX2QN6J0UVB16DIDZLQ498J02B","model","match","uniform","","","","","","","","136127.59999999404","138141.69999998808","","","","","","","","","","","","2","","stimuli/stars_2.png","63.5","","","","","stimuli/BF04_FO.jpg","",""
"explore-choice","53","138302","0.0-53.0","p198253","A2APG8MSLJ6G2K","3087LXLJ6NMH85PJ46SJUKP4Z1V0FD","3QAPZX2QN6J0UVB16DIDZLQ498J02B","model","match","uniform","","","","","","","1935.0999999940395","138142.5","140077.59999999404","[""stimuli/BF06_SC.jpg"",""stimuli/BF05_FO.jpg"",""stimuli/BF04_HE.jpg"",""stimuli/WM11_DO.jpg""]","stimuli/BF06_SC.jpg","stimuli/BF05_FO.jpg","stimuli/BF04_HE.jpg","stimuli/WM11_DO.jpg","pos2","stimuli/BF05_FO.jpg","FO","BF05","1","1","2","2","stimuli/stars_2.png","64.5","[""SC"",""FO"",""HE"",""DO""]","[""BF06"",""BF05"",""BF04"",""WM11""]","[7,2,6,6]","[8,2,4,6]","","",""
"show-reward","54","140311","0.0-54.0","p198253","A2APG8MSLJ6G2K","3087LXLJ6NMH85PJ46SJUKP4Z1V0FD","3QAPZX2QN6J0UVB16DIDZLQ498J02B","model","match","uniform","","","","","","","","140589.30000001192","142597.5","","","","","","","","","","","","2","","stimuli/stars_2.png","64.5","","","","","stimuli/BF05_FO.jpg","",""
"explore-choice","55","141420","0.0-55.0","p198253","A2APG8MSLJ6G2K","3087LXLJ6NMH85PJ46SJUKP4Z1V0FD","3QAPZX2QN6J0UVB16DIDZLQ498J02B","model","match","uniform","","","","","","","596.3000000119209","142598.19999998808","143194.5","[""stimuli/WM11_FO.jpg"",""stimuli/BF05_SC.jpg"",""stimuli/BF04_DO.jpg"",""stimuli/BF06_HE.jpg""]","stimuli/WM11_FO.jpg","stimuli/BF05_SC.jpg","stimuli/BF04_DO.jpg","stimuli/BF06_HE.jpg","pos1","stimuli/WM11_FO.jpg","FO","WM11","0","2","4","6","stimuli/stars_4.png","66.5","[""FO"",""SC"",""DO"",""HE""]","[""WM11"",""BF05"",""BF04"",""BF06""]","[4,1,4,10]","[6,2,4,8]","","",""
"show-reward","56","143429","0.0-56.0","p198253","A2APG8MSLJ6G2K","3087LXLJ6NMH85PJ46SJUKP4Z1V0FD","3QAPZX2QN6J0UVB16DIDZLQ498J02B","model","match","uniform","","","","","","","","143706.90000000596","145715.30000001192","","","","","","","","","","","","4","","stimuli/stars_4.png","66.5","","","","","stimuli/WM11_FO.jpg","",""
"explore-choice","57","145065","0.0-57.0","p198253","A2APG8MSLJ6G2K","3087LXLJ6NMH85PJ46SJUKP4Z1V0FD","3QAPZX2QN6J0UVB16DIDZLQ498J02B","model","match","uniform","","","","","","","1135.0999999940395","145716.09999999404","146851.19999998808","[""stimuli/BF06_HE.jpg"",""stimuli/BF05_FO.jpg"",""stimuli/BF04_DO.jpg"",""stimuli/WM11_SC.jpg""]","stimuli/BF06_HE.jpg","stimuli/BF05_FO.jpg","stimuli/BF04_DO.jpg","stimuli/WM11_SC.jpg","pos3","stimuli/BF04_DO.jpg","DO","BF04","2","1.5","3","4","stimuli/stars_3.png","68","[""HE"",""FO"",""DO"",""SC""]","[""BF06"",""BF05"",""BF04"",""WM11""]","[6,2,3,8]","[8,2,4,6]","","",""
"show-reward","58","147072","0.0-58.0","p198253","A2APG8MSLJ6G2K","3087LXLJ6NMH85PJ46SJUKP4Z1V0FD","3QAPZX2QN6J0UVB16DIDZLQ498J02B","model","match","uniform","","","","","","","","147352.19999998808","149357.80000001192","","","","","","","","","","","","3","","stimuli/stars_3.png","68","","","","","stimuli/BF04_DO.jpg","",""
"explore-choice","59","149639","0.0-59.0","p198253","A2APG8MSLJ6G2K","3087LXLJ6NMH85PJ46SJUKP4Z1V0FD","3QAPZX2QN6J0UVB16DIDZLQ498J02B","model","match","uniform","","","","","","","2060.5","149358.40000000596","151418.90000000596","[""stimuli/BF06_DO.jpg"",""stimuli/WM11_FO.jpg"",""stimuli/BF05_HE.jpg"",""stimuli/BF04_SC.jpg""]","stimuli/BF06_DO.jpg","stimuli/WM11_FO.jpg","stimuli/BF05_HE.jpg","stimuli/BF04_SC.jpg","pos1","stimuli/BF06_DO.jpg","DO","BF06","0","3","6","8","stimuli/stars_6.png","71","[""DO"",""FO"",""HE"",""SC""]","[""BF06"",""WM11"",""BF05"",""BF04""]","[6,6,2,3]","[8,6,2,4]","","",""
"show-reward","60","151651","0.0-60.0","p198253","A2APG8MSLJ6G2K","3087LXLJ6NMH85PJ46SJUKP4Z1V0FD","3QAPZX2QN6J0UVB16DIDZLQ498J02B","model","match","uniform","","","","","","","","151925.80000001192","153937.40000000596","","","","","","","","","","","","6","","stimuli/stars_6.png","71","","","","","stimuli/BF06_DO.jpg","",""
"explore-choice","61","153600","0.0-61.0","p198253","A2APG8MSLJ6G2K","3087LXLJ6NMH85PJ46SJUKP4Z1V0FD","3QAPZX2QN6J0UVB16DIDZLQ498J02B","model","match","uniform","","","","","","","1444.800000011921","153938.09999999404","155382.90000000596","[""stimuli/BF05_DO.jpg"",""stimuli/WM11_SC.jpg"",""stimuli/BF06_HE.jpg"",""stimuli/BF04_FO.jpg""]","stimuli/BF05_DO.jpg","stimuli/WM11_SC.jpg","stimuli/BF06_HE.jpg","stimuli/BF04_FO.jpg","pos2","stimuli/WM11_SC.jpg","SC","WM11","1","2.5","5","6","stimuli/stars_5.png","73.5","[""DO"",""SC"",""HE"",""FO""]","[""BF05"",""WM11"",""BF06"",""BF04""]","[0,5,7,2]","[2,6,8,4]","","",""
"show-reward","62","155612","0.0-62.0","p198253","A2APG8MSLJ6G2K","3087LXLJ6NMH85PJ46SJUKP4Z1V0FD","3QAPZX2QN6J0UVB16DIDZLQ498J02B","model","match","uniform","","","","","","","","155887","157897.80000001192","","","","","","","","","","","","5","","stimuli/stars_5.png","73.5","","","","","stimuli/WM11_SC.jpg","",""
"explore-choice","63","157542","0.0-63.0","p198253","A2APG8MSLJ6G2K","3087LXLJ6NMH85PJ46SJUKP4Z1V0FD","3QAPZX2QN6J0UVB16DIDZLQ498J02B","model","match","uniform","","","","","","","1427.4000000059605","157898.5","159325.90000000596","[""stimuli/WM11_HE.jpg"",""stimuli/BF05_SC.jpg"",""stimuli/BF04_DO.jpg"",""stimuli/BF06_FO.jpg""]","stimuli/WM11_HE.jpg","stimuli/BF05_SC.jpg","stimuli/BF04_DO.jpg","stimuli/BF06_FO.jpg","pos4","stimuli/BF06_FO.jpg","FO","BF06","3","3.5","7","8","stimuli/stars_7.png","77","[""HE"",""SC"",""DO"",""FO""]","[""WM11"",""BF05"",""BF04"",""BF06""]","[6,2,5,7]","[6,2,4,8]","","",""
"show-reward","64","159556","0.0-64.0","p198253","A2APG8MSLJ6G2K","3087LXLJ6NMH85PJ46SJUKP4Z1V0FD","3QAPZX2QN6J0UVB16DIDZLQ498J02B","model","match","uniform","","","","","","","","159829.19999998808","161841.80000001192","","","","","","","","","","","","7","","stimuli/stars_7.png","77","","","","","stimuli/BF06_FO.jpg","",""
"explore-choice","65","161596","0.0-65.0","p198253","A2APG8MSLJ6G2K","3087LXLJ6NMH85PJ46SJUKP4Z1V0FD","3QAPZX2QN6J0UVB16DIDZLQ498J02B","model","match","uniform","","","","","","","1525","161842.5","163367.5","[""stimuli/BF06_DO.jpg"",""stimuli/BF04_FO.jpg"",""stimuli/WM11_SC.jpg"",""stimuli/BF05_HE.jpg""]","stimuli/BF06_DO.jpg","stimuli/BF04_FO.jpg","stimuli/WM11_SC.jpg","stimuli/BF05_HE.jpg","pos1","stimuli/BF06_DO.jpg","DO","BF06","0","4.5","9","8","stimuli/stars_9.png","81.5","[""DO"",""FO"",""SC"",""HE""]","[""BF06"",""BF04"",""WM11"",""BF05""]","[9,3,5,1]","[8,4,6,2]","","",""
"show-reward","66","163602","0.0-66.0","p198253","A2APG8MSLJ6G2K","3087LXLJ6NMH85PJ46SJUKP4Z1V0FD","3QAPZX2QN6J0UVB16DIDZLQ498J02B","model","match","uniform","","","","","","","","163883.40000000596","165888.40000000596","","","","","","","","","","","","9","","stimuli/stars_9.png","81.5","","","","","stimuli/BF06_DO.jpg","",""
"explore-choice","67","165559","0.0-67.0","p198253","A2APG8MSLJ6G2K","3087LXLJ6NMH85PJ46SJUKP4Z1V0FD","3QAPZX2QN6J0UVB16DIDZLQ498J02B","model","match","uniform","","","","","","","1446.800000011921","165889.09999999404","167335.90000000596","[""stimuli/BF04_HE.jpg"",""stimuli/BF06_DO.jpg"",""stimuli/WM11_FO.jpg"",""stimuli/BF05_SC.jpg""]","stimuli/BF04_HE.jpg","stimuli/BF06_DO.jpg","stimuli/WM11_FO.jpg","stimuli/BF05_SC.jpg","pos2","stimuli/BF06_DO.jpg","DO","BF06","1","3.5","7","8","stimuli/stars_7.png","85","[""HE"",""DO"",""FO"",""SC""]","[""BF04"",""BF06"",""WM11"",""BF05""]","[4,7,7,4]","[4,8,6,2]","","",""
"show-reward","68","167565","0.0-68.0","p198253","A2APG8MSLJ6G2K","3087LXLJ6NMH85PJ46SJUKP4Z1V0FD","3QAPZX2QN6J0UVB16DIDZLQ498J02B","model","match","uniform","","","","","","","","167846.19999998808","169851.40000000596","","","","","","","","","","","","7","","stimuli/stars_7.png","85","","","","","stimuli/BF06_DO.jpg","",""
"explore-choice","69","169154","0.0-69.0","p198253","A2APG8MSLJ6G2K","3087LXLJ6NMH85PJ46SJUKP4Z1V0FD","3QAPZX2QN6J0UVB16DIDZLQ498J02B","model","match","uniform","","","","","","","1077","169852.40000000596","170929.40000000596","[""stimuli/BF04_HE.jpg"",""stimuli/WM11_SC.jpg"",""stimuli/BF05_DO.jpg"",""stimuli/BF06_FO.jpg""]","stimuli/BF04_HE.jpg","stimuli/WM11_SC.jpg","stimuli/BF05_DO.jpg","stimuli/BF06_FO.jpg","pos4","stimuli/BF06_FO.jpg","FO","BF06","3","4.5","9","8","stimuli/stars_9.png","89.5","[""HE"",""SC"",""DO"",""FO""]","[""BF04"",""WM11"",""BF05"",""BF06""]","[6,6,1,9]","[4,6,2,8]","","",""
"show-reward","70","171164","0.0-70.0","p198253","A2APG8MSLJ6G2K","3087LXLJ6NMH85PJ46SJUKP4Z1V0FD","3QAPZX2QN6J0UVB16DIDZLQ498J02B","model","match","uniform","","","","","","","","171441.19999998808","173450.40000000596","","","","","","","","","","","","9","","stimuli/stars_9.png","89.5","","","","","stimuli/BF06_FO.jpg","",""
"explore-choice","71","172442","0.0-71.0","p198253","A2APG8MSLJ6G2K","3087LXLJ6NMH85PJ46SJUKP4Z1V0FD","3QAPZX2QN6J0UVB16DIDZLQ498J02B","model","match","uniform","","","","","","","767.0999999940395","173451","174218.09999999404","[""stimuli/WM11_SC.jpg"",""stimuli/BF04_HE.jpg"",""stimuli/BF05_FO.jpg"",""stimuli/BF06_DO.jpg""]","stimuli/WM11_SC.jpg","stimuli/BF04_HE.jpg","stimuli/BF05_FO.jpg","stimuli/BF06_DO.jpg","pos4","stimuli/BF06_DO.jpg","DO","BF06","3","5","10","8","stimuli/stars_10.png","94.5","[""SC"",""HE"",""FO"",""DO""]","[""WM11"",""BF04"",""BF05"",""BF06""]","[7,5,1,10]","[6,4,2,8]","","",""
"show-reward","72","174454","0.0-72.0","p198253","A2APG8MSLJ6G2K","3087LXLJ6NMH85PJ46SJUKP4Z1V0FD","3QAPZX2QN6J0UVB16DIDZLQ498J02B","model","match","uniform","","","","","","","","174728.40000000596","176740.59999999404","","","","","","","","","","","","10","","stimuli/stars_10.png","94.5","","","","","stimuli/BF06_DO.jpg","",""
"explore-choice","73","176335","0.0-73.0","p198253","A2APG8MSLJ6G2K","3087LXLJ6NMH85PJ46SJUKP4Z1V0FD","3QAPZX2QN6J0UVB16DIDZLQ498J02B","model","match","uniform","","","","","","","1373.199999988079","176741.30000001192","178114.5","[""stimuli/BF06_FO.jpg"",""stimuli/WM11_SC.jpg"",""stimuli/BF05_HE.jpg"",""stimuli/BF04_DO.jpg""]","stimuli/BF06_FO.jpg","stimuli/WM11_SC.jpg","stimuli/BF05_HE.jpg","stimuli/BF04_DO.jpg","pos1","stimuli/BF06_FO.jpg","FO","BF06","0","4","8","8","stimuli/stars_8.png","98.5","[""FO"",""SC"",""HE"",""DO""]","[""BF06"",""WM11"",""BF05"",""BF04""]","[8,7,3,6]","[8,6,2,4]","","",""
"show-reward","74","178348","0.0-74.0","p198253","A2APG8MSLJ6G2K","3087LXLJ6NMH85PJ46SJUKP4Z1V0FD","3QAPZX2QN6J0UVB16DIDZLQ498J02B","model","match","uniform","","","","","","","","178621.5","180634.59999999404","","","","","","","","","","","","8","","stimuli/stars_8.png","98.5","","","","","stimuli/BF06_FO.jpg","",""
"explore-choice","75","180092","0.0-75.0","p198253","A2APG8MSLJ6G2K","3087LXLJ6NMH85PJ46SJUKP4Z1V0FD","3QAPZX2QN6J0UVB16DIDZLQ498J02B","model","match","uniform","","","","","","","1235.2999999821186","180635.30000001192","181870.59999999404","[""stimuli/WM11_FO.jpg"",""stimuli/BF05_DO.jpg"",""stimuli/BF06_SC.jpg"",""stimuli/BF04_HE.jpg""]","stimuli/WM11_FO.jpg","stimuli/BF05_DO.jpg","stimuli/BF06_SC.jpg","stimuli/BF04_HE.jpg","pos3","stimuli/BF06_SC.jpg","SC","BF06","2","3","6","8","stimuli/stars_6.png","101.5","[""FO"",""DO"",""SC"",""HE""]","[""WM11"",""BF05"",""BF06"",""BF04""]","[5,0,6,5]","[6,2,8,4]","","",""
"show-reward","76","182101","0.0-76.0","p198253","A2APG8MSLJ6G2K","3087LXLJ6NMH85PJ46SJUKP4Z1V0FD","3QAPZX2QN6J0UVB16DIDZLQ498J02B","model","match","uniform","","","","","","","","182379","184386.5","","","","","","","","","","","","6","","stimuli/stars_6.png","101.5","","","","","stimuli/BF06_SC.jpg","",""
"explore-choice","77","183844","0.0-77.0","p198253","A2APG8MSLJ6G2K","3087LXLJ6NMH85PJ46SJUKP4Z1V0FD","3QAPZX2QN6J0UVB16DIDZLQ498J02B","model","match","uniform","","","","","","","1237.5999999940395","184387.40000000596","185625","[""stimuli/BF04_HE.jpg"",""stimuli/BF05_FO.jpg"",""stimuli/WM11_DO.jpg"",""stimuli/BF06_SC.jpg""]","stimuli/BF04_HE.jpg","stimuli/BF05_FO.jpg","stimuli/WM11_DO.jpg","stimuli/BF06_SC.jpg","pos3","stimuli/WM11_DO.jpg","DO","WM11","2","3","6","6","stimuli/stars_6.png","104.5","[""HE"",""FO"",""DO"",""SC""]","[""BF04"",""BF05"",""WM11"",""BF06""]","[6,2,6,7]","[4,2,6,8]","","",""
"show-reward","78","185854","0.0-78.0","p198253","A2APG8MSLJ6G2K","3087LXLJ6NMH85PJ46SJUKP4Z1V0FD","3QAPZX2QN6J0UVB16DIDZLQ498J02B","model","match","uniform","","","","","","","","186130.69999998808","188140.40000000596","","","","","","","","","","","","6","","stimuli/stars_6.png","104.5","","","","","stimuli/WM11_DO.jpg","",""
"explore-choice","79","187427","0.0-79.0","p198253","A2APG8MSLJ6G2K","3087LXLJ6NMH85PJ46SJUKP4Z1V0FD","3QAPZX2QN6J0UVB16DIDZLQ498J02B","model","match","uniform","","","","","","","1058","188140.90000000596","189198.90000000596","[""stimuli/BF04_FO.jpg"",""stimuli/WM11_DO.jpg"",""stimuli/BF06_HE.jpg"",""stimuli/BF05_SC.jpg""]","stimuli/BF04_FO.jpg","stimuli/WM11_DO.jpg","stimuli/BF06_HE.jpg","stimuli/BF05_SC.jpg","pos3","stimuli/BF06_HE.jpg","HE","BF06","2","4.5","9","8","stimuli/stars_9.png","109","[""FO"",""DO"",""HE"",""SC""]","[""BF04"",""WM11"",""BF06"",""BF05""]","[4,5,9,3]","[4,6,8,2]","","",""
"show-reward","80","189437","0.0-80.0","p198253","A2APG8MSLJ6G2K","3087LXLJ6NMH85PJ46SJUKP4Z1V0FD","3QAPZX2QN6J0UVB16DIDZLQ498J02B","model","match","uniform","","","","","","","","189713.80000001192","191722.69999998808","","","","","","","","","","","","9","","stimuli/stars_9.png","109","","","","","stimuli/BF06_HE.jpg","",""
"explore-choice","81","190804","0.0-81.0","p198253","A2APG8MSLJ6G2K","3087LXLJ6NMH85PJ46SJUKP4Z1V0FD","3QAPZX2QN6J0UVB16DIDZLQ498J02B","model","match","uniform","","","","","","","860.5","191723.5","192584","[""stimuli/WM11_DO.jpg"",""stimuli/BF06_FO.jpg"",""stimuli/BF05_HE.jpg"",""stimuli/BF04_SC.jpg""]","stimuli/WM11_DO.jpg","stimuli/BF06_FO.jpg","stimuli/BF05_HE.jpg","stimuli/BF04_SC.jpg","pos1","stimuli/WM11_DO.jpg","DO","WM11","0","3.5","7","6","stimuli/stars_7.png","112.5","[""DO"",""FO"",""HE"",""SC""]","[""WM11"",""BF06"",""BF05"",""BF04""]","[7,6,2,2]","[6,8,2,4]","","",""
"show-reward","82","192813","0.0-82.0","p198253","A2APG8MSLJ6G2K","3087LXLJ6NMH85PJ46SJUKP4Z1V0FD","3QAPZX2QN6J0UVB16DIDZLQ498J02B","model","match","uniform","","","","","","","","193090.80000001192","195099.59999999404","","","","","","","","","","","","7","","stimuli/stars_7.png","112.5","","","","","stimuli/WM11_DO.jpg","",""
"explore-choice","83","194719","0.0-83.0","p198253","A2APG8MSLJ6G2K","3087LXLJ6NMH85PJ46SJUKP4Z1V0FD","3QAPZX2QN6J0UVB16DIDZLQ498J02B","model","match","uniform","","","","","","","1395.5","195100.30000001192","196495.80000001192","[""stimuli/WM11_HE.jpg"",""stimuli/BF06_SC.jpg"",""stimuli/BF04_FO.jpg"",""stimuli/BF05_DO.jpg""]","stimuli/WM11_HE.jpg","stimuli/BF06_SC.jpg","stimuli/BF04_FO.jpg","stimuli/BF05_DO.jpg","pos2","stimuli/BF06_SC.jpg","SC","BF06","1","3.5","7","8","stimuli/stars_7.png","116","[""HE"",""SC"",""FO"",""DO""]","[""WM11"",""BF06"",""BF04"",""BF05""]","[5,7,5,2]","[6,8,4,2]","","",""
"show-reward","84","196730","0.0-84.0","p198253","A2APG8MSLJ6G2K","3087LXLJ6NMH85PJ46SJUKP4Z1V0FD","3QAPZX2QN6J0UVB16DIDZLQ498J02B","model","match","uniform","","","","","","","","197006.09999999404","199016.30000001192","","","","","","","","","","","","7","","stimuli/stars_7.png","116","","","","","stimuli/BF06_SC.jpg","",""
"explore-choice","85","198542","0.0-85.0","p198253","A2APG8MSLJ6G2K","3087LXLJ6NMH85PJ46SJUKP4Z1V0FD","3QAPZX2QN6J0UVB16DIDZLQ498J02B","model","match","uniform","","","","","","","1302.5999999940395","199017","200319.59999999404","[""stimuli/WM11_FO.jpg"",""stimuli/BF04_DO.jpg"",""stimuli/BF05_HE.jpg"",""stimuli/BF06_SC.jpg""]","stimuli/WM11_FO.jpg","stimuli/BF04_DO.jpg","stimuli/BF05_HE.jpg","stimuli/BF06_SC.jpg","pos4","stimuli/BF06_SC.jpg","SC","BF06","3","3","6","8","stimuli/stars_6.png","119","[""FO"",""DO"",""HE"",""SC""]","[""WM11"",""BF04"",""BF05"",""BF06""]","[8,6,0,6]","[6,4,2,8]","","",""
"show-reward","86","200552","0.0-86.0","p198253","A2APG8MSLJ6G2K","3087LXLJ6NMH85PJ46SJUKP4Z1V0FD","3QAPZX2QN6J0UVB16DIDZLQ498J02B","model","match","uniform","","","","","","","","200829","202838.09999999404","","","","","","","","","","","","6","","stimuli/stars_6.png","119","","","","","stimuli/BF06_SC.jpg","",""
"explore-choice","87","201939","0.0-87.0","p198253","A2APG8MSLJ6G2K","3087LXLJ6NMH85PJ46SJUKP4Z1V0FD","3QAPZX2QN6J0UVB16DIDZLQ498J02B","model","match","uniform","","","","","","","876.7999999821186","202838.90000000596","203715.69999998808","[""stimuli/BF04_FO.jpg"",""stimuli/BF06_DO.jpg"",""stimuli/WM11_HE.jpg"",""stimuli/BF05_SC.jpg""]","stimuli/BF04_FO.jpg","stimuli/BF06_DO.jpg","stimuli/WM11_HE.jpg","stimuli/BF05_SC.jpg","pos3","stimuli/WM11_HE.jpg","HE","WM11","2","2","4","6","stimuli/stars_4.png","121","[""FO"",""DO"",""HE"",""SC""]","[""BF04"",""BF06"",""WM11"",""BF05""]","[2,10,4,0]","[4,8,6,2]","","",""
"show-reward","88","203948","0.0-88.0","p198253","A2APG8MSLJ6G2K","3087LXLJ6NMH85PJ46SJUKP4Z1V0FD","3QAPZX2QN6J0UVB16DIDZLQ498J02B","model","match","uniform","","","","","","","","204226.09999999404","206234.5","","","","","","","","","","","","4","","stimuli/stars_4.png","121","","","","","stimuli/WM11_HE.jpg","",""
"explore-choice","89","205441","0.0-89.0","p198253","A2APG8MSLJ6G2K","3087LXLJ6NMH85PJ46SJUKP4Z1V0FD","3QAPZX2QN6J0UVB16DIDZLQ498J02B","model","match","uniform","","","","","","","978.9000000059605","206235.19999998808","207214.09999999404","[""stimuli/BF04_HE.jpg"",""stimuli/WM11_DO.jpg"",""stimuli/BF05_SC.jpg"",""stimuli/BF06_FO.jpg""]","stimuli/BF04_HE.jpg","stimuli/WM11_DO.jpg","stimuli/BF05_SC.jpg","stimuli/BF06_FO.jpg","pos4","stimuli/BF06_FO.jpg","FO","BF06","3","3","6","8","stimuli/stars_6.png","124","[""HE"",""DO"",""SC"",""FO""]","[""BF04"",""WM11"",""BF05"",""BF06""]","[2,7,2,6]","[4,6,2,8]","","",""
"show-reward","90","207453","0.0-90.0","p198253","A2APG8MSLJ6G2K","3087LXLJ6NMH85PJ46SJUKP4Z1V0FD","3QAPZX2QN6J0UVB16DIDZLQ498J02B","model","match","uniform","","","","","","","","207727.80000001192","209739.30000001192","","","","","","","","","","","","6","","stimuli/stars_6.png","124","","","","","stimuli/BF06_FO.jpg","",""
"explore-choice","91","209990","0.0-91.0","p198253","A2APG8MSLJ6G2K","3087LXLJ6NMH85PJ46SJUKP4Z1V0FD","3QAPZX2QN6J0UVB16DIDZLQ498J02B","model","match","uniform","","","","","","","2033.1000000238419","209739.69999998808","211772.80000001192","[""stimuli/BF05_FO.jpg"",""stimuli/WM11_HE.jpg"",""stimuli/BF04_SC.jpg"",""stimuli/BF06_DO.jpg""]","stimuli/BF05_FO.jpg","stimuli/WM11_HE.jpg","stimuli/BF04_SC.jpg","stimuli/BF06_DO.jpg","pos1","stimuli/BF05_FO.jpg","FO","BF05","0","1.5","3","2","stimuli/stars_3.png","125.5","[""FO"",""HE"",""SC"",""DO""]","[""BF05"",""WM11"",""BF04"",""BF06""]","[3,4,4,10]","[2,6,4,8]","","",""
"show-reward","92","212002","0.0-92.0","p198253","A2APG8MSLJ6G2K","3087LXLJ6NMH85PJ46SJUKP4Z1V0FD","3QAPZX2QN6J0UVB16DIDZLQ498J02B","model","match","uniform","","","","","","","","212276.80000001192","214288","","","","","","","","","","","","3","","stimuli/stars_3.png","125.5","","","","","stimuli/BF05_FO.jpg","",""
"explore-choice","93","213549","0.0-93.0","p198253","A2APG8MSLJ6G2K","3087LXLJ6NMH85PJ46SJUKP4Z1V0FD","3QAPZX2QN6J0UVB16DIDZLQ498J02B","model","match","uniform","","","","","","","1030.2999999821186","214288.80000001192","215319.09999999404","[""stimuli/BF06_HE.jpg"",""stimuli/BF04_SC.jpg"",""stimuli/BF05_FO.jpg"",""stimuli/WM11_DO.jpg""]","stimuli/BF06_HE.jpg","stimuli/BF04_SC.jpg","stimuli/BF05_FO.jpg","stimuli/WM11_DO.jpg","pos4","stimuli/WM11_DO.jpg","DO","WM11","3","3","6","6","stimuli/stars_6.png","128.5","[""HE"",""SC"",""FO"",""DO""]","[""BF06"",""BF04"",""BF05"",""WM11""]","[8,3,4,6]","[8,4,2,6]","","",""
"show-reward","94","215563","0.0-94.0","p198253","A2APG8MSLJ6G2K","3087LXLJ6NMH85PJ46SJUKP4Z1V0FD","3QAPZX2QN6J0UVB16DIDZLQ498J02B","model","match","uniform","","","","","","","","215835.59999999404","217849.59999999404","","","","","","","","","","","","6","","stimuli/stars_6.png","128.5","","","","","stimuli/WM11_DO.jpg","",""
"explore-choice","95","217134","0.0-95.0","p198253","A2APG8MSLJ6G2K","3087LXLJ6NMH85PJ46SJUKP4Z1V0FD","3QAPZX2QN6J0UVB16DIDZLQ498J02B","model","match","uniform","","","","","","","1065","217850.19999998808","218915.19999998808","[""stimuli/BF05_HE.jpg"",""stimuli/BF04_FO.jpg"",""stimuli/BF06_SC.jpg"",""stimuli/WM11_DO.jpg""]","stimuli/BF05_HE.jpg","stimuli/BF04_FO.jpg","stimuli/BF06_SC.jpg","stimuli/WM11_DO.jpg","pos3","stimuli/BF06_SC.jpg","SC","BF06","2","4.5","9","8","stimuli/stars_9.png","133","[""HE"",""FO"",""SC"",""DO""]","[""BF05"",""BF04"",""BF06"",""WM11""]","[1,3,9,4]","[2,4,8,6]","","",""
"show-reward","96","219144","0.0-96.0","p198253","A2APG8MSLJ6G2K","3087LXLJ6NMH85PJ46SJUKP4Z1V0FD","3QAPZX2QN6J0UVB16DIDZLQ498J02B","model","match","uniform","","","","","","","","219420.80000001192","221429.90000000596","","","","","","","","","","","","9","","stimuli/stars_9.png","133","","","","","stimuli/BF06_SC.jpg","",""
"explore-choice","97","220501","0.0-97.0","p198253","A2APG8MSLJ6G2K","3087LXLJ6NMH85PJ46SJUKP4Z1V0FD","3QAPZX2QN6J0UVB16DIDZLQ498J02B","model","match","uniform","","","","","","","850","221430.59999999404","222280.59999999404","[""stimuli/BF04_SC.jpg"",""stimuli/WM11_FO.jpg"",""stimuli/BF06_HE.jpg"",""stimuli/BF05_DO.jpg""]","stimuli/BF04_SC.jpg","stimuli/WM11_FO.jpg","stimuli/BF06_HE.jpg","stimuli/BF05_DO.jpg","pos3","stimuli/BF06_HE.jpg","HE","BF06","2","4","8","8","stimuli/stars_8.png","137","[""SC"",""FO"",""HE"",""DO""]","[""BF04"",""WM11"",""BF06"",""BF05""]","[2,7,8,0]","[4,6,8,2]","","",""
"show-reward","98","222511","0.0-98.0","p198253","A2APG8MSLJ6G2K","3087LXLJ6NMH85PJ46SJUKP4Z1V0FD","3QAPZX2QN6J0UVB16DIDZLQ498J02B","model","match","uniform","","","","","","","","222788","224797.59999999404","","","","","","","","","","","","8","","stimuli/stars_8.png","137","","","","","stimuli/BF06_HE.jpg","",""
"explore-choice","99","224380","0.0-99.0","p198253","A2APG8MSLJ6G2K","3087LXLJ6NMH85PJ46SJUKP4Z1V0FD","3QAPZX2QN6J0UVB16DIDZLQ498J02B","model","match","uniform","","","","","","","1365.699999988079","224798.30000001192","226164","[""stimuli/WM11_HE.jpg"",""stimuli/BF06_FO.jpg"",""stimuli/BF04_SC.jpg"",""stimuli/BF05_DO.jpg""]","stimuli/WM11_HE.jpg","stimuli/BF06_FO.jpg","stimuli/BF04_SC.jpg","stimuli/BF05_DO.jpg","pos2","stimuli/BF06_FO.jpg","FO","BF06","1","4.5","9","8","stimuli/stars_9.png","141.5","[""HE"",""FO"",""SC"",""DO""]","[""WM11"",""BF06"",""BF04"",""BF05""]","[4,9,3,1]","[6,8,4,2]","","",""
"show-reward","100","226390","0.0-100.0","p198253","A2APG8MSLJ6G2K","3087LXLJ6NMH85PJ46SJUKP4Z1V0FD","3QAPZX2QN6J0UVB16DIDZLQ498J02B","model","match","uniform","","","","","","","","226666.59999999404","228676","","","","","","","","","","","","9","","stimuli/stars_9.png","141.5","","","","","stimuli/BF06_FO.jpg","",""
"explore-choice","101","227808","0.0-101.0","p198253","A2APG8MSLJ6G2K","3087LXLJ6NMH85PJ46SJUKP4Z1V0FD","3QAPZX2QN6J0UVB16DIDZLQ498J02B","model","match","uniform","","","","","","","911","228676.69999998808","229587.69999998808","[""stimuli/WM11_HE.jpg"",""stimuli/BF05_FO.jpg"",""stimuli/BF04_DO.jpg"",""stimuli/BF06_SC.jpg""]","stimuli/WM11_HE.jpg","stimuli/BF05_FO.jpg","stimuli/BF04_DO.jpg","stimuli/BF06_SC.jpg","pos4","stimuli/BF06_SC.jpg","SC","BF06","3","4","8","8","stimuli/stars_8.png","145.5","[""HE"",""FO"",""DO"",""SC""]","[""WM11"",""BF05"",""BF04"",""BF06""]","[5,1,5,8]","[6,2,4,8]","","",""
"show-reward","102","229821","0.0-102.0","p198253","A2APG8MSLJ6G2K","3087LXLJ6NMH85PJ46SJUKP4Z1V0FD","3QAPZX2QN6J0UVB16DIDZLQ498J02B","model","match","uniform","","","","","","","","230095.30000001192","232107.30000001192","","","","","","","","","","","","8","","stimuli/stars_8.png","145.5","","","","","stimuli/BF06_SC.jpg","",""
"explore-choice","103","233277","0.0-103.0","p198253","A2APG8MSLJ6G2K","3087LXLJ6NMH85PJ46SJUKP4Z1V0FD","3QAPZX2QN6J0UVB16DIDZLQ498J02B","model","match","uniform","","","","","","","2946","232107.90000000596","235053.90000000596","[""stimuli/BF08_HO.jpg"",""stimuli/AM05_SUR.jpg"",""stimuli/HF04_AO.jpg"",""stimuli/HF09_CC.jpg""]","stimuli/BF08_HO.jpg","stimuli/AM05_SUR.jpg","stimuli/HF04_AO.jpg","stimuli/HF09_CC.jpg","pos2","stimuli/AM05_SUR.jpg","SUR","AM05","1","2.5","5","4","stimuli/stars_5.png","148","[""HO"",""SUR"",""AO"",""CC""]","[""BF08"",""AM05"",""HF04"",""HF09""]","[0,5,6,8]","[2,4,6,8]","","",""
"show-reward","104","235288","0.0-104.0","p198253","A2APG8MSLJ6G2K","3087LXLJ6NMH85PJ46SJUKP4Z1V0FD","3QAPZX2QN6J0UVB16DIDZLQ498J02B","model","match","uniform","","","","","","","","235563.90000000596","237574.30000001192","","","","","","","","","","","","5","","stimuli/stars_5.png","148","","","","","stimuli/AM05_SUR.jpg","",""
"explore-choice","105","236832","0.0-105.0","p198253","A2APG8MSLJ6G2K","3087LXLJ6NMH85PJ46SJUKP4Z1V0FD","3QAPZX2QN6J0UVB16DIDZLQ498J02B","model","match","uniform","","","","","","","1039.9000000059605","237575.09999999404","238615","[""stimuli/HF09_HO.jpg"",""stimuli/HF04_CC.jpg"",""stimuli/AM05_AO.jpg"",""stimuli/BF08_SUR.jpg""]","stimuli/HF09_HO.jpg","stimuli/HF04_CC.jpg","stimuli/AM05_AO.jpg","stimuli/BF08_SUR.jpg","pos1","stimuli/HF09_HO.jpg","HO","HF09","0","5","10","8","stimuli/stars_10.png","153","[""HO"",""CC"",""AO"",""SUR""]","[""HF09"",""HF04"",""AM05"",""BF08""]","[10,4,5,2]","[8,6,4,2]","","",""
"show-reward","106","238843","0.0-106.0","p198253","A2APG8MSLJ6G2K","3087LXLJ6NMH85PJ46SJUKP4Z1V0FD","3QAPZX2QN6J0UVB16DIDZLQ498J02B","model","match","uniform","","","","","","","","239119.19999998808","241129.09999999404","","","","","","","","","","","","10","","stimuli/stars_10.png","153","","","","","stimuli/HF09_HO.jpg","",""
"explore-choice","107","240509","0.0-107.0","p198253","A2APG8MSLJ6G2K","3087LXLJ6NMH85PJ46SJUKP4Z1V0FD","3QAPZX2QN6J0UVB16DIDZLQ498J02B","model","match","uniform","","","","","","","1163.5","241129.69999998808","242293.19999998808","[""stimuli/AM05_AO.jpg"",""stimuli/BF08_CC.jpg"",""stimuli/HF09_SUR.jpg"",""stimuli/HF04_HO.jpg""]","stimuli/AM05_AO.jpg","stimuli/BF08_CC.jpg","stimuli/HF09_SUR.jpg","stimuli/HF04_HO.jpg","pos3","stimuli/HF09_SUR.jpg","SUR","HF09","2","5","10","8","stimuli/stars_10.png","158","[""AO"",""CC"",""SUR"",""HO""]","[""AM05"",""BF08"",""HF09"",""HF04""]","[3,2,10,4]","[4,2,8,6]","","",""
"show-reward","108","242523","0.0-108.0","p198253","A2APG8MSLJ6G2K","3087LXLJ6NMH85PJ46SJUKP4Z1V0FD","3QAPZX2QN6J0UVB16DIDZLQ498J02B","model","match","uniform","","","","","","","","242796.30000001192","244808.90000000596","","","","","","","","","","","","10","","stimuli/stars_10.png","158","","","","","stimuli/HF09_SUR.jpg","",""
"explore-choice","109","244203","0.0-109.0","p198253","A2APG8MSLJ6G2K","3087LXLJ6NMH85PJ46SJUKP4Z1V0FD","3QAPZX2QN6J0UVB16DIDZLQ498J02B","model","match","uniform","","","","","","","1174.2000000178814","244809.59999999404","245983.80000001192","[""stimuli/HF09_HO.jpg"",""stimuli/HF04_SUR.jpg"",""stimuli/AM05_AO.jpg"",""stimuli/BF08_CC.jpg""]","stimuli/HF09_HO.jpg","stimuli/HF04_SUR.jpg","stimuli/AM05_AO.jpg","stimuli/BF08_CC.jpg","pos1","stimuli/HF09_HO.jpg","HO","HF09","0","4","8","8","stimuli/stars_8.png","162","[""HO"",""SUR"",""AO"",""CC""]","[""HF09"",""HF04"",""AM05"",""BF08""]","[8,8,3,2]","[8,6,4,2]","","",""
"show-reward","110","246209","0.0-110.0","p198253","A2APG8MSLJ6G2K","3087LXLJ6NMH85PJ46SJUKP4Z1V0FD","3QAPZX2QN6J0UVB16DIDZLQ498J02B","model","match","uniform","","","","","","","","246489.80000001192","248495.19999998808","","","","","","","","","","","","8","","stimuli/stars_8.png","162","","","","","stimuli/HF09_HO.jpg","",""
"explore-choice","111","248000","0.0-111.0","p198253","A2APG8MSLJ6G2K","3087LXLJ6NMH85PJ46SJUKP4Z1V0FD","3QAPZX2QN6J0UVB16DIDZLQ498J02B","model","match","uniform","","","","","","","1284","248496","249780","[""stimuli/BF08_CC.jpg"",""stimuli/HF09_AO.jpg"",""stimuli/AM05_SUR.jpg"",""stimuli/HF04_HO.jpg""]","stimuli/BF08_CC.jpg","stimuli/HF09_AO.jpg","stimuli/AM05_SUR.jpg","stimuli/HF04_HO.jpg","pos2","stimuli/HF09_AO.jpg","AO","HF09","1","4","8","8","stimuli/stars_8.png","166","[""CC"",""AO"",""SUR"",""HO""]","[""BF08"",""HF09"",""AM05"",""HF04""]","[4,8,6,7]","[2,8,4,6]","","",""
"show-reward","112","250006","0.0-112.0","p198253","A2APG8MSLJ6G2K","3087LXLJ6NMH85PJ46SJUKP4Z1V0FD","3QAPZX2QN6J0UVB16DIDZLQ498J02B","model","match","uniform","","","","","","","","250286.5","252292.5","","","","","","","","","","","","8","","stimuli/stars_8.png","166","","","","","stimuli/HF09_AO.jpg","",""
"explore-choice","113","251346","0.0-113.0","p198253","A2APG8MSLJ6G2K","3087LXLJ6NMH85PJ46SJUKP4Z1V0FD","3QAPZX2QN6J0UVB16DIDZLQ498J02B","model","match","uniform","","","","","","","836.2000000178814","252293.19999998808","253129.40000000596","[""stimuli/HF04_AO.jpg"",""stimuli/HF09_SUR.jpg"",""stimuli/BF08_CC.jpg"",""stimuli/AM05_HO.jpg""]","stimuli/HF04_AO.jpg","stimuli/HF09_SUR.jpg","stimuli/BF08_CC.jpg","stimuli/AM05_HO.jpg","pos2","stimuli/HF09_SUR.jpg","SUR","HF09","1","5","10","8","stimuli/stars_10.png","171","[""AO"",""SUR"",""CC"",""HO""]","[""HF04"",""HF09"",""BF08"",""AM05""]","[4,10,3,3]","[6,8,2,4]","","",""
"show-reward","114","253356","0.0-114.0","p198253","A2APG8MSLJ6G2K","3087LXLJ6NMH85PJ46SJUKP4Z1V0FD","3QAPZX2QN6J0UVB16DIDZLQ498J02B","model","match","uniform","","","","","","","","253633.30000001192","255642","","","","","","","","","","","","10","","stimuli/stars_10.png","171","","","","","stimuli/HF09_SUR.jpg","",""
"explore-choice","115","254959","0.0-115.0","p198253","A2APG8MSLJ6G2K","3087LXLJ6NMH85PJ46SJUKP4Z1V0FD","3QAPZX2QN6J0UVB16DIDZLQ498J02B","model","match","uniform","","","","","","","1093.1000000238419","255642.69999998808","256735.80000001192","[""stimuli/HF04_CC.jpg"",""stimuli/BF08_SUR.jpg"",""stimuli/AM05_HO.jpg"",""stimuli/HF09_AO.jpg""]","stimuli/HF04_CC.jpg","stimuli/BF08_SUR.jpg","stimuli/AM05_HO.jpg","stimuli/HF09_AO.jpg","pos4","stimuli/HF09_AO.jpg","AO","HF09","3","5","10","8","stimuli/stars_10.png","176","[""CC"",""SUR"",""HO"",""AO""]","[""HF04"",""BF08"",""AM05"",""HF09""]","[6,4,6,10]","[6,2,4,8]","","",""
"show-reward","116","256972","0.0-116.0","p198253","A2APG8MSLJ6G2K","3087LXLJ6NMH85PJ46SJUKP4Z1V0FD","3QAPZX2QN6J0UVB16DIDZLQ498J02B","model","match","uniform","","","","","","","","257245.80000001192","259257.90000000596","","","","","","","","","","","","10","","stimuli/stars_10.png","176","","","","","stimuli/HF09_AO.jpg","",""
"explore-choice","117","258391","0.0-117.0","p198253","A2APG8MSLJ6G2K","3087LXLJ6NMH85PJ46SJUKP4Z1V0FD","3QAPZX2QN6J0UVB16DIDZLQ498J02B","model","match","uniform","","","","","","","914.7000000178814","259258.59999999404","260173.30000001192","[""stimuli/HF04_SUR.jpg"",""stimuli/HF09_CC.jpg"",""stimuli/AM05_AO.jpg"",""stimuli/BF08_HO.jpg""]","stimuli/HF04_SUR.jpg","stimuli/HF09_CC.jpg","stimuli/AM05_AO.jpg","stimuli/BF08_HO.jpg","pos2","stimuli/HF09_CC.jpg","CC","HF09","1","3","6","8","stimuli/stars_6.png","179","[""SUR"",""CC"",""AO"",""HO""]","[""HF04"",""HF09"",""AM05"",""BF08""]","[4,6,2,0]","[6,8,4,2]","","",""
"show-reward","118","260402","0.0-118.0","p198253","A2APG8MSLJ6G2K","3087LXLJ6NMH85PJ46SJUKP4Z1V0FD","3QAPZX2QN6J0UVB16DIDZLQ498J02B","model","match","uniform","","","","","","","","260678.09999999404","262687.90000000596","","","","","","","","","","","","6","","stimuli/stars_6.png","179","","","","","stimuli/HF09_CC.jpg","",""
"explore-choice","119","262289","0.0-119.0","p198253","A2APG8MSLJ6G2K","3087LXLJ6NMH85PJ46SJUKP4Z1V0FD","3QAPZX2QN6J0UVB16DIDZLQ498J02B","model","match","uniform","","","","","","","1382.0999999940395","262688.59999999404","264070.6999999881","[""stimuli/HF04_SUR.jpg"",""stimuli/AM05_CC.jpg"",""stimuli/HF09_HO.jpg"",""stimuli/BF08_AO.jpg""]","stimuli/HF04_SUR.jpg","stimuli/AM05_CC.jpg","stimuli/HF09_HO.jpg","stimuli/BF08_AO.jpg","pos3","stimuli/HF09_HO.jpg","HO","HF09","2","3","6","8","stimuli/stars_6.png","182","[""SUR"",""CC"",""HO"",""AO""]","[""HF04"",""AM05"",""HF09"",""BF08""]","[7,3,6,1]","[6,4,8,2]","","",""
"show-reward","120","264299","0.0-120.0","p198253","A2APG8MSLJ6G2K","3087LXLJ6NMH85PJ46SJUKP4Z1V0FD","3QAPZX2QN6J0UVB16DIDZLQ498J02B","model","match","uniform","","","","","","","","264575.8000000119","266584.8000000119","","","","","","","","","","","","6","","stimuli/stars_6.png","182","","","","","stimuli/HF09_HO.jpg","",""
"explore-choice","121","266259","0.0-121.0","p198253","A2APG8MSLJ6G2K","3087LXLJ6NMH85PJ46SJUKP4Z1V0FD","3QAPZX2QN6J0UVB16DIDZLQ498J02B","model","match","uniform","","","","","","","1456.4000000059605","266585.5","268041.90000000596","[""stimuli/AM05_AO.jpg"",""stimuli/HF04_CC.jpg"",""stimuli/BF08_HO.jpg"",""stimuli/HF09_SUR.jpg""]","stimuli/AM05_AO.jpg","stimuli/HF04_CC.jpg","stimuli/BF08_HO.jpg","stimuli/HF09_SUR.jpg","pos2","stimuli/HF04_CC.jpg","CC","HF04","1","3","6","6","stimuli/stars_6.png","185","[""AO"",""CC"",""HO"",""SUR""]","[""AM05"",""HF04"",""BF08"",""HF09""]","[4,6,4,9]","[4,6,2,8]","","",""
"show-reward","122","268275","0.0-122.0","p198253","A2APG8MSLJ6G2K","3087LXLJ6NMH85PJ46SJUKP4Z1V0FD","3QAPZX2QN6J0UVB16DIDZLQ498J02B","model","match","uniform","","","","","","","","268546.3000000119","270561.40000000596","","","","","","","","","","","","6","","stimuli/stars_6.png","185","","","","","stimuli/HF04_CC.jpg","",""
"explore-choice","123","269847","0.0-123.0","p198253","A2APG8MSLJ6G2K","3087LXLJ6NMH85PJ46SJUKP4Z1V0FD","3QAPZX2QN6J0UVB16DIDZLQ498J02B","model","match","uniform","","","","","","","1065.300000011921","270562","271627.3000000119","[""stimuli/HF09_HO.jpg"",""stimuli/HF04_CC.jpg"",""stimuli/BF08_AO.jpg"",""stimuli/AM05_SUR.jpg""]","stimuli/HF09_HO.jpg","stimuli/HF04_CC.jpg","stimuli/BF08_AO.jpg","stimuli/AM05_SUR.jpg","pos1","stimuli/HF09_HO.jpg","HO","HF09","0","3.5","7","8","stimuli/stars_7.png","188.5","[""HO"",""CC"",""AO"",""SUR""]","[""HF09"",""HF04"",""BF08"",""AM05""]","[7,8,0,6]","[8,6,2,4]","","",""
"show-reward","124","271857","0.0-124.0","p198253","A2APG8MSLJ6G2K","3087LXLJ6NMH85PJ46SJUKP4Z1V0FD","3QAPZX2QN6J0UVB16DIDZLQ498J02B","model","match","uniform","","","","","","","","272133.5","274143.1999999881","","","","","","","","","","","","7","","stimuli/stars_7.png","188.5","","","","","stimuli/HF09_HO.jpg","",""
"explore-choice","125","274864","0.0-125.0","p198253","A2APG8MSLJ6G2K","3087LXLJ6NMH85PJ46SJUKP4Z1V0FD","3QAPZX2QN6J0UVB16DIDZLQ498J02B","model","match","uniform","","","","","","","2499.800000011921","274144.09999999404","276643.90000000596","[""stimuli/BF08_HO.jpg"",""stimuli/AM05_CC.jpg"",""stimuli/HF09_SUR.jpg"",""stimuli/HF04_AO.jpg""]","stimuli/BF08_HO.jpg","stimuli/AM05_CC.jpg","stimuli/HF09_SUR.jpg","stimuli/HF04_AO.jpg","pos1","stimuli/BF08_HO.jpg","HO","BF08","0","0.5","1","2","stimuli/stars_1.png","189","[""HO"",""CC"",""SUR"",""AO""]","[""BF08"",""AM05"",""HF09"",""HF04""]","[1,3,10,4]","[2,4,8,6]","","",""
"show-reward","126","276873","0.0-126.0","p198253","A2APG8MSLJ6G2K","3087LXLJ6NMH85PJ46SJUKP4Z1V0FD","3QAPZX2QN6J0UVB16DIDZLQ498J02B","model","match","uniform","","","","","","","","277151.1999999881","279159.5","","","","","","","","","","","","1","","stimuli/stars_1.png","189","","","","","stimuli/BF08_HO.jpg","",""
"explore-choice","127","278405","0.0-127.0","p198253","A2APG8MSLJ6G2K","3087LXLJ6NMH85PJ46SJUKP4Z1V0FD","3QAPZX2QN6J0UVB16DIDZLQ498J02B","model","match","uniform","","","","","","","1017","279160.3000000119","280177.3000000119","[""stimuli/HF04_SUR.jpg"",""stimuli/BF08_CC.jpg"",""stimuli/HF09_AO.jpg"",""stimuli/AM05_HO.jpg""]","stimuli/HF04_SUR.jpg","stimuli/BF08_CC.jpg","stimuli/HF09_AO.jpg","stimuli/AM05_HO.jpg","pos3","stimuli/HF09_AO.jpg","AO","HF09","2","3","6","8","stimuli/stars_6.png","192","[""SUR"",""CC"",""AO"",""HO""]","[""HF04"",""BF08"",""HF09"",""AM05""]","[6,3,6,2]","[6,2,8,4]","","",""
"show-reward","128","280417","0.0-128.0","p198253","A2APG8MSLJ6G2K","3087LXLJ6NMH85PJ46SJUKP4Z1V0FD","3QAPZX2QN6J0UVB16DIDZLQ498J02B","model","match","uniform","","","","","","","","280691.90000000596","282703.3000000119","","","","","","","","","","","","6","","stimuli/stars_6.png","192","","","","","stimuli/HF09_AO.jpg","",""
"explore-choice","129","282034","0.0-129.0","p198253","A2APG8MSLJ6G2K","3087LXLJ6NMH85PJ46SJUKP4Z1V0FD","3QAPZX2QN6J0UVB16DIDZLQ498J02B","model","match","uniform","","","","","","","1102.7000000178814","282703.6999999881","283806.40000000596","[""stimuli/HF04_SUR.jpg"",""stimuli/HF09_AO.jpg"",""stimuli/BF08_HO.jpg"",""stimuli/AM05_CC.jpg""]","stimuli/HF04_SUR.jpg","stimuli/HF09_AO.jpg","stimuli/BF08_HO.jpg","stimuli/AM05_CC.jpg","pos2","stimuli/HF09_AO.jpg","AO","HF09","1","5","10","8","stimuli/stars_10.png","197","[""SUR"",""AO"",""HO"",""CC""]","[""HF04"",""HF09"",""BF08"",""AM05""]","[8,10,2,4]","[6,8,2,4]","","",""
"show-reward","130","284044","0.0-130.0","p198253","A2APG8MSLJ6G2K","3087LXLJ6NMH85PJ46SJUKP4Z1V0FD","3QAPZX2QN6J0UVB16DIDZLQ498J02B","model","match","uniform","","","","","","","","284321.40000000596","286329.6999999881","","","","","","","","","","","","10","","stimuli/stars_10.png","197","","","","","stimuli/HF09_AO.jpg","",""
"explore-choice","131","286519","0.0-131.0","p198253","A2APG8MSLJ6G2K","3087LXLJ6NMH85PJ46SJUKP4Z1V0FD","3QAPZX2QN6J0UVB16DIDZLQ498J02B","model","match","uniform","","","","","","","1971.5","286330.5","288302","[""stimuli/BF08_HO.jpg"",""stimuli/HF09_AO.jpg"",""stimuli/AM05_SUR.jpg"",""stimuli/HF04_CC.jpg""]","stimuli/BF08_HO.jpg","stimuli/HF09_AO.jpg","stimuli/AM05_SUR.jpg","stimuli/HF04_CC.jpg","pos2","stimuli/HF09_AO.jpg","AO","HF09","1","4","8","8","stimuli/stars_8.png","201","[""HO"",""AO"",""SUR"",""CC""]","[""BF08"",""HF09"",""AM05"",""HF04""]","[0,8,3,7]","[2,8,4,6]","","",""
"show-reward","132","288530","0.0-132.0","p198253","A2APG8MSLJ6G2K","3087LXLJ6NMH85PJ46SJUKP4Z1V0FD","3QAPZX2QN6J0UVB16DIDZLQ498J02B","model","match","uniform","","","","","","","","288805.5","290815.90000000596","","","","","","","","","","","","8","","stimuli/stars_8.png","201","","","","","stimuli/HF09_AO.jpg","",""
"explore-choice","133","290181","0.0-133.0","p198253","A2APG8MSLJ6G2K","3087LXLJ6NMH85PJ46SJUKP4Z1V0FD","3QAPZX2QN6J0UVB16DIDZLQ498J02B","model","match","uniform","","","","","","","1143.4000000059605","290816.59999999404","291960","[""stimuli/AM05_SUR.jpg"",""stimuli/BF08_AO.jpg"",""stimuli/HF09_CC.jpg"",""stimuli/HF04_HO.jpg""]","stimuli/AM05_SUR.jpg","stimuli/BF08_AO.jpg","stimuli/HF09_CC.jpg","stimuli/HF04_HO.jpg","pos3","stimuli/HF09_CC.jpg","CC","HF09","2","4","8","8","stimuli/stars_8.png","205","[""SUR"",""AO"",""CC"",""HO""]","[""AM05"",""BF08"",""HF09"",""HF04""]","[2,4,8,5]","[4,2,8,6]","","",""
"show-reward","134","292194","0.0-134.0","p198253","A2APG8MSLJ6G2K","3087LXLJ6NMH85PJ46SJUKP4Z1V0FD","3QAPZX2QN6J0UVB16DIDZLQ498J02B","model","match","uniform","","","","","","","","292468","294480.40000000596","","","","","","","","","","","","8","","stimuli/stars_8.png","205","","","","","stimuli/HF09_CC.jpg","",""
"explore-choice","135","293660","0.0-135.0","p198253","A2APG8MSLJ6G2K","3087LXLJ6NMH85PJ46SJUKP4Z1V0FD","3QAPZX2QN6J0UVB16DIDZLQ498J02B","model","match","uniform","","","","","","","953.9000000059605","294481.1999999881","295435.09999999404","[""stimuli/AM05_HO.jpg"",""stimuli/HF04_AO.jpg"",""stimuli/HF09_CC.jpg"",""stimuli/BF08_SUR.jpg""]","stimuli/AM05_HO.jpg","stimuli/HF04_AO.jpg","stimuli/HF09_CC.jpg","stimuli/BF08_SUR.jpg","pos3","stimuli/HF09_CC.jpg","CC","HF09","2","4.5","9","8","stimuli/stars_9.png","209.5","[""HO"",""AO"",""CC"",""SUR""]","[""AM05"",""HF04"",""HF09"",""BF08""]","[3,5,9,0]","[4,6,8,2]","","",""
"show-reward","136","295671","0.0-136.0","p198253","A2APG8MSLJ6G2K","3087LXLJ6NMH85PJ46SJUKP4Z1V0FD","3QAPZX2QN6J0UVB16DIDZLQ498J02B","model","match","uniform","","","","","","","","295946.90000000596","297957","","","","","","","","","","","","9","","stimuli/stars_9.png","209.5","","","","","stimuli/HF09_CC.jpg","",""
"explore-choice","137","297274","0.0-137.0","p198253","A2APG8MSLJ6G2K","3087LXLJ6NMH85PJ46SJUKP4Z1V0FD","3QAPZX2QN6J0UVB16DIDZLQ498J02B","model","match","uniform","","","","","","","1096","297957.5","299053.5","[""stimuli/HF04_SUR.jpg"",""stimuli/HF09_CC.jpg"",""stimuli/BF08_AO.jpg"",""stimuli/AM05_HO.jpg""]","stimuli/HF04_SUR.jpg","stimuli/HF09_CC.jpg","stimuli/BF08_AO.jpg","stimuli/AM05_HO.jpg","pos2","stimuli/HF09_CC.jpg","CC","HF09","1","5","10","8","stimuli/stars_10.png","214.5","[""SUR"",""CC"",""AO"",""HO""]","[""HF04"",""HF09"",""BF08"",""AM05""]","[8,10,2,5]","[6,8,2,4]","","",""
"show-reward","138","299284","0.0-138.0","p198253","A2APG8MSLJ6G2K","3087LXLJ6NMH85PJ46SJUKP4Z1V0FD","3QAPZX2QN6J0UVB16DIDZLQ498J02B","model","match","uniform","","","","","","","","299560.6999999881","301570.40000000596","","","","","","","","","","","","10","","stimuli/stars_10.png","214.5","","","","","stimuli/HF09_CC.jpg","",""
"explore-choice","139","300796","0.0-139.0","p198253","A2APG8MSLJ6G2K","3087LXLJ6NMH85PJ46SJUKP4Z1V0FD","3QAPZX2QN6J0UVB16DIDZLQ498J02B","model","match","uniform","","","","","","","1002.8000000119209","301571","302573.8000000119","[""stimuli/AM05_SUR.jpg"",""stimuli/HF04_AO.jpg"",""stimuli/BF08_CC.jpg"",""stimuli/HF09_HO.jpg""]","stimuli/AM05_SUR.jpg","stimuli/HF04_AO.jpg","stimuli/BF08_CC.jpg","stimuli/HF09_HO.jpg","pos4","stimuli/HF09_HO.jpg","HO","HF09","3","4","8","8","stimuli/stars_8.png","218.5","[""SUR"",""AO"",""CC"",""HO""]","[""AM05"",""HF04"",""BF08"",""HF09""]","[5,6,3,8]","[4,6,2,8]","","",""
"show-reward","140","302805","0.0-140.0","p198253","A2APG8MSLJ6G2K","3087LXLJ6NMH85PJ46SJUKP4Z1V0FD","3QAPZX2QN6J0UVB16DIDZLQ498J02B","model","match","uniform","","","","","","","","303082.40000000596","305091.59999999404","","","","","","","","","","","","8","","stimuli/stars_8.png","218.5","","","","","stimuli/HF09_HO.jpg","",""
"explore-choice","141","304267","0.0-141.0","p198253","A2APG8MSLJ6G2K","3087LXLJ6NMH85PJ46SJUKP4Z1V0FD","3QAPZX2QN6J0UVB16DIDZLQ498J02B","model","match","uniform","","","","","","","948.3999999761581","305092.3000000119","306040.6999999881","[""stimuli/AM05_CC.jpg"",""stimuli/BF08_SUR.jpg"",""stimuli/HF09_HO.jpg"",""stimuli/HF04_AO.jpg""]","stimuli/AM05_CC.jpg","stimuli/BF08_SUR.jpg","stimuli/HF09_HO.jpg","stimuli/HF04_AO.jpg","pos3","stimuli/HF09_HO.jpg","HO","HF09","2","4.5","9","8","stimuli/stars_9.png","223","[""CC"",""SUR"",""HO"",""AO""]","[""AM05"",""BF08"",""HF09"",""HF04""]","[4,4,9,8]","[4,2,8,6]","","",""
"show-reward","142","306275","0.0-142.0","p198253","A2APG8MSLJ6G2K","3087LXLJ6NMH85PJ46SJUKP4Z1V0FD","3QAPZX2QN6J0UVB16DIDZLQ498J02B","model","match","uniform","","","","","","","","306553.6999999881","308561.3000000119","","","","","","","","","","","","9","","stimuli/stars_9.png","223","","","","","stimuli/HF09_HO.jpg","",""
"explore-choice","143","307984","0.0-143.0","p198253","A2APG8MSLJ6G2K","3087LXLJ6NMH85PJ46SJUKP4Z1V0FD","3QAPZX2QN6J0UVB16DIDZLQ498J02B","model","match","uniform","","","","","","","1198.7000000178814","308562.09999999404","309760.8000000119","[""stimuli/HF09_CC.jpg"",""stimuli/BF08_SUR.jpg"",""stimuli/AM05_AO.jpg"",""stimuli/HF04_HO.jpg""]","stimuli/HF09_CC.jpg","stimuli/BF08_SUR.jpg","stimuli/AM05_AO.jpg","stimuli/HF04_HO.jpg","pos1","stimuli/HF09_CC.jpg","CC","HF09","0","5","10","8","stimuli/stars_10.png","228","[""CC"",""SUR"",""AO"",""HO""]","[""HF09"",""BF08"",""AM05"",""HF04""]","[10,2,2,8]","[8,2,4,6]","","",""
"show-reward","144","309996","0.0-144.0","p198253","A2APG8MSLJ6G2K","3087LXLJ6NMH85PJ46SJUKP4Z1V0FD","3QAPZX2QN6J0UVB16DIDZLQ498J02B","model","match","uniform","","","","","","","","310270.6999999881","312282.5","","","","","","","","","","","","10","","stimuli/stars_10.png","228","","","","","stimuli/HF09_CC.jpg","",""
"explore-choice","145","311322","0.0-145.0","p198253","A2APG8MSLJ6G2K","3087LXLJ6NMH85PJ46SJUKP4Z1V0FD","3QAPZX2QN6J0UVB16DIDZLQ498J02B","model","match","uniform","","","","","","","821.1999999880791","312283.3000000119","313104.5","[""stimuli/HF09_SUR.jpg"",""stimuli/HF04_CC.jpg"",""stimuli/BF08_AO.jpg"",""stimuli/AM05_HO.jpg""]","stimuli/HF09_SUR.jpg","stimuli/HF04_CC.jpg","stimuli/BF08_AO.jpg","stimuli/AM05_HO.jpg","pos1","stimuli/HF09_SUR.jpg","SUR","HF09","0","4.5","9","8","stimuli/stars_9.png","232.5","[""SUR"",""CC"",""AO"",""HO""]","[""HF09"",""HF04"",""BF08"",""AM05""]","[9,6,2,4]","[8,6,2,4]","","",""
"show-reward","146","313328","0.0-146.0","p198253","A2APG8MSLJ6G2K","3087LXLJ6NMH85PJ46SJUKP4Z1V0FD","3QAPZX2QN6J0UVB16DIDZLQ498J02B","model","match","uniform","","","","","","","","313608.90000000596","315614.1999999881","","","","","","","","","","","","9","","stimuli/stars_9.png","232.5","","","","","stimuli/HF09_SUR.jpg","",""
"explore-choice","147","314853","0.0-147.0","p198253","A2APG8MSLJ6G2K","3087LXLJ6NMH85PJ46SJUKP4Z1V0FD","3QAPZX2QN6J0UVB16DIDZLQ498J02B","model","match","uniform","","","","","","","1022.0999999940395","315614.8000000119","316636.90000000596","[""stimuli/HF04_HO.jpg"",""stimuli/BF08_AO.jpg"",""stimuli/AM05_CC.jpg"",""stimuli/HF09_SUR.jpg""]","stimuli/HF04_HO.jpg","stimuli/BF08_AO.jpg","stimuli/AM05_CC.jpg","stimuli/HF09_SUR.jpg","pos4","stimuli/HF09_SUR.jpg","SUR","HF09","3","4","8","8","stimuli/stars_8.png","236.5","[""HO"",""AO"",""CC"",""SUR""]","[""HF04"",""BF08"",""AM05"",""HF09""]","[4,3,6,8]","[6,2,4,8]","","",""
"show-reward","148","316866","0.0-148.0","p198253","A2APG8MSLJ6G2K","3087LXLJ6NMH85PJ46SJUKP4Z1V0FD","3QAPZX2QN6J0UVB16DIDZLQ498J02B","model","match","uniform","","","","","","","","317139.59999999404","319152.3000000119","","","","","","","","","","","","8","","stimuli/stars_8.png","236.5","","","","","stimuli/HF09_SUR.jpg","",""
"explore-choice","149","318342","0.0-149.0","p198253","A2APG8MSLJ6G2K","3087LXLJ6NMH85PJ46SJUKP4Z1V0FD","3QAPZX2QN6J0UVB16DIDZLQ498J02B","model","match","uniform","","","","","","","964","319153","320117","[""stimuli/HF04_HO.jpg"",""stimuli/AM05_CC.jpg"",""stimuli/HF09_AO.jpg"",""stimuli/BF08_SUR.jpg""]","stimuli/HF04_HO.jpg","stimuli/AM05_CC.jpg","stimuli/HF09_AO.jpg","stimuli/BF08_SUR.jpg","pos3","stimuli/HF09_AO.jpg","AO","HF09","2","4","8","8","stimuli/stars_8.png","240.5","[""HO"",""CC"",""AO"",""SUR""]","[""HF04"",""AM05"",""HF09"",""BF08""]","[7,3,8,3]","[6,4,8,2]","","",""
"show-reward","150","320354","0.0-150.0","p198253","A2APG8MSLJ6G2K","3087LXLJ6NMH85PJ46SJUKP4Z1V0FD","3QAPZX2QN6J0UVB16DIDZLQ498J02B","model","match","uniform","","","","","","","","320628.8000000119","322640.59999999404","","","","","","","","","","","","8","","stimuli/stars_8.png","240.5","","","","","stimuli/HF09_AO.jpg","",""
"explore-choice","151","321743","0.0-151.0","p198253","A2APG8MSLJ6G2K","3087LXLJ6NMH85PJ46SJUKP4Z1V0FD","3QAPZX2QN6J0UVB16DIDZLQ498J02B","model","match","uniform","","","","","","","876.0999999940395","322641.3000000119","323517.40000000596","[""stimuli/AM05_SUR.jpg"",""stimuli/HF04_AO.jpg"",""stimuli/HF09_HO.jpg"",""stimuli/BF08_CC.jpg""]","stimuli/AM05_SUR.jpg","stimuli/HF04_AO.jpg","stimuli/HF09_HO.jpg","stimuli/BF08_CC.jpg","pos3","stimuli/HF09_HO.jpg","HO","HF09","2","4","8","8","stimuli/stars_8.png","244.5","[""SUR"",""AO"",""HO"",""CC""]","[""AM05"",""HF04"",""HF09"",""BF08""]","[5,6,8,3]","[4,6,8,2]","","",""
"show-reward","152","323759","0.0-152.0","p198253","A2APG8MSLJ6G2K","3087LXLJ6NMH85PJ46SJUKP4Z1V0FD","3QAPZX2QN6J0UVB16DIDZLQ498J02B","model","match","uniform","","","","","","","","324029.8000000119","326044.6999999881","","","","","","","","","","","","8","","stimuli/stars_8.png","244.5","","","","","stimuli/HF09_HO.jpg","",""
"explore-choice","153","324972","0.0-153.0","p198253","A2APG8MSLJ6G2K","3087LXLJ6NMH85PJ46SJUKP4Z1V0FD","3QAPZX2QN6J0UVB16DIDZLQ498J02B","model","match","uniform","","","","","","","705","326045.5","326750.5","[""stimuli/AM05_SUR.jpg"",""stimuli/BF08_AO.jpg"",""stimuli/HF09_HO.jpg"",""stimuli/HF04_CC.jpg""]","stimuli/AM05_SUR.jpg","stimuli/BF08_AO.jpg","stimuli/HF09_HO.jpg","stimuli/HF04_CC.jpg","pos3","stimuli/HF09_HO.jpg","HO","HF09","2","3.5","7","8","stimuli/stars_7.png","248","[""SUR"",""AO"",""HO"",""CC""]","[""AM05"",""BF08"",""HF09"",""HF04""]","[6,0,7,8]","[4,2,8,6]","","",""
"show-reward","154","326987","0.0-154.0","p198253","A2APG8MSLJ6G2K","3087LXLJ6NMH85PJ46SJUKP4Z1V0FD","3QAPZX2QN6J0UVB16DIDZLQ498J02B","model","match","uniform","","","","","","","","327259","329273.1999999881","","","","","","","","","","","","7","","stimuli/stars_7.png","248","","","","","stimuli/HF09_HO.jpg","",""
"explore-choice","155","328498","0.0-155.0","p198253","A2APG8MSLJ6G2K","3087LXLJ6NMH85PJ46SJUKP4Z1V0FD","3QAPZX2QN6J0UVB16DIDZLQ498J02B","model","match","uniform","","","","","","","1001.1999999880791","329274","330275.1999999881","[""stimuli/HF09_SUR.jpg"",""stimuli/BF08_HO.jpg"",""stimuli/AM05_AO.jpg"",""stimuli/HF04_CC.jpg""]","stimuli/HF09_SUR.jpg","stimuli/BF08_HO.jpg","stimuli/AM05_AO.jpg","stimuli/HF04_CC.jpg","pos1","stimuli/HF09_SUR.jpg","SUR","HF09","0","4.5","9","8","stimuli/stars_9.png","252.5","[""SUR"",""HO"",""AO"",""CC""]","[""HF09"",""BF08"",""AM05"",""HF04""]","[9,4,4,6]","[8,2,4,6]","","",""
"show-reward","156","330507","0.0-156.0","p198253","A2APG8MSLJ6G2K","3087LXLJ6NMH85PJ46SJUKP4Z1V0FD","3QAPZX2QN6J0UVB16DIDZLQ498J02B","model","match","uniform","","","","","","","","330784.8000000119","332793.59999999404","","","","","","","","","","","","9","","stimuli/stars_9.png","252.5","","","","","stimuli/HF09_SUR.jpg","",""
"explore-choice","157","331754","0.0-157.0","p198253","A2APG8MSLJ6G2K","3087LXLJ6NMH85PJ46SJUKP4Z1V0FD","3QAPZX2QN6J0UVB16DIDZLQ498J02B","model","match","uniform","","","","","","","743.2000000178814","332794.1999999881","333537.40000000596","[""stimuli/HF04_CC.jpg"",""stimuli/AM05_AO.jpg"",""stimuli/BF08_SUR.jpg"",""stimuli/HF09_HO.jpg""]","stimuli/HF04_CC.jpg","stimuli/AM05_AO.jpg","stimuli/BF08_SUR.jpg","stimuli/HF09_HO.jpg","pos4","stimuli/HF09_HO.jpg","HO","HF09","3","5","10","8","stimuli/stars_10.png","257.5","[""CC"",""AO"",""SUR"",""HO""]","[""HF04"",""AM05"",""BF08"",""HF09""]","[4,5,2,10]","[6,4,2,8]","","",""
"show-reward","158","333764","0.0-158.0","p198253","A2APG8MSLJ6G2K","3087LXLJ6NMH85PJ46SJUKP4Z1V0FD","3QAPZX2QN6J0UVB16DIDZLQ498J02B","model","match","uniform","","","","","","","","334041","336049.8000000119","","","","","","","","","","","","10","","stimuli/stars_10.png","257.5","","","","","stimuli/HF09_HO.jpg","",""
"explore-choice","159","335244","0.0-159.0","p198253","A2APG8MSLJ6G2K","3087LXLJ6NMH85PJ46SJUKP4Z1V0FD","3QAPZX2QN6J0UVB16DIDZLQ498J02B","model","match","uniform","","","","","","","970.5","336050.40000000596","337020.90000000596","[""stimuli/HF09_SUR.jpg"",""stimuli/HF04_AO.jpg"",""stimuli/BF08_HO.jpg"",""stimuli/AM05_CC.jpg""]","stimuli/HF09_SUR.jpg","stimuli/HF04_AO.jpg","stimuli/BF08_HO.jpg","stimuli/AM05_CC.jpg","pos1","stimuli/HF09_SUR.jpg","SUR","HF09","0","5","10","8","stimuli/stars_10.png","262.5","[""SUR"",""AO"",""HO"",""CC""]","[""HF09"",""HF04"",""BF08"",""AM05""]","[10,4,1,3]","[8,6,2,4]","","",""
"show-reward","160","337255","0.0-160.0","p198253","A2APG8MSLJ6G2K","3087LXLJ6NMH85PJ46SJUKP4Z1V0FD","3QAPZX2QN6J0UVB16DIDZLQ498J02B","model","match","uniform","","","","","","","","337531.3000000119","339541.1999999881","","","","","","","","","","","","10","","stimuli/stars_10.png","262.5","","","","","stimuli/HF09_SUR.jpg","",""
"explore-choice","161","338702","0.0-161.0","p198253","A2APG8MSLJ6G2K","3087LXLJ6NMH85PJ46SJUKP4Z1V0FD","3QAPZX2QN6J0UVB16DIDZLQ498J02B","model","match","uniform","","","","","","","937.6999999880791","339541.90000000596","340479.59999999404","[""stimuli/HF09_CC.jpg"",""stimuli/HF04_AO.jpg"",""stimuli/BF08_HO.jpg"",""stimuli/AM05_SUR.jpg""]","stimuli/HF09_CC.jpg","stimuli/HF04_AO.jpg","stimuli/BF08_HO.jpg","stimuli/AM05_SUR.jpg","pos1","stimuli/HF09_CC.jpg","CC","HF09","0","4","8","8","stimuli/stars_8.png","266.5","[""CC"",""AO"",""HO"",""SUR""]","[""HF09"",""HF04"",""BF08"",""AM05""]","[8,6,0,5]","[8,6,2,4]","","",""
"show-reward","162","340711","0.0-162.0","p198253","A2APG8MSLJ6G2K","3087LXLJ6NMH85PJ46SJUKP4Z1V0FD","3QAPZX2QN6J0UVB16DIDZLQ498J02B","model","match","uniform","","","","","","","","340988.09999999404","342997.40000000596","","","","","","","","","","","","8","","stimuli/stars_8.png","266.5","","","","","stimuli/HF09_CC.jpg","",""
"explore-choice","163","342084","0.0-163.0","p198253","A2APG8MSLJ6G2K","3087LXLJ6NMH85PJ46SJUKP4Z1V0FD","3QAPZX2QN6J0UVB16DIDZLQ498J02B","model","match","uniform","","","","","","","870","342998.1999999881","343868.1999999881","[""stimuli/HF04_SUR.jpg"",""stimuli/AM05_AO.jpg"",""stimuli/HF09_CC.jpg"",""stimuli/BF08_HO.jpg""]","stimuli/HF04_SUR.jpg","stimuli/AM05_AO.jpg","stimuli/HF09_CC.jpg","stimuli/BF08_HO.jpg","pos3","stimuli/HF09_CC.jpg","CC","HF09","2","3","6","8","stimuli/stars_6.png","269.5","[""SUR"",""AO"",""CC"",""HO""]","[""HF04"",""AM05"",""HF09"",""BF08""]","[4,2,6,0]","[6,4,8,2]","","",""
"show-reward","164","344095","0.0-164.0","p198253","A2APG8MSLJ6G2K","3087LXLJ6NMH85PJ46SJUKP4Z1V0FD","3QAPZX2QN6J0UVB16DIDZLQ498J02B","model","match","uniform","","","","","","","","344370.8000000119","346381.09999999404","","","","","","","","","","","","6","","stimuli/stars_6.png","269.5","","","","","stimuli/HF09_CC.jpg","",""
"explore-choice","165","345618","0.0-165.0","p198253","A2APG8MSLJ6G2K","3087LXLJ6NMH85PJ46SJUKP4Z1V0FD","3QAPZX2QN6J0UVB16DIDZLQ498J02B","model","match","uniform","","","","","","","1008.2999999821186","346381.90000000596","347390.1999999881","[""stimuli/HF09_SUR.jpg"",""stimuli/AM05_AO.jpg"",""stimuli/HF04_HO.jpg"",""stimuli/BF08_CC.jpg""]","stimuli/HF09_SUR.jpg","stimuli/AM05_AO.jpg","stimuli/HF04_HO.jpg","stimuli/BF08_CC.jpg","pos1","stimuli/HF09_SUR.jpg","SUR","HF09","0","5","10","8","stimuli/stars_10.png","274.5","[""SUR"",""AO"",""HO"",""CC""]","[""HF09"",""AM05"",""HF04"",""BF08""]","[10,3,4,2]","[8,4,6,2]","","",""
"show-reward","166","347631","0.0-166.0","p198253","A2APG8MSLJ6G2K","3087LXLJ6NMH85PJ46SJUKP4Z1V0FD","3QAPZX2QN6J0UVB16DIDZLQ498J02B","model","match","uniform","","","","","","","","347905.1999999881","349917.5","","","","","","","","","","","","10","","stimuli/stars_10.png","274.5","","","","","stimuli/HF09_SUR.jpg","",""
"explore-choice","167","348973","0.0-167.0","p198253","A2APG8MSLJ6G2K","3087LXLJ6NMH85PJ46SJUKP4Z1V0FD","3QAPZX2QN6J0UVB16DIDZLQ498J02B","model","match","uniform","","","","","","","831.7000000178814","349918.1999999881","350749.90000000596","[""stimuli/BF08_SUR.jpg"",""stimuli/HF09_HO.jpg"",""stimuli/HF04_AO.jpg"",""stimuli/AM05_CC.jpg""]","stimuli/BF08_SUR.jpg","stimuli/HF09_HO.jpg","stimuli/HF04_AO.jpg","stimuli/AM05_CC.jpg","pos2","stimuli/HF09_HO.jpg","HO","HF09","1","4.5","9","8","stimuli/stars_9.png","279","[""SUR"",""HO"",""AO"",""CC""]","[""BF08"",""HF09"",""HF04"",""AM05""]","[4,9,8,4]","[2,8,6,4]","","",""
"show-reward","168","350990","0.0-168.0","p198253","A2APG8MSLJ6G2K","3087LXLJ6NMH85PJ46SJUKP4Z1V0FD","3QAPZX2QN6J0UVB16DIDZLQ498J02B","model","match","uniform","","","","","","","","351260.09999999404","353275.90000000596","","","","","","","","","","","","9","","stimuli/stars_9.png","279","","","","","stimuli/HF09_HO.jpg","",""
"explore-choice","169","352254","0.0-169.0","p198253","A2APG8MSLJ6G2K","3087LXLJ6NMH85PJ46SJUKP4Z1V0FD","3QAPZX2QN6J0UVB16DIDZLQ498J02B","model","match","uniform","","","","","","","759.0999999940395","353276.59999999404","354035.6999999881","[""stimuli/HF04_AO.jpg"",""stimuli/HF09_SUR.jpg"",""stimuli/AM05_HO.jpg"",""stimuli/BF08_CC.jpg""]","stimuli/HF04_AO.jpg","stimuli/HF09_SUR.jpg","stimuli/AM05_HO.jpg","stimuli/BF08_CC.jpg","pos2","stimuli/HF09_SUR.jpg","SUR","HF09","1","5","10","8","stimuli/stars_10.png","284","[""AO"",""SUR"",""HO"",""CC""]","[""HF04"",""HF09"",""AM05"",""BF08""]","[4,10,3,3]","[6,8,4,2]","","",""
"show-reward","170","354266","0.0-170.0","p198253","A2APG8MSLJ6G2K","3087LXLJ6NMH85PJ46SJUKP4Z1V0FD","3QAPZX2QN6J0UVB16DIDZLQ498J02B","model","match","uniform","","","","","","","","354541","356552.1999999881","","","","","","","","","","","","10","","stimuli/stars_10.png","284","","","","","stimuli/HF09_SUR.jpg","",""
"explore-choice","171","355995","0.0-171.0","p198253","A2APG8MSLJ6G2K","3087LXLJ6NMH85PJ46SJUKP4Z1V0FD","3QAPZX2QN6J0UVB16DIDZLQ498J02B","model","match","uniform","","","","","","","1218.2999999821186","356552.90000000596","357771.1999999881","[""stimuli/HF09_CC.jpg"",""stimuli/BF08_SUR.jpg"",""stimuli/AM05_AO.jpg"",""stimuli/HF04_HO.jpg""]","stimuli/HF09_CC.jpg","stimuli/BF08_SUR.jpg","stimuli/AM05_AO.jpg","stimuli/HF04_HO.jpg","pos1","stimuli/HF09_CC.jpg","CC","HF09","0","5","10","8","stimuli/stars_10.png","289","[""CC"",""SUR"",""AO"",""HO""]","[""HF09"",""BF08"",""AM05"",""HF04""]","[10,2,2,8]","[8,2,4,6]","","",""
"show-reward","172","358006","0.0-172.0","p198253","A2APG8MSLJ6G2K","3087LXLJ6NMH85PJ46SJUKP4Z1V0FD","3QAPZX2QN6J0UVB16DIDZLQ498J02B","model","match","uniform","","","","","","","","358281.8000000119","360291.8000000119","","","","","","","","","","","","10","","stimuli/stars_10.png","289","","","","","stimuli/HF09_CC.jpg","",""
"explore-choice","173","359483","0.0-173.0","p198253","A2APG8MSLJ6G2K","3087LXLJ6NMH85PJ46SJUKP4Z1V0FD","3QAPZX2QN6J0UVB16DIDZLQ498J02B","model","match","uniform","","","","","","","971.7000000178814","360292.6999999881","361264.40000000596","[""stimuli/HF09_SUR.jpg"",""stimuli/BF08_AO.jpg"",""stimuli/AM05_CC.jpg"",""stimuli/HF04_HO.jpg""]","stimuli/HF09_SUR.jpg","stimuli/BF08_AO.jpg","stimuli/AM05_CC.jpg","stimuli/HF04_HO.jpg","pos1","stimuli/HF09_SUR.jpg","SUR","HF09","0","4","8","8","stimuli/stars_8.png","293","[""SUR"",""AO"",""CC"",""HO""]","[""HF09"",""BF08"",""AM05"",""HF04""]","[8,3,6,4]","[8,2,4,6]","","",""
"show-reward","174","361494","0.0-174.0","p198253","A2APG8MSLJ6G2K","3087LXLJ6NMH85PJ46SJUKP4Z1V0FD","3QAPZX2QN6J0UVB16DIDZLQ498J02B","model","match","uniform","","","","","","","","361770.09999999404","363780.40000000596","","","","","","","","","","","","8","","stimuli/stars_8.png","293","","","","","stimuli/HF09_SUR.jpg","",""
"explore-choice","175","362881","0.0-175.0","p198253","A2APG8MSLJ6G2K","3087LXLJ6NMH85PJ46SJUKP4Z1V0FD","3QAPZX2QN6J0UVB16DIDZLQ498J02B","model","match","uniform","","","","","","","874.5","363781.09999999404","364655.59999999404","[""stimuli/HF09_SUR.jpg"",""stimuli/BF08_AO.jpg"",""stimuli/AM05_HO.jpg"",""stimuli/HF04_CC.jpg""]","stimuli/HF09_SUR.jpg","stimuli/BF08_AO.jpg","stimuli/AM05_HO.jpg","stimuli/HF04_CC.jpg","pos1","stimuli/HF09_SUR.jpg","SUR","HF09","0","4.5","9","8","stimuli/stars_9.png","297.5","[""SUR"",""AO"",""HO"",""CC""]","[""HF09"",""BF08"",""AM05"",""HF04""]","[9,2,4,6]","[8,2,4,6]","","",""
"show-reward","176","364883","0.0-176.0","p198253","A2APG8MSLJ6G2K","3087LXLJ6NMH85PJ46SJUKP4Z1V0FD","3QAPZX2QN6J0UVB16DIDZLQ498J02B","model","match","uniform","","","","","","","","365167.59999999404","367169.40000000596","","","","","","","","","","","","9","","stimuli/stars_9.png","297.5","","","","","stimuli/HF09_SUR.jpg","",""
"explore-choice","177","366482","0.0-177.0","p198253","A2APG8MSLJ6G2K","3087LXLJ6NMH85PJ46SJUKP4Z1V0FD","3QAPZX2QN6J0UVB16DIDZLQ498J02B","model","match","uniform","","","","","","","1090","367170.1999999881","368260.1999999881","[""stimuli/BF08_AO.jpg"",""stimuli/AM05_SUR.jpg"",""stimuli/HF04_HO.jpg"",""stimuli/HF09_CC.jpg""]","stimuli/BF08_AO.jpg","stimuli/AM05_SUR.jpg","stimuli/HF04_HO.jpg","stimuli/HF09_CC.jpg","pos4","stimuli/HF09_CC.jpg","CC","HF09","3","4","8","8","stimuli/stars_8.png","301.5","[""AO"",""SUR"",""HO"",""CC""]","[""BF08"",""AM05"",""HF04"",""HF09""]","[4,2,5,8]","[2,4,6,8]","","",""
"show-reward","178","368496","0.0-178.0","p198253","A2APG8MSLJ6G2K","3087LXLJ6NMH85PJ46SJUKP4Z1V0FD","3QAPZX2QN6J0UVB16DIDZLQ498J02B","model","match","uniform","","","","","","","","368768.8000000119","370782.09999999404","","","","","","","","","","","","8","","stimuli/stars_8.png","301.5","","","","","stimuli/HF09_CC.jpg","",""
"explore-choice","179","370007","0.0-179.0","p198253","A2APG8MSLJ6G2K","3087LXLJ6NMH85PJ46SJUKP4Z1V0FD","3QAPZX2QN6J0UVB16DIDZLQ498J02B","model","match","uniform","","","","","","","1005.2999999821186","370782.8000000119","371788.09999999404","[""stimuli/BF08_AO.jpg"",""stimuli/HF09_CC.jpg"",""stimuli/HF04_SUR.jpg"",""stimuli/AM05_HO.jpg""]","stimuli/BF08_AO.jpg","stimuli/HF09_CC.jpg","stimuli/HF04_SUR.jpg","stimuli/AM05_HO.jpg","pos2","stimuli/HF09_CC.jpg","CC","HF09","1","5","10","8","stimuli/stars_10.png","306.5","[""AO"",""CC"",""SUR"",""HO""]","[""BF08"",""HF09"",""HF04"",""AM05""]","[2,10,8,5]","[2,8,6,4]","","",""
"show-reward","180","372021","0.0-180.0","p198253","A2APG8MSLJ6G2K","3087LXLJ6NMH85PJ46SJUKP4Z1V0FD","3QAPZX2QN6J0UVB16DIDZLQ498J02B","model","match","uniform","","","","","","","","372293.8000000119","374306.8000000119","","","","","","","","","","","","10","","stimuli/stars_10.png","306.5","","","","","stimuli/HF09_CC.jpg","",""
"explore-choice","181","373485","0.0-181.0","p198253","A2APG8MSLJ6G2K","3087LXLJ6NMH85PJ46SJUKP4Z1V0FD","3QAPZX2QN6J0UVB16DIDZLQ498J02B","model","match","uniform","","","","","","","955.3000000119209","374307.5","375262.8000000119","[""stimuli/HF09_AO.jpg"",""stimuli/HF04_SUR.jpg"",""stimuli/AM05_CC.jpg"",""stimuli/BF08_HO.jpg""]","stimuli/HF09_AO.jpg","stimuli/HF04_SUR.jpg","stimuli/AM05_CC.jpg","stimuli/BF08_HO.jpg","pos1","stimuli/HF09_AO.jpg","AO","HF09","0","5","10","8","stimuli/stars_10.png","311.5","[""AO"",""SUR"",""CC"",""HO""]","[""HF09"",""HF04"",""AM05"",""BF08""]","[10,8,4,2]","[8,6,4,2]","","",""
"show-reward","182","375498","0.0-182.0","p198253","A2APG8MSLJ6G2K","3087LXLJ6NMH85PJ46SJUKP4Z1V0FD","3QAPZX2QN6J0UVB16DIDZLQ498J02B","model","match","uniform","","","","","","","","375771.8000000119","377783.6999999881","","","","","","","","","","","","10","","stimuli/stars_10.png","311.5","","","","","stimuli/HF09_AO.jpg","",""
"explore-choice","183","377056","0.0-183.0","p198253","A2APG8MSLJ6G2K","3087LXLJ6NMH85PJ46SJUKP4Z1V0FD","3QAPZX2QN6J0UVB16DIDZLQ498J02B","model","match","uniform","","","","","","","1052.699999988079","377784.5","378837.1999999881","[""stimuli/BF08_CC.jpg"",""stimuli/HF04_HO.jpg"",""stimuli/AM05_SUR.jpg"",""stimuli/HF09_AO.jpg""]","stimuli/BF08_CC.jpg","stimuli/HF04_HO.jpg","stimuli/AM05_SUR.jpg","stimuli/HF09_AO.jpg","pos4","stimuli/HF09_AO.jpg","AO","HF09","3","4","8","8","stimuli/stars_8.png","315.5","[""CC"",""HO"",""SUR"",""AO""]","[""BF08"",""HF04"",""AM05"",""HF09""]","[4,7,6,8]","[2,6,4,8]","","",""
"show-reward","184","379066","0.0-184.0","p198253","A2APG8MSLJ6G2K","3087LXLJ6NMH85PJ46SJUKP4Z1V0FD","3QAPZX2QN6J0UVB16DIDZLQ498J02B","model","match","uniform","","","","","","","","379342.90000000596","381352.59999999404","","","","","","","","","","","","8","","stimuli/stars_8.png","315.5","","","","","stimuli/HF09_AO.jpg","",""
"explore-choice","185","380581","0.0-185.0","p198253","A2APG8MSLJ6G2K","3087LXLJ6NMH85PJ46SJUKP4Z1V0FD","3QAPZX2QN6J0UVB16DIDZLQ498J02B","model","match","uniform","","","","","","","1009.3000000119209","381353.09999999404","382362.40000000596","[""stimuli/BF08_HO.jpg"",""stimuli/AM05_SUR.jpg"",""stimuli/HF04_CC.jpg"",""stimuli/HF09_AO.jpg""]","stimuli/BF08_HO.jpg","stimuli/AM05_SUR.jpg","stimuli/HF04_CC.jpg","stimuli/HF09_AO.jpg","pos4","stimuli/HF09_AO.jpg","AO","HF09","3","4","8","8","stimuli/stars_8.png","319.5","[""HO"",""SUR"",""CC"",""AO""]","[""BF08"",""AM05"",""HF04"",""HF09""]","[0,3,7,8]","[2,4,6,8]","","",""
"show-reward","186","382594","0.0-186.0","p198253","A2APG8MSLJ6G2K","3087LXLJ6NMH85PJ46SJUKP4Z1V0FD","3QAPZX2QN6J0UVB16DIDZLQ498J02B","model","match","uniform","","","","","","","","382867.6999999881","384880","","","","","","","","","","","","8","","stimuli/stars_8.png","319.5","","","","","stimuli/HF09_AO.jpg","",""
"explore-choice","187","384291","0.0-187.0","p198253","A2APG8MSLJ6G2K","3087LXLJ6NMH85PJ46SJUKP4Z1V0FD","3QAPZX2QN6J0UVB16DIDZLQ498J02B","model","match","uniform","","","","","","","1183.800000011921","384881","386064.8000000119","[""stimuli/AM05_CC.jpg"",""stimuli/HF09_HO.jpg"",""stimuli/BF08_AO.jpg"",""stimuli/HF04_SUR.jpg""]","stimuli/AM05_CC.jpg","stimuli/HF09_HO.jpg","stimuli/BF08_AO.jpg","stimuli/HF04_SUR.jpg","pos2","stimuli/HF09_HO.jpg","HO","HF09","1","3","6","8","stimuli/stars_6.png","322.5","[""CC"",""HO"",""AO"",""SUR""]","[""AM05"",""HF09"",""BF08"",""HF04""]","[3,6,1,7]","[4,8,2,6]","","",""
"show-reward","188","386299","0.0-188.0","p198253","A2APG8MSLJ6G2K","3087LXLJ6NMH85PJ46SJUKP4Z1V0FD","3QAPZX2QN6J0UVB16DIDZLQ498J02B","model","match","uniform","","","","","","","","386577.5","388585.09999999404","","","","","","","","","","","","6","","stimuli/stars_6.png","322.5","","","","","stimuli/HF09_HO.jpg","",""
"explore-choice","189","387779","0.0-189.0","p198253","A2APG8MSLJ6G2K","3087LXLJ6NMH85PJ46SJUKP4Z1V0FD","3QAPZX2QN6J0UVB16DIDZLQ498J02B","model","match","uniform","","","","","","","967.7999999821186","388585.8000000119","389553.59999999404","[""stimuli/BF08_SUR.jpg"",""stimuli/HF04_HO.jpg"",""stimuli/HF09_AO.jpg"",""stimuli/AM05_CC.jpg""]","stimuli/BF08_SUR.jpg","stimuli/HF04_HO.jpg","stimuli/HF09_AO.jpg","stimuli/AM05_CC.jpg","pos3","stimuli/HF09_AO.jpg","AO","HF09","2","4","8","8","stimuli/stars_8.png","326.5","[""SUR"",""HO"",""AO"",""CC""]","[""BF08"",""HF04"",""HF09"",""AM05""]","[3,7,8,3]","[2,6,8,4]","","",""
"show-reward","190","389785","0.0-190.0","p198253","A2APG8MSLJ6G2K","3087LXLJ6NMH85PJ46SJUKP4Z1V0FD","3QAPZX2QN6J0UVB16DIDZLQ498J02B","model","match","uniform","","","","","","","","390065.40000000596","392071","","","","","","","","","","","","8","","stimuli/stars_8.png","326.5","","","","","stimuli/HF09_AO.jpg","",""
"explore-choice","191","391170","0.0-191.0","p198253","A2APG8MSLJ6G2K","3087LXLJ6NMH85PJ46SJUKP4Z1V0FD","3QAPZX2QN6J0UVB16DIDZLQ498J02B","model","match","uniform","","","","","","","881.2999999821186","392071.8000000119","392953.09999999404","[""stimuli/BF08_CC.jpg"",""stimuli/HF04_SUR.jpg"",""stimuli/AM05_HO.jpg"",""stimuli/HF09_AO.jpg""]","stimuli/BF08_CC.jpg","stimuli/HF04_SUR.jpg","stimuli/AM05_HO.jpg","stimuli/HF09_AO.jpg","pos4","stimuli/HF09_AO.jpg","AO","HF09","3","3","6","8","stimuli/stars_6.png","329.5","[""CC"",""SUR"",""HO"",""AO""]","[""BF08"",""HF04"",""AM05"",""HF09""]","[3,6,2,6]","[2,6,4,8]","","",""
"show-reward","192","393179","0.0-192.0","p198253","A2APG8MSLJ6G2K","3087LXLJ6NMH85PJ46SJUKP4Z1V0FD","3QAPZX2QN6J0UVB16DIDZLQ498J02B","model","match","uniform","","","","","","","","393456.59999999404","395464.8000000119","","","","","","","","","","","","6","","stimuli/stars_6.png","329.5","","","","","stimuli/HF09_AO.jpg","",""
"explore-choice","193","394688","0.0-193.0","p198253","A2APG8MSLJ6G2K","3087LXLJ6NMH85PJ46SJUKP4Z1V0FD","3QAPZX2QN6J0UVB16DIDZLQ498J02B","model","match","uniform","","","","","","","1006.6999999880791","395465.8000000119","396472.5","[""stimuli/HF04_AO.jpg"",""stimuli/BF08_SUR.jpg"",""stimuli/HF09_CC.jpg"",""stimuli/AM05_HO.jpg""]","stimuli/HF04_AO.jpg","stimuli/BF08_SUR.jpg","stimuli/HF09_CC.jpg","stimuli/AM05_HO.jpg","pos3","stimuli/HF09_CC.jpg","CC","HF09","2","4.5","9","8","stimuli/stars_9.png","334","[""AO"",""SUR"",""CC"",""HO""]","[""HF04"",""BF08"",""HF09"",""AM05""]","[5,0,9,3]","[6,2,8,4]","","",""
"show-reward","194","396696","0.0-194.0","p198253","A2APG8MSLJ6G2K","3087LXLJ6NMH85PJ46SJUKP4Z1V0FD","3QAPZX2QN6J0UVB16DIDZLQ498J02B","model","match","uniform","","","","","","","","396974.6999999881","398981.6999999881","","","","","","","","","","","","9","","stimuli/stars_9.png","334","","","","","stimuli/HF09_CC.jpg","",""
"explore-choice","195","398375","0.0-195.0","p198253","A2APG8MSLJ6G2K","3087LXLJ6NMH85PJ46SJUKP4Z1V0FD","3QAPZX2QN6J0UVB16DIDZLQ498J02B","model","match","uniform","","","","","","","1167.300000011921","398982.59999999404","400149.90000000596","[""stimuli/AM05_HO.jpg"",""stimuli/HF09_AO.jpg"",""stimuli/BF08_SUR.jpg"",""stimuli/HF04_CC.jpg""]","stimuli/AM05_HO.jpg","stimuli/HF09_AO.jpg","stimuli/BF08_SUR.jpg","stimuli/HF04_CC.jpg","pos2","stimuli/HF09_AO.jpg","AO","HF09","1","5","10","8","stimuli/stars_10.png","339","[""HO"",""AO"",""SUR"",""CC""]","[""AM05"",""HF09"",""BF08"",""HF04""]","[6,10,4,6]","[4,8,2,6]","","",""
"show-reward","196","400384","0.0-196.0","p198253","A2APG8MSLJ6G2K","3087LXLJ6NMH85PJ46SJUKP4Z1V0FD","3QAPZX2QN6J0UVB16DIDZLQ498J02B","model","match","uniform","","","","","","","","400662","402669.6999999881","","","","","","","","","","","","10","","stimuli/stars_10.png","339","","","","","stimuli/HF09_AO.jpg","",""
"explore-choice","197","401816","0.0-197.0","p198253","A2APG8MSLJ6G2K","3087LXLJ6NMH85PJ46SJUKP4Z1V0FD","3QAPZX2QN6J0UVB16DIDZLQ498J02B","model","match","uniform","","","","","","","927.8000000119209","402670.59999999404","403598.40000000596","[""stimuli/BF08_CC.jpg"",""stimuli/HF04_SUR.jpg"",""stimuli/HF09_HO.jpg"",""stimuli/AM05_AO.jpg""]","stimuli/BF08_CC.jpg","stimuli/HF04_SUR.jpg","stimuli/HF09_HO.jpg","stimuli/AM05_AO.jpg","pos3","stimuli/HF09_HO.jpg","HO","HF09","2","4","8","8","stimuli/stars_8.png","343","[""CC"",""SUR"",""HO"",""AO""]","[""BF08"",""HF04"",""HF09"",""AM05""]","[2,8,8,3]","[2,6,8,4]","","",""
"show-reward","198","403825","0.0-198.0","p198253","A2APG8MSLJ6G2K","3087LXLJ6NMH85PJ46SJUKP4Z1V0FD","3QAPZX2QN6J0UVB16DIDZLQ498J02B","model","match","uniform","","","","","","","","404103.3000000119","406111","","","","","","","","","","","","8","","stimuli/stars_8.png","343","","","","","stimuli/HF09_HO.jpg","",""
"instructions","199","409306","0.0-199.0","p198253","A2APG8MSLJ6G2K","3087LXLJ6NMH85PJ46SJUKP4Z1V0FD","3QAPZX2QN6J0UVB16DIDZLQ498J02B","model","match","uniform","","","","","","[{""page_index"":0,""viewing_time"":5480.299999982119}]","5480.399999976158","","","","","","","","","","","","","","","","","","","","","","","",""
"survey-text","200","417836","0.0-200.0-0.0","p198253","A2APG8MSLJ6G2K","3087LXLJ6NMH85PJ46SJUKP4Z1V0FD","3QAPZX2QN6J0UVB16DIDZLQ498J02B","model","match","uniform","","","","","","","8526.90000000596","","","","","","","","","","","","","","","","","","","","","","","{""age"":""69""}",""
"survey-text","201","422032","0.0-200.0-1.0","p198253","A2APG8MSLJ6G2K","3087LXLJ6NMH85PJ46SJUKP4Z1V0FD","3QAPZX2QN6J0UVB16DIDZLQ498J02B","model","match","uniform","","","","","","","4193.699999988079","","","","","","","","","","","","","","","","","","","","","","","{""gender"":""female""}",""
"survey-text","202","427890","0.0-200.0-2.0","p198253","A2APG8MSLJ6G2K","3087LXLJ6NMH85PJ46SJUKP4Z1V0FD","3QAPZX2QN6J0UVB16DIDZLQ498J02B","model","match","uniform","","","","","","","5855.800000011921","","","","","","","","","","","","","","","","","","","","","","","{""country"":""United States""}",""
"survey-text","203","432618","0.0-200.0-3.0","p198253","A2APG8MSLJ6G2K","3087LXLJ6NMH85PJ46SJUKP4Z1V0FD","3QAPZX2QN6J0UVB16DIDZLQ498J02B","model","match","uniform","","","","","","","4727","","","","","","","","","","","","","","","","","","","","","","","{""language"":""english"",""other_languages"":""""}",""
"survey-multi-select","204","434930","0.0-201.0","p198253","A2APG8MSLJ6G2K","3087LXLJ6NMH85PJ46SJUKP4Z1V0FD","3QAPZX2QN6J0UVB16DIDZLQ498J02B","model","match","uniform","","","","","","","2309.5","","","","","","","","","","","","","","","","","","","","","","","{""race"":[""White""]}","[0]"
"survey-multi-choice","205","438870","0.0-202.0","p198253","A2APG8MSLJ6G2K","3087LXLJ6NMH85PJ46SJUKP4Z1V0FD","3QAPZX2QN6J0UVB16DIDZLQ498J02B","model","match","uniform","","","","","","","3938","","","","","","","","","","","","","","","","","","","","","","","{""education"":""Some college/ university""}","[0]"
"survey-text","206","488192","0.0-203.0","p198253","A2APG8MSLJ6G2K","3087LXLJ6NMH85PJ46SJUKP4Z1V0FD","3QAPZX2QN6J0UVB16DIDZLQ498J02B","model","match","uniform","","","","","","","49320.09999999404","","","","","","","","","","","","","","","","","","","","","","","{""patterns"":""Second half, always picked the long haired girl."",""strategy"":""2 photos seemed the highest in first half, second half I picked the long haired girl."",""comments"":""none but thank you.""}",""
