"trial_type","trial_index","time_elapsed","internal_node_id","subject","workerId","hitId","assignmentId","structure_condition","match_condition","noise_type","success","timeout","failed_images","failed_audio","failed_video","view_history","rt","start_time","end_time","stimuli","image1","image2","image3","image4","choiceLocation","choiceImage","choiceEmotion","choiceModel","choice_index","reward_score","reward","reward_score_unadjusted","reward_image","score_after_trial","emotions","models","rewards","rewards_unadjusted","stimulus","response","question_order"
"pavlovia","0","10","0.0-0.0","p780745","A38I0E8UK53ME5","3P888QFVX40Z2B7BK75OWKP045JQOK","3Y54SXRO1NRAUGHUNZGTPFN1PB9TUA","emotion","mismatch","uniform","","","","","","","","","","","","","","","","","","","","","","","","","","","","","","",""
"preload","1","3120","0.0-1.0","p780745","A38I0E8UK53ME5","3P888QFVX40Z2B7BK75OWKP045JQOK","3Y54SXRO1NRAUGHUNZGTPFN1PB9TUA","emotion","mismatch","uniform","true","false","[]","[]","[]","","","","","","","","","","","","","","","","","","","","","","","","","",""
"fullscreen","2","8208","0.0-2.0","p780745","A38I0E8UK53ME5","3P888QFVX40Z2B7BK75OWKP045JQOK","3Y54SXRO1NRAUGHUNZGTPFN1PB9TUA","emotion","mismatch","uniform","true","","","","","","","","","","","","","","","","","","","","","","","","","","","","","",""
"instructions","3","13793","0.0-3.0","p780745","A38I0E8UK53ME5","3P888QFVX40Z2B7BK75OWKP045JQOK","3Y54SXRO1NRAUGHUNZGTPFN1PB9TUA","emotion","mismatch","uniform","","","","","","[{""page_index"":0,""viewing_time"":5583}]","5583","","","","","","","","","","","","","","","","","","","","","","","",""
"explore-choice","4","16314","0.0-4.0","p780745","A38I0E8UK53ME5","3P888QFVX40Z2B7BK75OWKP045JQOK","3Y54SXRO1NRAUGHUNZGTPFN1PB9TUA","emotion","mismatch","uniform","","","","","","","2006","15402","17408","[""stimuli/sheep.jpg"",""stimuli/hammer.jpg"",""stimuli/basketball.jpg"",""stimuli/horse.jpg""]","stimuli/sheep.jpg","stimuli/hammer.jpg","stimuli/basketball.jpg","stimuli/horse.jpg","pos4","stimuli/horse.jpg","","","3","64","64","64","stimuli/stars_8.png","65","","","","","","",""
"explore-choice","5","18993","0.0-5.0","p780745","A38I0E8UK53ME5","3P888QFVX40Z2B7BK75OWKP045JQOK","3Y54SXRO1NRAUGHUNZGTPFN1PB9TUA","emotion","mismatch","uniform","","","","","","","2165","17923","20088","[""stimuli/hammer.jpg"",""stimuli/basketball.jpg"",""stimuli/horse.jpg"",""stimuli/sheep.jpg""]","stimuli/hammer.jpg","stimuli/basketball.jpg","stimuli/horse.jpg","stimuli/sheep.jpg","pos1","stimuli/hammer.jpg","","","0","8","8","8","stimuli/stars_2.png","9","","","","","","",""
"instructions","6","61289","0.0-6.0","p780745","A38I0E8UK53ME5","3P888QFVX40Z2B7BK75OWKP045JQOK","3Y54SXRO1NRAUGHUNZGTPFN1PB9TUA","emotion","mismatch","uniform","","","","","","[{""page_index"":0,""viewing_time"":42295}]","42296","","","","","","","","","","","","","","","","","","","","","","","",""
"explore-choice","7","65242","0.0-7.0","p780745","A38I0E8UK53ME5","3P888QFVX40Z2B7BK75OWKP045JQOK","3Y54SXRO1NRAUGHUNZGTPFN1PB9TUA","emotion","mismatch","uniform","","","","","","","3452","62899","66351","[""stimuli/HM07_FO.jpg"",""stimuli/HM02_AO.jpg"",""stimuli/AM05_DO.jpg"",""stimuli/WM13_HE.jpg""]","stimuli/HM07_FO.jpg","stimuli/HM02_AO.jpg","stimuli/AM05_DO.jpg","stimuli/WM13_HE.jpg","pos4","stimuli/WM13_HE.jpg","HE","WM13","3","3.5","7","6","stimuli/stars_7.png","4.5","[""FO"",""AO"",""DO"",""HE""]","[""HM07"",""HM02"",""AM05"",""WM13""]","[0,6,5,7]","[2,8,4,6]","","",""
"show-reward","8","67252","0.0-8.0","p780745","A38I0E8UK53ME5","3P888QFVX40Z2B7BK75OWKP045JQOK","3Y54SXRO1NRAUGHUNZGTPFN1PB9TUA","emotion","mismatch","uniform","","","","","","","","66852","68860","","","","","","","","","","","","7","","stimuli/stars_7.png","4.5","","","","","stimuli/WM13_HE.jpg","",""
"explore-choice","9","69646","0.0-9.0","p780745","A38I0E8UK53ME5","3P888QFVX40Z2B7BK75OWKP045JQOK","3Y54SXRO1NRAUGHUNZGTPFN1PB9TUA","emotion","mismatch","uniform","","","","","","","1891","68861","70752","[""stimuli/HM07_FO.jpg"",""stimuli/HM02_HE.jpg"",""stimuli/AM05_DO.jpg"",""stimuli/WM13_AO.jpg""]","stimuli/HM07_FO.jpg","stimuli/HM02_HE.jpg","stimuli/AM05_DO.jpg","stimuli/WM13_AO.jpg","pos2","stimuli/HM02_HE.jpg","HE","HM02","1","2","4","6","stimuli/stars_4.png","6.5","[""FO"",""HE"",""DO"",""AO""]","[""HM07"",""HM02"",""AM05"",""WM13""]","[3,4,5,10]","[2,6,4,8]","","",""
"show-reward","10","71653","0.0-10.0","p780745","A38I0E8UK53ME5","3P888QFVX40Z2B7BK75OWKP045JQOK","3Y54SXRO1NRAUGHUNZGTPFN1PB9TUA","emotion","mismatch","uniform","","","","","","","","71255","73260","","","","","","","","","","","","4","","stimuli/stars_4.png","6.5","","","","","stimuli/HM02_HE.jpg","",""
"explore-choice","11","73226","0.0-11.0","p780745","A38I0E8UK53ME5","3P888QFVX40Z2B7BK75OWKP045JQOK","3Y54SXRO1NRAUGHUNZGTPFN1PB9TUA","emotion","mismatch","uniform","","","","","","","1070","73262","74332","[""stimuli/WM13_HE.jpg"",""stimuli/HM02_DO.jpg"",""stimuli/AM05_FO.jpg"",""stimuli/HM07_AO.jpg""]","stimuli/WM13_HE.jpg","stimuli/HM02_DO.jpg","stimuli/AM05_FO.jpg","stimuli/HM07_AO.jpg","pos1","stimuli/WM13_HE.jpg","HE","WM13","0","2","4","6","stimuli/stars_4.png","8.5","[""HE"",""DO"",""FO"",""AO""]","[""WM13"",""HM02"",""AM05"",""HM07""]","[4,2,3,10]","[6,4,2,8]","","",""
"show-reward","12","75235","0.0-12.0","p780745","A38I0E8UK53ME5","3P888QFVX40Z2B7BK75OWKP045JQOK","3Y54SXRO1NRAUGHUNZGTPFN1PB9TUA","emotion","mismatch","uniform","","","","","","","","74835","76843","","","","","","","","","","","","4","","stimuli/stars_4.png","8.5","","","","","stimuli/WM13_HE.jpg","",""
"explore-choice","13","78761","0.0-13.0","p780745","A38I0E8UK53ME5","3P888QFVX40Z2B7BK75OWKP045JQOK","3Y54SXRO1NRAUGHUNZGTPFN1PB9TUA","emotion","mismatch","uniform","","","","","","","3018","76843","79861","[""stimuli/AM05_FO.jpg"",""stimuli/HM07_AO.jpg"",""stimuli/HM02_HE.jpg"",""stimuli/WM13_DO.jpg""]","stimuli/AM05_FO.jpg","stimuli/HM07_AO.jpg","stimuli/HM02_HE.jpg","stimuli/WM13_DO.jpg","pos4","stimuli/WM13_DO.jpg","DO","WM13","3","1.5","3","4","stimuli/stars_3.png","10","[""FO"",""AO"",""HE"",""DO""]","[""AM05"",""HM07"",""HM02"",""WM13""]","[2,9,4,3]","[2,8,6,4]","","",""
"show-reward","14","80777","0.0-14.0","p780745","A38I0E8UK53ME5","3P888QFVX40Z2B7BK75OWKP045JQOK","3Y54SXRO1NRAUGHUNZGTPFN1PB9TUA","emotion","mismatch","uniform","","","","","","","","80370","82385","","","","","","","","","","","","3","","stimuli/stars_3.png","10","","","","","stimuli/WM13_DO.jpg","",""
"explore-choice","15","82383","0.0-15.0","p780745","A38I0E8UK53ME5","3P888QFVX40Z2B7BK75OWKP045JQOK","3Y54SXRO1NRAUGHUNZGTPFN1PB9TUA","emotion","mismatch","uniform","","","","","","","1102","82385","83487","[""stimuli/HM07_FO.jpg"",""stimuli/AM05_HE.jpg"",""stimuli/WM13_DO.jpg"",""stimuli/HM02_AO.jpg""]","stimuli/HM07_FO.jpg","stimuli/AM05_HE.jpg","stimuli/WM13_DO.jpg","stimuli/HM02_AO.jpg","pos2","stimuli/AM05_HE.jpg","HE","AM05","1","4","8","6","stimuli/stars_8.png","14","[""FO"",""HE"",""DO"",""AO""]","[""HM07"",""AM05"",""WM13"",""HM02""]","[4,8,3,10]","[2,6,4,8]","","",""
"show-reward","16","84390","0.0-16.0","p780745","A38I0E8UK53ME5","3P888QFVX40Z2B7BK75OWKP045JQOK","3Y54SXRO1NRAUGHUNZGTPFN1PB9TUA","emotion","mismatch","uniform","","","","","","","","83992","85999","","","","","","","","","","","","8","","stimuli/stars_8.png","14","","","","","stimuli/AM05_HE.jpg","",""
"explore-choice","17","88722","0.0-17.0","p780745","A38I0E8UK53ME5","3P888QFVX40Z2B7BK75OWKP045JQOK","3Y54SXRO1NRAUGHUNZGTPFN1PB9TUA","emotion","mismatch","uniform","","","","","","","3817","85999","89816","[""stimuli/HM02_HE.jpg"",""stimuli/HM07_DO.jpg"",""stimuli/WM13_FO.jpg"",""stimuli/AM05_AO.jpg""]","stimuli/HM02_HE.jpg","stimuli/HM07_DO.jpg","stimuli/WM13_FO.jpg","stimuli/AM05_AO.jpg","pos1","stimuli/HM02_HE.jpg","HE","HM02","0","3","6","6","stimuli/stars_6.png","17","[""HE"",""DO"",""FO"",""AO""]","[""HM02"",""HM07"",""WM13"",""AM05""]","[6,6,1,10]","[6,4,2,8]","","",""
"show-reward","18","90729","0.0-18.0","p780745","A38I0E8UK53ME5","3P888QFVX40Z2B7BK75OWKP045JQOK","3Y54SXRO1NRAUGHUNZGTPFN1PB9TUA","emotion","mismatch","uniform","","","","","","","","90332","92338","","","","","","","","","","","","6","","stimuli/stars_6.png","17","","","","","stimuli/HM02_HE.jpg","",""
"explore-choice","19","93054","0.0-19.0","p780745","A38I0E8UK53ME5","3P888QFVX40Z2B7BK75OWKP045JQOK","3Y54SXRO1NRAUGHUNZGTPFN1PB9TUA","emotion","mismatch","uniform","","","","","","","1816","92338","94154","[""stimuli/AM05_FO.jpg"",""stimuli/WM13_AO.jpg"",""stimuli/HM07_HE.jpg"",""stimuli/HM02_DO.jpg""]","stimuli/AM05_FO.jpg","stimuli/WM13_AO.jpg","stimuli/HM07_HE.jpg","stimuli/HM02_DO.jpg","pos3","stimuli/HM07_HE.jpg","HE","HM07","2","2","4","6","stimuli/stars_4.png","19","[""FO"",""AO"",""HE"",""DO""]","[""AM05"",""WM13"",""HM07"",""HM02""]","[4,9,4,3]","[2,8,6,4]","","",""
"show-reward","20","95062","0.0-20.0","p780745","A38I0E8UK53ME5","3P888QFVX40Z2B7BK75OWKP045JQOK","3Y54SXRO1NRAUGHUNZGTPFN1PB9TUA","emotion","mismatch","uniform","","","","","","","","94662","96669","","","","","","","","","","","","4","","stimuli/stars_4.png","19","","","","","stimuli/HM07_HE.jpg","",""
"explore-choice","21","97120","0.0-21.0","p780745","A38I0E8UK53ME5","3P888QFVX40Z2B7BK75OWKP045JQOK","3Y54SXRO1NRAUGHUNZGTPFN1PB9TUA","emotion","mismatch","uniform","","","","","","","1557","96671","98228","[""stimuli/WM13_FO.jpg"",""stimuli/AM05_DO.jpg"",""stimuli/HM02_HE.jpg"",""stimuli/HM07_AO.jpg""]","stimuli/WM13_FO.jpg","stimuli/AM05_DO.jpg","stimuli/HM02_HE.jpg","stimuli/HM07_AO.jpg","pos3","stimuli/HM02_HE.jpg","HE","HM02","2","4","8","6","stimuli/stars_8.png","23","[""FO"",""DO"",""HE"",""AO""]","[""WM13"",""AM05"",""HM02"",""HM07""]","[4,2,8,10]","[2,4,6,8]","","",""
"show-reward","22","99127","0.0-22.0","p780745","A38I0E8UK53ME5","3P888QFVX40Z2B7BK75OWKP045JQOK","3Y54SXRO1NRAUGHUNZGTPFN1PB9TUA","emotion","mismatch","uniform","","","","","","","","98729","100735","","","","","","","","","","","","8","","stimuli/stars_8.png","23","","","","","stimuli/HM02_HE.jpg","",""
"explore-choice","23","101738","0.0-23.0","p780745","A38I0E8UK53ME5","3P888QFVX40Z2B7BK75OWKP045JQOK","3Y54SXRO1NRAUGHUNZGTPFN1PB9TUA","emotion","mismatch","uniform","","","","","","","2108","100736","102844","[""stimuli/AM05_HE.jpg"",""stimuli/HM07_DO.jpg"",""stimuli/HM02_FO.jpg"",""stimuli/WM13_AO.jpg""]","stimuli/AM05_HE.jpg","stimuli/HM07_DO.jpg","stimuli/HM02_FO.jpg","stimuli/WM13_AO.jpg","pos1","stimuli/AM05_HE.jpg","HE","AM05","0","2.5","5","6","stimuli/stars_5.png","25.5","[""HE"",""DO"",""FO"",""AO""]","[""AM05"",""HM07"",""HM02"",""WM13""]","[5,2,1,9]","[6,4,2,8]","","",""
"show-reward","24","103744","0.0-24.0","p780745","A38I0E8UK53ME5","3P888QFVX40Z2B7BK75OWKP045JQOK","3Y54SXRO1NRAUGHUNZGTPFN1PB9TUA","emotion","mismatch","uniform","","","","","","","","103347","105352","","","","","","","","","","","","5","","stimuli/stars_5.png","25.5","","","","","stimuli/AM05_HE.jpg","",""
"explore-choice","25","105936","0.0-25.0","p780745","A38I0E8UK53ME5","3P888QFVX40Z2B7BK75OWKP045JQOK","3Y54SXRO1NRAUGHUNZGTPFN1PB9TUA","emotion","mismatch","uniform","","","","","","","1676","105352","107028","[""stimuli/HM02_FO.jpg"",""stimuli/WM13_DO.jpg"",""stimuli/HM07_AO.jpg"",""stimuli/AM05_HE.jpg""]","stimuli/HM02_FO.jpg","stimuli/WM13_DO.jpg","stimuli/HM07_AO.jpg","stimuli/AM05_HE.jpg","pos4","stimuli/AM05_HE.jpg","HE","AM05","3","2.5","5","6","stimuli/stars_5.png","28","[""FO"",""DO"",""AO"",""HE""]","[""HM02"",""WM13"",""HM07"",""AM05""]","[3,6,8,5]","[2,4,8,6]","","",""
"show-reward","26","107944","0.0-26.0","p780745","A38I0E8UK53ME5","3P888QFVX40Z2B7BK75OWKP045JQOK","3Y54SXRO1NRAUGHUNZGTPFN1PB9TUA","emotion","mismatch","uniform","","","","","","","","107544","109553","","","","","","","","","","","","5","","stimuli/stars_5.png","28","","","","","stimuli/AM05_HE.jpg","",""
"explore-choice","27","109830","0.0-27.0","p780745","A38I0E8UK53ME5","3P888QFVX40Z2B7BK75OWKP045JQOK","3Y54SXRO1NRAUGHUNZGTPFN1PB9TUA","emotion","mismatch","uniform","","","","","","","1375","109553","110928","[""stimuli/WM13_FO.jpg"",""stimuli/HM07_DO.jpg"",""stimuli/HM02_AO.jpg"",""stimuli/AM05_HE.jpg""]","stimuli/WM13_FO.jpg","stimuli/HM07_DO.jpg","stimuli/HM02_AO.jpg","stimuli/AM05_HE.jpg","pos4","stimuli/AM05_HE.jpg","HE","AM05","3","3.5","7","6","stimuli/stars_7.png","31.5","[""FO"",""DO"",""AO"",""HE""]","[""WM13"",""HM07"",""HM02"",""AM05""]","[4,6,6,7]","[2,4,8,6]","","",""
"show-reward","28","111846","0.0-28.0","p780745","A38I0E8UK53ME5","3P888QFVX40Z2B7BK75OWKP045JQOK","3Y54SXRO1NRAUGHUNZGTPFN1PB9TUA","emotion","mismatch","uniform","","","","","","","","111439","113454","","","","","","","","","","","","7","","stimuli/stars_7.png","31.5","","","","","stimuli/AM05_HE.jpg","",""
"explore-choice","29","113916","0.0-29.0","p780745","A38I0E8UK53ME5","3P888QFVX40Z2B7BK75OWKP045JQOK","3Y54SXRO1NRAUGHUNZGTPFN1PB9TUA","emotion","mismatch","uniform","","","","","","","1565","113455","115020","[""stimuli/WM13_AO.jpg"",""stimuli/HM07_FO.jpg"",""stimuli/HM02_DO.jpg"",""stimuli/AM05_HE.jpg""]","stimuli/WM13_AO.jpg","stimuli/HM07_FO.jpg","stimuli/HM02_DO.jpg","stimuli/AM05_HE.jpg","pos4","stimuli/AM05_HE.jpg","HE","AM05","3","4","8","6","stimuli/stars_8.png","35.5","[""AO"",""FO"",""DO"",""HE""]","[""WM13"",""HM07"",""HM02"",""AM05""]","[8,1,3,8]","[8,2,4,6]","","",""
"show-reward","30","115924","0.0-30.0","p780745","A38I0E8UK53ME5","3P888QFVX40Z2B7BK75OWKP045JQOK","3Y54SXRO1NRAUGHUNZGTPFN1PB9TUA","emotion","mismatch","uniform","","","","","","","","115525","117532","","","","","","","","","","","","8","","stimuli/stars_8.png","35.5","","","","","stimuli/AM05_HE.jpg","",""
"explore-choice","31","120277","0.0-31.0","p780745","A38I0E8UK53ME5","3P888QFVX40Z2B7BK75OWKP045JQOK","3Y54SXRO1NRAUGHUNZGTPFN1PB9TUA","emotion","mismatch","uniform","","","","","","","3843","117533","121376","[""stimuli/WM13_HE.jpg"",""stimuli/HM02_FO.jpg"",""stimuli/HM07_DO.jpg"",""stimuli/AM05_AO.jpg""]","stimuli/WM13_HE.jpg","stimuli/HM02_FO.jpg","stimuli/HM07_DO.jpg","stimuli/AM05_AO.jpg","pos1","stimuli/WM13_HE.jpg","HE","WM13","0","3.5","7","6","stimuli/stars_7.png","39","[""HE"",""FO"",""DO"",""AO""]","[""WM13"",""HM02"",""HM07"",""AM05""]","[7,3,3,6]","[6,2,4,8]","","",""
"show-reward","32","122282","0.0-32.0","p780745","A38I0E8UK53ME5","3P888QFVX40Z2B7BK75OWKP045JQOK","3Y54SXRO1NRAUGHUNZGTPFN1PB9TUA","emotion","mismatch","uniform","","","","","","","","121885","123891","","","","","","","","","","","","7","","stimuli/stars_7.png","39","","","","","stimuli/WM13_HE.jpg","",""
"explore-choice","33","124021","0.0-33.0","p780745","A38I0E8UK53ME5","3P888QFVX40Z2B7BK75OWKP045JQOK","3Y54SXRO1NRAUGHUNZGTPFN1PB9TUA","emotion","mismatch","uniform","","","","","","","1227","123891","125118","[""stimuli/AM05_FO.jpg"",""stimuli/WM13_HE.jpg"",""stimuli/HM02_AO.jpg"",""stimuli/HM07_DO.jpg""]","stimuli/AM05_FO.jpg","stimuli/WM13_HE.jpg","stimuli/HM02_AO.jpg","stimuli/HM07_DO.jpg","pos2","stimuli/WM13_HE.jpg","HE","WM13","1","3","6","6","stimuli/stars_6.png","42","[""FO"",""HE"",""AO"",""DO""]","[""AM05"",""WM13"",""HM02"",""HM07""]","[3,6,6,5]","[2,6,8,4]","","",""
"show-reward","34","126029","0.0-34.0","p780745","A38I0E8UK53ME5","3P888QFVX40Z2B7BK75OWKP045JQOK","3Y54SXRO1NRAUGHUNZGTPFN1PB9TUA","emotion","mismatch","uniform","","","","","","","","125629","127637","","","","","","","","","","","","6","","stimuli/stars_6.png","42","","","","","stimuli/WM13_HE.jpg","",""
"explore-choice","35","128507","0.0-35.0","p780745","A38I0E8UK53ME5","3P888QFVX40Z2B7BK75OWKP045JQOK","3Y54SXRO1NRAUGHUNZGTPFN1PB9TUA","emotion","mismatch","uniform","","","","","","","1976","127638","129614","[""stimuli/HM02_HE.jpg"",""stimuli/WM13_AO.jpg"",""stimuli/HM07_DO.jpg"",""stimuli/AM05_FO.jpg""]","stimuli/HM02_HE.jpg","stimuli/WM13_AO.jpg","stimuli/HM07_DO.jpg","stimuli/AM05_FO.jpg","pos1","stimuli/HM02_HE.jpg","HE","HM02","0","2","4","6","stimuli/stars_4.png","44","[""HE"",""AO"",""DO"",""FO""]","[""HM02"",""WM13"",""HM07"",""AM05""]","[4,9,4,0]","[6,8,4,2]","","",""
"show-reward","36","130515","0.0-36.0","p780745","A38I0E8UK53ME5","3P888QFVX40Z2B7BK75OWKP045JQOK","3Y54SXRO1NRAUGHUNZGTPFN1PB9TUA","emotion","mismatch","uniform","","","","","","","","130115","132122","","","","","","","","","","","","4","","stimuli/stars_4.png","44","","","","","stimuli/HM02_HE.jpg","",""
"explore-choice","37","132105","0.0-37.0","p780745","A38I0E8UK53ME5","3P888QFVX40Z2B7BK75OWKP045JQOK","3Y54SXRO1NRAUGHUNZGTPFN1PB9TUA","emotion","mismatch","uniform","","","","","","","1075","132123","133198","[""stimuli/AM05_DO.jpg"",""stimuli/WM13_HE.jpg"",""stimuli/HM07_AO.jpg"",""stimuli/HM02_FO.jpg""]","stimuli/AM05_DO.jpg","stimuli/WM13_HE.jpg","stimuli/HM07_AO.jpg","stimuli/HM02_FO.jpg","pos2","stimuli/WM13_HE.jpg","HE","WM13","1","2.5","5","6","stimuli/stars_5.png","46.5","[""DO"",""HE"",""AO"",""FO""]","[""AM05"",""WM13"",""HM07"",""HM02""]","[5,5,8,1]","[4,6,8,2]","","",""
"show-reward","38","134113","0.0-38.0","p780745","A38I0E8UK53ME5","3P888QFVX40Z2B7BK75OWKP045JQOK","3Y54SXRO1NRAUGHUNZGTPFN1PB9TUA","emotion","mismatch","uniform","","","","","","","","133714","135721","","","","","","","","","","","","5","","stimuli/stars_5.png","46.5","","","","","stimuli/WM13_HE.jpg","",""
"explore-choice","39","136398","0.0-39.0","p780745","A38I0E8UK53ME5","3P888QFVX40Z2B7BK75OWKP045JQOK","3Y54SXRO1NRAUGHUNZGTPFN1PB9TUA","emotion","mismatch","uniform","","","","","","","1770","135722","137492","[""stimuli/HM02_HE.jpg"",""stimuli/AM05_AO.jpg"",""stimuli/WM13_DO.jpg"",""stimuli/HM07_FO.jpg""]","stimuli/HM02_HE.jpg","stimuli/AM05_AO.jpg","stimuli/WM13_DO.jpg","stimuli/HM07_FO.jpg","pos1","stimuli/HM02_HE.jpg","HE","HM02","0","3.5","7","6","stimuli/stars_7.png","50","[""HE"",""AO"",""DO"",""FO""]","[""HM02"",""AM05"",""WM13"",""HM07""]","[7,9,6,2]","[6,8,4,2]","","",""
"show-reward","40","138407","0.0-40.0","p780745","A38I0E8UK53ME5","3P888QFVX40Z2B7BK75OWKP045JQOK","3Y54SXRO1NRAUGHUNZGTPFN1PB9TUA","emotion","mismatch","uniform","","","","","","","","138007","140015","","","","","","","","","","","","7","","stimuli/stars_7.png","50","","","","","stimuli/HM02_HE.jpg","",""
"explore-choice","41","140298","0.0-41.0","p780745","A38I0E8UK53ME5","3P888QFVX40Z2B7BK75OWKP045JQOK","3Y54SXRO1NRAUGHUNZGTPFN1PB9TUA","emotion","mismatch","uniform","","","","","","","1384","140015","141399","[""stimuli/HM07_FO.jpg"",""stimuli/AM05_AO.jpg"",""stimuli/HM02_DO.jpg"",""stimuli/WM13_HE.jpg""]","stimuli/HM07_FO.jpg","stimuli/AM05_AO.jpg","stimuli/HM02_DO.jpg","stimuli/WM13_HE.jpg","pos4","stimuli/WM13_HE.jpg","HE","WM13","3","4","8","6","stimuli/stars_8.png","54","[""FO"",""AO"",""DO"",""HE""]","[""HM07"",""AM05"",""HM02"",""WM13""]","[1,8,6,8]","[2,8,4,6]","","",""
"show-reward","42","142307","0.0-42.0","p780745","A38I0E8UK53ME5","3P888QFVX40Z2B7BK75OWKP045JQOK","3Y54SXRO1NRAUGHUNZGTPFN1PB9TUA","emotion","mismatch","uniform","","","","","","","","141907","143916","","","","","","","","","","","","8","","stimuli/stars_8.png","54","","","","","stimuli/WM13_HE.jpg","",""
"explore-choice","43","144568","0.0-43.0","p780745","A38I0E8UK53ME5","3P888QFVX40Z2B7BK75OWKP045JQOK","3Y54SXRO1NRAUGHUNZGTPFN1PB9TUA","emotion","mismatch","uniform","","","","","","","1758","143916","145674","[""stimuli/HM02_DO.jpg"",""stimuli/HM07_HE.jpg"",""stimuli/WM13_FO.jpg"",""stimuli/AM05_AO.jpg""]","stimuli/HM02_DO.jpg","stimuli/HM07_HE.jpg","stimuli/WM13_FO.jpg","stimuli/AM05_AO.jpg","pos2","stimuli/HM07_HE.jpg","HE","HM07","1","2.5","5","6","stimuli/stars_5.png","56.5","[""DO"",""HE"",""FO"",""AO""]","[""HM02"",""HM07"",""WM13"",""AM05""]","[3,5,1,10]","[4,6,2,8]","","",""
"show-reward","44","146577","0.0-44.0","p780745","A38I0E8UK53ME5","3P888QFVX40Z2B7BK75OWKP045JQOK","3Y54SXRO1NRAUGHUNZGTPFN1PB9TUA","emotion","mismatch","uniform","","","","","","","","146177","148185","","","","","","","","","","","","5","","stimuli/stars_5.png","56.5","","","","","stimuli/HM07_HE.jpg","",""
"explore-choice","45","148367","0.0-45.0","p780745","A38I0E8UK53ME5","3P888QFVX40Z2B7BK75OWKP045JQOK","3Y54SXRO1NRAUGHUNZGTPFN1PB9TUA","emotion","mismatch","uniform","","","","","","","1274","148186","149460","[""stimuli/HM02_DO.jpg"",""stimuli/WM13_FO.jpg"",""stimuli/HM07_AO.jpg"",""stimuli/AM05_HE.jpg""]","stimuli/HM02_DO.jpg","stimuli/WM13_FO.jpg","stimuli/HM07_AO.jpg","stimuli/AM05_HE.jpg","pos4","stimuli/AM05_HE.jpg","HE","AM05","3","2","4","6","stimuli/stars_4.png","58.5","[""DO"",""FO"",""AO"",""HE""]","[""HM02"",""WM13"",""HM07"",""AM05""]","[5,2,10,4]","[4,2,8,6]","","",""
"show-reward","46","150375","0.0-46.0","p780745","A38I0E8UK53ME5","3P888QFVX40Z2B7BK75OWKP045JQOK","3Y54SXRO1NRAUGHUNZGTPFN1PB9TUA","emotion","mismatch","uniform","","","","","","","","149976","151983","","","","","","","","","","","","4","","stimuli/stars_4.png","58.5","","","","","stimuli/AM05_HE.jpg","",""
"explore-choice","47","153887","0.0-47.0","p780745","A38I0E8UK53ME5","3P888QFVX40Z2B7BK75OWKP045JQOK","3Y54SXRO1NRAUGHUNZGTPFN1PB9TUA","emotion","mismatch","uniform","","","","","","","2994","151984","154978","[""stimuli/HM07_HE.jpg"",""stimuli/WM13_DO.jpg"",""stimuli/AM05_AO.jpg"",""stimuli/HM02_FO.jpg""]","stimuli/HM07_HE.jpg","stimuli/WM13_DO.jpg","stimuli/AM05_AO.jpg","stimuli/HM02_FO.jpg","pos1","stimuli/HM07_HE.jpg","HE","HM07","0","2.5","5","6","stimuli/stars_5.png","61","[""HE"",""DO"",""AO"",""FO""]","[""HM07"",""WM13"",""AM05"",""HM02""]","[5,4,7,4]","[6,4,8,2]","","",""
"show-reward","48","155895","0.0-48.0","p780745","A38I0E8UK53ME5","3P888QFVX40Z2B7BK75OWKP045JQOK","3Y54SXRO1NRAUGHUNZGTPFN1PB9TUA","emotion","mismatch","uniform","","","","","","","","155496","157503","","","","","","","","","","","","5","","stimuli/stars_5.png","61","","","","","stimuli/HM07_HE.jpg","",""
"explore-choice","49","157863","0.0-49.0","p780745","A38I0E8UK53ME5","3P888QFVX40Z2B7BK75OWKP045JQOK","3Y54SXRO1NRAUGHUNZGTPFN1PB9TUA","emotion","mismatch","uniform","","","","","","","1455","157503","158958","[""stimuli/WM13_AO.jpg"",""stimuli/HM07_HE.jpg"",""stimuli/AM05_DO.jpg"",""stimuli/HM02_FO.jpg""]","stimuli/WM13_AO.jpg","stimuli/HM07_HE.jpg","stimuli/AM05_DO.jpg","stimuli/HM02_FO.jpg","pos2","stimuli/HM07_HE.jpg","HE","HM07","1","3","6","6","stimuli/stars_6.png","64","[""AO"",""HE"",""DO"",""FO""]","[""WM13"",""HM07"",""AM05"",""HM02""]","[9,6,3,4]","[8,6,4,2]","","",""
"show-reward","50","159872","0.0-50.0","p780745","A38I0E8UK53ME5","3P888QFVX40Z2B7BK75OWKP045JQOK","3Y54SXRO1NRAUGHUNZGTPFN1PB9TUA","emotion","mismatch","uniform","","","","","","","","159472","161481","","","","","","","","","","","","6","","stimuli/stars_6.png","64","","","","","stimuli/HM07_HE.jpg","",""
"explore-choice","51","162249","0.0-51.0","p780745","A38I0E8UK53ME5","3P888QFVX40Z2B7BK75OWKP045JQOK","3Y54SXRO1NRAUGHUNZGTPFN1PB9TUA","emotion","mismatch","uniform","","","","","","","1863","161481","163344","[""stimuli/HM02_AO.jpg"",""stimuli/WM13_FO.jpg"",""stimuli/HM07_HE.jpg"",""stimuli/AM05_DO.jpg""]","stimuli/HM02_AO.jpg","stimuli/WM13_FO.jpg","stimuli/HM07_HE.jpg","stimuli/AM05_DO.jpg","pos3","stimuli/HM07_HE.jpg","HE","HM07","2","3","6","6","stimuli/stars_6.png","67","[""AO"",""FO"",""HE"",""DO""]","[""HM02"",""WM13"",""HM07"",""AM05""]","[7,2,6,5]","[8,2,6,4]","","",""
"show-reward","52","164256","0.0-52.0","p780745","A38I0E8UK53ME5","3P888QFVX40Z2B7BK75OWKP045JQOK","3Y54SXRO1NRAUGHUNZGTPFN1PB9TUA","emotion","mismatch","uniform","","","","","","","","163858","165865","","","","","","","","","","","","6","","stimuli/stars_6.png","67","","","","","stimuli/HM07_HE.jpg","",""
"explore-choice","53","165629","0.0-53.0","p780745","A38I0E8UK53ME5","3P888QFVX40Z2B7BK75OWKP045JQOK","3Y54SXRO1NRAUGHUNZGTPFN1PB9TUA","emotion","mismatch","uniform","","","","","","","858","165865","166723","[""stimuli/HM07_HE.jpg"",""stimuli/WM13_DO.jpg"",""stimuli/HM02_AO.jpg"",""stimuli/AM05_FO.jpg""]","stimuli/HM07_HE.jpg","stimuli/WM13_DO.jpg","stimuli/HM02_AO.jpg","stimuli/AM05_FO.jpg","pos1","stimuli/HM07_HE.jpg","HE","HM07","0","3.5","7","6","stimuli/stars_7.png","70.5","[""HE"",""DO"",""AO"",""FO""]","[""HM07"",""WM13"",""HM02"",""AM05""]","[7,4,9,3]","[6,4,8,2]","","",""
"show-reward","54","167637","0.0-54.0","p780745","A38I0E8UK53ME5","3P888QFVX40Z2B7BK75OWKP045JQOK","3Y54SXRO1NRAUGHUNZGTPFN1PB9TUA","emotion","mismatch","uniform","","","","","","","","167238","169246","","","","","","","","","","","","7","","stimuli/stars_7.png","70.5","","","","","stimuli/HM07_HE.jpg","",""
"explore-choice","55","172252","0.0-55.0","p780745","A38I0E8UK53ME5","3P888QFVX40Z2B7BK75OWKP045JQOK","3Y54SXRO1NRAUGHUNZGTPFN1PB9TUA","emotion","mismatch","uniform","","","","","","","4112","169246","173358","[""stimuli/HM07_HE.jpg"",""stimuli/AM05_DO.jpg"",""stimuli/HM02_AO.jpg"",""stimuli/WM13_FO.jpg""]","stimuli/HM07_HE.jpg","stimuli/AM05_DO.jpg","stimuli/HM02_AO.jpg","stimuli/WM13_FO.jpg","pos1","stimuli/HM07_HE.jpg","HE","HM07","0","3","6","6","stimuli/stars_6.png","73.5","[""HE"",""DO"",""AO"",""FO""]","[""HM07"",""AM05"",""HM02"",""WM13""]","[6,5,7,2]","[6,4,8,2]","","",""
"show-reward","56","174258","0.0-56.0","p780745","A38I0E8UK53ME5","3P888QFVX40Z2B7BK75OWKP045JQOK","3Y54SXRO1NRAUGHUNZGTPFN1PB9TUA","emotion","mismatch","uniform","","","","","","","","173860","175867","","","","","","","","","","","","6","","stimuli/stars_6.png","73.5","","","","","stimuli/HM07_HE.jpg","",""
"explore-choice","57","175942","0.0-57.0","p780745","A38I0E8UK53ME5","3P888QFVX40Z2B7BK75OWKP045JQOK","3Y54SXRO1NRAUGHUNZGTPFN1PB9TUA","emotion","mismatch","uniform","","","","","","","1180","175867","177047","[""stimuli/WM13_FO.jpg"",""stimuli/HM02_HE.jpg"",""stimuli/HM07_DO.jpg"",""stimuli/AM05_AO.jpg""]","stimuli/WM13_FO.jpg","stimuli/HM02_HE.jpg","stimuli/HM07_DO.jpg","stimuli/AM05_AO.jpg","pos2","stimuli/HM02_HE.jpg","HE","HM02","1","3","6","6","stimuli/stars_6.png","76.5","[""FO"",""HE"",""DO"",""AO""]","[""WM13"",""HM02"",""HM07"",""AM05""]","[1,6,6,10]","[2,6,4,8]","","",""
"show-reward","58","177949","0.0-58.0","p780745","A38I0E8UK53ME5","3P888QFVX40Z2B7BK75OWKP045JQOK","3Y54SXRO1NRAUGHUNZGTPFN1PB9TUA","emotion","mismatch","uniform","","","","","","","","177551","179557","","","","","","","","","","","","6","","stimuli/stars_6.png","76.5","","","","","stimuli/HM02_HE.jpg","",""
"explore-choice","59","179824","0.0-59.0","p780745","A38I0E8UK53ME5","3P888QFVX40Z2B7BK75OWKP045JQOK","3Y54SXRO1NRAUGHUNZGTPFN1PB9TUA","emotion","mismatch","uniform","","","","","","","1373","179557","180930","[""stimuli/AM05_DO.jpg"",""stimuli/WM13_HE.jpg"",""stimuli/HM02_FO.jpg"",""stimuli/HM07_AO.jpg""]","stimuli/AM05_DO.jpg","stimuli/WM13_HE.jpg","stimuli/HM02_FO.jpg","stimuli/HM07_AO.jpg","pos2","stimuli/WM13_HE.jpg","HE","WM13","1","2.5","5","6","stimuli/stars_5.png","79","[""DO"",""HE"",""FO"",""AO""]","[""AM05"",""WM13"",""HM02"",""HM07""]","[5,5,1,8]","[4,6,2,8]","","",""
"show-reward","60","181830","0.0-60.0","p780745","A38I0E8UK53ME5","3P888QFVX40Z2B7BK75OWKP045JQOK","3Y54SXRO1NRAUGHUNZGTPFN1PB9TUA","emotion","mismatch","uniform","","","","","","","","181432","183438","","","","","","","","","","","","5","","stimuli/stars_5.png","79","","","","","stimuli/WM13_HE.jpg","",""
"explore-choice","61","184070","0.0-61.0","p780745","A38I0E8UK53ME5","3P888QFVX40Z2B7BK75OWKP045JQOK","3Y54SXRO1NRAUGHUNZGTPFN1PB9TUA","emotion","mismatch","uniform","","","","","","","1729","183439","185168","[""stimuli/AM05_HE.jpg"",""stimuli/WM13_AO.jpg"",""stimuli/HM07_DO.jpg"",""stimuli/HM02_FO.jpg""]","stimuli/AM05_HE.jpg","stimuli/WM13_AO.jpg","stimuli/HM07_DO.jpg","stimuli/HM02_FO.jpg","pos1","stimuli/AM05_HE.jpg","HE","AM05","0","2.5","5","6","stimuli/stars_5.png","81.5","[""HE"",""AO"",""DO"",""FO""]","[""AM05"",""WM13"",""HM07"",""HM02""]","[5,9,2,1]","[6,8,4,2]","","",""
"show-reward","62","186078","0.0-62.0","p780745","A38I0E8UK53ME5","3P888QFVX40Z2B7BK75OWKP045JQOK","3Y54SXRO1NRAUGHUNZGTPFN1PB9TUA","emotion","mismatch","uniform","","","","","","","","185679","187686","","","","","","","","","","","","5","","stimuli/stars_5.png","81.5","","","","","stimuli/AM05_HE.jpg","",""
"explore-choice","63","187684","0.0-63.0","p780745","A38I0E8UK53ME5","3P888QFVX40Z2B7BK75OWKP045JQOK","3Y54SXRO1NRAUGHUNZGTPFN1PB9TUA","emotion","mismatch","uniform","","","","","","","1100","187686","188786","[""stimuli/AM05_HE.jpg"",""stimuli/HM02_AO.jpg"",""stimuli/HM07_DO.jpg"",""stimuli/WM13_FO.jpg""]","stimuli/AM05_HE.jpg","stimuli/HM02_AO.jpg","stimuli/HM07_DO.jpg","stimuli/WM13_FO.jpg","pos1","stimuli/AM05_HE.jpg","HE","AM05","0","3.5","7","6","stimuli/stars_7.png","85","[""HE"",""AO"",""DO"",""FO""]","[""AM05"",""HM02"",""HM07"",""WM13""]","[7,6,6,4]","[6,8,4,2]","","",""
"show-reward","64","189691","0.0-64.0","p780745","A38I0E8UK53ME5","3P888QFVX40Z2B7BK75OWKP045JQOK","3Y54SXRO1NRAUGHUNZGTPFN1PB9TUA","emotion","mismatch","uniform","","","","","","","","189292","191300","","","","","","","","","","","","7","","stimuli/stars_7.png","85","","","","","stimuli/AM05_HE.jpg","",""
"explore-choice","65","191883","0.0-65.0","p780745","A38I0E8UK53ME5","3P888QFVX40Z2B7BK75OWKP045JQOK","3Y54SXRO1NRAUGHUNZGTPFN1PB9TUA","emotion","mismatch","uniform","","","","","","","1690","191300","192990","[""stimuli/WM13_DO.jpg"",""stimuli/HM02_HE.jpg"",""stimuli/AM05_AO.jpg"",""stimuli/HM07_FO.jpg""]","stimuli/WM13_DO.jpg","stimuli/HM02_HE.jpg","stimuli/AM05_AO.jpg","stimuli/HM07_FO.jpg","pos2","stimuli/HM02_HE.jpg","HE","HM02","1","3.5","7","6","stimuli/stars_7.png","88.5","[""DO"",""HE"",""AO"",""FO""]","[""WM13"",""HM02"",""AM05"",""HM07""]","[6,7,9,2]","[4,6,8,2]","","",""
"show-reward","66","193892","0.0-66.0","p780745","A38I0E8UK53ME5","3P888QFVX40Z2B7BK75OWKP045JQOK","3Y54SXRO1NRAUGHUNZGTPFN1PB9TUA","emotion","mismatch","uniform","","","","","","","","193493","195500","","","","","","","","","","","","7","","stimuli/stars_7.png","88.5","","","","","stimuli/HM02_HE.jpg","",""
"explore-choice","67","196085","0.0-67.0","p780745","A38I0E8UK53ME5","3P888QFVX40Z2B7BK75OWKP045JQOK","3Y54SXRO1NRAUGHUNZGTPFN1PB9TUA","emotion","mismatch","uniform","","","","","","","1684","195500","197184","[""stimuli/HM02_HE.jpg"",""stimuli/HM07_AO.jpg"",""stimuli/AM05_DO.jpg"",""stimuli/WM13_FO.jpg""]","stimuli/HM02_HE.jpg","stimuli/HM07_AO.jpg","stimuli/AM05_DO.jpg","stimuli/WM13_FO.jpg","pos1","stimuli/HM02_HE.jpg","HE","HM02","0","4","8","6","stimuli/stars_8.png","92.5","[""HE"",""AO"",""DO"",""FO""]","[""HM02"",""HM07"",""AM05"",""WM13""]","[8,10,2,4]","[6,8,4,2]","","",""
"show-reward","68","198092","0.0-68.0","p780745","A38I0E8UK53ME5","3P888QFVX40Z2B7BK75OWKP045JQOK","3Y54SXRO1NRAUGHUNZGTPFN1PB9TUA","emotion","mismatch","uniform","","","","","","","","197694","199701","","","","","","","","","","","","8","","stimuli/stars_8.png","92.5","","","","","stimuli/HM02_HE.jpg","",""
"explore-choice","69","201306","0.0-69.0","p780745","A38I0E8UK53ME5","3P888QFVX40Z2B7BK75OWKP045JQOK","3Y54SXRO1NRAUGHUNZGTPFN1PB9TUA","emotion","mismatch","uniform","","","","","","","2698","199702","202400","[""stimuli/HM02_AO.jpg"",""stimuli/WM13_DO.jpg"",""stimuli/AM05_FO.jpg"",""stimuli/HM07_HE.jpg""]","stimuli/HM02_AO.jpg","stimuli/WM13_DO.jpg","stimuli/AM05_FO.jpg","stimuli/HM07_HE.jpg","pos4","stimuli/HM07_HE.jpg","HE","HM07","3","3.5","7","6","stimuli/stars_7.png","96","[""AO"",""DO"",""FO"",""HE""]","[""HM02"",""WM13"",""AM05"",""HM07""]","[9,4,3,7]","[8,4,2,6]","","",""
"show-reward","70","203313","0.0-70.0","p780745","A38I0E8UK53ME5","3P888QFVX40Z2B7BK75OWKP045JQOK","3Y54SXRO1NRAUGHUNZGTPFN1PB9TUA","emotion","mismatch","uniform","","","","","","","","202915","204921","","","","","","","","","","","","7","","stimuli/stars_7.png","96","","","","","stimuli/HM07_HE.jpg","",""
"explore-choice","71","205503","0.0-71.0","p780745","A38I0E8UK53ME5","3P888QFVX40Z2B7BK75OWKP045JQOK","3Y54SXRO1NRAUGHUNZGTPFN1PB9TUA","emotion","mismatch","uniform","","","","","","","1683","204922","206605","[""stimuli/HM02_FO.jpg"",""stimuli/AM05_DO.jpg"",""stimuli/HM07_HE.jpg"",""stimuli/WM13_AO.jpg""]","stimuli/HM02_FO.jpg","stimuli/AM05_DO.jpg","stimuli/HM07_HE.jpg","stimuli/WM13_AO.jpg","pos3","stimuli/HM07_HE.jpg","HE","HM07","2","3","6","6","stimuli/stars_6.png","99","[""FO"",""DO"",""HE"",""AO""]","[""HM02"",""AM05"",""HM07"",""WM13""]","[4,3,6,9]","[2,4,6,8]","","",""
"show-reward","72","207509","0.0-72.0","p780745","A38I0E8UK53ME5","3P888QFVX40Z2B7BK75OWKP045JQOK","3Y54SXRO1NRAUGHUNZGTPFN1PB9TUA","emotion","mismatch","uniform","","","","","","","","207113","209118","","","","","","","","","","","","6","","stimuli/stars_6.png","99","","","","","stimuli/HM07_HE.jpg","",""
"explore-choice","73","209749","0.0-73.0","p780745","A38I0E8UK53ME5","3P888QFVX40Z2B7BK75OWKP045JQOK","3Y54SXRO1NRAUGHUNZGTPFN1PB9TUA","emotion","mismatch","uniform","","","","","","","1725","209118","210843","[""stimuli/HM07_FO.jpg"",""stimuli/AM05_DO.jpg"",""stimuli/WM13_HE.jpg"",""stimuli/HM02_AO.jpg""]","stimuli/HM07_FO.jpg","stimuli/AM05_DO.jpg","stimuli/WM13_HE.jpg","stimuli/HM02_AO.jpg","pos3","stimuli/WM13_HE.jpg","HE","WM13","2","3.5","7","6","stimuli/stars_7.png","102.5","[""FO"",""DO"",""HE"",""AO""]","[""HM07"",""AM05"",""WM13"",""HM02""]","[0,5,7,6]","[2,4,6,8]","","",""
"show-reward","74","211757","0.0-74.0","p780745","A38I0E8UK53ME5","3P888QFVX40Z2B7BK75OWKP045JQOK","3Y54SXRO1NRAUGHUNZGTPFN1PB9TUA","emotion","mismatch","uniform","","","","","","","","211357","213366","","","","","","","","","","","","7","","stimuli/stars_7.png","102.5","","","","","stimuli/WM13_HE.jpg","",""
"explore-choice","75","213579","0.0-75.0","p780745","A38I0E8UK53ME5","3P888QFVX40Z2B7BK75OWKP045JQOK","3Y54SXRO1NRAUGHUNZGTPFN1PB9TUA","emotion","mismatch","uniform","","","","","","","1319","213366","214685","[""stimuli/HM02_FO.jpg"",""stimuli/HM07_AO.jpg"",""stimuli/AM05_HE.jpg"",""stimuli/WM13_DO.jpg""]","stimuli/HM02_FO.jpg","stimuli/HM07_AO.jpg","stimuli/AM05_HE.jpg","stimuli/WM13_DO.jpg","pos3","stimuli/AM05_HE.jpg","HE","AM05","2","2.5","5","6","stimuli/stars_5.png","105","[""FO"",""AO"",""HE"",""DO""]","[""HM02"",""HM07"",""AM05"",""WM13""]","[3,8,5,6]","[2,8,6,4]","","",""
"show-reward","76","215587","0.0-76.0","p780745","A38I0E8UK53ME5","3P888QFVX40Z2B7BK75OWKP045JQOK","3Y54SXRO1NRAUGHUNZGTPFN1PB9TUA","emotion","mismatch","uniform","","","","","","","","215188","217196","","","","","","","","","","","","5","","stimuli/stars_5.png","105","","","","","stimuli/AM05_HE.jpg","",""
"explore-choice","77","217564","0.0-77.0","p780745","A38I0E8UK53ME5","3P888QFVX40Z2B7BK75OWKP045JQOK","3Y54SXRO1NRAUGHUNZGTPFN1PB9TUA","emotion","mismatch","uniform","","","","","","","1461","217197","218658","[""stimuli/HM02_DO.jpg"",""stimuli/AM05_FO.jpg"",""stimuli/WM13_AO.jpg"",""stimuli/HM07_HE.jpg""]","stimuli/HM02_DO.jpg","stimuli/AM05_FO.jpg","stimuli/WM13_AO.jpg","stimuli/HM07_HE.jpg","pos4","stimuli/HM07_HE.jpg","HE","HM07","3","2","4","6","stimuli/stars_4.png","107","[""DO"",""FO"",""AO"",""HE""]","[""HM02"",""AM05"",""WM13"",""HM07""]","[3,4,9,4]","[4,2,8,6]","","",""
"show-reward","78","219572","0.0-78.0","p780745","A38I0E8UK53ME5","3P888QFVX40Z2B7BK75OWKP045JQOK","3Y54SXRO1NRAUGHUNZGTPFN1PB9TUA","emotion","mismatch","uniform","","","","","","","","219173","221180","","","","","","","","","","","","4","","stimuli/stars_4.png","107","","","","","stimuli/HM07_HE.jpg","",""
"explore-choice","79","221793","0.0-79.0","p780745","A38I0E8UK53ME5","3P888QFVX40Z2B7BK75OWKP045JQOK","3Y54SXRO1NRAUGHUNZGTPFN1PB9TUA","emotion","mismatch","uniform","","","","","","","1710","221180","222890","[""stimuli/WM13_HE.jpg"",""stimuli/HM07_FO.jpg"",""stimuli/HM02_DO.jpg"",""stimuli/AM05_AO.jpg""]","stimuli/WM13_HE.jpg","stimuli/HM07_FO.jpg","stimuli/HM02_DO.jpg","stimuli/AM05_AO.jpg","pos1","stimuli/WM13_HE.jpg","HE","WM13","0","4","8","6","stimuli/stars_8.png","111","[""HE"",""FO"",""DO"",""AO""]","[""WM13"",""HM07"",""HM02"",""AM05""]","[8,1,6,8]","[6,2,4,8]","","",""
"show-reward","80","223803","0.0-80.0","p780745","A38I0E8UK53ME5","3P888QFVX40Z2B7BK75OWKP045JQOK","3Y54SXRO1NRAUGHUNZGTPFN1PB9TUA","emotion","mismatch","uniform","","","","","","","","223402","225412","","","","","","","","","","","","8","","stimuli/stars_8.png","111","","","","","stimuli/WM13_HE.jpg","",""
"explore-choice","81","226078","0.0-81.0","p780745","A38I0E8UK53ME5","3P888QFVX40Z2B7BK75OWKP045JQOK","3Y54SXRO1NRAUGHUNZGTPFN1PB9TUA","emotion","mismatch","uniform","","","","","","","1772","225412","227184","[""stimuli/WM13_FO.jpg"",""stimuli/AM05_AO.jpg"",""stimuli/HM07_HE.jpg"",""stimuli/HM02_DO.jpg""]","stimuli/WM13_FO.jpg","stimuli/AM05_AO.jpg","stimuli/HM07_HE.jpg","stimuli/HM02_DO.jpg","pos3","stimuli/HM07_HE.jpg","HE","HM07","2","2.5","5","6","stimuli/stars_5.png","113.5","[""FO"",""AO"",""HE"",""DO""]","[""WM13"",""AM05"",""HM07"",""HM02""]","[1,10,5,3]","[2,8,6,4]","","",""
"show-reward","82","228086","0.0-82.0","p780745","A38I0E8UK53ME5","3P888QFVX40Z2B7BK75OWKP045JQOK","3Y54SXRO1NRAUGHUNZGTPFN1PB9TUA","emotion","mismatch","uniform","","","","","","","","227688","229695","","","","","","","","","","","","5","","stimuli/stars_5.png","113.5","","","","","stimuli/HM07_HE.jpg","",""
"explore-choice","83","230062","0.0-83.0","p780745","A38I0E8UK53ME5","3P888QFVX40Z2B7BK75OWKP045JQOK","3Y54SXRO1NRAUGHUNZGTPFN1PB9TUA","emotion","mismatch","uniform","","","","","","","1472","229696","231168","[""stimuli/WM13_AO.jpg"",""stimuli/HM02_HE.jpg"",""stimuli/AM05_FO.jpg"",""stimuli/HM07_DO.jpg""]","stimuli/WM13_AO.jpg","stimuli/HM02_HE.jpg","stimuli/AM05_FO.jpg","stimuli/HM07_DO.jpg","pos2","stimuli/HM02_HE.jpg","HE","HM02","1","2","4","6","stimuli/stars_4.png","115.5","[""AO"",""HE"",""FO"",""DO""]","[""WM13"",""HM02"",""AM05"",""HM07""]","[9,4,0,4]","[8,6,2,4]","","",""
"show-reward","84","232071","0.0-84.0","p780745","A38I0E8UK53ME5","3P888QFVX40Z2B7BK75OWKP045JQOK","3Y54SXRO1NRAUGHUNZGTPFN1PB9TUA","emotion","mismatch","uniform","","","","","","","","231671","233679","","","","","","","","","","","","4","","stimuli/stars_4.png","115.5","","","","","stimuli/HM02_HE.jpg","",""
"explore-choice","85","234379","0.0-85.0","p780745","A38I0E8UK53ME5","3P888QFVX40Z2B7BK75OWKP045JQOK","3Y54SXRO1NRAUGHUNZGTPFN1PB9TUA","emotion","mismatch","uniform","","","","","","","1791","233679","235470","[""stimuli/HM02_HE.jpg"",""stimuli/AM05_DO.jpg"",""stimuli/HM07_FO.jpg"",""stimuli/WM13_AO.jpg""]","stimuli/HM02_HE.jpg","stimuli/AM05_DO.jpg","stimuli/HM07_FO.jpg","stimuli/WM13_AO.jpg","pos1","stimuli/HM02_HE.jpg","HE","HM02","0","2","4","6","stimuli/stars_4.png","117.5","[""HE"",""DO"",""FO"",""AO""]","[""HM02"",""AM05"",""HM07"",""WM13""]","[4,5,3,10]","[6,4,2,8]","","",""
"show-reward","86","236387","0.0-86.0","p780745","A38I0E8UK53ME5","3P888QFVX40Z2B7BK75OWKP045JQOK","3Y54SXRO1NRAUGHUNZGTPFN1PB9TUA","emotion","mismatch","uniform","","","","","","","","235988","237996","","","","","","","","","","","","4","","stimuli/stars_4.png","117.5","","","","","stimuli/HM02_HE.jpg","",""
"explore-choice","87","238473","0.0-87.0","p780745","A38I0E8UK53ME5","3P888QFVX40Z2B7BK75OWKP045JQOK","3Y54SXRO1NRAUGHUNZGTPFN1PB9TUA","emotion","mismatch","uniform","","","","","","","1572","237996","239568","[""stimuli/HM07_FO.jpg"",""stimuli/HM02_DO.jpg"",""stimuli/WM13_AO.jpg"",""stimuli/AM05_HE.jpg""]","stimuli/HM07_FO.jpg","stimuli/HM02_DO.jpg","stimuli/WM13_AO.jpg","stimuli/AM05_HE.jpg","pos4","stimuli/AM05_HE.jpg","HE","AM05","3","4","8","6","stimuli/stars_8.png","121.5","[""FO"",""DO"",""AO"",""HE""]","[""HM07"",""HM02"",""WM13"",""AM05""]","[1,3,8,8]","[2,4,8,6]","","",""
"show-reward","88","240481","0.0-88.0","p780745","A38I0E8UK53ME5","3P888QFVX40Z2B7BK75OWKP045JQOK","3Y54SXRO1NRAUGHUNZGTPFN1PB9TUA","emotion","mismatch","uniform","","","","","","","","240082","242089","","","","","","","","","","","","8","","stimuli/stars_8.png","121.5","","","","","stimuli/AM05_HE.jpg","",""
"explore-choice","89","242288","0.0-89.0","p780745","A38I0E8UK53ME5","3P888QFVX40Z2B7BK75OWKP045JQOK","3Y54SXRO1NRAUGHUNZGTPFN1PB9TUA","emotion","mismatch","uniform","","","","","","","1292","242090","243382","[""stimuli/HM02_AO.jpg"",""stimuli/AM05_HE.jpg"",""stimuli/WM13_DO.jpg"",""stimuli/HM07_FO.jpg""]","stimuli/HM02_AO.jpg","stimuli/AM05_HE.jpg","stimuli/WM13_DO.jpg","stimuli/HM07_FO.jpg","pos2","stimuli/AM05_HE.jpg","HE","AM05","1","4","8","6","stimuli/stars_8.png","125.5","[""AO"",""HE"",""DO"",""FO""]","[""HM02"",""AM05"",""WM13"",""HM07""]","[10,8,3,4]","[8,6,4,2]","","",""
"show-reward","90","244295","0.0-90.0","p780745","A38I0E8UK53ME5","3P888QFVX40Z2B7BK75OWKP045JQOK","3Y54SXRO1NRAUGHUNZGTPFN1PB9TUA","emotion","mismatch","uniform","","","","","","","","243896","245903","","","","","","","","","","","","8","","stimuli/stars_8.png","125.5","","","","","stimuli/AM05_HE.jpg","",""
"explore-choice","91","246856","0.0-91.0","p780745","A38I0E8UK53ME5","3P888QFVX40Z2B7BK75OWKP045JQOK","3Y54SXRO1NRAUGHUNZGTPFN1PB9TUA","emotion","mismatch","uniform","","","","","","","2050","245903","247953","[""stimuli/WM13_DO.jpg"",""stimuli/HM07_HE.jpg"",""stimuli/HM02_FO.jpg"",""stimuli/AM05_AO.jpg""]","stimuli/WM13_DO.jpg","stimuli/HM07_HE.jpg","stimuli/HM02_FO.jpg","stimuli/AM05_AO.jpg","pos2","stimuli/HM07_HE.jpg","HE","HM07","1","2.5","5","6","stimuli/stars_5.png","128","[""DO"",""HE"",""FO"",""AO""]","[""WM13"",""HM07"",""HM02"",""AM05""]","[4,5,4,7]","[4,6,2,8]","","",""
"show-reward","92","248862","0.0-92.0","p780745","A38I0E8UK53ME5","3P888QFVX40Z2B7BK75OWKP045JQOK","3Y54SXRO1NRAUGHUNZGTPFN1PB9TUA","emotion","mismatch","uniform","","","","","","","","248465","250471","","","","","","","","","","","","5","","stimuli/stars_5.png","128","","","","","stimuli/HM07_HE.jpg","",""
"explore-choice","93","250839","0.0-93.0","p780745","A38I0E8UK53ME5","3P888QFVX40Z2B7BK75OWKP045JQOK","3Y54SXRO1NRAUGHUNZGTPFN1PB9TUA","emotion","mismatch","uniform","","","","","","","1474","250472","251946","[""stimuli/WM13_DO.jpg"",""stimuli/AM05_FO.jpg"",""stimuli/HM02_HE.jpg"",""stimuli/HM07_AO.jpg""]","stimuli/WM13_DO.jpg","stimuli/AM05_FO.jpg","stimuli/HM02_HE.jpg","stimuli/HM07_AO.jpg","pos3","stimuli/HM02_HE.jpg","HE","HM02","2","2","4","6","stimuli/stars_4.png","130","[""DO"",""FO"",""HE"",""AO""]","[""WM13"",""AM05"",""HM02"",""HM07""]","[3,2,4,9]","[4,2,6,8]","","",""
"show-reward","94","252846","0.0-94.0","p780745","A38I0E8UK53ME5","3P888QFVX40Z2B7BK75OWKP045JQOK","3Y54SXRO1NRAUGHUNZGTPFN1PB9TUA","emotion","mismatch","uniform","","","","","","","","252448","254454","","","","","","","","","","","","4","","stimuli/stars_4.png","130","","","","","stimuli/HM02_HE.jpg","",""
"explore-choice","95","254666","0.0-95.0","p780745","A38I0E8UK53ME5","3P888QFVX40Z2B7BK75OWKP045JQOK","3Y54SXRO1NRAUGHUNZGTPFN1PB9TUA","emotion","mismatch","uniform","","","","","","","1310","254454","255764","[""stimuli/HM02_FO.jpg"",""stimuli/AM05_AO.jpg"",""stimuli/WM13_HE.jpg"",""stimuli/HM07_DO.jpg""]","stimuli/HM02_FO.jpg","stimuli/AM05_AO.jpg","stimuli/WM13_HE.jpg","stimuli/HM07_DO.jpg","pos3","stimuli/WM13_HE.jpg","HE","WM13","2","3.5","7","6","stimuli/stars_7.png","133.5","[""FO"",""AO"",""HE"",""DO""]","[""HM02"",""AM05"",""WM13"",""HM07""]","[3,6,7,3]","[2,8,6,4]","","",""
"show-reward","96","256672","0.0-96.0","p780745","A38I0E8UK53ME5","3P888QFVX40Z2B7BK75OWKP045JQOK","3Y54SXRO1NRAUGHUNZGTPFN1PB9TUA","emotion","mismatch","uniform","","","","","","","","256274","258281","","","","","","","","","","","","7","","stimuli/stars_7.png","133.5","","","","","stimuli/WM13_HE.jpg","",""
"explore-choice","97","258678","0.0-97.0","p780745","A38I0E8UK53ME5","3P888QFVX40Z2B7BK75OWKP045JQOK","3Y54SXRO1NRAUGHUNZGTPFN1PB9TUA","emotion","mismatch","uniform","","","","","","","1491","258281","259772","[""stimuli/HM02_DO.jpg"",""stimuli/HM07_AO.jpg"",""stimuli/AM05_FO.jpg"",""stimuli/WM13_HE.jpg""]","stimuli/HM02_DO.jpg","stimuli/HM07_AO.jpg","stimuli/AM05_FO.jpg","stimuli/WM13_HE.jpg","pos4","stimuli/WM13_HE.jpg","HE","WM13","3","2","4","6","stimuli/stars_4.png","135.5","[""DO"",""AO"",""FO"",""HE""]","[""HM02"",""HM07"",""AM05"",""WM13""]","[2,10,3,4]","[4,8,2,6]","","",""
"show-reward","98","260685","0.0-98.0","p780745","A38I0E8UK53ME5","3P888QFVX40Z2B7BK75OWKP045JQOK","3Y54SXRO1NRAUGHUNZGTPFN1PB9TUA","emotion","mismatch","uniform","","","","","","","","260287","262293","","","","","","","","","","","","4","","stimuli/stars_4.png","135.5","","","","","stimuli/WM13_HE.jpg","",""
"explore-choice","99","262274","0.0-99.0","p780745","A38I0E8UK53ME5","3P888QFVX40Z2B7BK75OWKP045JQOK","3Y54SXRO1NRAUGHUNZGTPFN1PB9TUA","emotion","mismatch","uniform","","","","","","","1088","262293","263381","[""stimuli/HM02_DO.jpg"",""stimuli/AM05_HE.jpg"",""stimuli/HM07_AO.jpg"",""stimuli/WM13_FO.jpg""]","stimuli/HM02_DO.jpg","stimuli/AM05_HE.jpg","stimuli/HM07_AO.jpg","stimuli/WM13_FO.jpg","pos2","stimuli/AM05_HE.jpg","HE","AM05","1","2","4","6","stimuli/stars_4.png","137.5","[""DO"",""HE"",""AO"",""FO""]","[""HM02"",""AM05"",""HM07"",""WM13""]","[5,4,10,2]","[4,6,8,2]","","",""
"show-reward","100","264281","0.0-100.0","p780745","A38I0E8UK53ME5","3P888QFVX40Z2B7BK75OWKP045JQOK","3Y54SXRO1NRAUGHUNZGTPFN1PB9TUA","emotion","mismatch","uniform","","","","","","","","263883","265889","","","","","","","","","","","","4","","stimuli/stars_4.png","137.5","","","","","stimuli/AM05_HE.jpg","",""
"explore-choice","101","265732","0.0-101.0","p780745","A38I0E8UK53ME5","3P888QFVX40Z2B7BK75OWKP045JQOK","3Y54SXRO1NRAUGHUNZGTPFN1PB9TUA","emotion","mismatch","uniform","","","","","","","939","265890","266829","[""stimuli/WM13_HE.jpg"",""stimuli/AM05_FO.jpg"",""stimuli/HM02_AO.jpg"",""stimuli/HM07_DO.jpg""]","stimuli/WM13_HE.jpg","stimuli/AM05_FO.jpg","stimuli/HM02_AO.jpg","stimuli/HM07_DO.jpg","pos2","stimuli/AM05_FO.jpg","FO","AM05","1","1.5","3","2","stimuli/stars_3.png","139","[""HE"",""FO"",""AO"",""DO""]","[""WM13"",""AM05"",""HM02"",""HM07""]","[6,3,6,5]","[6,2,8,4]","","",""
"show-reward","102","267738","0.0-102.0","p780745","A38I0E8UK53ME5","3P888QFVX40Z2B7BK75OWKP045JQOK","3Y54SXRO1NRAUGHUNZGTPFN1PB9TUA","emotion","mismatch","uniform","","","","","","","","267341","269345","","","","","","","","","","","","3","","stimuli/stars_3.png","139","","","","","stimuli/AM05_FO.jpg","",""
"explore-choice","103","270429","0.0-103.0","p780745","A38I0E8UK53ME5","3P888QFVX40Z2B7BK75OWKP045JQOK","3Y54SXRO1NRAUGHUNZGTPFN1PB9TUA","emotion","mismatch","uniform","","","","","","","2184","269346","271530","[""stimuli/HF09_HO.jpg"",""stimuli/WM07_SC.jpg"",""stimuli/BF08_CC.jpg"",""stimuli/BM04_SUR.jpg""]","stimuli/HF09_HO.jpg","stimuli/WM07_SC.jpg","stimuli/BF08_CC.jpg","stimuli/BM04_SUR.jpg","pos1","stimuli/HF09_HO.jpg","HO","HF09","0","3.5","7","6","stimuli/stars_7.png","142.5","[""HO"",""SC"",""CC"",""SUR""]","[""HF09"",""WM07"",""BF08"",""BM04""]","[7,4,0,7]","[6,4,2,8]","","",""
"show-reward","104","272436","0.0-104.0","p780745","A38I0E8UK53ME5","3P888QFVX40Z2B7BK75OWKP045JQOK","3Y54SXRO1NRAUGHUNZGTPFN1PB9TUA","emotion","mismatch","uniform","","","","","","","","272038","274044","","","","","","","","","","","","7","","stimuli/stars_7.png","142.5","","","","","stimuli/HF09_HO.jpg","",""
"explore-choice","105","274545","0.0-105.0","p780745","A38I0E8UK53ME5","3P888QFVX40Z2B7BK75OWKP045JQOK","3Y54SXRO1NRAUGHUNZGTPFN1PB9TUA","emotion","mismatch","uniform","","","","","","","1597","274045","275642","[""stimuli/BM04_SC.jpg"",""stimuli/BF08_SUR.jpg"",""stimuli/WM07_CC.jpg"",""stimuli/HF09_HO.jpg""]","stimuli/BM04_SC.jpg","stimuli/BF08_SUR.jpg","stimuli/WM07_CC.jpg","stimuli/HF09_HO.jpg","pos4","stimuli/HF09_HO.jpg","HO","HF09","3","2","4","6","stimuli/stars_4.png","144.5","[""SC"",""SUR"",""CC"",""HO""]","[""BM04"",""BF08"",""WM07"",""HF09""]","[10,3,5,4]","[8,2,4,6]","","",""
"show-reward","106","276553","0.0-106.0","p780745","A38I0E8UK53ME5","3P888QFVX40Z2B7BK75OWKP045JQOK","3Y54SXRO1NRAUGHUNZGTPFN1PB9TUA","emotion","mismatch","uniform","","","","","","","","276154","278162","","","","","","","","","","","","4","","stimuli/stars_4.png","144.5","","","","","stimuli/HF09_HO.jpg","",""
"explore-choice","107","278406","0.0-107.0","p780745","A38I0E8UK53ME5","3P888QFVX40Z2B7BK75OWKP045JQOK","3Y54SXRO1NRAUGHUNZGTPFN1PB9TUA","emotion","mismatch","uniform","","","","","","","1348","278162","279510","[""stimuli/BF08_HO.jpg"",""stimuli/WM07_SC.jpg"",""stimuli/HF09_SUR.jpg"",""stimuli/BM04_CC.jpg""]","stimuli/BF08_HO.jpg","stimuli/WM07_SC.jpg","stimuli/HF09_SUR.jpg","stimuli/BM04_CC.jpg","pos1","stimuli/BF08_HO.jpg","HO","BF08","0","0","0","2","stimuli/stars_0.png","144.5","[""HO"",""SC"",""SUR"",""CC""]","[""BF08"",""WM07"",""HF09"",""BM04""]","[0,3,6,10]","[2,4,6,8]","","",""
"show-reward","108","280412","0.0-108.0","p780745","A38I0E8UK53ME5","3P888QFVX40Z2B7BK75OWKP045JQOK","3Y54SXRO1NRAUGHUNZGTPFN1PB9TUA","emotion","mismatch","uniform","","","","","","","","280015","282020","","","","","","","","","","","","0","","stimuli/stars_0.png","144.5","","","","","stimuli/BF08_HO.jpg","",""
"explore-choice","109","283174","0.0-109.0","p780745","A38I0E8UK53ME5","3P888QFVX40Z2B7BK75OWKP045JQOK","3Y54SXRO1NRAUGHUNZGTPFN1PB9TUA","emotion","mismatch","uniform","","","","","","","2254","282020","284274","[""stimuli/BM04_SC.jpg"",""stimuli/BF08_SUR.jpg"",""stimuli/WM07_HO.jpg"",""stimuli/HF09_CC.jpg""]","stimuli/BM04_SC.jpg","stimuli/BF08_SUR.jpg","stimuli/WM07_HO.jpg","stimuli/HF09_CC.jpg","pos3","stimuli/WM07_HO.jpg","HO","WM07","2","1.5","3","4","stimuli/stars_3.png","146","[""SC"",""SUR"",""HO"",""CC""]","[""BM04"",""BF08"",""WM07"",""HF09""]","[10,3,3,6]","[8,2,4,6]","","",""
"show-reward","110","285181","0.0-110.0","p780745","A38I0E8UK53ME5","3P888QFVX40Z2B7BK75OWKP045JQOK","3Y54SXRO1NRAUGHUNZGTPFN1PB9TUA","emotion","mismatch","uniform","","","","","","","","284782","286790","","","","","","","","","","","","3","","stimuli/stars_3.png","146","","","","","stimuli/WM07_HO.jpg","",""
"explore-choice","111","288074","0.0-111.0","p780745","A38I0E8UK53ME5","3P888QFVX40Z2B7BK75OWKP045JQOK","3Y54SXRO1NRAUGHUNZGTPFN1PB9TUA","emotion","mismatch","uniform","","","","","","","2382","286790","289172","[""stimuli/BM04_HO.jpg"",""stimuli/BF08_SC.jpg"",""stimuli/HF09_SUR.jpg"",""stimuli/WM07_CC.jpg""]","stimuli/BM04_HO.jpg","stimuli/BF08_SC.jpg","stimuli/HF09_SUR.jpg","stimuli/WM07_CC.jpg","pos3","stimuli/HF09_SUR.jpg","SUR","HF09","2","2","4","6","stimuli/stars_4.png","148","[""HO"",""SC"",""SUR"",""CC""]","[""BM04"",""BF08"",""HF09"",""WM07""]","[9,0,4,4]","[8,2,6,4]","","",""
"show-reward","112","290082","0.0-112.0","p780745","A38I0E8UK53ME5","3P888QFVX40Z2B7BK75OWKP045JQOK","3Y54SXRO1NRAUGHUNZGTPFN1PB9TUA","emotion","mismatch","uniform","","","","","","","","289683","291690","","","","","","","","","","","","4","","stimuli/stars_4.png","148","","","","","stimuli/HF09_SUR.jpg","",""
"explore-choice","113","292922","0.0-113.0","p780745","A38I0E8UK53ME5","3P888QFVX40Z2B7BK75OWKP045JQOK","3Y54SXRO1NRAUGHUNZGTPFN1PB9TUA","emotion","mismatch","uniform","","","","","","","2331","291691","294022","[""stimuli/BF08_CC.jpg"",""stimuli/BM04_HO.jpg"",""stimuli/HF09_SC.jpg"",""stimuli/WM07_SUR.jpg""]","stimuli/BF08_CC.jpg","stimuli/BM04_HO.jpg","stimuli/HF09_SC.jpg","stimuli/WM07_SUR.jpg","pos4","stimuli/WM07_SUR.jpg","SUR","WM07","3","2","4","4","stimuli/stars_4.png","150","[""CC"",""HO"",""SC"",""SUR""]","[""BF08"",""BM04"",""HF09"",""WM07""]","[3,7,6,4]","[2,8,6,4]","","",""
"show-reward","114","294931","0.0-114.0","p780745","A38I0E8UK53ME5","3P888QFVX40Z2B7BK75OWKP045JQOK","3Y54SXRO1NRAUGHUNZGTPFN1PB9TUA","emotion","mismatch","uniform","","","","","","","","294530","296539","","","","","","","","","","","","4","","stimuli/stars_4.png","150","","","","","stimuli/WM07_SUR.jpg","",""
"explore-choice","115","297169","0.0-115.0","p780745","A38I0E8UK53ME5","3P888QFVX40Z2B7BK75OWKP045JQOK","3Y54SXRO1NRAUGHUNZGTPFN1PB9TUA","emotion","mismatch","uniform","","","","","","","1736","296540","298276","[""stimuli/BF08_SC.jpg"",""stimuli/HF09_CC.jpg"",""stimuli/WM07_SUR.jpg"",""stimuli/BM04_HO.jpg""]","stimuli/BF08_SC.jpg","stimuli/HF09_CC.jpg","stimuli/WM07_SUR.jpg","stimuli/BM04_HO.jpg","pos4","stimuli/BM04_HO.jpg","HO","BM04","3","3","6","8","stimuli/stars_6.png","153","[""SC"",""CC"",""SUR"",""HO""]","[""BF08"",""HF09"",""WM07"",""BM04""]","[3,6,3,6]","[2,6,4,8]","","",""
"show-reward","116","299175","0.0-116.0","p780745","A38I0E8UK53ME5","3P888QFVX40Z2B7BK75OWKP045JQOK","3Y54SXRO1NRAUGHUNZGTPFN1PB9TUA","emotion","mismatch","uniform","","","","","","","","298778","300784","","","","","","","","","","","","6","","stimuli/stars_6.png","153","","","","","stimuli/BM04_HO.jpg","",""
"explore-choice","117","301082","0.0-117.0","p780745","A38I0E8UK53ME5","3P888QFVX40Z2B7BK75OWKP045JQOK","3Y54SXRO1NRAUGHUNZGTPFN1PB9TUA","emotion","mismatch","uniform","","","","","","","1404","300784","302188","[""stimuli/BF08_SUR.jpg"",""stimuli/HF09_HO.jpg"",""stimuli/BM04_CC.jpg"",""stimuli/WM07_SC.jpg""]","stimuli/BF08_SUR.jpg","stimuli/HF09_HO.jpg","stimuli/BM04_CC.jpg","stimuli/WM07_SC.jpg","pos3","stimuli/BM04_CC.jpg","CC","BM04","2","3.5","7","8","stimuli/stars_7.png","156.5","[""SUR"",""HO"",""CC"",""SC""]","[""BF08"",""HF09"",""BM04"",""WM07""]","[3,7,7,2]","[2,6,8,4]","","",""
"show-reward","118","303089","0.0-118.0","p780745","A38I0E8UK53ME5","3P888QFVX40Z2B7BK75OWKP045JQOK","3Y54SXRO1NRAUGHUNZGTPFN1PB9TUA","emotion","mismatch","uniform","","","","","","","","302692","304697","","","","","","","","","","","","7","","stimuli/stars_7.png","156.5","","","","","stimuli/BM04_CC.jpg","",""
"explore-choice","119","304626","0.0-119.0","p780745","A38I0E8UK53ME5","3P888QFVX40Z2B7BK75OWKP045JQOK","3Y54SXRO1NRAUGHUNZGTPFN1PB9TUA","emotion","mismatch","uniform","","","","","","","1035","304697","305732","[""stimuli/WM07_HO.jpg"",""stimuli/HF09_SUR.jpg"",""stimuli/BM04_CC.jpg"",""stimuli/BF08_SC.jpg""]","stimuli/WM07_HO.jpg","stimuli/HF09_SUR.jpg","stimuli/BM04_CC.jpg","stimuli/BF08_SC.jpg","pos3","stimuli/BM04_CC.jpg","CC","BM04","2","4","8","8","stimuli/stars_8.png","160.5","[""HO"",""SUR"",""CC"",""SC""]","[""WM07"",""HF09"",""BM04"",""BF08""]","[3,5,8,4]","[4,6,8,2]","","",""
"show-reward","120","306633","0.0-120.0","p780745","A38I0E8UK53ME5","3P888QFVX40Z2B7BK75OWKP045JQOK","3Y54SXRO1NRAUGHUNZGTPFN1PB9TUA","emotion","mismatch","uniform","","","","","","","","306235","308242","","","","","","","","","","","","8","","stimuli/stars_8.png","160.5","","","","","stimuli/BM04_CC.jpg","",""
"explore-choice","121","308291","0.0-121.0","p780745","A38I0E8UK53ME5","3P888QFVX40Z2B7BK75OWKP045JQOK","3Y54SXRO1NRAUGHUNZGTPFN1PB9TUA","emotion","mismatch","uniform","","","","","","","1152","308242","309394","[""stimuli/HF09_CC.jpg"",""stimuli/WM07_SC.jpg"",""stimuli/BM04_HO.jpg"",""stimuli/BF08_SUR.jpg""]","stimuli/HF09_CC.jpg","stimuli/WM07_SC.jpg","stimuli/BM04_HO.jpg","stimuli/BF08_SUR.jpg","pos3","stimuli/BM04_HO.jpg","HO","BM04","2","3.5","7","8","stimuli/stars_7.png","164","[""CC"",""SC"",""HO"",""SUR""]","[""HF09"",""WM07"",""BM04"",""BF08""]","[6,3,7,2]","[6,4,8,2]","","",""
"show-reward","122","310299","0.0-122.0","p780745","A38I0E8UK53ME5","3P888QFVX40Z2B7BK75OWKP045JQOK","3Y54SXRO1NRAUGHUNZGTPFN1PB9TUA","emotion","mismatch","uniform","","","","","","","","309901","311908","","","","","","","","","","","","7","","stimuli/stars_7.png","164","","","","","stimuli/BM04_HO.jpg","",""
"explore-choice","123","311674","0.0-123.0","p780745","A38I0E8UK53ME5","3P888QFVX40Z2B7BK75OWKP045JQOK","3Y54SXRO1NRAUGHUNZGTPFN1PB9TUA","emotion","mismatch","uniform","","","","","","","868","311908","312776","[""stimuli/BF08_CC.jpg"",""stimuli/HF09_SUR.jpg"",""stimuli/WM07_SC.jpg"",""stimuli/BM04_HO.jpg""]","stimuli/BF08_CC.jpg","stimuli/HF09_SUR.jpg","stimuli/WM07_SC.jpg","stimuli/BM04_HO.jpg","pos4","stimuli/BM04_HO.jpg","HO","BM04","3","4","8","8","stimuli/stars_8.png","168","[""CC"",""SUR"",""SC"",""HO""]","[""BF08"",""HF09"",""WM07"",""BM04""]","[1,6,3,8]","[2,6,4,8]","","",""
"show-reward","124","313680","0.0-124.0","p780745","A38I0E8UK53ME5","3P888QFVX40Z2B7BK75OWKP045JQOK","3Y54SXRO1NRAUGHUNZGTPFN1PB9TUA","emotion","mismatch","uniform","","","","","","","","313282","315289","","","","","","","","","","","","8","","stimuli/stars_8.png","168","","","","","stimuli/BM04_HO.jpg","",""
"explore-choice","125","315231","0.0-125.0","p780745","A38I0E8UK53ME5","3P888QFVX40Z2B7BK75OWKP045JQOK","3Y54SXRO1NRAUGHUNZGTPFN1PB9TUA","emotion","mismatch","uniform","","","","","","","1037","315289","316326","[""stimuli/HF09_SC.jpg"",""stimuli/WM07_CC.jpg"",""stimuli/BF08_HO.jpg"",""stimuli/BM04_SUR.jpg""]","stimuli/HF09_SC.jpg","stimuli/WM07_CC.jpg","stimuli/BF08_HO.jpg","stimuli/BM04_SUR.jpg","pos4","stimuli/BM04_SUR.jpg","SUR","BM04","3","4.5","9","8","stimuli/stars_9.png","172.5","[""SC"",""CC"",""HO"",""SUR""]","[""HF09"",""WM07"",""BF08"",""BM04""]","[5,3,4,9]","[6,4,2,8]","","",""
"show-reward","126","317238","0.0-126.0","p780745","A38I0E8UK53ME5","3P888QFVX40Z2B7BK75OWKP045JQOK","3Y54SXRO1NRAUGHUNZGTPFN1PB9TUA","emotion","mismatch","uniform","","","","","","","","316840","318847","","","","","","","","","","","","9","","stimuli/stars_9.png","172.5","","","","","stimuli/BM04_SUR.jpg","",""
"explore-choice","127","319115","0.0-127.0","p780745","A38I0E8UK53ME5","3P888QFVX40Z2B7BK75OWKP045JQOK","3Y54SXRO1NRAUGHUNZGTPFN1PB9TUA","emotion","mismatch","uniform","","","","","","","1372","318848","320220","[""stimuli/BM04_SC.jpg"",""stimuli/HF09_CC.jpg"",""stimuli/BF08_HO.jpg"",""stimuli/WM07_SUR.jpg""]","stimuli/BM04_SC.jpg","stimuli/HF09_CC.jpg","stimuli/BF08_HO.jpg","stimuli/WM07_SUR.jpg","pos1","stimuli/BM04_SC.jpg","SC","BM04","0","3","6","8","stimuli/stars_6.png","175.5","[""SC"",""CC"",""HO"",""SUR""]","[""BM04"",""HF09"",""BF08"",""WM07""]","[6,6,3,5]","[8,6,2,4]","","",""
"show-reward","128","321122","0.0-128.0","p780745","A38I0E8UK53ME5","3P888QFVX40Z2B7BK75OWKP045JQOK","3Y54SXRO1NRAUGHUNZGTPFN1PB9TUA","emotion","mismatch","uniform","","","","","","","","320724","322730","","","","","","","","","","","","6","","stimuli/stars_6.png","175.5","","","","","stimuli/BM04_SC.jpg","",""
"explore-choice","129","322226","0.0-129.0","p780745","A38I0E8UK53ME5","3P888QFVX40Z2B7BK75OWKP045JQOK","3Y54SXRO1NRAUGHUNZGTPFN1PB9TUA","emotion","mismatch","uniform","","","","","","","600","322731","323331","[""stimuli/BM04_SC.jpg"",""stimuli/WM07_HO.jpg"",""stimuli/BF08_CC.jpg"",""stimuli/HF09_SUR.jpg""]","stimuli/BM04_SC.jpg","stimuli/WM07_HO.jpg","stimuli/BF08_CC.jpg","stimuli/HF09_SUR.jpg","pos1","stimuli/BM04_SC.jpg","SC","BM04","0","4.5","9","8","stimuli/stars_9.png","180","[""SC"",""HO"",""CC"",""SUR""]","[""BM04"",""WM07"",""BF08"",""HF09""]","[9,3,4,8]","[8,4,2,6]","","",""
"show-reward","130","324235","0.0-130.0","p780745","A38I0E8UK53ME5","3P888QFVX40Z2B7BK75OWKP045JQOK","3Y54SXRO1NRAUGHUNZGTPFN1PB9TUA","emotion","mismatch","uniform","","","","","","","","323835","325843","","","","","","","","","","","","9","","stimuli/stars_9.png","180","","","","","stimuli/BM04_SC.jpg","",""
"explore-choice","131","326069","0.0-131.0","p780745","A38I0E8UK53ME5","3P888QFVX40Z2B7BK75OWKP045JQOK","3Y54SXRO1NRAUGHUNZGTPFN1PB9TUA","emotion","mismatch","uniform","","","","","","","1319","325844","327163","[""stimuli/BF08_CC.jpg"",""stimuli/WM07_HO.jpg"",""stimuli/BM04_SUR.jpg"",""stimuli/HF09_SC.jpg""]","stimuli/BF08_CC.jpg","stimuli/WM07_HO.jpg","stimuli/BM04_SUR.jpg","stimuli/HF09_SC.jpg","pos3","stimuli/BM04_SUR.jpg","SUR","BM04","2","3","6","8","stimuli/stars_6.png","183","[""CC"",""HO"",""SUR"",""SC""]","[""BF08"",""WM07"",""BM04"",""HF09""]","[0,6,6,6]","[2,4,8,6]","","",""
"show-reward","132","328078","0.0-132.0","p780745","A38I0E8UK53ME5","3P888QFVX40Z2B7BK75OWKP045JQOK","3Y54SXRO1NRAUGHUNZGTPFN1PB9TUA","emotion","mismatch","uniform","","","","","","","","327678","329685","","","","","","","","","","","","6","","stimuli/stars_6.png","183","","","","","stimuli/BM04_SUR.jpg","",""
"explore-choice","133","329334","0.0-133.0","p780745","A38I0E8UK53ME5","3P888QFVX40Z2B7BK75OWKP045JQOK","3Y54SXRO1NRAUGHUNZGTPFN1PB9TUA","emotion","mismatch","uniform","","","","","","","746","329686","330432","[""stimuli/HF09_HO.jpg"",""stimuli/BF08_SC.jpg"",""stimuli/BM04_CC.jpg"",""stimuli/WM07_SUR.jpg""]","stimuli/HF09_HO.jpg","stimuli/BF08_SC.jpg","stimuli/BM04_CC.jpg","stimuli/WM07_SUR.jpg","pos3","stimuli/BM04_CC.jpg","CC","BM04","2","3","6","8","stimuli/stars_6.png","186","[""HO"",""SC"",""CC"",""SUR""]","[""HF09"",""BF08"",""BM04"",""WM07""]","[5,2,6,5]","[6,2,8,4]","","",""
"show-reward","134","331342","0.0-134.0","p780745","A38I0E8UK53ME5","3P888QFVX40Z2B7BK75OWKP045JQOK","3Y54SXRO1NRAUGHUNZGTPFN1PB9TUA","emotion","mismatch","uniform","","","","","","","","330942","332950","","","","","","","","","","","","6","","stimuli/stars_6.png","186","","","","","stimuli/BM04_CC.jpg","",""
"explore-choice","135","332792","0.0-135.0","p780745","A38I0E8UK53ME5","3P888QFVX40Z2B7BK75OWKP045JQOK","3Y54SXRO1NRAUGHUNZGTPFN1PB9TUA","emotion","mismatch","uniform","","","","","","","945","332951","333896","[""stimuli/HF09_SC.jpg"",""stimuli/BF08_SUR.jpg"",""stimuli/WM07_CC.jpg"",""stimuli/BM04_HO.jpg""]","stimuli/HF09_SC.jpg","stimuli/BF08_SUR.jpg","stimuli/WM07_CC.jpg","stimuli/BM04_HO.jpg","pos4","stimuli/BM04_HO.jpg","HO","BM04","3","4.5","9","8","stimuli/stars_9.png","190.5","[""SC"",""SUR"",""CC"",""HO""]","[""HF09"",""BF08"",""WM07"",""BM04""]","[6,3,5,9]","[6,2,4,8]","","",""
"show-reward","136","334800","0.0-136.0","p780745","A38I0E8UK53ME5","3P888QFVX40Z2B7BK75OWKP045JQOK","3Y54SXRO1NRAUGHUNZGTPFN1PB9TUA","emotion","mismatch","uniform","","","","","","","","334402","336409","","","","","","","","","","","","9","","stimuli/stars_9.png","190.5","","","","","stimuli/BM04_HO.jpg","",""
"explore-choice","137","336188","0.0-137.0","p780745","A38I0E8UK53ME5","3P888QFVX40Z2B7BK75OWKP045JQOK","3Y54SXRO1NRAUGHUNZGTPFN1PB9TUA","emotion","mismatch","uniform","","","","","","","883","336409","337292","[""stimuli/WM07_HO.jpg"",""stimuli/BF08_SUR.jpg"",""stimuli/BM04_CC.jpg"",""stimuli/HF09_SC.jpg""]","stimuli/WM07_HO.jpg","stimuli/BF08_SUR.jpg","stimuli/BM04_CC.jpg","stimuli/HF09_SC.jpg","pos3","stimuli/BM04_CC.jpg","CC","BM04","2","4","8","8","stimuli/stars_8.png","194.5","[""HO"",""SUR"",""CC"",""SC""]","[""WM07"",""BF08"",""BM04"",""HF09""]","[6,2,8,5]","[4,2,8,6]","","",""
"show-reward","138","338194","0.0-138.0","p780745","A38I0E8UK53ME5","3P888QFVX40Z2B7BK75OWKP045JQOK","3Y54SXRO1NRAUGHUNZGTPFN1PB9TUA","emotion","mismatch","uniform","","","","","","","","337797","339803","","","","","","","","","","","","8","","stimuli/stars_8.png","194.5","","","","","stimuli/BM04_CC.jpg","",""
"explore-choice","139","339699","0.0-139.0","p780745","A38I0E8UK53ME5","3P888QFVX40Z2B7BK75OWKP045JQOK","3Y54SXRO1NRAUGHUNZGTPFN1PB9TUA","emotion","mismatch","uniform","","","","","","","1001","339803","340804","[""stimuli/BF08_HO.jpg"",""stimuli/BM04_CC.jpg"",""stimuli/HF09_SC.jpg"",""stimuli/WM07_SUR.jpg""]","stimuli/BF08_HO.jpg","stimuli/BM04_CC.jpg","stimuli/HF09_SC.jpg","stimuli/WM07_SUR.jpg","pos2","stimuli/BM04_CC.jpg","CC","BM04","1","3.5","7","8","stimuli/stars_7.png","198","[""HO"",""CC"",""SC"",""SUR""]","[""BF08"",""BM04"",""HF09"",""WM07""]","[1,7,8,3]","[2,8,6,4]","","",""
"show-reward","140","341708","0.0-140.0","p780745","A38I0E8UK53ME5","3P888QFVX40Z2B7BK75OWKP045JQOK","3Y54SXRO1NRAUGHUNZGTPFN1PB9TUA","emotion","mismatch","uniform","","","","","","","","341309","343316","","","","","","","","","","","","7","","stimuli/stars_7.png","198","","","","","stimuli/BM04_CC.jpg","",""
"explore-choice","141","343081","0.0-141.0","p780745","A38I0E8UK53ME5","3P888QFVX40Z2B7BK75OWKP045JQOK","3Y54SXRO1NRAUGHUNZGTPFN1PB9TUA","emotion","mismatch","uniform","","","","","","","851","343317","344168","[""stimuli/HF09_HO.jpg"",""stimuli/BF08_SC.jpg"",""stimuli/WM07_CC.jpg"",""stimuli/BM04_SUR.jpg""]","stimuli/HF09_HO.jpg","stimuli/BF08_SC.jpg","stimuli/WM07_CC.jpg","stimuli/BM04_SUR.jpg","pos4","stimuli/BM04_SUR.jpg","SUR","BM04","3","3","6","8","stimuli/stars_6.png","201","[""HO"",""SC"",""CC"",""SUR""]","[""HF09"",""BF08"",""WM07"",""BM04""]","[6,3,4,6]","[6,2,4,8]","","",""
"show-reward","142","345090","0.0-142.0","p780745","A38I0E8UK53ME5","3P888QFVX40Z2B7BK75OWKP045JQOK","3Y54SXRO1NRAUGHUNZGTPFN1PB9TUA","emotion","mismatch","uniform","","","","","","","","344690","346698","","","","","","","","","","","","6","","stimuli/stars_6.png","201","","","","","stimuli/BM04_SUR.jpg","",""
"explore-choice","143","346711","0.0-143.0","p780745","A38I0E8UK53ME5","3P888QFVX40Z2B7BK75OWKP045JQOK","3Y54SXRO1NRAUGHUNZGTPFN1PB9TUA","emotion","mismatch","uniform","","","","","","","1114","346698","347812","[""stimuli/BM04_SUR.jpg"",""stimuli/WM07_HO.jpg"",""stimuli/BF08_SC.jpg"",""stimuli/HF09_CC.jpg""]","stimuli/BM04_SUR.jpg","stimuli/WM07_HO.jpg","stimuli/BF08_SC.jpg","stimuli/HF09_CC.jpg","pos1","stimuli/BM04_SUR.jpg","SUR","BM04","0","4","8","8","stimuli/stars_8.png","205","[""SUR"",""HO"",""SC"",""CC""]","[""BM04"",""WM07"",""BF08"",""HF09""]","[8,3,4,7]","[8,4,2,6]","","",""
"show-reward","144","348718","0.0-144.0","p780745","A38I0E8UK53ME5","3P888QFVX40Z2B7BK75OWKP045JQOK","3Y54SXRO1NRAUGHUNZGTPFN1PB9TUA","emotion","mismatch","uniform","","","","","","","","348320","350327","","","","","","","","","","","","8","","stimuli/stars_8.png","205","","","","","stimuli/BM04_SUR.jpg","",""
"explore-choice","145","350239","0.0-145.0","p780745","A38I0E8UK53ME5","3P888QFVX40Z2B7BK75OWKP045JQOK","3Y54SXRO1NRAUGHUNZGTPFN1PB9TUA","emotion","mismatch","uniform","","","","","","","1011","350327","351338","[""stimuli/BF08_HO.jpg"",""stimuli/WM07_SC.jpg"",""stimuli/HF09_CC.jpg"",""stimuli/BM04_SUR.jpg""]","stimuli/BF08_HO.jpg","stimuli/WM07_SC.jpg","stimuli/HF09_CC.jpg","stimuli/BM04_SUR.jpg","pos4","stimuli/BM04_SUR.jpg","SUR","BM04","3","4.5","9","8","stimuli/stars_9.png","209.5","[""HO"",""SC"",""CC"",""SUR""]","[""BF08"",""WM07"",""HF09"",""BM04""]","[1,3,5,9]","[2,4,6,8]","","",""
"show-reward","146","352248","0.0-146.0","p780745","A38I0E8UK53ME5","3P888QFVX40Z2B7BK75OWKP045JQOK","3Y54SXRO1NRAUGHUNZGTPFN1PB9TUA","emotion","mismatch","uniform","","","","","","","","351848","353856","","","","","","","","","","","","9","","stimuli/stars_9.png","209.5","","","","","stimuli/BM04_SUR.jpg","",""
"explore-choice","147","353469","0.0-147.0","p780745","A38I0E8UK53ME5","3P888QFVX40Z2B7BK75OWKP045JQOK","3Y54SXRO1NRAUGHUNZGTPFN1PB9TUA","emotion","mismatch","uniform","","","","","","","707","353857","354564","[""stimuli/HF09_HO.jpg"",""stimuli/BF08_CC.jpg"",""stimuli/WM07_SUR.jpg"",""stimuli/BM04_SC.jpg""]","stimuli/HF09_HO.jpg","stimuli/BF08_CC.jpg","stimuli/WM07_SUR.jpg","stimuli/BM04_SC.jpg","pos4","stimuli/BM04_SC.jpg","SC","BM04","3","5","10","8","stimuli/stars_10.png","214.5","[""HO"",""CC"",""SUR"",""SC""]","[""HF09"",""BF08"",""WM07"",""BM04""]","[4,0,6,10]","[6,2,4,8]","","",""
"show-reward","148","355477","0.0-148.0","p780745","A38I0E8UK53ME5","3P888QFVX40Z2B7BK75OWKP045JQOK","3Y54SXRO1NRAUGHUNZGTPFN1PB9TUA","emotion","mismatch","uniform","","","","","","","","355078","357085","","","","","","","","","","","","10","","stimuli/stars_10.png","214.5","","","","","stimuli/BM04_SC.jpg","",""
"explore-choice","149","356667","0.0-149.0","p780745","A38I0E8UK53ME5","3P888QFVX40Z2B7BK75OWKP045JQOK","3Y54SXRO1NRAUGHUNZGTPFN1PB9TUA","emotion","mismatch","uniform","","","","","","","688","357086","357774","[""stimuli/WM07_CC.jpg"",""stimuli/HF09_SUR.jpg"",""stimuli/BF08_HO.jpg"",""stimuli/BM04_SC.jpg""]","stimuli/WM07_CC.jpg","stimuli/HF09_SUR.jpg","stimuli/BF08_HO.jpg","stimuli/BM04_SC.jpg","pos4","stimuli/BM04_SC.jpg","SC","BM04","3","5","10","8","stimuli/stars_10.png","219.5","[""CC"",""SUR"",""HO"",""SC""]","[""WM07"",""HF09"",""BF08"",""BM04""]","[6,6,2,10]","[4,6,2,8]","","",""
"show-reward","150","358674","0.0-150.0","p780745","A38I0E8UK53ME5","3P888QFVX40Z2B7BK75OWKP045JQOK","3Y54SXRO1NRAUGHUNZGTPFN1PB9TUA","emotion","mismatch","uniform","","","","","","","","358275","360283","","","","","","","","","","","","10","","stimuli/stars_10.png","219.5","","","","","stimuli/BM04_SC.jpg","",""
"explore-choice","151","359826","0.0-151.0","p780745","A38I0E8UK53ME5","3P888QFVX40Z2B7BK75OWKP045JQOK","3Y54SXRO1NRAUGHUNZGTPFN1PB9TUA","emotion","mismatch","uniform","","","","","","","640","360283","360923","[""stimuli/WM07_CC.jpg"",""stimuli/BF08_SC.jpg"",""stimuli/HF09_SUR.jpg"",""stimuli/BM04_HO.jpg""]","stimuli/WM07_CC.jpg","stimuli/BF08_SC.jpg","stimuli/HF09_SUR.jpg","stimuli/BM04_HO.jpg","pos4","stimuli/BM04_HO.jpg","HO","BM04","3","4.5","9","8","stimuli/stars_9.png","224","[""CC"",""SC"",""SUR"",""HO""]","[""WM07"",""BF08"",""HF09"",""BM04""]","[4,0,4,9]","[4,2,6,8]","","",""
"show-reward","152","361834","0.0-152.0","p780745","A38I0E8UK53ME5","3P888QFVX40Z2B7BK75OWKP045JQOK","3Y54SXRO1NRAUGHUNZGTPFN1PB9TUA","emotion","mismatch","uniform","","","","","","","","361435","363443","","","","","","","","","","","","9","","stimuli/stars_9.png","224","","","","","stimuli/BM04_HO.jpg","",""
"explore-choice","153","362939","0.0-153.0","p780745","A38I0E8UK53ME5","3P888QFVX40Z2B7BK75OWKP045JQOK","3Y54SXRO1NRAUGHUNZGTPFN1PB9TUA","emotion","mismatch","uniform","","","","","","","595","363443","364038","[""stimuli/BF08_CC.jpg"",""stimuli/WM07_SC.jpg"",""stimuli/HF09_HO.jpg"",""stimuli/BM04_SUR.jpg""]","stimuli/BF08_CC.jpg","stimuli/WM07_SC.jpg","stimuli/HF09_HO.jpg","stimuli/BM04_SUR.jpg","pos4","stimuli/BM04_SUR.jpg","SUR","BM04","3","3.5","7","8","stimuli/stars_7.png","227.5","[""CC"",""SC"",""HO"",""SUR""]","[""BF08"",""WM07"",""HF09"",""BM04""]","[0,4,7,7]","[2,4,6,8]","","",""
"show-reward","154","364949","0.0-154.0","p780745","A38I0E8UK53ME5","3P888QFVX40Z2B7BK75OWKP045JQOK","3Y54SXRO1NRAUGHUNZGTPFN1PB9TUA","emotion","mismatch","uniform","","","","","","","","364548","366556","","","","","","","","","","","","7","","stimuli/stars_7.png","227.5","","","","","stimuli/BM04_SUR.jpg","",""
"explore-choice","155","365953","0.0-155.0","p780745","A38I0E8UK53ME5","3P888QFVX40Z2B7BK75OWKP045JQOK","3Y54SXRO1NRAUGHUNZGTPFN1PB9TUA","emotion","mismatch","uniform","","","","","","","489","366557","367046","[""stimuli/BF08_SC.jpg"",""stimuli/HF09_CC.jpg"",""stimuli/WM07_SUR.jpg"",""stimuli/BM04_HO.jpg""]","stimuli/BF08_SC.jpg","stimuli/HF09_CC.jpg","stimuli/WM07_SUR.jpg","stimuli/BM04_HO.jpg","pos4","stimuli/BM04_HO.jpg","HO","BM04","3","3","6","8","stimuli/stars_6.png","230.5","[""SC"",""CC"",""SUR"",""HO""]","[""BF08"",""HF09"",""WM07"",""BM04""]","[3,6,3,6]","[2,6,4,8]","","",""
"show-reward","156","367961","0.0-156.0","p780745","A38I0E8UK53ME5","3P888QFVX40Z2B7BK75OWKP045JQOK","3Y54SXRO1NRAUGHUNZGTPFN1PB9TUA","emotion","mismatch","uniform","","","","","","","","367561","369569","","","","","","","","","","","","6","","stimuli/stars_6.png","230.5","","","","","stimuli/BM04_HO.jpg","",""
"explore-choice","157","368965","0.0-157.0","p780745","A38I0E8UK53ME5","3P888QFVX40Z2B7BK75OWKP045JQOK","3Y54SXRO1NRAUGHUNZGTPFN1PB9TUA","emotion","mismatch","uniform","","","","","","","490","369569","370059","[""stimuli/BF08_CC.jpg"",""stimuli/HF09_SC.jpg"",""stimuli/WM07_HO.jpg"",""stimuli/BM04_SUR.jpg""]","stimuli/BF08_CC.jpg","stimuli/HF09_SC.jpg","stimuli/WM07_HO.jpg","stimuli/BM04_SUR.jpg","pos4","stimuli/BM04_SUR.jpg","SUR","BM04","3","3","6","8","stimuli/stars_6.png","233.5","[""CC"",""SC"",""HO"",""SUR""]","[""BF08"",""HF09"",""WM07"",""BM04""]","[0,6,6,6]","[2,6,4,8]","","",""
"show-reward","158","370977","0.0-158.0","p780745","A38I0E8UK53ME5","3P888QFVX40Z2B7BK75OWKP045JQOK","3Y54SXRO1NRAUGHUNZGTPFN1PB9TUA","emotion","mismatch","uniform","","","","","","","","370573","372586","","","","","","","","","","","","6","","stimuli/stars_6.png","233.5","","","","","stimuli/BM04_SUR.jpg","",""
"explore-choice","159","372234","0.0-159.0","p780745","A38I0E8UK53ME5","3P888QFVX40Z2B7BK75OWKP045JQOK","3Y54SXRO1NRAUGHUNZGTPFN1PB9TUA","emotion","mismatch","uniform","","","","","","","748","372586","373334","[""stimuli/BF08_HO.jpg"",""stimuli/WM07_SUR.jpg"",""stimuli/HF09_CC.jpg"",""stimuli/BM04_SC.jpg""]","stimuli/BF08_HO.jpg","stimuli/WM07_SUR.jpg","stimuli/HF09_CC.jpg","stimuli/BM04_SC.jpg","pos4","stimuli/BM04_SC.jpg","SC","BM04","3","3","6","8","stimuli/stars_6.png","236.5","[""HO"",""SUR"",""CC"",""SC""]","[""BF08"",""WM07"",""HF09"",""BM04""]","[3,5,6,6]","[2,4,6,8]","","",""
"show-reward","160","374244","0.0-160.0","p780745","A38I0E8UK53ME5","3P888QFVX40Z2B7BK75OWKP045JQOK","3Y54SXRO1NRAUGHUNZGTPFN1PB9TUA","emotion","mismatch","uniform","","","","","","","","373843","375852","","","","","","","","","","","","6","","stimuli/stars_6.png","236.5","","","","","stimuli/BM04_SC.jpg","",""
"explore-choice","161","375209","0.0-161.0","p780745","A38I0E8UK53ME5","3P888QFVX40Z2B7BK75OWKP045JQOK","3Y54SXRO1NRAUGHUNZGTPFN1PB9TUA","emotion","mismatch","uniform","","","","","","","458","375852","376310","[""stimuli/WM07_SC.jpg"",""stimuli/BF08_SUR.jpg"",""stimuli/HF09_CC.jpg"",""stimuli/BM04_HO.jpg""]","stimuli/WM07_SC.jpg","stimuli/BF08_SUR.jpg","stimuli/HF09_CC.jpg","stimuli/BM04_HO.jpg","pos4","stimuli/BM04_HO.jpg","HO","BM04","3","3.5","7","8","stimuli/stars_7.png","240","[""SC"",""SUR"",""CC"",""HO""]","[""WM07"",""BF08"",""HF09"",""BM04""]","[3,2,6,7]","[4,2,6,8]","","",""
"show-reward","162","377214","0.0-162.0","p780745","A38I0E8UK53ME5","3P888QFVX40Z2B7BK75OWKP045JQOK","3Y54SXRO1NRAUGHUNZGTPFN1PB9TUA","emotion","mismatch","uniform","","","","","","","","376818","378823","","","","","","","","","","","","7","","stimuli/stars_7.png","240","","","","","stimuli/BM04_HO.jpg","",""
"explore-choice","163","378605","0.0-163.0","p780745","A38I0E8UK53ME5","3P888QFVX40Z2B7BK75OWKP045JQOK","3Y54SXRO1NRAUGHUNZGTPFN1PB9TUA","emotion","mismatch","uniform","","","","","","","882","378824","379706","[""stimuli/HF09_CC.jpg"",""stimuli/WM07_HO.jpg"",""stimuli/BM04_SC.jpg"",""stimuli/BF08_SUR.jpg""]","stimuli/HF09_CC.jpg","stimuli/WM07_HO.jpg","stimuli/BM04_SC.jpg","stimuli/BF08_SUR.jpg","pos3","stimuli/BM04_SC.jpg","SC","BM04","2","5","10","8","stimuli/stars_10.png","245","[""CC"",""HO"",""SC"",""SUR""]","[""HF09"",""WM07"",""BM04"",""BF08""]","[6,3,10,3]","[6,4,8,2]","","",""
"show-reward","164","380612","0.0-164.0","p780745","A38I0E8UK53ME5","3P888QFVX40Z2B7BK75OWKP045JQOK","3Y54SXRO1NRAUGHUNZGTPFN1PB9TUA","emotion","mismatch","uniform","","","","","","","","380213","382221","","","","","","","","","","","","10","","stimuli/stars_10.png","245","","","","","stimuli/BM04_SC.jpg","",""
"explore-choice","165","382356","0.0-165.0","p780745","A38I0E8UK53ME5","3P888QFVX40Z2B7BK75OWKP045JQOK","3Y54SXRO1NRAUGHUNZGTPFN1PB9TUA","emotion","mismatch","uniform","","","","","","","1231","382221","383452","[""stimuli/BF08_SUR.jpg"",""stimuli/BM04_CC.jpg"",""stimuli/HF09_HO.jpg"",""stimuli/WM07_SC.jpg""]","stimuli/BF08_SUR.jpg","stimuli/BM04_CC.jpg","stimuli/HF09_HO.jpg","stimuli/WM07_SC.jpg","pos2","stimuli/BM04_CC.jpg","CC","BM04","1","3.5","7","8","stimuli/stars_7.png","248.5","[""SUR"",""CC"",""HO"",""SC""]","[""BF08"",""BM04"",""HF09"",""WM07""]","[3,7,7,2]","[2,8,6,4]","","",""
"show-reward","166","384364","0.0-166.0","p780745","A38I0E8UK53ME5","3P888QFVX40Z2B7BK75OWKP045JQOK","3Y54SXRO1NRAUGHUNZGTPFN1PB9TUA","emotion","mismatch","uniform","","","","","","","","383964","385973","","","","","","","","","","","","7","","stimuli/stars_7.png","248.5","","","","","stimuli/BM04_CC.jpg","",""
"explore-choice","167","385946","0.0-167.0","p780745","A38I0E8UK53ME5","3P888QFVX40Z2B7BK75OWKP045JQOK","3Y54SXRO1NRAUGHUNZGTPFN1PB9TUA","emotion","mismatch","uniform","","","","","","","1082","385973","387055","[""stimuli/BM04_SUR.jpg"",""stimuli/HF09_CC.jpg"",""stimuli/WM07_SC.jpg"",""stimuli/BF08_HO.jpg""]","stimuli/BM04_SUR.jpg","stimuli/HF09_CC.jpg","stimuli/WM07_SC.jpg","stimuli/BF08_HO.jpg","pos1","stimuli/BM04_SUR.jpg","SUR","BM04","0","4.5","9","8","stimuli/stars_9.png","253","[""SUR"",""CC"",""SC"",""HO""]","[""BM04"",""HF09"",""WM07"",""BF08""]","[9,5,3,1]","[8,6,4,2]","","",""
"show-reward","168","387955","0.0-168.0","p780745","A38I0E8UK53ME5","3P888QFVX40Z2B7BK75OWKP045JQOK","3Y54SXRO1NRAUGHUNZGTPFN1PB9TUA","emotion","mismatch","uniform","","","","","","","","387555","389563","","","","","","","","","","","","9","","stimuli/stars_9.png","253","","","","","stimuli/BM04_SUR.jpg","",""
"explore-choice","169","389413","0.0-169.0","p780745","A38I0E8UK53ME5","3P888QFVX40Z2B7BK75OWKP045JQOK","3Y54SXRO1NRAUGHUNZGTPFN1PB9TUA","emotion","mismatch","uniform","","","","","","","956","389563","390519","[""stimuli/WM07_SUR.jpg"",""stimuli/HF09_SC.jpg"",""stimuli/BF08_HO.jpg"",""stimuli/BM04_CC.jpg""]","stimuli/WM07_SUR.jpg","stimuli/HF09_SC.jpg","stimuli/BF08_HO.jpg","stimuli/BM04_CC.jpg","pos4","stimuli/BM04_CC.jpg","CC","BM04","3","3.5","7","8","stimuli/stars_7.png","256.5","[""SUR"",""SC"",""HO"",""CC""]","[""WM07"",""HF09"",""BF08"",""BM04""]","[3,8,1,7]","[4,6,2,8]","","",""
"show-reward","170","391420","0.0-170.0","p780745","A38I0E8UK53ME5","3P888QFVX40Z2B7BK75OWKP045JQOK","3Y54SXRO1NRAUGHUNZGTPFN1PB9TUA","emotion","mismatch","uniform","","","","","","","","391021","393029","","","","","","","","","","","","7","","stimuli/stars_7.png","256.5","","","","","stimuli/BM04_CC.jpg","",""
"explore-choice","171","392656","0.0-171.0","p780745","A38I0E8UK53ME5","3P888QFVX40Z2B7BK75OWKP045JQOK","3Y54SXRO1NRAUGHUNZGTPFN1PB9TUA","emotion","mismatch","uniform","","","","","","","734","393029","393763","[""stimuli/BF08_CC.jpg"",""stimuli/HF09_SUR.jpg"",""stimuli/BM04_HO.jpg"",""stimuli/WM07_SC.jpg""]","stimuli/BF08_CC.jpg","stimuli/HF09_SUR.jpg","stimuli/BM04_HO.jpg","stimuli/WM07_SC.jpg","pos3","stimuli/BM04_HO.jpg","HO","BM04","2","4","8","8","stimuli/stars_8.png","260.5","[""CC"",""SUR"",""HO"",""SC""]","[""BF08"",""HF09"",""BM04"",""WM07""]","[1,6,8,3]","[2,6,8,4]","","",""
"show-reward","172","394662","0.0-172.0","p780745","A38I0E8UK53ME5","3P888QFVX40Z2B7BK75OWKP045JQOK","3Y54SXRO1NRAUGHUNZGTPFN1PB9TUA","emotion","mismatch","uniform","","","","","","","","394265","396270","","","","","","","","","","","","8","","stimuli/stars_8.png","260.5","","","","","stimuli/BM04_HO.jpg","",""
"explore-choice","173","395734","0.0-173.0","p780745","A38I0E8UK53ME5","3P888QFVX40Z2B7BK75OWKP045JQOK","3Y54SXRO1NRAUGHUNZGTPFN1PB9TUA","emotion","mismatch","uniform","","","","","","","569","396270","396839","[""stimuli/HF09_CC.jpg"",""stimuli/WM07_HO.jpg"",""stimuli/BM04_SUR.jpg"",""stimuli/BF08_SC.jpg""]","stimuli/HF09_CC.jpg","stimuli/WM07_HO.jpg","stimuli/BM04_SUR.jpg","stimuli/BF08_SC.jpg","pos3","stimuli/BM04_SUR.jpg","SUR","BM04","2","4","8","8","stimuli/stars_8.png","264.5","[""CC"",""HO"",""SUR"",""SC""]","[""HF09"",""WM07"",""BM04"",""BF08""]","[7,3,8,4]","[6,4,8,2]","","",""
"show-reward","174","397742","0.0-174.0","p780745","A38I0E8UK53ME5","3P888QFVX40Z2B7BK75OWKP045JQOK","3Y54SXRO1NRAUGHUNZGTPFN1PB9TUA","emotion","mismatch","uniform","","","","","","","","397342","399350","","","","","","","","","","","","8","","stimuli/stars_8.png","264.5","","","","","stimuli/BM04_SUR.jpg","",""
"explore-choice","175","399179","0.0-175.0","p780745","A38I0E8UK53ME5","3P888QFVX40Z2B7BK75OWKP045JQOK","3Y54SXRO1NRAUGHUNZGTPFN1PB9TUA","emotion","mismatch","uniform","","","","","","","928","399350","400278","[""stimuli/BM04_SUR.jpg"",""stimuli/HF09_HO.jpg"",""stimuli/WM07_CC.jpg"",""stimuli/BF08_SC.jpg""]","stimuli/BM04_SUR.jpg","stimuli/HF09_HO.jpg","stimuli/WM07_CC.jpg","stimuli/BF08_SC.jpg","pos1","stimuli/BM04_SUR.jpg","SUR","BM04","0","3","6","8","stimuli/stars_6.png","267.5","[""SUR"",""HO"",""CC"",""SC""]","[""BM04"",""HF09"",""WM07"",""BF08""]","[6,6,4,3]","[8,6,4,2]","","",""
"show-reward","176","401187","0.0-176.0","p780745","A38I0E8UK53ME5","3P888QFVX40Z2B7BK75OWKP045JQOK","3Y54SXRO1NRAUGHUNZGTPFN1PB9TUA","emotion","mismatch","uniform","","","","","","","","400787","402795","","","","","","","","","","","","6","","stimuli/stars_6.png","267.5","","","","","stimuli/BM04_SUR.jpg","",""
"explore-choice","177","402845","0.0-177.0","p780745","A38I0E8UK53ME5","3P888QFVX40Z2B7BK75OWKP045JQOK","3Y54SXRO1NRAUGHUNZGTPFN1PB9TUA","emotion","mismatch","uniform","","","","","","","1144","402796","403940","[""stimuli/HF09_SUR.jpg"",""stimuli/BF08_CC.jpg"",""stimuli/BM04_SC.jpg"",""stimuli/WM07_HO.jpg""]","stimuli/HF09_SUR.jpg","stimuli/BF08_CC.jpg","stimuli/BM04_SC.jpg","stimuli/WM07_HO.jpg","pos3","stimuli/BM04_SC.jpg","SC","BM04","2","4.5","9","8","stimuli/stars_9.png","272","[""SUR"",""CC"",""SC"",""HO""]","[""HF09"",""BF08"",""BM04"",""WM07""]","[8,4,9,3]","[6,2,8,4]","","",""
"show-reward","178","404854","0.0-178.0","p780745","A38I0E8UK53ME5","3P888QFVX40Z2B7BK75OWKP045JQOK","3Y54SXRO1NRAUGHUNZGTPFN1PB9TUA","emotion","mismatch","uniform","","","","","","","","404454","406462","","","","","","","","","","","","9","","stimuli/stars_9.png","272","","","","","stimuli/BM04_SC.jpg","",""
"explore-choice","179","405972","0.0-179.0","p780745","A38I0E8UK53ME5","3P888QFVX40Z2B7BK75OWKP045JQOK","3Y54SXRO1NRAUGHUNZGTPFN1PB9TUA","emotion","mismatch","uniform","","","","","","","615","406463","407078","[""stimuli/BF08_HO.jpg"",""stimuli/WM07_CC.jpg"",""stimuli/BM04_SUR.jpg"",""stimuli/HF09_SC.jpg""]","stimuli/BF08_HO.jpg","stimuli/WM07_CC.jpg","stimuli/BM04_SUR.jpg","stimuli/HF09_SC.jpg","pos3","stimuli/BM04_SUR.jpg","SUR","BM04","2","4.5","9","8","stimuli/stars_9.png","276.5","[""HO"",""CC"",""SUR"",""SC""]","[""BF08"",""WM07"",""BM04"",""HF09""]","[4,3,9,5]","[2,4,8,6]","","",""
"show-reward","180","407979","0.0-180.0","p780745","A38I0E8UK53ME5","3P888QFVX40Z2B7BK75OWKP045JQOK","3Y54SXRO1NRAUGHUNZGTPFN1PB9TUA","emotion","mismatch","uniform","","","","","","","","407582","409587","","","","","","","","","","","","9","","stimuli/stars_9.png","276.5","","","","","stimuli/BM04_SUR.jpg","",""
"explore-choice","181","409430","0.0-181.0","p780745","A38I0E8UK53ME5","3P888QFVX40Z2B7BK75OWKP045JQOK","3Y54SXRO1NRAUGHUNZGTPFN1PB9TUA","emotion","mismatch","uniform","","","","","","","950","409588","410538","[""stimuli/HF09_SUR.jpg"",""stimuli/BM04_SC.jpg"",""stimuli/BF08_HO.jpg"",""stimuli/WM07_CC.jpg""]","stimuli/HF09_SUR.jpg","stimuli/BM04_SC.jpg","stimuli/BF08_HO.jpg","stimuli/WM07_CC.jpg","pos2","stimuli/BM04_SC.jpg","SC","BM04","1","5","10","8","stimuli/stars_10.png","281.5","[""SUR"",""SC"",""HO"",""CC""]","[""HF09"",""BM04"",""BF08"",""WM07""]","[6,10,2,6]","[6,8,2,4]","","",""
"show-reward","182","411437","0.0-182.0","p780745","A38I0E8UK53ME5","3P888QFVX40Z2B7BK75OWKP045JQOK","3Y54SXRO1NRAUGHUNZGTPFN1PB9TUA","emotion","mismatch","uniform","","","","","","","","411039","413045","","","","","","","","","","","","10","","stimuli/stars_10.png","281.5","","","","","stimuli/BM04_SC.jpg","",""
"explore-choice","183","412662","0.0-183.0","p780745","A38I0E8UK53ME5","3P888QFVX40Z2B7BK75OWKP045JQOK","3Y54SXRO1NRAUGHUNZGTPFN1PB9TUA","emotion","mismatch","uniform","","","","","","","706","413046","413752","[""stimuli/BM04_CC.jpg"",""stimuli/BF08_SUR.jpg"",""stimuli/HF09_SC.jpg"",""stimuli/WM07_HO.jpg""]","stimuli/BM04_CC.jpg","stimuli/BF08_SUR.jpg","stimuli/HF09_SC.jpg","stimuli/WM07_HO.jpg","pos1","stimuli/BM04_CC.jpg","CC","BM04","0","4","8","8","stimuli/stars_8.png","285.5","[""CC"",""SUR"",""SC"",""HO""]","[""BM04"",""BF08"",""HF09"",""WM07""]","[8,2,5,6]","[8,2,6,4]","","",""
"show-reward","184","414669","0.0-184.0","p780745","A38I0E8UK53ME5","3P888QFVX40Z2B7BK75OWKP045JQOK","3Y54SXRO1NRAUGHUNZGTPFN1PB9TUA","emotion","mismatch","uniform","","","","","","","","414271","416277","","","","","","","","","","","","8","","stimuli/stars_8.png","285.5","","","","","stimuli/BM04_CC.jpg","",""
"explore-choice","185","416089","0.0-185.0","p780745","A38I0E8UK53ME5","3P888QFVX40Z2B7BK75OWKP045JQOK","3Y54SXRO1NRAUGHUNZGTPFN1PB9TUA","emotion","mismatch","uniform","","","","","","","910","416278","417188","[""stimuli/BF08_CC.jpg"",""stimuli/HF09_HO.jpg"",""stimuli/WM07_SUR.jpg"",""stimuli/BM04_SC.jpg""]","stimuli/BF08_CC.jpg","stimuli/HF09_HO.jpg","stimuli/WM07_SUR.jpg","stimuli/BM04_SC.jpg","pos4","stimuli/BM04_SC.jpg","SC","BM04","3","5","10","8","stimuli/stars_10.png","290.5","[""CC"",""HO"",""SUR"",""SC""]","[""BF08"",""HF09"",""WM07"",""BM04""]","[0,4,6,10]","[2,6,4,8]","","",""
"show-reward","186","418102","0.0-186.0","p780745","A38I0E8UK53ME5","3P888QFVX40Z2B7BK75OWKP045JQOK","3Y54SXRO1NRAUGHUNZGTPFN1PB9TUA","emotion","mismatch","uniform","","","","","","","","417697","419711","","","","","","","","","","","","10","","stimuli/stars_10.png","290.5","","","","","stimuli/BM04_SC.jpg","",""
"explore-choice","187","419623","0.0-187.0","p780745","A38I0E8UK53ME5","3P888QFVX40Z2B7BK75OWKP045JQOK","3Y54SXRO1NRAUGHUNZGTPFN1PB9TUA","emotion","mismatch","uniform","","","","","","","1021","419711","420732","[""stimuli/BF08_HO.jpg"",""stimuli/BM04_CC.jpg"",""stimuli/HF09_SUR.jpg"",""stimuli/WM07_SC.jpg""]","stimuli/BF08_HO.jpg","stimuli/BM04_CC.jpg","stimuli/HF09_SUR.jpg","stimuli/WM07_SC.jpg","pos2","stimuli/BM04_CC.jpg","CC","BM04","1","5","10","8","stimuli/stars_10.png","295.5","[""HO"",""CC"",""SUR"",""SC""]","[""BF08"",""BM04"",""HF09"",""WM07""]","[0,10,6,3]","[2,8,6,4]","","",""
"show-reward","188","421633","0.0-188.0","p780745","A38I0E8UK53ME5","3P888QFVX40Z2B7BK75OWKP045JQOK","3Y54SXRO1NRAUGHUNZGTPFN1PB9TUA","emotion","mismatch","uniform","","","","","","","","421232","423241","","","","","","","","","","","","10","","stimuli/stars_10.png","295.5","","","","","stimuli/BM04_CC.jpg","",""
"explore-choice","189","422884","0.0-189.0","p780745","A38I0E8UK53ME5","3P888QFVX40Z2B7BK75OWKP045JQOK","3Y54SXRO1NRAUGHUNZGTPFN1PB9TUA","emotion","mismatch","uniform","","","","","","","737","423241","423978","[""stimuli/BF08_SUR.jpg"",""stimuli/BM04_HO.jpg"",""stimuli/HF09_SC.jpg"",""stimuli/WM07_CC.jpg""]","stimuli/BF08_SUR.jpg","stimuli/BM04_HO.jpg","stimuli/HF09_SC.jpg","stimuli/WM07_CC.jpg","pos2","stimuli/BM04_HO.jpg","HO","BM04","1","4.5","9","8","stimuli/stars_9.png","300","[""SUR"",""HO"",""SC"",""CC""]","[""BF08"",""BM04"",""HF09"",""WM07""]","[3,9,6,5]","[2,8,6,4]","","",""
"show-reward","190","424893","0.0-190.0","p780745","A38I0E8UK53ME5","3P888QFVX40Z2B7BK75OWKP045JQOK","3Y54SXRO1NRAUGHUNZGTPFN1PB9TUA","emotion","mismatch","uniform","","","","","","","","424493","426501","","","","","","","","","","","","9","","stimuli/stars_9.png","300","","","","","stimuli/BM04_HO.jpg","",""
"explore-choice","191","426397","0.0-191.0","p780745","A38I0E8UK53ME5","3P888QFVX40Z2B7BK75OWKP045JQOK","3Y54SXRO1NRAUGHUNZGTPFN1PB9TUA","emotion","mismatch","uniform","","","","","","","995","426501","427496","[""stimuli/BM04_CC.jpg"",""stimuli/HF09_HO.jpg"",""stimuli/BF08_SC.jpg"",""stimuli/WM07_SUR.jpg""]","stimuli/BM04_CC.jpg","stimuli/HF09_HO.jpg","stimuli/BF08_SC.jpg","stimuli/WM07_SUR.jpg","pos1","stimuli/BM04_CC.jpg","CC","BM04","0","3","6","8","stimuli/stars_6.png","303","[""CC"",""HO"",""SC"",""SUR""]","[""BM04"",""HF09"",""BF08"",""WM07""]","[6,5,2,5]","[8,6,2,4]","","",""
"show-reward","192","428404","0.0-192.0","p780745","A38I0E8UK53ME5","3P888QFVX40Z2B7BK75OWKP045JQOK","3Y54SXRO1NRAUGHUNZGTPFN1PB9TUA","emotion","mismatch","uniform","","","","","","","","428006","430012","","","","","","","","","","","","6","","stimuli/stars_6.png","303","","","","","stimuli/BM04_CC.jpg","",""
"explore-choice","193","429462","0.0-193.0","p780745","A38I0E8UK53ME5","3P888QFVX40Z2B7BK75OWKP045JQOK","3Y54SXRO1NRAUGHUNZGTPFN1PB9TUA","emotion","mismatch","uniform","","","","","","","551","430013","430564","[""stimuli/BM04_CC.jpg"",""stimuli/HF09_SUR.jpg"",""stimuli/BF08_SC.jpg"",""stimuli/WM07_HO.jpg""]","stimuli/BM04_CC.jpg","stimuli/HF09_SUR.jpg","stimuli/BF08_SC.jpg","stimuli/WM07_HO.jpg","pos1","stimuli/BM04_CC.jpg","CC","BM04","0","4","8","8","stimuli/stars_8.png","307","[""CC"",""SUR"",""SC"",""HO""]","[""BM04"",""HF09"",""BF08"",""WM07""]","[8,5,4,3]","[8,6,2,4]","","",""
"show-reward","194","431470","0.0-194.0","p780745","A38I0E8UK53ME5","3P888QFVX40Z2B7BK75OWKP045JQOK","3Y54SXRO1NRAUGHUNZGTPFN1PB9TUA","emotion","mismatch","uniform","","","","","","","","431071","433077","","","","","","","","","","","","8","","stimuli/stars_8.png","307","","","","","stimuli/BM04_CC.jpg","",""
"explore-choice","195","433106","0.0-195.0","p780745","A38I0E8UK53ME5","3P888QFVX40Z2B7BK75OWKP045JQOK","3Y54SXRO1NRAUGHUNZGTPFN1PB9TUA","emotion","mismatch","uniform","","","","","","","1132","433078","434210","[""stimuli/BF08_CC.jpg"",""stimuli/WM07_SUR.jpg"",""stimuli/HF09_SC.jpg"",""stimuli/BM04_HO.jpg""]","stimuli/BF08_CC.jpg","stimuli/WM07_SUR.jpg","stimuli/HF09_SC.jpg","stimuli/BM04_HO.jpg","pos4","stimuli/BM04_HO.jpg","HO","BM04","3","3.5","7","8","stimuli/stars_7.png","310.5","[""CC"",""SUR"",""SC"",""HO""]","[""BF08"",""WM07"",""HF09"",""BM04""]","[3,4,6,7]","[2,4,6,8]","","",""
"show-reward","196","435115","0.0-196.0","p780745","A38I0E8UK53ME5","3P888QFVX40Z2B7BK75OWKP045JQOK","3Y54SXRO1NRAUGHUNZGTPFN1PB9TUA","emotion","mismatch","uniform","","","","","","","","434715","436722","","","","","","","","","","","","7","","stimuli/stars_7.png","310.5","","","","","stimuli/BM04_HO.jpg","",""
"explore-choice","197","436304","0.0-197.0","p780745","A38I0E8UK53ME5","3P888QFVX40Z2B7BK75OWKP045JQOK","3Y54SXRO1NRAUGHUNZGTPFN1PB9TUA","emotion","mismatch","uniform","","","","","","","681","436723","437404","[""stimuli/HF09_HO.jpg"",""stimuli/WM07_CC.jpg"",""stimuli/BF08_SUR.jpg"",""stimuli/BM04_SC.jpg""]","stimuli/HF09_HO.jpg","stimuli/WM07_CC.jpg","stimuli/BF08_SUR.jpg","stimuli/BM04_SC.jpg","pos4","stimuli/BM04_SC.jpg","SC","BM04","3","5","10","8","stimuli/stars_10.png","315.5","[""HO"",""CC"",""SUR"",""SC""]","[""HF09"",""WM07"",""BF08"",""BM04""]","[4,5,3,10]","[6,4,2,8]","","",""
"show-reward","198","438312","0.0-198.0","p780745","A38I0E8UK53ME5","3P888QFVX40Z2B7BK75OWKP045JQOK","3Y54SXRO1NRAUGHUNZGTPFN1PB9TUA","emotion","mismatch","uniform","","","","","","","","437913","439921","","","","","","","","","","","","10","","stimuli/stars_10.png","315.5","","","","","stimuli/BM04_SC.jpg","",""
"instructions","199","443546","0.0-199.0","p780745","A38I0E8UK53ME5","3P888QFVX40Z2B7BK75OWKP045JQOK","3Y54SXRO1NRAUGHUNZGTPFN1PB9TUA","emotion","mismatch","uniform","","","","","","[{""page_index"":0,""viewing_time"":5232}]","5232","","","","","","","","","","","","","","","","","","","","","","","",""
"survey-text","200","446745","0.0-200.0-0.0","p780745","A38I0E8UK53ME5","3P888QFVX40Z2B7BK75OWKP045JQOK","3Y54SXRO1NRAUGHUNZGTPFN1PB9TUA","emotion","mismatch","uniform","","","","","","","3197","","","","","","","","","","","","","","","","","","","","","","","{""age"":""35""}",""
"survey-text","201","450104","0.0-200.0-1.0","p780745","A38I0E8UK53ME5","3P888QFVX40Z2B7BK75OWKP045JQOK","3Y54SXRO1NRAUGHUNZGTPFN1PB9TUA","emotion","mismatch","uniform","","","","","","","3356","","","","","","","","","","","","","","","","","","","","","","","{""gender"":""female""}",""
"survey-text","202","455570","0.0-200.0-2.0","p780745","A38I0E8UK53ME5","3P888QFVX40Z2B7BK75OWKP045JQOK","3Y54SXRO1NRAUGHUNZGTPFN1PB9TUA","emotion","mismatch","uniform","","","","","","","5463","","","","","","","","","","","","","","","","","","","","","","","{""country"":""United States""}",""
"survey-text","203","460496","0.0-200.0-3.0","p780745","A38I0E8UK53ME5","3P888QFVX40Z2B7BK75OWKP045JQOK","3Y54SXRO1NRAUGHUNZGTPFN1PB9TUA","emotion","mismatch","uniform","","","","","","","4925","","","","","","","","","","","","","","","","","","","","","","","{""language"":""English"",""other_languages"":""""}",""
"survey-multi-select","204","462649","0.0-201.0","p780745","A38I0E8UK53ME5","3P888QFVX40Z2B7BK75OWKP045JQOK","3Y54SXRO1NRAUGHUNZGTPFN1PB9TUA","emotion","mismatch","uniform","","","","","","","2150","","","","","","","","","","","","","","","","","","","","","","","{""race"":[""White""]}","[0]"
"survey-multi-choice","205","465918","0.0-202.0","p780745","A38I0E8UK53ME5","3P888QFVX40Z2B7BK75OWKP045JQOK","3Y54SXRO1NRAUGHUNZGTPFN1PB9TUA","emotion","mismatch","uniform","","","","","","","3268","","","","","","","","","","","","","","","","","","","","","","","{""education"":""Bachelor's degree""}","[0]"
"survey-text","206","505678","0.0-203.0","p780745","A38I0E8UK53ME5","3P888QFVX40Z2B7BK75OWKP045JQOK","3Y54SXRO1NRAUGHUNZGTPFN1PB9TUA","emotion","mismatch","uniform","","","","","","","39756","","","","","","","","","","","","","","","","","","","","","","","{""patterns"":""Smiling people got the most stars. The black man got the most stars."",""strategy"":""I picked smiling people, and the black man."",""comments"":""No""}",""
