"trial_type","trial_index","time_elapsed","internal_node_id","subject","workerId","hitId","assignmentId","structure_condition","match_condition","noise_type","success","timeout","failed_images","failed_audio","failed_video","view_history","rt","start_time","end_time","stimuli","image1","image2","image3","image4","choiceLocation","choiceImage","choiceEmotion","choiceModel","choice_index","reward_score","reward","reward_score_unadjusted","reward_image","score_after_trial","emotions","models","rewards","rewards_unadjusted","stimulus","response","question_order"
"pavlovia","0","20","0.0-0.0","p160087","A281ASP4WWAN3E","3FVBZG9CLKK1M1GPZWGJX51HFG80HB","3TY7ZAOG5HQVBBFRVJOHZHCYQ850KX","emotion","match","uniform","","","","","","","","","","","","","","","","","","","","","","","","","","","","","","",""
"preload","1","55830","0.0-1.0","p160087","A281ASP4WWAN3E","3FVBZG9CLKK1M1GPZWGJX51HFG80HB","3TY7ZAOG5HQVBBFRVJOHZHCYQ850KX","emotion","match","uniform","true","false","[]","[]","[]","","","","","","","","","","","","","","","","","","","","","","","","","",""
"fullscreen","2","61939","0.0-2.0","p160087","A281ASP4WWAN3E","3FVBZG9CLKK1M1GPZWGJX51HFG80HB","3TY7ZAOG5HQVBBFRVJOHZHCYQ850KX","emotion","match","uniform","true","","","","","","","","","","","","","","","","","","","","","","","","","","","","","",""
"instructions","3","68946","0.0-3.0","p160087","A281ASP4WWAN3E","3FVBZG9CLKK1M1GPZWGJX51HFG80HB","3TY7ZAOG5HQVBBFRVJOHZHCYQ850KX","emotion","match","uniform","","","","","","[{""page_index"":0,""viewing_time"":7004.899999976158}]","7005.600000023842","","","","","","","","","","","","","","","","","","","","","","","",""
"explore-choice","4","71417","0.0-4.0","p160087","A281ASP4WWAN3E","3FVBZG9CLKK1M1GPZWGJX51HFG80HB","3TY7ZAOG5HQVBBFRVJOHZHCYQ850KX","emotion","match","uniform","","","","","","","1969","70048.20000004768","72017.20000004768","[""stimuli/sheep.jpg"",""stimuli/hammer.jpg"",""stimuli/basketball.jpg"",""stimuli/horse.jpg""]","stimuli/sheep.jpg","stimuli/hammer.jpg","stimuli/basketball.jpg","stimuli/horse.jpg","pos4","stimuli/horse.jpg","","","3","64","64","64","stimuli/stars_8.png","65","","","","","","",""
"explore-choice","5","73020","0.0-5.0","p160087","A281ASP4WWAN3E","3FVBZG9CLKK1M1GPZWGJX51HFG80HB","3TY7ZAOG5HQVBBFRVJOHZHCYQ850KX","emotion","match","uniform","","","","","","","1098.6000000238419","72518.60000002384","73617.20000004768","[""stimuli/hammer.jpg"",""stimuli/basketball.jpg"",""stimuli/horse.jpg"",""stimuli/sheep.jpg""]","stimuli/hammer.jpg","stimuli/basketball.jpg","stimuli/horse.jpg","stimuli/sheep.jpg","pos1","stimuli/hammer.jpg","","","0","8","8","8","stimuli/stars_2.png","9","","","","","","",""
"instructions","6","84794","0.0-6.0","p160087","A281ASP4WWAN3E","3FVBZG9CLKK1M1GPZWGJX51HFG80HB","3TY7ZAOG5HQVBBFRVJOHZHCYQ850KX","emotion","match","uniform","","","","","","[{""page_index"":0,""viewing_time"":11773.099999964237}]","11773.399999976158","","","","","","","","","","","","","","","","","","","","","","","",""
"explore-choice","7","91503","0.0-7.0","p160087","A281ASP4WWAN3E","3FVBZG9CLKK1M1GPZWGJX51HFG80HB","3TY7ZAOG5HQVBBFRVJOHZHCYQ850KX","emotion","match","uniform","","","","","","","6203.100000023842","85897.10000002384","92100.20000004768","[""stimuli/WF06_SC.jpg"",""stimuli/HM10_FO.jpg"",""stimuli/AF02_DO.jpg"",""stimuli/WF14_AO.jpg""]","stimuli/WF06_SC.jpg","stimuli/HM10_FO.jpg","stimuli/AF02_DO.jpg","stimuli/WF14_AO.jpg","pos3","stimuli/AF02_DO.jpg","DO","AF02","2","2","4","6","stimuli/stars_4.png","3","[""SC"",""FO"",""DO"",""AO""]","[""WF06"",""HM10"",""AF02"",""WF14""]","[10,2,4,5]","[8,2,6,4]","","",""
"show-reward","8","93518","0.0-8.0","p160087","A281ASP4WWAN3E","3FVBZG9CLKK1M1GPZWGJX51HFG80HB","3TY7ZAOG5HQVBBFRVJOHZHCYQ850KX","emotion","match","uniform","","","","","","","","92606","94618.90000003576","","","","","","","","","","","","4","","stimuli/stars_4.png","3","","","","","stimuli/AF02_DO.jpg","",""
"explore-choice","9","96820","0.0-9.0","p160087","A281ASP4WWAN3E","3FVBZG9CLKK1M1GPZWGJX51HFG80HB","3TY7ZAOG5HQVBBFRVJOHZHCYQ850KX","emotion","match","uniform","","","","","","","2792.399999976158","94620.10000002384","97412.5","[""stimuli/WF14_DO.jpg"",""stimuli/AF02_FO.jpg"",""stimuli/HM10_SC.jpg"",""stimuli/WF06_AO.jpg""]","stimuli/WF14_DO.jpg","stimuli/AF02_FO.jpg","stimuli/HM10_SC.jpg","stimuli/WF06_AO.jpg","pos2","stimuli/AF02_FO.jpg","FO","AF02","1","0","0","2","stimuli/stars_0.png","3","[""DO"",""FO"",""SC"",""AO""]","[""WF14"",""AF02"",""HM10"",""WF06""]","[5,0,8,4]","[6,2,8,4]","","",""
"show-reward","10","98836","0.0-10.0","p160087","A281ASP4WWAN3E","3FVBZG9CLKK1M1GPZWGJX51HFG80HB","3TY7ZAOG5HQVBBFRVJOHZHCYQ850KX","emotion","match","uniform","","","","","","","","97922.20000004768","99937.5","","","","","","","","","","","","0","","stimuli/stars_0.png","3","","","","","stimuli/AF02_FO.jpg","",""
"explore-choice","11","101503","0.0-11.0","p160087","A281ASP4WWAN3E","3FVBZG9CLKK1M1GPZWGJX51HFG80HB","3TY7ZAOG5HQVBBFRVJOHZHCYQ850KX","emotion","match","uniform","","","","","","","2156.399999976158","99938.40000003576","102094.80000001192","[""stimuli/HM10_SC.jpg"",""stimuli/WF06_DO.jpg"",""stimuli/AF02_AO.jpg"",""stimuli/WF14_FO.jpg""]","stimuli/HM10_SC.jpg","stimuli/WF06_DO.jpg","stimuli/AF02_AO.jpg","stimuli/WF14_FO.jpg","pos3","stimuli/AF02_AO.jpg","AO","AF02","2","2","4","4","stimuli/stars_4.png","5","[""SC"",""DO"",""AO"",""FO""]","[""HM10"",""WF06"",""AF02"",""WF14""]","[9,7,4,2]","[8,6,4,2]","","",""
"show-reward","12","103510","0.0-12.0","p160087","A281ASP4WWAN3E","3FVBZG9CLKK1M1GPZWGJX51HFG80HB","3TY7ZAOG5HQVBBFRVJOHZHCYQ850KX","emotion","match","uniform","","","","","","","","102604.70000004768","104611.20000004768","","","","","","","","","","","","4","","stimuli/stars_4.png","5","","","","","stimuli/AF02_AO.jpg","",""
"explore-choice","13","106051","0.0-13.0","p160087","A281ASP4WWAN3E","3FVBZG9CLKK1M1GPZWGJX51HFG80HB","3TY7ZAOG5HQVBBFRVJOHZHCYQ850KX","emotion","match","uniform","","","","","","","2031.0999999642372","104612.20000004768","106643.30000001192","[""stimuli/HM10_AO.jpg"",""stimuli/WF14_DO.jpg"",""stimuli/WF06_FO.jpg"",""stimuli/AF02_SC.jpg""]","stimuli/HM10_AO.jpg","stimuli/WF14_DO.jpg","stimuli/WF06_FO.jpg","stimuli/AF02_SC.jpg","pos4","stimuli/AF02_SC.jpg","SC","AF02","3","4","8","8","stimuli/stars_8.png","9","[""AO"",""DO"",""FO"",""SC""]","[""HM10"",""WF14"",""WF06"",""AF02""]","[3,5,0,8]","[4,6,2,8]","","",""
"show-reward","14","108054","0.0-14.0","p160087","A281ASP4WWAN3E","3FVBZG9CLKK1M1GPZWGJX51HFG80HB","3TY7ZAOG5HQVBBFRVJOHZHCYQ850KX","emotion","match","uniform","","","","","","","","107152.60000002384","109154.80000001192","","","","","","","","","","","","8","","stimuli/stars_8.png","9","","","","","stimuli/AF02_SC.jpg","",""
"explore-choice","15","110980","0.0-15.0","p160087","A281ASP4WWAN3E","3FVBZG9CLKK1M1GPZWGJX51HFG80HB","3TY7ZAOG5HQVBBFRVJOHZHCYQ850KX","emotion","match","uniform","","","","","","","2419.900000035763","109155.5","111575.40000003576","[""stimuli/HM10_AO.jpg"",""stimuli/AF02_FO.jpg"",""stimuli/WF14_DO.jpg"",""stimuli/WF06_SC.jpg""]","stimuli/HM10_AO.jpg","stimuli/AF02_FO.jpg","stimuli/WF14_DO.jpg","stimuli/WF06_SC.jpg","pos2","stimuli/AF02_FO.jpg","FO","AF02","1","1.5","3","2","stimuli/stars_3.png","10.5","[""AO"",""FO"",""DO"",""SC""]","[""HM10"",""AF02"",""WF14"",""WF06""]","[3,3,8,6]","[4,2,6,8]","","",""
"show-reward","16","112983","0.0-16.0","p160087","A281ASP4WWAN3E","3FVBZG9CLKK1M1GPZWGJX51HFG80HB","3TY7ZAOG5HQVBBFRVJOHZHCYQ850KX","emotion","match","uniform","","","","","","","","112082","114084.20000004768","","","","","","","","","","","","3","","stimuli/stars_3.png","10.5","","","","","stimuli/AF02_FO.jpg","",""
"explore-choice","17","115331","0.0-17.0","p160087","A281ASP4WWAN3E","3FVBZG9CLKK1M1GPZWGJX51HFG80HB","3TY7ZAOG5HQVBBFRVJOHZHCYQ850KX","emotion","match","uniform","","","","","","","1840.6000000238419","114085","115925.60000002384","[""stimuli/WF06_DO.jpg"",""stimuli/WF14_SC.jpg"",""stimuli/HM10_FO.jpg"",""stimuli/AF02_AO.jpg""]","stimuli/WF06_DO.jpg","stimuli/WF14_SC.jpg","stimuli/HM10_FO.jpg","stimuli/AF02_AO.jpg","pos4","stimuli/AF02_AO.jpg","AO","AF02","3","2","4","4","stimuli/stars_4.png","12.5","[""DO"",""SC"",""FO"",""AO""]","[""WF06"",""WF14"",""HM10"",""AF02""]","[5,10,1,4]","[6,8,2,4]","","",""
"show-reward","18","117347","0.0-18.0","p160087","A281ASP4WWAN3E","3FVBZG9CLKK1M1GPZWGJX51HFG80HB","3TY7ZAOG5HQVBBFRVJOHZHCYQ850KX","emotion","match","uniform","","","","","","","","116432.80000001192","118448.20000004768","","","","","","","","","","","","4","","stimuli/stars_4.png","12.5","","","","","stimuli/AF02_AO.jpg","",""
"explore-choice","19","119675","0.0-19.0","p160087","A281ASP4WWAN3E","3FVBZG9CLKK1M1GPZWGJX51HFG80HB","3TY7ZAOG5HQVBBFRVJOHZHCYQ850KX","emotion","match","uniform","","","","","","","1811.1000000238419","118449.10000002384","120260.20000004768","[""stimuli/AF02_DO.jpg"",""stimuli/WF06_AO.jpg"",""stimuli/HM10_SC.jpg"",""stimuli/WF14_FO.jpg""]","stimuli/AF02_DO.jpg","stimuli/WF06_AO.jpg","stimuli/HM10_SC.jpg","stimuli/WF14_FO.jpg","pos2","stimuli/WF06_AO.jpg","AO","WF06","1","3","6","4","stimuli/stars_6.png","15.5","[""DO"",""AO"",""SC"",""FO""]","[""AF02"",""WF06"",""HM10"",""WF14""]","[6,6,9,3]","[6,4,8,2]","","",""
"show-reward","20","121689","0.0-20.0","p160087","A281ASP4WWAN3E","3FVBZG9CLKK1M1GPZWGJX51HFG80HB","3TY7ZAOG5HQVBBFRVJOHZHCYQ850KX","emotion","match","uniform","","","","","","","","120776.5","122790.30000001192","","","","","","","","","","","","6","","stimuli/stars_6.png","15.5","","","","","stimuli/WF06_AO.jpg","",""
"explore-choice","21","124188","0.0-21.0","p160087","A281ASP4WWAN3E","3FVBZG9CLKK1M1GPZWGJX51HFG80HB","3TY7ZAOG5HQVBBFRVJOHZHCYQ850KX","emotion","match","uniform","","","","","","","1993","122791.30000001192","124784.30000001192","[""stimuli/AF02_DO.jpg"",""stimuli/WF06_FO.jpg"",""stimuli/WF14_AO.jpg"",""stimuli/HM10_SC.jpg""]","stimuli/AF02_DO.jpg","stimuli/WF06_FO.jpg","stimuli/WF14_AO.jpg","stimuli/HM10_SC.jpg","pos4","stimuli/HM10_SC.jpg","SC","HM10","3","3","6","8","stimuli/stars_6.png","18.5","[""DO"",""FO"",""AO"",""SC""]","[""AF02"",""WF06"",""WF14"",""HM10""]","[5,0,5,6]","[6,2,4,8]","","",""
"show-reward","22","126191","0.0-22.0","p160087","A281ASP4WWAN3E","3FVBZG9CLKK1M1GPZWGJX51HFG80HB","3TY7ZAOG5HQVBBFRVJOHZHCYQ850KX","emotion","match","uniform","","","","","","","","125289.70000004768","127292.10000002384","","","","","","","","","","","","6","","stimuli/stars_6.png","18.5","","","","","stimuli/HM10_SC.jpg","",""
"explore-choice","23","128599","0.0-23.0","p160087","A281ASP4WWAN3E","3FVBZG9CLKK1M1GPZWGJX51HFG80HB","3TY7ZAOG5HQVBBFRVJOHZHCYQ850KX","emotion","match","uniform","","","","","","","1897.800000011921","127292.90000003576","129190.70000004768","[""stimuli/WF06_SC.jpg"",""stimuli/HM10_AO.jpg"",""stimuli/WF14_FO.jpg"",""stimuli/AF02_DO.jpg""]","stimuli/WF06_SC.jpg","stimuli/HM10_AO.jpg","stimuli/WF14_FO.jpg","stimuli/AF02_DO.jpg","pos3","stimuli/WF14_FO.jpg","FO","WF14","2","0.5","1","2","stimuli/stars_1.png","19","[""SC"",""AO"",""FO"",""DO""]","[""WF06"",""HM10"",""WF14"",""AF02""]","[7,6,1,7]","[8,4,2,6]","","",""
"show-reward","24","130616","0.0-24.0","p160087","A281ASP4WWAN3E","3FVBZG9CLKK1M1GPZWGJX51HFG80HB","3TY7ZAOG5HQVBBFRVJOHZHCYQ850KX","emotion","match","uniform","","","","","","","","129701","131717","","","","","","","","","","","","1","","stimuli/stars_1.png","19","","","","","stimuli/WF14_FO.jpg","",""
"explore-choice","25","133229","0.0-25.0","p160087","A281ASP4WWAN3E","3FVBZG9CLKK1M1GPZWGJX51HFG80HB","3TY7ZAOG5HQVBBFRVJOHZHCYQ850KX","emotion","match","uniform","","","","","","","2108.900000035763","131718","133826.90000003576","[""stimuli/WF06_AO.jpg"",""stimuli/AF02_SC.jpg"",""stimuli/HM10_DO.jpg"",""stimuli/WF14_FO.jpg""]","stimuli/WF06_AO.jpg","stimuli/AF02_SC.jpg","stimuli/HM10_DO.jpg","stimuli/WF14_FO.jpg","pos1","stimuli/WF06_AO.jpg","AO","WF06","0","2.5","5","4","stimuli/stars_5.png","21.5","[""AO"",""SC"",""DO"",""FO""]","[""WF06"",""AF02"",""HM10"",""WF14""]","[5,10,8,3]","[4,8,6,2]","","",""
"show-reward","26","135232","0.0-26.0","p160087","A281ASP4WWAN3E","3FVBZG9CLKK1M1GPZWGJX51HFG80HB","3TY7ZAOG5HQVBBFRVJOHZHCYQ850KX","emotion","match","uniform","","","","","","","","134330.70000004768","136333","","","","","","","","","","","","5","","stimuli/stars_5.png","21.5","","","","","stimuli/WF06_AO.jpg","",""
"explore-choice","27","136969","0.0-27.0","p160087","A281ASP4WWAN3E","3FVBZG9CLKK1M1GPZWGJX51HFG80HB","3TY7ZAOG5HQVBBFRVJOHZHCYQ850KX","emotion","match","uniform","","","","","","","1236.1000000238419","136333.60000002384","137569.70000004768","[""stimuli/HM10_DO.jpg"",""stimuli/AF02_FO.jpg"",""stimuli/WF06_AO.jpg"",""stimuli/WF14_SC.jpg""]","stimuli/HM10_DO.jpg","stimuli/AF02_FO.jpg","stimuli/WF06_AO.jpg","stimuli/WF14_SC.jpg","pos2","stimuli/AF02_FO.jpg","FO","AF02","1","1.5","3","2","stimuli/stars_3.png","23","[""DO"",""FO"",""AO"",""SC""]","[""HM10"",""AF02"",""WF06"",""WF14""]","[6,3,3,7]","[6,2,4,8]","","",""
"show-reward","28","138983","0.0-28.0","p160087","A281ASP4WWAN3E","3FVBZG9CLKK1M1GPZWGJX51HFG80HB","3TY7ZAOG5HQVBBFRVJOHZHCYQ850KX","emotion","match","uniform","","","","","","","","138071.10000002384","140083.90000003576","","","","","","","","","","","","3","","stimuli/stars_3.png","23","","","","","stimuli/AF02_FO.jpg","",""
"explore-choice","29","140044","0.0-29.0","p160087","A281ASP4WWAN3E","3FVBZG9CLKK1M1GPZWGJX51HFG80HB","3TY7ZAOG5HQVBBFRVJOHZHCYQ850KX","emotion","match","uniform","","","","","","","558.7999999523163","140084.70000004768","140643.5","[""stimuli/WF14_SC.jpg"",""stimuli/HM10_FO.jpg"",""stimuli/WF06_AO.jpg"",""stimuli/AF02_DO.jpg""]","stimuli/WF14_SC.jpg","stimuli/HM10_FO.jpg","stimuli/WF06_AO.jpg","stimuli/AF02_DO.jpg","pos2","stimuli/HM10_FO.jpg","FO","HM10","1","1.5","3","2","stimuli/stars_3.png","24.5","[""SC"",""FO"",""AO"",""DO""]","[""WF14"",""HM10"",""WF06"",""AF02""]","[6,3,2,4]","[8,2,4,6]","","",""
"show-reward","30","142046","0.0-30.0","p160087","A281ASP4WWAN3E","3FVBZG9CLKK1M1GPZWGJX51HFG80HB","3TY7ZAOG5HQVBBFRVJOHZHCYQ850KX","emotion","match","uniform","","","","","","","","141146.10000002384","143147.30000001192","","","","","","","","","","","","3","","stimuli/stars_3.png","24.5","","","","","stimuli/HM10_FO.jpg","",""
"explore-choice","31","142982","0.0-31.0","p160087","A281ASP4WWAN3E","3FVBZG9CLKK1M1GPZWGJX51HFG80HB","3TY7ZAOG5HQVBBFRVJOHZHCYQ850KX","emotion","match","uniform","","","","","","","419.69999998807907","143147.90000003576","143567.60000002384","[""stimuli/WF06_SC.jpg"",""stimuli/HM10_FO.jpg"",""stimuli/WF14_DO.jpg"",""stimuli/AF02_AO.jpg""]","stimuli/WF06_SC.jpg","stimuli/HM10_FO.jpg","stimuli/WF14_DO.jpg","stimuli/AF02_AO.jpg","pos3","stimuli/WF14_DO.jpg","DO","WF14","2","3","6","6","stimuli/stars_6.png","27.5","[""SC"",""FO"",""DO"",""AO""]","[""WF06"",""HM10"",""WF14"",""AF02""]","[6,3,6,3]","[8,2,6,4]","","",""
"show-reward","32","144986","0.0-32.0","p160087","A281ASP4WWAN3E","3FVBZG9CLKK1M1GPZWGJX51HFG80HB","3TY7ZAOG5HQVBBFRVJOHZHCYQ850KX","emotion","match","uniform","","","","","","","","144084.30000001192","146086.90000003576","","","","","","","","","","","","6","","stimuli/stars_6.png","27.5","","","","","stimuli/WF14_DO.jpg","",""
"explore-choice","33","146103","0.0-33.0","p160087","A281ASP4WWAN3E","3FVBZG9CLKK1M1GPZWGJX51HFG80HB","3TY7ZAOG5HQVBBFRVJOHZHCYQ850KX","emotion","match","uniform","","","","","","","610.3000000119209","146087.5","146697.80000001192","[""stimuli/HM10_SC.jpg"",""stimuli/WF14_DO.jpg"",""stimuli/WF06_FO.jpg"",""stimuli/AF02_AO.jpg""]","stimuli/HM10_SC.jpg","stimuli/WF14_DO.jpg","stimuli/WF06_FO.jpg","stimuli/AF02_AO.jpg","pos4","stimuli/AF02_AO.jpg","AO","AF02","3","2.5","5","4","stimuli/stars_5.png","30","[""SC"",""DO"",""FO"",""AO""]","[""HM10"",""WF14"",""WF06"",""AF02""]","[9,8,2,5]","[8,6,2,4]","","",""
"show-reward","34","148105","0.0-34.0","p160087","A281ASP4WWAN3E","3FVBZG9CLKK1M1GPZWGJX51HFG80HB","3TY7ZAOG5HQVBBFRVJOHZHCYQ850KX","emotion","match","uniform","","","","","","","","147204.60000002384","149206.10000002384","","","","","","","","","","","","5","","stimuli/stars_5.png","30","","","","","stimuli/AF02_AO.jpg","",""
"explore-choice","35","148936","0.0-35.0","p160087","A281ASP4WWAN3E","3FVBZG9CLKK1M1GPZWGJX51HFG80HB","3TY7ZAOG5HQVBBFRVJOHZHCYQ850KX","emotion","match","uniform","","","","","","","327.5","149206.70000004768","149534.20000004768","[""stimuli/WF14_FO.jpg"",""stimuli/WF06_DO.jpg"",""stimuli/HM10_AO.jpg"",""stimuli/AF02_SC.jpg""]","stimuli/WF14_FO.jpg","stimuli/WF06_DO.jpg","stimuli/HM10_AO.jpg","stimuli/AF02_SC.jpg","pos1","stimuli/WF14_FO.jpg","FO","WF14","0","1","2","2","stimuli/stars_2.png","31","[""FO"",""DO"",""AO"",""SC""]","[""WF14"",""WF06"",""HM10"",""AF02""]","[2,8,4,6]","[2,6,4,8]","","",""
"show-reward","36","150939","0.0-36.0","p160087","A281ASP4WWAN3E","3FVBZG9CLKK1M1GPZWGJX51HFG80HB","3TY7ZAOG5HQVBBFRVJOHZHCYQ850KX","emotion","match","uniform","","","","","","","","150037.60000002384","152040","","","","","","","","","","","","2","","stimuli/stars_2.png","31","","","","","stimuli/WF14_FO.jpg","",""
"explore-choice","37","151885","0.0-37.0","p160087","A281ASP4WWAN3E","3FVBZG9CLKK1M1GPZWGJX51HFG80HB","3TY7ZAOG5HQVBBFRVJOHZHCYQ850KX","emotion","match","uniform","","","","","","","433.80000001192093","152040.60000002384","152474.40000003576","[""stimuli/WF06_AO.jpg"",""stimuli/WF14_DO.jpg"",""stimuli/HM10_FO.jpg"",""stimuli/AF02_SC.jpg""]","stimuli/WF06_AO.jpg","stimuli/WF14_DO.jpg","stimuli/HM10_FO.jpg","stimuli/AF02_SC.jpg","pos4","stimuli/AF02_SC.jpg","SC","AF02","3","5","10","8","stimuli/stars_10.png","36","[""AO"",""DO"",""FO"",""SC""]","[""WF06"",""WF14"",""HM10"",""AF02""]","[2,6,4,10]","[4,6,2,8]","","",""
"show-reward","38","153888","0.0-38.0","p160087","A281ASP4WWAN3E","3FVBZG9CLKK1M1GPZWGJX51HFG80HB","3TY7ZAOG5HQVBBFRVJOHZHCYQ850KX","emotion","match","uniform","","","","","","","","152987","154989.60000002384","","","","","","","","","","","","10","","stimuli/stars_10.png","36","","","","","stimuli/AF02_SC.jpg","",""
"explore-choice","39","155219","0.0-39.0","p160087","A281ASP4WWAN3E","3FVBZG9CLKK1M1GPZWGJX51HFG80HB","3TY7ZAOG5HQVBBFRVJOHZHCYQ850KX","emotion","match","uniform","","","","","","","818.3999999761581","154990.20000004768","155808.60000002384","[""stimuli/AF02_AO.jpg"",""stimuli/WF06_FO.jpg"",""stimuli/HM10_DO.jpg"",""stimuli/WF14_SC.jpg""]","stimuli/AF02_AO.jpg","stimuli/WF06_FO.jpg","stimuli/HM10_DO.jpg","stimuli/WF14_SC.jpg","pos2","stimuli/WF06_FO.jpg","FO","WF06","1","2","4","2","stimuli/stars_4.png","38","[""AO"",""FO"",""DO"",""SC""]","[""AF02"",""WF06"",""HM10"",""WF14""]","[3,4,7,7]","[4,2,6,8]","","",""
"show-reward","40","157223","0.0-40.0","p160087","A281ASP4WWAN3E","3FVBZG9CLKK1M1GPZWGJX51HFG80HB","3TY7ZAOG5HQVBBFRVJOHZHCYQ850KX","emotion","match","uniform","","","","","","","","156321.30000001192","158323.5","","","","","","","","","","","","4","","stimuli/stars_4.png","38","","","","","stimuli/WF06_FO.jpg","",""
"explore-choice","41","158739","0.0-41.0","p160087","A281ASP4WWAN3E","3FVBZG9CLKK1M1GPZWGJX51HFG80HB","3TY7ZAOG5HQVBBFRVJOHZHCYQ850KX","emotion","match","uniform","","","","","","","1014.6999999880791","158324.30000001192","159339","[""stimuli/WF14_AO.jpg"",""stimuli/HM10_DO.jpg"",""stimuli/WF06_SC.jpg"",""stimuli/AF02_FO.jpg""]","stimuli/WF14_AO.jpg","stimuli/HM10_DO.jpg","stimuli/WF06_SC.jpg","stimuli/AF02_FO.jpg","pos3","stimuli/WF06_SC.jpg","SC","WF06","2","4.5","9","8","stimuli/stars_9.png","42.5","[""AO"",""DO"",""SC"",""FO""]","[""WF14"",""HM10"",""WF06"",""AF02""]","[5,6,9,4]","[4,6,8,2]","","",""
"show-reward","42","160742","0.0-42.0","p160087","A281ASP4WWAN3E","3FVBZG9CLKK1M1GPZWGJX51HFG80HB","3TY7ZAOG5HQVBBFRVJOHZHCYQ850KX","emotion","match","uniform","","","","","","","","159840.80000001192","161842.90000003576","","","","","","","","","","","","9","","stimuli/stars_9.png","42.5","","","","","stimuli/WF06_SC.jpg","",""
"explore-choice","43","163067","0.0-43.0","p160087","A281ASP4WWAN3E","3FVBZG9CLKK1M1GPZWGJX51HFG80HB","3TY7ZAOG5HQVBBFRVJOHZHCYQ850KX","emotion","match","uniform","","","","","","","1823.6000000238419","161843.60000002384","163667.20000004768","[""stimuli/HM10_AO.jpg"",""stimuli/AF02_DO.jpg"",""stimuli/WF06_FO.jpg"",""stimuli/WF14_SC.jpg""]","stimuli/HM10_AO.jpg","stimuli/AF02_DO.jpg","stimuli/WF06_FO.jpg","stimuli/WF14_SC.jpg","pos2","stimuli/AF02_DO.jpg","DO","AF02","1","3","6","6","stimuli/stars_6.png","45.5","[""AO"",""DO"",""FO"",""SC""]","[""HM10"",""AF02"",""WF06"",""WF14""]","[3,6,4,6]","[4,6,2,8]","","",""
"show-reward","44","165069","0.0-44.0","p160087","A281ASP4WWAN3E","3FVBZG9CLKK1M1GPZWGJX51HFG80HB","3TY7ZAOG5HQVBBFRVJOHZHCYQ850KX","emotion","match","uniform","","","","","","","","164168.80000001192","166170.10000002384","","","","","","","","","","","","6","","stimuli/stars_6.png","45.5","","","","","stimuli/AF02_DO.jpg","",""
"explore-choice","45","166645","0.0-45.0","p160087","A281ASP4WWAN3E","3FVBZG9CLKK1M1GPZWGJX51HFG80HB","3TY7ZAOG5HQVBBFRVJOHZHCYQ850KX","emotion","match","uniform","","","","","","","1066.699999988079","166170.90000003576","167237.60000002384","[""stimuli/AF02_SC.jpg"",""stimuli/HM10_DO.jpg"",""stimuli/WF06_FO.jpg"",""stimuli/WF14_AO.jpg""]","stimuli/AF02_SC.jpg","stimuli/HM10_DO.jpg","stimuli/WF06_FO.jpg","stimuli/WF14_AO.jpg","pos3","stimuli/WF06_FO.jpg","FO","WF06","2","0","0","2","stimuli/stars_0.png","45.5","[""SC"",""DO"",""FO"",""AO""]","[""AF02"",""HM10"",""WF06"",""WF14""]","[6,7,0,3]","[8,6,2,4]","","",""
"show-reward","46","168661","0.0-46.0","p160087","A281ASP4WWAN3E","3FVBZG9CLKK1M1GPZWGJX51HFG80HB","3TY7ZAOG5HQVBBFRVJOHZHCYQ850KX","emotion","match","uniform","","","","","","","","167747","169762.30000001192","","","","","","","","","","","","0","","stimuli/stars_0.png","45.5","","","","","stimuli/WF06_FO.jpg","",""
"explore-choice","47","169935","0.0-47.0","p160087","A281ASP4WWAN3E","3FVBZG9CLKK1M1GPZWGJX51HFG80HB","3TY7ZAOG5HQVBBFRVJOHZHCYQ850KX","emotion","match","uniform","","","","","","","768.2999999523163","169763.20000004768","170531.5","[""stimuli/HM10_FO.jpg"",""stimuli/WF14_AO.jpg"",""stimuli/WF06_DO.jpg"",""stimuli/AF02_SC.jpg""]","stimuli/HM10_FO.jpg","stimuli/WF14_AO.jpg","stimuli/WF06_DO.jpg","stimuli/AF02_SC.jpg","pos4","stimuli/AF02_SC.jpg","SC","AF02","3","3","6","8","stimuli/stars_6.png","48.5","[""FO"",""AO"",""DO"",""SC""]","[""HM10"",""WF14"",""WF06"",""AF02""]","[2,2,5,6]","[2,4,6,8]","","",""
"show-reward","48","171953","0.0-48.0","p160087","A281ASP4WWAN3E","3FVBZG9CLKK1M1GPZWGJX51HFG80HB","3TY7ZAOG5HQVBBFRVJOHZHCYQ850KX","emotion","match","uniform","","","","","","","","171037.30000001192","173054.20000004768","","","","","","","","","","","","6","","stimuli/stars_6.png","48.5","","","","","stimuli/AF02_SC.jpg","",""
"explore-choice","49","173391","0.0-49.0","p160087","A281ASP4WWAN3E","3FVBZG9CLKK1M1GPZWGJX51HFG80HB","3TY7ZAOG5HQVBBFRVJOHZHCYQ850KX","emotion","match","uniform","","","","","","","931","173055","173986","[""stimuli/AF02_FO.jpg"",""stimuli/HM10_SC.jpg"",""stimuli/WF14_AO.jpg"",""stimuli/WF06_DO.jpg""]","stimuli/AF02_FO.jpg","stimuli/HM10_SC.jpg","stimuli/WF14_AO.jpg","stimuli/WF06_DO.jpg","pos1","stimuli/AF02_FO.jpg","FO","AF02","0","1.5","3","2","stimuli/stars_3.png","50","[""FO"",""SC"",""AO"",""DO""]","[""AF02"",""HM10"",""WF14"",""WF06""]","[3,7,3,7]","[2,8,4,6]","","",""
"show-reward","50","175409","0.0-50.0","p160087","A281ASP4WWAN3E","3FVBZG9CLKK1M1GPZWGJX51HFG80HB","3TY7ZAOG5HQVBBFRVJOHZHCYQ850KX","emotion","match","uniform","","","","","","","","174493.30000001192","176509.80000001192","","","","","","","","","","","","3","","stimuli/stars_3.png","50","","","","","stimuli/AF02_FO.jpg","",""
"explore-choice","51","177080","0.0-51.0","p160087","A281ASP4WWAN3E","3FVBZG9CLKK1M1GPZWGJX51HFG80HB","3TY7ZAOG5HQVBBFRVJOHZHCYQ850KX","emotion","match","uniform","","","","","","","1163.300000011921","176510.80000001192","177674.10000002384","[""stimuli/HM10_DO.jpg"",""stimuli/AF02_AO.jpg"",""stimuli/WF06_SC.jpg"",""stimuli/WF14_FO.jpg""]","stimuli/HM10_DO.jpg","stimuli/AF02_AO.jpg","stimuli/WF06_SC.jpg","stimuli/WF14_FO.jpg","pos1","stimuli/HM10_DO.jpg","DO","HM10","0","2","4","6","stimuli/stars_4.png","52","[""DO"",""AO"",""SC"",""FO""]","[""HM10"",""AF02"",""WF06"",""WF14""]","[4,2,10,3]","[6,4,8,2]","","",""
"show-reward","52","179087","0.0-52.0","p160087","A281ASP4WWAN3E","3FVBZG9CLKK1M1GPZWGJX51HFG80HB","3TY7ZAOG5HQVBBFRVJOHZHCYQ850KX","emotion","match","uniform","","","","","","","","178182.5","180187.80000001192","","","","","","","","","","","","4","","stimuli/stars_4.png","52","","","","","stimuli/HM10_DO.jpg","",""
"explore-choice","53","180134","0.0-53.0","p160087","A281ASP4WWAN3E","3FVBZG9CLKK1M1GPZWGJX51HFG80HB","3TY7ZAOG5HQVBBFRVJOHZHCYQ850KX","emotion","match","uniform","","","","","","","535.6999999880791","180188.70000004768","180724.40000003576","[""stimuli/WF14_SC.jpg"",""stimuli/AF02_FO.jpg"",""stimuli/WF06_DO.jpg"",""stimuli/HM10_AO.jpg""]","stimuli/WF14_SC.jpg","stimuli/AF02_FO.jpg","stimuli/WF06_DO.jpg","stimuli/HM10_AO.jpg","pos4","stimuli/HM10_AO.jpg","AO","HM10","3","1.5","3","4","stimuli/stars_3.png","53.5","[""SC"",""FO"",""DO"",""AO""]","[""WF14"",""AF02"",""WF06"",""HM10""]","[9,4,8,3]","[8,2,6,4]","","",""
"show-reward","54","182141","0.0-54.0","p160087","A281ASP4WWAN3E","3FVBZG9CLKK1M1GPZWGJX51HFG80HB","3TY7ZAOG5HQVBBFRVJOHZHCYQ850KX","emotion","match","uniform","","","","","","","","181235.70000004768","183241.80000001192","","","","","","","","","","","","3","","stimuli/stars_3.png","53.5","","","","","stimuli/HM10_AO.jpg","",""
"explore-choice","55","184418","0.0-55.0","p160087","A281ASP4WWAN3E","3FVBZG9CLKK1M1GPZWGJX51HFG80HB","3TY7ZAOG5HQVBBFRVJOHZHCYQ850KX","emotion","match","uniform","","","","","","","1769.800000011921","183242.90000003576","185012.70000004768","[""stimuli/WF14_AO.jpg"",""stimuli/WF06_DO.jpg"",""stimuli/AF02_FO.jpg"",""stimuli/HM10_SC.jpg""]","stimuli/WF14_AO.jpg","stimuli/WF06_DO.jpg","stimuli/AF02_FO.jpg","stimuli/HM10_SC.jpg","pos2","stimuli/WF06_DO.jpg","DO","WF06","1","3.5","7","6","stimuli/stars_7.png","57","[""AO"",""DO"",""FO"",""SC""]","[""WF14"",""WF06"",""AF02"",""HM10""]","[3,7,3,7]","[4,6,2,8]","","",""
"show-reward","56","186423","0.0-56.0","p160087","A281ASP4WWAN3E","3FVBZG9CLKK1M1GPZWGJX51HFG80HB","3TY7ZAOG5HQVBBFRVJOHZHCYQ850KX","emotion","match","uniform","","","","","","","","185519.90000003576","187524","","","","","","","","","","","","7","","stimuli/stars_7.png","57","","","","","stimuli/WF06_DO.jpg","",""
"explore-choice","57","188071","0.0-57.0","p160087","A281ASP4WWAN3E","3FVBZG9CLKK1M1GPZWGJX51HFG80HB","3TY7ZAOG5HQVBBFRVJOHZHCYQ850KX","emotion","match","uniform","","","","","","","1146.199999988079","187524.90000003576","188671.10000002384","[""stimuli/HM10_FO.jpg"",""stimuli/WF14_SC.jpg"",""stimuli/AF02_AO.jpg"",""stimuli/WF06_DO.jpg""]","stimuli/HM10_FO.jpg","stimuli/WF14_SC.jpg","stimuli/AF02_AO.jpg","stimuli/WF06_DO.jpg","pos3","stimuli/AF02_AO.jpg","AO","AF02","2","2","4","4","stimuli/stars_4.png","59","[""FO"",""SC"",""AO"",""DO""]","[""HM10"",""WF14"",""AF02"",""WF06""]","[1,10,4,5]","[2,8,4,6]","","",""
"show-reward","58","190079","0.0-58.0","p160087","A281ASP4WWAN3E","3FVBZG9CLKK1M1GPZWGJX51HFG80HB","3TY7ZAOG5HQVBBFRVJOHZHCYQ850KX","emotion","match","uniform","","","","","","","","189173.10000002384","191179.70000004768","","","","","","","","","","","","4","","stimuli/stars_4.png","59","","","","","stimuli/AF02_AO.jpg","",""
"explore-choice","59","191818","0.0-59.0","p160087","A281ASP4WWAN3E","3FVBZG9CLKK1M1GPZWGJX51HFG80HB","3TY7ZAOG5HQVBBFRVJOHZHCYQ850KX","emotion","match","uniform","","","","","","","1226.5","191180.70000004768","192407.20000004768","[""stimuli/AF02_AO.jpg"",""stimuli/WF06_DO.jpg"",""stimuli/WF14_FO.jpg"",""stimuli/HM10_SC.jpg""]","stimuli/AF02_AO.jpg","stimuli/WF06_DO.jpg","stimuli/WF14_FO.jpg","stimuli/HM10_SC.jpg","pos3","stimuli/WF14_FO.jpg","FO","WF14","2","1","2","2","stimuli/stars_2.png","60","[""AO"",""DO"",""FO"",""SC""]","[""AF02"",""WF06"",""WF14"",""HM10""]","[4,7,2,9]","[4,6,2,8]","","",""
"show-reward","60","193821","0.0-60.0","p160087","A281ASP4WWAN3E","3FVBZG9CLKK1M1GPZWGJX51HFG80HB","3TY7ZAOG5HQVBBFRVJOHZHCYQ850KX","emotion","match","uniform","","","","","","","","192919.90000003576","194922.30000001192","","","","","","","","","","","","2","","stimuli/stars_2.png","60","","","","","stimuli/WF14_FO.jpg","",""
"explore-choice","61","195346","0.0-61.0","p160087","A281ASP4WWAN3E","3FVBZG9CLKK1M1GPZWGJX51HFG80HB","3TY7ZAOG5HQVBBFRVJOHZHCYQ850KX","emotion","match","uniform","","","","","","","1022.5","194923","195945.5","[""stimuli/WF06_AO.jpg"",""stimuli/WF14_SC.jpg"",""stimuli/HM10_DO.jpg"",""stimuli/AF02_FO.jpg""]","stimuli/WF06_AO.jpg","stimuli/WF14_SC.jpg","stimuli/HM10_DO.jpg","stimuli/AF02_FO.jpg","pos2","stimuli/WF14_SC.jpg","SC","WF14","1","3.5","7","8","stimuli/stars_7.png","63.5","[""AO"",""SC"",""DO"",""FO""]","[""WF06"",""WF14"",""HM10"",""AF02""]","[3,7,6,3]","[4,8,6,2]","","",""
"show-reward","62","197349","0.0-62.0","p160087","A281ASP4WWAN3E","3FVBZG9CLKK1M1GPZWGJX51HFG80HB","3TY7ZAOG5HQVBBFRVJOHZHCYQ850KX","emotion","match","uniform","","","","","","","","196448.20000004768","198450.30000001192","","","","","","","","","","","","7","","stimuli/stars_7.png","63.5","","","","","stimuli/WF14_SC.jpg","",""
"explore-choice","63","202991","0.0-63.0","p160087","A281ASP4WWAN3E","3FVBZG9CLKK1M1GPZWGJX51HFG80HB","3TY7ZAOG5HQVBBFRVJOHZHCYQ850KX","emotion","match","uniform","","","","","","","5124.600000023842","198451.5","203576.10000002384","[""stimuli/WF06_FO.jpg"",""stimuli/HM10_DO.jpg"",""stimuli/AF02_SC.jpg"",""stimuli/WF14_AO.jpg""]","stimuli/WF06_FO.jpg","stimuli/HM10_DO.jpg","stimuli/AF02_SC.jpg","stimuli/WF14_AO.jpg","pos4","stimuli/WF14_AO.jpg","AO","WF14","3","1.5","3","4","stimuli/stars_3.png","65","[""FO"",""DO"",""SC"",""AO""]","[""WF06"",""HM10"",""AF02"",""WF14""]","[0,7,6,3]","[2,6,8,4]","","",""
"show-reward","64","204993","0.0-64.0","p160087","A281ASP4WWAN3E","3FVBZG9CLKK1M1GPZWGJX51HFG80HB","3TY7ZAOG5HQVBBFRVJOHZHCYQ850KX","emotion","match","uniform","","","","","","","","204092.70000004768","206094.40000003576","","","","","","","","","","","","3","","stimuli/stars_3.png","65","","","","","stimuli/WF14_AO.jpg","",""
"explore-choice","65","214223","0.0-65.0","p160087","A281ASP4WWAN3E","3FVBZG9CLKK1M1GPZWGJX51HFG80HB","3TY7ZAOG5HQVBBFRVJOHZHCYQ850KX","emotion","match","uniform","","","","","","","8713.5","206095.10000002384","214808.60000002384","[""stimuli/AF02_SC.jpg"",""stimuli/HM10_FO.jpg"",""stimuli/WF06_AO.jpg"",""stimuli/WF14_DO.jpg""]","stimuli/AF02_SC.jpg","stimuli/HM10_FO.jpg","stimuli/WF06_AO.jpg","stimuli/WF14_DO.jpg","pos1","stimuli/AF02_SC.jpg","SC","AF02","0","5","10","8","stimuli/stars_10.png","70","[""SC"",""FO"",""AO"",""DO""]","[""AF02"",""HM10"",""WF06"",""WF14""]","[10,4,2,6]","[8,2,4,6]","","",""
"show-reward","66","216238","0.0-66.0","p160087","A281ASP4WWAN3E","3FVBZG9CLKK1M1GPZWGJX51HFG80HB","3TY7ZAOG5HQVBBFRVJOHZHCYQ850KX","emotion","match","uniform","","","","","","","","215325","217339.40000003576","","","","","","","","","","","","10","","stimuli/stars_10.png","70","","","","","stimuli/AF02_SC.jpg","",""
"explore-choice","67","219963","0.0-67.0","p160087","A281ASP4WWAN3E","3FVBZG9CLKK1M1GPZWGJX51HFG80HB","3TY7ZAOG5HQVBBFRVJOHZHCYQ850KX","emotion","match","uniform","","","","","","","3222.699999988079","217340.30000001192","220563","[""stimuli/AF02_AO.jpg"",""stimuli/WF14_SC.jpg"",""stimuli/WF06_FO.jpg"",""stimuli/HM10_DO.jpg""]","stimuli/AF02_AO.jpg","stimuli/WF14_SC.jpg","stimuli/WF06_FO.jpg","stimuli/HM10_DO.jpg","pos2","stimuli/WF14_SC.jpg","SC","WF14","1","3.5","7","8","stimuli/stars_7.png","73.5","[""AO"",""SC"",""FO"",""DO""]","[""AF02"",""WF14"",""WF06"",""HM10""]","[3,7,4,7]","[4,8,2,6]","","",""
"show-reward","68","221971","0.0-68.0","p160087","A281ASP4WWAN3E","3FVBZG9CLKK1M1GPZWGJX51HFG80HB","3TY7ZAOG5HQVBBFRVJOHZHCYQ850KX","emotion","match","uniform","","","","","","","","221065.20000004768","223071.80000001192","","","","","","","","","","","","7","","stimuli/stars_7.png","73.5","","","","","stimuli/WF14_SC.jpg","",""
"explore-choice","69","224133","0.0-69.0","p160087","A281ASP4WWAN3E","3FVBZG9CLKK1M1GPZWGJX51HFG80HB","3TY7ZAOG5HQVBBFRVJOHZHCYQ850KX","emotion","match","uniform","","","","","","","1660.6000000238419","223073","224733.60000002384","[""stimuli/HM10_SC.jpg"",""stimuli/AF02_AO.jpg"",""stimuli/WF06_FO.jpg"",""stimuli/WF14_DO.jpg""]","stimuli/HM10_SC.jpg","stimuli/AF02_AO.jpg","stimuli/WF06_FO.jpg","stimuli/WF14_DO.jpg","pos3","stimuli/WF06_FO.jpg","FO","WF06","2","1","2","2","stimuli/stars_2.png","74.5","[""SC"",""AO"",""FO"",""DO""]","[""HM10"",""AF02"",""WF06"",""WF14""]","[9,5,2,8]","[8,4,2,6]","","",""
"show-reward","70","226146","0.0-70.0","p160087","A281ASP4WWAN3E","3FVBZG9CLKK1M1GPZWGJX51HFG80HB","3TY7ZAOG5HQVBBFRVJOHZHCYQ850KX","emotion","match","uniform","","","","","","","","225235.40000003576","227246.60000002384","","","","","","","","","","","","2","","stimuli/stars_2.png","74.5","","","","","stimuli/WF06_FO.jpg","",""
"explore-choice","71","227280","0.0-71.0","p160087","A281ASP4WWAN3E","3FVBZG9CLKK1M1GPZWGJX51HFG80HB","3TY7ZAOG5HQVBBFRVJOHZHCYQ850KX","emotion","match","uniform","","","","","","","622","227247.70000004768","227869.70000004768","[""stimuli/WF06_SC.jpg"",""stimuli/AF02_DO.jpg"",""stimuli/WF14_AO.jpg"",""stimuli/HM10_FO.jpg""]","stimuli/WF06_SC.jpg","stimuli/AF02_DO.jpg","stimuli/WF14_AO.jpg","stimuli/HM10_FO.jpg","pos1","stimuli/WF06_SC.jpg","SC","WF06","0","5","10","8","stimuli/stars_10.png","79.5","[""SC"",""DO"",""AO"",""FO""]","[""WF06"",""AF02"",""WF14"",""HM10""]","[10,4,5,2]","[8,6,4,2]","","",""
"show-reward","72","229295","0.0-72.0","p160087","A281ASP4WWAN3E","3FVBZG9CLKK1M1GPZWGJX51HFG80HB","3TY7ZAOG5HQVBBFRVJOHZHCYQ850KX","emotion","match","uniform","","","","","","","","228381.5","230396.60000002384","","","","","","","","","","","","10","","stimuli/stars_10.png","79.5","","","","","stimuli/WF06_SC.jpg","",""
"explore-choice","73","231375","0.0-73.0","p160087","A281ASP4WWAN3E","3FVBZG9CLKK1M1GPZWGJX51HFG80HB","3TY7ZAOG5HQVBBFRVJOHZHCYQ850KX","emotion","match","uniform","","","","","","","1579","230397.30000001192","231976.30000001192","[""stimuli/HM10_AO.jpg"",""stimuli/WF06_DO.jpg"",""stimuli/AF02_FO.jpg"",""stimuli/WF14_SC.jpg""]","stimuli/HM10_AO.jpg","stimuli/WF06_DO.jpg","stimuli/AF02_FO.jpg","stimuli/WF14_SC.jpg","pos3","stimuli/AF02_FO.jpg","FO","AF02","2","2","4","2","stimuli/stars_4.png","81.5","[""AO"",""DO"",""FO"",""SC""]","[""HM10"",""WF06"",""AF02"",""WF14""]","[3,8,4,9]","[4,6,2,8]","","",""
"show-reward","74","233392","0.0-74.0","p160087","A281ASP4WWAN3E","3FVBZG9CLKK1M1GPZWGJX51HFG80HB","3TY7ZAOG5HQVBBFRVJOHZHCYQ850KX","emotion","match","uniform","","","","","","","","232477.40000003576","234492.70000004768","","","","","","","","","","","","4","","stimuli/stars_4.png","81.5","","","","","stimuli/AF02_FO.jpg","",""
"explore-choice","75","236185","0.0-75.0","p160087","A281ASP4WWAN3E","3FVBZG9CLKK1M1GPZWGJX51HFG80HB","3TY7ZAOG5HQVBBFRVJOHZHCYQ850KX","emotion","match","uniform","","","","","","","2290.800000011921","234493.5","236784.30000001192","[""stimuli/AF02_SC.jpg"",""stimuli/WF14_FO.jpg"",""stimuli/WF06_AO.jpg"",""stimuli/HM10_DO.jpg""]","stimuli/AF02_SC.jpg","stimuli/WF14_FO.jpg","stimuli/WF06_AO.jpg","stimuli/HM10_DO.jpg","pos3","stimuli/WF06_AO.jpg","AO","WF06","2","2.5","5","4","stimuli/stars_5.png","84","[""SC"",""FO"",""AO"",""DO""]","[""AF02"",""WF14"",""WF06"",""HM10""]","[10,3,5,8]","[8,2,4,6]","","",""
"show-reward","76","238198","0.0-76.0","p160087","A281ASP4WWAN3E","3FVBZG9CLKK1M1GPZWGJX51HFG80HB","3TY7ZAOG5HQVBBFRVJOHZHCYQ850KX","emotion","match","uniform","","","","","","","","237286.40000003576","239298.90000003576","","","","","","","","","","","","5","","stimuli/stars_5.png","84","","","","","stimuli/WF06_AO.jpg","",""
"explore-choice","77","242901","0.0-77.0","p160087","A281ASP4WWAN3E","3FVBZG9CLKK1M1GPZWGJX51HFG80HB","3TY7ZAOG5HQVBBFRVJOHZHCYQ850KX","emotion","match","uniform","","","","","","","4201.099999964237","239299.70000004768","243500.80000001192","[""stimuli/HM10_SC.jpg"",""stimuli/WF14_FO.jpg"",""stimuli/AF02_DO.jpg"",""stimuli/WF06_AO.jpg""]","stimuli/HM10_SC.jpg","stimuli/WF14_FO.jpg","stimuli/AF02_DO.jpg","stimuli/WF06_AO.jpg","pos2","stimuli/WF14_FO.jpg","FO","WF14","1","1.5","3","2","stimuli/stars_3.png","85.5","[""SC"",""FO"",""DO"",""AO""]","[""HM10"",""WF14"",""AF02"",""WF06""]","[9,3,6,6]","[8,2,6,4]","","",""
"show-reward","78","244917","0.0-78.0","p160087","A281ASP4WWAN3E","3FVBZG9CLKK1M1GPZWGJX51HFG80HB","3TY7ZAOG5HQVBBFRVJOHZHCYQ850KX","emotion","match","uniform","","","","","","","","244003.10000002384","246018","","","","","","","","","","","","3","","stimuli/stars_3.png","85.5","","","","","stimuli/WF14_FO.jpg","",""
"explore-choice","79","246731","0.0-79.0","p160087","A281ASP4WWAN3E","3FVBZG9CLKK1M1GPZWGJX51HFG80HB","3TY7ZAOG5HQVBBFRVJOHZHCYQ850KX","emotion","match","uniform","","","","","","","1312","246019","247331","[""stimuli/HM10_SC.jpg"",""stimuli/WF06_FO.jpg"",""stimuli/AF02_DO.jpg"",""stimuli/WF14_AO.jpg""]","stimuli/HM10_SC.jpg","stimuli/WF06_FO.jpg","stimuli/AF02_DO.jpg","stimuli/WF14_AO.jpg","pos4","stimuli/WF14_AO.jpg","AO","WF14","3","2.5","5","4","stimuli/stars_5.png","88","[""SC"",""FO"",""DO"",""AO""]","[""HM10"",""WF06"",""AF02"",""WF14""]","[6,0,5,5]","[8,2,6,4]","","",""
"show-reward","80","248734","0.0-80.0","p160087","A281ASP4WWAN3E","3FVBZG9CLKK1M1GPZWGJX51HFG80HB","3TY7ZAOG5HQVBBFRVJOHZHCYQ850KX","emotion","match","uniform","","","","","","","","247832.90000003576","249835.30000001192","","","","","","","","","","","","5","","stimuli/stars_5.png","88","","","","","stimuli/WF14_AO.jpg","",""
"explore-choice","81","255343","0.0-81.0","p160087","A281ASP4WWAN3E","3FVBZG9CLKK1M1GPZWGJX51HFG80HB","3TY7ZAOG5HQVBBFRVJOHZHCYQ850KX","emotion","match","uniform","","","","","","","6101.700000047684","249836","255937.70000004768","[""stimuli/WF06_FO.jpg"",""stimuli/AF02_SC.jpg"",""stimuli/WF14_DO.jpg"",""stimuli/HM10_AO.jpg""]","stimuli/WF06_FO.jpg","stimuli/AF02_SC.jpg","stimuli/WF14_DO.jpg","stimuli/HM10_AO.jpg","pos2","stimuli/AF02_SC.jpg","SC","AF02","1","4","8","8","stimuli/stars_8.png","92","[""FO"",""SC"",""DO"",""AO""]","[""WF06"",""AF02"",""WF14"",""HM10""]","[0,8,5,3]","[2,8,6,4]","","",""
"show-reward","82","257358","0.0-82.0","p160087","A281ASP4WWAN3E","3FVBZG9CLKK1M1GPZWGJX51HFG80HB","3TY7ZAOG5HQVBBFRVJOHZHCYQ850KX","emotion","match","uniform","","","","","","","","256445.20000004768","258459.20000004768","","","","","","","","","","","","8","","stimuli/stars_8.png","92","","","","","stimuli/AF02_SC.jpg","",""
"explore-choice","83","271256","0.0-83.0","p160087","A281ASP4WWAN3E","3FVBZG9CLKK1M1GPZWGJX51HFG80HB","3TY7ZAOG5HQVBBFRVJOHZHCYQ850KX","emotion","match","uniform","","","","","","","13396.900000035763","258459.80000001192","271856.7000000477","[""stimuli/AF02_FO.jpg"",""stimuli/HM10_SC.jpg"",""stimuli/WF14_DO.jpg"",""stimuli/WF06_AO.jpg""]","stimuli/AF02_FO.jpg","stimuli/HM10_SC.jpg","stimuli/WF14_DO.jpg","stimuli/WF06_AO.jpg","pos1","stimuli/AF02_FO.jpg","FO","AF02","0","0","0","2","stimuli/stars_0.png","92","[""FO"",""SC"",""DO"",""AO""]","[""AF02"",""HM10"",""WF14"",""WF06""]","[0,8,5,4]","[2,8,6,4]","","",""
"show-reward","84","273260","0.0-84.0","p160087","A281ASP4WWAN3E","3FVBZG9CLKK1M1GPZWGJX51HFG80HB","3TY7ZAOG5HQVBBFRVJOHZHCYQ850KX","emotion","match","uniform","","","","","","","","272358.40000003576","274361.7000000477","","","","","","","","","","","","0","","stimuli/stars_0.png","92","","","","","stimuli/AF02_FO.jpg","",""
"explore-choice","85","278893","0.0-85.0","p160087","A281ASP4WWAN3E","3FVBZG9CLKK1M1GPZWGJX51HFG80HB","3TY7ZAOG5HQVBBFRVJOHZHCYQ850KX","emotion","match","uniform","","","","","","","5131.399999976158","274362.2000000477","279493.60000002384","[""stimuli/WF06_SC.jpg"",""stimuli/WF14_AO.jpg"",""stimuli/AF02_FO.jpg"",""stimuli/HM10_DO.jpg""]","stimuli/WF06_SC.jpg","stimuli/WF14_AO.jpg","stimuli/AF02_FO.jpg","stimuli/HM10_DO.jpg","pos3","stimuli/AF02_FO.jpg","FO","AF02","2","2","4","2","stimuli/stars_4.png","94","[""SC"",""AO"",""FO"",""DO""]","[""WF06"",""WF14"",""AF02"",""HM10""]","[9,5,4,6]","[8,4,2,6]","","",""
"show-reward","86","280909","0.0-86.0","p160087","A281ASP4WWAN3E","3FVBZG9CLKK1M1GPZWGJX51HFG80HB","3TY7ZAOG5HQVBBFRVJOHZHCYQ850KX","emotion","match","uniform","","","","","","","","279995.2000000477","282009.8000000119","","","","","","","","","","","","4","","stimuli/stars_4.png","94","","","","","stimuli/AF02_FO.jpg","",""
"explore-choice","87","281935","0.0-87.0","p160087","A281ASP4WWAN3E","3FVBZG9CLKK1M1GPZWGJX51HFG80HB","3TY7ZAOG5HQVBBFRVJOHZHCYQ850KX","emotion","match","uniform","","","","","","","524.9000000357628","282010.5","282535.40000003576","[""stimuli/HM10_FO.jpg"",""stimuli/AF02_DO.jpg"",""stimuli/WF14_SC.jpg"",""stimuli/WF06_AO.jpg""]","stimuli/HM10_FO.jpg","stimuli/AF02_DO.jpg","stimuli/WF14_SC.jpg","stimuli/WF06_AO.jpg","pos2","stimuli/AF02_DO.jpg","DO","AF02","1","2","4","6","stimuli/stars_4.png","96","[""FO"",""DO"",""SC"",""AO""]","[""HM10"",""AF02"",""WF14"",""WF06""]","[3,4,6,2]","[2,6,8,4]","","",""
"show-reward","88","283950","0.0-88.0","p160087","A281ASP4WWAN3E","3FVBZG9CLKK1M1GPZWGJX51HFG80HB","3TY7ZAOG5HQVBBFRVJOHZHCYQ850KX","emotion","match","uniform","","","","","","","","283036.40000003576","285050.90000003576","","","","","","","","","","","","4","","stimuli/stars_4.png","96","","","","","stimuli/AF02_DO.jpg","",""
"explore-choice","89","285219","0.0-89.0","p160087","A281ASP4WWAN3E","3FVBZG9CLKK1M1GPZWGJX51HFG80HB","3TY7ZAOG5HQVBBFRVJOHZHCYQ850KX","emotion","match","uniform","","","","","","","754.1000000238419","285051.8000000119","285805.90000003576","[""stimuli/WF06_FO.jpg"",""stimuli/HM10_AO.jpg"",""stimuli/AF02_DO.jpg"",""stimuli/WF14_SC.jpg""]","stimuli/WF06_FO.jpg","stimuli/HM10_AO.jpg","stimuli/AF02_DO.jpg","stimuli/WF14_SC.jpg","pos4","stimuli/WF14_SC.jpg","SC","WF14","3","3","6","8","stimuli/stars_6.png","99","[""FO"",""AO"",""DO"",""SC""]","[""WF06"",""HM10"",""AF02"",""WF14""]","[4,3,6,6]","[2,4,6,8]","","",""
"show-reward","90","287223","0.0-90.0","p160087","A281ASP4WWAN3E","3FVBZG9CLKK1M1GPZWGJX51HFG80HB","3TY7ZAOG5HQVBBFRVJOHZHCYQ850KX","emotion","match","uniform","","","","","","","","286321","288324.3000000119","","","","","","","","","","","","6","","stimuli/stars_6.png","99","","","","","stimuli/WF14_SC.jpg","",""
"explore-choice","91","288200","0.0-91.0","p160087","A281ASP4WWAN3E","3FVBZG9CLKK1M1GPZWGJX51HFG80HB","3TY7ZAOG5HQVBBFRVJOHZHCYQ850KX","emotion","match","uniform","","","","","","","475.0999999642372","288324.90000003576","288800","[""stimuli/WF14_AO.jpg"",""stimuli/HM10_FO.jpg"",""stimuli/WF06_DO.jpg"",""stimuli/AF02_SC.jpg""]","stimuli/WF14_AO.jpg","stimuli/HM10_FO.jpg","stimuli/WF06_DO.jpg","stimuli/AF02_SC.jpg","pos1","stimuli/WF14_AO.jpg","AO","WF14","0","1","2","4","stimuli/stars_2.png","100","[""AO"",""FO"",""DO"",""SC""]","[""WF14"",""HM10"",""WF06"",""AF02""]","[2,2,5,6]","[4,2,6,8]","","",""
"show-reward","92","290212","0.0-92.0","p160087","A281ASP4WWAN3E","3FVBZG9CLKK1M1GPZWGJX51HFG80HB","3TY7ZAOG5HQVBBFRVJOHZHCYQ850KX","emotion","match","uniform","","","","","","","","289302","291312.8000000119","","","","","","","","","","","","2","","stimuli/stars_2.png","100","","","","","stimuli/WF14_AO.jpg","",""
"explore-choice","93","291258","0.0-93.0","p160087","A281ASP4WWAN3E","3FVBZG9CLKK1M1GPZWGJX51HFG80HB","3TY7ZAOG5HQVBBFRVJOHZHCYQ850KX","emotion","match","uniform","","","","","","","544.3000000119209","291313.8000000119","291858.10000002384","[""stimuli/WF14_FO.jpg"",""stimuli/HM10_DO.jpg"",""stimuli/AF02_AO.jpg"",""stimuli/WF06_SC.jpg""]","stimuli/WF14_FO.jpg","stimuli/HM10_DO.jpg","stimuli/AF02_AO.jpg","stimuli/WF06_SC.jpg","pos4","stimuli/WF06_SC.jpg","SC","WF06","3","5","10","8","stimuli/stars_10.png","105","[""FO"",""DO"",""AO"",""SC""]","[""WF14"",""HM10"",""AF02"",""WF06""]","[3,4,2,10]","[2,6,4,8]","","",""
"show-reward","94","293260","0.0-94.0","p160087","A281ASP4WWAN3E","3FVBZG9CLKK1M1GPZWGJX51HFG80HB","3TY7ZAOG5HQVBBFRVJOHZHCYQ850KX","emotion","match","uniform","","","","","","","","292360.10000002384","294361.40000003576","","","","","","","","","","","","10","","stimuli/stars_10.png","105","","","","","stimuli/WF06_SC.jpg","",""
"explore-choice","95","295003","0.0-95.0","p160087","A281ASP4WWAN3E","3FVBZG9CLKK1M1GPZWGJX51HFG80HB","3TY7ZAOG5HQVBBFRVJOHZHCYQ850KX","emotion","match","uniform","","","","","","","1240.6000000238419","294362","295602.60000002384","[""stimuli/WF14_DO.jpg"",""stimuli/HM10_AO.jpg"",""stimuli/AF02_FO.jpg"",""stimuli/WF06_SC.jpg""]","stimuli/WF14_DO.jpg","stimuli/HM10_AO.jpg","stimuli/AF02_FO.jpg","stimuli/WF06_SC.jpg","pos3","stimuli/AF02_FO.jpg","FO","AF02","2","1.5","3","2","stimuli/stars_3.png","106.5","[""DO"",""AO"",""FO"",""SC""]","[""WF14"",""HM10"",""AF02"",""WF06""]","[8,3,3,6]","[6,4,2,8]","","",""
"show-reward","96","297007","0.0-96.0","p160087","A281ASP4WWAN3E","3FVBZG9CLKK1M1GPZWGJX51HFG80HB","3TY7ZAOG5HQVBBFRVJOHZHCYQ850KX","emotion","match","uniform","","","","","","","","296104.8000000119","298108.3000000119","","","","","","","","","","","","3","","stimuli/stars_3.png","106.5","","","","","stimuli/AF02_FO.jpg","",""
"explore-choice","97","300117","0.0-97.0","p160087","A281ASP4WWAN3E","3FVBZG9CLKK1M1GPZWGJX51HFG80HB","3TY7ZAOG5HQVBBFRVJOHZHCYQ850KX","emotion","match","uniform","","","","","","","2607.699999988079","298109.3000000119","300717","[""stimuli/WF14_DO.jpg"",""stimuli/AF02_AO.jpg"",""stimuli/HM10_FO.jpg"",""stimuli/WF06_SC.jpg""]","stimuli/WF14_DO.jpg","stimuli/AF02_AO.jpg","stimuli/HM10_FO.jpg","stimuli/WF06_SC.jpg","pos2","stimuli/AF02_AO.jpg","AO","AF02","1","1.5","3","4","stimuli/stars_3.png","108","[""DO"",""AO"",""FO"",""SC""]","[""WF14"",""AF02"",""HM10"",""WF06""]","[6,3,3,6]","[6,4,2,8]","","",""
"show-reward","98","302127","0.0-98.0","p160087","A281ASP4WWAN3E","3FVBZG9CLKK1M1GPZWGJX51HFG80HB","3TY7ZAOG5HQVBBFRVJOHZHCYQ850KX","emotion","match","uniform","","","","","","","","301218.60000002384","303228","","","","","","","","","","","","3","","stimuli/stars_3.png","108","","","","","stimuli/AF02_AO.jpg","",""
"explore-choice","99","302817","0.0-99.0","p160087","A281ASP4WWAN3E","3FVBZG9CLKK1M1GPZWGJX51HFG80HB","3TY7ZAOG5HQVBBFRVJOHZHCYQ850KX","emotion","match","uniform","","","","","","","176","303229.2000000477","303405.2000000477","[""stimuli/HM10_AO.jpg"",""stimuli/AF02_DO.jpg"",""stimuli/WF06_SC.jpg"",""stimuli/WF14_FO.jpg""]","stimuli/HM10_AO.jpg","stimuli/AF02_DO.jpg","stimuli/WF06_SC.jpg","stimuli/WF14_FO.jpg","pos4","stimuli/WF14_FO.jpg","FO","WF14","3","0.5","1","2","stimuli/stars_1.png","108.5","[""AO"",""DO"",""SC"",""FO""]","[""HM10"",""AF02"",""WF06"",""WF14""]","[6,7,7,1]","[4,6,8,2]","","",""
"show-reward","100","304832","0.0-100.0","p160087","A281ASP4WWAN3E","3FVBZG9CLKK1M1GPZWGJX51HFG80HB","3TY7ZAOG5HQVBBFRVJOHZHCYQ850KX","emotion","match","uniform","","","","","","","","303918.7000000477","305932.2000000477","","","","","","","","","","","","1","","stimuli/stars_1.png","108.5","","","","","stimuli/WF14_FO.jpg","",""
"explore-choice","101","306745","0.0-101.0","p160087","A281ASP4WWAN3E","3FVBZG9CLKK1M1GPZWGJX51HFG80HB","3TY7ZAOG5HQVBBFRVJOHZHCYQ850KX","emotion","match","uniform","","","","","","","1411.8999999761581","305933.40000003576","307345.3000000119","[""stimuli/WF06_DO.jpg"",""stimuli/WF14_FO.jpg"",""stimuli/AF02_SC.jpg"",""stimuli/HM10_AO.jpg""]","stimuli/WF06_DO.jpg","stimuli/WF14_FO.jpg","stimuli/AF02_SC.jpg","stimuli/HM10_AO.jpg","pos3","stimuli/AF02_SC.jpg","SC","AF02","2","3","6","8","stimuli/stars_6.png","111.5","[""DO"",""FO"",""SC"",""AO""]","[""WF06"",""WF14"",""AF02"",""HM10""]","[8,2,6,4]","[6,2,8,4]","","",""
"show-reward","102","308748","0.0-102.0","p160087","A281ASP4WWAN3E","3FVBZG9CLKK1M1GPZWGJX51HFG80HB","3TY7ZAOG5HQVBBFRVJOHZHCYQ850KX","emotion","match","uniform","","","","","","","","307846.90000003576","309849","","","","","","","","","","","","6","","stimuli/stars_6.png","111.5","","","","","stimuli/AF02_SC.jpg","",""
"explore-choice","103","312032","0.0-103.0","p160087","A281ASP4WWAN3E","3FVBZG9CLKK1M1GPZWGJX51HFG80HB","3TY7ZAOG5HQVBBFRVJOHZHCYQ850KX","emotion","match","uniform","","","","","","","2776","309849.7000000477","312625.7000000477","[""stimuli/AM05_HO.jpg"",""stimuli/HF09_HE.jpg"",""stimuli/AF09_CC.jpg"",""stimuli/BF04_SUR.jpg""]","stimuli/AM05_HO.jpg","stimuli/HF09_HE.jpg","stimuli/AF09_CC.jpg","stimuli/BF04_SUR.jpg","pos2","stimuli/HF09_HE.jpg","HE","HF09","1","2","4","2","stimuli/stars_4.png","113.5","[""HO"",""HE"",""CC"",""SUR""]","[""AM05"",""HF09"",""AF09"",""BF04""]","[8,4,10,4]","[6,2,8,4]","","",""
"show-reward","104","314034","0.0-104.0","p160087","A281ASP4WWAN3E","3FVBZG9CLKK1M1GPZWGJX51HFG80HB","3TY7ZAOG5HQVBBFRVJOHZHCYQ850KX","emotion","match","uniform","","","","","","","","313133.5","315135.40000003576","","","","","","","","","","","","4","","stimuli/stars_4.png","113.5","","","","","stimuli/HF09_HE.jpg","",""
"explore-choice","105","316096","0.0-105.0","p160087","A281ASP4WWAN3E","3FVBZG9CLKK1M1GPZWGJX51HFG80HB","3TY7ZAOG5HQVBBFRVJOHZHCYQ850KX","emotion","match","uniform","","","","","","","1555.699999988079","315136.3000000119","316692","[""stimuli/AM05_SUR.jpg"",""stimuli/BF04_CC.jpg"",""stimuli/HF09_HE.jpg"",""stimuli/AF09_HO.jpg""]","stimuli/AM05_SUR.jpg","stimuli/BF04_CC.jpg","stimuli/HF09_HE.jpg","stimuli/AF09_HO.jpg","pos4","stimuli/AF09_HO.jpg","HO","AF09","3","3.5","7","6","stimuli/stars_7.png","117","[""SUR"",""CC"",""HE"",""HO""]","[""AM05"",""BF04"",""HF09"",""AF09""]","[5,10,3,7]","[4,8,2,6]","","",""
"show-reward","106","318099","0.0-106.0","p160087","A281ASP4WWAN3E","3FVBZG9CLKK1M1GPZWGJX51HFG80HB","3TY7ZAOG5HQVBBFRVJOHZHCYQ850KX","emotion","match","uniform","","","","","","","","317197.7000000477","319199.90000003576","","","","","","","","","","","","7","","stimuli/stars_7.png","117","","","","","stimuli/AF09_HO.jpg","",""
"explore-choice","107","320032","0.0-107.0","p160087","A281ASP4WWAN3E","3FVBZG9CLKK1M1GPZWGJX51HFG80HB","3TY7ZAOG5HQVBBFRVJOHZHCYQ850KX","emotion","match","uniform","","","","","","","1423.6000000238419","319200.60000002384","320624.2000000477","[""stimuli/HF09_CC.jpg"",""stimuli/AF09_HE.jpg"",""stimuli/BF04_SUR.jpg"",""stimuli/AM05_HO.jpg""]","stimuli/HF09_CC.jpg","stimuli/AF09_HE.jpg","stimuli/BF04_SUR.jpg","stimuli/AM05_HO.jpg","pos1","stimuli/HF09_CC.jpg","CC","HF09","0","3","6","8","stimuli/stars_6.png","120","[""CC"",""HE"",""SUR"",""HO""]","[""HF09"",""AF09"",""BF04"",""AM05""]","[6,0,3,8]","[8,2,4,6]","","",""
"show-reward","108","322040","0.0-108.0","p160087","A281ASP4WWAN3E","3FVBZG9CLKK1M1GPZWGJX51HFG80HB","3TY7ZAOG5HQVBBFRVJOHZHCYQ850KX","emotion","match","uniform","","","","","","","","321133.8000000119","323141","","","","","","","","","","","","6","","stimuli/stars_6.png","120","","","","","stimuli/HF09_CC.jpg","",""
"explore-choice","109","324099","0.0-109.0","p160087","A281ASP4WWAN3E","3FVBZG9CLKK1M1GPZWGJX51HFG80HB","3TY7ZAOG5HQVBBFRVJOHZHCYQ850KX","emotion","match","uniform","","","","","","","1556.6000000238419","323142","324698.60000002384","[""stimuli/AM05_HO.jpg"",""stimuli/AF09_HE.jpg"",""stimuli/BF04_CC.jpg"",""stimuli/HF09_SUR.jpg""]","stimuli/AM05_HO.jpg","stimuli/AF09_HE.jpg","stimuli/BF04_CC.jpg","stimuli/HF09_SUR.jpg","pos4","stimuli/HF09_SUR.jpg","SUR","HF09","3","3","6","4","stimuli/stars_6.png","123","[""HO"",""HE"",""CC"",""SUR""]","[""AM05"",""AF09"",""BF04"",""HF09""]","[8,4,8,6]","[6,2,8,4]","","",""
"show-reward","110","326108","0.0-110.0","p160087","A281ASP4WWAN3E","3FVBZG9CLKK1M1GPZWGJX51HFG80HB","3TY7ZAOG5HQVBBFRVJOHZHCYQ850KX","emotion","match","uniform","","","","","","","","325200.40000003576","327209.40000003576","","","","","","","","","","","","6","","stimuli/stars_6.png","123","","","","","stimuli/HF09_SUR.jpg","",""
"explore-choice","111","327653","0.0-111.0","p160087","A281ASP4WWAN3E","3FVBZG9CLKK1M1GPZWGJX51HFG80HB","3TY7ZAOG5HQVBBFRVJOHZHCYQ850KX","emotion","match","uniform","","","","","","","1042.6000000238419","327210.10000002384","328252.7000000477","[""stimuli/AF09_HE.jpg"",""stimuli/AM05_SUR.jpg"",""stimuli/BF04_CC.jpg"",""stimuli/HF09_HO.jpg""]","stimuli/AF09_HE.jpg","stimuli/AM05_SUR.jpg","stimuli/BF04_CC.jpg","stimuli/HF09_HO.jpg","pos4","stimuli/HF09_HO.jpg","HO","HF09","3","3","6","6","stimuli/stars_6.png","126","[""HE"",""SUR"",""CC"",""HO""]","[""AF09"",""AM05"",""BF04"",""HF09""]","[4,3,8,6]","[2,4,8,6]","","",""
"show-reward","112","329659","0.0-112.0","p160087","A281ASP4WWAN3E","3FVBZG9CLKK1M1GPZWGJX51HFG80HB","3TY7ZAOG5HQVBBFRVJOHZHCYQ850KX","emotion","match","uniform","","","","","","","","328754.90000003576","330759.8000000119","","","","","","","","","","","","6","","stimuli/stars_6.png","126","","","","","stimuli/HF09_HO.jpg","",""
"explore-choice","113","331846","0.0-113.0","p160087","A281ASP4WWAN3E","3FVBZG9CLKK1M1GPZWGJX51HFG80HB","3TY7ZAOG5HQVBBFRVJOHZHCYQ850KX","emotion","match","uniform","","","","","","","1676.7000000476837","330760.5","332437.2000000477","[""stimuli/HF09_HE.jpg"",""stimuli/AF09_SUR.jpg"",""stimuli/AM05_CC.jpg"",""stimuli/BF04_HO.jpg""]","stimuli/HF09_HE.jpg","stimuli/AF09_SUR.jpg","stimuli/AM05_CC.jpg","stimuli/BF04_HO.jpg","pos1","stimuli/HF09_HE.jpg","HE","HF09","0","0","0","2","stimuli/stars_0.png","126","[""HE"",""SUR"",""CC"",""HO""]","[""HF09"",""AF09"",""AM05"",""BF04""]","[0,5,8,8]","[2,4,8,6]","","",""
"show-reward","114","333859","0.0-114.0","p160087","A281ASP4WWAN3E","3FVBZG9CLKK1M1GPZWGJX51HFG80HB","3TY7ZAOG5HQVBBFRVJOHZHCYQ850KX","emotion","match","uniform","","","","","","","","332947.8000000119","334959.7000000477","","","","","","","","","","","","0","","stimuli/stars_0.png","126","","","","","stimuli/HF09_HE.jpg","",""
"explore-choice","115","335325","0.0-115.0","p160087","A281ASP4WWAN3E","3FVBZG9CLKK1M1GPZWGJX51HFG80HB","3TY7ZAOG5HQVBBFRVJOHZHCYQ850KX","emotion","match","uniform","","","","","","","961.4000000357628","334960.3000000119","335921.7000000477","[""stimuli/AF09_CC.jpg"",""stimuli/BF04_SUR.jpg"",""stimuli/AM05_HE.jpg"",""stimuli/HF09_HO.jpg""]","stimuli/AF09_CC.jpg","stimuli/BF04_SUR.jpg","stimuli/AM05_HE.jpg","stimuli/HF09_HO.jpg","pos1","stimuli/AF09_CC.jpg","CC","AF09","0","3.5","7","8","stimuli/stars_7.png","129.5","[""CC"",""SUR"",""HE"",""HO""]","[""AF09"",""BF04"",""AM05"",""HF09""]","[7,6,4,7]","[8,4,2,6]","","",""
"show-reward","116","337328","0.0-116.0","p160087","A281ASP4WWAN3E","3FVBZG9CLKK1M1GPZWGJX51HFG80HB","3TY7ZAOG5HQVBBFRVJOHZHCYQ850KX","emotion","match","uniform","","","","","","","","336426.40000003576","338429.3000000119","","","","","","","","","","","","7","","stimuli/stars_7.png","129.5","","","","","stimuli/AF09_CC.jpg","",""
"explore-choice","117","339680","0.0-117.0","p160087","A281ASP4WWAN3E","3FVBZG9CLKK1M1GPZWGJX51HFG80HB","3TY7ZAOG5HQVBBFRVJOHZHCYQ850KX","emotion","match","uniform","","","","","","","1835.5999999642372","338430.2000000477","340265.8000000119","[""stimuli/HF09_HE.jpg"",""stimuli/AF09_SUR.jpg"",""stimuli/BF04_CC.jpg"",""stimuli/AM05_HO.jpg""]","stimuli/HF09_HE.jpg","stimuli/AF09_SUR.jpg","stimuli/BF04_CC.jpg","stimuli/AM05_HO.jpg","pos2","stimuli/AF09_SUR.jpg","SUR","AF09","1","1","2","4","stimuli/stars_2.png","130.5","[""HE"",""SUR"",""CC"",""HO""]","[""HF09"",""AF09"",""BF04"",""AM05""]","[1,2,8,8]","[2,4,8,6]","","",""
"show-reward","118","341688","0.0-118.0","p160087","A281ASP4WWAN3E","3FVBZG9CLKK1M1GPZWGJX51HFG80HB","3TY7ZAOG5HQVBBFRVJOHZHCYQ850KX","emotion","match","uniform","","","","","","","","340782.10000002384","342789.3000000119","","","","","","","","","","","","2","","stimuli/stars_2.png","130.5","","","","","stimuli/AF09_SUR.jpg","",""
"explore-choice","119","344232","0.0-119.0","p160087","A281ASP4WWAN3E","3FVBZG9CLKK1M1GPZWGJX51HFG80HB","3TY7ZAOG5HQVBBFRVJOHZHCYQ850KX","emotion","match","uniform","","","","","","","2038","342790.10000002384","344828.10000002384","[""stimuli/HF09_SUR.jpg"",""stimuli/AF09_HO.jpg"",""stimuli/AM05_CC.jpg"",""stimuli/BF04_HE.jpg""]","stimuli/HF09_SUR.jpg","stimuli/AF09_HO.jpg","stimuli/AM05_CC.jpg","stimuli/BF04_HE.jpg","pos1","stimuli/HF09_SUR.jpg","SUR","HF09","0","1.5","3","4","stimuli/stars_3.png","132","[""SUR"",""HO"",""CC"",""HE""]","[""HF09"",""AF09"",""AM05"",""BF04""]","[3,7,9,4]","[4,6,8,2]","","",""
"show-reward","120","346235","0.0-120.0","p160087","A281ASP4WWAN3E","3FVBZG9CLKK1M1GPZWGJX51HFG80HB","3TY7ZAOG5HQVBBFRVJOHZHCYQ850KX","emotion","match","uniform","","","","","","","","345334.2000000477","347336.2000000477","","","","","","","","","","","","3","","stimuli/stars_3.png","132","","","","","stimuli/HF09_SUR.jpg","",""
"explore-choice","121","347436","0.0-121.0","p160087","A281ASP4WWAN3E","3FVBZG9CLKK1M1GPZWGJX51HFG80HB","3TY7ZAOG5HQVBBFRVJOHZHCYQ850KX","emotion","match","uniform","","","","","","","699.4000000357628","347336.8000000119","348036.2000000477","[""stimuli/BF04_HE.jpg"",""stimuli/AF09_HO.jpg"",""stimuli/AM05_SUR.jpg"",""stimuli/HF09_CC.jpg""]","stimuli/BF04_HE.jpg","stimuli/AF09_HO.jpg","stimuli/AM05_SUR.jpg","stimuli/HF09_CC.jpg","pos4","stimuli/HF09_CC.jpg","CC","HF09","3","5","10","8","stimuli/stars_10.png","137","[""HE"",""HO"",""SUR"",""CC""]","[""BF04"",""AF09"",""AM05"",""HF09""]","[0,7,2,10]","[2,6,4,8]","","",""
"show-reward","122","349450","0.0-122.0","p160087","A281ASP4WWAN3E","3FVBZG9CLKK1M1GPZWGJX51HFG80HB","3TY7ZAOG5HQVBBFRVJOHZHCYQ850KX","emotion","match","uniform","","","","","","","","348537.3000000119","350550.90000003576","","","","","","","","","","","","10","","stimuli/stars_10.png","137","","","","","stimuli/HF09_CC.jpg","",""
"explore-choice","123","350917","0.0-123.0","p160087","A281ASP4WWAN3E","3FVBZG9CLKK1M1GPZWGJX51HFG80HB","3TY7ZAOG5HQVBBFRVJOHZHCYQ850KX","emotion","match","uniform","","","","","","","960.8000000119209","350551.60000002384","351512.40000003576","[""stimuli/HF09_SUR.jpg"",""stimuli/AF09_CC.jpg"",""stimuli/AM05_HO.jpg"",""stimuli/BF04_HE.jpg""]","stimuli/HF09_SUR.jpg","stimuli/AF09_CC.jpg","stimuli/AM05_HO.jpg","stimuli/BF04_HE.jpg","pos2","stimuli/AF09_CC.jpg","CC","AF09","1","4","8","8","stimuli/stars_8.png","141","[""SUR"",""CC"",""HO"",""HE""]","[""HF09"",""AF09"",""AM05"",""BF04""]","[2,8,7,3]","[4,8,6,2]","","",""
"show-reward","124","352932","0.0-124.0","p160087","A281ASP4WWAN3E","3FVBZG9CLKK1M1GPZWGJX51HFG80HB","3TY7ZAOG5HQVBBFRVJOHZHCYQ850KX","emotion","match","uniform","","","","","","","","352018.5","354032.8000000119","","","","","","","","","","","","8","","stimuli/stars_8.png","141","","","","","stimuli/AF09_CC.jpg","",""
"explore-choice","125","356132","0.0-125.0","p160087","A281ASP4WWAN3E","3FVBZG9CLKK1M1GPZWGJX51HFG80HB","3TY7ZAOG5HQVBBFRVJOHZHCYQ850KX","emotion","match","uniform","","","","","","","2695.199999988079","354033.60000002384","356728.8000000119","[""stimuli/BF04_SUR.jpg"",""stimuli/AM05_CC.jpg"",""stimuli/AF09_HE.jpg"",""stimuli/HF09_HO.jpg""]","stimuli/BF04_SUR.jpg","stimuli/AM05_CC.jpg","stimuli/AF09_HE.jpg","stimuli/HF09_HO.jpg","pos3","stimuli/AF09_HE.jpg","HE","AF09","2","0","0","2","stimuli/stars_0.png","141","[""SUR"",""CC"",""HE"",""HO""]","[""BF04"",""AM05"",""AF09"",""HF09""]","[2,7,0,7]","[4,8,2,6]","","",""
"show-reward","126","358136","0.0-126.0","p160087","A281ASP4WWAN3E","3FVBZG9CLKK1M1GPZWGJX51HFG80HB","3TY7ZAOG5HQVBBFRVJOHZHCYQ850KX","emotion","match","uniform","","","","","","","","357234","359236.8000000119","","","","","","","","","","","","0","","stimuli/stars_0.png","141","","","","","stimuli/AF09_HE.jpg","",""
"explore-choice","127","360431","0.0-127.0","p160087","A281ASP4WWAN3E","3FVBZG9CLKK1M1GPZWGJX51HFG80HB","3TY7ZAOG5HQVBBFRVJOHZHCYQ850KX","emotion","match","uniform","","","","","","","1779.5","359237.60000002384","361017.10000002384","[""stimuli/BF04_HO.jpg"",""stimuli/AF09_CC.jpg"",""stimuli/AM05_SUR.jpg"",""stimuli/HF09_HE.jpg""]","stimuli/BF04_HO.jpg","stimuli/AF09_CC.jpg","stimuli/AM05_SUR.jpg","stimuli/HF09_HE.jpg","pos3","stimuli/AM05_SUR.jpg","SUR","AM05","2","2.5","5","4","stimuli/stars_5.png","143.5","[""HO"",""CC"",""SUR"",""HE""]","[""BF04"",""AF09"",""AM05"",""HF09""]","[5,8,5,2]","[6,8,4,2]","","",""
"show-reward","128","362434","0.0-128.0","p160087","A281ASP4WWAN3E","3FVBZG9CLKK1M1GPZWGJX51HFG80HB","3TY7ZAOG5HQVBBFRVJOHZHCYQ850KX","emotion","match","uniform","","","","","","","","361532.7000000477","363535.3000000119","","","","","","","","","","","","5","","stimuli/stars_5.png","143.5","","","","","stimuli/AM05_SUR.jpg","",""
"explore-choice","129","363450","0.0-129.0","p160087","A281ASP4WWAN3E","3FVBZG9CLKK1M1GPZWGJX51HFG80HB","3TY7ZAOG5HQVBBFRVJOHZHCYQ850KX","emotion","match","uniform","","","","","","","507.60000002384186","363536","364043.60000002384","[""stimuli/BF04_SUR.jpg"",""stimuli/AF09_HO.jpg"",""stimuli/AM05_CC.jpg"",""stimuli/HF09_HE.jpg""]","stimuli/BF04_SUR.jpg","stimuli/AF09_HO.jpg","stimuli/AM05_CC.jpg","stimuli/HF09_HE.jpg","pos2","stimuli/AF09_HO.jpg","HO","AF09","1","3","6","6","stimuli/stars_6.png","146.5","[""SUR"",""HO"",""CC"",""HE""]","[""BF04"",""AF09"",""AM05"",""HF09""]","[6,6,10,4]","[4,6,8,2]","","",""
"show-reward","130","365453","0.0-130.0","p160087","A281ASP4WWAN3E","3FVBZG9CLKK1M1GPZWGJX51HFG80HB","3TY7ZAOG5HQVBBFRVJOHZHCYQ850KX","emotion","match","uniform","","","","","","","","364551.5","366554.40000003576","","","","","","","","","","","","6","","stimuli/stars_6.png","146.5","","","","","stimuli/AF09_HO.jpg","",""
"explore-choice","131","366448","0.0-131.0","p160087","A281ASP4WWAN3E","3FVBZG9CLKK1M1GPZWGJX51HFG80HB","3TY7ZAOG5HQVBBFRVJOHZHCYQ850KX","emotion","match","uniform","","","","","","","492.5","366555.10000002384","367047.60000002384","[""stimuli/AF09_HO.jpg"",""stimuli/HF09_CC.jpg"",""stimuli/AM05_HE.jpg"",""stimuli/BF04_SUR.jpg""]","stimuli/AF09_HO.jpg","stimuli/HF09_CC.jpg","stimuli/AM05_HE.jpg","stimuli/BF04_SUR.jpg","pos4","stimuli/BF04_SUR.jpg","SUR","BF04","3","2.5","5","4","stimuli/stars_5.png","149","[""HO"",""CC"",""HE"",""SUR""]","[""AF09"",""HF09"",""AM05"",""BF04""]","[4,6,0,5]","[6,8,2,4]","","",""
"show-reward","132","368461","0.0-132.0","p160087","A281ASP4WWAN3E","3FVBZG9CLKK1M1GPZWGJX51HFG80HB","3TY7ZAOG5HQVBBFRVJOHZHCYQ850KX","emotion","match","uniform","","","","","","","","367549.60000002384","369562","","","","","","","","","","","","5","","stimuli/stars_5.png","149","","","","","stimuli/BF04_SUR.jpg","",""
"explore-choice","133","369268","0.0-133.0","p160087","A281ASP4WWAN3E","3FVBZG9CLKK1M1GPZWGJX51HFG80HB","3TY7ZAOG5HQVBBFRVJOHZHCYQ850KX","emotion","match","uniform","","","","","","","304.9000000357628","369562.8000000119","369867.7000000477","[""stimuli/HF09_CC.jpg"",""stimuli/AF09_SUR.jpg"",""stimuli/AM05_HE.jpg"",""stimuli/BF04_HO.jpg""]","stimuli/HF09_CC.jpg","stimuli/AF09_SUR.jpg","stimuli/AM05_HE.jpg","stimuli/BF04_HO.jpg","pos1","stimuli/HF09_CC.jpg","CC","HF09","0","4.5","9","8","stimuli/stars_9.png","153.5","[""CC"",""SUR"",""HE"",""HO""]","[""HF09"",""AF09"",""AM05"",""BF04""]","[9,6,2,4]","[8,4,2,6]","","",""
"show-reward","134","371270","0.0-134.0","p160087","A281ASP4WWAN3E","3FVBZG9CLKK1M1GPZWGJX51HFG80HB","3TY7ZAOG5HQVBBFRVJOHZHCYQ850KX","emotion","match","uniform","","","","","","","","370369.90000003576","372371.3000000119","","","","","","","","","","","","9","","stimuli/stars_9.png","153.5","","","","","stimuli/HF09_CC.jpg","",""
"explore-choice","135","372005","0.0-135.0","p160087","A281ASP4WWAN3E","3FVBZG9CLKK1M1GPZWGJX51HFG80HB","3TY7ZAOG5HQVBBFRVJOHZHCYQ850KX","emotion","match","uniform","","","","","","","232.10000002384186","372372","372604.10000002384","[""stimuli/HF09_SUR.jpg"",""stimuli/AF09_CC.jpg"",""stimuli/AM05_HE.jpg"",""stimuli/BF04_HO.jpg""]","stimuli/HF09_SUR.jpg","stimuli/AF09_CC.jpg","stimuli/AM05_HE.jpg","stimuli/BF04_HO.jpg","pos2","stimuli/AF09_CC.jpg","CC","AF09","1","4","8","8","stimuli/stars_8.png","157.5","[""SUR"",""CC"",""HE"",""HO""]","[""HF09"",""AF09"",""AM05"",""BF04""]","[6,8,3,4]","[4,8,2,6]","","",""
"show-reward","136","374016","0.0-136.0","p160087","A281ASP4WWAN3E","3FVBZG9CLKK1M1GPZWGJX51HFG80HB","3TY7ZAOG5HQVBBFRVJOHZHCYQ850KX","emotion","match","uniform","","","","","","","","373106.8000000119","375116.90000003576","","","","","","","","","","","","8","","stimuli/stars_8.png","157.5","","","","","stimuli/AF09_CC.jpg","",""
"explore-choice","137","375405","0.0-137.0","p160087","A281ASP4WWAN3E","3FVBZG9CLKK1M1GPZWGJX51HFG80HB","3TY7ZAOG5HQVBBFRVJOHZHCYQ850KX","emotion","match","uniform","","","","","","","882.3000000119209","375118.10000002384","376000.40000003576","[""stimuli/HF09_CC.jpg"",""stimuli/BF04_HO.jpg"",""stimuli/AF09_HE.jpg"",""stimuli/AM05_SUR.jpg""]","stimuli/HF09_CC.jpg","stimuli/BF04_HO.jpg","stimuli/AF09_HE.jpg","stimuli/AM05_SUR.jpg","pos3","stimuli/AF09_HE.jpg","HE","AF09","2","2","4","2","stimuli/stars_4.png","159.5","[""CC"",""HO"",""HE"",""SUR""]","[""HF09"",""BF04"",""AF09"",""AM05""]","[10,8,4,6]","[8,6,2,4]","","",""
"show-reward","138","377419","0.0-138.0","p160087","A281ASP4WWAN3E","3FVBZG9CLKK1M1GPZWGJX51HFG80HB","3TY7ZAOG5HQVBBFRVJOHZHCYQ850KX","emotion","match","uniform","","","","","","","","376506.60000002384","378520.40000003576","","","","","","","","","","","","4","","stimuli/stars_4.png","159.5","","","","","stimuli/AF09_HE.jpg","",""
"explore-choice","139","378414","0.0-139.0","p160087","A281ASP4WWAN3E","3FVBZG9CLKK1M1GPZWGJX51HFG80HB","3TY7ZAOG5HQVBBFRVJOHZHCYQ850KX","emotion","match","uniform","","","","","","","489.39999997615814","378521.10000002384","379010.5","[""stimuli/AF09_HE.jpg"",""stimuli/HF09_SUR.jpg"",""stimuli/BF04_HO.jpg"",""stimuli/AM05_CC.jpg""]","stimuli/AF09_HE.jpg","stimuli/HF09_SUR.jpg","stimuli/BF04_HO.jpg","stimuli/AM05_CC.jpg","pos1","stimuli/AF09_HE.jpg","HE","AF09","0","0.5","1","2","stimuli/stars_1.png","160","[""HE"",""SUR"",""HO"",""CC""]","[""AF09"",""HF09"",""BF04"",""AM05""]","[1,6,7,10]","[2,4,6,8]","","",""
"show-reward","140","380418","0.0-140.0","p160087","A281ASP4WWAN3E","3FVBZG9CLKK1M1GPZWGJX51HFG80HB","3TY7ZAOG5HQVBBFRVJOHZHCYQ850KX","emotion","match","uniform","","","","","","","","379515.40000003576","381519.40000003576","","","","","","","","","","","","1","","stimuli/stars_1.png","160","","","","","stimuli/AF09_HE.jpg","",""
"explore-choice","141","382170","0.0-141.0","p160087","A281ASP4WWAN3E","3FVBZG9CLKK1M1GPZWGJX51HFG80HB","3TY7ZAOG5HQVBBFRVJOHZHCYQ850KX","emotion","match","uniform","","","","","","","1250.300000011921","381520.3000000119","382770.60000002384","[""stimuli/HF09_HO.jpg"",""stimuli/AM05_CC.jpg"",""stimuli/BF04_HE.jpg"",""stimuli/AF09_SUR.jpg""]","stimuli/HF09_HO.jpg","stimuli/AM05_CC.jpg","stimuli/BF04_HE.jpg","stimuli/AF09_SUR.jpg","pos4","stimuli/AF09_SUR.jpg","SUR","AF09","3","2.5","5","4","stimuli/stars_5.png","162.5","[""HO"",""CC"",""HE"",""SUR""]","[""HF09"",""AM05"",""BF04"",""AF09""]","[5,8,2,5]","[6,8,2,4]","","",""
"show-reward","142","384176","0.0-142.0","p160087","A281ASP4WWAN3E","3FVBZG9CLKK1M1GPZWGJX51HFG80HB","3TY7ZAOG5HQVBBFRVJOHZHCYQ850KX","emotion","match","uniform","","","","","","","","383271.60000002384","385276.90000003576","","","","","","","","","","","","5","","stimuli/stars_5.png","162.5","","","","","stimuli/AF09_SUR.jpg","",""
"explore-choice","143","385030","0.0-143.0","p160087","A281ASP4WWAN3E","3FVBZG9CLKK1M1GPZWGJX51HFG80HB","3TY7ZAOG5HQVBBFRVJOHZHCYQ850KX","emotion","match","uniform","","","","","","","345.80000001192093","385278","385623.8000000119","[""stimuli/AM05_HE.jpg"",""stimuli/BF04_CC.jpg"",""stimuli/AF09_SUR.jpg"",""stimuli/HF09_HO.jpg""]","stimuli/AM05_HE.jpg","stimuli/BF04_CC.jpg","stimuli/AF09_SUR.jpg","stimuli/HF09_HO.jpg","pos2","stimuli/BF04_CC.jpg","CC","BF04","1","4","8","8","stimuli/stars_8.png","166.5","[""HE"",""CC"",""SUR"",""HO""]","[""AM05"",""BF04"",""AF09"",""HF09""]","[0,8,3,8]","[2,8,4,6]","","",""
"show-reward","144","387034","0.0-144.0","p160087","A281ASP4WWAN3E","3FVBZG9CLKK1M1GPZWGJX51HFG80HB","3TY7ZAOG5HQVBBFRVJOHZHCYQ850KX","emotion","match","uniform","","","","","","","","386132.10000002384","388134.8000000119","","","","","","","","","","","","8","","stimuli/stars_8.png","166.5","","","","","stimuli/BF04_CC.jpg","",""
"explore-choice","145","388264","0.0-145.0","p160087","A281ASP4WWAN3E","3FVBZG9CLKK1M1GPZWGJX51HFG80HB","3TY7ZAOG5HQVBBFRVJOHZHCYQ850KX","emotion","match","uniform","","","","","","","727.3999999761581","388135.7000000477","388863.10000002384","[""stimuli/AF09_CC.jpg"",""stimuli/BF04_HE.jpg"",""stimuli/AM05_SUR.jpg"",""stimuli/HF09_HO.jpg""]","stimuli/AF09_CC.jpg","stimuli/BF04_HE.jpg","stimuli/AM05_SUR.jpg","stimuli/HF09_HO.jpg","pos2","stimuli/BF04_HE.jpg","HE","BF04","1","1","2","2","stimuli/stars_2.png","167.5","[""CC"",""HE"",""SUR"",""HO""]","[""AF09"",""BF04"",""AM05"",""HF09""]","[8,2,6,6]","[8,2,4,6]","","",""
"show-reward","146","390271","0.0-146.0","p160087","A281ASP4WWAN3E","3FVBZG9CLKK1M1GPZWGJX51HFG80HB","3TY7ZAOG5HQVBBFRVJOHZHCYQ850KX","emotion","match","uniform","","","","","","","","389365.60000002384","391372","","","","","","","","","","","","2","","stimuli/stars_2.png","167.5","","","","","stimuli/BF04_HE.jpg","",""
"explore-choice","147","391124","0.0-147.0","p160087","A281ASP4WWAN3E","3FVBZG9CLKK1M1GPZWGJX51HFG80HB","3TY7ZAOG5HQVBBFRVJOHZHCYQ850KX","emotion","match","uniform","","","","","","","350.19999998807907","391373.3000000119","391723.5","[""stimuli/BF04_CC.jpg"",""stimuli/HF09_SUR.jpg"",""stimuli/AM05_HE.jpg"",""stimuli/AF09_HO.jpg""]","stimuli/BF04_CC.jpg","stimuli/HF09_SUR.jpg","stimuli/AM05_HE.jpg","stimuli/AF09_HO.jpg","pos1","stimuli/BF04_CC.jpg","CC","BF04","0","3","6","8","stimuli/stars_6.png","170.5","[""CC"",""SUR"",""HE"",""HO""]","[""BF04"",""HF09"",""AM05"",""AF09""]","[6,6,3,7]","[8,4,2,6]","","",""
"show-reward","148","393129","0.0-148.0","p160087","A281ASP4WWAN3E","3FVBZG9CLKK1M1GPZWGJX51HFG80HB","3TY7ZAOG5HQVBBFRVJOHZHCYQ850KX","emotion","match","uniform","","","","","","","","392226.60000002384","394229.90000003576","","","","","","","","","","","","6","","stimuli/stars_6.png","170.5","","","","","stimuli/BF04_CC.jpg","",""
"explore-choice","149","394280","0.0-149.0","p160087","A281ASP4WWAN3E","3FVBZG9CLKK1M1GPZWGJX51HFG80HB","3TY7ZAOG5HQVBBFRVJOHZHCYQ850KX","emotion","match","uniform","","","","","","","645.1000000238419","394230.60000002384","394875.7000000477","[""stimuli/HF09_CC.jpg"",""stimuli/AM05_HO.jpg"",""stimuli/BF04_HE.jpg"",""stimuli/AF09_SUR.jpg""]","stimuli/HF09_CC.jpg","stimuli/AM05_HO.jpg","stimuli/BF04_HE.jpg","stimuli/AF09_SUR.jpg","pos4","stimuli/AF09_SUR.jpg","SUR","AF09","3","3","6","4","stimuli/stars_6.png","173.5","[""CC"",""HO"",""HE"",""SUR""]","[""HF09"",""AM05"",""BF04"",""AF09""]","[9,4,3,6]","[8,6,2,4]","","",""
"show-reward","150","396285","0.0-150.0","p160087","A281ASP4WWAN3E","3FVBZG9CLKK1M1GPZWGJX51HFG80HB","3TY7ZAOG5HQVBBFRVJOHZHCYQ850KX","emotion","match","uniform","","","","","","","","395381.60000002384","397386.3000000119","","","","","","","","","","","","6","","stimuli/stars_6.png","173.5","","","","","stimuli/AF09_SUR.jpg","",""
"explore-choice","151","397715","0.0-151.0","p160087","A281ASP4WWAN3E","3FVBZG9CLKK1M1GPZWGJX51HFG80HB","3TY7ZAOG5HQVBBFRVJOHZHCYQ850KX","emotion","match","uniform","","","","","","","924.6000000238419","397387.10000002384","398311.7000000477","[""stimuli/AM05_CC.jpg"",""stimuli/HF09_SUR.jpg"",""stimuli/AF09_HO.jpg"",""stimuli/BF04_HE.jpg""]","stimuli/AM05_CC.jpg","stimuli/HF09_SUR.jpg","stimuli/AF09_HO.jpg","stimuli/BF04_HE.jpg","pos3","stimuli/AF09_HO.jpg","HO","AF09","2","3.5","7","6","stimuli/stars_7.png","177","[""CC"",""SUR"",""HO"",""HE""]","[""AM05"",""HF09"",""AF09"",""BF04""]","[9,3,7,4]","[8,4,6,2]","","",""
"show-reward","152","399731","0.0-152.0","p160087","A281ASP4WWAN3E","3FVBZG9CLKK1M1GPZWGJX51HFG80HB","3TY7ZAOG5HQVBBFRVJOHZHCYQ850KX","emotion","match","uniform","","","","","","","","398816.60000002384","400831.5","","","","","","","","","","","","7","","stimuli/stars_7.png","177","","","","","stimuli/AF09_HO.jpg","",""
"explore-choice","153","401048","0.0-153.0","p160087","A281ASP4WWAN3E","3FVBZG9CLKK1M1GPZWGJX51HFG80HB","3TY7ZAOG5HQVBBFRVJOHZHCYQ850KX","emotion","match","uniform","","","","","","","813.8000000119209","400832.3000000119","401646.10000002384","[""stimuli/HF09_HO.jpg"",""stimuli/AM05_CC.jpg"",""stimuli/AF09_SUR.jpg"",""stimuli/BF04_HE.jpg""]","stimuli/HF09_HO.jpg","stimuli/AM05_CC.jpg","stimuli/AF09_SUR.jpg","stimuli/BF04_HE.jpg","pos2","stimuli/AM05_CC.jpg","CC","AM05","1","4","8","8","stimuli/stars_8.png","181","[""HO"",""CC"",""SUR"",""HE""]","[""HF09"",""AM05"",""AF09"",""BF04""]","[5,8,5,2]","[6,8,4,2]","","",""
"show-reward","154","403063","0.0-154.0","p160087","A281ASP4WWAN3E","3FVBZG9CLKK1M1GPZWGJX51HFG80HB","3TY7ZAOG5HQVBBFRVJOHZHCYQ850KX","emotion","match","uniform","","","","","","","","402150.10000002384","404164.2000000477","","","","","","","","","","","","8","","stimuli/stars_8.png","181","","","","","stimuli/AM05_CC.jpg","",""
"explore-choice","155","404229","0.0-155.0","p160087","A281ASP4WWAN3E","3FVBZG9CLKK1M1GPZWGJX51HFG80HB","3TY7ZAOG5HQVBBFRVJOHZHCYQ850KX","emotion","match","uniform","","","","","","","665.1999999880791","404164.90000003576","404830.10000002384","[""stimuli/AM05_HE.jpg"",""stimuli/AF09_HO.jpg"",""stimuli/BF04_CC.jpg"",""stimuli/HF09_SUR.jpg""]","stimuli/AM05_HE.jpg","stimuli/AF09_HO.jpg","stimuli/BF04_CC.jpg","stimuli/HF09_SUR.jpg","pos2","stimuli/AF09_HO.jpg","HO","AF09","1","3.5","7","6","stimuli/stars_7.png","184.5","[""HE"",""HO"",""CC"",""SUR""]","[""AM05"",""AF09"",""BF04"",""HF09""]","[3,7,6,6]","[2,6,8,4]","","",""
"show-reward","156","406233","0.0-156.0","p160087","A281ASP4WWAN3E","3FVBZG9CLKK1M1GPZWGJX51HFG80HB","3TY7ZAOG5HQVBBFRVJOHZHCYQ850KX","emotion","match","uniform","","","","","","","","405331.2000000477","407334.40000003576","","","","","","","","","","","","7","","stimuli/stars_7.png","184.5","","","","","stimuli/AF09_HO.jpg","",""
"explore-choice","157","407387","0.0-157.0","p160087","A281ASP4WWAN3E","3FVBZG9CLKK1M1GPZWGJX51HFG80HB","3TY7ZAOG5HQVBBFRVJOHZHCYQ850KX","emotion","match","uniform","","","","","","","641.7000000476837","407335","407976.7000000477","[""stimuli/HF09_HO.jpg"",""stimuli/BF04_SUR.jpg"",""stimuli/AM05_HE.jpg"",""stimuli/AF09_CC.jpg""]","stimuli/HF09_HO.jpg","stimuli/BF04_SUR.jpg","stimuli/AM05_HE.jpg","stimuli/AF09_CC.jpg","pos1","stimuli/HF09_HO.jpg","HO","HF09","0","3.5","7","6","stimuli/stars_7.png","188","[""HO"",""SUR"",""HE"",""CC""]","[""HF09"",""BF04"",""AM05"",""AF09""]","[7,6,4,7]","[6,4,2,8]","","",""
"show-reward","158","409390","0.0-158.0","p160087","A281ASP4WWAN3E","3FVBZG9CLKK1M1GPZWGJX51HFG80HB","3TY7ZAOG5HQVBBFRVJOHZHCYQ850KX","emotion","match","uniform","","","","","","","","408488.7000000477","410490.8000000119","","","","","","","","","","","","7","","stimuli/stars_7.png","188","","","","","stimuli/HF09_HO.jpg","",""
"explore-choice","159","410431","0.0-159.0","p160087","A281ASP4WWAN3E","3FVBZG9CLKK1M1GPZWGJX51HFG80HB","3TY7ZAOG5HQVBBFRVJOHZHCYQ850KX","emotion","match","uniform","","","","","","","534.6999999880791","410492.2000000477","411026.90000003576","[""stimuli/BF04_SUR.jpg"",""stimuli/AM05_HO.jpg"",""stimuli/HF09_HE.jpg"",""stimuli/AF09_CC.jpg""]","stimuli/BF04_SUR.jpg","stimuli/AM05_HO.jpg","stimuli/HF09_HE.jpg","stimuli/AF09_CC.jpg","pos3","stimuli/HF09_HE.jpg","HE","HF09","2","2","4","2","stimuli/stars_4.png","190","[""SUR"",""HO"",""HE"",""CC""]","[""BF04"",""AM05"",""HF09"",""AF09""]","[4,8,4,10]","[4,6,2,8]","","",""
"show-reward","160","412449","0.0-160.0","p160087","A281ASP4WWAN3E","3FVBZG9CLKK1M1GPZWGJX51HFG80HB","3TY7ZAOG5HQVBBFRVJOHZHCYQ850KX","emotion","match","uniform","","","","","","","","411532.7000000477","413549.60000002384","","","","","","","","","","","","4","","stimuli/stars_4.png","190","","","","","stimuli/HF09_HE.jpg","",""
"explore-choice","161","413713","0.0-161.0","p160087","A281ASP4WWAN3E","3FVBZG9CLKK1M1GPZWGJX51HFG80HB","3TY7ZAOG5HQVBBFRVJOHZHCYQ850KX","emotion","match","uniform","","","","","","","752.8999999761581","413550.40000003576","414303.3000000119","[""stimuli/AM05_SUR.jpg"",""stimuli/HF09_HE.jpg"",""stimuli/BF04_HO.jpg"",""stimuli/AF09_CC.jpg""]","stimuli/AM05_SUR.jpg","stimuli/HF09_HE.jpg","stimuli/BF04_HO.jpg","stimuli/AF09_CC.jpg","pos4","stimuli/AF09_CC.jpg","CC","AF09","3","4","8","8","stimuli/stars_8.png","194","[""SUR"",""HE"",""HO"",""CC""]","[""AM05"",""HF09"",""BF04"",""AF09""]","[5,2,5,8]","[4,2,6,8]","","",""
"show-reward","162","415730","0.0-162.0","p160087","A281ASP4WWAN3E","3FVBZG9CLKK1M1GPZWGJX51HFG80HB","3TY7ZAOG5HQVBBFRVJOHZHCYQ850KX","emotion","match","uniform","","","","","","","","414815.3000000119","416831","","","","","","","","","","","","8","","stimuli/stars_8.png","194","","","","","stimuli/AF09_CC.jpg","",""
"explore-choice","163","417845","0.0-163.0","p160087","A281ASP4WWAN3E","3FVBZG9CLKK1M1GPZWGJX51HFG80HB","3TY7ZAOG5HQVBBFRVJOHZHCYQ850KX","emotion","match","uniform","","","","","","","1609.5","416831.90000003576","418441.40000003576","[""stimuli/BF04_HO.jpg"",""stimuli/AM05_SUR.jpg"",""stimuli/HF09_CC.jpg"",""stimuli/AF09_HE.jpg""]","stimuli/BF04_HO.jpg","stimuli/AM05_SUR.jpg","stimuli/HF09_CC.jpg","stimuli/AF09_HE.jpg","pos2","stimuli/AM05_SUR.jpg","SUR","AM05","1","3","6","4","stimuli/stars_6.png","197","[""HO"",""SUR"",""CC"",""HE""]","[""BF04"",""AM05"",""HF09"",""AF09""]","[8,6,10,4]","[6,4,8,2]","","",""
"show-reward","164","419856","0.0-164.0","p160087","A281ASP4WWAN3E","3FVBZG9CLKK1M1GPZWGJX51HFG80HB","3TY7ZAOG5HQVBBFRVJOHZHCYQ850KX","emotion","match","uniform","","","","","","","","418946","420957.10000002384","","","","","","","","","","","","6","","stimuli/stars_6.png","197","","","","","stimuli/AM05_SUR.jpg","",""
"explore-choice","165","420758","0.0-165.0","p160087","A281ASP4WWAN3E","3FVBZG9CLKK1M1GPZWGJX51HFG80HB","3TY7ZAOG5HQVBBFRVJOHZHCYQ850KX","emotion","match","uniform","","","","","","","399.60000002384186","420958","421357.60000002384","[""stimuli/BF04_HE.jpg"",""stimuli/HF09_HO.jpg"",""stimuli/AM05_SUR.jpg"",""stimuli/AF09_CC.jpg""]","stimuli/BF04_HE.jpg","stimuli/HF09_HO.jpg","stimuli/AM05_SUR.jpg","stimuli/AF09_CC.jpg","pos4","stimuli/AF09_CC.jpg","CC","AF09","3","4","8","8","stimuli/stars_8.png","201","[""HE"",""HO"",""SUR"",""CC""]","[""BF04"",""HF09"",""AM05"",""AF09""]","[2,6,6,8]","[2,6,4,8]","","",""
"show-reward","166","422760","0.0-166.0","p160087","A281ASP4WWAN3E","3FVBZG9CLKK1M1GPZWGJX51HFG80HB","3TY7ZAOG5HQVBBFRVJOHZHCYQ850KX","emotion","match","uniform","","","","","","","","421859.3000000119","423860.8000000119","","","","","","","","","","","","8","","stimuli/stars_8.png","201","","","","","stimuli/AF09_CC.jpg","",""
"explore-choice","167","423938","0.0-167.0","p160087","A281ASP4WWAN3E","3FVBZG9CLKK1M1GPZWGJX51HFG80HB","3TY7ZAOG5HQVBBFRVJOHZHCYQ850KX","emotion","match","uniform","","","","","","","675.8999999761581","423861.60000002384","424537.5","[""stimuli/HF09_HE.jpg"",""stimuli/BF04_SUR.jpg"",""stimuli/AM05_CC.jpg"",""stimuli/AF09_HO.jpg""]","stimuli/HF09_HE.jpg","stimuli/BF04_SUR.jpg","stimuli/AM05_CC.jpg","stimuli/AF09_HO.jpg","pos3","stimuli/AM05_CC.jpg","CC","AM05","2","5","10","8","stimuli/stars_10.png","206","[""HE"",""SUR"",""CC"",""HO""]","[""HF09"",""BF04"",""AM05"",""AF09""]","[4,6,10,6]","[2,4,8,6]","","",""
"show-reward","168","425948","0.0-168.0","p160087","A281ASP4WWAN3E","3FVBZG9CLKK1M1GPZWGJX51HFG80HB","3TY7ZAOG5HQVBBFRVJOHZHCYQ850KX","emotion","match","uniform","","","","","","","","425039.10000002384","427048.3000000119","","","","","","","","","","","","10","","stimuli/stars_10.png","206","","","","","stimuli/AM05_CC.jpg","",""
"explore-choice","169","428295","0.0-169.0","p160087","A281ASP4WWAN3E","3FVBZG9CLKK1M1GPZWGJX51HFG80HB","3TY7ZAOG5HQVBBFRVJOHZHCYQ850KX","emotion","match","uniform","","","","","","","1842.4000000357628","427049.5","428891.90000003576","[""stimuli/AM05_HO.jpg"",""stimuli/AF09_HE.jpg"",""stimuli/BF04_CC.jpg"",""stimuli/HF09_SUR.jpg""]","stimuli/AM05_HO.jpg","stimuli/AF09_HE.jpg","stimuli/BF04_CC.jpg","stimuli/HF09_SUR.jpg","pos1","stimuli/AM05_HO.jpg","HO","AM05","0","4","8","6","stimuli/stars_8.png","210","[""HO"",""HE"",""CC"",""SUR""]","[""AM05"",""AF09"",""BF04"",""HF09""]","[8,4,8,6]","[6,2,8,4]","","",""
"show-reward","170","430298","0.0-170.0","p160087","A281ASP4WWAN3E","3FVBZG9CLKK1M1GPZWGJX51HFG80HB","3TY7ZAOG5HQVBBFRVJOHZHCYQ850KX","emotion","match","uniform","","","","","","","","429396.90000003576","431399","","","","","","","","","","","","8","","stimuli/stars_8.png","210","","","","","stimuli/AM05_HO.jpg","",""
"explore-choice","171","431173","0.0-171.0","p160087","A281ASP4WWAN3E","3FVBZG9CLKK1M1GPZWGJX51HFG80HB","3TY7ZAOG5HQVBBFRVJOHZHCYQ850KX","emotion","match","uniform","","","","","","","368.69999998807907","431399.60000002384","431768.3000000119","[""stimuli/HF09_CC.jpg"",""stimuli/AF09_SUR.jpg"",""stimuli/AM05_HE.jpg"",""stimuli/BF04_HO.jpg""]","stimuli/HF09_CC.jpg","stimuli/AF09_SUR.jpg","stimuli/AM05_HE.jpg","stimuli/BF04_HO.jpg","pos2","stimuli/AF09_SUR.jpg","SUR","AF09","1","3","6","4","stimuli/stars_6.png","213","[""CC"",""SUR"",""HE"",""HO""]","[""HF09"",""AF09"",""AM05"",""BF04""]","[9,6,2,4]","[8,4,2,6]","","",""
"show-reward","172","433176","0.0-172.0","p160087","A281ASP4WWAN3E","3FVBZG9CLKK1M1GPZWGJX51HFG80HB","3TY7ZAOG5HQVBBFRVJOHZHCYQ850KX","emotion","match","uniform","","","","","","","","432274.60000002384","434276.5","","","","","","","","","","","","6","","stimuli/stars_6.png","213","","","","","stimuli/AF09_SUR.jpg","",""
"explore-choice","173","434198","0.0-173.0","p160087","A281ASP4WWAN3E","3FVBZG9CLKK1M1GPZWGJX51HFG80HB","3TY7ZAOG5HQVBBFRVJOHZHCYQ850KX","emotion","match","uniform","","","","","","","517.0999999642372","434277.2000000477","434794.3000000119","[""stimuli/AF09_SUR.jpg"",""stimuli/HF09_HE.jpg"",""stimuli/AM05_HO.jpg"",""stimuli/BF04_CC.jpg""]","stimuli/AF09_SUR.jpg","stimuli/HF09_HE.jpg","stimuli/AM05_HO.jpg","stimuli/BF04_CC.jpg","pos3","stimuli/AM05_HO.jpg","HO","AM05","2","4","8","6","stimuli/stars_8.png","217","[""SUR"",""HE"",""HO"",""CC""]","[""AF09"",""HF09"",""AM05"",""BF04""]","[2,1,8,8]","[4,2,6,8]","","",""
"show-reward","174","436214","0.0-174.0","p160087","A281ASP4WWAN3E","3FVBZG9CLKK1M1GPZWGJX51HFG80HB","3TY7ZAOG5HQVBBFRVJOHZHCYQ850KX","emotion","match","uniform","","","","","","","","435299.10000002384","437315.2000000477","","","","","","","","","","","","8","","stimuli/stars_8.png","217","","","","","stimuli/AM05_HO.jpg","",""
"explore-choice","175","437322","0.0-175.0","p160087","A281ASP4WWAN3E","3FVBZG9CLKK1M1GPZWGJX51HFG80HB","3TY7ZAOG5HQVBBFRVJOHZHCYQ850KX","emotion","match","uniform","","","","","","","600.7000000476837","437316","437916.7000000477","[""stimuli/AF09_HE.jpg"",""stimuli/AM05_CC.jpg"",""stimuli/BF04_SUR.jpg"",""stimuli/HF09_HO.jpg""]","stimuli/AF09_HE.jpg","stimuli/AM05_CC.jpg","stimuli/BF04_SUR.jpg","stimuli/HF09_HO.jpg","pos2","stimuli/AM05_CC.jpg","CC","AM05","1","3.5","7","8","stimuli/stars_7.png","220.5","[""HE"",""CC"",""SUR"",""HO""]","[""AF09"",""AM05"",""BF04"",""HF09""]","[0,7,2,7]","[2,8,4,6]","","",""
"show-reward","176","439325","0.0-176.0","p160087","A281ASP4WWAN3E","3FVBZG9CLKK1M1GPZWGJX51HFG80HB","3TY7ZAOG5HQVBBFRVJOHZHCYQ850KX","emotion","match","uniform","","","","","","","","438423","440425.60000002384","","","","","","","","","","","","7","","stimuli/stars_7.png","220.5","","","","","stimuli/AM05_CC.jpg","",""
"explore-choice","177","440539","0.0-177.0","p160087","A281ASP4WWAN3E","3FVBZG9CLKK1M1GPZWGJX51HFG80HB","3TY7ZAOG5HQVBBFRVJOHZHCYQ850KX","emotion","match","uniform","","","","","","","712.1999999880791","440426.60000002384","441138.8000000119","[""stimuli/HF09_HE.jpg"",""stimuli/AM05_SUR.jpg"",""stimuli/AF09_HO.jpg"",""stimuli/BF04_CC.jpg""]","stimuli/HF09_HE.jpg","stimuli/AM05_SUR.jpg","stimuli/AF09_HO.jpg","stimuli/BF04_CC.jpg","pos2","stimuli/AM05_SUR.jpg","SUR","AM05","1","2.5","5","4","stimuli/stars_5.png","223","[""HE"",""SUR"",""HO"",""CC""]","[""HF09"",""AM05"",""AF09"",""BF04""]","[3,5,7,10]","[2,4,6,8]","","",""
"show-reward","178","442542","0.0-178.0","p160087","A281ASP4WWAN3E","3FVBZG9CLKK1M1GPZWGJX51HFG80HB","3TY7ZAOG5HQVBBFRVJOHZHCYQ850KX","emotion","match","uniform","","","","","","","","441640.60000002384","443642.7000000477","","","","","","","","","","","","5","","stimuli/stars_5.png","223","","","","","stimuli/AM05_SUR.jpg","",""
"explore-choice","179","444428","0.0-179.0","p160087","A281ASP4WWAN3E","3FVBZG9CLKK1M1GPZWGJX51HFG80HB","3TY7ZAOG5HQVBBFRVJOHZHCYQ850KX","emotion","match","uniform","","","","","","","1373.5","443643.8000000119","445017.3000000119","[""stimuli/AF09_SUR.jpg"",""stimuli/BF04_CC.jpg"",""stimuli/HF09_HO.jpg"",""stimuli/AM05_HE.jpg""]","stimuli/AF09_SUR.jpg","stimuli/BF04_CC.jpg","stimuli/HF09_HO.jpg","stimuli/AM05_HE.jpg","pos4","stimuli/AM05_HE.jpg","HE","AM05","3","0","0","2","stimuli/stars_0.png","223","[""SUR"",""CC"",""HO"",""HE""]","[""AF09"",""BF04"",""HF09"",""AM05""]","[3,8,8,0]","[4,8,6,2]","","",""
"show-reward","180","446437","0.0-180.0","p160087","A281ASP4WWAN3E","3FVBZG9CLKK1M1GPZWGJX51HFG80HB","3TY7ZAOG5HQVBBFRVJOHZHCYQ850KX","emotion","match","uniform","","","","","","","","445530","447537.40000003576","","","","","","","","","","","","0","","stimuli/stars_0.png","223","","","","","stimuli/AM05_HE.jpg","",""
"explore-choice","181","447117","0.0-181.0","p160087","A281ASP4WWAN3E","3FVBZG9CLKK1M1GPZWGJX51HFG80HB","3TY7ZAOG5HQVBBFRVJOHZHCYQ850KX","emotion","match","uniform","","","","","","","175.10000002384186","447538.3000000119","447713.40000003576","[""stimuli/BF04_CC.jpg"",""stimuli/HF09_HO.jpg"",""stimuli/AM05_SUR.jpg"",""stimuli/AF09_HE.jpg""]","stimuli/BF04_CC.jpg","stimuli/HF09_HO.jpg","stimuli/AM05_SUR.jpg","stimuli/AF09_HE.jpg","pos1","stimuli/BF04_CC.jpg","CC","BF04","0","4","8","8","stimuli/stars_8.png","227","[""CC"",""HO"",""SUR"",""HE""]","[""BF04"",""HF09"",""AM05"",""AF09""]","[8,6,3,4]","[8,6,4,2]","","",""
"show-reward","182","449134","0.0-182.0","p160087","A281ASP4WWAN3E","3FVBZG9CLKK1M1GPZWGJX51HFG80HB","3TY7ZAOG5HQVBBFRVJOHZHCYQ850KX","emotion","match","uniform","","","","","","","","448218.5","450234.40000003576","","","","","","","","","","","","8","","stimuli/stars_8.png","227","","","","","stimuli/BF04_CC.jpg","",""
"explore-choice","183","450395","0.0-183.0","p160087","A281ASP4WWAN3E","3FVBZG9CLKK1M1GPZWGJX51HFG80HB","3TY7ZAOG5HQVBBFRVJOHZHCYQ850KX","emotion","match","uniform","","","","","","","754.0999999642372","450235.40000003576","450989.5","[""stimuli/AF09_HE.jpg"",""stimuli/HF09_SUR.jpg"",""stimuli/AM05_CC.jpg"",""stimuli/BF04_HO.jpg""]","stimuli/AF09_HE.jpg","stimuli/HF09_SUR.jpg","stimuli/AM05_CC.jpg","stimuli/BF04_HO.jpg","pos4","stimuli/BF04_HO.jpg","HO","BF04","3","3.5","7","6","stimuli/stars_7.png","230.5","[""HE"",""SUR"",""CC"",""HO""]","[""AF09"",""HF09"",""AM05"",""BF04""]","[1,6,10,7]","[2,4,8,6]","","",""
"show-reward","184","452408","0.0-184.0","p160087","A281ASP4WWAN3E","3FVBZG9CLKK1M1GPZWGJX51HFG80HB","3TY7ZAOG5HQVBBFRVJOHZHCYQ850KX","emotion","match","uniform","","","","","","","","451496.90000003576","453508.40000003576","","","","","","","","","","","","7","","stimuli/stars_7.png","230.5","","","","","stimuli/BF04_HO.jpg","",""
"explore-choice","185","453290","0.0-185.0","p160087","A281ASP4WWAN3E","3FVBZG9CLKK1M1GPZWGJX51HFG80HB","3TY7ZAOG5HQVBBFRVJOHZHCYQ850KX","emotion","match","uniform","","","","","","","374.5","453509.3000000119","453883.8000000119","[""stimuli/BF04_HE.jpg"",""stimuli/AM05_SUR.jpg"",""stimuli/HF09_CC.jpg"",""stimuli/AF09_HO.jpg""]","stimuli/BF04_HE.jpg","stimuli/AM05_SUR.jpg","stimuli/HF09_CC.jpg","stimuli/AF09_HO.jpg","pos2","stimuli/AM05_SUR.jpg","SUR","AM05","1","1","2","4","stimuli/stars_2.png","231.5","[""HE"",""SUR"",""CC"",""HO""]","[""BF04"",""AM05"",""HF09"",""AF09""]","[0,2,10,7]","[2,4,8,6]","","",""
"show-reward","186","455292","0.0-186.0","p160087","A281ASP4WWAN3E","3FVBZG9CLKK1M1GPZWGJX51HFG80HB","3TY7ZAOG5HQVBBFRVJOHZHCYQ850KX","emotion","match","uniform","","","","","","","","454391.60000002384","456393.10000002384","","","","","","","","","","","","2","","stimuli/stars_2.png","231.5","","","","","stimuli/AM05_SUR.jpg","",""
"explore-choice","187","462236","0.0-187.0","p160087","A281ASP4WWAN3E","3FVBZG9CLKK1M1GPZWGJX51HFG80HB","3TY7ZAOG5HQVBBFRVJOHZHCYQ850KX","emotion","match","uniform","","","","","","","6434.700000047684","456394","462828.7000000477","[""stimuli/AF09_HO.jpg"",""stimuli/HF09_CC.jpg"",""stimuli/AM05_HE.jpg"",""stimuli/BF04_SUR.jpg""]","stimuli/AF09_HO.jpg","stimuli/HF09_CC.jpg","stimuli/AM05_HE.jpg","stimuli/BF04_SUR.jpg","pos1","stimuli/AF09_HO.jpg","HO","AF09","0","2","4","6","stimuli/stars_4.png","233.5","[""HO"",""CC"",""HE"",""SUR""]","[""AF09"",""HF09"",""AM05"",""BF04""]","[4,6,0,5]","[6,8,2,4]","","",""
"show-reward","188","464240","0.0-188.0","p160087","A281ASP4WWAN3E","3FVBZG9CLKK1M1GPZWGJX51HFG80HB","3TY7ZAOG5HQVBBFRVJOHZHCYQ850KX","emotion","match","uniform","","","","","","","","463338.10000002384","465340.60000002384","","","","","","","","","","","","4","","stimuli/stars_4.png","233.5","","","","","stimuli/AF09_HO.jpg","",""
"explore-choice","189","465212","0.0-189.0","p160087","A281ASP4WWAN3E","3FVBZG9CLKK1M1GPZWGJX51HFG80HB","3TY7ZAOG5HQVBBFRVJOHZHCYQ850KX","emotion","match","uniform","","","","","","","456.89999997615814","465341.60000002384","465798.5","[""stimuli/AM05_HO.jpg"",""stimuli/AF09_SUR.jpg"",""stimuli/HF09_CC.jpg"",""stimuli/BF04_HE.jpg""]","stimuli/AM05_HO.jpg","stimuli/AF09_SUR.jpg","stimuli/HF09_CC.jpg","stimuli/BF04_HE.jpg","pos3","stimuli/HF09_CC.jpg","CC","HF09","2","4.5","9","8","stimuli/stars_9.png","238","[""HO"",""SUR"",""CC"",""HE""]","[""AM05"",""AF09"",""HF09"",""BF04""]","[4,6,9,3]","[6,4,8,2]","","",""
"show-reward","190","467220","0.0-190.0","p160087","A281ASP4WWAN3E","3FVBZG9CLKK1M1GPZWGJX51HFG80HB","3TY7ZAOG5HQVBBFRVJOHZHCYQ850KX","emotion","match","uniform","","","","","","","","466313.7000000477","468320","","","","","","","","","","","","9","","stimuli/stars_9.png","238","","","","","stimuli/HF09_CC.jpg","",""
"explore-choice","191","468230","0.0-191.0","p160087","A281ASP4WWAN3E","3FVBZG9CLKK1M1GPZWGJX51HFG80HB","3TY7ZAOG5HQVBBFRVJOHZHCYQ850KX","emotion","match","uniform","","","","","","","495.7999999523163","468321.2000000477","468817","[""stimuli/HF09_SUR.jpg"",""stimuli/AF09_CC.jpg"",""stimuli/BF04_HE.jpg"",""stimuli/AM05_HO.jpg""]","stimuli/HF09_SUR.jpg","stimuli/AF09_CC.jpg","stimuli/BF04_HE.jpg","stimuli/AM05_HO.jpg","pos2","stimuli/AF09_CC.jpg","CC","AF09","1","4","8","8","stimuli/stars_8.png","242","[""SUR"",""CC"",""HE"",""HO""]","[""HF09"",""AF09"",""BF04"",""AM05""]","[2,8,3,7]","[4,8,2,6]","","",""
"show-reward","192","470233","0.0-192.0","p160087","A281ASP4WWAN3E","3FVBZG9CLKK1M1GPZWGJX51HFG80HB","3TY7ZAOG5HQVBBFRVJOHZHCYQ850KX","emotion","match","uniform","","","","","","","","469331.2000000477","471333.40000003576","","","","","","","","","","","","8","","stimuli/stars_8.png","242","","","","","stimuli/AF09_CC.jpg","",""
"explore-choice","193","471120","0.0-193.0","p160087","A281ASP4WWAN3E","3FVBZG9CLKK1M1GPZWGJX51HFG80HB","3TY7ZAOG5HQVBBFRVJOHZHCYQ850KX","emotion","match","uniform","","","","","","","375.19999998807907","471334.10000002384","471709.3000000119","[""stimuli/BF04_SUR.jpg"",""stimuli/AF09_HE.jpg"",""stimuli/HF09_CC.jpg"",""stimuli/AM05_HO.jpg""]","stimuli/BF04_SUR.jpg","stimuli/AF09_HE.jpg","stimuli/HF09_CC.jpg","stimuli/AM05_HO.jpg","pos4","stimuli/AM05_HO.jpg","HO","AM05","3","4","8","6","stimuli/stars_8.png","246","[""SUR"",""HE"",""CC"",""HO""]","[""BF04"",""AF09"",""HF09"",""AM05""]","[3,0,6,8]","[4,2,8,6]","","",""
"show-reward","194","473122","0.0-194.0","p160087","A281ASP4WWAN3E","3FVBZG9CLKK1M1GPZWGJX51HFG80HB","3TY7ZAOG5HQVBBFRVJOHZHCYQ850KX","emotion","match","uniform","","","","","","","","472221.8000000119","474223.10000002384","","","","","","","","","","","","8","","stimuli/stars_8.png","246","","","","","stimuli/AM05_HO.jpg","",""
"explore-choice","195","474632","0.0-195.0","p160087","A281ASP4WWAN3E","3FVBZG9CLKK1M1GPZWGJX51HFG80HB","3TY7ZAOG5HQVBBFRVJOHZHCYQ850KX","emotion","match","uniform","","","","","","","1007.5","474223.8000000119","475231.3000000119","[""stimuli/AM05_CC.jpg"",""stimuli/BF04_HO.jpg"",""stimuli/HF09_HE.jpg"",""stimuli/AF09_SUR.jpg""]","stimuli/AM05_CC.jpg","stimuli/BF04_HO.jpg","stimuli/HF09_HE.jpg","stimuli/AF09_SUR.jpg","pos2","stimuli/BF04_HO.jpg","HO","BF04","1","4","8","6","stimuli/stars_8.png","250","[""CC"",""HO"",""HE"",""SUR""]","[""AM05"",""BF04"",""HF09"",""AF09""]","[8,8,0,5]","[8,6,2,4]","","",""
"show-reward","196","476636","0.0-196.0","p160087","A281ASP4WWAN3E","3FVBZG9CLKK1M1GPZWGJX51HFG80HB","3TY7ZAOG5HQVBBFRVJOHZHCYQ850KX","emotion","match","uniform","","","","","","","","475733.90000003576","477736.7000000477","","","","","","","","","","","","8","","stimuli/stars_8.png","250","","","","","stimuli/BF04_HO.jpg","",""
"explore-choice","197","477561","0.0-197.0","p160087","A281ASP4WWAN3E","3FVBZG9CLKK1M1GPZWGJX51HFG80HB","3TY7ZAOG5HQVBBFRVJOHZHCYQ850KX","emotion","match","uniform","","","","","","","424.0999999642372","477737.40000003576","478161.5","[""stimuli/AM05_HE.jpg"",""stimuli/AF09_CC.jpg"",""stimuli/BF04_HO.jpg"",""stimuli/HF09_SUR.jpg""]","stimuli/AM05_HE.jpg","stimuli/AF09_CC.jpg","stimuli/BF04_HO.jpg","stimuli/HF09_SUR.jpg","pos4","stimuli/HF09_SUR.jpg","SUR","HF09","3","3","6","4","stimuli/stars_6.png","253","[""HE"",""CC"",""HO"",""SUR""]","[""AM05"",""AF09"",""BF04"",""HF09""]","[3,8,4,6]","[2,8,6,4]","","",""
"show-reward","198","479572","0.0-198.0","p160087","A281ASP4WWAN3E","3FVBZG9CLKK1M1GPZWGJX51HFG80HB","3TY7ZAOG5HQVBBFRVJOHZHCYQ850KX","emotion","match","uniform","","","","","","","","478662.3000000119","480673.5","","","","","","","","","","","","6","","stimuli/stars_6.png","253","","","","","stimuli/HF09_SUR.jpg","",""
"instructions","199","482781","0.0-199.0","p160087","A281ASP4WWAN3E","3FVBZG9CLKK1M1GPZWGJX51HFG80HB","3TY7ZAOG5HQVBBFRVJOHZHCYQ850KX","emotion","match","uniform","","","","","","[{""page_index"":0,""viewing_time"":3207.5}]","3207.7999999523163","","","","","","","","","","","","","","","","","","","","","","","",""
"survey-text","200","487922","0.0-200.0-0.0","p160087","A281ASP4WWAN3E","3FVBZG9CLKK1M1GPZWGJX51HFG80HB","3TY7ZAOG5HQVBBFRVJOHZHCYQ850KX","emotion","match","uniform","","","","","","","5137.899999976158","","","","","","","","","","","","","","","","","","","","","","","{""age"":""28""}",""
"survey-text","201","494297","0.0-200.0-1.0","p160087","A281ASP4WWAN3E","3FVBZG9CLKK1M1GPZWGJX51HFG80HB","3TY7ZAOG5HQVBBFRVJOHZHCYQ850KX","emotion","match","uniform","","","","","","","6371.699999988079","","","","","","","","","","","","","","","","","","","","","","","{""gender"":""Male""}",""
"survey-text","202","498336","0.0-200.0-2.0","p160087","A281ASP4WWAN3E","3FVBZG9CLKK1M1GPZWGJX51HFG80HB","3TY7ZAOG5HQVBBFRVJOHZHCYQ850KX","emotion","match","uniform","","","","","","","4035.900000035763","","","","","","","","","","","","","","","","","","","","","","","{""country"":""United States""}",""
"survey-text","203","502745","0.0-200.0-3.0","p160087","A281ASP4WWAN3E","3FVBZG9CLKK1M1GPZWGJX51HFG80HB","3TY7ZAOG5HQVBBFRVJOHZHCYQ850KX","emotion","match","uniform","","","","","","","4405.699999988079","","","","","","","","","","","","","","","","","","","","","","","{""language"":""English"",""other_languages"":""""}",""
"survey-multi-select","204","505788","0.0-201.0","p160087","A281ASP4WWAN3E","3FVBZG9CLKK1M1GPZWGJX51HFG80HB","3TY7ZAOG5HQVBBFRVJOHZHCYQ850KX","emotion","match","uniform","","","","","","","3037.800000011921","","","","","","","","","","","","","","","","","","","","","","","{""race"":[""White""]}","[0]"
"survey-multi-choice","205","507797","0.0-202.0","p160087","A281ASP4WWAN3E","3FVBZG9CLKK1M1GPZWGJX51HFG80HB","3TY7ZAOG5HQVBBFRVJOHZHCYQ850KX","emotion","match","uniform","","","","","","","2006.6000000238419","","","","","","","","","","","","","","","","","","","","","","","{""education"":""High school""}","[0]"
"survey-text","206","528887","0.0-203.0","p160087","A281ASP4WWAN3E","3FVBZG9CLKK1M1GPZWGJX51HFG80HB","3TY7ZAOG5HQVBBFRVJOHZHCYQ850KX","emotion","match","uniform","","","","","","","21084.5","","","","","","","","","","","","","","","","","","","","","","","{""patterns"":""No patterns"",""strategy"":""Tried finding pattern but could never "",""comments"":""Fun study, thanks""}",""
