"trial_type","trial_index","time_elapsed","internal_node_id","subject","workerId","hitId","assignmentId","structure_condition","match_condition","noise_type","success","timeout","failed_images","failed_audio","failed_video","view_history","rt","start_time","end_time","stimuli","image1","image2","image3","image4","choiceLocation","choiceImage","choiceEmotion","choiceModel","choice_index","reward_score","reward","reward_score_unadjusted","reward_image","score_after_trial","emotions","models","rewards","rewards_unadjusted","stimulus","response","question_order"
"pavlovia","0","16","0.0-0.0","p698081","A19TD2J8506A4Y","3WPCIUYH1BELQU8EB2L3QVOOKYBTD4","345LHZDEDZY5VZJ08KA272J3VBMU3I","model","match","uniform","","","","","","","","","","","","","","","","","","","","","","","","","","","","","","",""
"preload","1","49043","0.0-1.0","p698081","A19TD2J8506A4Y","3WPCIUYH1BELQU8EB2L3QVOOKYBTD4","345LHZDEDZY5VZJ08KA272J3VBMU3I","model","match","uniform","true","false","[]","[]","[]","","","","","","","","","","","","","","","","","","","","","","","","","",""
"fullscreen","2","55137","0.0-2.0","p698081","A19TD2J8506A4Y","3WPCIUYH1BELQU8EB2L3QVOOKYBTD4","345LHZDEDZY5VZJ08KA272J3VBMU3I","model","match","uniform","true","","","","","","","","","","","","","","","","","","","","","","","","","","","","","",""
"instructions","3","61440","0.0-3.0","p698081","A19TD2J8506A4Y","3WPCIUYH1BELQU8EB2L3QVOOKYBTD4","345LHZDEDZY5VZJ08KA272J3VBMU3I","model","match","uniform","","","","","","[{""page_index"":0,""viewing_time"":6297.5999999996275}]","6298.799999999814","","","","","","","","","","","","","","","","","","","","","","","",""
"explore-choice","4","64420","0.0-4.0","p698081","A19TD2J8506A4Y","3WPCIUYH1BELQU8EB2L3QVOOKYBTD4","345LHZDEDZY5VZJ08KA272J3VBMU3I","model","match","uniform","","","","","","","2461.9000000003725","64933.700000000186","67395.60000000056","[""stimuli/sheep.jpg"",""stimuli/hammer.jpg"",""stimuli/basketball.jpg"",""stimuli/horse.jpg""]","stimuli/sheep.jpg","stimuli/hammer.jpg","stimuli/basketball.jpg","stimuli/horse.jpg","pos4","stimuli/horse.jpg","","","3","64","64","64","stimuli/stars_8.png","65","","","","","","",""
"explore-choice","5","67061","0.0-5.0","p698081","A19TD2J8506A4Y","3WPCIUYH1BELQU8EB2L3QVOOKYBTD4","345LHZDEDZY5VZJ08KA272J3VBMU3I","model","match","uniform","","","","","","","2137.199999999255","67913.60000000056","70050.79999999981","[""stimuli/hammer.jpg"",""stimuli/basketball.jpg"",""stimuli/horse.jpg"",""stimuli/sheep.jpg""]","stimuli/hammer.jpg","stimuli/basketball.jpg","stimuli/horse.jpg","stimuli/sheep.jpg","pos1","stimuli/hammer.jpg","","","0","8","8","8","stimuli/stars_2.png","9","","","","","","",""
"instructions","6","88663","0.0-6.0","p698081","A19TD2J8506A4Y","3WPCIUYH1BELQU8EB2L3QVOOKYBTD4","345LHZDEDZY5VZJ08KA272J3VBMU3I","model","match","uniform","","","","","","[{""page_index"":0,""viewing_time"":21599.199999999255}]","21599.699999999255","","","","","","","","","","","","","","","","","","","","","","","",""
"explore-choice","7","91945","0.0-7.0","p698081","A19TD2J8506A4Y","3WPCIUYH1BELQU8EB2L3QVOOKYBTD4","345LHZDEDZY5VZJ08KA272J3VBMU3I","model","match","uniform","","","","","","","2774.4000000003725","92156.79999999981","94931.20000000019","[""stimuli/AF02_FO.jpg"",""stimuli/HF04_SC.jpg"",""stimuli/HF02_HO.jpg"",""stimuli/BM03_SUR.jpg""]","stimuli/AF02_FO.jpg","stimuli/HF04_SC.jpg","stimuli/HF02_HO.jpg","stimuli/BM03_SUR.jpg","pos4","stimuli/BM03_SUR.jpg","SUR","BM03","3","4","8","8","stimuli/stars_8.png","5","[""FO"",""SC"",""HO"",""SUR""]","[""AF02"",""HF04"",""HF02"",""BM03""]","[2,4,1,8]","[4,6,2,8]","","",""
"show-reward","8","93955","0.0-8.0","p698081","A19TD2J8506A4Y","3WPCIUYH1BELQU8EB2L3QVOOKYBTD4","345LHZDEDZY5VZJ08KA272J3VBMU3I","model","match","uniform","","","","","","","","95441.10000000056","97446.60000000056","","","","","","","","","","","","8","","stimuli/stars_8.png","5","","","","","stimuli/BM03_SUR.jpg","",""
"explore-choice","9","96488","0.0-9.0","p698081","A19TD2J8506A4Y","3WPCIUYH1BELQU8EB2L3QVOOKYBTD4","345LHZDEDZY5VZJ08KA272J3VBMU3I","model","match","uniform","","","","","","","2025.4000000003725","97449.29999999981","99474.70000000019","[""stimuli/HF02_FO.jpg"",""stimuli/AF02_HO.jpg"",""stimuli/BM03_SUR.jpg"",""stimuli/HF04_SC.jpg""]","stimuli/HF02_FO.jpg","stimuli/AF02_HO.jpg","stimuli/BM03_SUR.jpg","stimuli/HF04_SC.jpg","pos4","stimuli/HF04_SC.jpg","SC","HF04","3","2","4","6","stimuli/stars_4.png","7","[""FO"",""HO"",""SUR"",""SC""]","[""HF02"",""AF02"",""BM03"",""HF04""]","[4,2,10,4]","[2,4,8,6]","","",""
"show-reward","10","98506","0.0-10.0","p698081","A19TD2J8506A4Y","3WPCIUYH1BELQU8EB2L3QVOOKYBTD4","345LHZDEDZY5VZJ08KA272J3VBMU3I","model","match","uniform","","","","","","","","99982.79999999981","101996.40000000037","","","","","","","","","","","","4","","stimuli/stars_4.png","7","","","","","stimuli/HF04_SC.jpg","",""
"explore-choice","11","100594","0.0-11.0","p698081","A19TD2J8506A4Y","3WPCIUYH1BELQU8EB2L3QVOOKYBTD4","345LHZDEDZY5VZJ08KA272J3VBMU3I","model","match","uniform","","","","","","","1580.0999999996275","101999.10000000056","103579.20000000019","[""stimuli/HF02_FO.jpg"",""stimuli/AF02_SUR.jpg"",""stimuli/BM03_HO.jpg"",""stimuli/HF04_SC.jpg""]","stimuli/HF02_FO.jpg","stimuli/AF02_SUR.jpg","stimuli/BM03_HO.jpg","stimuli/HF04_SC.jpg","pos1","stimuli/HF02_FO.jpg","FO","HF02","0","1","2","2","stimuli/stars_2.png","8","[""FO"",""SUR"",""HO"",""SC""]","[""HF02"",""AF02"",""BM03"",""HF04""]","[2,2,7,4]","[2,4,8,6]","","",""
"show-reward","12","102612","0.0-12.0","p698081","A19TD2J8506A4Y","3WPCIUYH1BELQU8EB2L3QVOOKYBTD4","345LHZDEDZY5VZJ08KA272J3VBMU3I","model","match","uniform","","","","","","","","104087.79999999981","106104","","","","","","","","","","","","2","","stimuli/stars_2.png","8","","","","","stimuli/HF02_FO.jpg","",""
"explore-choice","13","105254","0.0-13.0","p698081","A19TD2J8506A4Y","3WPCIUYH1BELQU8EB2L3QVOOKYBTD4","345LHZDEDZY5VZJ08KA272J3VBMU3I","model","match","uniform","","","","","","","2120.600000000559","106106","108226.60000000056","[""stimuli/HF04_SUR.jpg"",""stimuli/HF02_SC.jpg"",""stimuli/BM03_FO.jpg"",""stimuli/AF02_HO.jpg""]","stimuli/HF04_SUR.jpg","stimuli/HF02_SC.jpg","stimuli/BM03_FO.jpg","stimuli/AF02_HO.jpg","pos1","stimuli/HF04_SUR.jpg","SUR","HF04","0","2.5","5","6","stimuli/stars_5.png","10.5","[""SUR"",""SC"",""FO"",""HO""]","[""HF04"",""HF02"",""BM03"",""AF02""]","[5,1,6,6]","[6,2,8,4]","","",""
"show-reward","14","107259","0.0-14.0","p698081","A19TD2J8506A4Y","3WPCIUYH1BELQU8EB2L3QVOOKYBTD4","345LHZDEDZY5VZJ08KA272J3VBMU3I","model","match","uniform","","","","","","","","108747.29999999981","110750.70000000019","","","","","","","","","","","","5","","stimuli/stars_5.png","10.5","","","","","stimuli/HF04_SUR.jpg","",""
"explore-choice","15","109393","0.0-15.0","p698081","A19TD2J8506A4Y","3WPCIUYH1BELQU8EB2L3QVOOKYBTD4","345LHZDEDZY5VZJ08KA272J3VBMU3I","model","match","uniform","","","","","","","1626.300000000745","110752.29999999981","112378.60000000056","[""stimuli/HF02_FO.jpg"",""stimuli/BM03_HO.jpg"",""stimuli/HF04_SUR.jpg"",""stimuli/AF02_SC.jpg""]","stimuli/HF02_FO.jpg","stimuli/BM03_HO.jpg","stimuli/HF04_SUR.jpg","stimuli/AF02_SC.jpg","pos2","stimuli/BM03_HO.jpg","HO","BM03","1","3","6","8","stimuli/stars_6.png","13.5","[""FO"",""HO"",""SUR"",""SC""]","[""HF02"",""BM03"",""HF04"",""AF02""]","[1,6,8,3]","[2,8,6,4]","","",""
"show-reward","16","111405","0.0-16.0","p698081","A19TD2J8506A4Y","3WPCIUYH1BELQU8EB2L3QVOOKYBTD4","345LHZDEDZY5VZJ08KA272J3VBMU3I","model","match","uniform","","","","","","","","112886.60000000056","114896.40000000037","","","","","","","","","","","","6","","stimuli/stars_6.png","13.5","","","","","stimuli/BM03_HO.jpg","",""
"explore-choice","17","113100","0.0-17.0","p698081","A19TD2J8506A4Y","3WPCIUYH1BELQU8EB2L3QVOOKYBTD4","345LHZDEDZY5VZJ08KA272J3VBMU3I","model","match","uniform","","","","","","","1175.6000000005588","114898.79999999981","116074.40000000037","[""stimuli/HF02_SUR.jpg"",""stimuli/BM03_HO.jpg"",""stimuli/AF02_SC.jpg"",""stimuli/HF04_FO.jpg""]","stimuli/HF02_SUR.jpg","stimuli/BM03_HO.jpg","stimuli/AF02_SC.jpg","stimuli/HF04_FO.jpg","pos2","stimuli/BM03_HO.jpg","HO","BM03","1","5","10","8","stimuli/stars_10.png","18.5","[""SUR"",""HO"",""SC"",""FO""]","[""HF02"",""BM03"",""AF02"",""HF04""]","[3,10,2,5]","[2,8,4,6]","","",""
"show-reward","18","115117","0.0-18.0","p698081","A19TD2J8506A4Y","3WPCIUYH1BELQU8EB2L3QVOOKYBTD4","345LHZDEDZY5VZJ08KA272J3VBMU3I","model","match","uniform","","","","","","","","116594.10000000056","118608.70000000019","","","","","","","","","","","","10","","stimuli/stars_10.png","18.5","","","","","stimuli/BM03_HO.jpg","",""
"explore-choice","19","116535","0.0-19.0","p698081","A19TD2J8506A4Y","3WPCIUYH1BELQU8EB2L3QVOOKYBTD4","345LHZDEDZY5VZJ08KA272J3VBMU3I","model","match","uniform","","","","","","","912.2999999998137","118610.90000000037","119523.20000000019","[""stimuli/HF02_HO.jpg"",""stimuli/BM03_SC.jpg"",""stimuli/HF04_SUR.jpg"",""stimuli/AF02_FO.jpg""]","stimuli/HF02_HO.jpg","stimuli/BM03_SC.jpg","stimuli/HF04_SUR.jpg","stimuli/AF02_FO.jpg","pos2","stimuli/BM03_SC.jpg","SC","BM03","1","4","8","8","stimuli/stars_8.png","22.5","[""HO"",""SC"",""SUR"",""FO""]","[""HF02"",""BM03"",""HF04"",""AF02""]","[2,8,6,4]","[2,8,6,4]","","",""
"show-reward","20","118554","0.0-20.0","p698081","A19TD2J8506A4Y","3WPCIUYH1BELQU8EB2L3QVOOKYBTD4","345LHZDEDZY5VZJ08KA272J3VBMU3I","model","match","uniform","","","","","","","","120028.90000000037","122045.29999999981","","","","","","","","","","","","8","","stimuli/stars_8.png","22.5","","","","","stimuli/BM03_SC.jpg","",""
"explore-choice","21","120942","0.0-21.0","p698081","A19TD2J8506A4Y","3WPCIUYH1BELQU8EB2L3QVOOKYBTD4","345LHZDEDZY5VZJ08KA272J3VBMU3I","model","match","uniform","","","","","","","1874.7999999998137","122048.10000000056","123922.90000000037","[""stimuli/HF04_FO.jpg"",""stimuli/HF02_SC.jpg"",""stimuli/BM03_HO.jpg"",""stimuli/AF02_SUR.jpg""]","stimuli/HF04_FO.jpg","stimuli/HF02_SC.jpg","stimuli/BM03_HO.jpg","stimuli/AF02_SUR.jpg","pos3","stimuli/BM03_HO.jpg","HO","BM03","2","4","8","8","stimuli/stars_8.png","26.5","[""FO"",""SC"",""HO"",""SUR""]","[""HF04"",""HF02"",""BM03"",""AF02""]","[7,2,8,2]","[6,2,8,4]","","",""
"show-reward","22","122961","0.0-22.0","p698081","A19TD2J8506A4Y","3WPCIUYH1BELQU8EB2L3QVOOKYBTD4","345LHZDEDZY5VZJ08KA272J3VBMU3I","model","match","uniform","","","","","","","","124436.29999999981","126451.5","","","","","","","","","","","","8","","stimuli/stars_8.png","26.5","","","","","stimuli/BM03_HO.jpg","",""
"explore-choice","23","124896","0.0-23.0","p698081","A19TD2J8506A4Y","3WPCIUYH1BELQU8EB2L3QVOOKYBTD4","345LHZDEDZY5VZJ08KA272J3VBMU3I","model","match","uniform","","","","","","","1419.3999999994412","126454.90000000037","127874.29999999981","[""stimuli/BM03_SUR.jpg"",""stimuli/HF04_FO.jpg"",""stimuli/HF02_HO.jpg"",""stimuli/AF02_SC.jpg""]","stimuli/BM03_SUR.jpg","stimuli/HF04_FO.jpg","stimuli/HF02_HO.jpg","stimuli/AF02_SC.jpg","pos1","stimuli/BM03_SUR.jpg","SUR","BM03","0","4","8","8","stimuli/stars_8.png","30.5","[""SUR"",""FO"",""HO"",""SC""]","[""BM03"",""HF04"",""HF02"",""AF02""]","[8,5,3,6]","[8,6,2,4]","","",""
"show-reward","24","126914","0.0-24.0","p698081","A19TD2J8506A4Y","3WPCIUYH1BELQU8EB2L3QVOOKYBTD4","345LHZDEDZY5VZJ08KA272J3VBMU3I","model","match","uniform","","","","","","","","128389.40000000037","130405.20000000019","","","","","","","","","","","","8","","stimuli/stars_8.png","30.5","","","","","stimuli/BM03_SUR.jpg","",""
"explore-choice","25","128586","0.0-25.0","p698081","A19TD2J8506A4Y","3WPCIUYH1BELQU8EB2L3QVOOKYBTD4","345LHZDEDZY5VZJ08KA272J3VBMU3I","model","match","uniform","","","","","","","1164.5999999996275","130407.40000000037","131572","[""stimuli/HF04_HO.jpg"",""stimuli/BM03_FO.jpg"",""stimuli/AF02_SC.jpg"",""stimuli/HF02_SUR.jpg""]","stimuli/HF04_HO.jpg","stimuli/BM03_FO.jpg","stimuli/AF02_SC.jpg","stimuli/HF02_SUR.jpg","pos2","stimuli/BM03_FO.jpg","FO","BM03","1","4.5","9","8","stimuli/stars_9.png","35","[""HO"",""FO"",""SC"",""SUR""]","[""HF04"",""BM03"",""AF02"",""HF02""]","[6,9,4,1]","[6,8,4,2]","","",""
"show-reward","26","130605","0.0-26.0","p698081","A19TD2J8506A4Y","3WPCIUYH1BELQU8EB2L3QVOOKYBTD4","345LHZDEDZY5VZJ08KA272J3VBMU3I","model","match","uniform","","","","","","","","132080.10000000056","134096.60000000056","","","","","","","","","","","","9","","stimuli/stars_9.png","35","","","","","stimuli/BM03_FO.jpg","",""
"explore-choice","27","132238","0.0-27.0","p698081","A19TD2J8506A4Y","3WPCIUYH1BELQU8EB2L3QVOOKYBTD4","345LHZDEDZY5VZJ08KA272J3VBMU3I","model","match","uniform","","","","","","","1119.9000000003725","134098.7999999998","135218.7000000002","[""stimuli/BM03_FO.jpg"",""stimuli/HF04_SC.jpg"",""stimuli/AF02_HO.jpg"",""stimuli/HF02_SUR.jpg""]","stimuli/BM03_FO.jpg","stimuli/HF04_SC.jpg","stimuli/AF02_HO.jpg","stimuli/HF02_SUR.jpg","pos1","stimuli/BM03_FO.jpg","FO","BM03","0","3.5","7","8","stimuli/stars_7.png","38.5","[""FO"",""SC"",""HO"",""SUR""]","[""BM03"",""HF04"",""AF02"",""HF02""]","[7,7,2,3]","[8,6,4,2]","","",""
"show-reward","28","134257","0.0-28.0","p698081","A19TD2J8506A4Y","3WPCIUYH1BELQU8EB2L3QVOOKYBTD4","345LHZDEDZY5VZJ08KA272J3VBMU3I","model","match","uniform","","","","","","","","135732.2999999998","137747.90000000037","","","","","","","","","","","","7","","stimuli/stars_7.png","38.5","","","","","stimuli/BM03_FO.jpg","",""
"explore-choice","29","135884","0.0-29.0","p698081","A19TD2J8506A4Y","3WPCIUYH1BELQU8EB2L3QVOOKYBTD4","345LHZDEDZY5VZJ08KA272J3VBMU3I","model","match","uniform","","","","","","","1108.2999999998137","137750.2000000002","138858.5","[""stimuli/HF04_FO.jpg"",""stimuli/BM03_SC.jpg"",""stimuli/AF02_SUR.jpg"",""stimuli/HF02_HO.jpg""]","stimuli/HF04_FO.jpg","stimuli/BM03_SC.jpg","stimuli/AF02_SUR.jpg","stimuli/HF02_HO.jpg","pos2","stimuli/BM03_SC.jpg","SC","BM03","1","4","8","8","stimuli/stars_8.png","42.5","[""FO"",""SC"",""SUR"",""HO""]","[""HF04"",""BM03"",""AF02"",""HF02""]","[4,8,3,3]","[6,8,4,2]","","",""
"show-reward","30","137901","0.0-30.0","p698081","A19TD2J8506A4Y","3WPCIUYH1BELQU8EB2L3QVOOKYBTD4","345LHZDEDZY5VZJ08KA272J3VBMU3I","model","match","uniform","","","","","","","","139377.2000000002","141392.7000000002","","","","","","","","","","","","8","","stimuli/stars_8.png","42.5","","","","","stimuli/BM03_SC.jpg","",""
"explore-choice","31","139655","0.0-31.0","p698081","A19TD2J8506A4Y","3WPCIUYH1BELQU8EB2L3QVOOKYBTD4","345LHZDEDZY5VZJ08KA272J3VBMU3I","model","match","uniform","","","","","","","1231.3999999994412","141403.10000000056","142634.5","[""stimuli/AF02_SC.jpg"",""stimuli/HF02_FO.jpg"",""stimuli/BM03_SUR.jpg"",""stimuli/HF04_HO.jpg""]","stimuli/AF02_SC.jpg","stimuli/HF02_FO.jpg","stimuli/BM03_SUR.jpg","stimuli/HF04_HO.jpg","pos3","stimuli/BM03_SUR.jpg","SUR","BM03","2","4","8","8","stimuli/stars_8.png","46.5","[""SC"",""FO"",""SUR"",""HO""]","[""AF02"",""HF02"",""BM03"",""HF04""]","[5,3,8,7]","[4,2,8,6]","","",""
"show-reward","32","141662","0.0-32.0","p698081","A19TD2J8506A4Y","3WPCIUYH1BELQU8EB2L3QVOOKYBTD4","345LHZDEDZY5VZJ08KA272J3VBMU3I","model","match","uniform","","","","","","","","143148.2000000002","145153.40000000037","","","","","","","","","","","","8","","stimuli/stars_8.png","46.5","","","","","stimuli/BM03_SUR.jpg","",""
"explore-choice","33","144502","0.0-33.0","p698081","A19TD2J8506A4Y","3WPCIUYH1BELQU8EB2L3QVOOKYBTD4","345LHZDEDZY5VZJ08KA272J3VBMU3I","model","match","uniform","","","","","","","2335.2000000001863","145155.5","147490.7000000002","[""stimuli/AF02_HO.jpg"",""stimuli/HF02_FO.jpg"",""stimuli/HF04_SUR.jpg"",""stimuli/BM03_SC.jpg""]","stimuli/AF02_HO.jpg","stimuli/HF02_FO.jpg","stimuli/HF04_SUR.jpg","stimuli/BM03_SC.jpg","pos4","stimuli/BM03_SC.jpg","SC","BM03","3","4.5","9","8","stimuli/stars_9.png","51","[""HO"",""FO"",""SUR"",""SC""]","[""AF02"",""HF02"",""HF04"",""BM03""]","[3,3,5,9]","[4,2,6,8]","","",""
"show-reward","34","146513","0.0-34.0","p698081","A19TD2J8506A4Y","3WPCIUYH1BELQU8EB2L3QVOOKYBTD4","345LHZDEDZY5VZJ08KA272J3VBMU3I","model","match","uniform","","","","","","","","147995.10000000056","150004.60000000056","","","","","","","","","","","","9","","stimuli/stars_9.png","51","","","","","stimuli/BM03_SC.jpg","",""
"explore-choice","35","150400","0.0-35.0","p698081","A19TD2J8506A4Y","3WPCIUYH1BELQU8EB2L3QVOOKYBTD4","345LHZDEDZY5VZJ08KA272J3VBMU3I","model","match","uniform","","","","","","","3379.899999999441","150006.90000000037","153386.7999999998","[""stimuli/AF02_SUR.jpg"",""stimuli/HF04_HO.jpg"",""stimuli/BM03_FO.jpg"",""stimuli/HF02_SC.jpg""]","stimuli/AF02_SUR.jpg","stimuli/HF04_HO.jpg","stimuli/BM03_FO.jpg","stimuli/HF02_SC.jpg","pos3","stimuli/BM03_FO.jpg","FO","BM03","2","3","6","8","stimuli/stars_6.png","54","[""SUR"",""HO"",""FO"",""SC""]","[""AF02"",""HF04"",""BM03"",""HF02""]","[6,4,6,3]","[4,6,8,2]","","",""
"show-reward","36","152414","0.0-36.0","p698081","A19TD2J8506A4Y","3WPCIUYH1BELQU8EB2L3QVOOKYBTD4","345LHZDEDZY5VZJ08KA272J3VBMU3I","model","match","uniform","","","","","","","","153893.7000000002","155905.40000000037","","","","","","","","","","","","6","","stimuli/stars_6.png","54","","","","","stimuli/BM03_FO.jpg","",""
"explore-choice","37","154547","0.0-37.0","p698081","A19TD2J8506A4Y","3WPCIUYH1BELQU8EB2L3QVOOKYBTD4","345LHZDEDZY5VZJ08KA272J3VBMU3I","model","match","uniform","","","","","","","1616.2999999998137","155906.40000000037","157522.7000000002","[""stimuli/HF04_HO.jpg"",""stimuli/AF02_FO.jpg"",""stimuli/HF02_SUR.jpg"",""stimuli/BM03_SC.jpg""]","stimuli/HF04_HO.jpg","stimuli/AF02_FO.jpg","stimuli/HF02_SUR.jpg","stimuli/BM03_SC.jpg","pos4","stimuli/BM03_SC.jpg","SC","BM03","3","5","10","8","stimuli/stars_10.png","59","[""HO"",""FO"",""SUR"",""SC""]","[""HF04"",""AF02"",""HF02"",""BM03""]","[5,6,4,10]","[6,4,2,8]","","",""
"show-reward","38","156565","0.0-38.0","p698081","A19TD2J8506A4Y","3WPCIUYH1BELQU8EB2L3QVOOKYBTD4","345LHZDEDZY5VZJ08KA272J3VBMU3I","model","match","uniform","","","","","","","","158040.10000000056","160056.2999999998","","","","","","","","","","","","10","","stimuli/stars_10.png","59","","","","","stimuli/BM03_SC.jpg","",""
"explore-choice","39","158633","0.0-39.0","p698081","A19TD2J8506A4Y","3WPCIUYH1BELQU8EB2L3QVOOKYBTD4","345LHZDEDZY5VZJ08KA272J3VBMU3I","model","match","uniform","","","","","","","1559.5999999996275","160059.2000000002","161618.7999999998","[""stimuli/BM03_FO.jpg"",""stimuli/AF02_SC.jpg"",""stimuli/HF02_HO.jpg"",""stimuli/HF04_SUR.jpg""]","stimuli/BM03_FO.jpg","stimuli/AF02_SC.jpg","stimuli/HF02_HO.jpg","stimuli/HF04_SUR.jpg","pos1","stimuli/BM03_FO.jpg","FO","BM03","0","3","6","8","stimuli/stars_6.png","62","[""FO"",""SC"",""HO"",""SUR""]","[""BM03"",""AF02"",""HF02"",""HF04""]","[6,3,2,8]","[8,4,2,6]","","",""
"show-reward","40","160653","0.0-40.0","p698081","A19TD2J8506A4Y","3WPCIUYH1BELQU8EB2L3QVOOKYBTD4","345LHZDEDZY5VZJ08KA272J3VBMU3I","model","match","uniform","","","","","","","","162126.40000000037","164143.40000000037","","","","","","","","","","","","6","","stimuli/stars_6.png","62","","","","","stimuli/BM03_FO.jpg","",""
"explore-choice","41","162757","0.0-41.0","p698081","A19TD2J8506A4Y","3WPCIUYH1BELQU8EB2L3QVOOKYBTD4","345LHZDEDZY5VZJ08KA272J3VBMU3I","model","match","uniform","","","","","","","1601.4000000003725","164145.7000000002","165747.10000000056","[""stimuli/AF02_FO.jpg"",""stimuli/BM03_SUR.jpg"",""stimuli/HF04_HO.jpg"",""stimuli/HF02_SC.jpg""]","stimuli/AF02_FO.jpg","stimuli/BM03_SUR.jpg","stimuli/HF04_HO.jpg","stimuli/HF02_SC.jpg","pos2","stimuli/BM03_SUR.jpg","SUR","BM03","1","3","6","8","stimuli/stars_6.png","65","[""FO"",""SUR"",""HO"",""SC""]","[""AF02"",""BM03"",""HF04"",""HF02""]","[6,6,6,4]","[4,8,6,2]","","",""
"show-reward","42","164773","0.0-42.0","p698081","A19TD2J8506A4Y","3WPCIUYH1BELQU8EB2L3QVOOKYBTD4","345LHZDEDZY5VZJ08KA272J3VBMU3I","model","match","uniform","","","","","","","","166250.7999999998","168264.10000000056","","","","","","","","","","","","6","","stimuli/stars_6.png","65","","","","","stimuli/BM03_SUR.jpg","",""
"explore-choice","43","166693","0.0-43.0","p698081","A19TD2J8506A4Y","3WPCIUYH1BELQU8EB2L3QVOOKYBTD4","345LHZDEDZY5VZJ08KA272J3VBMU3I","model","match","uniform","","","","","","","1409.5","168266.10000000056","169675.60000000056","[""stimuli/HF02_SC.jpg"",""stimuli/AF02_HO.jpg"",""stimuli/BM03_SUR.jpg"",""stimuli/HF04_FO.jpg""]","stimuli/HF02_SC.jpg","stimuli/AF02_HO.jpg","stimuli/BM03_SUR.jpg","stimuli/HF04_FO.jpg","pos3","stimuli/BM03_SUR.jpg","SUR","BM03","2","5","10","8","stimuli/stars_10.png","70","[""SC"",""HO"",""SUR"",""FO""]","[""HF02"",""AF02"",""BM03"",""HF04""]","[2,5,10,6]","[2,4,8,6]","","",""
"show-reward","44","168698","0.0-44.0","p698081","A19TD2J8506A4Y","3WPCIUYH1BELQU8EB2L3QVOOKYBTD4","345LHZDEDZY5VZJ08KA272J3VBMU3I","model","match","uniform","","","","","","","","170185.60000000056","172188.5","","","","","","","","","","","","10","","stimuli/stars_10.png","70","","","","","stimuli/BM03_SUR.jpg","",""
"explore-choice","45","170208","0.0-45.0","p698081","A19TD2J8506A4Y","3WPCIUYH1BELQU8EB2L3QVOOKYBTD4","345LHZDEDZY5VZJ08KA272J3VBMU3I","model","match","uniform","","","","","","","996","172190.5","173186.5","[""stimuli/HF04_HO.jpg"",""stimuli/AF02_SUR.jpg"",""stimuli/BM03_SC.jpg"",""stimuli/HF02_FO.jpg""]","stimuli/HF04_HO.jpg","stimuli/AF02_SUR.jpg","stimuli/BM03_SC.jpg","stimuli/HF02_FO.jpg","pos3","stimuli/BM03_SC.jpg","SC","BM03","2","4","8","8","stimuli/stars_8.png","74","[""HO"",""SUR"",""SC"",""FO""]","[""HF04"",""AF02"",""BM03"",""HF02""]","[8,3,8,4]","[6,4,8,2]","","",""
"show-reward","46","172229","0.0-46.0","p698081","A19TD2J8506A4Y","3WPCIUYH1BELQU8EB2L3QVOOKYBTD4","345LHZDEDZY5VZJ08KA272J3VBMU3I","model","match","uniform","","","","","","","","173702.60000000056","175720.40000000037","","","","","","","","","","","","8","","stimuli/stars_8.png","74","","","","","stimuli/BM03_SC.jpg","",""
"explore-choice","47","174639","0.0-47.0","p698081","A19TD2J8506A4Y","3WPCIUYH1BELQU8EB2L3QVOOKYBTD4","345LHZDEDZY5VZJ08KA272J3VBMU3I","model","match","uniform","","","","","","","1896.6000000005588","175722.2999999998","177618.90000000037","[""stimuli/AF02_HO.jpg"",""stimuli/HF02_SUR.jpg"",""stimuli/HF04_FO.jpg"",""stimuli/BM03_SC.jpg""]","stimuli/AF02_HO.jpg","stimuli/HF02_SUR.jpg","stimuli/HF04_FO.jpg","stimuli/BM03_SC.jpg","pos4","stimuli/BM03_SC.jpg","SC","BM03","3","5","10","8","stimuli/stars_10.png","79","[""HO"",""SUR"",""FO"",""SC""]","[""AF02"",""HF02"",""HF04"",""BM03""]","[5,2,6,10]","[4,2,6,8]","","",""
"show-reward","48","176649","0.0-48.0","p698081","A19TD2J8506A4Y","3WPCIUYH1BELQU8EB2L3QVOOKYBTD4","345LHZDEDZY5VZJ08KA272J3VBMU3I","model","match","uniform","","","","","","","","178132.2000000002","180140","","","","","","","","","","","","10","","stimuli/stars_10.png","79","","","","","stimuli/BM03_SC.jpg","",""
"explore-choice","49","178756","0.0-49.0","p698081","A19TD2J8506A4Y","3WPCIUYH1BELQU8EB2L3QVOOKYBTD4","345LHZDEDZY5VZJ08KA272J3VBMU3I","model","match","uniform","","","","","","","1596.7999999998137","180142","181738.7999999998","[""stimuli/BM03_FO.jpg"",""stimuli/HF04_SC.jpg"",""stimuli/AF02_SUR.jpg"",""stimuli/HF02_HO.jpg""]","stimuli/BM03_FO.jpg","stimuli/HF04_SC.jpg","stimuli/AF02_SUR.jpg","stimuli/HF02_HO.jpg","pos1","stimuli/BM03_FO.jpg","FO","BM03","0","4.5","9","8","stimuli/stars_9.png","83.5","[""FO"",""SC"",""SUR"",""HO""]","[""BM03"",""HF04"",""AF02"",""HF02""]","[9,4,6,4]","[8,6,4,2]","","",""
"show-reward","50","180766","0.0-50.0","p698081","A19TD2J8506A4Y","3WPCIUYH1BELQU8EB2L3QVOOKYBTD4","345LHZDEDZY5VZJ08KA272J3VBMU3I","model","match","uniform","","","","","","","","182249","184256.5","","","","","","","","","","","","9","","stimuli/stars_9.png","83.5","","","","","stimuli/BM03_FO.jpg","",""
"explore-choice","51","182604","0.0-51.0","p698081","A19TD2J8506A4Y","3WPCIUYH1BELQU8EB2L3QVOOKYBTD4","345LHZDEDZY5VZJ08KA272J3VBMU3I","model","match","uniform","","","","","","","1327.9000000003725","184258.7000000002","185586.60000000056","[""stimuli/HF04_SC.jpg"",""stimuli/AF02_FO.jpg"",""stimuli/BM03_HO.jpg"",""stimuli/HF02_SUR.jpg""]","stimuli/HF04_SC.jpg","stimuli/AF02_FO.jpg","stimuli/BM03_HO.jpg","stimuli/HF02_SUR.jpg","pos3","stimuli/BM03_HO.jpg","HO","BM03","2","3","6","8","stimuli/stars_6.png","86.5","[""SC"",""FO"",""HO"",""SUR""]","[""HF04"",""AF02"",""BM03"",""HF02""]","[7,5,6,4]","[6,4,8,2]","","",""
"show-reward","52","184608","0.0-52.0","p698081","A19TD2J8506A4Y","3WPCIUYH1BELQU8EB2L3QVOOKYBTD4","345LHZDEDZY5VZJ08KA272J3VBMU3I","model","match","uniform","","","","","","","","186096","188098.7000000002","","","","","","","","","","","","6","","stimuli/stars_6.png","86.5","","","","","stimuli/BM03_HO.jpg","",""
"explore-choice","53","187566","0.0-53.0","p698081","A19TD2J8506A4Y","3WPCIUYH1BELQU8EB2L3QVOOKYBTD4","345LHZDEDZY5VZJ08KA272J3VBMU3I","model","match","uniform","","","","","","","2445.7999999998137","188101","190546.7999999998","[""stimuli/HF02_SC.jpg"",""stimuli/BM03_HO.jpg"",""stimuli/HF04_SUR.jpg"",""stimuli/AF02_FO.jpg""]","stimuli/HF02_SC.jpg","stimuli/BM03_HO.jpg","stimuli/HF04_SUR.jpg","stimuli/AF02_FO.jpg","pos2","stimuli/BM03_HO.jpg","HO","BM03","1","4.5","9","8","stimuli/stars_9.png","91","[""SC"",""HO"",""SUR"",""FO""]","[""HF02"",""BM03"",""HF04"",""AF02""]","[3,9,5,6]","[2,8,6,4]","","",""
"show-reward","54","189579","0.0-54.0","p698081","A19TD2J8506A4Y","3WPCIUYH1BELQU8EB2L3QVOOKYBTD4","345LHZDEDZY5VZJ08KA272J3VBMU3I","model","match","uniform","","","","","","","","191059.5","193070.10000000056","","","","","","","","","","","","9","","stimuli/stars_9.png","91","","","","","stimuli/BM03_HO.jpg","",""
"explore-choice","55","191620","0.0-55.0","p698081","A19TD2J8506A4Y","3WPCIUYH1BELQU8EB2L3QVOOKYBTD4","345LHZDEDZY5VZJ08KA272J3VBMU3I","model","match","uniform","","","","","","","1530.199999999255","193072.60000000056","194602.7999999998","[""stimuli/HF02_SC.jpg"",""stimuli/HF04_SUR.jpg"",""stimuli/AF02_FO.jpg"",""stimuli/BM03_HO.jpg""]","stimuli/HF02_SC.jpg","stimuli/HF04_SUR.jpg","stimuli/AF02_FO.jpg","stimuli/BM03_HO.jpg","pos4","stimuli/BM03_HO.jpg","HO","BM03","3","4.5","9","8","stimuli/stars_9.png","95.5","[""SC"",""SUR"",""FO"",""HO""]","[""HF02"",""HF04"",""AF02"",""BM03""]","[3,5,6,9]","[2,6,4,8]","","",""
"show-reward","56","193639","0.0-56.0","p698081","A19TD2J8506A4Y","3WPCIUYH1BELQU8EB2L3QVOOKYBTD4","345LHZDEDZY5VZJ08KA272J3VBMU3I","model","match","uniform","","","","","","","","195113.5","197129.7000000002","","","","","","","","","","","","9","","stimuli/stars_9.png","95.5","","","","","stimuli/BM03_HO.jpg","",""
"explore-choice","57","195327","0.0-57.0","p698081","A19TD2J8506A4Y","3WPCIUYH1BELQU8EB2L3QVOOKYBTD4","345LHZDEDZY5VZJ08KA272J3VBMU3I","model","match","uniform","","","","","","","1182.2000000001863","197132.2999999998","198314.5","[""stimuli/HF02_SC.jpg"",""stimuli/AF02_FO.jpg"",""stimuli/HF04_HO.jpg"",""stimuli/BM03_SUR.jpg""]","stimuli/HF02_SC.jpg","stimuli/AF02_FO.jpg","stimuli/HF04_HO.jpg","stimuli/BM03_SUR.jpg","pos4","stimuli/BM03_SUR.jpg","SUR","BM03","3","3","6","8","stimuli/stars_6.png","98.5","[""SC"",""FO"",""HO"",""SUR""]","[""HF02"",""AF02"",""HF04"",""BM03""]","[4,6,6,6]","[2,4,6,8]","","",""
"show-reward","58","197344","0.0-58.0","p698081","A19TD2J8506A4Y","3WPCIUYH1BELQU8EB2L3QVOOKYBTD4","345LHZDEDZY5VZJ08KA272J3VBMU3I","model","match","uniform","","","","","","","","198819.90000000037","200835.2000000002","","","","","","","","","","","","6","","stimuli/stars_6.png","98.5","","","","","stimuli/BM03_SUR.jpg","",""
"explore-choice","59","199564","0.0-59.0","p698081","A19TD2J8506A4Y","3WPCIUYH1BELQU8EB2L3QVOOKYBTD4","345LHZDEDZY5VZJ08KA272J3VBMU3I","model","match","uniform","","","","","","","1708.8999999994412","200837.60000000056","202546.5","[""stimuli/HF02_FO.jpg"",""stimuli/AF02_HO.jpg"",""stimuli/BM03_SC.jpg"",""stimuli/HF04_SUR.jpg""]","stimuli/HF02_FO.jpg","stimuli/AF02_HO.jpg","stimuli/BM03_SC.jpg","stimuli/HF04_SUR.jpg","pos3","stimuli/BM03_SC.jpg","SC","BM03","2","4.5","9","8","stimuli/stars_9.png","103","[""FO"",""HO"",""SC"",""SUR""]","[""HF02"",""AF02"",""BM03"",""HF04""]","[3,3,9,5]","[2,4,8,6]","","",""
"show-reward","60","201579","0.0-60.0","p698081","A19TD2J8506A4Y","3WPCIUYH1BELQU8EB2L3QVOOKYBTD4","345LHZDEDZY5VZJ08KA272J3VBMU3I","model","match","uniform","","","","","","","","203057.10000000056","205069.2999999998","","","","","","","","","","","","9","","stimuli/stars_9.png","103","","","","","stimuli/BM03_SC.jpg","",""
"explore-choice","61","204414","0.0-61.0","p698081","A19TD2J8506A4Y","3WPCIUYH1BELQU8EB2L3QVOOKYBTD4","345LHZDEDZY5VZJ08KA272J3VBMU3I","model","match","uniform","","","","","","","2329.399999999441","205073.10000000056","207402.5","[""stimuli/BM03_SC.jpg"",""stimuli/HF04_HO.jpg"",""stimuli/AF02_SUR.jpg"",""stimuli/HF02_FO.jpg""]","stimuli/BM03_SC.jpg","stimuli/HF04_HO.jpg","stimuli/AF02_SUR.jpg","stimuli/HF02_FO.jpg","pos1","stimuli/BM03_SC.jpg","SC","BM03","0","4","8","8","stimuli/stars_8.png","107","[""SC"",""HO"",""SUR"",""FO""]","[""BM03"",""HF04"",""AF02"",""HF02""]","[8,8,3,4]","[8,6,4,2]","","",""
"show-reward","62","206424","0.0-62.0","p698081","A19TD2J8506A4Y","3WPCIUYH1BELQU8EB2L3QVOOKYBTD4","345LHZDEDZY5VZJ08KA272J3VBMU3I","model","match","uniform","","","","","","","","207906.7999999998","209914.60000000056","","","","","","","","","","","","8","","stimuli/stars_8.png","107","","","","","stimuli/BM03_SC.jpg","",""
"explore-choice","63","209938","0.0-63.0","p698081","A19TD2J8506A4Y","3WPCIUYH1BELQU8EB2L3QVOOKYBTD4","345LHZDEDZY5VZJ08KA272J3VBMU3I","model","match","uniform","","","","","","","3005.0999999996275","209917.2000000002","212922.2999999998","[""stimuli/HF02_SUR.jpg"",""stimuli/AF02_SC.jpg"",""stimuli/HF04_HO.jpg"",""stimuli/BM03_FO.jpg""]","stimuli/HF02_SUR.jpg","stimuli/AF02_SC.jpg","stimuli/HF04_HO.jpg","stimuli/BM03_FO.jpg","pos4","stimuli/BM03_FO.jpg","FO","BM03","3","4.5","9","8","stimuli/stars_9.png","111.5","[""SUR"",""SC"",""HO"",""FO""]","[""HF02"",""AF02"",""HF04"",""BM03""]","[1,4,6,9]","[2,4,6,8]","","",""
"show-reward","64","211956","0.0-64.0","p698081","A19TD2J8506A4Y","3WPCIUYH1BELQU8EB2L3QVOOKYBTD4","345LHZDEDZY5VZJ08KA272J3VBMU3I","model","match","uniform","","","","","","","","213430.90000000037","215447.10000000056","","","","","","","","","","","","9","","stimuli/stars_9.png","111.5","","","","","stimuli/BM03_FO.jpg","",""
"explore-choice","65","214308","0.0-65.0","p698081","A19TD2J8506A4Y","3WPCIUYH1BELQU8EB2L3QVOOKYBTD4","345LHZDEDZY5VZJ08KA272J3VBMU3I","model","match","uniform","","","","","","","1849.300000000745","215449.2999999998","217298.60000000056","[""stimuli/HF04_HO.jpg"",""stimuli/BM03_FO.jpg"",""stimuli/AF02_SUR.jpg"",""stimuli/HF02_SC.jpg""]","stimuli/HF04_HO.jpg","stimuli/BM03_FO.jpg","stimuli/AF02_SUR.jpg","stimuli/HF02_SC.jpg","pos2","stimuli/BM03_FO.jpg","FO","BM03","1","3","6","8","stimuli/stars_6.png","114.5","[""HO"",""FO"",""SUR"",""SC""]","[""HF04"",""BM03"",""AF02"",""HF02""]","[4,6,6,3]","[6,8,4,2]","","",""
"show-reward","66","216316","0.0-66.0","p698081","A19TD2J8506A4Y","3WPCIUYH1BELQU8EB2L3QVOOKYBTD4","345LHZDEDZY5VZJ08KA272J3VBMU3I","model","match","uniform","","","","","","","","217801.2999999998","219806.7999999998","","","","","","","","","","","","6","","stimuli/stars_6.png","114.5","","","","","stimuli/BM03_FO.jpg","",""
"explore-choice","67","218851","0.0-67.0","p698081","A19TD2J8506A4Y","3WPCIUYH1BELQU8EB2L3QVOOKYBTD4","345LHZDEDZY5VZJ08KA272J3VBMU3I","model","match","uniform","","","","","","","2017.7999999998137","219809","221826.7999999998","[""stimuli/AF02_SC.jpg"",""stimuli/HF02_FO.jpg"",""stimuli/BM03_HO.jpg"",""stimuli/HF04_SUR.jpg""]","stimuli/AF02_SC.jpg","stimuli/HF02_FO.jpg","stimuli/BM03_HO.jpg","stimuli/HF04_SUR.jpg","pos3","stimuli/BM03_HO.jpg","HO","BM03","2","3","6","8","stimuli/stars_6.png","117.5","[""SC"",""FO"",""HO"",""SUR""]","[""AF02"",""HF02"",""BM03"",""HF04""]","[3,1,6,8]","[4,2,8,6]","","",""
"show-reward","68","220871","0.0-68.0","p698081","A19TD2J8506A4Y","3WPCIUYH1BELQU8EB2L3QVOOKYBTD4","345LHZDEDZY5VZJ08KA272J3VBMU3I","model","match","uniform","","","","","","","","222344.2000000002","224362.10000000056","","","","","","","","","","","","6","","stimuli/stars_6.png","117.5","","","","","stimuli/BM03_HO.jpg","",""
"explore-choice","69","222389","0.0-69.0","p698081","A19TD2J8506A4Y","3WPCIUYH1BELQU8EB2L3QVOOKYBTD4","345LHZDEDZY5VZJ08KA272J3VBMU3I","model","match","uniform","","","","","","","1007.2000000001863","224364.40000000037","225371.60000000056","[""stimuli/HF04_SUR.jpg"",""stimuli/AF02_SC.jpg"",""stimuli/BM03_FO.jpg"",""stimuli/HF02_HO.jpg""]","stimuli/HF04_SUR.jpg","stimuli/AF02_SC.jpg","stimuli/BM03_FO.jpg","stimuli/HF02_HO.jpg","pos3","stimuli/BM03_FO.jpg","FO","BM03","2","3","6","8","stimuli/stars_6.png","120.5","[""SUR"",""SC"",""FO"",""HO""]","[""HF04"",""AF02"",""BM03"",""HF02""]","[8,3,6,2]","[6,4,8,2]","","",""
"show-reward","70","224408","0.0-70.0","p698081","A19TD2J8506A4Y","3WPCIUYH1BELQU8EB2L3QVOOKYBTD4","345LHZDEDZY5VZJ08KA272J3VBMU3I","model","match","uniform","","","","","","","","225881.40000000037","227898.90000000037","","","","","","","","","","","","6","","stimuli/stars_6.png","120.5","","","","","stimuli/BM03_FO.jpg","",""
"explore-choice","71","226774","0.0-71.0","p698081","A19TD2J8506A4Y","3WPCIUYH1BELQU8EB2L3QVOOKYBTD4","345LHZDEDZY5VZJ08KA272J3VBMU3I","model","match","uniform","","","","","","","1853.7999999998137","227900.90000000037","229754.7000000002","[""stimuli/HF04_FO.jpg"",""stimuli/AF02_SC.jpg"",""stimuli/BM03_HO.jpg"",""stimuli/HF02_SUR.jpg""]","stimuli/HF04_FO.jpg","stimuli/AF02_SC.jpg","stimuli/BM03_HO.jpg","stimuli/HF02_SUR.jpg","pos3","stimuli/BM03_HO.jpg","HO","BM03","2","5","10","8","stimuli/stars_10.png","125.5","[""FO"",""SC"",""HO"",""SUR""]","[""HF04"",""AF02"",""BM03"",""HF02""]","[5,2,10,3]","[6,4,8,2]","","",""
"show-reward","72","228784","0.0-72.0","p698081","A19TD2J8506A4Y","3WPCIUYH1BELQU8EB2L3QVOOKYBTD4","345LHZDEDZY5VZJ08KA272J3VBMU3I","model","match","uniform","","","","","","","","230267.5","232274.40000000037","","","","","","","","","","","","10","","stimuli/stars_10.png","125.5","","","","","stimuli/BM03_HO.jpg","",""
"explore-choice","73","234258","0.0-73.0","p698081","A19TD2J8506A4Y","3WPCIUYH1BELQU8EB2L3QVOOKYBTD4","345LHZDEDZY5VZJ08KA272J3VBMU3I","model","match","uniform","","","","","","","4966.200000000186","232276.7999999998","237243","[""stimuli/BM03_SUR.jpg"",""stimuli/AF02_HO.jpg"",""stimuli/HF02_FO.jpg"",""stimuli/HF04_SC.jpg""]","stimuli/BM03_SUR.jpg","stimuli/AF02_HO.jpg","stimuli/HF02_FO.jpg","stimuli/HF04_SC.jpg","pos1","stimuli/BM03_SUR.jpg","SUR","BM03","0","5","10","8","stimuli/stars_10.png","130.5","[""SUR"",""HO"",""FO"",""SC""]","[""BM03"",""AF02"",""HF02"",""HF04""]","[10,2,4,4]","[8,4,2,6]","","",""
"show-reward","74","236281","0.0-74.0","p698081","A19TD2J8506A4Y","3WPCIUYH1BELQU8EB2L3QVOOKYBTD4","345LHZDEDZY5VZJ08KA272J3VBMU3I","model","match","uniform","","","","","","","","237751","239771.40000000037","","","","","","","","","","","","10","","stimuli/stars_10.png","130.5","","","","","stimuli/BM03_SUR.jpg","",""
"explore-choice","75","238918","0.0-75.0","p698081","A19TD2J8506A4Y","3WPCIUYH1BELQU8EB2L3QVOOKYBTD4","345LHZDEDZY5VZJ08KA272J3VBMU3I","model","match","uniform","","","","","","","2124.9000000003725","239773.7000000002","241898.60000000056","[""stimuli/HF02_HO.jpg"",""stimuli/AF02_SC.jpg"",""stimuli/HF04_FO.jpg"",""stimuli/BM03_SUR.jpg""]","stimuli/HF02_HO.jpg","stimuli/AF02_SC.jpg","stimuli/HF04_FO.jpg","stimuli/BM03_SUR.jpg","pos4","stimuli/BM03_SUR.jpg","SUR","BM03","3","4","8","8","stimuli/stars_8.png","134.5","[""HO"",""SC"",""FO"",""SUR""]","[""HF02"",""AF02"",""HF04"",""BM03""]","[3,6,5,8]","[2,4,6,8]","","",""
"show-reward","76","240935","0.0-76.0","p698081","A19TD2J8506A4Y","3WPCIUYH1BELQU8EB2L3QVOOKYBTD4","345LHZDEDZY5VZJ08KA272J3VBMU3I","model","match","uniform","","","","","","","","242410.7000000002","244426.5","","","","","","","","","","","","8","","stimuli/stars_8.png","134.5","","","","","stimuli/BM03_SUR.jpg","",""
"explore-choice","77","242855","0.0-77.0","p698081","A19TD2J8506A4Y","3WPCIUYH1BELQU8EB2L3QVOOKYBTD4","345LHZDEDZY5VZJ08KA272J3VBMU3I","model","match","uniform","","","","","","","1414.2999999998137","244428.5","245842.7999999998","[""stimuli/AF02_FO.jpg"",""stimuli/HF02_SUR.jpg"",""stimuli/HF04_SC.jpg"",""stimuli/BM03_HO.jpg""]","stimuli/AF02_FO.jpg","stimuli/HF02_SUR.jpg","stimuli/HF04_SC.jpg","stimuli/BM03_HO.jpg","pos4","stimuli/BM03_HO.jpg","HO","BM03","3","3","6","8","stimuli/stars_6.png","137.5","[""FO"",""SUR"",""SC"",""HO""]","[""AF02"",""HF02"",""HF04"",""BM03""]","[5,4,7,6]","[4,2,6,8]","","",""
"show-reward","78","244873","0.0-78.0","p698081","A19TD2J8506A4Y","3WPCIUYH1BELQU8EB2L3QVOOKYBTD4","345LHZDEDZY5VZJ08KA272J3VBMU3I","model","match","uniform","","","","","","","","246348.7000000002","248363.7000000002","","","","","","","","","","","","6","","stimuli/stars_6.png","137.5","","","","","stimuli/BM03_HO.jpg","",""
"explore-choice","79","246731","0.0-79.0","p698081","A19TD2J8506A4Y","3WPCIUYH1BELQU8EB2L3QVOOKYBTD4","345LHZDEDZY5VZJ08KA272J3VBMU3I","model","match","uniform","","","","","","","1348.4000000003725","248366","249714.40000000037","[""stimuli/HF02_SUR.jpg"",""stimuli/AF02_HO.jpg"",""stimuli/BM03_FO.jpg"",""stimuli/HF04_SC.jpg""]","stimuli/HF02_SUR.jpg","stimuli/AF02_HO.jpg","stimuli/BM03_FO.jpg","stimuli/HF04_SC.jpg","pos3","stimuli/BM03_FO.jpg","FO","BM03","2","3.5","7","8","stimuli/stars_7.png","141","[""SUR"",""HO"",""FO"",""SC""]","[""HF02"",""AF02"",""BM03"",""HF04""]","[3,2,7,7]","[2,4,8,6]","","",""
"show-reward","80","248751","0.0-80.0","p698081","A19TD2J8506A4Y","3WPCIUYH1BELQU8EB2L3QVOOKYBTD4","345LHZDEDZY5VZJ08KA272J3VBMU3I","model","match","uniform","","","","","","","","250223.60000000056","252241.7000000002","","","","","","","","","","","","7","","stimuli/stars_7.png","141","","","","","stimuli/BM03_FO.jpg","",""
"explore-choice","81","250686","0.0-81.0","p698081","A19TD2J8506A4Y","3WPCIUYH1BELQU8EB2L3QVOOKYBTD4","345LHZDEDZY5VZJ08KA272J3VBMU3I","model","match","uniform","","","","","","","1430.5","252243.7999999998","253674.2999999998","[""stimuli/HF04_SC.jpg"",""stimuli/HF02_HO.jpg"",""stimuli/AF02_FO.jpg"",""stimuli/BM03_SUR.jpg""]","stimuli/HF04_SC.jpg","stimuli/HF02_HO.jpg","stimuli/AF02_FO.jpg","stimuli/BM03_SUR.jpg","pos4","stimuli/BM03_SUR.jpg","SUR","BM03","3","4","8","8","stimuli/stars_8.png","145","[""SC"",""HO"",""FO"",""SUR""]","[""HF04"",""HF02"",""AF02"",""BM03""]","[4,1,2,8]","[6,2,4,8]","","",""
"show-reward","82","252709","0.0-82.0","p698081","A19TD2J8506A4Y","3WPCIUYH1BELQU8EB2L3QVOOKYBTD4","345LHZDEDZY5VZJ08KA272J3VBMU3I","model","match","uniform","","","","","","","","254179.10000000056","256199.90000000037","","","","","","","","","","","","8","","stimuli/stars_8.png","145","","","","","stimuli/BM03_SUR.jpg","",""
"explore-choice","83","254512","0.0-83.0","p698081","A19TD2J8506A4Y","3WPCIUYH1BELQU8EB2L3QVOOKYBTD4","345LHZDEDZY5VZJ08KA272J3VBMU3I","model","match","uniform","","","","","","","1288.1000000005588","256202.5","257490.60000000056","[""stimuli/AF02_HO.jpg"",""stimuli/BM03_FO.jpg"",""stimuli/HF02_SC.jpg"",""stimuli/HF04_SUR.jpg""]","stimuli/AF02_HO.jpg","stimuli/BM03_FO.jpg","stimuli/HF02_SC.jpg","stimuli/HF04_SUR.jpg","pos2","stimuli/BM03_FO.jpg","FO","BM03","1","3","6","8","stimuli/stars_6.png","148","[""HO"",""FO"",""SC"",""SUR""]","[""AF02"",""BM03"",""HF02"",""HF04""]","[6,6,1,5]","[4,8,2,6]","","",""
"show-reward","84","256532","0.0-84.0","p698081","A19TD2J8506A4Y","3WPCIUYH1BELQU8EB2L3QVOOKYBTD4","345LHZDEDZY5VZJ08KA272J3VBMU3I","model","match","uniform","","","","","","","","258005.2000000002","260023.10000000056","","","","","","","","","","","","6","","stimuli/stars_6.png","148","","","","","stimuli/BM03_FO.jpg","",""
"explore-choice","85","258839","0.0-85.0","p698081","A19TD2J8506A4Y","3WPCIUYH1BELQU8EB2L3QVOOKYBTD4","345LHZDEDZY5VZJ08KA272J3VBMU3I","model","match","uniform","","","","","","","1794.2999999998137","260024.5","261818.7999999998","[""stimuli/BM03_HO.jpg"",""stimuli/AF02_SUR.jpg"",""stimuli/HF02_FO.jpg"",""stimuli/HF04_SC.jpg""]","stimuli/BM03_HO.jpg","stimuli/AF02_SUR.jpg","stimuli/HF02_FO.jpg","stimuli/HF04_SC.jpg","pos1","stimuli/BM03_HO.jpg","HO","BM03","0","3.5","7","8","stimuli/stars_7.png","151.5","[""HO"",""SUR"",""FO"",""SC""]","[""BM03"",""AF02"",""HF02"",""HF04""]","[7,2,2,4]","[8,4,2,6]","","",""
"show-reward","86","260852","0.0-86.0","p698081","A19TD2J8506A4Y","3WPCIUYH1BELQU8EB2L3QVOOKYBTD4","345LHZDEDZY5VZJ08KA272J3VBMU3I","model","match","uniform","","","","","","","","262332.7000000002","264342.7000000002","","","","","","","","","","","","7","","stimuli/stars_7.png","151.5","","","","","stimuli/BM03_HO.jpg","",""
"explore-choice","87","262544","0.0-87.0","p698081","A19TD2J8506A4Y","3WPCIUYH1BELQU8EB2L3QVOOKYBTD4","345LHZDEDZY5VZJ08KA272J3VBMU3I","model","match","uniform","","","","","","","1168.0999999996275","264346.2000000002","265514.2999999998","[""stimuli/BM03_SC.jpg"",""stimuli/AF02_FO.jpg"",""stimuli/HF04_SUR.jpg"",""stimuli/HF02_HO.jpg""]","stimuli/BM03_SC.jpg","stimuli/AF02_FO.jpg","stimuli/HF04_SUR.jpg","stimuli/HF02_HO.jpg","pos1","stimuli/BM03_SC.jpg","SC","BM03","0","4","8","8","stimuli/stars_8.png","155.5","[""SC"",""FO"",""SUR"",""HO""]","[""BM03"",""AF02"",""HF04"",""HF02""]","[8,4,6,2]","[8,4,6,2]","","",""
"show-reward","88","264564","0.0-88.0","p698081","A19TD2J8506A4Y","3WPCIUYH1BELQU8EB2L3QVOOKYBTD4","345LHZDEDZY5VZJ08KA272J3VBMU3I","model","match","uniform","","","","","","","","266037.2999999998","268055.10000000056","","","","","","","","","","","","8","","stimuli/stars_8.png","155.5","","","","","stimuli/BM03_SC.jpg","",""
"explore-choice","89","267804","0.0-89.0","p698081","A19TD2J8506A4Y","3WPCIUYH1BELQU8EB2L3QVOOKYBTD4","345LHZDEDZY5VZJ08KA272J3VBMU3I","model","match","uniform","","","","","","","2737.100000000559","268057.5","270794.60000000056","[""stimuli/AF02_HO.jpg"",""stimuli/HF02_SC.jpg"",""stimuli/BM03_SUR.jpg"",""stimuli/HF04_FO.jpg""]","stimuli/AF02_HO.jpg","stimuli/HF02_SC.jpg","stimuli/BM03_SUR.jpg","stimuli/HF04_FO.jpg","pos3","stimuli/BM03_SUR.jpg","SUR","BM03","2","5","10","8","stimuli/stars_10.png","160.5","[""HO"",""SC"",""SUR"",""FO""]","[""AF02"",""HF02"",""BM03"",""HF04""]","[5,2,10,6]","[4,2,8,6]","","",""
"show-reward","90","269820","0.0-90.0","p698081","A19TD2J8506A4Y","3WPCIUYH1BELQU8EB2L3QVOOKYBTD4","345LHZDEDZY5VZJ08KA272J3VBMU3I","model","match","uniform","","","","","","","","271297.60000000056","273310.7999999998","","","","","","","","","","","","10","","stimuli/stars_10.png","160.5","","","","","stimuli/BM03_SUR.jpg","",""
"explore-choice","91","272255","0.0-91.0","p698081","A19TD2J8506A4Y","3WPCIUYH1BELQU8EB2L3QVOOKYBTD4","345LHZDEDZY5VZJ08KA272J3VBMU3I","model","match","uniform","","","","","","","1921.6000000005588","273312.7999999998","275234.4000000004","[""stimuli/HF04_FO.jpg"",""stimuli/BM03_SC.jpg"",""stimuli/AF02_HO.jpg"",""stimuli/HF02_SUR.jpg""]","stimuli/HF04_FO.jpg","stimuli/BM03_SC.jpg","stimuli/AF02_HO.jpg","stimuli/HF02_SUR.jpg","pos2","stimuli/BM03_SC.jpg","SC","BM03","1","5","10","8","stimuli/stars_10.png","165.5","[""FO"",""SC"",""HO"",""SUR""]","[""HF04"",""BM03"",""AF02"",""HF02""]","[6,10,5,2]","[6,8,4,2]","","",""
"show-reward","92","274264","0.0-92.0","p698081","A19TD2J8506A4Y","3WPCIUYH1BELQU8EB2L3QVOOKYBTD4","345LHZDEDZY5VZJ08KA272J3VBMU3I","model","match","uniform","","","","","","","","275747.7999999998","277754.60000000056","","","","","","","","","","","","10","","stimuli/stars_10.png","165.5","","","","","stimuli/BM03_SC.jpg","",""
"explore-choice","93","276216","0.0-93.0","p698081","A19TD2J8506A4Y","3WPCIUYH1BELQU8EB2L3QVOOKYBTD4","345LHZDEDZY5VZJ08KA272J3VBMU3I","model","match","uniform","","","","","","","1446","277756.9000000004","279202.9000000004","[""stimuli/HF04_FO.jpg"",""stimuli/HF02_SC.jpg"",""stimuli/BM03_HO.jpg"",""stimuli/AF02_SUR.jpg""]","stimuli/HF04_FO.jpg","stimuli/HF02_SC.jpg","stimuli/BM03_HO.jpg","stimuli/AF02_SUR.jpg","pos3","stimuli/BM03_HO.jpg","HO","BM03","2","4","8","8","stimuli/stars_8.png","169.5","[""FO"",""SC"",""HO"",""SUR""]","[""HF04"",""HF02"",""BM03"",""AF02""]","[7,2,8,2]","[6,2,8,4]","","",""
"show-reward","94","278234","0.0-94.0","p698081","A19TD2J8506A4Y","3WPCIUYH1BELQU8EB2L3QVOOKYBTD4","345LHZDEDZY5VZJ08KA272J3VBMU3I","model","match","uniform","","","","","","","","279709.5","281725.4000000004","","","","","","","","","","","","8","","stimuli/stars_8.png","169.5","","","","","stimuli/BM03_HO.jpg","",""
"explore-choice","95","280458","0.0-95.0","p698081","A19TD2J8506A4Y","3WPCIUYH1BELQU8EB2L3QVOOKYBTD4","345LHZDEDZY5VZJ08KA272J3VBMU3I","model","match","uniform","","","","","","","1700.2999999998137","281727.5","283427.7999999998","[""stimuli/HF04_SC.jpg"",""stimuli/BM03_FO.jpg"",""stimuli/HF02_HO.jpg"",""stimuli/AF02_SUR.jpg""]","stimuli/HF04_SC.jpg","stimuli/BM03_FO.jpg","stimuli/HF02_HO.jpg","stimuli/AF02_SUR.jpg","pos2","stimuli/BM03_FO.jpg","FO","BM03","1","4.5","9","8","stimuli/stars_9.png","174","[""SC"",""FO"",""HO"",""SUR""]","[""HF04"",""BM03"",""HF02"",""AF02""]","[4,9,4,6]","[6,8,2,4]","","",""
"show-reward","96","282470","0.0-96.0","p698081","A19TD2J8506A4Y","3WPCIUYH1BELQU8EB2L3QVOOKYBTD4","345LHZDEDZY5VZJ08KA272J3VBMU3I","model","match","uniform","","","","","","","","283950.7999999998","285960.5","","","","","","","","","","","","9","","stimuli/stars_9.png","174","","","","","stimuli/BM03_FO.jpg","",""
"explore-choice","97","284782","0.0-97.0","p698081","A19TD2J8506A4Y","3WPCIUYH1BELQU8EB2L3QVOOKYBTD4","345LHZDEDZY5VZJ08KA272J3VBMU3I","model","match","uniform","","","","","","","1807.3999999994412","285963.10000000056","287770.5","[""stimuli/AF02_SC.jpg"",""stimuli/HF04_HO.jpg"",""stimuli/HF02_FO.jpg"",""stimuli/BM03_SUR.jpg""]","stimuli/AF02_SC.jpg","stimuli/HF04_HO.jpg","stimuli/HF02_FO.jpg","stimuli/BM03_SUR.jpg","pos4","stimuli/BM03_SUR.jpg","SUR","BM03","3","4","8","8","stimuli/stars_8.png","178","[""SC"",""HO"",""FO"",""SUR""]","[""AF02"",""HF04"",""HF02"",""BM03""]","[5,7,3,8]","[4,6,2,8]","","",""
"show-reward","98","286792","0.0-98.0","p698081","A19TD2J8506A4Y","3WPCIUYH1BELQU8EB2L3QVOOKYBTD4","345LHZDEDZY5VZJ08KA272J3VBMU3I","model","match","uniform","","","","","","","","288275.4000000004","290282.60000000056","","","","","","","","","","","","8","","stimuli/stars_8.png","178","","","","","stimuli/BM03_SUR.jpg","",""
"explore-choice","99","289351","0.0-99.0","p698081","A19TD2J8506A4Y","3WPCIUYH1BELQU8EB2L3QVOOKYBTD4","345LHZDEDZY5VZJ08KA272J3VBMU3I","model","match","uniform","","","","","","","2045.5","290285.4000000004","292330.9000000004","[""stimuli/AF02_FO.jpg"",""stimuli/BM03_SC.jpg"",""stimuli/HF02_SUR.jpg"",""stimuli/HF04_HO.jpg""]","stimuli/AF02_FO.jpg","stimuli/BM03_SC.jpg","stimuli/HF02_SUR.jpg","stimuli/HF04_HO.jpg","pos2","stimuli/BM03_SC.jpg","SC","BM03","1","5","10","8","stimuli/stars_10.png","183","[""FO"",""SC"",""SUR"",""HO""]","[""AF02"",""BM03"",""HF02"",""HF04""]","[6,10,4,5]","[4,8,2,6]","","",""
"show-reward","100","291368","0.0-100.0","p698081","A19TD2J8506A4Y","3WPCIUYH1BELQU8EB2L3QVOOKYBTD4","345LHZDEDZY5VZJ08KA272J3VBMU3I","model","match","uniform","","","","","","","","292843.9000000004","294858.5","","","","","","","","","","","","10","","stimuli/stars_10.png","183","","","","","stimuli/BM03_SC.jpg","",""
"explore-choice","101","293372","0.0-101.0","p698081","A19TD2J8506A4Y","3WPCIUYH1BELQU8EB2L3QVOOKYBTD4","345LHZDEDZY5VZJ08KA272J3VBMU3I","model","match","uniform","","","","","","","1493.199999999255","294861.10000000056","296354.2999999998","[""stimuli/HF04_FO.jpg"",""stimuli/AF02_SUR.jpg"",""stimuli/HF02_HO.jpg"",""stimuli/BM03_SC.jpg""]","stimuli/HF04_FO.jpg","stimuli/AF02_SUR.jpg","stimuli/HF02_HO.jpg","stimuli/BM03_SC.jpg","pos4","stimuli/BM03_SC.jpg","SC","BM03","3","4","8","8","stimuli/stars_8.png","187","[""FO"",""SUR"",""HO"",""SC""]","[""HF04"",""AF02"",""HF02"",""BM03""]","[4,3,3,8]","[6,4,2,8]","","",""
"show-reward","102","295393","0.0-102.0","p698081","A19TD2J8506A4Y","3WPCIUYH1BELQU8EB2L3QVOOKYBTD4","345LHZDEDZY5VZJ08KA272J3VBMU3I","model","match","uniform","","","","","","","","296865","298883.7999999998","","","","","","","","","","","","8","","stimuli/stars_8.png","187","","","","","stimuli/BM03_SC.jpg","",""
"explore-choice","103","299529","0.0-103.0","p698081","A19TD2J8506A4Y","3WPCIUYH1BELQU8EB2L3QVOOKYBTD4","345LHZDEDZY5VZJ08KA272J3VBMU3I","model","match","uniform","","","","","","","3628.5","298885.9000000004","302514.4000000004","[""stimuli/HM09_AO.jpg"",""stimuli/WF14_HE.jpg"",""stimuli/BF08_DO.jpg"",""stimuli/HF09_CC.jpg""]","stimuli/HM09_AO.jpg","stimuli/WF14_HE.jpg","stimuli/BF08_DO.jpg","stimuli/HF09_CC.jpg","pos1","stimuli/HM09_AO.jpg","AO","HM09","0","1.5","3","4","stimuli/stars_3.png","188.5","[""AO"",""HE"",""DO"",""CC""]","[""HM09"",""WF14"",""BF08"",""HF09""]","[3,4,0,8]","[4,6,2,8]","","",""
"show-reward","104","301536","0.0-104.0","p698081","A19TD2J8506A4Y","3WPCIUYH1BELQU8EB2L3QVOOKYBTD4","345LHZDEDZY5VZJ08KA272J3VBMU3I","model","match","uniform","","","","","","","","303022.60000000056","305027.2999999998","","","","","","","","","","","","3","","stimuli/stars_3.png","188.5","","","","","stimuli/HM09_AO.jpg","",""
"explore-choice","105","302766","0.0-105.0","p698081","A19TD2J8506A4Y","3WPCIUYH1BELQU8EB2L3QVOOKYBTD4","345LHZDEDZY5VZJ08KA272J3VBMU3I","model","match","uniform","","","","","","","718.5","305028.4000000004","305746.9000000004","[""stimuli/WF14_CC.jpg"",""stimuli/HF09_HE.jpg"",""stimuli/HM09_AO.jpg"",""stimuli/BF08_DO.jpg""]","stimuli/WF14_CC.jpg","stimuli/HF09_HE.jpg","stimuli/HM09_AO.jpg","stimuli/BF08_DO.jpg","pos2","stimuli/HF09_HE.jpg","HE","HF09","1","4","8","8","stimuli/stars_8.png","192.5","[""CC"",""HE"",""AO"",""DO""]","[""WF14"",""HF09"",""HM09"",""BF08""]","[7,8,2,4]","[6,8,4,2]","","",""
"show-reward","106","304783","0.0-106.0","p698081","A19TD2J8506A4Y","3WPCIUYH1BELQU8EB2L3QVOOKYBTD4","345LHZDEDZY5VZJ08KA272J3VBMU3I","model","match","uniform","","","","","","","","306259.2000000002","308274.2999999998","","","","","","","","","","","","8","","stimuli/stars_8.png","192.5","","","","","stimuli/HF09_HE.jpg","",""
"explore-choice","107","306734","0.0-107.0","p698081","A19TD2J8506A4Y","3WPCIUYH1BELQU8EB2L3QVOOKYBTD4","345LHZDEDZY5VZJ08KA272J3VBMU3I","model","match","uniform","","","","","","","1430.5","308276.10000000056","309706.60000000056","[""stimuli/HM09_CC.jpg"",""stimuli/HF09_DO.jpg"",""stimuli/WF14_HE.jpg"",""stimuli/BF08_AO.jpg""]","stimuli/HM09_CC.jpg","stimuli/HF09_DO.jpg","stimuli/WF14_HE.jpg","stimuli/BF08_AO.jpg","pos2","stimuli/HF09_DO.jpg","DO","HF09","1","5","10","8","stimuli/stars_10.png","197.5","[""CC"",""DO"",""HE"",""AO""]","[""HM09"",""HF09"",""WF14"",""BF08""]","[5,10,6,3]","[4,8,6,2]","","",""
"show-reward","108","308746","0.0-108.0","p698081","A19TD2J8506A4Y","3WPCIUYH1BELQU8EB2L3QVOOKYBTD4","345LHZDEDZY5VZJ08KA272J3VBMU3I","model","match","uniform","","","","","","","","310227.60000000056","312236.7000000002","","","","","","","","","","","","10","","stimuli/stars_10.png","197.5","","","","","stimuli/HF09_DO.jpg","",""
"explore-choice","109","310602","0.0-109.0","p698081","A19TD2J8506A4Y","3WPCIUYH1BELQU8EB2L3QVOOKYBTD4","345LHZDEDZY5VZJ08KA272J3VBMU3I","model","match","uniform","","","","","","","1345.5","312241","313586.5","[""stimuli/HF09_HE.jpg"",""stimuli/WF14_AO.jpg"",""stimuli/HM09_CC.jpg"",""stimuli/BF08_DO.jpg""]","stimuli/HF09_HE.jpg","stimuli/WF14_AO.jpg","stimuli/HM09_CC.jpg","stimuli/BF08_DO.jpg","pos1","stimuli/HF09_HE.jpg","HE","HF09","0","5","10","8","stimuli/stars_10.png","202.5","[""HE"",""AO"",""CC"",""DO""]","[""HF09"",""WF14"",""HM09"",""BF08""]","[10,4,4,0]","[8,6,4,2]","","",""
"show-reward","110","312620","0.0-110.0","p698081","A19TD2J8506A4Y","3WPCIUYH1BELQU8EB2L3QVOOKYBTD4","345LHZDEDZY5VZJ08KA272J3VBMU3I","model","match","uniform","","","","","","","","314095","316111","","","","","","","","","","","","10","","stimuli/stars_10.png","202.5","","","","","stimuli/HF09_HE.jpg","",""
"explore-choice","111","314294","0.0-111.0","p698081","A19TD2J8506A4Y","3WPCIUYH1BELQU8EB2L3QVOOKYBTD4","345LHZDEDZY5VZJ08KA272J3VBMU3I","model","match","uniform","","","","","","","1169.9000000003725","316113.2999999998","317283.2000000002","[""stimuli/HF09_CC.jpg"",""stimuli/HM09_DO.jpg"",""stimuli/BF08_AO.jpg"",""stimuli/WF14_HE.jpg""]","stimuli/HF09_CC.jpg","stimuli/HM09_DO.jpg","stimuli/BF08_AO.jpg","stimuli/WF14_HE.jpg","pos1","stimuli/HF09_CC.jpg","CC","HF09","0","4.5","9","8","stimuli/stars_9.png","207","[""CC"",""DO"",""AO"",""HE""]","[""HF09"",""HM09"",""BF08"",""WF14""]","[9,2,0,8]","[8,4,2,6]","","",""
"show-reward","112","316311","0.0-112.0","p698081","A19TD2J8506A4Y","3WPCIUYH1BELQU8EB2L3QVOOKYBTD4","345LHZDEDZY5VZJ08KA272J3VBMU3I","model","match","uniform","","","","","","","","317787.2999999998","319802.2000000002","","","","","","","","","","","","9","","stimuli/stars_9.png","207","","","","","stimuli/HF09_CC.jpg","",""
"explore-choice","113","317853","0.0-113.0","p698081","A19TD2J8506A4Y","3WPCIUYH1BELQU8EB2L3QVOOKYBTD4","345LHZDEDZY5VZJ08KA272J3VBMU3I","model","match","uniform","","","","","","","1038.7000000001863","319804","320842.7000000002","[""stimuli/HF09_AO.jpg"",""stimuli/WF14_CC.jpg"",""stimuli/BF08_HE.jpg"",""stimuli/HM09_DO.jpg""]","stimuli/HF09_AO.jpg","stimuli/WF14_CC.jpg","stimuli/BF08_HE.jpg","stimuli/HM09_DO.jpg","pos1","stimuli/HF09_AO.jpg","AO","HF09","0","5","10","8","stimuli/stars_10.png","212","[""AO"",""CC"",""HE"",""DO""]","[""HF09"",""WF14"",""BF08"",""HM09""]","[10,6,4,5]","[8,6,2,4]","","",""
"show-reward","114","319866","0.0-114.0","p698081","A19TD2J8506A4Y","3WPCIUYH1BELQU8EB2L3QVOOKYBTD4","345LHZDEDZY5VZJ08KA272J3VBMU3I","model","match","uniform","","","","","","","","321345.7000000002","323357.2999999998","","","","","","","","","","","","10","","stimuli/stars_10.png","212","","","","","stimuli/HF09_AO.jpg","",""
"explore-choice","115","322054","0.0-115.0","p698081","A19TD2J8506A4Y","3WPCIUYH1BELQU8EB2L3QVOOKYBTD4","345LHZDEDZY5VZJ08KA272J3VBMU3I","model","match","uniform","","","","","","","1674.7999999998137","323359.4000000004","325034.2000000002","[""stimuli/BF08_DO.jpg"",""stimuli/WF14_HE.jpg"",""stimuli/HM09_CC.jpg"",""stimuli/HF09_AO.jpg""]","stimuli/BF08_DO.jpg","stimuli/WF14_HE.jpg","stimuli/HM09_CC.jpg","stimuli/HF09_AO.jpg","pos4","stimuli/HF09_AO.jpg","AO","HF09","3","5","10","8","stimuli/stars_10.png","217","[""DO"",""HE"",""CC"",""AO""]","[""BF08"",""WF14"",""HM09"",""HF09""]","[3,7,5,10]","[2,6,4,8]","","",""
"show-reward","116","324079","0.0-116.0","p698081","A19TD2J8506A4Y","3WPCIUYH1BELQU8EB2L3QVOOKYBTD4","345LHZDEDZY5VZJ08KA272J3VBMU3I","model","match","uniform","","","","","","","","325547.60000000056","327570.60000000056","","","","","","","","","","","","10","","stimuli/stars_10.png","217","","","","","stimuli/HF09_AO.jpg","",""
"explore-choice","117","325813","0.0-117.0","p698081","A19TD2J8506A4Y","3WPCIUYH1BELQU8EB2L3QVOOKYBTD4","345LHZDEDZY5VZJ08KA272J3VBMU3I","model","match","uniform","","","","","","","1221.699999999255","327572.60000000056","328794.2999999998","[""stimuli/HF09_DO.jpg"",""stimuli/WF14_HE.jpg"",""stimuli/BF08_CC.jpg"",""stimuli/HM09_AO.jpg""]","stimuli/HF09_DO.jpg","stimuli/WF14_HE.jpg","stimuli/BF08_CC.jpg","stimuli/HM09_AO.jpg","pos1","stimuli/HF09_DO.jpg","DO","HF09","0","4","8","8","stimuli/stars_8.png","221","[""DO"",""HE"",""CC"",""AO""]","[""HF09"",""WF14"",""BF08"",""HM09""]","[8,5,2,2]","[8,6,2,4]","","",""
"show-reward","118","327827","0.0-118.0","p698081","A19TD2J8506A4Y","3WPCIUYH1BELQU8EB2L3QVOOKYBTD4","345LHZDEDZY5VZJ08KA272J3VBMU3I","model","match","uniform","","","","","","","","329306.39999999944","331317.60000000056","","","","","","","","","","","","8","","stimuli/stars_8.png","221","","","","","stimuli/HF09_DO.jpg","",""
"explore-choice","119","330168","0.0-119.0","p698081","A19TD2J8506A4Y","3WPCIUYH1BELQU8EB2L3QVOOKYBTD4","345LHZDEDZY5VZJ08KA272J3VBMU3I","model","match","uniform","","","","","","","1826.9000000003725","331319.89999999944","333146.7999999998","[""stimuli/BF08_CC.jpg"",""stimuli/HM09_AO.jpg"",""stimuli/WF14_DO.jpg"",""stimuli/HF09_HE.jpg""]","stimuli/BF08_CC.jpg","stimuli/HM09_AO.jpg","stimuli/WF14_DO.jpg","stimuli/HF09_HE.jpg","pos4","stimuli/HF09_HE.jpg","HE","HF09","3","4.5","9","8","stimuli/stars_9.png","225.5","[""CC"",""AO"",""DO"",""HE""]","[""BF08"",""HM09"",""WF14"",""HF09""]","[4,5,7,9]","[2,4,6,8]","","",""
"show-reward","120","332186","0.0-120.0","p698081","A19TD2J8506A4Y","3WPCIUYH1BELQU8EB2L3QVOOKYBTD4","345LHZDEDZY5VZJ08KA272J3VBMU3I","model","match","uniform","","","","","","","","333661.39999999944","335677.7999999998","","","","","","","","","","","","9","","stimuli/stars_9.png","225.5","","","","","stimuli/HF09_HE.jpg","",""
"explore-choice","121","334309","0.0-121.0","p698081","A19TD2J8506A4Y","3WPCIUYH1BELQU8EB2L3QVOOKYBTD4","345LHZDEDZY5VZJ08KA272J3VBMU3I","model","match","uniform","","","","","","","1619.7000000011176","335678.89999999944","337298.60000000056","[""stimuli/BF08_AO.jpg"",""stimuli/WF14_DO.jpg"",""stimuli/HF09_HE.jpg"",""stimuli/HM09_CC.jpg""]","stimuli/BF08_AO.jpg","stimuli/WF14_DO.jpg","stimuli/HF09_HE.jpg","stimuli/HM09_CC.jpg","pos3","stimuli/HF09_HE.jpg","HE","HF09","2","4","8","8","stimuli/stars_8.png","229.5","[""AO"",""DO"",""HE"",""CC""]","[""BF08"",""WF14"",""HF09"",""HM09""]","[1,7,8,4]","[2,6,8,4]","","",""
"show-reward","122","336317","0.0-122.0","p698081","A19TD2J8506A4Y","3WPCIUYH1BELQU8EB2L3QVOOKYBTD4","345LHZDEDZY5VZJ08KA272J3VBMU3I","model","match","uniform","","","","","","","","337802.60000000056","339807.7999999998","","","","","","","","","","","","8","","stimuli/stars_8.png","229.5","","","","","stimuli/HF09_HE.jpg","",""
"explore-choice","123","338431","0.0-123.0","p698081","A19TD2J8506A4Y","3WPCIUYH1BELQU8EB2L3QVOOKYBTD4","345LHZDEDZY5VZJ08KA272J3VBMU3I","model","match","uniform","","","","","","","1602.2000000011176","339809.89999999944","341412.10000000056","[""stimuli/HF09_HE.jpg"",""stimuli/BF08_AO.jpg"",""stimuli/WF14_CC.jpg"",""stimuli/HM09_DO.jpg""]","stimuli/HF09_HE.jpg","stimuli/BF08_AO.jpg","stimuli/WF14_CC.jpg","stimuli/HM09_DO.jpg","pos1","stimuli/HF09_HE.jpg","HE","HF09","0","3","6","8","stimuli/stars_6.png","232.5","[""HE"",""AO"",""CC"",""DO""]","[""HF09"",""BF08"",""WF14"",""HM09""]","[6,2,7,5]","[8,2,6,4]","","",""
"show-reward","124","340440","0.0-124.0","p698081","A19TD2J8506A4Y","3WPCIUYH1BELQU8EB2L3QVOOKYBTD4","345LHZDEDZY5VZJ08KA272J3VBMU3I","model","match","uniform","","","","","","","","341924.39999999944","343930.89999999944","","","","","","","","","","","","6","","stimuli/stars_6.png","232.5","","","","","stimuli/HF09_HE.jpg","",""
"explore-choice","125","342677","0.0-125.0","p698081","A19TD2J8506A4Y","3WPCIUYH1BELQU8EB2L3QVOOKYBTD4","345LHZDEDZY5VZJ08KA272J3VBMU3I","model","match","uniform","","","","","","","1725.0999999996275","343933.60000000056","345658.7000000002","[""stimuli/HM09_CC.jpg"",""stimuli/BF08_HE.jpg"",""stimuli/WF14_AO.jpg"",""stimuli/HF09_DO.jpg""]","stimuli/HM09_CC.jpg","stimuli/BF08_HE.jpg","stimuli/WF14_AO.jpg","stimuli/HF09_DO.jpg","pos4","stimuli/HF09_DO.jpg","DO","HF09","3","3","6","8","stimuli/stars_6.png","235.5","[""CC"",""HE"",""AO"",""DO""]","[""HM09"",""BF08"",""WF14"",""HF09""]","[3,1,7,6]","[4,2,6,8]","","",""
"show-reward","126","344696","0.0-126.0","p698081","A19TD2J8506A4Y","3WPCIUYH1BELQU8EB2L3QVOOKYBTD4","345LHZDEDZY5VZJ08KA272J3VBMU3I","model","match","uniform","","","","","","","","346170.2999999998","348187.2000000002","","","","","","","","","","","","6","","stimuli/stars_6.png","235.5","","","","","stimuli/HF09_DO.jpg","",""
"explore-choice","127","346838","0.0-127.0","p698081","A19TD2J8506A4Y","3WPCIUYH1BELQU8EB2L3QVOOKYBTD4","345LHZDEDZY5VZJ08KA272J3VBMU3I","model","match","uniform","","","","","","","1629.5","348189.10000000056","349818.60000000056","[""stimuli/HM09_CC.jpg"",""stimuli/HF09_AO.jpg"",""stimuli/WF14_DO.jpg"",""stimuli/BF08_HE.jpg""]","stimuli/HM09_CC.jpg","stimuli/HF09_AO.jpg","stimuli/WF14_DO.jpg","stimuli/BF08_HE.jpg","pos2","stimuli/HF09_AO.jpg","AO","HF09","1","4","8","8","stimuli/stars_8.png","239.5","[""CC"",""AO"",""DO"",""HE""]","[""HM09"",""HF09"",""WF14"",""BF08""]","[6,8,4,4]","[4,8,6,2]","","",""
"show-reward","128","348856","0.0-128.0","p698081","A19TD2J8506A4Y","3WPCIUYH1BELQU8EB2L3QVOOKYBTD4","345LHZDEDZY5VZJ08KA272J3VBMU3I","model","match","uniform","","","","","","","","350332.2999999998","352346.50000000093","","","","","","","","","","","","8","","stimuli/stars_8.png","239.5","","","","","stimuli/HF09_AO.jpg","",""
"explore-choice","129","350959","0.0-129.0","p698081","A19TD2J8506A4Y","3WPCIUYH1BELQU8EB2L3QVOOKYBTD4","345LHZDEDZY5VZJ08KA272J3VBMU3I","model","match","uniform","","","","","","","1590","352348.60000000056","353938.60000000056","[""stimuli/HM09_DO.jpg"",""stimuli/HF09_AO.jpg"",""stimuli/WF14_HE.jpg"",""stimuli/BF08_CC.jpg""]","stimuli/HM09_DO.jpg","stimuli/HF09_AO.jpg","stimuli/WF14_HE.jpg","stimuli/BF08_CC.jpg","pos2","stimuli/HF09_AO.jpg","AO","HF09","1","3.5","7","8","stimuli/stars_7.png","243","[""DO"",""AO"",""HE"",""CC""]","[""HM09"",""HF09"",""WF14"",""BF08""]","[3,7,8,0]","[4,8,6,2]","","",""
"show-reward","130","352967","0.0-130.0","p698081","A19TD2J8506A4Y","3WPCIUYH1BELQU8EB2L3QVOOKYBTD4","345LHZDEDZY5VZJ08KA272J3VBMU3I","model","match","uniform","","","","","","","","354452.00000000093","356458.39999999944","","","","","","","","","","","","7","","stimuli/stars_7.png","243","","","","","stimuli/HF09_AO.jpg","",""
"explore-choice","131","354454","0.0-131.0","p698081","A19TD2J8506A4Y","3WPCIUYH1BELQU8EB2L3QVOOKYBTD4","345LHZDEDZY5VZJ08KA272J3VBMU3I","model","match","uniform","","","","","","","965.9000000003725","356460.39999999944","357426.2999999998","[""stimuli/WF14_AO.jpg"",""stimuli/HF09_HE.jpg"",""stimuli/HM09_DO.jpg"",""stimuli/BF08_CC.jpg""]","stimuli/WF14_AO.jpg","stimuli/HF09_HE.jpg","stimuli/HM09_DO.jpg","stimuli/BF08_CC.jpg","pos2","stimuli/HF09_HE.jpg","HE","HF09","1","4","8","8","stimuli/stars_8.png","247","[""AO"",""HE"",""DO"",""CC""]","[""WF14"",""HF09"",""HM09"",""BF08""]","[6,8,4,1]","[6,8,4,2]","","",""
"show-reward","132","356471","0.0-132.0","p698081","A19TD2J8506A4Y","3WPCIUYH1BELQU8EB2L3QVOOKYBTD4","345LHZDEDZY5VZJ08KA272J3VBMU3I","model","match","uniform","","","","","","","","357946.50000000093","359962.50000000093","","","","","","","","","","","","8","","stimuli/stars_8.png","247","","","","","stimuli/HF09_HE.jpg","",""
"explore-choice","133","358649","0.0-133.0","p698081","A19TD2J8506A4Y","3WPCIUYH1BELQU8EB2L3QVOOKYBTD4","345LHZDEDZY5VZJ08KA272J3VBMU3I","model","match","uniform","","","","","","","1662.7999999988824","359964.00000000093","361626.7999999998","[""stimuli/WF14_CC.jpg"",""stimuli/HM09_HE.jpg"",""stimuli/HF09_DO.jpg"",""stimuli/BF08_AO.jpg""]","stimuli/WF14_CC.jpg","stimuli/HM09_HE.jpg","stimuli/HF09_DO.jpg","stimuli/BF08_AO.jpg","pos3","stimuli/HF09_DO.jpg","DO","HF09","2","5","10","8","stimuli/stars_10.png","252","[""CC"",""HE"",""DO"",""AO""]","[""WF14"",""HM09"",""HF09"",""BF08""]","[5,6,10,4]","[6,4,8,2]","","",""
"show-reward","134","360660","0.0-134.0","p698081","A19TD2J8506A4Y","3WPCIUYH1BELQU8EB2L3QVOOKYBTD4","345LHZDEDZY5VZJ08KA272J3VBMU3I","model","match","uniform","","","","","","","","362142.2000000002","364150.50000000093","","","","","","","","","","","","10","","stimuli/stars_10.png","252","","","","","stimuli/HF09_DO.jpg","",""
"explore-choice","135","362414","0.0-135.0","p698081","A19TD2J8506A4Y","3WPCIUYH1BELQU8EB2L3QVOOKYBTD4","345LHZDEDZY5VZJ08KA272J3VBMU3I","model","match","uniform","","","","","","","1250","364152.7999999998","365402.7999999998","[""stimuli/HF09_DO.jpg"",""stimuli/HM09_AO.jpg"",""stimuli/WF14_CC.jpg"",""stimuli/BF08_HE.jpg""]","stimuli/HF09_DO.jpg","stimuli/HM09_AO.jpg","stimuli/WF14_CC.jpg","stimuli/BF08_HE.jpg","pos1","stimuli/HF09_DO.jpg","DO","HF09","0","3.5","7","8","stimuli/stars_7.png","255.5","[""DO"",""AO"",""CC"",""HE""]","[""HF09"",""HM09"",""WF14"",""BF08""]","[7,4,4,3]","[8,4,6,2]","","",""
"show-reward","136","364426","0.0-136.0","p698081","A19TD2J8506A4Y","3WPCIUYH1BELQU8EB2L3QVOOKYBTD4","345LHZDEDZY5VZJ08KA272J3VBMU3I","model","match","uniform","","","","","","","","365907.2999999998","367917.50000000093","","","","","","","","","","","","7","","stimuli/stars_7.png","255.5","","","","","stimuli/HF09_DO.jpg","",""
"explore-choice","137","366800","0.0-137.0","p698081","A19TD2J8506A4Y","3WPCIUYH1BELQU8EB2L3QVOOKYBTD4","345LHZDEDZY5VZJ08KA272J3VBMU3I","model","match","uniform","","","","","","","1860.0999999996275","367918.50000000093","369778.60000000056","[""stimuli/BF08_CC.jpg"",""stimuli/HM09_HE.jpg"",""stimuli/WF14_DO.jpg"",""stimuli/HF09_AO.jpg""]","stimuli/BF08_CC.jpg","stimuli/HM09_HE.jpg","stimuli/WF14_DO.jpg","stimuli/HF09_AO.jpg","pos4","stimuli/HF09_AO.jpg","AO","HF09","3","4","8","8","stimuli/stars_8.png","259.5","[""CC"",""HE"",""DO"",""AO""]","[""BF08"",""HM09"",""WF14"",""HF09""]","[2,3,8,8]","[2,4,6,8]","","",""
"show-reward","138","368818","0.0-138.0","p698081","A19TD2J8506A4Y","3WPCIUYH1BELQU8EB2L3QVOOKYBTD4","345LHZDEDZY5VZJ08KA272J3VBMU3I","model","match","uniform","","","","","","","","370293.00000000093","372308.89999999944","","","","","","","","","","","","8","","stimuli/stars_8.png","259.5","","","","","stimuli/HF09_AO.jpg","",""
"explore-choice","139","371091","0.0-139.0","p698081","A19TD2J8506A4Y","3WPCIUYH1BELQU8EB2L3QVOOKYBTD4","345LHZDEDZY5VZJ08KA272J3VBMU3I","model","match","uniform","","","","","","","1755.2000000011176","372311.39999999944","374066.60000000056","[""stimuli/BF08_HE.jpg"",""stimuli/WF14_AO.jpg"",""stimuli/HF09_CC.jpg"",""stimuli/HM09_DO.jpg""]","stimuli/BF08_HE.jpg","stimuli/WF14_AO.jpg","stimuli/HF09_CC.jpg","stimuli/HM09_DO.jpg","pos3","stimuli/HF09_CC.jpg","CC","HF09","2","4.5","9","8","stimuli/stars_9.png","264","[""HE"",""AO"",""CC"",""DO""]","[""BF08"",""WF14"",""HF09"",""HM09""]","[2,6,9,5]","[2,6,8,4]","","",""
"show-reward","140","373107","0.0-140.0","p698081","A19TD2J8506A4Y","3WPCIUYH1BELQU8EB2L3QVOOKYBTD4","345LHZDEDZY5VZJ08KA272J3VBMU3I","model","match","uniform","","","","","","","","374584.2000000002","376598.10000000056","","","","","","","","","","","","9","","stimuli/stars_9.png","264","","","","","stimuli/HF09_CC.jpg","",""
"explore-choice","141","375489","0.0-141.0","p698081","A19TD2J8506A4Y","3WPCIUYH1BELQU8EB2L3QVOOKYBTD4","345LHZDEDZY5VZJ08KA272J3VBMU3I","model","match","uniform","","","","","","","1874.5","376600.39999999944","378474.89999999944","[""stimuli/HF09_DO.jpg"",""stimuli/BF08_CC.jpg"",""stimuli/HM09_HE.jpg"",""stimuli/WF14_AO.jpg""]","stimuli/HF09_DO.jpg","stimuli/BF08_CC.jpg","stimuli/HM09_HE.jpg","stimuli/WF14_AO.jpg","pos1","stimuli/HF09_DO.jpg","DO","HF09","0","4.5","9","8","stimuli/stars_9.png","268.5","[""DO"",""CC"",""HE"",""AO""]","[""HF09"",""BF08"",""HM09"",""WF14""]","[9,0,4,7]","[8,2,4,6]","","",""
"show-reward","142","377498","0.0-142.0","p698081","A19TD2J8506A4Y","3WPCIUYH1BELQU8EB2L3QVOOKYBTD4","345LHZDEDZY5VZJ08KA272J3VBMU3I","model","match","uniform","","","","","","","","378983.60000000056","380988.7000000002","","","","","","","","","","","","9","","stimuli/stars_9.png","268.5","","","","","stimuli/HF09_DO.jpg","",""
"explore-choice","143","380018","0.0-143.0","p698081","A19TD2J8506A4Y","3WPCIUYH1BELQU8EB2L3QVOOKYBTD4","345LHZDEDZY5VZJ08KA272J3VBMU3I","model","match","uniform","","","","","","","2003.5","380990.89999999944","382994.39999999944","[""stimuli/BF08_DO.jpg"",""stimuli/HM09_HE.jpg"",""stimuli/HF09_CC.jpg"",""stimuli/WF14_AO.jpg""]","stimuli/BF08_DO.jpg","stimuli/HM09_HE.jpg","stimuli/HF09_CC.jpg","stimuli/WF14_AO.jpg","pos3","stimuli/HF09_CC.jpg","CC","HF09","2","3","6","8","stimuli/stars_6.png","271.5","[""DO"",""HE"",""CC"",""AO""]","[""BF08"",""HM09"",""HF09"",""WF14""]","[2,5,6,7]","[2,4,8,6]","","",""
"show-reward","144","382035","0.0-144.0","p698081","A19TD2J8506A4Y","3WPCIUYH1BELQU8EB2L3QVOOKYBTD4","345LHZDEDZY5VZJ08KA272J3VBMU3I","model","match","uniform","","","","","","","","383511.39999999944","385526.39999999944","","","","","","","","","","","","6","","stimuli/stars_6.png","271.5","","","","","stimuli/HF09_CC.jpg","",""
"explore-choice","145","384107","0.0-145.0","p698081","A19TD2J8506A4Y","3WPCIUYH1BELQU8EB2L3QVOOKYBTD4","345LHZDEDZY5VZJ08KA272J3VBMU3I","model","match","uniform","","","","","","","1562.199999999255","385528.60000000056","387090.7999999998","[""stimuli/HM09_HE.jpg"",""stimuli/WF14_DO.jpg"",""stimuli/BF08_AO.jpg"",""stimuli/HF09_CC.jpg""]","stimuli/HM09_HE.jpg","stimuli/WF14_DO.jpg","stimuli/BF08_AO.jpg","stimuli/HF09_CC.jpg","pos4","stimuli/HF09_CC.jpg","CC","HF09","3","4.5","9","8","stimuli/stars_9.png","276","[""HE"",""DO"",""AO"",""CC""]","[""HM09"",""WF14"",""BF08"",""HF09""]","[2,7,0,9]","[4,6,2,8]","","",""
"show-reward","146","386127","0.0-146.0","p698081","A19TD2J8506A4Y","3WPCIUYH1BELQU8EB2L3QVOOKYBTD4","345LHZDEDZY5VZJ08KA272J3VBMU3I","model","match","uniform","","","","","","","","387599.7000000002","389618.60000000056","","","","","","","","","","","","9","","stimuli/stars_9.png","276","","","","","stimuli/HF09_CC.jpg","",""
"explore-choice","147","388262","0.0-147.0","p698081","A19TD2J8506A4Y","3WPCIUYH1BELQU8EB2L3QVOOKYBTD4","345LHZDEDZY5VZJ08KA272J3VBMU3I","model","match","uniform","","","","","","","1623.800000000745","389619.7999999998","391243.60000000056","[""stimuli/HF09_AO.jpg"",""stimuli/BF08_DO.jpg"",""stimuli/HM09_HE.jpg"",""stimuli/WF14_CC.jpg""]","stimuli/HF09_AO.jpg","stimuli/BF08_DO.jpg","stimuli/HM09_HE.jpg","stimuli/WF14_CC.jpg","pos1","stimuli/HF09_AO.jpg","AO","HF09","0","4.5","9","8","stimuli/stars_9.png","280.5","[""AO"",""DO"",""HE"",""CC""]","[""HF09"",""BF08"",""HM09"",""WF14""]","[9,4,6,4]","[8,2,4,6]","","",""
"show-reward","148","390279","0.0-148.0","p698081","A19TD2J8506A4Y","3WPCIUYH1BELQU8EB2L3QVOOKYBTD4","345LHZDEDZY5VZJ08KA272J3VBMU3I","model","match","uniform","","","","","","","","391755.39999999944","393769.7000000002","","","","","","","","","","","","9","","stimuli/stars_9.png","280.5","","","","","stimuli/HF09_AO.jpg","",""
"explore-choice","149","392567","0.0-149.0","p698081","A19TD2J8506A4Y","3WPCIUYH1BELQU8EB2L3QVOOKYBTD4","345LHZDEDZY5VZJ08KA272J3VBMU3I","model","match","uniform","","","","","","","1772.2999999988824","393774.60000000056","395546.89999999944","[""stimuli/BF08_HE.jpg"",""stimuli/HF09_CC.jpg"",""stimuli/WF14_DO.jpg"",""stimuli/HM09_AO.jpg""]","stimuli/BF08_HE.jpg","stimuli/HF09_CC.jpg","stimuli/WF14_DO.jpg","stimuli/HM09_AO.jpg","pos2","stimuli/HF09_CC.jpg","CC","HF09","1","4.5","9","8","stimuli/stars_9.png","285","[""HE"",""CC"",""DO"",""AO""]","[""BF08"",""HF09"",""WF14"",""HM09""]","[0,9,5,2]","[2,8,6,4]","","",""
"show-reward","150","394575","0.0-150.0","p698081","A19TD2J8506A4Y","3WPCIUYH1BELQU8EB2L3QVOOKYBTD4","345LHZDEDZY5VZJ08KA272J3VBMU3I","model","match","uniform","","","","","","","","396060.50000000093","398067.00000000093","","","","","","","","","","","","9","","stimuli/stars_9.png","285","","","","","stimuli/HF09_CC.jpg","",""
"explore-choice","151","396421","0.0-151.0","p698081","A19TD2J8506A4Y","3WPCIUYH1BELQU8EB2L3QVOOKYBTD4","345LHZDEDZY5VZJ08KA272J3VBMU3I","model","match","uniform","","","","","","","1333.5","398069.00000000093","399402.50000000093","[""stimuli/BF08_HE.jpg"",""stimuli/HF09_AO.jpg"",""stimuli/HM09_CC.jpg"",""stimuli/WF14_DO.jpg""]","stimuli/BF08_HE.jpg","stimuli/HF09_AO.jpg","stimuli/HM09_CC.jpg","stimuli/WF14_DO.jpg","pos2","stimuli/HF09_AO.jpg","AO","HF09","1","4","8","8","stimuli/stars_8.png","289","[""HE"",""AO"",""CC"",""DO""]","[""BF08"",""HF09"",""HM09"",""WF14""]","[4,8,6,4]","[2,8,4,6]","","",""
"show-reward","152","398444","0.0-152.0","p698081","A19TD2J8506A4Y","3WPCIUYH1BELQU8EB2L3QVOOKYBTD4","345LHZDEDZY5VZJ08KA272J3VBMU3I","model","match","uniform","","","","","","","","399914.7000000002","401936.2999999998","","","","","","","","","","","","8","","stimuli/stars_8.png","289","","","","","stimuli/HF09_AO.jpg","",""
"explore-choice","153","400498","0.0-153.0","p698081","A19TD2J8506A4Y","3WPCIUYH1BELQU8EB2L3QVOOKYBTD4","345LHZDEDZY5VZJ08KA272J3VBMU3I","model","match","uniform","","","","","","","1536.1000000014901","401938.39999999944","403474.50000000093","[""stimuli/WF14_DO.jpg"",""stimuli/HM09_HE.jpg"",""stimuli/BF08_CC.jpg"",""stimuli/HF09_AO.jpg""]","stimuli/WF14_DO.jpg","stimuli/HM09_HE.jpg","stimuli/BF08_CC.jpg","stimuli/HF09_AO.jpg","pos4","stimuli/HF09_AO.jpg","AO","HF09","3","4","8","8","stimuli/stars_8.png","293","[""DO"",""HE"",""CC"",""AO""]","[""WF14"",""HM09"",""BF08"",""HF09""]","[8,3,2,8]","[6,4,2,8]","","",""
"show-reward","154","402512","0.0-154.0","p698081","A19TD2J8506A4Y","3WPCIUYH1BELQU8EB2L3QVOOKYBTD4","345LHZDEDZY5VZJ08KA272J3VBMU3I","model","match","uniform","","","","","","","","403992.2000000002","406004.2000000002","","","","","","","","","","","","8","","stimuli/stars_8.png","293","","","","","stimuli/HF09_AO.jpg","",""
"explore-choice","155","404370","0.0-155.0","p698081","A19TD2J8506A4Y","3WPCIUYH1BELQU8EB2L3QVOOKYBTD4","345LHZDEDZY5VZJ08KA272J3VBMU3I","model","match","uniform","","","","","","","1341.2999999988824","406005.50000000093","407346.7999999998","[""stimuli/BF08_HE.jpg"",""stimuli/WF14_AO.jpg"",""stimuli/HM09_CC.jpg"",""stimuli/HF09_DO.jpg""]","stimuli/BF08_HE.jpg","stimuli/WF14_AO.jpg","stimuli/HM09_CC.jpg","stimuli/HF09_DO.jpg","pos4","stimuli/HF09_DO.jpg","DO","HF09","3","3","6","8","stimuli/stars_6.png","296","[""HE"",""AO"",""CC"",""DO""]","[""BF08"",""WF14"",""HM09"",""HF09""]","[1,7,3,6]","[2,6,4,8]","","",""
"show-reward","156","406396","0.0-156.0","p698081","A19TD2J8506A4Y","3WPCIUYH1BELQU8EB2L3QVOOKYBTD4","345LHZDEDZY5VZJ08KA272J3VBMU3I","model","match","uniform","","","","","","","","407864.10000000056","409888.60000000056","","","","","","","","","","","","6","","stimuli/stars_6.png","296","","","","","stimuli/HF09_DO.jpg","",""
"explore-choice","157","408398","0.0-157.0","p698081","A19TD2J8506A4Y","3WPCIUYH1BELQU8EB2L3QVOOKYBTD4","345LHZDEDZY5VZJ08KA272J3VBMU3I","model","match","uniform","","","","","","","1488.5999999996275","409890.60000000056","411379.2000000002","[""stimuli/BF08_DO.jpg"",""stimuli/HM09_AO.jpg"",""stimuli/HF09_CC.jpg"",""stimuli/WF14_HE.jpg""]","stimuli/BF08_DO.jpg","stimuli/HM09_AO.jpg","stimuli/HF09_CC.jpg","stimuli/WF14_HE.jpg","pos3","stimuli/HF09_CC.jpg","CC","HF09","2","4","8","8","stimuli/stars_8.png","300","[""DO"",""AO"",""CC"",""HE""]","[""BF08"",""HM09"",""HF09"",""WF14""]","[0,3,8,4]","[2,4,8,6]","","",""
"show-reward","158","410415","0.0-158.0","p698081","A19TD2J8506A4Y","3WPCIUYH1BELQU8EB2L3QVOOKYBTD4","345LHZDEDZY5VZJ08KA272J3VBMU3I","model","match","uniform","","","","","","","","411891.89999999944","413906.89999999944","","","","","","","","","","","","8","","stimuli/stars_8.png","300","","","","","stimuli/HF09_CC.jpg","",""
"explore-choice","159","412800","0.0-159.0","p698081","A19TD2J8506A4Y","3WPCIUYH1BELQU8EB2L3QVOOKYBTD4","345LHZDEDZY5VZJ08KA272J3VBMU3I","model","match","uniform","","","","","","","1877.9000000003725","413908.89999999944","415786.7999999998","[""stimuli/HF09_DO.jpg"",""stimuli/WF14_AO.jpg"",""stimuli/HM09_HE.jpg"",""stimuli/BF08_CC.jpg""]","stimuli/HF09_DO.jpg","stimuli/WF14_AO.jpg","stimuli/HM09_HE.jpg","stimuli/BF08_CC.jpg","pos1","stimuli/HF09_DO.jpg","DO","HF09","0","4.5","9","8","stimuli/stars_9.png","304.5","[""DO"",""AO"",""HE"",""CC""]","[""HF09"",""WF14"",""HM09"",""BF08""]","[9,7,4,0]","[8,6,4,2]","","",""
"show-reward","160","414818","0.0-160.0","p698081","A19TD2J8506A4Y","3WPCIUYH1BELQU8EB2L3QVOOKYBTD4","345LHZDEDZY5VZJ08KA272J3VBMU3I","model","match","uniform","","","","","","","","416294.10000000056","418309.7999999998","","","","","","","","","","","","9","","stimuli/stars_9.png","304.5","","","","","stimuli/HF09_DO.jpg","",""
"explore-choice","161","416891","0.0-161.0","p698081","A19TD2J8506A4Y","3WPCIUYH1BELQU8EB2L3QVOOKYBTD4","345LHZDEDZY5VZJ08KA272J3VBMU3I","model","match","uniform","","","","","","","1561.9000000003725","418312.60000000056","419874.50000000093","[""stimuli/HM09_HE.jpg"",""stimuli/HF09_DO.jpg"",""stimuli/BF08_AO.jpg"",""stimuli/WF14_CC.jpg""]","stimuli/HM09_HE.jpg","stimuli/HF09_DO.jpg","stimuli/BF08_AO.jpg","stimuli/WF14_CC.jpg","pos2","stimuli/HF09_DO.jpg","DO","HF09","1","5","10","8","stimuli/stars_10.png","309.5","[""HE"",""DO"",""AO"",""CC""]","[""HM09"",""HF09"",""BF08"",""WF14""]","[6,10,4,5]","[4,8,2,6]","","",""
"show-reward","162","418912","0.0-162.0","p698081","A19TD2J8506A4Y","3WPCIUYH1BELQU8EB2L3QVOOKYBTD4","345LHZDEDZY5VZJ08KA272J3VBMU3I","model","match","uniform","","","","","","","","420385.10000000056","422403.50000000093","","","","","","","","","","","","10","","stimuli/stars_10.png","309.5","","","","","stimuli/HF09_DO.jpg","",""
"explore-choice","163","421331","0.0-163.0","p698081","A19TD2J8506A4Y","3WPCIUYH1BELQU8EB2L3QVOOKYBTD4","345LHZDEDZY5VZJ08KA272J3VBMU3I","model","match","uniform","","","","","","","1901.4000000003725","422405.60000000056","424307.00000000093","[""stimuli/HM09_DO.jpg"",""stimuli/WF14_AO.jpg"",""stimuli/HF09_CC.jpg"",""stimuli/BF08_HE.jpg""]","stimuli/HM09_DO.jpg","stimuli/WF14_AO.jpg","stimuli/HF09_CC.jpg","stimuli/BF08_HE.jpg","pos3","stimuli/HF09_CC.jpg","CC","HF09","2","4.5","9","8","stimuli/stars_9.png","314","[""DO"",""AO"",""CC"",""HE""]","[""HM09"",""WF14"",""HF09"",""BF08""]","[5,6,9,2]","[4,6,8,2]","","",""
"show-reward","164","423350","0.0-164.0","p698081","A19TD2J8506A4Y","3WPCIUYH1BELQU8EB2L3QVOOKYBTD4","345LHZDEDZY5VZJ08KA272J3VBMU3I","model","match","uniform","","","","","","","","424825.2999999998","426841.00000000093","","","","","","","","","","","","9","","stimuli/stars_9.png","314","","","","","stimuli/HF09_CC.jpg","",""
"explore-choice","165","425823","0.0-165.0","p698081","A19TD2J8506A4Y","3WPCIUYH1BELQU8EB2L3QVOOKYBTD4","345LHZDEDZY5VZJ08KA272J3VBMU3I","model","match","uniform","","","","","","","1967.4000000003725","426843.60000000056","428811.00000000093","[""stimuli/WF14_AO.jpg"",""stimuli/HF09_HE.jpg"",""stimuli/BF08_CC.jpg"",""stimuli/HM09_DO.jpg""]","stimuli/WF14_AO.jpg","stimuli/HF09_HE.jpg","stimuli/BF08_CC.jpg","stimuli/HM09_DO.jpg","pos2","stimuli/HF09_HE.jpg","HE","HF09","1","4","8","8","stimuli/stars_8.png","318","[""AO"",""HE"",""CC"",""DO""]","[""WF14"",""HF09"",""BF08"",""HM09""]","[6,8,1,4]","[6,8,2,4]","","",""
"show-reward","166","427842","0.0-166.0","p698081","A19TD2J8506A4Y","3WPCIUYH1BELQU8EB2L3QVOOKYBTD4","345LHZDEDZY5VZJ08KA272J3VBMU3I","model","match","uniform","","","","","","","","429317.39999999944","431333.89999999944","","","","","","","","","","","","8","","stimuli/stars_8.png","318","","","","","stimuli/HF09_HE.jpg","",""
"explore-choice","167","429445","0.0-167.0","p698081","A19TD2J8506A4Y","3WPCIUYH1BELQU8EB2L3QVOOKYBTD4","345LHZDEDZY5VZJ08KA272J3VBMU3I","model","match","uniform","","","","","","","1090.8999999985099","431336.00000000093","432426.89999999944","[""stimuli/WF14_HE.jpg"",""stimuli/HF09_DO.jpg"",""stimuli/BF08_CC.jpg"",""stimuli/HM09_AO.jpg""]","stimuli/WF14_HE.jpg","stimuli/HF09_DO.jpg","stimuli/BF08_CC.jpg","stimuli/HM09_AO.jpg","pos2","stimuli/HF09_DO.jpg","DO","HF09","1","4","8","8","stimuli/stars_8.png","322","[""HE"",""DO"",""CC"",""AO""]","[""WF14"",""HF09"",""BF08"",""HM09""]","[5,8,2,2]","[6,8,2,4]","","",""
"show-reward","168","431453","0.0-168.0","p698081","A19TD2J8506A4Y","3WPCIUYH1BELQU8EB2L3QVOOKYBTD4","345LHZDEDZY5VZJ08KA272J3VBMU3I","model","match","uniform","","","","","","","","432939.2000000002","434944.7000000002","","","","","","","","","","","","8","","stimuli/stars_8.png","322","","","","","stimuli/HF09_DO.jpg","",""
"explore-choice","169","433688","0.0-169.0","p698081","A19TD2J8506A4Y","3WPCIUYH1BELQU8EB2L3QVOOKYBTD4","345LHZDEDZY5VZJ08KA272J3VBMU3I","model","match","uniform","","","","","","","1727.9000000003725","434946.7000000002","436674.60000000056","[""stimuli/WF14_DO.jpg"",""stimuli/BF08_CC.jpg"",""stimuli/HM09_AO.jpg"",""stimuli/HF09_HE.jpg""]","stimuli/WF14_DO.jpg","stimuli/BF08_CC.jpg","stimuli/HM09_AO.jpg","stimuli/HF09_HE.jpg","pos4","stimuli/HF09_HE.jpg","HE","HF09","3","4.5","9","8","stimuli/stars_9.png","326.5","[""DO"",""CC"",""AO"",""HE""]","[""WF14"",""BF08"",""HM09"",""HF09""]","[7,4,5,9]","[6,2,4,8]","","",""
"show-reward","170","435705","0.0-170.0","p698081","A19TD2J8506A4Y","3WPCIUYH1BELQU8EB2L3QVOOKYBTD4","345LHZDEDZY5VZJ08KA272J3VBMU3I","model","match","uniform","","","","","","","","437183.60000000056","439197.2000000002","","","","","","","","","","","","9","","stimuli/stars_9.png","326.5","","","","","stimuli/HF09_HE.jpg","",""
"explore-choice","171","438128","0.0-171.0","p698081","A19TD2J8506A4Y","3WPCIUYH1BELQU8EB2L3QVOOKYBTD4","345LHZDEDZY5VZJ08KA272J3VBMU3I","model","match","uniform","","","","","","","1907.9000000003725","439199.2000000002","441107.10000000056","[""stimuli/BF08_DO.jpg"",""stimuli/HM09_HE.jpg"",""stimuli/HF09_CC.jpg"",""stimuli/WF14_AO.jpg""]","stimuli/BF08_DO.jpg","stimuli/HM09_HE.jpg","stimuli/HF09_CC.jpg","stimuli/WF14_AO.jpg","pos3","stimuli/HF09_CC.jpg","CC","HF09","2","3","6","8","stimuli/stars_6.png","329.5","[""DO"",""HE"",""CC"",""AO""]","[""BF08"",""HM09"",""HF09"",""WF14""]","[2,5,6,7]","[2,4,8,6]","","",""
"show-reward","172","440144","0.0-172.0","p698081","A19TD2J8506A4Y","3WPCIUYH1BELQU8EB2L3QVOOKYBTD4","345LHZDEDZY5VZJ08KA272J3VBMU3I","model","match","uniform","","","","","","","","441622.60000000056","443636.00000000093","","","","","","","","","","","","6","","stimuli/stars_6.png","329.5","","","","","stimuli/HF09_CC.jpg","",""
"explore-choice","173","442547","0.0-173.0","p698081","A19TD2J8506A4Y","3WPCIUYH1BELQU8EB2L3QVOOKYBTD4","345LHZDEDZY5VZJ08KA272J3VBMU3I","model","match","uniform","","","","","","","1900.699999999255","443638.2000000002","445538.89999999944","[""stimuli/BF08_CC.jpg"",""stimuli/HF09_AO.jpg"",""stimuli/HM09_DO.jpg"",""stimuli/WF14_HE.jpg""]","stimuli/BF08_CC.jpg","stimuli/HF09_AO.jpg","stimuli/HM09_DO.jpg","stimuli/WF14_HE.jpg","pos2","stimuli/HF09_AO.jpg","AO","HF09","1","3.5","7","8","stimuli/stars_7.png","333","[""CC"",""AO"",""DO"",""HE""]","[""BF08"",""HF09"",""HM09"",""WF14""]","[0,7,3,8]","[2,8,4,6]","","",""
"show-reward","174","444553","0.0-174.0","p698081","A19TD2J8506A4Y","3WPCIUYH1BELQU8EB2L3QVOOKYBTD4","345LHZDEDZY5VZJ08KA272J3VBMU3I","model","match","uniform","","","","","","","","446041.10000000056","448045.00000000093","","","","","","","","","","","","7","","stimuli/stars_7.png","333","","","","","stimuli/HF09_AO.jpg","",""
"explore-choice","175","447024","0.0-175.0","p698081","A19TD2J8506A4Y","3WPCIUYH1BELQU8EB2L3QVOOKYBTD4","345LHZDEDZY5VZJ08KA272J3VBMU3I","model","match","uniform","","","","","","","1956.0999999996275","448046.7000000002","450002.7999999998","[""stimuli/WF14_CC.jpg"",""stimuli/HM09_AO.jpg"",""stimuli/BF08_HE.jpg"",""stimuli/HF09_DO.jpg""]","stimuli/WF14_CC.jpg","stimuli/HM09_AO.jpg","stimuli/BF08_HE.jpg","stimuli/HF09_DO.jpg","pos4","stimuli/HF09_DO.jpg","DO","HF09","3","3.5","7","8","stimuli/stars_7.png","336.5","[""CC"",""AO"",""HE"",""DO""]","[""WF14"",""HM09"",""BF08"",""HF09""]","[4,4,3,7]","[6,4,2,8]","","",""
"show-reward","176","449042","0.0-176.0","p698081","A19TD2J8506A4Y","3WPCIUYH1BELQU8EB2L3QVOOKYBTD4","345LHZDEDZY5VZJ08KA272J3VBMU3I","model","match","uniform","","","","","","","","450517.89999999944","452533.7999999998","","","","","","","","","","","","7","","stimuli/stars_7.png","336.5","","","","","stimuli/HF09_DO.jpg","",""
"explore-choice","177","450893","0.0-177.0","p698081","A19TD2J8506A4Y","3WPCIUYH1BELQU8EB2L3QVOOKYBTD4","345LHZDEDZY5VZJ08KA272J3VBMU3I","model","match","uniform","","","","","","","1347","452535.7999999998","453882.7999999998","[""stimuli/WF14_DO.jpg"",""stimuli/HF09_HE.jpg"",""stimuli/BF08_AO.jpg"",""stimuli/HM09_CC.jpg""]","stimuli/WF14_DO.jpg","stimuli/HF09_HE.jpg","stimuli/BF08_AO.jpg","stimuli/HM09_CC.jpg","pos2","stimuli/HF09_HE.jpg","HE","HF09","1","4","8","8","stimuli/stars_8.png","340.5","[""DO"",""HE"",""AO"",""CC""]","[""WF14"",""HF09"",""BF08"",""HM09""]","[7,8,1,4]","[6,8,2,4]","","",""
"show-reward","178","452900","0.0-178.0","p698081","A19TD2J8506A4Y","3WPCIUYH1BELQU8EB2L3QVOOKYBTD4","345LHZDEDZY5VZJ08KA272J3VBMU3I","model","match","uniform","","","","","","","","454387.10000000056","456392.39999999944","","","","","","","","","","","","8","","stimuli/stars_8.png","340.5","","","","","stimuli/HF09_HE.jpg","",""
"explore-choice","179","455158","0.0-179.0","p698081","A19TD2J8506A4Y","3WPCIUYH1BELQU8EB2L3QVOOKYBTD4","345LHZDEDZY5VZJ08KA272J3VBMU3I","model","match","uniform","","","","","","","1744.199999999255","456394.60000000056","458138.7999999998","[""stimuli/BF08_DO.jpg"",""stimuli/HM09_AO.jpg"",""stimuli/WF14_CC.jpg"",""stimuli/HF09_HE.jpg""]","stimuli/BF08_DO.jpg","stimuli/HM09_AO.jpg","stimuli/WF14_CC.jpg","stimuli/HF09_HE.jpg","pos4","stimuli/HF09_HE.jpg","HE","HF09","3","4","8","8","stimuli/stars_8.png","344.5","[""DO"",""AO"",""CC"",""HE""]","[""BF08"",""HM09"",""WF14"",""HF09""]","[4,2,7,8]","[2,4,6,8]","","",""
"show-reward","180","457182","0.0-180.0","p698081","A19TD2J8506A4Y","3WPCIUYH1BELQU8EB2L3QVOOKYBTD4","345LHZDEDZY5VZJ08KA272J3VBMU3I","model","match","uniform","","","","","","","","458651.89999999944","460673.7999999998","","","","","","","","","","","","8","","stimuli/stars_8.png","344.5","","","","","stimuli/HF09_HE.jpg","",""
"explore-choice","181","459082","0.0-181.0","p698081","A19TD2J8506A4Y","3WPCIUYH1BELQU8EB2L3QVOOKYBTD4","345LHZDEDZY5VZJ08KA272J3VBMU3I","model","match","uniform","","","","","","","1390.7000000011176","460675.89999999944","462066.60000000056","[""stimuli/HM09_DO.jpg"",""stimuli/HF09_AO.jpg"",""stimuli/WF14_CC.jpg"",""stimuli/BF08_HE.jpg""]","stimuli/HM09_DO.jpg","stimuli/HF09_AO.jpg","stimuli/WF14_CC.jpg","stimuli/BF08_HE.jpg","pos2","stimuli/HF09_AO.jpg","AO","HF09","1","5","10","8","stimuli/stars_10.png","349.5","[""DO"",""AO"",""CC"",""HE""]","[""HM09"",""HF09"",""WF14"",""BF08""]","[5,10,6,4]","[4,8,6,2]","","",""
"show-reward","182","461099","0.0-182.0","p698081","A19TD2J8506A4Y","3WPCIUYH1BELQU8EB2L3QVOOKYBTD4","345LHZDEDZY5VZJ08KA272J3VBMU3I","model","match","uniform","","","","","","","","462576.7999999998","464590.50000000093","","","","","","","","","","","","10","","stimuli/stars_10.png","349.5","","","","","stimuli/HF09_AO.jpg","",""
"explore-choice","183","463325","0.0-183.0","p698081","A19TD2J8506A4Y","3WPCIUYH1BELQU8EB2L3QVOOKYBTD4","345LHZDEDZY5VZJ08KA272J3VBMU3I","model","match","uniform","","","","","","","1714.0999999996275","464592.7000000002","466306.7999999998","[""stimuli/HM09_AO.jpg"",""stimuli/BF08_HE.jpg"",""stimuli/HF09_CC.jpg"",""stimuli/WF14_DO.jpg""]","stimuli/HM09_AO.jpg","stimuli/BF08_HE.jpg","stimuli/HF09_CC.jpg","stimuli/WF14_DO.jpg","pos3","stimuli/HF09_CC.jpg","CC","HF09","2","4.5","9","8","stimuli/stars_9.png","354","[""AO"",""HE"",""CC"",""DO""]","[""HM09"",""BF08"",""HF09"",""WF14""]","[2,0,9,5]","[4,2,8,6]","","",""
"show-reward","184","465337","0.0-184.0","p698081","A19TD2J8506A4Y","3WPCIUYH1BELQU8EB2L3QVOOKYBTD4","345LHZDEDZY5VZJ08KA272J3VBMU3I","model","match","uniform","","","","","","","","466819.39999999944","468828.10000000056","","","","","","","","","","","","9","","stimuli/stars_9.png","354","","","","","stimuli/HF09_CC.jpg","",""
"explore-choice","185","467116","0.0-185.0","p698081","A19TD2J8506A4Y","3WPCIUYH1BELQU8EB2L3QVOOKYBTD4","345LHZDEDZY5VZJ08KA272J3VBMU3I","model","match","uniform","","","","","","","1268.4000000003725","468830.2000000002","470098.60000000056","[""stimuli/HF09_HE.jpg"",""stimuli/WF14_AO.jpg"",""stimuli/HM09_CC.jpg"",""stimuli/BF08_DO.jpg""]","stimuli/HF09_HE.jpg","stimuli/WF14_AO.jpg","stimuli/HM09_CC.jpg","stimuli/BF08_DO.jpg","pos1","stimuli/HF09_HE.jpg","HE","HF09","0","5","10","8","stimuli/stars_10.png","359","[""HE"",""AO"",""CC"",""DO""]","[""HF09"",""WF14"",""HM09"",""BF08""]","[10,4,4,0]","[8,6,4,2]","","",""
"show-reward","186","469128","0.0-186.0","p698081","A19TD2J8506A4Y","3WPCIUYH1BELQU8EB2L3QVOOKYBTD4","345LHZDEDZY5VZJ08KA272J3VBMU3I","model","match","uniform","","","","","","","","470609.7000000002","472619.60000000056","","","","","","","","","","","","10","","stimuli/stars_10.png","359","","","","","stimuli/HF09_HE.jpg","",""
"explore-choice","187","471354","0.0-187.0","p698081","A19TD2J8506A4Y","3WPCIUYH1BELQU8EB2L3QVOOKYBTD4","345LHZDEDZY5VZJ08KA272J3VBMU3I","model","match","uniform","","","","","","","1716.7999999988824","472622.00000000093","474338.7999999998","[""stimuli/BF08_AO.jpg"",""stimuli/WF14_HE.jpg"",""stimuli/HM09_CC.jpg"",""stimuli/HF09_DO.jpg""]","stimuli/BF08_AO.jpg","stimuli/WF14_HE.jpg","stimuli/HM09_CC.jpg","stimuli/HF09_DO.jpg","pos4","stimuli/HF09_DO.jpg","DO","HF09","3","5","10","8","stimuli/stars_10.png","364","[""AO"",""HE"",""CC"",""DO""]","[""BF08"",""WF14"",""HM09"",""HF09""]","[3,6,5,10]","[2,6,4,8]","","",""
"show-reward","188","473359","0.0-188.0","p698081","A19TD2J8506A4Y","3WPCIUYH1BELQU8EB2L3QVOOKYBTD4","345LHZDEDZY5VZJ08KA272J3VBMU3I","model","match","uniform","","","","","","","","474847.10000000056","476850.7000000002","","","","","","","","","","","","10","","stimuli/stars_10.png","364","","","","","stimuli/HF09_DO.jpg","",""
"explore-choice","189","476242","0.0-189.0","p698081","A19TD2J8506A4Y","3WPCIUYH1BELQU8EB2L3QVOOKYBTD4","345LHZDEDZY5VZJ08KA272J3VBMU3I","model","match","uniform","","","","","","","2373.9000000003725","476853.10000000056","479227.00000000093","[""stimuli/HM09_DO.jpg"",""stimuli/WF14_CC.jpg"",""stimuli/HF09_HE.jpg"",""stimuli/BF08_AO.jpg""]","stimuli/HM09_DO.jpg","stimuli/WF14_CC.jpg","stimuli/HF09_HE.jpg","stimuli/BF08_AO.jpg","pos3","stimuli/HF09_HE.jpg","HE","HF09","2","3","6","8","stimuli/stars_6.png","367","[""DO"",""CC"",""HE"",""AO""]","[""HM09"",""WF14"",""HF09"",""BF08""]","[5,7,6,2]","[4,6,8,2]","","",""
"show-reward","190","478261","0.0-190.0","p698081","A19TD2J8506A4Y","3WPCIUYH1BELQU8EB2L3QVOOKYBTD4","345LHZDEDZY5VZJ08KA272J3VBMU3I","model","match","uniform","","","","","","","","479735.89999999944","481752.39999999944","","","","","","","","","","","","6","","stimuli/stars_6.png","367","","","","","stimuli/HF09_HE.jpg","",""
"explore-choice","191","480482","0.0-191.0","p698081","A19TD2J8506A4Y","3WPCIUYH1BELQU8EB2L3QVOOKYBTD4","345LHZDEDZY5VZJ08KA272J3VBMU3I","model","match","uniform","","","","","","","1712","481754.50000000093","483466.50000000093","[""stimuli/WF14_CC.jpg"",""stimuli/HF09_AO.jpg"",""stimuli/BF08_DO.jpg"",""stimuli/HM09_HE.jpg""]","stimuli/WF14_CC.jpg","stimuli/HF09_AO.jpg","stimuli/BF08_DO.jpg","stimuli/HM09_HE.jpg","pos2","stimuli/HF09_AO.jpg","AO","HF09","1","4.5","9","8","stimuli/stars_9.png","371.5","[""CC"",""AO"",""DO"",""HE""]","[""WF14"",""HF09"",""BF08"",""HM09""]","[4,9,4,6]","[6,8,2,4]","","",""
"show-reward","192","482507","0.0-192.0","p698081","A19TD2J8506A4Y","3WPCIUYH1BELQU8EB2L3QVOOKYBTD4","345LHZDEDZY5VZJ08KA272J3VBMU3I","model","match","uniform","","","","","","","","483975.50000000093","485998.60000000056","","","","","","","","","","","","9","","stimuli/stars_9.png","371.5","","","","","stimuli/HF09_AO.jpg","",""
"explore-choice","193","484358","0.0-193.0","p698081","A19TD2J8506A4Y","3WPCIUYH1BELQU8EB2L3QVOOKYBTD4","345LHZDEDZY5VZJ08KA272J3VBMU3I","model","match","uniform","","","","","","","1346.0999999996275","486001.10000000056","487347.2000000002","[""stimuli/HF09_CC.jpg"",""stimuli/BF08_AO.jpg"",""stimuli/HM09_DO.jpg"",""stimuli/WF14_HE.jpg""]","stimuli/HF09_CC.jpg","stimuli/BF08_AO.jpg","stimuli/HM09_DO.jpg","stimuli/WF14_HE.jpg","pos1","stimuli/HF09_CC.jpg","CC","HF09","0","4.5","9","8","stimuli/stars_9.png","376","[""CC"",""AO"",""DO"",""HE""]","[""HF09"",""BF08"",""HM09"",""WF14""]","[9,0,2,8]","[8,2,4,6]","","",""
"show-reward","194","486374","0.0-194.0","p698081","A19TD2J8506A4Y","3WPCIUYH1BELQU8EB2L3QVOOKYBTD4","345LHZDEDZY5VZJ08KA272J3VBMU3I","model","match","uniform","","","","","","","","487851.2000000002","489866.00000000093","","","","","","","","","","","","9","","stimuli/stars_9.png","376","","","","","stimuli/HF09_CC.jpg","",""
"explore-choice","195","488661","0.0-195.0","p698081","A19TD2J8506A4Y","3WPCIUYH1BELQU8EB2L3QVOOKYBTD4","345LHZDEDZY5VZJ08KA272J3VBMU3I","model","match","uniform","","","","","","","1782.7999999988824","489868.00000000093","491650.7999999998","[""stimuli/WF14_HE.jpg"",""stimuli/HM09_CC.jpg"",""stimuli/BF08_DO.jpg"",""stimuli/HF09_AO.jpg""]","stimuli/WF14_HE.jpg","stimuli/HM09_CC.jpg","stimuli/BF08_DO.jpg","stimuli/HF09_AO.jpg","pos4","stimuli/HF09_AO.jpg","AO","HF09","3","5","10","8","stimuli/stars_10.png","381","[""HE"",""CC"",""DO"",""AO""]","[""WF14"",""HM09"",""BF08"",""HF09""]","[7,5,3,10]","[6,4,2,8]","","",""
"show-reward","196","490675","0.0-196.0","p698081","A19TD2J8506A4Y","3WPCIUYH1BELQU8EB2L3QVOOKYBTD4","345LHZDEDZY5VZJ08KA272J3VBMU3I","model","match","uniform","","","","","","","","492155.10000000056","494166.2999999998","","","","","","","","","","","","10","","stimuli/stars_10.png","381","","","","","stimuli/HF09_AO.jpg","",""
"explore-choice","197","492641","0.0-197.0","p698081","A19TD2J8506A4Y","3WPCIUYH1BELQU8EB2L3QVOOKYBTD4","345LHZDEDZY5VZJ08KA272J3VBMU3I","model","match","uniform","","","","","","","1458.4000000003725","494168.7000000002","495627.10000000056","[""stimuli/WF14_DO.jpg"",""stimuli/HM09_HE.jpg"",""stimuli/BF08_AO.jpg"",""stimuli/HF09_CC.jpg""]","stimuli/WF14_DO.jpg","stimuli/HM09_HE.jpg","stimuli/BF08_AO.jpg","stimuli/HF09_CC.jpg","pos4","stimuli/HF09_CC.jpg","CC","HF09","3","4.5","9","8","stimuli/stars_9.png","385.5","[""DO"",""HE"",""AO"",""CC""]","[""WF14"",""HM09"",""BF08"",""HF09""]","[7,2,0,9]","[6,4,2,8]","","",""
"show-reward","198","494649","0.0-198.0","p698081","A19TD2J8506A4Y","3WPCIUYH1BELQU8EB2L3QVOOKYBTD4","345LHZDEDZY5VZJ08KA272J3VBMU3I","model","match","uniform","","","","","","","","496135.2999999998","498140.89999999944","","","","","","","","","","","","9","","stimuli/stars_9.png","385.5","","","","","stimuli/HF09_CC.jpg","",""
"instructions","199","501007","0.0-199.0","p698081","A19TD2J8506A4Y","3WPCIUYH1BELQU8EB2L3QVOOKYBTD4","345LHZDEDZY5VZJ08KA272J3VBMU3I","model","match","uniform","","","","","","[{""page_index"":0,""viewing_time"":6355.89999999851}]","6356.39999999851","","","","","","","","","","","","","","","","","","","","","","","",""
"survey-text","200","508186","0.0-200.0-0.0","p698081","A19TD2J8506A4Y","3WPCIUYH1BELQU8EB2L3QVOOKYBTD4","345LHZDEDZY5VZJ08KA272J3VBMU3I","model","match","uniform","","","","","","","7167.89999999851","","","","","","","","","","","","","","","","","","","","","","","{""age"":""46""}",""
"survey-text","201","511825","0.0-200.0-1.0","p698081","A19TD2J8506A4Y","3WPCIUYH1BELQU8EB2L3QVOOKYBTD4","345LHZDEDZY5VZJ08KA272J3VBMU3I","model","match","uniform","","","","","","","3629.699999999255","","","","","","","","","","","","","","","","","","","","","","","{""gender"":""Male""}",""
"survey-text","202","516762","0.0-200.0-2.0","p698081","A19TD2J8506A4Y","3WPCIUYH1BELQU8EB2L3QVOOKYBTD4","345LHZDEDZY5VZJ08KA272J3VBMU3I","model","match","uniform","","","","","","","4927.300000000745","","","","","","","","","","","","","","","","","","","","","","","{""country"":""United States""}",""
"survey-text","203","525721","0.0-200.0-3.0","p698081","A19TD2J8506A4Y","3WPCIUYH1BELQU8EB2L3QVOOKYBTD4","345LHZDEDZY5VZJ08KA272J3VBMU3I","model","match","uniform","","","","","","","8951.199999999255","","","","","","","","","","","","","","","","","","","","","","","{""language"":""English"",""other_languages"":""""}",""
"survey-multi-select","204","530393","0.0-201.0","p698081","A19TD2J8506A4Y","3WPCIUYH1BELQU8EB2L3QVOOKYBTD4","345LHZDEDZY5VZJ08KA272J3VBMU3I","model","match","uniform","","","","","","","4664.300000000745","","","","","","","","","","","","","","","","","","","","","","","{""race"":[""White""]}","[0]"
"survey-multi-choice","205","535124","0.0-202.0","p698081","A19TD2J8506A4Y","3WPCIUYH1BELQU8EB2L3QVOOKYBTD4","345LHZDEDZY5VZJ08KA272J3VBMU3I","model","match","uniform","","","","","","","4721.5","","","","","","","","","","","","","","","","","","","","","","","{""education"":""Some college/ university""}","[0]"
"survey-text","206","590572","0.0-203.0","p698081","A19TD2J8506A4Y","3WPCIUYH1BELQU8EB2L3QVOOKYBTD4","345LHZDEDZY5VZJ08KA272J3VBMU3I","model","match","uniform","","","","","","","55429.20000000112","","","","","","","","","","","","","","","","","","","","","","","{""patterns"":""The same person always had a fairly large number of stars"",""strategy"":""I chose the individual that had the most stars on the 1st time clicking through the pictures."",""comments"":""Thought it went well""}",""
