"trial_type","trial_index","time_elapsed","internal_node_id","subject","workerId","hitId","assignmentId","structure_condition","match_condition","noise_type","success","timeout","failed_images","failed_audio","failed_video","view_history","rt","start_time","end_time","stimuli","image1","image2","image3","image4","choiceLocation","choiceImage","choiceEmotion","choiceModel","choice_index","reward_score","reward","reward_score_unadjusted","reward_image","score_after_trial","emotions","models","rewards","rewards_unadjusted","stimulus","response","question_order"
"pavlovia","0","6","0.0-0.0","p977692","A5P12YJP805RG","3WRBLBQ2GSENM5LEFQY1C5PG0GV0GC","354GIDR5ZDCTYL8NRQEZGXXPCAZ00R","model","mismatch","uniform","","","","","","","","","","","","","","","","","","","","","","","","","","","","","","",""
"preload","1","26041","0.0-1.0","p977692","A5P12YJP805RG","3WRBLBQ2GSENM5LEFQY1C5PG0GV0GC","354GIDR5ZDCTYL8NRQEZGXXPCAZ00R","model","mismatch","uniform","true","false","[]","[]","[]","","","","","","","","","","","","","","","","","","","","","","","","","",""
"fullscreen","2","29450","0.0-2.0","p977692","A5P12YJP805RG","3WRBLBQ2GSENM5LEFQY1C5PG0GV0GC","354GIDR5ZDCTYL8NRQEZGXXPCAZ00R","model","mismatch","uniform","true","","","","","","","","","","","","","","","","","","","","","","","","","","","","","",""
"instructions","3","32702","0.0-3.0","p977692","A5P12YJP805RG","3WRBLBQ2GSENM5LEFQY1C5PG0GV0GC","354GIDR5ZDCTYL8NRQEZGXXPCAZ00R","model","mismatch","uniform","","","","","","[{""page_index"":0,""viewing_time"":3251.600000023842}]","3251.800000011921","","","","","","","","","","","","","","","","","","","","","","","",""
"explore-choice","4","34882","0.0-4.0","p977692","A5P12YJP805RG","3WRBLBQ2GSENM5LEFQY1C5PG0GV0GC","354GIDR5ZDCTYL8NRQEZGXXPCAZ00R","model","mismatch","uniform","","","","","","","1672.199999988079","34011.80000001192","35684","[""stimuli/sheep.jpg"",""stimuli/hammer.jpg"",""stimuli/basketball.jpg"",""stimuli/horse.jpg""]","stimuli/sheep.jpg","stimuli/hammer.jpg","stimuli/basketball.jpg","stimuli/horse.jpg","pos4","stimuli/horse.jpg","","","3","64","64","64","stimuli/stars_8.png","65","","","","","","",""
"explore-choice","5","36426","0.0-5.0","p977692","A5P12YJP805RG","3WRBLBQ2GSENM5LEFQY1C5PG0GV0GC","354GIDR5ZDCTYL8NRQEZGXXPCAZ00R","model","mismatch","uniform","","","","","","","1029.4000000357628","36191.30000001192","37220.700000047684","[""stimuli/hammer.jpg"",""stimuli/basketball.jpg"",""stimuli/horse.jpg"",""stimuli/sheep.jpg""]","stimuli/hammer.jpg","stimuli/basketball.jpg","stimuli/horse.jpg","stimuli/sheep.jpg","pos1","stimuli/hammer.jpg","","","0","8","8","8","stimuli/stars_2.png","9","","","","","","",""
"instructions","6","50873","0.0-6.0","p977692","A5P12YJP805RG","3WRBLBQ2GSENM5LEFQY1C5PG0GV0GC","354GIDR5ZDCTYL8NRQEZGXXPCAZ00R","model","mismatch","uniform","","","","","","[{""page_index"":0,""viewing_time"":14447.100000023842}]","14447.199999988079","","","","","","","","","","","","","","","","","","","","","","","",""
"explore-choice","7","52783","0.0-7.0","p977692","A5P12YJP805RG","3WRBLBQ2GSENM5LEFQY1C5PG0GV0GC","354GIDR5ZDCTYL8NRQEZGXXPCAZ00R","model","mismatch","uniform","","","","","","","1399.5","52183.30000001192","53582.80000001192","[""stimuli/AM03_CC.jpg"",""stimuli/HF10_DO.jpg"",""stimuli/BM03_AO.jpg"",""stimuli/BF06_FO.jpg""]","stimuli/AM03_CC.jpg","stimuli/HF10_DO.jpg","stimuli/BM03_AO.jpg","stimuli/BF06_FO.jpg","pos1","stimuli/AM03_CC.jpg","CC","AM03","0","4","8","6","stimuli/stars_8.png","5","[""CC"",""DO"",""AO"",""FO""]","[""AM03"",""HF10"",""BM03"",""BF06""]","[8,0,8,5]","[6,2,8,4]","","",""
"show-reward","8","54786","0.0-8.0","p977692","A5P12YJP805RG","3WRBLBQ2GSENM5LEFQY1C5PG0GV0GC","354GIDR5ZDCTYL8NRQEZGXXPCAZ00R","model","mismatch","uniform","","","","","","","","54093.80000001192","56095.40000003576","","","","","","","","","","","","8","","stimuli/stars_8.png","5","","","","","stimuli/AM03_CC.jpg","",""
"explore-choice","9","56260","0.0-9.0","p977692","A5P12YJP805RG","3WRBLBQ2GSENM5LEFQY1C5PG0GV0GC","354GIDR5ZDCTYL8NRQEZGXXPCAZ00R","model","mismatch","uniform","","","","","","","958.5","56096.30000001192","57054.80000001192","[""stimuli/BF06_DO.jpg"",""stimuli/AM03_FO.jpg"",""stimuli/BM03_AO.jpg"",""stimuli/HF10_CC.jpg""]","stimuli/BF06_DO.jpg","stimuli/AM03_FO.jpg","stimuli/BM03_AO.jpg","stimuli/HF10_CC.jpg","pos2","stimuli/AM03_FO.jpg","FO","AM03","1","4","8","6","stimuli/stars_8.png","9","[""DO"",""FO"",""AO"",""CC""]","[""BF06"",""AM03"",""BM03"",""HF10""]","[6,8,6,1]","[4,6,8,2]","","",""
"show-reward","10","58269","0.0-10.0","p977692","A5P12YJP805RG","3WRBLBQ2GSENM5LEFQY1C5PG0GV0GC","354GIDR5ZDCTYL8NRQEZGXXPCAZ00R","model","mismatch","uniform","","","","","","","","57569.90000003576","59577.90000003576","","","","","","","","","","","","8","","stimuli/stars_8.png","9","","","","","stimuli/AM03_FO.jpg","",""
"explore-choice","11","59680","0.0-11.0","p977692","A5P12YJP805RG","3WRBLBQ2GSENM5LEFQY1C5PG0GV0GC","354GIDR5ZDCTYL8NRQEZGXXPCAZ00R","model","mismatch","uniform","","","","","","","909.3000000119209","59578.60000002384","60487.90000003576","[""stimuli/BF06_FO.jpg"",""stimuli/AM03_CC.jpg"",""stimuli/HF10_AO.jpg"",""stimuli/BM03_DO.jpg""]","stimuli/BF06_FO.jpg","stimuli/AM03_CC.jpg","stimuli/HF10_AO.jpg","stimuli/BM03_DO.jpg","pos3","stimuli/HF10_AO.jpg","AO","HF10","2","0","0","2","stimuli/stars_0.png","9","[""FO"",""CC"",""AO"",""DO""]","[""BF06"",""AM03"",""HF10"",""BM03""]","[5,4,0,6]","[4,6,2,8]","","",""
"show-reward","12","61681","0.0-12.0","p977692","A5P12YJP805RG","3WRBLBQ2GSENM5LEFQY1C5PG0GV0GC","354GIDR5ZDCTYL8NRQEZGXXPCAZ00R","model","mismatch","uniform","","","","","","","","60989.700000047684","62990.40000003576","","","","","","","","","","","","0","","stimuli/stars_0.png","9","","","","","stimuli/HF10_AO.jpg","",""
"explore-choice","13","63854","0.0-13.0","p977692","A5P12YJP805RG","3WRBLBQ2GSENM5LEFQY1C5PG0GV0GC","354GIDR5ZDCTYL8NRQEZGXXPCAZ00R","model","mismatch","uniform","","","","","","","1664.7999999523163","62991.200000047684","64656","[""stimuli/BF06_AO.jpg"",""stimuli/AM03_CC.jpg"",""stimuli/BM03_DO.jpg"",""stimuli/HF10_FO.jpg""]","stimuli/BF06_AO.jpg","stimuli/AM03_CC.jpg","stimuli/BM03_DO.jpg","stimuli/HF10_FO.jpg","pos2","stimuli/AM03_CC.jpg","CC","AM03","1","3","6","6","stimuli/stars_6.png","12","[""AO"",""CC"",""DO"",""FO""]","[""BF06"",""AM03"",""BM03"",""HF10""]","[6,6,10,4]","[4,6,8,2]","","",""
"show-reward","14","65860","0.0-14.0","p977692","A5P12YJP805RG","3WRBLBQ2GSENM5LEFQY1C5PG0GV0GC","354GIDR5ZDCTYL8NRQEZGXXPCAZ00R","model","mismatch","uniform","","","","","","","","65163.90000003576","67169.5","","","","","","","","","","","","6","","stimuli/stars_6.png","12","","","","","stimuli/AM03_CC.jpg","",""
"explore-choice","15","67196","0.0-15.0","p977692","A5P12YJP805RG","3WRBLBQ2GSENM5LEFQY1C5PG0GV0GC","354GIDR5ZDCTYL8NRQEZGXXPCAZ00R","model","mismatch","uniform","","","","","","","822.2999999523163","67170.20000004768","67992.5","[""stimuli/BM03_CC.jpg"",""stimuli/AM03_AO.jpg"",""stimuli/BF06_FO.jpg"",""stimuli/HF10_DO.jpg""]","stimuli/BM03_CC.jpg","stimuli/AM03_AO.jpg","stimuli/BF06_FO.jpg","stimuli/HF10_DO.jpg","pos1","stimuli/BM03_CC.jpg","CC","BM03","0","3.5","7","8","stimuli/stars_7.png","15.5","[""CC"",""AO"",""FO"",""DO""]","[""BM03"",""AM03"",""BF06"",""HF10""]","[7,8,5,0]","[8,6,4,2]","","",""
"show-reward","16","69205","0.0-16.0","p977692","A5P12YJP805RG","3WRBLBQ2GSENM5LEFQY1C5PG0GV0GC","354GIDR5ZDCTYL8NRQEZGXXPCAZ00R","model","mismatch","uniform","","","","","","","","68505.80000001192","70514.70000004768","","","","","","","","","","","","7","","stimuli/stars_7.png","15.5","","","","","stimuli/BM03_CC.jpg","",""
"explore-choice","17","71143","0.0-17.0","p977692","A5P12YJP805RG","3WRBLBQ2GSENM5LEFQY1C5PG0GV0GC","354GIDR5ZDCTYL8NRQEZGXXPCAZ00R","model","mismatch","uniform","","","","","","","1430","70515.20000004768","71945.20000004768","[""stimuli/BF06_DO.jpg"",""stimuli/AM03_CC.jpg"",""stimuli/BM03_FO.jpg"",""stimuli/HF10_AO.jpg""]","stimuli/BF06_DO.jpg","stimuli/AM03_CC.jpg","stimuli/BM03_FO.jpg","stimuli/HF10_AO.jpg","pos3","stimuli/BM03_FO.jpg","FO","BM03","2","4","8","8","stimuli/stars_8.png","19.5","[""DO"",""CC"",""FO"",""AO""]","[""BF06"",""AM03"",""BM03"",""HF10""]","[5,7,8,4]","[4,6,8,2]","","",""
"show-reward","18","73152","0.0-18.0","p977692","A5P12YJP805RG","3WRBLBQ2GSENM5LEFQY1C5PG0GV0GC","354GIDR5ZDCTYL8NRQEZGXXPCAZ00R","model","mismatch","uniform","","","","","","","","72452.90000003576","74461.60000002384","","","","","","","","","","","","8","","stimuli/stars_8.png","19.5","","","","","stimuli/BM03_FO.jpg","",""
"explore-choice","19","75004","0.0-19.0","p977692","A5P12YJP805RG","3WRBLBQ2GSENM5LEFQY1C5PG0GV0GC","354GIDR5ZDCTYL8NRQEZGXXPCAZ00R","model","mismatch","uniform","","","","","","","1347.300000011921","74462.30000001192","75809.60000002384","[""stimuli/BM03_FO.jpg"",""stimuli/AM03_DO.jpg"",""stimuli/BF06_AO.jpg"",""stimuli/HF10_CC.jpg""]","stimuli/BM03_FO.jpg","stimuli/AM03_DO.jpg","stimuli/BF06_AO.jpg","stimuli/HF10_CC.jpg","pos3","stimuli/BF06_AO.jpg","AO","BF06","2","2.5","5","4","stimuli/stars_5.png","22","[""FO"",""DO"",""AO"",""CC""]","[""BM03"",""AM03"",""BF06"",""HF10""]","[10,5,5,0]","[8,6,4,2]","","",""
"show-reward","20","77014","0.0-20.0","p977692","A5P12YJP805RG","3WRBLBQ2GSENM5LEFQY1C5PG0GV0GC","354GIDR5ZDCTYL8NRQEZGXXPCAZ00R","model","mismatch","uniform","","","","","","","","76313.40000003576","78323.40000003576","","","","","","","","","","","","5","","stimuli/stars_5.png","22","","","","","stimuli/BF06_AO.jpg","",""
"explore-choice","21","78598","0.0-21.0","p977692","A5P12YJP805RG","3WRBLBQ2GSENM5LEFQY1C5PG0GV0GC","354GIDR5ZDCTYL8NRQEZGXXPCAZ00R","model","mismatch","uniform","","","","","","","1070.800000011921","78323.90000003576","79394.70000004768","[""stimuli/HF10_CC.jpg"",""stimuli/BF06_DO.jpg"",""stimuli/BM03_FO.jpg"",""stimuli/AM03_AO.jpg""]","stimuli/HF10_CC.jpg","stimuli/BF06_DO.jpg","stimuli/BM03_FO.jpg","stimuli/AM03_AO.jpg","pos2","stimuli/BF06_DO.jpg","DO","BF06","1","3","6","4","stimuli/stars_6.png","25","[""CC"",""DO"",""FO"",""AO""]","[""HF10"",""BF06"",""BM03"",""AM03""]","[3,6,8,6]","[2,4,8,6]","","",""
"show-reward","22","80599","0.0-22.0","p977692","A5P12YJP805RG","3WRBLBQ2GSENM5LEFQY1C5PG0GV0GC","354GIDR5ZDCTYL8NRQEZGXXPCAZ00R","model","mismatch","uniform","","","","","","","","79907.90000003576","81908.70000004768","","","","","","","","","","","","6","","stimuli/stars_6.png","25","","","","","stimuli/BF06_DO.jpg","",""
"explore-choice","23","82131","0.0-23.0","p977692","A5P12YJP805RG","3WRBLBQ2GSENM5LEFQY1C5PG0GV0GC","354GIDR5ZDCTYL8NRQEZGXXPCAZ00R","model","mismatch","uniform","","","","","","","1029.7999999523163","81909.20000004768","82939","[""stimuli/BF06_DO.jpg"",""stimuli/BM03_CC.jpg"",""stimuli/AM03_AO.jpg"",""stimuli/HF10_FO.jpg""]","stimuli/BF06_DO.jpg","stimuli/BM03_CC.jpg","stimuli/AM03_AO.jpg","stimuli/HF10_FO.jpg","pos3","stimuli/AM03_AO.jpg","AO","AM03","2","2","4","6","stimuli/stars_4.png","27","[""DO"",""CC"",""AO"",""FO""]","[""BF06"",""BM03"",""AM03"",""HF10""]","[6,6,4,3]","[4,8,6,2]","","",""
"show-reward","24","84141","0.0-24.0","p977692","A5P12YJP805RG","3WRBLBQ2GSENM5LEFQY1C5PG0GV0GC","354GIDR5ZDCTYL8NRQEZGXXPCAZ00R","model","mismatch","uniform","","","","","","","","83440.40000003576","85450.5","","","","","","","","","","","","4","","stimuli/stars_4.png","27","","","","","stimuli/AM03_AO.jpg","",""
"explore-choice","25","85839","0.0-25.0","p977692","A5P12YJP805RG","3WRBLBQ2GSENM5LEFQY1C5PG0GV0GC","354GIDR5ZDCTYL8NRQEZGXXPCAZ00R","model","mismatch","uniform","","","","","","","1192.6000000238419","85451","86643.60000002384","[""stimuli/AM03_DO.jpg"",""stimuli/BM03_CC.jpg"",""stimuli/BF06_AO.jpg"",""stimuli/HF10_FO.jpg""]","stimuli/AM03_DO.jpg","stimuli/BM03_CC.jpg","stimuli/BF06_AO.jpg","stimuli/HF10_FO.jpg","pos1","stimuli/AM03_DO.jpg","DO","AM03","0","3.5","7","6","stimuli/stars_7.png","30.5","[""DO"",""CC"",""AO"",""FO""]","[""AM03"",""BM03"",""BF06"",""HF10""]","[7,8,2,4]","[6,8,4,2]","","",""
"show-reward","26","87848","0.0-26.0","p977692","A5P12YJP805RG","3WRBLBQ2GSENM5LEFQY1C5PG0GV0GC","354GIDR5ZDCTYL8NRQEZGXXPCAZ00R","model","mismatch","uniform","","","","","","","","87148.40000003576","89157.10000002384","","","","","","","","","","","","7","","stimuli/stars_7.png","30.5","","","","","stimuli/AM03_DO.jpg","",""
"explore-choice","27","89049","0.0-27.0","p977692","A5P12YJP805RG","3WRBLBQ2GSENM5LEFQY1C5PG0GV0GC","354GIDR5ZDCTYL8NRQEZGXXPCAZ00R","model","mismatch","uniform","","","","","","","685.8000000119209","89157.90000003576","89843.70000004768","[""stimuli/AM03_FO.jpg"",""stimuli/HF10_CC.jpg"",""stimuli/BM03_DO.jpg"",""stimuli/BF06_AO.jpg""]","stimuli/AM03_FO.jpg","stimuli/HF10_CC.jpg","stimuli/BM03_DO.jpg","stimuli/BF06_AO.jpg","pos1","stimuli/AM03_FO.jpg","FO","AM03","0","2","4","6","stimuli/stars_4.png","32.5","[""FO"",""CC"",""DO"",""AO""]","[""AM03"",""HF10"",""BM03"",""BF06""]","[4,0,10,3]","[6,2,8,4]","","",""
"show-reward","28","91059","0.0-28.0","p977692","A5P12YJP805RG","3WRBLBQ2GSENM5LEFQY1C5PG0GV0GC","354GIDR5ZDCTYL8NRQEZGXXPCAZ00R","model","mismatch","uniform","","","","","","","","90359.20000004768","92368.80000001192","","","","","","","","","","","","4","","stimuli/stars_4.png","32.5","","","","","stimuli/AM03_FO.jpg","",""
"explore-choice","29","92470","0.0-29.0","p977692","A5P12YJP805RG","3WRBLBQ2GSENM5LEFQY1C5PG0GV0GC","354GIDR5ZDCTYL8NRQEZGXXPCAZ00R","model","mismatch","uniform","","","","","","","906.6999999880791","92369.40000003576","93276.10000002384","[""stimuli/BF06_CC.jpg"",""stimuli/AM03_DO.jpg"",""stimuli/HF10_AO.jpg"",""stimuli/BM03_FO.jpg""]","stimuli/BF06_CC.jpg","stimuli/AM03_DO.jpg","stimuli/HF10_AO.jpg","stimuli/BM03_FO.jpg","pos2","stimuli/AM03_DO.jpg","DO","AM03","1","3","6","6","stimuli/stars_6.png","35.5","[""CC"",""DO"",""AO"",""FO""]","[""BF06"",""AM03"",""HF10"",""BM03""]","[6,6,3,10]","[4,6,2,8]","","",""
"show-reward","30","94472","0.0-30.0","p977692","A5P12YJP805RG","3WRBLBQ2GSENM5LEFQY1C5PG0GV0GC","354GIDR5ZDCTYL8NRQEZGXXPCAZ00R","model","mismatch","uniform","","","","","","","","93779.70000004768","95781.20000004768","","","","","","","","","","","","6","","stimuli/stars_6.png","35.5","","","","","stimuli/AM03_DO.jpg","",""
"explore-choice","31","95938","0.0-31.0","p977692","A5P12YJP805RG","3WRBLBQ2GSENM5LEFQY1C5PG0GV0GC","354GIDR5ZDCTYL8NRQEZGXXPCAZ00R","model","mismatch","uniform","","","","","","","950.6999999880791","95781.80000001192","96732.5","[""stimuli/BM03_AO.jpg"",""stimuli/BF06_CC.jpg"",""stimuli/HF10_FO.jpg"",""stimuli/AM03_DO.jpg""]","stimuli/BM03_AO.jpg","stimuli/BF06_CC.jpg","stimuli/HF10_FO.jpg","stimuli/AM03_DO.jpg","pos1","stimuli/BM03_AO.jpg","AO","BM03","0","3","6","8","stimuli/stars_6.png","38.5","[""AO"",""CC"",""FO"",""DO""]","[""BM03"",""BF06"",""HF10"",""AM03""]","[6,2,3,7]","[8,4,2,6]","","",""
"show-reward","32","97944","0.0-32.0","p977692","A5P12YJP805RG","3WRBLBQ2GSENM5LEFQY1C5PG0GV0GC","354GIDR5ZDCTYL8NRQEZGXXPCAZ00R","model","mismatch","uniform","","","","","","","","97247.40000003576","99253.20000004768","","","","","","","","","","","","6","","stimuli/stars_6.png","38.5","","","","","stimuli/BM03_AO.jpg","",""
"explore-choice","33","99285","0.0-33.0","p977692","A5P12YJP805RG","3WRBLBQ2GSENM5LEFQY1C5PG0GV0GC","354GIDR5ZDCTYL8NRQEZGXXPCAZ00R","model","mismatch","uniform","","","","","","","840.0999999642372","99253.70000004768","100093.80000001192","[""stimuli/BF06_FO.jpg"",""stimuli/HF10_AO.jpg"",""stimuli/BM03_CC.jpg"",""stimuli/AM03_DO.jpg""]","stimuli/BF06_FO.jpg","stimuli/HF10_AO.jpg","stimuli/BM03_CC.jpg","stimuli/AM03_DO.jpg","pos3","stimuli/BM03_CC.jpg","CC","BM03","2","3","6","8","stimuli/stars_6.png","41.5","[""FO"",""AO"",""CC"",""DO""]","[""BF06"",""HF10"",""BM03"",""AM03""]","[2,4,6,4]","[4,2,8,6]","","",""
"show-reward","34","101290","0.0-34.0","p977692","A5P12YJP805RG","3WRBLBQ2GSENM5LEFQY1C5PG0GV0GC","354GIDR5ZDCTYL8NRQEZGXXPCAZ00R","model","mismatch","uniform","","","","","","","","100594.90000003576","102599.20000004768","","","","","","","","","","","","6","","stimuli/stars_6.png","41.5","","","","","stimuli/BM03_CC.jpg","",""
"explore-choice","35","102739","0.0-35.0","p977692","A5P12YJP805RG","3WRBLBQ2GSENM5LEFQY1C5PG0GV0GC","354GIDR5ZDCTYL8NRQEZGXXPCAZ00R","model","mismatch","uniform","","","","","","","942.5999999642372","102599.70000004768","103542.30000001192","[""stimuli/HF10_AO.jpg"",""stimuli/BF06_CC.jpg"",""stimuli/AM03_FO.jpg"",""stimuli/BM03_DO.jpg""]","stimuli/HF10_AO.jpg","stimuli/BF06_CC.jpg","stimuli/AM03_FO.jpg","stimuli/BM03_DO.jpg","pos4","stimuli/BM03_DO.jpg","DO","BM03","3","5","10","8","stimuli/stars_10.png","46.5","[""AO"",""CC"",""FO"",""DO""]","[""HF10"",""BF06"",""AM03"",""BM03""]","[2,6,8,10]","[2,4,6,8]","","",""
"show-reward","36","104740","0.0-36.0","p977692","A5P12YJP805RG","3WRBLBQ2GSENM5LEFQY1C5PG0GV0GC","354GIDR5ZDCTYL8NRQEZGXXPCAZ00R","model","mismatch","uniform","","","","","","","","104048.60000002384","106049.60000002384","","","","","","","","","","","","10","","stimuli/stars_10.png","46.5","","","","","stimuli/BM03_DO.jpg","",""
"explore-choice","37","105945","0.0-37.0","p977692","A5P12YJP805RG","3WRBLBQ2GSENM5LEFQY1C5PG0GV0GC","354GIDR5ZDCTYL8NRQEZGXXPCAZ00R","model","mismatch","uniform","","","","","","","692.5","106050","106742.5","[""stimuli/BF06_CC.jpg"",""stimuli/AM03_AO.jpg"",""stimuli/HF10_FO.jpg"",""stimuli/BM03_DO.jpg""]","stimuli/BF06_CC.jpg","stimuli/AM03_AO.jpg","stimuli/HF10_FO.jpg","stimuli/BM03_DO.jpg","pos4","stimuli/BM03_DO.jpg","DO","BM03","3","5","10","8","stimuli/stars_10.png","51.5","[""CC"",""AO"",""FO"",""DO""]","[""BF06"",""AM03"",""HF10"",""BM03""]","[6,5,0,10]","[4,6,2,8]","","",""
"show-reward","38","107959","0.0-38.0","p977692","A5P12YJP805RG","3WRBLBQ2GSENM5LEFQY1C5PG0GV0GC","354GIDR5ZDCTYL8NRQEZGXXPCAZ00R","model","mismatch","uniform","","","","","","","","107255.20000004768","109267.70000004768","","","","","","","","","","","","10","","stimuli/stars_10.png","51.5","","","","","stimuli/BM03_DO.jpg","",""
"explore-choice","39","109662","0.0-39.0","p977692","A5P12YJP805RG","3WRBLBQ2GSENM5LEFQY1C5PG0GV0GC","354GIDR5ZDCTYL8NRQEZGXXPCAZ00R","model","mismatch","uniform","","","","","","","1194.800000011921","109268.5","110463.30000001192","[""stimuli/BF06_AO.jpg"",""stimuli/BM03_FO.jpg"",""stimuli/HF10_DO.jpg"",""stimuli/AM03_CC.jpg""]","stimuli/BF06_AO.jpg","stimuli/BM03_FO.jpg","stimuli/HF10_DO.jpg","stimuli/AM03_CC.jpg","pos2","stimuli/BM03_FO.jpg","FO","BM03","1","3","6","8","stimuli/stars_6.png","54.5","[""AO"",""FO"",""DO"",""CC""]","[""BF06"",""BM03"",""HF10"",""AM03""]","[4,6,4,8]","[4,8,2,6]","","",""
"show-reward","40","111671","0.0-40.0","p977692","A5P12YJP805RG","3WRBLBQ2GSENM5LEFQY1C5PG0GV0GC","354GIDR5ZDCTYL8NRQEZGXXPCAZ00R","model","mismatch","uniform","","","","","","","","110971.40000003576","112980.10000002384","","","","","","","","","","","","6","","stimuli/stars_6.png","54.5","","","","","stimuli/BM03_FO.jpg","",""
"explore-choice","41","113007","0.0-41.0","p977692","A5P12YJP805RG","3WRBLBQ2GSENM5LEFQY1C5PG0GV0GC","354GIDR5ZDCTYL8NRQEZGXXPCAZ00R","model","mismatch","uniform","","","","","","","834.6000000238419","112980.60000002384","113815.20000004768","[""stimuli/HF10_CC.jpg"",""stimuli/BM03_DO.jpg"",""stimuli/AM03_AO.jpg"",""stimuli/BF06_FO.jpg""]","stimuli/HF10_CC.jpg","stimuli/BM03_DO.jpg","stimuli/AM03_AO.jpg","stimuli/BF06_FO.jpg","pos2","stimuli/BM03_DO.jpg","DO","BM03","1","4","8","8","stimuli/stars_8.png","58.5","[""CC"",""DO"",""AO"",""FO""]","[""HF10"",""BM03"",""AM03"",""BF06""]","[0,8,4,2]","[2,8,6,4]","","",""
"show-reward","42","115018","0.0-42.0","p977692","A5P12YJP805RG","3WRBLBQ2GSENM5LEFQY1C5PG0GV0GC","354GIDR5ZDCTYL8NRQEZGXXPCAZ00R","model","mismatch","uniform","","","","","","","","114316.20000004768","116326.5","","","","","","","","","","","","8","","stimuli/stars_8.png","58.5","","","","","stimuli/BM03_DO.jpg","",""
"explore-choice","43","116168","0.0-43.0","p977692","A5P12YJP805RG","3WRBLBQ2GSENM5LEFQY1C5PG0GV0GC","354GIDR5ZDCTYL8NRQEZGXXPCAZ00R","model","mismatch","uniform","","","","","","","641.2000000476837","116327","116968.20000004768","[""stimuli/AM03_CC.jpg"",""stimuli/BM03_AO.jpg"",""stimuli/BF06_DO.jpg"",""stimuli/HF10_FO.jpg""]","stimuli/AM03_CC.jpg","stimuli/BM03_AO.jpg","stimuli/BF06_DO.jpg","stimuli/HF10_FO.jpg","pos2","stimuli/BM03_AO.jpg","AO","BM03","1","4","8","8","stimuli/stars_8.png","62.5","[""CC"",""AO"",""DO"",""FO""]","[""AM03"",""BM03"",""BF06"",""HF10""]","[8,8,4,0]","[6,8,4,2]","","",""
"show-reward","44","118180","0.0-44.0","p977692","A5P12YJP805RG","3WRBLBQ2GSENM5LEFQY1C5PG0GV0GC","354GIDR5ZDCTYL8NRQEZGXXPCAZ00R","model","mismatch","uniform","","","","","","","","117477.30000001192","119489","","","","","","","","","","","","8","","stimuli/stars_8.png","62.5","","","","","stimuli/BM03_AO.jpg","",""
"explore-choice","45","119545","0.0-45.0","p977692","A5P12YJP805RG","3WRBLBQ2GSENM5LEFQY1C5PG0GV0GC","354GIDR5ZDCTYL8NRQEZGXXPCAZ00R","model","mismatch","uniform","","","","","","","863","119489.5","120352.5","[""stimuli/AM03_FO.jpg"",""stimuli/HF10_DO.jpg"",""stimuli/BM03_CC.jpg"",""stimuli/BF06_AO.jpg""]","stimuli/AM03_FO.jpg","stimuli/HF10_DO.jpg","stimuli/BM03_CC.jpg","stimuli/BF06_AO.jpg","pos3","stimuli/BM03_CC.jpg","CC","BM03","2","4","8","8","stimuli/stars_8.png","66.5","[""FO"",""DO"",""CC"",""AO""]","[""AM03"",""HF10"",""BM03"",""BF06""]","[7,2,8,6]","[6,2,8,4]","","",""
"show-reward","46","121547","0.0-46.0","p977692","A5P12YJP805RG","3WRBLBQ2GSENM5LEFQY1C5PG0GV0GC","354GIDR5ZDCTYL8NRQEZGXXPCAZ00R","model","mismatch","uniform","","","","","","","","120854.60000002384","122855.40000003576","","","","","","","","","","","","8","","stimuli/stars_8.png","66.5","","","","","stimuli/BM03_CC.jpg","",""
"explore-choice","47","122888","0.0-47.0","p977692","A5P12YJP805RG","3WRBLBQ2GSENM5LEFQY1C5PG0GV0GC","354GIDR5ZDCTYL8NRQEZGXXPCAZ00R","model","mismatch","uniform","","","","","","","841","122855.70000004768","123696.70000004768","[""stimuli/HF10_DO.jpg"",""stimuli/BF06_CC.jpg"",""stimuli/AM03_FO.jpg"",""stimuli/BM03_AO.jpg""]","stimuli/HF10_DO.jpg","stimuli/BF06_CC.jpg","stimuli/AM03_FO.jpg","stimuli/BM03_AO.jpg","pos1","stimuli/HF10_DO.jpg","DO","HF10","0","2","4","2","stimuli/stars_4.png","68.5","[""DO"",""CC"",""FO"",""AO""]","[""HF10"",""BF06"",""AM03"",""BM03""]","[4,5,6,6]","[2,4,6,8]","","",""
"show-reward","48","124900","0.0-48.0","p977692","A5P12YJP805RG","3WRBLBQ2GSENM5LEFQY1C5PG0GV0GC","354GIDR5ZDCTYL8NRQEZGXXPCAZ00R","model","mismatch","uniform","","","","","","","","124197.30000001192","126209.20000004768","","","","","","","","","","","","4","","stimuli/stars_4.png","68.5","","","","","stimuli/HF10_DO.jpg","",""
"explore-choice","49","126177","0.0-49.0","p977692","A5P12YJP805RG","3WRBLBQ2GSENM5LEFQY1C5PG0GV0GC","354GIDR5ZDCTYL8NRQEZGXXPCAZ00R","model","mismatch","uniform","","","","","","","767.8999999761581","126209.70000004768","126977.60000002384","[""stimuli/HF10_AO.jpg"",""stimuli/BM03_CC.jpg"",""stimuli/BF06_DO.jpg"",""stimuli/AM03_FO.jpg""]","stimuli/HF10_AO.jpg","stimuli/BM03_CC.jpg","stimuli/BF06_DO.jpg","stimuli/AM03_FO.jpg","pos1","stimuli/HF10_AO.jpg","AO","HF10","0","0.5","1","2","stimuli/stars_1.png","69","[""AO"",""CC"",""DO"",""FO""]","[""HF10"",""BM03"",""BF06"",""AM03""]","[1,10,4,4]","[2,8,4,6]","","",""
"show-reward","50","128188","0.0-50.0","p977692","A5P12YJP805RG","3WRBLBQ2GSENM5LEFQY1C5PG0GV0GC","354GIDR5ZDCTYL8NRQEZGXXPCAZ00R","model","mismatch","uniform","","","","","","","","127485.90000003576","129496.30000001192","","","","","","","","","","","","1","","stimuli/stars_1.png","69","","","","","stimuli/HF10_AO.jpg","",""
"explore-choice","51","130050","0.0-51.0","p977692","A5P12YJP805RG","3WRBLBQ2GSENM5LEFQY1C5PG0GV0GC","354GIDR5ZDCTYL8NRQEZGXXPCAZ00R","model","mismatch","uniform","","","","","","","1352.5","129497.20000004768","130849.70000004768","[""stimuli/BM03_AO.jpg"",""stimuli/AM03_DO.jpg"",""stimuli/BF06_FO.jpg"",""stimuli/HF10_CC.jpg""]","stimuli/BM03_AO.jpg","stimuli/AM03_DO.jpg","stimuli/BF06_FO.jpg","stimuli/HF10_CC.jpg","pos3","stimuli/BF06_FO.jpg","FO","BF06","2","3","6","4","stimuli/stars_6.png","72","[""AO"",""DO"",""FO"",""CC""]","[""BM03"",""AM03"",""BF06"",""HF10""]","[7,5,6,0]","[8,6,4,2]","","",""
"show-reward","52","132059","0.0-52.0","p977692","A5P12YJP805RG","3WRBLBQ2GSENM5LEFQY1C5PG0GV0GC","354GIDR5ZDCTYL8NRQEZGXXPCAZ00R","model","mismatch","uniform","","","","","","","","131359.40000003576","133368","","","","","","","","","","","","6","","stimuli/stars_6.png","72","","","","","stimuli/BF06_FO.jpg","",""
"explore-choice","53","133587","0.0-53.0","p977692","A5P12YJP805RG","3WRBLBQ2GSENM5LEFQY1C5PG0GV0GC","354GIDR5ZDCTYL8NRQEZGXXPCAZ00R","model","mismatch","uniform","","","","","","","1025.7999999523163","133368.70000004768","134394.5","[""stimuli/BF06_CC.jpg"",""stimuli/BM03_FO.jpg"",""stimuli/HF10_DO.jpg"",""stimuli/AM03_AO.jpg""]","stimuli/BF06_CC.jpg","stimuli/BM03_FO.jpg","stimuli/HF10_DO.jpg","stimuli/AM03_AO.jpg","pos1","stimuli/BF06_CC.jpg","CC","BF06","0","1.5","3","4","stimuli/stars_3.png","73.5","[""CC"",""FO"",""DO"",""AO""]","[""BF06"",""BM03"",""HF10"",""AM03""]","[3,6,2,5]","[4,8,2,6]","","",""
"show-reward","54","135588","0.0-54.0","p977692","A5P12YJP805RG","3WRBLBQ2GSENM5LEFQY1C5PG0GV0GC","354GIDR5ZDCTYL8NRQEZGXXPCAZ00R","model","mismatch","uniform","","","","","","","","134895.80000001192","136896.80000001192","","","","","","","","","","","","3","","stimuli/stars_3.png","73.5","","","","","stimuli/BF06_CC.jpg","",""
"explore-choice","55","137322","0.0-55.0","p977692","A5P12YJP805RG","3WRBLBQ2GSENM5LEFQY1C5PG0GV0GC","354GIDR5ZDCTYL8NRQEZGXXPCAZ00R","model","mismatch","uniform","","","","","","","1225.5999999642372","136897.20000004768","138122.80000001192","[""stimuli/BM03_AO.jpg"",""stimuli/BF06_FO.jpg"",""stimuli/HF10_DO.jpg"",""stimuli/AM03_CC.jpg""]","stimuli/BM03_AO.jpg","stimuli/BF06_FO.jpg","stimuli/HF10_DO.jpg","stimuli/AM03_CC.jpg","pos1","stimuli/BM03_AO.jpg","AO","BM03","0","4","8","8","stimuli/stars_8.png","77.5","[""AO"",""FO"",""DO"",""CC""]","[""BM03"",""BF06"",""HF10"",""AM03""]","[8,5,0,8]","[8,4,2,6]","","",""
"show-reward","56","139335","0.0-56.0","p977692","A5P12YJP805RG","3WRBLBQ2GSENM5LEFQY1C5PG0GV0GC","354GIDR5ZDCTYL8NRQEZGXXPCAZ00R","model","mismatch","uniform","","","","","","","","138631.40000003576","140643.20000004768","","","","","","","","","","","","8","","stimuli/stars_8.png","77.5","","","","","stimuli/BM03_AO.jpg","",""
"explore-choice","57","140833","0.0-57.0","p977692","A5P12YJP805RG","3WRBLBQ2GSENM5LEFQY1C5PG0GV0GC","354GIDR5ZDCTYL8NRQEZGXXPCAZ00R","model","mismatch","uniform","","","","","","","991.8999999761581","140643.70000004768","141635.60000002384","[""stimuli/HF10_FO.jpg"",""stimuli/BF06_DO.jpg"",""stimuli/AM03_CC.jpg"",""stimuli/BM03_AO.jpg""]","stimuli/HF10_FO.jpg","stimuli/BF06_DO.jpg","stimuli/AM03_CC.jpg","stimuli/BM03_AO.jpg","pos4","stimuli/BM03_AO.jpg","AO","BM03","3","4","8","8","stimuli/stars_8.png","81.5","[""FO"",""DO"",""CC"",""AO""]","[""HF10"",""BF06"",""AM03"",""BM03""]","[0,4,8,8]","[2,4,6,8]","","",""
"show-reward","58","142836","0.0-58.0","p977692","A5P12YJP805RG","3WRBLBQ2GSENM5LEFQY1C5PG0GV0GC","354GIDR5ZDCTYL8NRQEZGXXPCAZ00R","model","mismatch","uniform","","","","","","","","142142","144144.30000001192","","","","","","","","","","","","8","","stimuli/stars_8.png","81.5","","","","","stimuli/BM03_AO.jpg","",""
"explore-choice","59","144179","0.0-59.0","p977692","A5P12YJP805RG","3WRBLBQ2GSENM5LEFQY1C5PG0GV0GC","354GIDR5ZDCTYL8NRQEZGXXPCAZ00R","model","mismatch","uniform","","","","","","","842.8000000119209","144144.80000001192","144987.60000002384","[""stimuli/AM03_AO.jpg"",""stimuli/BF06_CC.jpg"",""stimuli/HF10_FO.jpg"",""stimuli/BM03_DO.jpg""]","stimuli/AM03_AO.jpg","stimuli/BF06_CC.jpg","stimuli/HF10_FO.jpg","stimuli/BM03_DO.jpg","pos4","stimuli/BM03_DO.jpg","DO","BM03","3","5","10","8","stimuli/stars_10.png","86.5","[""AO"",""CC"",""FO"",""DO""]","[""AM03"",""BF06"",""HF10"",""BM03""]","[5,6,0,10]","[6,4,2,8]","","",""
"show-reward","60","146195","0.0-60.0","p977692","A5P12YJP805RG","3WRBLBQ2GSENM5LEFQY1C5PG0GV0GC","354GIDR5ZDCTYL8NRQEZGXXPCAZ00R","model","mismatch","uniform","","","","","","","","145488.60000002384","147503.70000004768","","","","","","","","","","","","10","","stimuli/stars_10.png","86.5","","","","","stimuli/BM03_DO.jpg","",""
"explore-choice","61","147461","0.0-61.0","p977692","A5P12YJP805RG","3WRBLBQ2GSENM5LEFQY1C5PG0GV0GC","354GIDR5ZDCTYL8NRQEZGXXPCAZ00R","model","mismatch","uniform","","","","","","","764.0999999642372","147504.20000004768","148268.30000001192","[""stimuli/BM03_AO.jpg"",""stimuli/BF06_FO.jpg"",""stimuli/AM03_DO.jpg"",""stimuli/HF10_CC.jpg""]","stimuli/BM03_AO.jpg","stimuli/BF06_FO.jpg","stimuli/AM03_DO.jpg","stimuli/HF10_CC.jpg","pos1","stimuli/BM03_AO.jpg","AO","BM03","0","3.5","7","8","stimuli/stars_7.png","90","[""AO"",""FO"",""DO"",""CC""]","[""BM03"",""BF06"",""AM03"",""HF10""]","[7,6,5,0]","[8,4,6,2]","","",""
"show-reward","62","149471","0.0-62.0","p977692","A5P12YJP805RG","3WRBLBQ2GSENM5LEFQY1C5PG0GV0GC","354GIDR5ZDCTYL8NRQEZGXXPCAZ00R","model","mismatch","uniform","","","","","","","","148770.20000004768","150780.10000002384","","","","","","","","","","","","7","","stimuli/stars_7.png","90","","","","","stimuli/BM03_AO.jpg","",""
"explore-choice","63","151309","0.0-63.0","p977692","A5P12YJP805RG","3WRBLBQ2GSENM5LEFQY1C5PG0GV0GC","354GIDR5ZDCTYL8NRQEZGXXPCAZ00R","model","mismatch","uniform","","","","","","","1335.800000011921","150781","152116.80000001192","[""stimuli/HF10_CC.jpg"",""stimuli/BM03_DO.jpg"",""stimuli/AM03_FO.jpg"",""stimuli/BF06_AO.jpg""]","stimuli/HF10_CC.jpg","stimuli/BM03_DO.jpg","stimuli/AM03_FO.jpg","stimuli/BF06_AO.jpg","pos2","stimuli/BM03_DO.jpg","DO","BM03","1","5","10","8","stimuli/stars_10.png","95","[""CC"",""DO"",""FO"",""AO""]","[""HF10"",""BM03"",""AM03"",""BF06""]","[0,10,4,3]","[2,8,6,4]","","",""
"show-reward","64","153322","0.0-64.0","p977692","A5P12YJP805RG","3WRBLBQ2GSENM5LEFQY1C5PG0GV0GC","354GIDR5ZDCTYL8NRQEZGXXPCAZ00R","model","mismatch","uniform","","","","","","","","152618.30000001192","154630.80000001192","","","","","","","","","","","","10","","stimuli/stars_10.png","95","","","","","stimuli/BM03_DO.jpg","",""
"explore-choice","65","154501","0.0-65.0","p977692","A5P12YJP805RG","3WRBLBQ2GSENM5LEFQY1C5PG0GV0GC","354GIDR5ZDCTYL8NRQEZGXXPCAZ00R","model","mismatch","uniform","","","","","","","677.9000000357628","154631.30000001192","155309.20000004768","[""stimuli/HF10_AO.jpg"",""stimuli/BF06_CC.jpg"",""stimuli/AM03_DO.jpg"",""stimuli/BM03_FO.jpg""]","stimuli/HF10_AO.jpg","stimuli/BF06_CC.jpg","stimuli/AM03_DO.jpg","stimuli/BM03_FO.jpg","pos4","stimuli/BM03_FO.jpg","FO","BM03","3","5","10","8","stimuli/stars_10.png","100","[""AO"",""CC"",""DO"",""FO""]","[""HF10"",""BF06"",""AM03"",""BM03""]","[3,6,6,10]","[2,4,6,8]","","",""
"show-reward","66","156510","0.0-66.0","p977692","A5P12YJP805RG","3WRBLBQ2GSENM5LEFQY1C5PG0GV0GC","354GIDR5ZDCTYL8NRQEZGXXPCAZ00R","model","mismatch","uniform","","","","","","","","155810.40000003576","157819.10000002384","","","","","","","","","","","","10","","stimuli/stars_10.png","100","","","","","stimuli/BM03_FO.jpg","",""
"explore-choice","67","157783","0.0-67.0","p977692","A5P12YJP805RG","3WRBLBQ2GSENM5LEFQY1C5PG0GV0GC","354GIDR5ZDCTYL8NRQEZGXXPCAZ00R","model","mismatch","uniform","","","","","","","762","157819.60000002384","158581.60000002384","[""stimuli/BM03_CC.jpg"",""stimuli/BF06_DO.jpg"",""stimuli/HF10_AO.jpg"",""stimuli/AM03_FO.jpg""]","stimuli/BM03_CC.jpg","stimuli/BF06_DO.jpg","stimuli/HF10_AO.jpg","stimuli/AM03_FO.jpg","pos1","stimuli/BM03_CC.jpg","CC","BM03","0","5","10","8","stimuli/stars_10.png","105","[""CC"",""DO"",""AO"",""FO""]","[""BM03"",""BF06"",""HF10"",""AM03""]","[10,4,1,4]","[8,4,2,6]","","",""
"show-reward","68","159792","0.0-68.0","p977692","A5P12YJP805RG","3WRBLBQ2GSENM5LEFQY1C5PG0GV0GC","354GIDR5ZDCTYL8NRQEZGXXPCAZ00R","model","mismatch","uniform","","","","","","","","159091.80000001192","161100.5","","","","","","","","","","","","10","","stimuli/stars_10.png","105","","","","","stimuli/BM03_CC.jpg","",""
"explore-choice","69","161209","0.0-69.0","p977692","A5P12YJP805RG","3WRBLBQ2GSENM5LEFQY1C5PG0GV0GC","354GIDR5ZDCTYL8NRQEZGXXPCAZ00R","model","mismatch","uniform","","","","","","","913.2000000476837","161101","162014.20000004768","[""stimuli/BF06_CC.jpg"",""stimuli/BM03_AO.jpg"",""stimuli/AM03_FO.jpg"",""stimuli/HF10_DO.jpg""]","stimuli/BF06_CC.jpg","stimuli/BM03_AO.jpg","stimuli/AM03_FO.jpg","stimuli/HF10_DO.jpg","pos2","stimuli/BM03_AO.jpg","AO","BM03","1","3","6","8","stimuli/stars_6.png","108","[""CC"",""AO"",""FO"",""DO""]","[""BF06"",""BM03"",""AM03"",""HF10""]","[5,6,6,4]","[4,8,6,2]","","",""
"show-reward","70","163210","0.0-70.0","p977692","A5P12YJP805RG","3WRBLBQ2GSENM5LEFQY1C5PG0GV0GC","354GIDR5ZDCTYL8NRQEZGXXPCAZ00R","model","mismatch","uniform","","","","","","","","162517.70000004768","164518.60000002384","","","","","","","","","","","","6","","stimuli/stars_6.png","108","","","","","stimuli/BM03_AO.jpg","",""
"explore-choice","71","164548","0.0-71.0","p977692","A5P12YJP805RG","3WRBLBQ2GSENM5LEFQY1C5PG0GV0GC","354GIDR5ZDCTYL8NRQEZGXXPCAZ00R","model","mismatch","uniform","","","","","","","823.6000000238419","164519.10000002384","165342.70000004768","[""stimuli/AM03_CC.jpg"",""stimuli/HF10_AO.jpg"",""stimuli/BF06_FO.jpg"",""stimuli/BM03_DO.jpg""]","stimuli/AM03_CC.jpg","stimuli/HF10_AO.jpg","stimuli/BF06_FO.jpg","stimuli/BM03_DO.jpg","pos4","stimuli/BM03_DO.jpg","DO","BM03","3","3","6","8","stimuli/stars_6.png","111","[""CC"",""AO"",""FO"",""DO""]","[""AM03"",""HF10"",""BF06"",""BM03""]","[4,0,5,6]","[6,2,4,8]","","",""
"show-reward","72","166556","0.0-72.0","p977692","A5P12YJP805RG","3WRBLBQ2GSENM5LEFQY1C5PG0GV0GC","354GIDR5ZDCTYL8NRQEZGXXPCAZ00R","model","mismatch","uniform","","","","","","","","165856.90000003576","167865.20000004768","","","","","","","","","","","","6","","stimuli/stars_6.png","111","","","","","stimuli/BM03_DO.jpg","",""
"explore-choice","73","167901","0.0-73.0","p977692","A5P12YJP805RG","3WRBLBQ2GSENM5LEFQY1C5PG0GV0GC","354GIDR5ZDCTYL8NRQEZGXXPCAZ00R","model","mismatch","uniform","","","","","","","829.2999999523163","167865.70000004768","168695","[""stimuli/AM03_FO.jpg"",""stimuli/BF06_DO.jpg"",""stimuli/BM03_AO.jpg"",""stimuli/HF10_CC.jpg""]","stimuli/AM03_FO.jpg","stimuli/BF06_DO.jpg","stimuli/BM03_AO.jpg","stimuli/HF10_CC.jpg","pos3","stimuli/BM03_AO.jpg","AO","BM03","2","3","6","8","stimuli/stars_6.png","114","[""FO"",""DO"",""AO"",""CC""]","[""AM03"",""BF06"",""BM03"",""HF10""]","[8,6,6,1]","[6,4,8,2]","","",""
"show-reward","74","169902","0.0-74.0","p977692","A5P12YJP805RG","3WRBLBQ2GSENM5LEFQY1C5PG0GV0GC","354GIDR5ZDCTYL8NRQEZGXXPCAZ00R","model","mismatch","uniform","","","","","","","","169210.20000004768","171211.80000001192","","","","","","","","","","","","6","","stimuli/stars_6.png","114","","","","","stimuli/BM03_AO.jpg","",""
"explore-choice","75","171066","0.0-75.0","p977692","A5P12YJP805RG","3WRBLBQ2GSENM5LEFQY1C5PG0GV0GC","354GIDR5ZDCTYL8NRQEZGXXPCAZ00R","model","mismatch","uniform","","","","","","","659.1999999880791","171212.40000003576","171871.60000002384","[""stimuli/AM03_AO.jpg"",""stimuli/HF10_FO.jpg"",""stimuli/BM03_CC.jpg"",""stimuli/BF06_DO.jpg""]","stimuli/AM03_AO.jpg","stimuli/HF10_FO.jpg","stimuli/BM03_CC.jpg","stimuli/BF06_DO.jpg","pos1","stimuli/AM03_AO.jpg","AO","AM03","0","2","4","6","stimuli/stars_4.png","116","[""AO"",""FO"",""CC"",""DO""]","[""AM03"",""HF10"",""BM03"",""BF06""]","[4,3,6,6]","[6,2,8,4]","","",""
"show-reward","76","173072","0.0-76.0","p977692","A5P12YJP805RG","3WRBLBQ2GSENM5LEFQY1C5PG0GV0GC","354GIDR5ZDCTYL8NRQEZGXXPCAZ00R","model","mismatch","uniform","","","","","","","","172376.10000002384","174380.90000003576","","","","","","","","","","","","4","","stimuli/stars_4.png","116","","","","","stimuli/AM03_AO.jpg","",""
"explore-choice","77","174329","0.0-77.0","p977692","A5P12YJP805RG","3WRBLBQ2GSENM5LEFQY1C5PG0GV0GC","354GIDR5ZDCTYL8NRQEZGXXPCAZ00R","model","mismatch","uniform","","","","","","","754.8000000119209","174381.5","175136.30000001192","[""stimuli/AM03_DO.jpg"",""stimuli/BF06_CC.jpg"",""stimuli/HF10_FO.jpg"",""stimuli/BM03_AO.jpg""]","stimuli/AM03_DO.jpg","stimuli/BF06_CC.jpg","stimuli/HF10_FO.jpg","stimuli/BM03_AO.jpg","pos3","stimuli/HF10_FO.jpg","FO","HF10","2","1.5","3","2","stimuli/stars_3.png","117.5","[""DO"",""CC"",""FO"",""AO""]","[""AM03"",""BF06"",""HF10"",""BM03""]","[7,2,3,6]","[6,4,2,8]","","",""
"show-reward","78","176341","0.0-78.0","p977692","A5P12YJP805RG","3WRBLBQ2GSENM5LEFQY1C5PG0GV0GC","354GIDR5ZDCTYL8NRQEZGXXPCAZ00R","model","mismatch","uniform","","","","","","","","175638.90000003576","177650","","","","","","","","","","","","3","","stimuli/stars_3.png","117.5","","","","","stimuli/HF10_FO.jpg","",""
"explore-choice","79","178345","0.0-79.0","p977692","A5P12YJP805RG","3WRBLBQ2GSENM5LEFQY1C5PG0GV0GC","354GIDR5ZDCTYL8NRQEZGXXPCAZ00R","model","mismatch","uniform","","","","","","","1502.2000000476837","177650.5","179152.70000004768","[""stimuli/BM03_DO.jpg"",""stimuli/HF10_FO.jpg"",""stimuli/AM03_CC.jpg"",""stimuli/BF06_AO.jpg""]","stimuli/BM03_DO.jpg","stimuli/HF10_FO.jpg","stimuli/AM03_CC.jpg","stimuli/BF06_AO.jpg","pos4","stimuli/BF06_AO.jpg","AO","BF06","3","3","6","4","stimuli/stars_6.png","120.5","[""DO"",""FO"",""CC"",""AO""]","[""BM03"",""HF10"",""AM03"",""BF06""]","[10,4,6,6]","[8,2,6,4]","","",""
"show-reward","80","180349","0.0-80.0","p977692","A5P12YJP805RG","3WRBLBQ2GSENM5LEFQY1C5PG0GV0GC","354GIDR5ZDCTYL8NRQEZGXXPCAZ00R","model","mismatch","uniform","","","","","","","","179654.5","181658.80000001192","","","","","","","","","","","","6","","stimuli/stars_6.png","120.5","","","","","stimuli/BF06_AO.jpg","",""
"explore-choice","81","181456","0.0-81.0","p977692","A5P12YJP805RG","3WRBLBQ2GSENM5LEFQY1C5PG0GV0GC","354GIDR5ZDCTYL8NRQEZGXXPCAZ00R","model","mismatch","uniform","","","","","","","598.3999999761581","181659.40000003576","182257.80000001192","[""stimuli/HF10_CC.jpg"",""stimuli/AM03_DO.jpg"",""stimuli/BM03_FO.jpg"",""stimuli/BF06_AO.jpg""]","stimuli/HF10_CC.jpg","stimuli/AM03_DO.jpg","stimuli/BM03_FO.jpg","stimuli/BF06_AO.jpg","pos4","stimuli/BF06_AO.jpg","AO","BF06","3","2.5","5","4","stimuli/stars_5.png","123","[""CC"",""DO"",""FO"",""AO""]","[""HF10"",""AM03"",""BM03"",""BF06""]","[0,5,10,5]","[2,6,8,4]","","",""
"show-reward","82","183471","0.0-82.0","p977692","A5P12YJP805RG","3WRBLBQ2GSENM5LEFQY1C5PG0GV0GC","354GIDR5ZDCTYL8NRQEZGXXPCAZ00R","model","mismatch","uniform","","","","","","","","182765.70000004768","184780.5","","","","","","","","","","","","5","","stimuli/stars_5.png","123","","","","","stimuli/BF06_AO.jpg","",""
"explore-choice","83","185415","0.0-83.0","p977692","A5P12YJP805RG","3WRBLBQ2GSENM5LEFQY1C5PG0GV0GC","354GIDR5ZDCTYL8NRQEZGXXPCAZ00R","model","mismatch","uniform","","","","","","","1429.199999988079","184781.10000002384","186210.30000001192","[""stimuli/HF10_DO.jpg"",""stimuli/AM03_FO.jpg"",""stimuli/BM03_CC.jpg"",""stimuli/BF06_AO.jpg""]","stimuli/HF10_DO.jpg","stimuli/AM03_FO.jpg","stimuli/BM03_CC.jpg","stimuli/BF06_AO.jpg","pos3","stimuli/BM03_CC.jpg","CC","BM03","2","4","8","8","stimuli/stars_8.png","127","[""DO"",""FO"",""CC"",""AO""]","[""HF10"",""AM03"",""BM03"",""BF06""]","[2,7,8,6]","[2,6,8,4]","","",""
"show-reward","84","187423","0.0-84.0","p977692","A5P12YJP805RG","3WRBLBQ2GSENM5LEFQY1C5PG0GV0GC","354GIDR5ZDCTYL8NRQEZGXXPCAZ00R","model","mismatch","uniform","","","","","","","","186724.5","188732.20000004768","","","","","","","","","","","","8","","stimuli/stars_8.png","127","","","","","stimuli/BM03_CC.jpg","",""
"explore-choice","85","188347","0.0-85.0","p977692","A5P12YJP805RG","3WRBLBQ2GSENM5LEFQY1C5PG0GV0GC","354GIDR5ZDCTYL8NRQEZGXXPCAZ00R","model","mismatch","uniform","","","","","","","421.30000001192093","188732.90000003576","189154.20000004768","[""stimuli/HF10_AO.jpg"",""stimuli/BF06_FO.jpg"",""stimuli/BM03_CC.jpg"",""stimuli/AM03_DO.jpg""]","stimuli/HF10_AO.jpg","stimuli/BF06_FO.jpg","stimuli/BM03_CC.jpg","stimuli/AM03_DO.jpg","pos3","stimuli/BM03_CC.jpg","CC","BM03","2","3","6","8","stimuli/stars_6.png","130","[""AO"",""FO"",""CC"",""DO""]","[""HF10"",""BF06"",""BM03"",""AM03""]","[4,2,6,4]","[2,4,8,6]","","",""
"show-reward","86","190357","0.0-86.0","p977692","A5P12YJP805RG","3WRBLBQ2GSENM5LEFQY1C5PG0GV0GC","354GIDR5ZDCTYL8NRQEZGXXPCAZ00R","model","mismatch","uniform","","","","","","","","189657.30000001192","191666.20000004768","","","","","","","","","","","","6","","stimuli/stars_6.png","130","","","","","stimuli/BM03_CC.jpg","",""
"explore-choice","87","191748","0.0-87.0","p977692","A5P12YJP805RG","3WRBLBQ2GSENM5LEFQY1C5PG0GV0GC","354GIDR5ZDCTYL8NRQEZGXXPCAZ00R","model","mismatch","uniform","","","","","","","888.1000000238419","191666.60000002384","192554.70000004768","[""stimuli/BF06_FO.jpg"",""stimuli/BM03_DO.jpg"",""stimuli/AM03_AO.jpg"",""stimuli/HF10_CC.jpg""]","stimuli/BF06_FO.jpg","stimuli/BM03_DO.jpg","stimuli/AM03_AO.jpg","stimuli/HF10_CC.jpg","pos2","stimuli/BM03_DO.jpg","DO","BM03","1","4","8","8","stimuli/stars_8.png","134","[""FO"",""DO"",""AO"",""CC""]","[""BF06"",""BM03"",""AM03"",""HF10""]","[2,8,4,0]","[4,8,6,2]","","",""
"show-reward","88","193760","0.0-88.0","p977692","A5P12YJP805RG","3WRBLBQ2GSENM5LEFQY1C5PG0GV0GC","354GIDR5ZDCTYL8NRQEZGXXPCAZ00R","model","mismatch","uniform","","","","","","","","193057.60000002384","195069.20000004768","","","","","","","","","","","","8","","stimuli/stars_8.png","134","","","","","stimuli/BM03_DO.jpg","",""
"explore-choice","89","195372","0.0-89.0","p977692","A5P12YJP805RG","3WRBLBQ2GSENM5LEFQY1C5PG0GV0GC","354GIDR5ZDCTYL8NRQEZGXXPCAZ00R","model","mismatch","uniform","","","","","","","1101.5","195069.70000004768","196171.20000004768","[""stimuli/BM03_CC.jpg"",""stimuli/BF06_FO.jpg"",""stimuli/HF10_DO.jpg"",""stimuli/AM03_AO.jpg""]","stimuli/BM03_CC.jpg","stimuli/BF06_FO.jpg","stimuli/HF10_DO.jpg","stimuli/AM03_AO.jpg","pos1","stimuli/BM03_CC.jpg","CC","BM03","0","3.5","7","8","stimuli/stars_7.png","137.5","[""CC"",""FO"",""DO"",""AO""]","[""BM03"",""BF06"",""HF10"",""AM03""]","[7,5,0,8]","[8,4,2,6]","","",""
"show-reward","90","197386","0.0-90.0","p977692","A5P12YJP805RG","3WRBLBQ2GSENM5LEFQY1C5PG0GV0GC","354GIDR5ZDCTYL8NRQEZGXXPCAZ00R","model","mismatch","uniform","","","","","","","","196682.20000004768","198695.70000004768","","","","","","","","","","","","7","","stimuli/stars_7.png","137.5","","","","","stimuli/BM03_CC.jpg","",""
"explore-choice","91","198475","0.0-91.0","p977692","A5P12YJP805RG","3WRBLBQ2GSENM5LEFQY1C5PG0GV0GC","354GIDR5ZDCTYL8NRQEZGXXPCAZ00R","model","mismatch","uniform","","","","","","","579.2999999523163","198696.20000004768","199275.5","[""stimuli/BM03_DO.jpg"",""stimuli/HF10_AO.jpg"",""stimuli/BF06_CC.jpg"",""stimuli/AM03_FO.jpg""]","stimuli/BM03_DO.jpg","stimuli/HF10_AO.jpg","stimuli/BF06_CC.jpg","stimuli/AM03_FO.jpg","pos1","stimuli/BM03_DO.jpg","DO","BM03","0","5","10","8","stimuli/stars_10.png","142.5","[""DO"",""AO"",""CC"",""FO""]","[""BM03"",""HF10"",""BF06"",""AM03""]","[10,2,6,8]","[8,2,4,6]","","",""
"show-reward","92","200482","0.0-92.0","p977692","A5P12YJP805RG","3WRBLBQ2GSENM5LEFQY1C5PG0GV0GC","354GIDR5ZDCTYL8NRQEZGXXPCAZ00R","model","mismatch","uniform","","","","","","","","199784.70000004768","201791.30000001192","","","","","","","","","","","","10","","stimuli/stars_10.png","142.5","","","","","stimuli/BM03_DO.jpg","",""
"explore-choice","93","201635","0.0-93.0","p977692","A5P12YJP805RG","3WRBLBQ2GSENM5LEFQY1C5PG0GV0GC","354GIDR5ZDCTYL8NRQEZGXXPCAZ00R","model","mismatch","uniform","","","","","","","636.6999999880791","201791.70000004768","202428.40000003576","[""stimuli/BM03_FO.jpg"",""stimuli/AM03_CC.jpg"",""stimuli/BF06_DO.jpg"",""stimuli/HF10_AO.jpg""]","stimuli/BM03_FO.jpg","stimuli/AM03_CC.jpg","stimuli/BF06_DO.jpg","stimuli/HF10_AO.jpg","pos1","stimuli/BM03_FO.jpg","FO","BM03","0","4","8","8","stimuli/stars_8.png","146.5","[""FO"",""CC"",""DO"",""AO""]","[""BM03"",""AM03"",""BF06"",""HF10""]","[8,7,5,4]","[8,6,4,2]","","",""
"show-reward","94","203643","0.0-94.0","p977692","A5P12YJP805RG","3WRBLBQ2GSENM5LEFQY1C5PG0GV0GC","354GIDR5ZDCTYL8NRQEZGXXPCAZ00R","model","mismatch","uniform","","","","","","","","202945.10000002384","204952.40000003576","","","","","","","","","","","","8","","stimuli/stars_8.png","146.5","","","","","stimuli/BM03_FO.jpg","",""
"explore-choice","95","204796","0.0-95.0","p977692","A5P12YJP805RG","3WRBLBQ2GSENM5LEFQY1C5PG0GV0GC","354GIDR5ZDCTYL8NRQEZGXXPCAZ00R","model","mismatch","uniform","","","","","","","644.3000000119209","204952.80000001192","205597.10000002384","[""stimuli/BM03_CC.jpg"",""stimuli/HF10_FO.jpg"",""stimuli/BF06_AO.jpg"",""stimuli/AM03_DO.jpg""]","stimuli/BM03_CC.jpg","stimuli/HF10_FO.jpg","stimuli/BF06_AO.jpg","stimuli/AM03_DO.jpg","pos1","stimuli/BM03_CC.jpg","CC","BM03","0","4","8","8","stimuli/stars_8.png","150.5","[""CC"",""FO"",""AO"",""DO""]","[""BM03"",""HF10"",""BF06"",""AM03""]","[8,4,2,7]","[8,2,4,6]","","",""
"show-reward","96","206807","0.0-96.0","p977692","A5P12YJP805RG","3WRBLBQ2GSENM5LEFQY1C5PG0GV0GC","354GIDR5ZDCTYL8NRQEZGXXPCAZ00R","model","mismatch","uniform","","","","","","","","206105.90000003576","208116.10000002384","","","","","","","","","","","","8","","stimuli/stars_8.png","150.5","","","","","stimuli/BM03_CC.jpg","",""
"explore-choice","97","208205","0.0-97.0","p977692","A5P12YJP805RG","3WRBLBQ2GSENM5LEFQY1C5PG0GV0GC","354GIDR5ZDCTYL8NRQEZGXXPCAZ00R","model","mismatch","uniform","","","","","","","896.6999999880791","208116.80000001192","209013.5","[""stimuli/HF10_CC.jpg"",""stimuli/BF06_DO.jpg"",""stimuli/BM03_FO.jpg"",""stimuli/AM03_AO.jpg""]","stimuli/HF10_CC.jpg","stimuli/BF06_DO.jpg","stimuli/BM03_FO.jpg","stimuli/AM03_AO.jpg","pos3","stimuli/BM03_FO.jpg","FO","BM03","2","4","8","8","stimuli/stars_8.png","154.5","[""CC"",""DO"",""FO"",""AO""]","[""HF10"",""BF06"",""BM03"",""AM03""]","[3,6,8,6]","[2,4,8,6]","","",""
"show-reward","98","210213","0.0-98.0","p977692","A5P12YJP805RG","3WRBLBQ2GSENM5LEFQY1C5PG0GV0GC","354GIDR5ZDCTYL8NRQEZGXXPCAZ00R","model","mismatch","uniform","","","","","","","","209515.30000001192","211522.80000001192","","","","","","","","","","","","8","","stimuli/stars_8.png","154.5","","","","","stimuli/BM03_FO.jpg","",""
"explore-choice","99","211644","0.0-99.0","p977692","A5P12YJP805RG","3WRBLBQ2GSENM5LEFQY1C5PG0GV0GC","354GIDR5ZDCTYL8NRQEZGXXPCAZ00R","model","mismatch","uniform","","","","","","","923.1000000238419","211523.30000001192","212446.40000003576","[""stimuli/BF06_CC.jpg"",""stimuli/BM03_FO.jpg"",""stimuli/AM03_AO.jpg"",""stimuli/HF10_DO.jpg""]","stimuli/BF06_CC.jpg","stimuli/BM03_FO.jpg","stimuli/AM03_AO.jpg","stimuli/HF10_DO.jpg","pos2","stimuli/BM03_FO.jpg","FO","BM03","1","3","6","8","stimuli/stars_6.png","157.5","[""CC"",""FO"",""AO"",""DO""]","[""BF06"",""BM03"",""AM03"",""HF10""]","[3,6,5,2]","[4,8,6,2]","","",""
"show-reward","100","213645","0.0-100.0","p977692","A5P12YJP805RG","3WRBLBQ2GSENM5LEFQY1C5PG0GV0GC","354GIDR5ZDCTYL8NRQEZGXXPCAZ00R","model","mismatch","uniform","","","","","","","","212953.5","214954.5","","","","","","","","","","","","6","","stimuli/stars_6.png","157.5","","","","","stimuli/BM03_FO.jpg","",""
"explore-choice","101","214728","0.0-101.0","p977692","A5P12YJP805RG","3WRBLBQ2GSENM5LEFQY1C5PG0GV0GC","354GIDR5ZDCTYL8NRQEZGXXPCAZ00R","model","mismatch","uniform","","","","","","","579.2000000476837","214955","215534.20000004768","[""stimuli/AM03_CC.jpg"",""stimuli/BM03_FO.jpg"",""stimuli/HF10_DO.jpg"",""stimuli/BF06_AO.jpg""]","stimuli/AM03_CC.jpg","stimuli/BM03_FO.jpg","stimuli/HF10_DO.jpg","stimuli/BF06_AO.jpg","pos2","stimuli/BM03_FO.jpg","FO","BM03","1","3","6","8","stimuli/stars_6.png","160.5","[""CC"",""FO"",""DO"",""AO""]","[""AM03"",""BM03"",""HF10"",""BF06""]","[8,6,4,4]","[6,8,2,4]","","",""
"show-reward","102","216735","0.0-102.0","p977692","A5P12YJP805RG","3WRBLBQ2GSENM5LEFQY1C5PG0GV0GC","354GIDR5ZDCTYL8NRQEZGXXPCAZ00R","model","mismatch","uniform","","","","","","","","216037.90000003576","218044.80000001192","","","","","","","","","","","","6","","stimuli/stars_6.png","160.5","","","","","stimuli/BM03_FO.jpg","",""
"explore-choice","103","218832","0.0-103.0","p977692","A5P12YJP805RG","3WRBLBQ2GSENM5LEFQY1C5PG0GV0GC","354GIDR5ZDCTYL8NRQEZGXXPCAZ00R","model","mismatch","uniform","","","","","","","1594","218045.30000001192","219639.30000001192","[""stimuli/AM06_SUR.jpg"",""stimuli/AF11_HE.jpg"",""stimuli/HF04_SC.jpg"",""stimuli/BM07_HO.jpg""]","stimuli/AM06_SUR.jpg","stimuli/AF11_HE.jpg","stimuli/HF04_SC.jpg","stimuli/BM07_HO.jpg","pos1","stimuli/AM06_SUR.jpg","SUR","AM06","0","3.5","7","6","stimuli/stars_7.png","164","[""SUR"",""HE"",""SC"",""HO""]","[""AM06"",""AF11"",""HF04"",""BM07""]","[7,8,6,1]","[6,8,4,2]","","",""
"show-reward","104","220836","0.0-104.0","p977692","A5P12YJP805RG","3WRBLBQ2GSENM5LEFQY1C5PG0GV0GC","354GIDR5ZDCTYL8NRQEZGXXPCAZ00R","model","mismatch","uniform","","","","","","","","220141.30000001192","222145.20000004768","","","","","","","","","","","","7","","stimuli/stars_7.png","164","","","","","stimuli/AM06_SUR.jpg","",""
"explore-choice","105","222417","0.0-105.0","p977692","A5P12YJP805RG","3WRBLBQ2GSENM5LEFQY1C5PG0GV0GC","354GIDR5ZDCTYL8NRQEZGXXPCAZ00R","model","mismatch","uniform","","","","","","","1078","222145.70000004768","223223.70000004768","[""stimuli/AF11_HO.jpg"",""stimuli/AM06_SC.jpg"",""stimuli/HF04_HE.jpg"",""stimuli/BM07_SUR.jpg""]","stimuli/AF11_HO.jpg","stimuli/AM06_SC.jpg","stimuli/HF04_HE.jpg","stimuli/BM07_SUR.jpg","pos2","stimuli/AM06_SC.jpg","SC","AM06","1","2","4","4","stimuli/stars_4.png","166","[""HO"",""SC"",""HE"",""SUR""]","[""AF11"",""AM06"",""HF04"",""BM07""]","[3,4,7,6]","[2,4,8,6]","","",""
"show-reward","106","224426","0.0-106.0","p977692","A5P12YJP805RG","3WRBLBQ2GSENM5LEFQY1C5PG0GV0GC","354GIDR5ZDCTYL8NRQEZGXXPCAZ00R","model","mismatch","uniform","","","","","","","","223726.70000004768","225734.90000003576","","","","","","","","","","","","4","","stimuli/stars_4.png","166","","","","","stimuli/AM06_SC.jpg","",""
"explore-choice","107","226081","0.0-107.0","p977692","A5P12YJP805RG","3WRBLBQ2GSENM5LEFQY1C5PG0GV0GC","354GIDR5ZDCTYL8NRQEZGXXPCAZ00R","model","mismatch","uniform","","","","","","","1152.5","225735.40000003576","226887.90000003576","[""stimuli/AM06_SC.jpg"",""stimuli/HF04_HO.jpg"",""stimuli/BM07_HE.jpg"",""stimuli/AF11_SUR.jpg""]","stimuli/AM06_SC.jpg","stimuli/HF04_HO.jpg","stimuli/BM07_HE.jpg","stimuli/AF11_SUR.jpg","pos3","stimuli/BM07_HE.jpg","HE","BM07","2","5","10","8","stimuli/stars_10.png","171","[""SC"",""HO"",""HE"",""SUR""]","[""AM06"",""HF04"",""BM07"",""AF11""]","[2,0,10,7]","[4,2,8,6]","","",""
"show-reward","108","228083","0.0-108.0","p977692","A5P12YJP805RG","3WRBLBQ2GSENM5LEFQY1C5PG0GV0GC","354GIDR5ZDCTYL8NRQEZGXXPCAZ00R","model","mismatch","uniform","","","","","","","","227391.10000002384","229392.80000001192","","","","","","","","","","","","10","","stimuli/stars_10.png","171","","","","","stimuli/BM07_HE.jpg","",""
"explore-choice","109","229366","0.0-109.0","p977692","A5P12YJP805RG","3WRBLBQ2GSENM5LEFQY1C5PG0GV0GC","354GIDR5ZDCTYL8NRQEZGXXPCAZ00R","model","mismatch","uniform","","","","","","","775.3000000119209","229393.30000001192","230168.60000002384","[""stimuli/AM06_HO.jpg"",""stimuli/BM07_SUR.jpg"",""stimuli/HF04_SC.jpg"",""stimuli/AF11_HE.jpg""]","stimuli/AM06_HO.jpg","stimuli/BM07_SUR.jpg","stimuli/HF04_SC.jpg","stimuli/AF11_HE.jpg","pos2","stimuli/BM07_SUR.jpg","SUR","BM07","1","3.5","7","6","stimuli/stars_7.png","174.5","[""HO"",""SUR"",""SC"",""HE""]","[""AM06"",""BM07"",""HF04"",""AF11""]","[3,7,2,7]","[2,6,4,8]","","",""
"show-reward","110","231379","0.0-110.0","p977692","A5P12YJP805RG","3WRBLBQ2GSENM5LEFQY1C5PG0GV0GC","354GIDR5ZDCTYL8NRQEZGXXPCAZ00R","model","mismatch","uniform","","","","","","","","230675.40000003576","232688.60000002384","","","","","","","","","","","","7","","stimuli/stars_7.png","174.5","","","","","stimuli/BM07_SUR.jpg","",""
"explore-choice","111","232471","0.0-111.0","p977692","A5P12YJP805RG","3WRBLBQ2GSENM5LEFQY1C5PG0GV0GC","354GIDR5ZDCTYL8NRQEZGXXPCAZ00R","model","mismatch","uniform","","","","","","","584.3000000119209","232689","233273.30000001192","[""stimuli/AF11_HE.jpg"",""stimuli/BM07_SUR.jpg"",""stimuli/AM06_SC.jpg"",""stimuli/HF04_HO.jpg""]","stimuli/AF11_HE.jpg","stimuli/BM07_SUR.jpg","stimuli/AM06_SC.jpg","stimuli/HF04_HO.jpg","pos2","stimuli/BM07_SUR.jpg","SUR","BM07","1","3.5","7","6","stimuli/stars_7.png","178","[""HE"",""SUR"",""SC"",""HO""]","[""AF11"",""BM07"",""AM06"",""HF04""]","[6,7,6,3]","[8,6,4,2]","","",""
"show-reward","112","234477","0.0-112.0","p977692","A5P12YJP805RG","3WRBLBQ2GSENM5LEFQY1C5PG0GV0GC","354GIDR5ZDCTYL8NRQEZGXXPCAZ00R","model","mismatch","uniform","","","","","","","","233780.70000004768","235786.60000002384","","","","","","","","","","","","7","","stimuli/stars_7.png","178","","","","","stimuli/BM07_SUR.jpg","",""
"explore-choice","113","235724","0.0-113.0","p977692","A5P12YJP805RG","3WRBLBQ2GSENM5LEFQY1C5PG0GV0GC","354GIDR5ZDCTYL8NRQEZGXXPCAZ00R","model","mismatch","uniform","","","","","","","742.8000000119209","235787","236529.80000001192","[""stimuli/AF11_SC.jpg"",""stimuli/HF04_HO.jpg"",""stimuli/AM06_SUR.jpg"",""stimuli/BM07_HE.jpg""]","stimuli/AF11_SC.jpg","stimuli/HF04_HO.jpg","stimuli/AM06_SUR.jpg","stimuli/BM07_HE.jpg","pos4","stimuli/BM07_HE.jpg","HE","BM07","3","3.5","7","8","stimuli/stars_7.png","181.5","[""SC"",""HO"",""SUR"",""HE""]","[""AF11"",""HF04"",""AM06"",""BM07""]","[4,0,8,7]","[4,2,6,8]","","",""
"show-reward","114","237728","0.0-114.0","p977692","A5P12YJP805RG","3WRBLBQ2GSENM5LEFQY1C5PG0GV0GC","354GIDR5ZDCTYL8NRQEZGXXPCAZ00R","model","mismatch","uniform","","","","","","","","237034","239037.40000003576","","","","","","","","","","","","7","","stimuli/stars_7.png","181.5","","","","","stimuli/BM07_HE.jpg","",""
"explore-choice","115","238788","0.0-115.0","p977692","A5P12YJP805RG","3WRBLBQ2GSENM5LEFQY1C5PG0GV0GC","354GIDR5ZDCTYL8NRQEZGXXPCAZ00R","model","mismatch","uniform","","","","","","","547.8000000119209","239037.90000003576","239585.70000004768","[""stimuli/AM06_HE.jpg"",""stimuli/AF11_SC.jpg"",""stimuli/HF04_SUR.jpg"",""stimuli/BM07_HO.jpg""]","stimuli/AM06_HE.jpg","stimuli/AF11_SC.jpg","stimuli/HF04_SUR.jpg","stimuli/BM07_HO.jpg","pos4","stimuli/BM07_HO.jpg","HO","BM07","3","2","4","2","stimuli/stars_4.png","183.5","[""HE"",""SC"",""SUR"",""HO""]","[""AM06"",""AF11"",""HF04"",""BM07""]","[6,3,5,4]","[8,4,6,2]","","",""
"show-reward","116","240797","0.0-116.0","p977692","A5P12YJP805RG","3WRBLBQ2GSENM5LEFQY1C5PG0GV0GC","354GIDR5ZDCTYL8NRQEZGXXPCAZ00R","model","mismatch","uniform","","","","","","","","240097.80000001192","242106.30000001192","","","","","","","","","","","","4","","stimuli/stars_4.png","183.5","","","","","stimuli/BM07_HO.jpg","",""
"explore-choice","117","242213","0.0-117.0","p977692","A5P12YJP805RG","3WRBLBQ2GSENM5LEFQY1C5PG0GV0GC","354GIDR5ZDCTYL8NRQEZGXXPCAZ00R","model","mismatch","uniform","","","","","","","912.1000000238419","242106.80000001192","243018.90000003576","[""stimuli/HF04_SUR.jpg"",""stimuli/AM06_HE.jpg"",""stimuli/BM07_SC.jpg"",""stimuli/AF11_HO.jpg""]","stimuli/HF04_SUR.jpg","stimuli/AM06_HE.jpg","stimuli/BM07_SC.jpg","stimuli/AF11_HO.jpg","pos2","stimuli/AM06_HE.jpg","HE","AM06","1","4.5","9","8","stimuli/stars_9.png","188","[""SUR"",""HE"",""SC"",""HO""]","[""HF04"",""AM06"",""BM07"",""AF11""]","[8,9,3,2]","[6,8,4,2]","","",""
"show-reward","118","244225","0.0-118.0","p977692","A5P12YJP805RG","3WRBLBQ2GSENM5LEFQY1C5PG0GV0GC","354GIDR5ZDCTYL8NRQEZGXXPCAZ00R","model","mismatch","uniform","","","","","","","","243522.30000001192","245533.80000001192","","","","","","","","","","","","9","","stimuli/stars_9.png","188","","","","","stimuli/AM06_HE.jpg","",""
"explore-choice","119","245644","0.0-119.0","p977692","A5P12YJP805RG","3WRBLBQ2GSENM5LEFQY1C5PG0GV0GC","354GIDR5ZDCTYL8NRQEZGXXPCAZ00R","model","mismatch","uniform","","","","","","","908.7999999523163","245534.20000004768","246443","[""stimuli/AM06_SUR.jpg"",""stimuli/AF11_HO.jpg"",""stimuli/BM07_SC.jpg"",""stimuli/HF04_HE.jpg""]","stimuli/AM06_SUR.jpg","stimuli/AF11_HO.jpg","stimuli/BM07_SC.jpg","stimuli/HF04_HE.jpg","pos1","stimuli/AM06_SUR.jpg","SUR","AM06","0","4","8","6","stimuli/stars_8.png","192","[""SUR"",""HO"",""SC"",""HE""]","[""AM06"",""AF11"",""BM07"",""HF04""]","[8,4,3,8]","[6,2,4,8]","","",""
"show-reward","120","247646","0.0-120.0","p977692","A5P12YJP805RG","3WRBLBQ2GSENM5LEFQY1C5PG0GV0GC","354GIDR5ZDCTYL8NRQEZGXXPCAZ00R","model","mismatch","uniform","","","","","","","","246953.5","248955.10000002384","","","","","","","","","","","","8","","stimuli/stars_8.png","192","","","","","stimuli/AM06_SUR.jpg","",""
"explore-choice","121","249121","0.0-121.0","p977692","A5P12YJP805RG","3WRBLBQ2GSENM5LEFQY1C5PG0GV0GC","354GIDR5ZDCTYL8NRQEZGXXPCAZ00R","model","mismatch","uniform","","","","","","","960.5","248955.60000002384","249916.10000002384","[""stimuli/HF04_SC.jpg"",""stimuli/BM07_HE.jpg"",""stimuli/AF11_SUR.jpg"",""stimuli/AM06_HO.jpg""]","stimuli/HF04_SC.jpg","stimuli/BM07_HE.jpg","stimuli/AF11_SUR.jpg","stimuli/AM06_HO.jpg","pos4","stimuli/AM06_HO.jpg","HO","AM06","3","2","4","2","stimuli/stars_4.png","194","[""SC"",""HE"",""SUR"",""HO""]","[""HF04"",""BM07"",""AF11"",""AM06""]","[2,9,6,4]","[4,8,6,2]","","",""
"show-reward","122","251125","0.0-122.0","p977692","A5P12YJP805RG","3WRBLBQ2GSENM5LEFQY1C5PG0GV0GC","354GIDR5ZDCTYL8NRQEZGXXPCAZ00R","model","mismatch","uniform","","","","","","","","250430.60000002384","252434.10000002384","","","","","","","","","","","","4","","stimuli/stars_4.png","194","","","","","stimuli/AM06_HO.jpg","",""
"explore-choice","123","252169","0.0-123.0","p977692","A5P12YJP805RG","3WRBLBQ2GSENM5LEFQY1C5PG0GV0GC","354GIDR5ZDCTYL8NRQEZGXXPCAZ00R","model","mismatch","uniform","","","","","","","537.5","252434.60000002384","252972.10000002384","[""stimuli/AF11_SUR.jpg"",""stimuli/HF04_HE.jpg"",""stimuli/BM07_SC.jpg"",""stimuli/AM06_HO.jpg""]","stimuli/AF11_SUR.jpg","stimuli/HF04_HE.jpg","stimuli/BM07_SC.jpg","stimuli/AM06_HO.jpg","pos4","stimuli/AM06_HO.jpg","HO","AM06","3","1.5","3","2","stimuli/stars_3.png","195.5","[""SUR"",""HE"",""SC"",""HO""]","[""AF11"",""HF04"",""BM07"",""AM06""]","[6,10,4,3]","[6,8,4,2]","","",""
"show-reward","124","254181","0.0-124.0","p977692","A5P12YJP805RG","3WRBLBQ2GSENM5LEFQY1C5PG0GV0GC","354GIDR5ZDCTYL8NRQEZGXXPCAZ00R","model","mismatch","uniform","","","","","","","","253478.90000003576","255490.40000003576","","","","","","","","","","","","3","","stimuli/stars_3.png","195.5","","","","","stimuli/AM06_HO.jpg","",""
"explore-choice","125","255411","0.0-125.0","p977692","A5P12YJP805RG","3WRBLBQ2GSENM5LEFQY1C5PG0GV0GC","354GIDR5ZDCTYL8NRQEZGXXPCAZ00R","model","mismatch","uniform","","","","","","","721.3000000119209","255490.90000003576","256212.20000004768","[""stimuli/AM06_HO.jpg"",""stimuli/HF04_HE.jpg"",""stimuli/BM07_SUR.jpg"",""stimuli/AF11_SC.jpg""]","stimuli/AM06_HO.jpg","stimuli/HF04_HE.jpg","stimuli/BM07_SUR.jpg","stimuli/AF11_SC.jpg","pos3","stimuli/BM07_SUR.jpg","SUR","BM07","2","2","4","6","stimuli/stars_4.png","197.5","[""HO"",""HE"",""SUR"",""SC""]","[""AM06"",""HF04"",""BM07"",""AF11""]","[2,9,4,6]","[2,8,6,4]","","",""
"show-reward","126","257426","0.0-126.0","p977692","A5P12YJP805RG","3WRBLBQ2GSENM5LEFQY1C5PG0GV0GC","354GIDR5ZDCTYL8NRQEZGXXPCAZ00R","model","mismatch","uniform","","","","","","","","256720.40000003576","258735","","","","","","","","","","","","4","","stimuli/stars_4.png","197.5","","","","","stimuli/BM07_SUR.jpg","",""
"explore-choice","127","258961","0.0-127.0","p977692","A5P12YJP805RG","3WRBLBQ2GSENM5LEFQY1C5PG0GV0GC","354GIDR5ZDCTYL8NRQEZGXXPCAZ00R","model","mismatch","uniform","","","","","","","1029.3999999761581","258735.60000002384","259765","[""stimuli/AM06_HE.jpg"",""stimuli/BM07_SUR.jpg"",""stimuli/HF04_SC.jpg"",""stimuli/AF11_HO.jpg""]","stimuli/AM06_HE.jpg","stimuli/BM07_SUR.jpg","stimuli/HF04_SC.jpg","stimuli/AF11_HO.jpg","pos3","stimuli/HF04_SC.jpg","SC","HF04","2","2","4","4","stimuli/stars_4.png","199.5","[""HE"",""SUR"",""SC"",""HO""]","[""AM06"",""BM07"",""HF04"",""AF11""]","[7,4,4,3]","[8,6,4,2]","","",""
"show-reward","128","260970","0.0-128.0","p977692","A5P12YJP805RG","3WRBLBQ2GSENM5LEFQY1C5PG0GV0GC","354GIDR5ZDCTYL8NRQEZGXXPCAZ00R","model","mismatch","uniform","","","","","","","","260270.60000002384","262279.10000002384","","","","","","","","","","","","4","","stimuli/stars_4.png","199.5","","","","","stimuli/HF04_SC.jpg","",""
"explore-choice","129","262468","0.0-129.0","p977692","A5P12YJP805RG","3WRBLBQ2GSENM5LEFQY1C5PG0GV0GC","354GIDR5ZDCTYL8NRQEZGXXPCAZ00R","model","mismatch","uniform","","","","","","","997.3999999761581","262279.60000002384","263277","[""stimuli/HF04_HO.jpg"",""stimuli/BM07_SUR.jpg"",""stimuli/AF11_SC.jpg"",""stimuli/AM06_HE.jpg""]","stimuli/HF04_HO.jpg","stimuli/BM07_SUR.jpg","stimuli/AF11_SC.jpg","stimuli/AM06_HE.jpg","pos1","stimuli/HF04_HO.jpg","HO","HF04","0","1.5","3","2","stimuli/stars_3.png","201","[""HO"",""SUR"",""SC"",""HE""]","[""HF04"",""BM07"",""AF11"",""AM06""]","[3,7,4,8]","[2,6,4,8]","","",""
"show-reward","130","264479","0.0-130.0","p977692","A5P12YJP805RG","3WRBLBQ2GSENM5LEFQY1C5PG0GV0GC","354GIDR5ZDCTYL8NRQEZGXXPCAZ00R","model","mismatch","uniform","","","","","","","","263777.60000002384","265787.90000003576","","","","","","","","","","","","3","","stimuli/stars_3.png","201","","","","","stimuli/HF04_HO.jpg","",""
"explore-choice","131","265836","0.0-131.0","p977692","A5P12YJP805RG","3WRBLBQ2GSENM5LEFQY1C5PG0GV0GC","354GIDR5ZDCTYL8NRQEZGXXPCAZ00R","model","mismatch","uniform","","","","","","","841.8999999761581","265788.40000003576","266630.3000000119","[""stimuli/AF11_SUR.jpg"",""stimuli/AM06_HE.jpg"",""stimuli/BM07_HO.jpg"",""stimuli/HF04_SC.jpg""]","stimuli/AF11_SUR.jpg","stimuli/AM06_HE.jpg","stimuli/BM07_HO.jpg","stimuli/HF04_SC.jpg","pos4","stimuli/HF04_SC.jpg","SC","HF04","3","3","6","4","stimuli/stars_6.png","204","[""SUR"",""HE"",""HO"",""SC""]","[""AF11"",""AM06"",""BM07"",""HF04""]","[4,7,1,6]","[6,8,2,4]","","",""
"show-reward","132","267841","0.0-132.0","p977692","A5P12YJP805RG","3WRBLBQ2GSENM5LEFQY1C5PG0GV0GC","354GIDR5ZDCTYL8NRQEZGXXPCAZ00R","model","mismatch","uniform","","","","","","","","267145.40000003576","269150","","","","","","","","","","","","6","","stimuli/stars_6.png","204","","","","","stimuli/HF04_SC.jpg","",""
"explore-choice","133","269862","0.0-133.0","p977692","A5P12YJP805RG","3WRBLBQ2GSENM5LEFQY1C5PG0GV0GC","354GIDR5ZDCTYL8NRQEZGXXPCAZ00R","model","mismatch","uniform","","","","","","","1519.9000000357628","269150.8000000119","270670.7000000477","[""stimuli/AF11_SC.jpg"",""stimuli/HF04_HE.jpg"",""stimuli/BM07_HO.jpg"",""stimuli/AM06_SUR.jpg""]","stimuli/AF11_SC.jpg","stimuli/HF04_HE.jpg","stimuli/BM07_HO.jpg","stimuli/AM06_SUR.jpg","pos2","stimuli/HF04_HE.jpg","HE","HF04","1","4.5","9","8","stimuli/stars_9.png","208.5","[""SC"",""HE"",""HO"",""SUR""]","[""AF11"",""HF04"",""BM07"",""AM06""]","[4,9,1,8]","[4,8,2,6]","","",""
"show-reward","134","271869","0.0-134.0","p977692","A5P12YJP805RG","3WRBLBQ2GSENM5LEFQY1C5PG0GV0GC","354GIDR5ZDCTYL8NRQEZGXXPCAZ00R","model","mismatch","uniform","","","","","","","","271171.7000000477","273178.40000003576","","","","","","","","","","","","9","","stimuli/stars_9.png","208.5","","","","","stimuli/HF04_HE.jpg","",""
"explore-choice","135","273195","0.0-135.0","p977692","A5P12YJP805RG","3WRBLBQ2GSENM5LEFQY1C5PG0GV0GC","354GIDR5ZDCTYL8NRQEZGXXPCAZ00R","model","mismatch","uniform","","","","","","","811.8000000119209","273179","273990.8000000119","[""stimuli/BM07_HE.jpg"",""stimuli/AF11_HO.jpg"",""stimuli/HF04_SC.jpg"",""stimuli/AM06_SUR.jpg""]","stimuli/BM07_HE.jpg","stimuli/AF11_HO.jpg","stimuli/HF04_SC.jpg","stimuli/AM06_SUR.jpg","pos3","stimuli/HF04_SC.jpg","SC","HF04","2","2","4","4","stimuli/stars_4.png","210.5","[""HE"",""HO"",""SC"",""SUR""]","[""BM07"",""AF11"",""HF04"",""AM06""]","[6,2,4,8]","[8,2,4,6]","","",""
"show-reward","136","275197","0.0-136.0","p977692","A5P12YJP805RG","3WRBLBQ2GSENM5LEFQY1C5PG0GV0GC","354GIDR5ZDCTYL8NRQEZGXXPCAZ00R","model","mismatch","uniform","","","","","","","","274504.7000000477","276506.40000003576","","","","","","","","","","","","4","","stimuli/stars_4.png","210.5","","","","","stimuli/HF04_SC.jpg","",""
"explore-choice","137","276704","0.0-137.0","p977692","A5P12YJP805RG","3WRBLBQ2GSENM5LEFQY1C5PG0GV0GC","354GIDR5ZDCTYL8NRQEZGXXPCAZ00R","model","mismatch","uniform","","","","","","","996.4000000357628","276506.8000000119","277503.2000000477","[""stimuli/AM06_HE.jpg"",""stimuli/BM07_SC.jpg"",""stimuli/HF04_HO.jpg"",""stimuli/AF11_SUR.jpg""]","stimuli/AM06_HE.jpg","stimuli/BM07_SC.jpg","stimuli/HF04_HO.jpg","stimuli/AF11_SUR.jpg","pos4","stimuli/AF11_SUR.jpg","SUR","AF11","3","2.5","5","6","stimuli/stars_5.png","213","[""HE"",""SC"",""HO"",""SUR""]","[""AM06"",""BM07"",""HF04"",""AF11""]","[6,6,2,5]","[8,4,2,6]","","",""
"show-reward","138","278719","0.0-138.0","p977692","A5P12YJP805RG","3WRBLBQ2GSENM5LEFQY1C5PG0GV0GC","354GIDR5ZDCTYL8NRQEZGXXPCAZ00R","model","mismatch","uniform","","","","","","","","278013.2000000477","280027.8000000119","","","","","","","","","","","","5","","stimuli/stars_5.png","213","","","","","stimuli/AF11_SUR.jpg","",""
"explore-choice","139","279715","0.0-139.0","p977692","A5P12YJP805RG","3WRBLBQ2GSENM5LEFQY1C5PG0GV0GC","354GIDR5ZDCTYL8NRQEZGXXPCAZ00R","model","mismatch","uniform","","","","","","","491.5","280028.3000000119","280519.8000000119","[""stimuli/BM07_HO.jpg"",""stimuli/AM06_SC.jpg"",""stimuli/HF04_HE.jpg"",""stimuli/AF11_SUR.jpg""]","stimuli/BM07_HO.jpg","stimuli/AM06_SC.jpg","stimuli/HF04_HE.jpg","stimuli/AF11_SUR.jpg","pos4","stimuli/AF11_SUR.jpg","SUR","AF11","3","3","6","6","stimuli/stars_6.png","216","[""HO"",""SC"",""HE"",""SUR""]","[""BM07"",""AM06"",""HF04"",""AF11""]","[4,3,6,6]","[2,4,8,6]","","",""
"show-reward","140","281727","0.0-140.0","p977692","A5P12YJP805RG","3WRBLBQ2GSENM5LEFQY1C5PG0GV0GC","354GIDR5ZDCTYL8NRQEZGXXPCAZ00R","model","mismatch","uniform","","","","","","","","281024.2000000477","283035.7000000477","","","","","","","","","","","","6","","stimuli/stars_6.png","216","","","","","stimuli/AF11_SUR.jpg","",""
"explore-choice","141","283414","0.0-141.0","p977692","A5P12YJP805RG","3WRBLBQ2GSENM5LEFQY1C5PG0GV0GC","354GIDR5ZDCTYL8NRQEZGXXPCAZ00R","model","mismatch","uniform","","","","","","","1172.199999988079","283036.2000000477","284208.40000003576","[""stimuli/AF11_HE.jpg"",""stimuli/AM06_SUR.jpg"",""stimuli/BM07_SC.jpg"",""stimuli/HF04_HO.jpg""]","stimuli/AF11_HE.jpg","stimuli/AM06_SUR.jpg","stimuli/BM07_SC.jpg","stimuli/HF04_HO.jpg","pos1","stimuli/AF11_HE.jpg","HE","AF11","0","3","6","8","stimuli/stars_6.png","219","[""HE"",""SUR"",""SC"",""HO""]","[""AF11"",""AM06"",""BM07"",""HF04""]","[6,5,4,3]","[8,6,4,2]","","",""
"show-reward","142","285417","0.0-142.0","p977692","A5P12YJP805RG","3WRBLBQ2GSENM5LEFQY1C5PG0GV0GC","354GIDR5ZDCTYL8NRQEZGXXPCAZ00R","model","mismatch","uniform","","","","","","","","284723.60000002384","286726","","","","","","","","","","","","6","","stimuli/stars_6.png","219","","","","","stimuli/AF11_HE.jpg","",""
"explore-choice","143","286851","0.0-143.0","p977692","A5P12YJP805RG","3WRBLBQ2GSENM5LEFQY1C5PG0GV0GC","354GIDR5ZDCTYL8NRQEZGXXPCAZ00R","model","mismatch","uniform","","","","","","","930.6000000238419","286726.60000002384","287657.2000000477","[""stimuli/HF04_SUR.jpg"",""stimuli/BM07_HO.jpg"",""stimuli/AM06_SC.jpg"",""stimuli/AF11_HE.jpg""]","stimuli/HF04_SUR.jpg","stimuli/BM07_HO.jpg","stimuli/AM06_SC.jpg","stimuli/AF11_HE.jpg","pos4","stimuli/AF11_HE.jpg","HE","AF11","3","4.5","9","8","stimuli/stars_9.png","223.5","[""SUR"",""HO"",""SC"",""HE""]","[""HF04"",""BM07"",""AM06"",""AF11""]","[7,0,5,9]","[6,2,4,8]","","",""
"show-reward","144","288862","0.0-144.0","p977692","A5P12YJP805RG","3WRBLBQ2GSENM5LEFQY1C5PG0GV0GC","354GIDR5ZDCTYL8NRQEZGXXPCAZ00R","model","mismatch","uniform","","","","","","","","288160.40000003576","290170.8000000119","","","","","","","","","","","","9","","stimuli/stars_9.png","223.5","","","","","stimuli/AF11_HE.jpg","",""
"explore-choice","145","290106","0.0-145.0","p977692","A5P12YJP805RG","3WRBLBQ2GSENM5LEFQY1C5PG0GV0GC","354GIDR5ZDCTYL8NRQEZGXXPCAZ00R","model","mismatch","uniform","","","","","","","734.3000000119209","290171.3000000119","290905.60000002384","[""stimuli/AF11_HO.jpg"",""stimuli/HF04_SUR.jpg"",""stimuli/AM06_SC.jpg"",""stimuli/BM07_HE.jpg""]","stimuli/AF11_HO.jpg","stimuli/HF04_SUR.jpg","stimuli/AM06_SC.jpg","stimuli/BM07_HE.jpg","pos1","stimuli/AF11_HO.jpg","HO","AF11","0","0.5","1","2","stimuli/stars_1.png","224","[""HO"",""SUR"",""SC"",""HE""]","[""AF11"",""HF04"",""AM06"",""BM07""]","[1,6,4,9]","[2,6,4,8]","","",""
"show-reward","146","292118","0.0-146.0","p977692","A5P12YJP805RG","3WRBLBQ2GSENM5LEFQY1C5PG0GV0GC","354GIDR5ZDCTYL8NRQEZGXXPCAZ00R","model","mismatch","uniform","","","","","","","","291415.7000000477","293426.8000000119","","","","","","","","","","","","1","","stimuli/stars_1.png","224","","","","","stimuli/AF11_HO.jpg","",""
"explore-choice","147","293084","0.0-147.0","p977692","A5P12YJP805RG","3WRBLBQ2GSENM5LEFQY1C5PG0GV0GC","354GIDR5ZDCTYL8NRQEZGXXPCAZ00R","model","mismatch","uniform","","","","","","","454.39999997615814","293427.2000000477","293881.60000002384","[""stimuli/AF11_HE.jpg"",""stimuli/BM07_SC.jpg"",""stimuli/HF04_SUR.jpg"",""stimuli/AM06_HO.jpg""]","stimuli/AF11_HE.jpg","stimuli/BM07_SC.jpg","stimuli/HF04_SUR.jpg","stimuli/AM06_HO.jpg","pos1","stimuli/AF11_HE.jpg","HE","AF11","0","5","10","8","stimuli/stars_10.png","229","[""HE"",""SC"",""SUR"",""HO""]","[""AF11"",""BM07"",""HF04"",""AM06""]","[10,4,6,1]","[8,4,6,2]","","",""
"show-reward","148","295099","0.0-148.0","p977692","A5P12YJP805RG","3WRBLBQ2GSENM5LEFQY1C5PG0GV0GC","354GIDR5ZDCTYL8NRQEZGXXPCAZ00R","model","mismatch","uniform","","","","","","","","294393.40000003576","296407.3000000119","","","","","","","","","","","","10","","stimuli/stars_10.png","229","","","","","stimuli/AF11_HE.jpg","",""
"explore-choice","149","296296","0.0-149.0","p977692","A5P12YJP805RG","3WRBLBQ2GSENM5LEFQY1C5PG0GV0GC","354GIDR5ZDCTYL8NRQEZGXXPCAZ00R","model","mismatch","uniform","","","","","","","682.3000000119209","296407.8000000119","297090.10000002384","[""stimuli/AF11_SC.jpg"",""stimuli/BM07_HE.jpg"",""stimuli/AM06_HO.jpg"",""stimuli/HF04_SUR.jpg""]","stimuli/AF11_SC.jpg","stimuli/BM07_HE.jpg","stimuli/AM06_HO.jpg","stimuli/HF04_SUR.jpg","pos1","stimuli/AF11_SC.jpg","SC","AF11","0","1.5","3","4","stimuli/stars_3.png","230.5","[""SC"",""HE"",""HO"",""SUR""]","[""AF11"",""BM07"",""AM06"",""HF04""]","[3,10,3,7]","[4,8,2,6]","","",""
"show-reward","150","298307","0.0-150.0","p977692","A5P12YJP805RG","3WRBLBQ2GSENM5LEFQY1C5PG0GV0GC","354GIDR5ZDCTYL8NRQEZGXXPCAZ00R","model","mismatch","uniform","","","","","","","","297605.7000000477","299615.60000002384","","","","","","","","","","","","3","","stimuli/stars_3.png","230.5","","","","","stimuli/AF11_SC.jpg","",""
"explore-choice","151","299752","0.0-151.0","p977692","A5P12YJP805RG","3WRBLBQ2GSENM5LEFQY1C5PG0GV0GC","354GIDR5ZDCTYL8NRQEZGXXPCAZ00R","model","mismatch","uniform","","","","","","","939","299616.10000002384","300555.10000002384","[""stimuli/AM06_HE.jpg"",""stimuli/BM07_SUR.jpg"",""stimuli/HF04_SC.jpg"",""stimuli/AF11_HO.jpg""]","stimuli/AM06_HE.jpg","stimuli/BM07_SUR.jpg","stimuli/HF04_SC.jpg","stimuli/AF11_HO.jpg","pos2","stimuli/BM07_SUR.jpg","SUR","BM07","1","2","4","6","stimuli/stars_4.png","232.5","[""HE"",""SUR"",""SC"",""HO""]","[""AM06"",""BM07"",""HF04"",""AF11""]","[7,4,4,3]","[8,6,4,2]","","",""
"show-reward","152","301754","0.0-152.0","p977692","A5P12YJP805RG","3WRBLBQ2GSENM5LEFQY1C5PG0GV0GC","354GIDR5ZDCTYL8NRQEZGXXPCAZ00R","model","mismatch","uniform","","","","","","","","301061.40000003576","303062.40000003576","","","","","","","","","","","","4","","stimuli/stars_4.png","232.5","","","","","stimuli/BM07_SUR.jpg","",""
"explore-choice","153","303524","0.0-153.0","p977692","A5P12YJP805RG","3WRBLBQ2GSENM5LEFQY1C5PG0GV0GC","354GIDR5ZDCTYL8NRQEZGXXPCAZ00R","model","mismatch","uniform","","","","","","","1268.2000000476837","303063","304331.2000000477","[""stimuli/BM07_SUR.jpg"",""stimuli/HF04_HO.jpg"",""stimuli/AF11_SC.jpg"",""stimuli/AM06_HE.jpg""]","stimuli/BM07_SUR.jpg","stimuli/HF04_HO.jpg","stimuli/AF11_SC.jpg","stimuli/AM06_HE.jpg","pos4","stimuli/AM06_HE.jpg","HE","AM06","3","4","8","8","stimuli/stars_8.png","236.5","[""SUR"",""HO"",""SC"",""HE""]","[""BM07"",""HF04"",""AF11"",""AM06""]","[7,3,4,8]","[6,2,4,8]","","",""
"show-reward","154","305526","0.0-154.0","p977692","A5P12YJP805RG","3WRBLBQ2GSENM5LEFQY1C5PG0GV0GC","354GIDR5ZDCTYL8NRQEZGXXPCAZ00R","model","mismatch","uniform","","","","","","","","304833.2000000477","306835","","","","","","","","","","","","8","","stimuli/stars_8.png","236.5","","","","","stimuli/AM06_HE.jpg","",""
"explore-choice","155","306748","0.0-155.0","p977692","A5P12YJP805RG","3WRBLBQ2GSENM5LEFQY1C5PG0GV0GC","354GIDR5ZDCTYL8NRQEZGXXPCAZ00R","model","mismatch","uniform","","","","","","","720.4000000357628","306835.5","307555.90000003576","[""stimuli/AM06_HO.jpg"",""stimuli/AF11_HE.jpg"",""stimuli/HF04_SC.jpg"",""stimuli/BM07_SUR.jpg""]","stimuli/AM06_HO.jpg","stimuli/AF11_HE.jpg","stimuli/HF04_SC.jpg","stimuli/BM07_SUR.jpg","pos2","stimuli/AF11_HE.jpg","HE","AF11","1","3.5","7","8","stimuli/stars_7.png","240","[""HO"",""HE"",""SC"",""SUR""]","[""AM06"",""AF11"",""HF04"",""BM07""]","[3,7,2,7]","[2,8,4,6]","","",""
"show-reward","156","308750","0.0-156.0","p977692","A5P12YJP805RG","3WRBLBQ2GSENM5LEFQY1C5PG0GV0GC","354GIDR5ZDCTYL8NRQEZGXXPCAZ00R","model","mismatch","uniform","","","","","","","","308057","310059.10000002384","","","","","","","","","","","","7","","stimuli/stars_7.png","240","","","","","stimuli/AF11_HE.jpg","",""
"explore-choice","157","310300","0.0-157.0","p977692","A5P12YJP805RG","3WRBLBQ2GSENM5LEFQY1C5PG0GV0GC","354GIDR5ZDCTYL8NRQEZGXXPCAZ00R","model","mismatch","uniform","","","","","","","1048.6000000238419","310059.60000002384","311108.2000000477","[""stimuli/BM07_SUR.jpg"",""stimuli/AF11_HO.jpg"",""stimuli/AM06_SC.jpg"",""stimuli/HF04_HE.jpg""]","stimuli/BM07_SUR.jpg","stimuli/AF11_HO.jpg","stimuli/AM06_SC.jpg","stimuli/HF04_HE.jpg","pos4","stimuli/HF04_HE.jpg","HE","HF04","3","3.5","7","8","stimuli/stars_7.png","243.5","[""SUR"",""HO"",""SC"",""HE""]","[""BM07"",""AF11"",""AM06"",""HF04""]","[6,3,4,7]","[6,2,4,8]","","",""
"show-reward","158","312312","0.0-158.0","p977692","A5P12YJP805RG","3WRBLBQ2GSENM5LEFQY1C5PG0GV0GC","354GIDR5ZDCTYL8NRQEZGXXPCAZ00R","model","mismatch","uniform","","","","","","","","311609.5","313620.7000000477","","","","","","","","","","","","7","","stimuli/stars_7.png","243.5","","","","","stimuli/HF04_HE.jpg","",""
"explore-choice","159","313549","0.0-159.0","p977692","A5P12YJP805RG","3WRBLBQ2GSENM5LEFQY1C5PG0GV0GC","354GIDR5ZDCTYL8NRQEZGXXPCAZ00R","model","mismatch","uniform","","","","","","","735.4000000357628","313621.3000000119","314356.7000000477","[""stimuli/AF11_SC.jpg"",""stimuli/BM07_HE.jpg"",""stimuli/HF04_HO.jpg"",""stimuli/AM06_SUR.jpg""]","stimuli/AF11_SC.jpg","stimuli/BM07_HE.jpg","stimuli/HF04_HO.jpg","stimuli/AM06_SUR.jpg","pos2","stimuli/BM07_HE.jpg","HE","BM07","1","3.5","7","8","stimuli/stars_7.png","247","[""SC"",""HE"",""HO"",""SUR""]","[""AF11"",""BM07"",""HF04"",""AM06""]","[4,7,0,8]","[4,8,2,6]","","",""
"show-reward","160","315555","0.0-160.0","p977692","A5P12YJP805RG","3WRBLBQ2GSENM5LEFQY1C5PG0GV0GC","354GIDR5ZDCTYL8NRQEZGXXPCAZ00R","model","mismatch","uniform","","","","","","","","314858.10000002384","316863.7000000477","","","","","","","","","","","","7","","stimuli/stars_7.png","247","","","","","stimuli/BM07_HE.jpg","",""
"explore-choice","161","316941","0.0-161.0","p977692","A5P12YJP805RG","3WRBLBQ2GSENM5LEFQY1C5PG0GV0GC","354GIDR5ZDCTYL8NRQEZGXXPCAZ00R","model","mismatch","uniform","","","","","","","877.1999999880791","316864.10000002384","317741.3000000119","[""stimuli/AF11_HE.jpg"",""stimuli/BM07_SUR.jpg"",""stimuli/HF04_HO.jpg"",""stimuli/AM06_SC.jpg""]","stimuli/AF11_HE.jpg","stimuli/BM07_SUR.jpg","stimuli/HF04_HO.jpg","stimuli/AM06_SC.jpg","pos1","stimuli/AF11_HE.jpg","HE","AF11","0","3","6","8","stimuli/stars_6.png","250","[""HE"",""SUR"",""HO"",""SC""]","[""AF11"",""BM07"",""HF04"",""AM06""]","[6,7,3,6]","[8,6,2,4]","","",""
"show-reward","162","318954","0.0-162.0","p977692","A5P12YJP805RG","3WRBLBQ2GSENM5LEFQY1C5PG0GV0GC","354GIDR5ZDCTYL8NRQEZGXXPCAZ00R","model","mismatch","uniform","","","","","","","","318250.60000002384","320262.90000003576","","","","","","","","","","","","6","","stimuli/stars_6.png","250","","","","","stimuli/AF11_HE.jpg","",""
"explore-choice","163","321025","0.0-163.0","p977692","A5P12YJP805RG","3WRBLBQ2GSENM5LEFQY1C5PG0GV0GC","354GIDR5ZDCTYL8NRQEZGXXPCAZ00R","model","mismatch","uniform","","","","","","","1558.0999999642372","320263.7000000477","321821.8000000119","[""stimuli/BM07_HE.jpg"",""stimuli/HF04_SC.jpg"",""stimuli/AM06_SUR.jpg"",""stimuli/AF11_HO.jpg""]","stimuli/BM07_HE.jpg","stimuli/HF04_SC.jpg","stimuli/AM06_SUR.jpg","stimuli/AF11_HO.jpg","pos1","stimuli/BM07_HE.jpg","HE","BM07","0","3","6","8","stimuli/stars_6.png","253","[""HE"",""SC"",""SUR"",""HO""]","[""BM07"",""HF04"",""AM06"",""AF11""]","[6,4,8,2]","[8,4,6,2]","","",""
"show-reward","164","323038","0.0-164.0","p977692","A5P12YJP805RG","3WRBLBQ2GSENM5LEFQY1C5PG0GV0GC","354GIDR5ZDCTYL8NRQEZGXXPCAZ00R","model","mismatch","uniform","","","","","","","","322334.2000000477","324346.60000002384","","","","","","","","","","","","6","","stimuli/stars_6.png","253","","","","","stimuli/BM07_HE.jpg","",""
"explore-choice","165","324388","0.0-165.0","p977692","A5P12YJP805RG","3WRBLBQ2GSENM5LEFQY1C5PG0GV0GC","354GIDR5ZDCTYL8NRQEZGXXPCAZ00R","model","mismatch","uniform","","","","","","","835.5","324347.3000000119","325182.8000000119","[""stimuli/BM07_SC.jpg"",""stimuli/HF04_HE.jpg"",""stimuli/AM06_HO.jpg"",""stimuli/AF11_SUR.jpg""]","stimuli/BM07_SC.jpg","stimuli/HF04_HE.jpg","stimuli/AM06_HO.jpg","stimuli/AF11_SUR.jpg","pos2","stimuli/HF04_HE.jpg","HE","HF04","1","5","10","8","stimuli/stars_10.png","258","[""SC"",""HE"",""HO"",""SUR""]","[""BM07"",""HF04"",""AM06"",""AF11""]","[4,10,3,6]","[4,8,2,6]","","",""
"show-reward","166","326395","0.0-166.0","p977692","A5P12YJP805RG","3WRBLBQ2GSENM5LEFQY1C5PG0GV0GC","354GIDR5ZDCTYL8NRQEZGXXPCAZ00R","model","mismatch","uniform","","","","","","","","325697.60000002384","327704","","","","","","","","","","","","10","","stimuli/stars_10.png","258","","","","","stimuli/HF04_HE.jpg","",""
"explore-choice","167","328341","0.0-167.0","p977692","A5P12YJP805RG","3WRBLBQ2GSENM5LEFQY1C5PG0GV0GC","354GIDR5ZDCTYL8NRQEZGXXPCAZ00R","model","mismatch","uniform","","","","","","","1438.4000000357628","327704.5","329142.90000003576","[""stimuli/HF04_SC.jpg"",""stimuli/BM07_HE.jpg"",""stimuli/AM06_HO.jpg"",""stimuli/AF11_SUR.jpg""]","stimuli/HF04_SC.jpg","stimuli/BM07_HE.jpg","stimuli/AM06_HO.jpg","stimuli/AF11_SUR.jpg","pos3","stimuli/AM06_HO.jpg","HO","AM06","2","2","4","2","stimuli/stars_4.png","260","[""SC"",""HE"",""HO"",""SUR""]","[""HF04"",""BM07"",""AM06"",""AF11""]","[2,9,4,6]","[4,8,2,6]","","",""
"show-reward","168","330354","0.0-168.0","p977692","A5P12YJP805RG","3WRBLBQ2GSENM5LEFQY1C5PG0GV0GC","354GIDR5ZDCTYL8NRQEZGXXPCAZ00R","model","mismatch","uniform","","","","","","","","329650.7000000477","331662.8000000119","","","","","","","","","","","","4","","stimuli/stars_4.png","260","","","","","stimuli/AM06_HO.jpg","",""
"explore-choice","169","331871","0.0-169.0","p977692","A5P12YJP805RG","3WRBLBQ2GSENM5LEFQY1C5PG0GV0GC","354GIDR5ZDCTYL8NRQEZGXXPCAZ00R","model","mismatch","uniform","","","","","","","1015.8999999761581","331663.60000002384","332679.5","[""stimuli/HF04_SUR.jpg"",""stimuli/AM06_HE.jpg"",""stimuli/BM07_SC.jpg"",""stimuli/AF11_HO.jpg""]","stimuli/HF04_SUR.jpg","stimuli/AM06_HE.jpg","stimuli/BM07_SC.jpg","stimuli/AF11_HO.jpg","pos1","stimuli/HF04_SUR.jpg","SUR","HF04","0","4","8","6","stimuli/stars_8.png","264","[""SUR"",""HE"",""SC"",""HO""]","[""HF04"",""AM06"",""BM07"",""AF11""]","[8,9,3,2]","[6,8,4,2]","","",""
"show-reward","170","333889","0.0-170.0","p977692","A5P12YJP805RG","3WRBLBQ2GSENM5LEFQY1C5PG0GV0GC","354GIDR5ZDCTYL8NRQEZGXXPCAZ00R","model","mismatch","uniform","","","","","","","","333180.7000000477","335197.3000000119","","","","","","","","","","","","8","","stimuli/stars_8.png","264","","","","","stimuli/HF04_SUR.jpg","",""
"explore-choice","171","335352","0.0-171.0","p977692","A5P12YJP805RG","3WRBLBQ2GSENM5LEFQY1C5PG0GV0GC","354GIDR5ZDCTYL8NRQEZGXXPCAZ00R","model","mismatch","uniform","","","","","","","962.1999999880791","335197.8000000119","336160","[""stimuli/AF11_SUR.jpg"",""stimuli/BM07_HO.jpg"",""stimuli/AM06_SC.jpg"",""stimuli/HF04_HE.jpg""]","stimuli/AF11_SUR.jpg","stimuli/BM07_HO.jpg","stimuli/AM06_SC.jpg","stimuli/HF04_HE.jpg","pos4","stimuli/HF04_HE.jpg","HE","HF04","3","3","6","8","stimuli/stars_6.png","267","[""SUR"",""HO"",""SC"",""HE""]","[""AF11"",""BM07"",""AM06"",""HF04""]","[6,4,3,6]","[6,2,4,8]","","",""
"show-reward","172","337355","0.0-172.0","p977692","A5P12YJP805RG","3WRBLBQ2GSENM5LEFQY1C5PG0GV0GC","354GIDR5ZDCTYL8NRQEZGXXPCAZ00R","model","mismatch","uniform","","","","","","","","336661.60000002384","338663.3000000119","","","","","","","","","","","","6","","stimuli/stars_6.png","267","","","","","stimuli/HF04_HE.jpg","",""
"explore-choice","173","338568","0.0-173.0","p977692","A5P12YJP805RG","3WRBLBQ2GSENM5LEFQY1C5PG0GV0GC","354GIDR5ZDCTYL8NRQEZGXXPCAZ00R","model","mismatch","uniform","","","","","","","712.8000000119209","338663.8000000119","339376.60000002384","[""stimuli/HF04_HO.jpg"",""stimuli/AF11_HE.jpg"",""stimuli/BM07_SC.jpg"",""stimuli/AM06_SUR.jpg""]","stimuli/HF04_HO.jpg","stimuli/AF11_HE.jpg","stimuli/BM07_SC.jpg","stimuli/AM06_SUR.jpg","pos2","stimuli/AF11_HE.jpg","HE","AF11","1","3","6","8","stimuli/stars_6.png","270","[""HO"",""HE"",""SC"",""SUR""]","[""HF04"",""AF11"",""BM07"",""AM06""]","[3,6,4,5]","[2,8,4,6]","","",""
"show-reward","174","340577","0.0-174.0","p977692","A5P12YJP805RG","3WRBLBQ2GSENM5LEFQY1C5PG0GV0GC","354GIDR5ZDCTYL8NRQEZGXXPCAZ00R","model","mismatch","uniform","","","","","","","","339877.3000000119","341885.8000000119","","","","","","","","","","","","6","","stimuli/stars_6.png","270","","","","","stimuli/AF11_HE.jpg","",""
"explore-choice","175","341998","0.0-175.0","p977692","A5P12YJP805RG","3WRBLBQ2GSENM5LEFQY1C5PG0GV0GC","354GIDR5ZDCTYL8NRQEZGXXPCAZ00R","model","mismatch","uniform","","","","","","","914.9000000357628","341886.3000000119","342801.2000000477","[""stimuli/AF11_SC.jpg"",""stimuli/BM07_SUR.jpg"",""stimuli/AM06_HO.jpg"",""stimuli/HF04_HE.jpg""]","stimuli/AF11_SC.jpg","stimuli/BM07_SUR.jpg","stimuli/AM06_HO.jpg","stimuli/HF04_HE.jpg","pos2","stimuli/BM07_SUR.jpg","SUR","BM07","1","2","4","6","stimuli/stars_4.png","272","[""SC"",""SUR"",""HO"",""HE""]","[""AF11"",""BM07"",""AM06"",""HF04""]","[6,4,2,9]","[4,6,2,8]","","",""
"show-reward","176","344000","0.0-176.0","p977692","A5P12YJP805RG","3WRBLBQ2GSENM5LEFQY1C5PG0GV0GC","354GIDR5ZDCTYL8NRQEZGXXPCAZ00R","model","mismatch","uniform","","","","","","","","343307","345308.40000003576","","","","","","","","","","","","4","","stimuli/stars_4.png","272","","","","","stimuli/BM07_SUR.jpg","",""
"explore-choice","177","345288","0.0-177.0","p977692","A5P12YJP805RG","3WRBLBQ2GSENM5LEFQY1C5PG0GV0GC","354GIDR5ZDCTYL8NRQEZGXXPCAZ00R","model","mismatch","uniform","","","","","","","780.8000000119209","345309","346089.8000000119","[""stimuli/BM07_HE.jpg"",""stimuli/HF04_SUR.jpg"",""stimuli/AM06_SC.jpg"",""stimuli/AF11_HO.jpg""]","stimuli/BM07_HE.jpg","stimuli/HF04_SUR.jpg","stimuli/AM06_SC.jpg","stimuli/AF11_HO.jpg","pos3","stimuli/AM06_SC.jpg","SC","AM06","2","2","4","4","stimuli/stars_4.png","274","[""HE"",""SUR"",""SC"",""HO""]","[""BM07"",""HF04"",""AM06"",""AF11""]","[9,6,4,1]","[8,6,4,2]","","",""
"show-reward","178","347297","0.0-178.0","p977692","A5P12YJP805RG","3WRBLBQ2GSENM5LEFQY1C5PG0GV0GC","354GIDR5ZDCTYL8NRQEZGXXPCAZ00R","model","mismatch","uniform","","","","","","","","346597.2000000477","348605.40000003576","","","","","","","","","","","","4","","stimuli/stars_4.png","274","","","","","stimuli/AM06_SC.jpg","",""
"explore-choice","179","348483","0.0-179.0","p977692","A5P12YJP805RG","3WRBLBQ2GSENM5LEFQY1C5PG0GV0GC","354GIDR5ZDCTYL8NRQEZGXXPCAZ00R","model","mismatch","uniform","","","","","","","676.3999999761581","348605.90000003576","349282.3000000119","[""stimuli/BM07_HE.jpg"",""stimuli/AF11_SC.jpg"",""stimuli/HF04_SUR.jpg"",""stimuli/AM06_HO.jpg""]","stimuli/BM07_HE.jpg","stimuli/AF11_SC.jpg","stimuli/HF04_SUR.jpg","stimuli/AM06_HO.jpg","pos4","stimuli/AM06_HO.jpg","HO","AM06","3","1.5","3","2","stimuli/stars_3.png","275.5","[""HE"",""SC"",""SUR"",""HO""]","[""BM07"",""AF11"",""HF04"",""AM06""]","[10,3,7,3]","[8,4,6,2]","","",""
"show-reward","180","350499","0.0-180.0","p977692","A5P12YJP805RG","3WRBLBQ2GSENM5LEFQY1C5PG0GV0GC","354GIDR5ZDCTYL8NRQEZGXXPCAZ00R","model","mismatch","uniform","","","","","","","","349792.5","351807.60000002384","","","","","","","","","","","","3","","stimuli/stars_3.png","275.5","","","","","stimuli/AM06_HO.jpg","",""
"explore-choice","181","351787","0.0-181.0","p977692","A5P12YJP805RG","3WRBLBQ2GSENM5LEFQY1C5PG0GV0GC","354GIDR5ZDCTYL8NRQEZGXXPCAZ00R","model","mismatch","uniform","","","","","","","778.1999999880791","351808.10000002384","352586.3000000119","[""stimuli/BM07_HO.jpg"",""stimuli/AF11_HE.jpg"",""stimuli/AM06_SC.jpg"",""stimuli/HF04_SUR.jpg""]","stimuli/BM07_HO.jpg","stimuli/AF11_HE.jpg","stimuli/AM06_SC.jpg","stimuli/HF04_SUR.jpg","pos3","stimuli/AM06_SC.jpg","SC","AM06","2","2.5","5","4","stimuli/stars_5.png","278","[""HO"",""HE"",""SC"",""SUR""]","[""BM07"",""AF11"",""AM06"",""HF04""]","[0,9,5,7]","[2,8,4,6]","","",""
"show-reward","182","353794","0.0-182.0","p977692","A5P12YJP805RG","3WRBLBQ2GSENM5LEFQY1C5PG0GV0GC","354GIDR5ZDCTYL8NRQEZGXXPCAZ00R","model","mismatch","uniform","","","","","","","","353096.7000000477","355102.5","","","","","","","","","","","","5","","stimuli/stars_5.png","278","","","","","stimuli/AM06_SC.jpg","",""
"explore-choice","183","355096","0.0-183.0","p977692","A5P12YJP805RG","3WRBLBQ2GSENM5LEFQY1C5PG0GV0GC","354GIDR5ZDCTYL8NRQEZGXXPCAZ00R","model","mismatch","uniform","","","","","","","796.5","355103","355899.5","[""stimuli/AM06_HO.jpg"",""stimuli/HF04_SUR.jpg"",""stimuli/AF11_HE.jpg"",""stimuli/BM07_SC.jpg""]","stimuli/AM06_HO.jpg","stimuli/HF04_SUR.jpg","stimuli/AF11_HE.jpg","stimuli/BM07_SC.jpg","pos2","stimuli/HF04_SUR.jpg","SUR","HF04","1","3","6","6","stimuli/stars_6.png","281","[""HO"",""SUR"",""HE"",""SC""]","[""AM06"",""HF04"",""AF11"",""BM07""]","[1,6,10,4]","[2,6,8,4]","","",""
"show-reward","184","357104","0.0-184.0","p977692","A5P12YJP805RG","3WRBLBQ2GSENM5LEFQY1C5PG0GV0GC","354GIDR5ZDCTYL8NRQEZGXXPCAZ00R","model","mismatch","uniform","","","","","","","","356405","358412.7000000477","","","","","","","","","","","","6","","stimuli/stars_6.png","281","","","","","stimuli/HF04_SUR.jpg","",""
"explore-choice","185","358866","0.0-185.0","p977692","A5P12YJP805RG","3WRBLBQ2GSENM5LEFQY1C5PG0GV0GC","354GIDR5ZDCTYL8NRQEZGXXPCAZ00R","model","mismatch","uniform","","","","","","","1255.199999988079","358413.10000002384","359668.3000000119","[""stimuli/BM07_SC.jpg"",""stimuli/AM06_HE.jpg"",""stimuli/HF04_HO.jpg"",""stimuli/AF11_SUR.jpg""]","stimuli/BM07_SC.jpg","stimuli/AM06_HE.jpg","stimuli/HF04_HO.jpg","stimuli/AF11_SUR.jpg","pos2","stimuli/AM06_HE.jpg","HE","AM06","1","3","6","8","stimuli/stars_6.png","284","[""SC"",""HE"",""HO"",""SUR""]","[""BM07"",""AM06"",""HF04"",""AF11""]","[6,6,2,5]","[4,8,2,6]","","",""
"show-reward","186","360877","0.0-186.0","p977692","A5P12YJP805RG","3WRBLBQ2GSENM5LEFQY1C5PG0GV0GC","354GIDR5ZDCTYL8NRQEZGXXPCAZ00R","model","mismatch","uniform","","","","","","","","360175.2000000477","362185.90000003576","","","","","","","","","","","","6","","stimuli/stars_6.png","284","","","","","stimuli/AM06_HE.jpg","",""
"explore-choice","187","362310","0.0-187.0","p977692","A5P12YJP805RG","3WRBLBQ2GSENM5LEFQY1C5PG0GV0GC","354GIDR5ZDCTYL8NRQEZGXXPCAZ00R","model","mismatch","uniform","","","","","","","922","362186.40000003576","363108.40000003576","[""stimuli/AF11_HO.jpg"",""stimuli/AM06_SUR.jpg"",""stimuli/HF04_HE.jpg"",""stimuli/BM07_SC.jpg""]","stimuli/AF11_HO.jpg","stimuli/AM06_SUR.jpg","stimuli/HF04_HE.jpg","stimuli/BM07_SC.jpg","pos1","stimuli/AF11_HO.jpg","HO","AF11","0","2","4","2","stimuli/stars_4.png","286","[""HO"",""SUR"",""HE"",""SC""]","[""AF11"",""AM06"",""HF04"",""BM07""]","[4,8,8,3]","[2,6,8,4]","","",""
"show-reward","188","364317","0.0-188.0","p977692","A5P12YJP805RG","3WRBLBQ2GSENM5LEFQY1C5PG0GV0GC","354GIDR5ZDCTYL8NRQEZGXXPCAZ00R","model","mismatch","uniform","","","","","","","","363619.40000003576","365625.60000002384","","","","","","","","","","","","4","","stimuli/stars_4.png","286","","","","","stimuli/AF11_HO.jpg","",""
"explore-choice","189","365638","0.0-189.0","p977692","A5P12YJP805RG","3WRBLBQ2GSENM5LEFQY1C5PG0GV0GC","354GIDR5ZDCTYL8NRQEZGXXPCAZ00R","model","mismatch","uniform","","","","","","","818.0999999642372","365626.2000000477","366444.3000000119","[""stimuli/AM06_SC.jpg"",""stimuli/HF04_HO.jpg"",""stimuli/BM07_HE.jpg"",""stimuli/AF11_SUR.jpg""]","stimuli/AM06_SC.jpg","stimuli/HF04_HO.jpg","stimuli/BM07_HE.jpg","stimuli/AF11_SUR.jpg","pos3","stimuli/BM07_HE.jpg","HE","BM07","2","5","10","8","stimuli/stars_10.png","291","[""SC"",""HO"",""HE"",""SUR""]","[""AM06"",""HF04"",""BM07"",""AF11""]","[2,0,10,7]","[4,2,8,6]","","",""
"show-reward","190","367646","0.0-190.0","p977692","A5P12YJP805RG","3WRBLBQ2GSENM5LEFQY1C5PG0GV0GC","354GIDR5ZDCTYL8NRQEZGXXPCAZ00R","model","mismatch","uniform","","","","","","","","366946.90000003576","368954.8000000119","","","","","","","","","","","","10","","stimuli/stars_10.png","291","","","","","stimuli/BM07_HE.jpg","",""
"explore-choice","191","368789","0.0-191.0","p977692","A5P12YJP805RG","3WRBLBQ2GSENM5LEFQY1C5PG0GV0GC","354GIDR5ZDCTYL8NRQEZGXXPCAZ00R","model","mismatch","uniform","","","","","","","641.5","368955.3000000119","369596.8000000119","[""stimuli/AM06_HE.jpg"",""stimuli/HF04_SC.jpg"",""stimuli/AF11_SUR.jpg"",""stimuli/BM07_HO.jpg""]","stimuli/AM06_HE.jpg","stimuli/HF04_SC.jpg","stimuli/AF11_SUR.jpg","stimuli/BM07_HO.jpg","pos4","stimuli/BM07_HO.jpg","HO","BM07","3","0.5","1","2","stimuli/stars_1.png","291.5","[""HE"",""SC"",""SUR"",""HO""]","[""AM06"",""HF04"",""AF11"",""BM07""]","[7,6,4,1]","[8,4,6,2]","","",""
"show-reward","192","370802","0.0-192.0","p977692","A5P12YJP805RG","3WRBLBQ2GSENM5LEFQY1C5PG0GV0GC","354GIDR5ZDCTYL8NRQEZGXXPCAZ00R","model","mismatch","uniform","","","","","","","","370098.2000000477","372111","","","","","","","","","","","","1","","stimuli/stars_1.png","291.5","","","","","stimuli/BM07_HO.jpg","",""
"explore-choice","193","372052","0.0-193.0","p977692","A5P12YJP805RG","3WRBLBQ2GSENM5LEFQY1C5PG0GV0GC","354GIDR5ZDCTYL8NRQEZGXXPCAZ00R","model","mismatch","uniform","","","","","","","733.8000000119209","372111.40000003576","372845.2000000477","[""stimuli/AM06_SUR.jpg"",""stimuli/AF11_HE.jpg"",""stimuli/BM07_HO.jpg"",""stimuli/HF04_SC.jpg""]","stimuli/AM06_SUR.jpg","stimuli/AF11_HE.jpg","stimuli/BM07_HO.jpg","stimuli/HF04_SC.jpg","pos3","stimuli/BM07_HO.jpg","HO","BM07","2","0.5","1","2","stimuli/stars_1.png","292","[""SUR"",""HE"",""HO"",""SC""]","[""AM06"",""AF11"",""BM07"",""HF04""]","[7,8,1,6]","[6,8,2,4]","","",""
"show-reward","194","374064","0.0-194.0","p977692","A5P12YJP805RG","3WRBLBQ2GSENM5LEFQY1C5PG0GV0GC","354GIDR5ZDCTYL8NRQEZGXXPCAZ00R","model","mismatch","uniform","","","","","","","","373361","375373","","","","","","","","","","","","1","","stimuli/stars_1.png","292","","","","","stimuli/BM07_HO.jpg","",""
"explore-choice","195","375304","0.0-195.0","p977692","A5P12YJP805RG","3WRBLBQ2GSENM5LEFQY1C5PG0GV0GC","354GIDR5ZDCTYL8NRQEZGXXPCAZ00R","model","mismatch","uniform","","","","","","","736.5","375373.60000002384","376110.10000002384","[""stimuli/AM06_SUR.jpg"",""stimuli/AF11_SC.jpg"",""stimuli/BM07_HO.jpg"",""stimuli/HF04_HE.jpg""]","stimuli/AM06_SUR.jpg","stimuli/AF11_SC.jpg","stimuli/BM07_HO.jpg","stimuli/HF04_HE.jpg","pos4","stimuli/HF04_HE.jpg","HE","HF04","3","4.5","9","8","stimuli/stars_9.png","296.5","[""SUR"",""SC"",""HO"",""HE""]","[""AM06"",""AF11"",""BM07"",""HF04""]","[8,4,1,9]","[6,4,2,8]","","",""
"show-reward","196","377307","0.0-196.0","p977692","A5P12YJP805RG","3WRBLBQ2GSENM5LEFQY1C5PG0GV0GC","354GIDR5ZDCTYL8NRQEZGXXPCAZ00R","model","mismatch","uniform","","","","","","","","376613.5","378615.90000003576","","","","","","","","","","","","9","","stimuli/stars_9.png","296.5","","","","","stimuli/HF04_HE.jpg","",""
"explore-choice","197","379141","0.0-197.0","p977692","A5P12YJP805RG","3WRBLBQ2GSENM5LEFQY1C5PG0GV0GC","354GIDR5ZDCTYL8NRQEZGXXPCAZ00R","model","mismatch","uniform","","","","","","","1326","378616.5","379942.5","[""stimuli/AF11_SC.jpg"",""stimuli/HF04_SUR.jpg"",""stimuli/AM06_HE.jpg"",""stimuli/BM07_HO.jpg""]","stimuli/AF11_SC.jpg","stimuli/HF04_SUR.jpg","stimuli/AM06_HE.jpg","stimuli/BM07_HO.jpg","pos2","stimuli/HF04_SUR.jpg","SUR","HF04","1","2.5","5","6","stimuli/stars_5.png","299","[""SC"",""SUR"",""HE"",""HO""]","[""AF11"",""HF04"",""AM06"",""BM07""]","[3,5,6,4]","[4,6,8,2]","","",""
"show-reward","198","381153","0.0-198.0","p977692","A5P12YJP805RG","3WRBLBQ2GSENM5LEFQY1C5PG0GV0GC","354GIDR5ZDCTYL8NRQEZGXXPCAZ00R","model","mismatch","uniform","","","","","","","","380450","382461.5","","","","","","","","","","","","5","","stimuli/stars_5.png","299","","","","","stimuli/HF04_SUR.jpg","",""
"instructions","199","387427","0.0-199.0","p977692","A5P12YJP805RG","3WRBLBQ2GSENM5LEFQY1C5PG0GV0GC","354GIDR5ZDCTYL8NRQEZGXXPCAZ00R","model","mismatch","uniform","","","","","","[{""page_index"":0,""viewing_time"":6273.400000035763}]","6273.5","","","","","","","","","","","","","","","","","","","","","","","",""
"survey-text","200","390444","0.0-200.0-0.0","p977692","A5P12YJP805RG","3WRBLBQ2GSENM5LEFQY1C5PG0GV0GC","354GIDR5ZDCTYL8NRQEZGXXPCAZ00R","model","mismatch","uniform","","","","","","","3014.899999976158","","","","","","","","","","","","","","","","","","","","","","","{""age"":""26""}",""
"survey-text","201","395887","0.0-200.0-1.0","p977692","A5P12YJP805RG","3WRBLBQ2GSENM5LEFQY1C5PG0GV0GC","354GIDR5ZDCTYL8NRQEZGXXPCAZ00R","model","mismatch","uniform","","","","","","","5442","","","","","","","","","","","","","","","","","","","","","","","{""gender"":""male""}",""
"survey-text","202","400133","0.0-200.0-2.0","p977692","A5P12YJP805RG","3WRBLBQ2GSENM5LEFQY1C5PG0GV0GC","354GIDR5ZDCTYL8NRQEZGXXPCAZ00R","model","mismatch","uniform","","","","","","","4245.199999988079","","","","","","","","","","","","","","","","","","","","","","","{""country"":""united states""}",""
"survey-text","203","403622","0.0-200.0-3.0","p977692","A5P12YJP805RG","3WRBLBQ2GSENM5LEFQY1C5PG0GV0GC","354GIDR5ZDCTYL8NRQEZGXXPCAZ00R","model","mismatch","uniform","","","","","","","3487.399999976158","","","","","","","","","","","","","","","","","","","","","","","{""language"":""english"",""other_languages"":""""}",""
"survey-multi-select","204","406102","0.0-201.0","p977692","A5P12YJP805RG","3WRBLBQ2GSENM5LEFQY1C5PG0GV0GC","354GIDR5ZDCTYL8NRQEZGXXPCAZ00R","model","mismatch","uniform","","","","","","","2478.5","","","","","","","","","","","","","","","","","","","","","","","{""race"":[""Asian""]}","[0]"
"survey-multi-choice","205","407759","0.0-202.0","p977692","A5P12YJP805RG","3WRBLBQ2GSENM5LEFQY1C5PG0GV0GC","354GIDR5ZDCTYL8NRQEZGXXPCAZ00R","model","mismatch","uniform","","","","","","","1655","","","","","","","","","","","","","","","","","","","","","","","{""education"":""High school""}","[0]"
"survey-text","206","412679","0.0-203.0","p977692","A5P12YJP805RG","3WRBLBQ2GSENM5LEFQY1C5PG0GV0GC","354GIDR5ZDCTYL8NRQEZGXXPCAZ00R","model","mismatch","uniform","","","","","","","4917.899999976158","","","","","","","","","","","","","","","","","","","","","","","{""patterns"":"""",""strategy"":"""",""comments"":""""}",""
