"trial_type","trial_index","time_elapsed","internal_node_id","subject","workerId","hitId","assignmentId","structure_condition","match_condition","noise_type","success","timeout","failed_images","failed_audio","failed_video","view_history","rt","start_time","end_time","stimuli","image1","image2","image3","image4","choiceLocation","choiceImage","choiceEmotion","choiceModel","choice_index","reward_score","reward","reward_score_unadjusted","reward_image","score_after_trial","emotions","models","rewards","rewards_unadjusted","stimulus","response","question_order"
"pavlovia","0","33","0.0-0.0","p722338","A2JDYN6QM8M5UN","3RDTX9JRTZ7MP6YQMJD0Z3DG4HK978","3DQQ64TANIRPUSDS1IMA2T71LPUWP4","model","match","uniform","","","","","","","","","","","","","","","","","","","","","","","","","","","","","","",""
"preload","1","7076","0.0-1.0","p722338","A2JDYN6QM8M5UN","3RDTX9JRTZ7MP6YQMJD0Z3DG4HK978","3DQQ64TANIRPUSDS1IMA2T71LPUWP4","model","match","uniform","true","false","[]","[]","[]","","","","","","","","","","","","","","","","","","","","","","","","","",""
"fullscreen","2","10568","0.0-2.0","p722338","A2JDYN6QM8M5UN","3RDTX9JRTZ7MP6YQMJD0Z3DG4HK978","3DQQ64TANIRPUSDS1IMA2T71LPUWP4","model","match","uniform","true","","","","","","","","","","","","","","","","","","","","","","","","","","","","","",""
"instructions","3","14502","0.0-3.0","p722338","A2JDYN6QM8M5UN","3RDTX9JRTZ7MP6YQMJD0Z3DG4HK978","3DQQ64TANIRPUSDS1IMA2T71LPUWP4","model","match","uniform","","","","","","[{""page_index"":0,""viewing_time"":3931.7999999523163}]","3932.7999999523163","","","","","","","","","","","","","","","","","","","","","","","",""
"explore-choice","4","17177","0.0-4.0","p722338","A2JDYN6QM8M5UN","3RDTX9JRTZ7MP6YQMJD0Z3DG4HK978","3DQQ64TANIRPUSDS1IMA2T71LPUWP4","model","match","uniform","","","","","","","2168.7999999523163","16655.799999952316","18824.599999904633","[""stimuli/sheep.jpg"",""stimuli/hammer.jpg"",""stimuli/basketball.jpg"",""stimuli/horse.jpg""]","stimuli/sheep.jpg","stimuli/hammer.jpg","stimuli/basketball.jpg","stimuli/horse.jpg","pos4","stimuli/horse.jpg","","","3","64","64","64","stimuli/stars_8.png","65","","","","","","",""
"explore-choice","5","18672","0.0-5.0","p722338","A2JDYN6QM8M5UN","3RDTX9JRTZ7MP6YQMJD0Z3DG4HK978","3DQQ64TANIRPUSDS1IMA2T71LPUWP4","model","match","uniform","","","","","","","982.5","19328.099999904633","20310.599999904633","[""stimuli/hammer.jpg"",""stimuli/basketball.jpg"",""stimuli/horse.jpg"",""stimuli/sheep.jpg""]","stimuli/hammer.jpg","stimuli/basketball.jpg","stimuli/horse.jpg","stimuli/sheep.jpg","pos1","stimuli/hammer.jpg","","","0","8","8","8","stimuli/stars_2.png","9","","","","","","",""
"instructions","6","31146","0.0-6.0","p722338","A2JDYN6QM8M5UN","3RDTX9JRTZ7MP6YQMJD0Z3DG4HK978","3DQQ64TANIRPUSDS1IMA2T71LPUWP4","model","match","uniform","","","","","","[{""page_index"":0,""viewing_time"":12473}]","12473.5","","","","","","","","","","","","","","","","","","","","","","","",""
"explore-choice","7","33901","0.0-7.0","p722338","A2JDYN6QM8M5UN","3RDTX9JRTZ7MP6YQMJD0Z3DG4HK978","3DQQ64TANIRPUSDS1IMA2T71LPUWP4","model","match","uniform","","","","","","","2248.5999999046326","33299","35547.59999990463","[""stimuli/HF10_SC.jpg"",""stimuli/AF10_DO.jpg"",""stimuli/AM06_AO.jpg"",""stimuli/WF04_HO.jpg""]","stimuli/HF10_SC.jpg","stimuli/AF10_DO.jpg","stimuli/AM06_AO.jpg","stimuli/WF04_HO.jpg","pos2","stimuli/AF10_DO.jpg","DO","AF10","1","3","6","8","stimuli/stars_6.png","4","[""SC"",""DO"",""AO"",""HO""]","[""HF10"",""AF10"",""AM06"",""WF04""]","[0,6,7,6]","[2,8,6,4]","","",""
"show-reward","8","35919","0.0-8.0","p722338","A2JDYN6QM8M5UN","3RDTX9JRTZ7MP6YQMJD0Z3DG4HK978","3DQQ64TANIRPUSDS1IMA2T71LPUWP4","model","match","uniform","","","","","","","","36053.59999990463","38068.39999985695","","","","","","","","","","","","6","","stimuli/stars_6.png","4","","","","","stimuli/AF10_DO.jpg","",""
"explore-choice","9","38346","0.0-9.0","p722338","A2JDYN6QM8M5UN","3RDTX9JRTZ7MP6YQMJD0Z3DG4HK978","3DQQ64TANIRPUSDS1IMA2T71LPUWP4","model","match","uniform","","","","","","","1922.2999999523163","38070.799999952316","39993.09999990463","[""stimuli/AF10_DO.jpg"",""stimuli/AM06_AO.jpg"",""stimuli/WF04_SC.jpg"",""stimuli/HF10_HO.jpg""]","stimuli/AF10_DO.jpg","stimuli/AM06_AO.jpg","stimuli/WF04_SC.jpg","stimuli/HF10_HO.jpg","pos2","stimuli/AM06_AO.jpg","AO","AM06","1","3","6","6","stimuli/stars_6.png","7","[""DO"",""AO"",""SC"",""HO""]","[""AF10"",""AM06"",""WF04"",""HF10""]","[8,6,4,0]","[8,6,4,2]","","",""
"show-reward","10","40364","0.0-10.0","p722338","A2JDYN6QM8M5UN","3RDTX9JRTZ7MP6YQMJD0Z3DG4HK978","3DQQ64TANIRPUSDS1IMA2T71LPUWP4","model","match","uniform","","","","","","","","40498","42513.199999809265","","","","","","","","","","","","6","","stimuli/stars_6.png","7","","","","","stimuli/AM06_AO.jpg","",""
"explore-choice","11","42418","0.0-11.0","p722338","A2JDYN6QM8M5UN","3RDTX9JRTZ7MP6YQMJD0Z3DG4HK978","3DQQ64TANIRPUSDS1IMA2T71LPUWP4","model","match","uniform","","","","","","","1551.8999998569489","42515.5","44067.39999985695","[""stimuli/AF10_HO.jpg"",""stimuli/WF04_AO.jpg"",""stimuli/HF10_DO.jpg"",""stimuli/AM06_SC.jpg""]","stimuli/AF10_HO.jpg","stimuli/WF04_AO.jpg","stimuli/HF10_DO.jpg","stimuli/AM06_SC.jpg","pos3","stimuli/HF10_DO.jpg","DO","HF10","2","1.5","3","2","stimuli/stars_3.png","8.5","[""HO"",""AO"",""DO"",""SC""]","[""AF10"",""WF04"",""HF10"",""AM06""]","[10,5,3,8]","[8,4,2,6]","","",""
"show-reward","12","44423","0.0-12.0","p722338","A2JDYN6QM8M5UN","3RDTX9JRTZ7MP6YQMJD0Z3DG4HK978","3DQQ64TANIRPUSDS1IMA2T71LPUWP4","model","match","uniform","","","","","","","","44569.699999809265","46573","","","","","","","","","","","","3","","stimuli/stars_3.png","8.5","","","","","stimuli/HF10_DO.jpg","",""
"explore-choice","13","46223","0.0-13.0","p722338","A2JDYN6QM8M5UN","3RDTX9JRTZ7MP6YQMJD0Z3DG4HK978","3DQQ64TANIRPUSDS1IMA2T71LPUWP4","model","match","uniform","","","","","","","1284","46574.699999809265","47858.699999809265","[""stimuli/AF10_AO.jpg"",""stimuli/WF04_DO.jpg"",""stimuli/AM06_SC.jpg"",""stimuli/HF10_HO.jpg""]","stimuli/AF10_AO.jpg","stimuli/WF04_DO.jpg","stimuli/AM06_SC.jpg","stimuli/HF10_HO.jpg","pos2","stimuli/WF04_DO.jpg","DO","WF04","1","2","4","4","stimuli/stars_4.png","10.5","[""AO"",""DO"",""SC"",""HO""]","[""AF10"",""WF04"",""AM06"",""HF10""]","[7,4,6,4]","[8,4,6,2]","","",""
"show-reward","14","48235","0.0-14.0","p722338","A2JDYN6QM8M5UN","3RDTX9JRTZ7MP6YQMJD0Z3DG4HK978","3DQQ64TANIRPUSDS1IMA2T71LPUWP4","model","match","uniform","","","","","","","","48374.199999809265","50384.59999990463","","","","","","","","","","","","4","","stimuli/stars_4.png","10.5","","","","","stimuli/WF04_DO.jpg","",""
"explore-choice","15","50555","0.0-15.0","p722338","A2JDYN6QM8M5UN","3RDTX9JRTZ7MP6YQMJD0Z3DG4HK978","3DQQ64TANIRPUSDS1IMA2T71LPUWP4","model","match","uniform","","","","","","","1808.5999999046326","50386.59999990463","52195.199999809265","[""stimuli/AF10_DO.jpg"",""stimuli/WF04_AO.jpg"",""stimuli/AM06_HO.jpg"",""stimuli/HF10_SC.jpg""]","stimuli/AF10_DO.jpg","stimuli/WF04_AO.jpg","stimuli/AM06_HO.jpg","stimuli/HF10_SC.jpg","pos1","stimuli/AF10_DO.jpg","DO","AF10","0","3.5","7","8","stimuli/stars_7.png","14","[""DO"",""AO"",""HO"",""SC""]","[""AF10"",""WF04"",""AM06"",""HF10""]","[7,3,8,0]","[8,4,6,2]","","",""
"show-reward","16","52573","0.0-16.0","p722338","A2JDYN6QM8M5UN","3RDTX9JRTZ7MP6YQMJD0Z3DG4HK978","3DQQ64TANIRPUSDS1IMA2T71LPUWP4","model","match","uniform","","","","","","","","52706.699999809265","54722.09999990463","","","","","","","","","","","","7","","stimuli/stars_7.png","14","","","","","stimuli/AF10_DO.jpg","",""
"explore-choice","17","55107","0.0-17.0","p722338","A2JDYN6QM8M5UN","3RDTX9JRTZ7MP6YQMJD0Z3DG4HK978","3DQQ64TANIRPUSDS1IMA2T71LPUWP4","model","match","uniform","","","","","","","2021.2999999523163","54724.09999990463","56745.39999985695","[""stimuli/WF04_DO.jpg"",""stimuli/AM06_AO.jpg"",""stimuli/HF10_HO.jpg"",""stimuli/AF10_SC.jpg""]","stimuli/WF04_DO.jpg","stimuli/AM06_AO.jpg","stimuli/HF10_HO.jpg","stimuli/AF10_SC.jpg","pos4","stimuli/AF10_SC.jpg","SC","AF10","3","3.5","7","8","stimuli/stars_7.png","17.5","[""DO"",""AO"",""HO"",""SC""]","[""WF04"",""AM06"",""HF10"",""AF10""]","[6,8,0,7]","[4,6,2,8]","","",""
"show-reward","18","57120","0.0-18.0","p722338","A2JDYN6QM8M5UN","3RDTX9JRTZ7MP6YQMJD0Z3DG4HK978","3DQQ64TANIRPUSDS1IMA2T71LPUWP4","model","match","uniform","","","","","","","","57258.5","59270.09999990463","","","","","","","","","","","","7","","stimuli/stars_7.png","17.5","","","","","stimuli/AF10_SC.jpg","",""
"explore-choice","19","58840","0.0-19.0","p722338","A2JDYN6QM8M5UN","3RDTX9JRTZ7MP6YQMJD0Z3DG4HK978","3DQQ64TANIRPUSDS1IMA2T71LPUWP4","model","match","uniform","","","","","","","1206.5999999046326","59277.299999952316","60483.89999985695","[""stimuli/HF10_AO.jpg"",""stimuli/AM06_SC.jpg"",""stimuli/AF10_HO.jpg"",""stimuli/WF04_DO.jpg""]","stimuli/HF10_AO.jpg","stimuli/AM06_SC.jpg","stimuli/AF10_HO.jpg","stimuli/WF04_DO.jpg","pos3","stimuli/AF10_HO.jpg","HO","AF10","2","4.5","9","8","stimuli/stars_9.png","22","[""AO"",""SC"",""HO"",""DO""]","[""HF10"",""AM06"",""AF10"",""WF04""]","[4,5,9,5]","[2,6,8,4]","","",""
"show-reward","20","60845","0.0-20.0","p722338","A2JDYN6QM8M5UN","3RDTX9JRTZ7MP6YQMJD0Z3DG4HK978","3DQQ64TANIRPUSDS1IMA2T71LPUWP4","model","match","uniform","","","","","","","","60991.799999952316","62994.699999809265","","","","","","","","","","","","9","","stimuli/stars_9.png","22","","","","","stimuli/AF10_HO.jpg","",""
"explore-choice","21","62261","0.0-21.0","p722338","A2JDYN6QM8M5UN","3RDTX9JRTZ7MP6YQMJD0Z3DG4HK978","3DQQ64TANIRPUSDS1IMA2T71LPUWP4","model","match","uniform","","","","","","","913.7000000476837","62995.89999985695","63909.59999990463","[""stimuli/AM06_DO.jpg"",""stimuli/HF10_SC.jpg"",""stimuli/WF04_HO.jpg"",""stimuli/AF10_AO.jpg""]","stimuli/AM06_DO.jpg","stimuli/HF10_SC.jpg","stimuli/WF04_HO.jpg","stimuli/AF10_AO.jpg","pos4","stimuli/AF10_AO.jpg","AO","AF10","3","5","10","8","stimuli/stars_10.png","27","[""DO"",""SC"",""HO"",""AO""]","[""AM06"",""HF10"",""WF04"",""AF10""]","[8,1,2,10]","[6,2,4,8]","","",""
"show-reward","22","64281","0.0-22.0","p722338","A2JDYN6QM8M5UN","3RDTX9JRTZ7MP6YQMJD0Z3DG4HK978","3DQQ64TANIRPUSDS1IMA2T71LPUWP4","model","match","uniform","","","","","","","","64412.89999985695","66430.69999980927","","","","","","","","","","","","10","","stimuli/stars_10.png","27","","","","","stimuli/AF10_AO.jpg","",""
"explore-choice","23","66317","0.0-23.0","p722338","A2JDYN6QM8M5UN","3RDTX9JRTZ7MP6YQMJD0Z3DG4HK978","3DQQ64TANIRPUSDS1IMA2T71LPUWP4","model","match","uniform","","","","","","","1532.4000000953674","66432.89999985695","67965.29999995232","[""stimuli/WF04_SC.jpg"",""stimuli/HF10_DO.jpg"",""stimuli/AF10_AO.jpg"",""stimuli/AM06_HO.jpg""]","stimuli/WF04_SC.jpg","stimuli/HF10_DO.jpg","stimuli/AF10_AO.jpg","stimuli/AM06_HO.jpg","pos3","stimuli/AF10_AO.jpg","AO","AF10","2","4","8","8","stimuli/stars_8.png","31","[""SC"",""DO"",""AO"",""HO""]","[""WF04"",""HF10"",""AF10"",""AM06""]","[5,2,8,6]","[4,2,8,6]","","",""
"show-reward","24","68321","0.0-24.0","p722338","A2JDYN6QM8M5UN","3RDTX9JRTZ7MP6YQMJD0Z3DG4HK978","3DQQ64TANIRPUSDS1IMA2T71LPUWP4","model","match","uniform","","","","","","","","68468.39999985695","70471.29999995232","","","","","","","","","","","","8","","stimuli/stars_8.png","31","","","","","stimuli/AF10_AO.jpg","",""
"explore-choice","25","69577","0.0-25.0","p722338","A2JDYN6QM8M5UN","3RDTX9JRTZ7MP6YQMJD0Z3DG4HK978","3DQQ64TANIRPUSDS1IMA2T71LPUWP4","model","match","uniform","","","","","","","751.3999998569489","70472.5","71223.89999985695","[""stimuli/HF10_DO.jpg"",""stimuli/AM06_SC.jpg"",""stimuli/WF04_HO.jpg"",""stimuli/AF10_AO.jpg""]","stimuli/HF10_DO.jpg","stimuli/AM06_SC.jpg","stimuli/WF04_HO.jpg","stimuli/AF10_AO.jpg","pos4","stimuli/AF10_AO.jpg","AO","AF10","3","3","6","8","stimuli/stars_6.png","34","[""DO"",""SC"",""HO"",""AO""]","[""HF10"",""AM06"",""WF04"",""AF10""]","[4,7,3,6]","[2,6,4,8]","","",""
"show-reward","26","71588","0.0-26.0","p722338","A2JDYN6QM8M5UN","3RDTX9JRTZ7MP6YQMJD0Z3DG4HK978","3DQQ64TANIRPUSDS1IMA2T71LPUWP4","model","match","uniform","","","","","","","","71728.89999985695","73738.09999990463","","","","","","","","","","","","6","","stimuli/stars_6.png","34","","","","","stimuli/AF10_AO.jpg","",""
"explore-choice","27","72938","0.0-27.0","p722338","A2JDYN6QM8M5UN","3RDTX9JRTZ7MP6YQMJD0Z3DG4HK978","3DQQ64TANIRPUSDS1IMA2T71LPUWP4","model","match","uniform","","","","","","","841.7000000476837","73739.79999995232","74581.5","[""stimuli/AF10_HO.jpg"",""stimuli/WF04_DO.jpg"",""stimuli/AM06_AO.jpg"",""stimuli/HF10_SC.jpg""]","stimuli/AF10_HO.jpg","stimuli/WF04_DO.jpg","stimuli/AM06_AO.jpg","stimuli/HF10_SC.jpg","pos3","stimuli/AM06_AO.jpg","AO","AM06","2","4","8","6","stimuli/stars_8.png","38","[""HO"",""DO"",""AO"",""SC""]","[""AF10"",""WF04"",""AM06"",""HF10""]","[7,6,8,0]","[8,4,6,2]","","",""
"show-reward","28","74942","0.0-28.0","p722338","A2JDYN6QM8M5UN","3RDTX9JRTZ7MP6YQMJD0Z3DG4HK978","3DQQ64TANIRPUSDS1IMA2T71LPUWP4","model","match","uniform","","","","","","","","75089.79999995232","77091.89999985695","","","","","","","","","","","","8","","stimuli/stars_8.png","38","","","","","stimuli/AM06_AO.jpg","",""
"explore-choice","29","76282","0.0-29.0","p722338","A2JDYN6QM8M5UN","3RDTX9JRTZ7MP6YQMJD0Z3DG4HK978","3DQQ64TANIRPUSDS1IMA2T71LPUWP4","model","match","uniform","","","","","","","830.2999999523163","77094","77924.29999995232","[""stimuli/AM06_DO.jpg"",""stimuli/HF10_SC.jpg"",""stimuli/WF04_AO.jpg"",""stimuli/AF10_HO.jpg""]","stimuli/AM06_DO.jpg","stimuli/HF10_SC.jpg","stimuli/WF04_AO.jpg","stimuli/AF10_HO.jpg","pos4","stimuli/AF10_HO.jpg","HO","AF10","3","5","10","8","stimuli/stars_10.png","43","[""DO"",""SC"",""AO"",""HO""]","[""AM06"",""HF10"",""WF04"",""AF10""]","[7,1,4,10]","[6,2,4,8]","","",""
"show-reward","30","78298","0.0-30.0","p722338","A2JDYN6QM8M5UN","3RDTX9JRTZ7MP6YQMJD0Z3DG4HK978","3DQQ64TANIRPUSDS1IMA2T71LPUWP4","model","match","uniform","","","","","","","","78433.29999995232","80447.59999990463","","","","","","","","","","","","10","","stimuli/stars_10.png","43","","","","","stimuli/AF10_HO.jpg","",""
"explore-choice","31","79460","0.0-31.0","p722338","A2JDYN6QM8M5UN","3RDTX9JRTZ7MP6YQMJD0Z3DG4HK978","3DQQ64TANIRPUSDS1IMA2T71LPUWP4","model","match","uniform","","","","","","","659","80449.5","81108.5","[""stimuli/AM06_DO.jpg"",""stimuli/HF10_HO.jpg"",""stimuli/AF10_AO.jpg"",""stimuli/WF04_SC.jpg""]","stimuli/AM06_DO.jpg","stimuli/HF10_HO.jpg","stimuli/AF10_AO.jpg","stimuli/WF04_SC.jpg","pos3","stimuli/AF10_AO.jpg","AO","AF10","2","4.5","9","8","stimuli/stars_9.png","47.5","[""DO"",""HO"",""AO"",""SC""]","[""AM06"",""HF10"",""AF10"",""WF04""]","[4,1,9,4]","[6,2,8,4]","","",""
"show-reward","32","81481","0.0-32.0","p722338","A2JDYN6QM8M5UN","3RDTX9JRTZ7MP6YQMJD0Z3DG4HK978","3DQQ64TANIRPUSDS1IMA2T71LPUWP4","model","match","uniform","","","","","","","","81611.29999995232","83630.59999990463","","","","","","","","","","","","9","","stimuli/stars_9.png","47.5","","","","","stimuli/AF10_AO.jpg","",""
"explore-choice","33","82811","0.0-33.0","p722338","A2JDYN6QM8M5UN","3RDTX9JRTZ7MP6YQMJD0Z3DG4HK978","3DQQ64TANIRPUSDS1IMA2T71LPUWP4","model","match","uniform","","","","","","","818.8000001907349","83632.69999980927","84451.5","[""stimuli/WF04_SC.jpg"",""stimuli/AF10_HO.jpg"",""stimuli/AM06_DO.jpg"",""stimuli/HF10_AO.jpg""]","stimuli/WF04_SC.jpg","stimuli/AF10_HO.jpg","stimuli/AM06_DO.jpg","stimuli/HF10_AO.jpg","pos2","stimuli/AF10_HO.jpg","HO","AF10","1","5","10","8","stimuli/stars_10.png","52.5","[""SC"",""HO"",""DO"",""AO""]","[""WF04"",""AF10"",""AM06"",""HF10""]","[2,10,7,3]","[4,8,6,2]","","",""
"show-reward","34","84815","0.0-34.0","p722338","A2JDYN6QM8M5UN","3RDTX9JRTZ7MP6YQMJD0Z3DG4HK978","3DQQ64TANIRPUSDS1IMA2T71LPUWP4","model","match","uniform","","","","","","","","84962.89999985695","86964.89999985695","","","","","","","","","","","","10","","stimuli/stars_10.png","52.5","","","","","stimuli/AF10_HO.jpg","",""
"explore-choice","35","85955","0.0-35.0","p722338","A2JDYN6QM8M5UN","3RDTX9JRTZ7MP6YQMJD0Z3DG4HK978","3DQQ64TANIRPUSDS1IMA2T71LPUWP4","model","match","uniform","","","","","","","634.5","86966.09999990463","87600.59999990463","[""stimuli/WF04_DO.jpg"",""stimuli/AF10_AO.jpg"",""stimuli/AM06_HO.jpg"",""stimuli/HF10_SC.jpg""]","stimuli/WF04_DO.jpg","stimuli/AF10_AO.jpg","stimuli/AM06_HO.jpg","stimuli/HF10_SC.jpg","pos2","stimuli/AF10_AO.jpg","AO","AF10","1","4","8","8","stimuli/stars_8.png","56.5","[""DO"",""AO"",""HO"",""SC""]","[""WF04"",""AF10"",""AM06"",""HF10""]","[2,8,6,2]","[4,8,6,2]","","",""
"show-reward","36","87969","0.0-36.0","p722338","A2JDYN6QM8M5UN","3RDTX9JRTZ7MP6YQMJD0Z3DG4HK978","3DQQ64TANIRPUSDS1IMA2T71LPUWP4","model","match","uniform","","","","","","","","88106.39999985695","90119","","","","","","","","","","","","8","","stimuli/stars_8.png","56.5","","","","","stimuli/AF10_AO.jpg","",""
"explore-choice","37","90006","0.0-37.0","p722338","A2JDYN6QM8M5UN","3RDTX9JRTZ7MP6YQMJD0Z3DG4HK978","3DQQ64TANIRPUSDS1IMA2T71LPUWP4","model","match","uniform","","","","","","","1527.1000001430511","90120.69999980927","91647.79999995232","[""stimuli/AF10_DO.jpg"",""stimuli/HF10_AO.jpg"",""stimuli/WF04_HO.jpg"",""stimuli/AM06_SC.jpg""]","stimuli/AF10_DO.jpg","stimuli/HF10_AO.jpg","stimuli/WF04_HO.jpg","stimuli/AM06_SC.jpg","pos1","stimuli/AF10_DO.jpg","DO","AF10","0","4","8","8","stimuli/stars_8.png","60.5","[""DO"",""AO"",""HO"",""SC""]","[""AF10"",""HF10"",""WF04"",""AM06""]","[8,1,4,6]","[8,2,4,6]","","",""
"show-reward","38","92010","0.0-38.0","p722338","A2JDYN6QM8M5UN","3RDTX9JRTZ7MP6YQMJD0Z3DG4HK978","3DQQ64TANIRPUSDS1IMA2T71LPUWP4","model","match","uniform","","","","","","","","92157.59999990463","94159.89999985695","","","","","","","","","","","","8","","stimuli/stars_8.png","60.5","","","","","stimuli/AF10_DO.jpg","",""
"explore-choice","39","93198","0.0-39.0","p722338","A2JDYN6QM8M5UN","3RDTX9JRTZ7MP6YQMJD0Z3DG4HK978","3DQQ64TANIRPUSDS1IMA2T71LPUWP4","model","match","uniform","","","","","","","669.5","94162.79999995232","94832.29999995232","[""stimuli/HF10_AO.jpg"",""stimuli/AF10_SC.jpg"",""stimuli/WF04_HO.jpg"",""stimuli/AM06_DO.jpg""]","stimuli/HF10_AO.jpg","stimuli/AF10_SC.jpg","stimuli/WF04_HO.jpg","stimuli/AM06_DO.jpg","pos2","stimuli/AF10_SC.jpg","SC","AF10","1","3","6","8","stimuli/stars_6.png","63.5","[""AO"",""SC"",""HO"",""DO""]","[""HF10"",""AF10"",""WF04"",""AM06""]","[2,6,3,4]","[2,8,4,6]","","",""
"show-reward","40","95208","0.0-40.0","p722338","A2JDYN6QM8M5UN","3RDTX9JRTZ7MP6YQMJD0Z3DG4HK978","3DQQ64TANIRPUSDS1IMA2T71LPUWP4","model","match","uniform","","","","","","","","95349.39999985695","97357.59999990463","","","","","","","","","","","","6","","stimuli/stars_6.png","63.5","","","","","stimuli/AF10_SC.jpg","",""
"explore-choice","41","96473","0.0-41.0","p722338","A2JDYN6QM8M5UN","3RDTX9JRTZ7MP6YQMJD0Z3DG4HK978","3DQQ64TANIRPUSDS1IMA2T71LPUWP4","model","match","uniform","","","","","","","759","97359.19999980927","98118.19999980927","[""stimuli/HF10_AO.jpg"",""stimuli/AF10_SC.jpg"",""stimuli/WF04_DO.jpg"",""stimuli/AM06_HO.jpg""]","stimuli/HF10_AO.jpg","stimuli/AF10_SC.jpg","stimuli/WF04_DO.jpg","stimuli/AM06_HO.jpg","pos4","stimuli/AM06_HO.jpg","HO","AM06","3","3.5","7","6","stimuli/stars_7.png","67","[""AO"",""SC"",""DO"",""HO""]","[""HF10"",""AF10"",""WF04"",""AM06""]","[4,8,3,7]","[2,8,4,6]","","",""
"show-reward","42","98477","0.0-42.0","p722338","A2JDYN6QM8M5UN","3RDTX9JRTZ7MP6YQMJD0Z3DG4HK978","3DQQ64TANIRPUSDS1IMA2T71LPUWP4","model","match","uniform","","","","","","","","98624.69999980927","100627.09999990463","","","","","","","","","","","","7","","stimuli/stars_7.png","67","","","","","stimuli/AM06_HO.jpg","",""
"explore-choice","43","99685","0.0-43.0","p722338","A2JDYN6QM8M5UN","3RDTX9JRTZ7MP6YQMJD0Z3DG4HK978","3DQQ64TANIRPUSDS1IMA2T71LPUWP4","model","match","uniform","","","","","","","695.2999999523163","100632","101327.29999995232","[""stimuli/AF10_SC.jpg"",""stimuli/AM06_DO.jpg"",""stimuli/WF04_AO.jpg"",""stimuli/HF10_HO.jpg""]","stimuli/AF10_SC.jpg","stimuli/AM06_DO.jpg","stimuli/WF04_AO.jpg","stimuli/HF10_HO.jpg","pos1","stimuli/AF10_SC.jpg","SC","AF10","0","3.5","7","8","stimuli/stars_7.png","70.5","[""SC"",""DO"",""AO"",""HO""]","[""AF10"",""AM06"",""WF04"",""HF10""]","[7,7,2,0]","[8,6,4,2]","","",""
"show-reward","44","101704","0.0-44.0","p722338","A2JDYN6QM8M5UN","3RDTX9JRTZ7MP6YQMJD0Z3DG4HK978","3DQQ64TANIRPUSDS1IMA2T71LPUWP4","model","match","uniform","","","","","","","","101836.29999995232","103854","","","","","","","","","","","","7","","stimuli/stars_7.png","70.5","","","","","stimuli/AF10_SC.jpg","",""
"explore-choice","45","102985","0.0-45.0","p722338","A2JDYN6QM8M5UN","3RDTX9JRTZ7MP6YQMJD0Z3DG4HK978","3DQQ64TANIRPUSDS1IMA2T71LPUWP4","model","match","uniform","","","","","","","775.5999999046326","103856","104631.59999990463","[""stimuli/AF10_HO.jpg"",""stimuli/AM06_AO.jpg"",""stimuli/WF04_SC.jpg"",""stimuli/HF10_DO.jpg""]","stimuli/AF10_HO.jpg","stimuli/AM06_AO.jpg","stimuli/WF04_SC.jpg","stimuli/HF10_DO.jpg","pos1","stimuli/AF10_HO.jpg","HO","AF10","0","5","10","8","stimuli/stars_10.png","75.5","[""HO"",""AO"",""SC"",""DO""]","[""AF10"",""AM06"",""WF04"",""HF10""]","[10,4,4,1]","[8,6,4,2]","","",""
"show-reward","46","104996","0.0-46.0","p722338","A2JDYN6QM8M5UN","3RDTX9JRTZ7MP6YQMJD0Z3DG4HK978","3DQQ64TANIRPUSDS1IMA2T71LPUWP4","model","match","uniform","","","","","","","","105136.09999990463","107145.59999990463","","","","","","","","","","","","10","","stimuli/stars_10.png","75.5","","","","","stimuli/AF10_HO.jpg","",""
"explore-choice","47","106401","0.0-47.0","p722338","A2JDYN6QM8M5UN","3RDTX9JRTZ7MP6YQMJD0Z3DG4HK978","3DQQ64TANIRPUSDS1IMA2T71LPUWP4","model","match","uniform","","","","","","","898.7000000476837","107149.09999990463","108047.79999995232","[""stimuli/AM06_HO.jpg"",""stimuli/AF10_DO.jpg"",""stimuli/HF10_AO.jpg"",""stimuli/WF04_SC.jpg""]","stimuli/AM06_HO.jpg","stimuli/AF10_DO.jpg","stimuli/HF10_AO.jpg","stimuli/WF04_SC.jpg","pos2","stimuli/AF10_DO.jpg","DO","AF10","1","3.5","7","8","stimuli/stars_7.png","79","[""HO"",""DO"",""AO"",""SC""]","[""AM06"",""AF10"",""HF10"",""WF04""]","[8,7,4,2]","[6,8,2,4]","","",""
"show-reward","48","108408","0.0-48.0","p722338","A2JDYN6QM8M5UN","3RDTX9JRTZ7MP6YQMJD0Z3DG4HK978","3DQQ64TANIRPUSDS1IMA2T71LPUWP4","model","match","uniform","","","","","","","","108552.59999990463","110557.39999985695","","","","","","","","","","","","7","","stimuli/stars_7.png","79","","","","","stimuli/AF10_DO.jpg","",""
"explore-choice","49","109748","0.0-49.0","p722338","A2JDYN6QM8M5UN","3RDTX9JRTZ7MP6YQMJD0Z3DG4HK978","3DQQ64TANIRPUSDS1IMA2T71LPUWP4","model","match","uniform","","","","","","","832.8999998569489","110559.5","111392.39999985695","[""stimuli/AM06_SC.jpg"",""stimuli/AF10_DO.jpg"",""stimuli/WF04_AO.jpg"",""stimuli/HF10_HO.jpg""]","stimuli/AM06_SC.jpg","stimuli/AF10_DO.jpg","stimuli/WF04_AO.jpg","stimuli/HF10_HO.jpg","pos2","stimuli/AF10_DO.jpg","DO","AF10","1","3.5","7","8","stimuli/stars_7.png","82.5","[""SC"",""DO"",""AO"",""HO""]","[""AM06"",""AF10"",""WF04"",""HF10""]","[8,7,3,3]","[6,8,4,2]","","",""
"show-reward","50","111765","0.0-50.0","p722338","A2JDYN6QM8M5UN","3RDTX9JRTZ7MP6YQMJD0Z3DG4HK978","3DQQ64TANIRPUSDS1IMA2T71LPUWP4","model","match","uniform","","","","","","","","111899.79999995232","113913.79999995232","","","","","","","","","","","","7","","stimuli/stars_7.png","82.5","","","","","stimuli/AF10_DO.jpg","",""
"explore-choice","51","112827","0.0-51.0","p722338","A2JDYN6QM8M5UN","3RDTX9JRTZ7MP6YQMJD0Z3DG4HK978","3DQQ64TANIRPUSDS1IMA2T71LPUWP4","model","match","uniform","","","","","","","548.7000000476837","113916.29999995232","114465","[""stimuli/WF04_HO.jpg"",""stimuli/AF10_SC.jpg"",""stimuli/HF10_DO.jpg"",""stimuli/AM06_AO.jpg""]","stimuli/WF04_HO.jpg","stimuli/AF10_SC.jpg","stimuli/HF10_DO.jpg","stimuli/AM06_AO.jpg","pos2","stimuli/AF10_SC.jpg","SC","AF10","1","4","8","8","stimuli/stars_8.png","86.5","[""HO"",""SC"",""DO"",""AO""]","[""WF04"",""AF10"",""HF10"",""AM06""]","[2,8,1,7]","[4,8,2,6]","","",""
"show-reward","52","114844","0.0-52.0","p722338","A2JDYN6QM8M5UN","3RDTX9JRTZ7MP6YQMJD0Z3DG4HK978","3DQQ64TANIRPUSDS1IMA2T71LPUWP4","model","match","uniform","","","","","","","","114978.29999995232","116993.5","","","","","","","","","","","","8","","stimuli/stars_8.png","86.5","","","","","stimuli/AF10_SC.jpg","",""
"explore-choice","53","116059","0.0-53.0","p722338","A2JDYN6QM8M5UN","3RDTX9JRTZ7MP6YQMJD0Z3DG4HK978","3DQQ64TANIRPUSDS1IMA2T71LPUWP4","model","match","uniform","","","","","","","712","116996.5","117708.5","[""stimuli/WF04_AO.jpg"",""stimuli/AM06_HO.jpg"",""stimuli/HF10_DO.jpg"",""stimuli/AF10_SC.jpg""]","stimuli/WF04_AO.jpg","stimuli/AM06_HO.jpg","stimuli/HF10_DO.jpg","stimuli/AF10_SC.jpg","pos4","stimuli/AF10_SC.jpg","SC","AF10","3","3.5","7","8","stimuli/stars_7.png","90","[""AO"",""HO"",""DO"",""SC""]","[""WF04"",""AM06"",""HF10"",""AF10""]","[5,8,4,7]","[4,6,2,8]","","",""
"show-reward","54","118081","0.0-54.0","p722338","A2JDYN6QM8M5UN","3RDTX9JRTZ7MP6YQMJD0Z3DG4HK978","3DQQ64TANIRPUSDS1IMA2T71LPUWP4","model","match","uniform","","","","","","","","118210.5","120230.5","","","","","","","","","","","","7","","stimuli/stars_7.png","90","","","","","stimuli/AF10_SC.jpg","",""
"explore-choice","55","119389","0.0-55.0","p722338","A2JDYN6QM8M5UN","3RDTX9JRTZ7MP6YQMJD0Z3DG4HK978","3DQQ64TANIRPUSDS1IMA2T71LPUWP4","model","match","uniform","","","","","","","792.4000000953674","120232.59999990463","121025","[""stimuli/AM06_DO.jpg"",""stimuli/AF10_SC.jpg"",""stimuli/WF04_AO.jpg"",""stimuli/HF10_HO.jpg""]","stimuli/AM06_DO.jpg","stimuli/AF10_SC.jpg","stimuli/WF04_AO.jpg","stimuli/HF10_HO.jpg","pos2","stimuli/AF10_SC.jpg","SC","AF10","1","3.5","7","8","stimuli/stars_7.png","93.5","[""DO"",""SC"",""AO"",""HO""]","[""AM06"",""AF10"",""WF04"",""HF10""]","[7,7,2,0]","[6,8,4,2]","","",""
"show-reward","56","121397","0.0-56.0","p722338","A2JDYN6QM8M5UN","3RDTX9JRTZ7MP6YQMJD0Z3DG4HK978","3DQQ64TANIRPUSDS1IMA2T71LPUWP4","model","match","uniform","","","","","","","","121540.79999995232","123546.39999985695","","","","","","","","","","","","7","","stimuli/stars_7.png","93.5","","","","","stimuli/AF10_SC.jpg","",""
"explore-choice","57","122478","0.0-57.0","p722338","A2JDYN6QM8M5UN","3RDTX9JRTZ7MP6YQMJD0Z3DG4HK978","3DQQ64TANIRPUSDS1IMA2T71LPUWP4","model","match","uniform","","","","","","","578.1000001430511","123548.19999980927","124126.29999995232","[""stimuli/WF04_AO.jpg"",""stimuli/AM06_HO.jpg"",""stimuli/HF10_SC.jpg"",""stimuli/AF10_DO.jpg""]","stimuli/WF04_AO.jpg","stimuli/AM06_HO.jpg","stimuli/HF10_SC.jpg","stimuli/AF10_DO.jpg","pos4","stimuli/AF10_DO.jpg","DO","AF10","3","3.5","7","8","stimuli/stars_7.png","97","[""AO"",""HO"",""SC"",""DO""]","[""WF04"",""AM06"",""HF10"",""AF10""]","[3,8,0,7]","[4,6,2,8]","","",""
"show-reward","58","124485","0.0-58.0","p722338","A2JDYN6QM8M5UN","3RDTX9JRTZ7MP6YQMJD0Z3DG4HK978","3DQQ64TANIRPUSDS1IMA2T71LPUWP4","model","match","uniform","","","","","","","","124629.69999980927","126635.39999985695","","","","","","","","","","","","7","","stimuli/stars_7.png","97","","","","","stimuli/AF10_DO.jpg","",""
"explore-choice","59","125875","0.0-59.0","p722338","A2JDYN6QM8M5UN","3RDTX9JRTZ7MP6YQMJD0Z3DG4HK978","3DQQ64TANIRPUSDS1IMA2T71LPUWP4","model","match","uniform","","","","","","","878.4000000953674","126637.89999985695","127516.29999995232","[""stimuli/AF10_AO.jpg"",""stimuli/HF10_SC.jpg"",""stimuli/WF04_HO.jpg"",""stimuli/AM06_DO.jpg""]","stimuli/AF10_AO.jpg","stimuli/HF10_SC.jpg","stimuli/WF04_HO.jpg","stimuli/AM06_DO.jpg","pos1","stimuli/AF10_AO.jpg","AO","AF10","0","5","10","8","stimuli/stars_10.png","102","[""AO"",""SC"",""HO"",""DO""]","[""AF10"",""HF10"",""WF04"",""AM06""]","[10,1,2,8]","[8,2,4,6]","","",""
"show-reward","60","127880","0.0-60.0","p722338","A2JDYN6QM8M5UN","3RDTX9JRTZ7MP6YQMJD0Z3DG4HK978","3DQQ64TANIRPUSDS1IMA2T71LPUWP4","model","match","uniform","","","","","","","","128026.09999990463","130029.19999980927","","","","","","","","","","","","10","","stimuli/stars_10.png","102","","","","","stimuli/AF10_AO.jpg","",""
"explore-choice","61","129166","0.0-61.0","p722338","A2JDYN6QM8M5UN","3RDTX9JRTZ7MP6YQMJD0Z3DG4HK978","3DQQ64TANIRPUSDS1IMA2T71LPUWP4","model","match","uniform","","","","","","","763.0999999046326","130031.59999990463","130794.69999980927","[""stimuli/WF04_HO.jpg"",""stimuli/HF10_AO.jpg"",""stimuli/AM06_DO.jpg"",""stimuli/AF10_SC.jpg""]","stimuli/WF04_HO.jpg","stimuli/HF10_AO.jpg","stimuli/AM06_DO.jpg","stimuli/AF10_SC.jpg","pos4","stimuli/AF10_SC.jpg","SC","AF10","3","3","6","8","stimuli/stars_6.png","105","[""HO"",""AO"",""DO"",""SC""]","[""WF04"",""HF10"",""AM06"",""AF10""]","[3,2,4,6]","[4,2,6,8]","","",""
"show-reward","62","131176","0.0-62.0","p722338","A2JDYN6QM8M5UN","3RDTX9JRTZ7MP6YQMJD0Z3DG4HK978","3DQQ64TANIRPUSDS1IMA2T71LPUWP4","model","match","uniform","","","","","","","","131317.19999980927","133324","","","","","","","","","","","","6","","stimuli/stars_6.png","105","","","","","stimuli/AF10_SC.jpg","",""
"explore-choice","63","132451","0.0-63.0","p722338","A2JDYN6QM8M5UN","3RDTX9JRTZ7MP6YQMJD0Z3DG4HK978","3DQQ64TANIRPUSDS1IMA2T71LPUWP4","model","match","uniform","","","","","","","773.2000000476837","133327.39999985695","134100.59999990463","[""stimuli/AM06_HO.jpg"",""stimuli/HF10_AO.jpg"",""stimuli/WF04_DO.jpg"",""stimuli/AF10_SC.jpg""]","stimuli/AM06_HO.jpg","stimuli/HF10_AO.jpg","stimuli/WF04_DO.jpg","stimuli/AF10_SC.jpg","pos1","stimuli/AM06_HO.jpg","HO","AM06","0","3.5","7","6","stimuli/stars_7.png","108.5","[""HO"",""AO"",""DO"",""SC""]","[""AM06"",""HF10"",""WF04"",""AF10""]","[7,4,3,8]","[6,2,4,8]","","",""
"show-reward","64","134457","0.0-64.0","p722338","A2JDYN6QM8M5UN","3RDTX9JRTZ7MP6YQMJD0Z3DG4HK978","3DQQ64TANIRPUSDS1IMA2T71LPUWP4","model","match","uniform","","","","","","","","134603.09999990463","136606.59999990463","","","","","","","","","","","","7","","stimuli/stars_7.png","108.5","","","","","stimuli/AM06_HO.jpg","",""
"explore-choice","65","135577","0.0-65.0","p722338","A2JDYN6QM8M5UN","3RDTX9JRTZ7MP6YQMJD0Z3DG4HK978","3DQQ64TANIRPUSDS1IMA2T71LPUWP4","model","match","uniform","","","","","","","619.0999999046326","136608.09999990463","137227.19999980927","[""stimuli/AF10_DO.jpg"",""stimuli/AM06_HO.jpg"",""stimuli/HF10_AO.jpg"",""stimuli/WF04_SC.jpg""]","stimuli/AF10_DO.jpg","stimuli/AM06_HO.jpg","stimuli/HF10_AO.jpg","stimuli/WF04_SC.jpg","pos2","stimuli/AM06_HO.jpg","HO","AM06","1","4","8","6","stimuli/stars_8.png","112.5","[""DO"",""HO"",""AO"",""SC""]","[""AF10"",""AM06"",""HF10"",""WF04""]","[7,8,4,2]","[8,6,2,4]","","",""
"show-reward","66","137594","0.0-66.0","p722338","A2JDYN6QM8M5UN","3RDTX9JRTZ7MP6YQMJD0Z3DG4HK978","3DQQ64TANIRPUSDS1IMA2T71LPUWP4","model","match","uniform","","","","","","","","137729.09999990463","139743.19999980927","","","","","","","","","","","","8","","stimuli/stars_8.png","112.5","","","","","stimuli/AM06_HO.jpg","",""
"explore-choice","67","138880","0.0-67.0","p722338","A2JDYN6QM8M5UN","3RDTX9JRTZ7MP6YQMJD0Z3DG4HK978","3DQQ64TANIRPUSDS1IMA2T71LPUWP4","model","match","uniform","","","","","","","774.2999999523163","139745.29999995232","140519.59999990463","[""stimuli/WF04_HO.jpg"",""stimuli/AM06_SC.jpg"",""stimuli/AF10_AO.jpg"",""stimuli/HF10_DO.jpg""]","stimuli/WF04_HO.jpg","stimuli/AM06_SC.jpg","stimuli/AF10_AO.jpg","stimuli/HF10_DO.jpg","pos3","stimuli/AF10_AO.jpg","AO","AF10","2","3","6","8","stimuli/stars_6.png","115.5","[""HO"",""SC"",""AO"",""DO""]","[""WF04"",""AM06"",""AF10"",""HF10""]","[3,7,6,4]","[4,6,8,2]","","",""
"show-reward","68","140895","0.0-68.0","p722338","A2JDYN6QM8M5UN","3RDTX9JRTZ7MP6YQMJD0Z3DG4HK978","3DQQ64TANIRPUSDS1IMA2T71LPUWP4","model","match","uniform","","","","","","","","141031.5","143045","","","","","","","","","","","","6","","stimuli/stars_6.png","115.5","","","","","stimuli/AF10_AO.jpg","",""
"explore-choice","69","142186","0.0-69.0","p722338","A2JDYN6QM8M5UN","3RDTX9JRTZ7MP6YQMJD0Z3DG4HK978","3DQQ64TANIRPUSDS1IMA2T71LPUWP4","model","match","uniform","","","","","","","778.2999999523163","143047.09999990463","143825.39999985695","[""stimuli/AM06_AO.jpg"",""stimuli/HF10_SC.jpg"",""stimuli/AF10_HO.jpg"",""stimuli/WF04_DO.jpg""]","stimuli/AM06_AO.jpg","stimuli/HF10_SC.jpg","stimuli/AF10_HO.jpg","stimuli/WF04_DO.jpg","pos1","stimuli/AM06_AO.jpg","AO","AM06","0","4","8","6","stimuli/stars_8.png","119.5","[""AO"",""SC"",""HO"",""DO""]","[""AM06"",""HF10"",""AF10"",""WF04""]","[8,0,7,6]","[6,2,8,4]","","",""
"show-reward","70","144192","0.0-70.0","p722338","A2JDYN6QM8M5UN","3RDTX9JRTZ7MP6YQMJD0Z3DG4HK978","3DQQ64TANIRPUSDS1IMA2T71LPUWP4","model","match","uniform","","","","","","","","144337.89999985695","146342.09999990463","","","","","","","","","","","","8","","stimuli/stars_8.png","119.5","","","","","stimuli/AM06_AO.jpg","",""
"explore-choice","71","145473","0.0-71.0","p722338","A2JDYN6QM8M5UN","3RDTX9JRTZ7MP6YQMJD0Z3DG4HK978","3DQQ64TANIRPUSDS1IMA2T71LPUWP4","model","match","uniform","","","","","","","773.8999998569489","146343.5","147117.39999985695","[""stimuli/AF10_SC.jpg"",""stimuli/HF10_HO.jpg"",""stimuli/AM06_AO.jpg"",""stimuli/WF04_DO.jpg""]","stimuli/AF10_SC.jpg","stimuli/HF10_HO.jpg","stimuli/AM06_AO.jpg","stimuli/WF04_DO.jpg","pos3","stimuli/AM06_AO.jpg","AO","AM06","2","4","8","6","stimuli/stars_8.png","123.5","[""SC"",""HO"",""AO"",""DO""]","[""AF10"",""HF10"",""AM06"",""WF04""]","[7,0,8,6]","[8,2,6,4]","","",""
"show-reward","72","147485","0.0-72.0","p722338","A2JDYN6QM8M5UN","3RDTX9JRTZ7MP6YQMJD0Z3DG4HK978","3DQQ64TANIRPUSDS1IMA2T71LPUWP4","model","match","uniform","","","","","","","","147625","149635","","","","","","","","","","","","8","","stimuli/stars_8.png","123.5","","","","","stimuli/AM06_AO.jpg","",""
"explore-choice","73","148664","0.0-73.0","p722338","A2JDYN6QM8M5UN","3RDTX9JRTZ7MP6YQMJD0Z3DG4HK978","3DQQ64TANIRPUSDS1IMA2T71LPUWP4","model","match","uniform","","","","","","","658.5","149640","150298.5","[""stimuli/WF04_SC.jpg"",""stimuli/AF10_HO.jpg"",""stimuli/AM06_DO.jpg"",""stimuli/HF10_AO.jpg""]","stimuli/WF04_SC.jpg","stimuli/AF10_HO.jpg","stimuli/AM06_DO.jpg","stimuli/HF10_AO.jpg","pos2","stimuli/AF10_HO.jpg","HO","AF10","1","5","10","8","stimuli/stars_10.png","128.5","[""SC"",""HO"",""DO"",""AO""]","[""WF04"",""AF10"",""AM06"",""HF10""]","[2,10,7,3]","[4,8,6,2]","","",""
"show-reward","74","150669","0.0-74.0","p722338","A2JDYN6QM8M5UN","3RDTX9JRTZ7MP6YQMJD0Z3DG4HK978","3DQQ64TANIRPUSDS1IMA2T71LPUWP4","model","match","uniform","","","","","","","","150815.89999985695","152818.5","","","","","","","","","","","","10","","stimuli/stars_10.png","128.5","","","","","stimuli/AF10_HO.jpg","",""
"explore-choice","75","151832","0.0-75.0","p722338","A2JDYN6QM8M5UN","3RDTX9JRTZ7MP6YQMJD0Z3DG4HK978","3DQQ64TANIRPUSDS1IMA2T71LPUWP4","model","match","uniform","","","","","","","649.0999999046326","152821.5","153470.59999990463","[""stimuli/HF10_DO.jpg"",""stimuli/AM06_AO.jpg"",""stimuli/WF04_SC.jpg"",""stimuli/AF10_HO.jpg""]","stimuli/HF10_DO.jpg","stimuli/AM06_AO.jpg","stimuli/WF04_SC.jpg","stimuli/AF10_HO.jpg","pos4","stimuli/AF10_HO.jpg","HO","AF10","3","5","10","8","stimuli/stars_10.png","133.5","[""DO"",""AO"",""SC"",""HO""]","[""HF10"",""AM06"",""WF04"",""AF10""]","[1,4,4,10]","[2,6,4,8]","","",""
"show-reward","76","153839","0.0-76.0","p722338","A2JDYN6QM8M5UN","3RDTX9JRTZ7MP6YQMJD0Z3DG4HK978","3DQQ64TANIRPUSDS1IMA2T71LPUWP4","model","match","uniform","","","","","","","","153983.69999980927","155988.5","","","","","","","","","","","","10","","stimuli/stars_10.png","133.5","","","","","stimuli/AF10_HO.jpg","",""
"explore-choice","77","155007","0.0-77.0","p722338","A2JDYN6QM8M5UN","3RDTX9JRTZ7MP6YQMJD0Z3DG4HK978","3DQQ64TANIRPUSDS1IMA2T71LPUWP4","model","match","uniform","","","","","","","665.7000000476837","155990.29999995232","156656","[""stimuli/HF10_AO.jpg"",""stimuli/WF04_DO.jpg"",""stimuli/AM06_SC.jpg"",""stimuli/AF10_HO.jpg""]","stimuli/HF10_AO.jpg","stimuli/WF04_DO.jpg","stimuli/AM06_SC.jpg","stimuli/AF10_HO.jpg","pos4","stimuli/AF10_HO.jpg","HO","AF10","3","4.5","9","8","stimuli/stars_9.png","138","[""AO"",""DO"",""SC"",""HO""]","[""HF10"",""WF04"",""AM06"",""AF10""]","[4,5,5,9]","[2,4,6,8]","","",""
"show-reward","78","157018","0.0-78.0","p722338","A2JDYN6QM8M5UN","3RDTX9JRTZ7MP6YQMJD0Z3DG4HK978","3DQQ64TANIRPUSDS1IMA2T71LPUWP4","model","match","uniform","","","","","","","","157158.79999995232","159167.5","","","","","","","","","","","","9","","stimuli/stars_9.png","138","","","","","stimuli/AF10_HO.jpg","",""
"explore-choice","79","158130","0.0-79.0","p722338","A2JDYN6QM8M5UN","3RDTX9JRTZ7MP6YQMJD0Z3DG4HK978","3DQQ64TANIRPUSDS1IMA2T71LPUWP4","model","match","uniform","","","","","","","595","159169.5","159764.5","[""stimuli/AM06_HO.jpg"",""stimuli/HF10_DO.jpg"",""stimuli/WF04_AO.jpg"",""stimuli/AF10_SC.jpg""]","stimuli/AM06_HO.jpg","stimuli/HF10_DO.jpg","stimuli/WF04_AO.jpg","stimuli/AF10_SC.jpg","pos4","stimuli/AF10_SC.jpg","SC","AF10","3","3.5","7","8","stimuli/stars_7.png","141.5","[""HO"",""DO"",""AO"",""SC""]","[""AM06"",""HF10"",""WF04"",""AF10""]","[8,4,5,7]","[6,2,4,8]","","",""
"show-reward","80","160151","0.0-80.0","p722338","A2JDYN6QM8M5UN","3RDTX9JRTZ7MP6YQMJD0Z3DG4HK978","3DQQ64TANIRPUSDS1IMA2T71LPUWP4","model","match","uniform","","","","","","","","160282.09999990463","162300.19999980927","","","","","","","","","","","","7","","stimuli/stars_7.png","141.5","","","","","stimuli/AF10_SC.jpg","",""
"explore-choice","81","161415","0.0-81.0","p722338","A2JDYN6QM8M5UN","3RDTX9JRTZ7MP6YQMJD0Z3DG4HK978","3DQQ64TANIRPUSDS1IMA2T71LPUWP4","model","match","uniform","","","","","","","745.7999999523163","162303.09999990463","163048.89999985695","[""stimuli/HF10_SC.jpg"",""stimuli/WF04_HO.jpg"",""stimuli/AM06_AO.jpg"",""stimuli/AF10_DO.jpg""]","stimuli/HF10_SC.jpg","stimuli/WF04_HO.jpg","stimuli/AM06_AO.jpg","stimuli/AF10_DO.jpg","pos3","stimuli/AM06_AO.jpg","AO","AM06","2","3.5","7","6","stimuli/stars_7.png","145","[""SC"",""HO"",""AO"",""DO""]","[""HF10"",""WF04"",""AM06"",""AF10""]","[0,6,7,6]","[2,4,6,8]","","",""
"show-reward","82","163420","0.0-82.0","p722338","A2JDYN6QM8M5UN","3RDTX9JRTZ7MP6YQMJD0Z3DG4HK978","3DQQ64TANIRPUSDS1IMA2T71LPUWP4","model","match","uniform","","","","","","","","163566.79999995232","165570","","","","","","","","","","","","7","","stimuli/stars_7.png","145","","","","","stimuli/AM06_AO.jpg","",""
"explore-choice","83","164652","0.0-83.0","p722338","A2JDYN6QM8M5UN","3RDTX9JRTZ7MP6YQMJD0Z3DG4HK978","3DQQ64TANIRPUSDS1IMA2T71LPUWP4","model","match","uniform","","","","","","","726.0999999046326","165571.29999995232","166297.39999985695","[""stimuli/AF10_AO.jpg"",""stimuli/HF10_SC.jpg"",""stimuli/WF04_DO.jpg"",""stimuli/AM06_HO.jpg""]","stimuli/AF10_AO.jpg","stimuli/HF10_SC.jpg","stimuli/WF04_DO.jpg","stimuli/AM06_HO.jpg","pos4","stimuli/AM06_HO.jpg","HO","AM06","3","3","6","6","stimuli/stars_6.png","148","[""AO"",""SC"",""DO"",""HO""]","[""AF10"",""HF10"",""WF04"",""AM06""]","[8,2,2,6]","[8,2,4,6]","","",""
"show-reward","84","166664","0.0-84.0","p722338","A2JDYN6QM8M5UN","3RDTX9JRTZ7MP6YQMJD0Z3DG4HK978","3DQQ64TANIRPUSDS1IMA2T71LPUWP4","model","match","uniform","","","","","","","","166804","168813.79999995232","","","","","","","","","","","","6","","stimuli/stars_6.png","148","","","","","stimuli/AM06_HO.jpg","",""
"explore-choice","85","167796","0.0-85.0","p722338","A2JDYN6QM8M5UN","3RDTX9JRTZ7MP6YQMJD0Z3DG4HK978","3DQQ64TANIRPUSDS1IMA2T71LPUWP4","model","match","uniform","","","","","","","620.5","168815.5","169436","[""stimuli/AF10_SC.jpg"",""stimuli/AM06_AO.jpg"",""stimuli/WF04_HO.jpg"",""stimuli/HF10_DO.jpg""]","stimuli/AF10_SC.jpg","stimuli/AM06_AO.jpg","stimuli/WF04_HO.jpg","stimuli/HF10_DO.jpg","pos1","stimuli/AF10_SC.jpg","SC","AF10","0","4","8","8","stimuli/stars_8.png","152","[""SC"",""AO"",""HO"",""DO""]","[""AF10"",""AM06"",""WF04"",""HF10""]","[8,7,2,1]","[8,6,4,2]","","",""
"show-reward","86","169802","0.0-86.0","p722338","A2JDYN6QM8M5UN","3RDTX9JRTZ7MP6YQMJD0Z3DG4HK978","3DQQ64TANIRPUSDS1IMA2T71LPUWP4","model","match","uniform","","","","","","","","169948","171952.59999990463","","","","","","","","","","","","8","","stimuli/stars_8.png","152","","","","","stimuli/AF10_SC.jpg","",""
"explore-choice","87","170934","0.0-87.0","p722338","A2JDYN6QM8M5UN","3RDTX9JRTZ7MP6YQMJD0Z3DG4HK978","3DQQ64TANIRPUSDS1IMA2T71LPUWP4","model","match","uniform","","","","","","","620","171953.89999985695","172573.89999985695","[""stimuli/AM06_DO.jpg"",""stimuli/HF10_HO.jpg"",""stimuli/WF04_SC.jpg"",""stimuli/AF10_AO.jpg""]","stimuli/AM06_DO.jpg","stimuli/HF10_HO.jpg","stimuli/WF04_SC.jpg","stimuli/AF10_AO.jpg","pos4","stimuli/AF10_AO.jpg","AO","AF10","3","4.5","9","8","stimuli/stars_9.png","156.5","[""DO"",""HO"",""SC"",""AO""]","[""AM06"",""HF10"",""WF04"",""AF10""]","[4,1,4,9]","[6,2,4,8]","","",""
"show-reward","88","172941","0.0-88.0","p722338","A2JDYN6QM8M5UN","3RDTX9JRTZ7MP6YQMJD0Z3DG4HK978","3DQQ64TANIRPUSDS1IMA2T71LPUWP4","model","match","uniform","","","","","","","","173085.69999980927","175091.29999995232","","","","","","","","","","","","9","","stimuli/stars_9.png","156.5","","","","","stimuli/AF10_AO.jpg","",""
"explore-choice","89","174450","0.0-89.0","p722338","A2JDYN6QM8M5UN","3RDTX9JRTZ7MP6YQMJD0Z3DG4HK978","3DQQ64TANIRPUSDS1IMA2T71LPUWP4","model","match","uniform","","","","","","","994.6999998092651","175092.5","176087.19999980927","[""stimuli/AM06_HO.jpg"",""stimuli/WF04_SC.jpg"",""stimuli/AF10_AO.jpg"",""stimuli/HF10_DO.jpg""]","stimuli/AM06_HO.jpg","stimuli/WF04_SC.jpg","stimuli/AF10_AO.jpg","stimuli/HF10_DO.jpg","pos3","stimuli/AF10_AO.jpg","AO","AF10","2","4","8","8","stimuli/stars_8.png","160.5","[""HO"",""SC"",""AO"",""DO""]","[""AM06"",""WF04"",""AF10"",""HF10""]","[6,5,8,2]","[6,4,8,2]","","",""
"show-reward","90","176454","0.0-90.0","p722338","A2JDYN6QM8M5UN","3RDTX9JRTZ7MP6YQMJD0Z3DG4HK978","3DQQ64TANIRPUSDS1IMA2T71LPUWP4","model","match","uniform","","","","","","","","176601.29999995232","178604.09999990463","","","","","","","","","","","","8","","stimuli/stars_8.png","160.5","","","","","stimuli/AF10_AO.jpg","",""
"explore-choice","91","177662","0.0-91.0","p722338","A2JDYN6QM8M5UN","3RDTX9JRTZ7MP6YQMJD0Z3DG4HK978","3DQQ64TANIRPUSDS1IMA2T71LPUWP4","model","match","uniform","","","","","","","698.7000000476837","178605.29999995232","179304","[""stimuli/AF10_AO.jpg"",""stimuli/AM06_SC.jpg"",""stimuli/HF10_HO.jpg"",""stimuli/WF04_DO.jpg""]","stimuli/AF10_AO.jpg","stimuli/AM06_SC.jpg","stimuli/HF10_HO.jpg","stimuli/WF04_DO.jpg","pos1","stimuli/AF10_AO.jpg","AO","AF10","0","3.5","7","8","stimuli/stars_7.png","164","[""AO"",""SC"",""HO"",""DO""]","[""AF10"",""AM06"",""HF10"",""WF04""]","[7,6,4,4]","[8,6,2,4]","","",""
"show-reward","92","179665","0.0-92.0","p722338","A2JDYN6QM8M5UN","3RDTX9JRTZ7MP6YQMJD0Z3DG4HK978","3DQQ64TANIRPUSDS1IMA2T71LPUWP4","model","match","uniform","","","","","","","","179813.29999995232","181815.39999985695","","","","","","","","","","","","7","","stimuli/stars_7.png","164","","","","","stimuli/AF10_AO.jpg","",""
"explore-choice","93","181046","0.0-93.0","p722338","A2JDYN6QM8M5UN","3RDTX9JRTZ7MP6YQMJD0Z3DG4HK978","3DQQ64TANIRPUSDS1IMA2T71LPUWP4","model","match","uniform","","","","","","","878.9000000953674","181816.69999980927","182695.59999990463","[""stimuli/HF10_HO.jpg"",""stimuli/WF04_AO.jpg"",""stimuli/AF10_DO.jpg"",""stimuli/AM06_SC.jpg""]","stimuli/HF10_HO.jpg","stimuli/WF04_AO.jpg","stimuli/AF10_DO.jpg","stimuli/AM06_SC.jpg","pos3","stimuli/AF10_DO.jpg","DO","AF10","2","3.5","7","8","stimuli/stars_7.png","167.5","[""HO"",""AO"",""DO"",""SC""]","[""HF10"",""WF04"",""AF10"",""AM06""]","[3,3,7,8]","[2,4,8,6]","","",""
"show-reward","94","183051","0.0-94.0","p722338","A2JDYN6QM8M5UN","3RDTX9JRTZ7MP6YQMJD0Z3DG4HK978","3DQQ64TANIRPUSDS1IMA2T71LPUWP4","model","match","uniform","","","","","","","","183197.59999990463","185201.39999985695","","","","","","","","","","","","7","","stimuli/stars_7.png","167.5","","","","","stimuli/AF10_DO.jpg","",""
"explore-choice","95","184280","0.0-95.0","p722338","A2JDYN6QM8M5UN","3RDTX9JRTZ7MP6YQMJD0Z3DG4HK978","3DQQ64TANIRPUSDS1IMA2T71LPUWP4","model","match","uniform","","","","","","","712.2999999523163","185203.89999985695","185916.19999980927","[""stimuli/WF04_SC.jpg"",""stimuli/AF10_DO.jpg"",""stimuli/AM06_AO.jpg"",""stimuli/HF10_HO.jpg""]","stimuli/WF04_SC.jpg","stimuli/AF10_DO.jpg","stimuli/AM06_AO.jpg","stimuli/HF10_HO.jpg","pos3","stimuli/AM06_AO.jpg","AO","AM06","2","3","6","6","stimuli/stars_6.png","170.5","[""SC"",""DO"",""AO"",""HO""]","[""WF04"",""AF10"",""AM06"",""HF10""]","[4,8,6,0]","[4,8,6,2]","","",""
"show-reward","96","186300","0.0-96.0","p722338","A2JDYN6QM8M5UN","3RDTX9JRTZ7MP6YQMJD0Z3DG4HK978","3DQQ64TANIRPUSDS1IMA2T71LPUWP4","model","match","uniform","","","","","","","","186431.39999985695","188450.19999980927","","","","","","","","","","","","6","","stimuli/stars_6.png","170.5","","","","","stimuli/AM06_AO.jpg","",""
"explore-choice","97","187326","0.0-97.0","p722338","A2JDYN6QM8M5UN","3RDTX9JRTZ7MP6YQMJD0Z3DG4HK978","3DQQ64TANIRPUSDS1IMA2T71LPUWP4","model","match","uniform","","","","","","","518","188451.5","188969.5","[""stimuli/HF10_AO.jpg"",""stimuli/AF10_DO.jpg"",""stimuli/WF04_HO.jpg"",""stimuli/AM06_SC.jpg""]","stimuli/HF10_AO.jpg","stimuli/AF10_DO.jpg","stimuli/WF04_HO.jpg","stimuli/AM06_SC.jpg","pos2","stimuli/AF10_DO.jpg","DO","AF10","1","4","8","8","stimuli/stars_8.png","174.5","[""AO"",""DO"",""HO"",""SC""]","[""HF10"",""AF10"",""WF04"",""AM06""]","[1,8,4,6]","[2,8,4,6]","","",""
"show-reward","98","189337","0.0-98.0","p722338","A2JDYN6QM8M5UN","3RDTX9JRTZ7MP6YQMJD0Z3DG4HK978","3DQQ64TANIRPUSDS1IMA2T71LPUWP4","model","match","uniform","","","","","","","","189477.39999985695","191486.69999980927","","","","","","","","","","","","8","","stimuli/stars_8.png","174.5","","","","","stimuli/AF10_DO.jpg","",""
"explore-choice","99","190567","0.0-99.0","p722338","A2JDYN6QM8M5UN","3RDTX9JRTZ7MP6YQMJD0Z3DG4HK978","3DQQ64TANIRPUSDS1IMA2T71LPUWP4","model","match","uniform","","","","","","","716.5","191488.79999995232","192205.29999995232","[""stimuli/WF04_AO.jpg"",""stimuli/AF10_HO.jpg"",""stimuli/AM06_SC.jpg"",""stimuli/HF10_DO.jpg""]","stimuli/WF04_AO.jpg","stimuli/AF10_HO.jpg","stimuli/AM06_SC.jpg","stimuli/HF10_DO.jpg","pos2","stimuli/AF10_HO.jpg","HO","AF10","1","5","10","8","stimuli/stars_10.png","179.5","[""AO"",""HO"",""SC"",""DO""]","[""WF04"",""AF10"",""AM06"",""HF10""]","[5,10,8,3]","[4,8,6,2]","","",""
"show-reward","100","192573","0.0-100.0","p722338","A2JDYN6QM8M5UN","3RDTX9JRTZ7MP6YQMJD0Z3DG4HK978","3DQQ64TANIRPUSDS1IMA2T71LPUWP4","model","match","uniform","","","","","","","","192719.09999990463","194722.89999985695","","","","","","","","","","","","10","","stimuli/stars_10.png","179.5","","","","","stimuli/AF10_HO.jpg","",""
"explore-choice","101","193947","0.0-101.0","p722338","A2JDYN6QM8M5UN","3RDTX9JRTZ7MP6YQMJD0Z3DG4HK978","3DQQ64TANIRPUSDS1IMA2T71LPUWP4","model","match","uniform","","","","","","","864.4000000953674","194724.59999990463","195589","[""stimuli/WF04_AO.jpg"",""stimuli/HF10_SC.jpg"",""stimuli/AF10_HO.jpg"",""stimuli/AM06_DO.jpg""]","stimuli/WF04_AO.jpg","stimuli/HF10_SC.jpg","stimuli/AF10_HO.jpg","stimuli/AM06_DO.jpg","pos3","stimuli/AF10_HO.jpg","HO","AF10","2","5","10","8","stimuli/stars_10.png","184.5","[""AO"",""SC"",""HO"",""DO""]","[""WF04"",""HF10"",""AF10"",""AM06""]","[4,1,10,7]","[4,2,8,6]","","",""
"show-reward","102","195954","0.0-102.0","p722338","A2JDYN6QM8M5UN","3RDTX9JRTZ7MP6YQMJD0Z3DG4HK978","3DQQ64TANIRPUSDS1IMA2T71LPUWP4","model","match","uniform","","","","","","","","196098.39999985695","198104.09999990463","","","","","","","","","","","","10","","stimuli/stars_10.png","184.5","","","","","stimuli/AF10_HO.jpg","",""
"explore-choice","103","199217","0.0-103.0","p722338","A2JDYN6QM8M5UN","3RDTX9JRTZ7MP6YQMJD0Z3DG4HK978","3DQQ64TANIRPUSDS1IMA2T71LPUWP4","model","match","uniform","","","","","","","2755","198105.79999995232","200860.79999995232","[""stimuli/BM04_HE.jpg"",""stimuli/AF02_FO.jpg"",""stimuli/AM05_SUR.jpg"",""stimuli/HF09_CC.jpg""]","stimuli/BM04_HE.jpg","stimuli/AF02_FO.jpg","stimuli/AM05_SUR.jpg","stimuli/HF09_CC.jpg","pos1","stimuli/BM04_HE.jpg","HE","BM04","0","2.5","5","4","stimuli/stars_5.png","187","[""HE"",""FO"",""SUR"",""CC""]","[""BM04"",""AF02"",""AM05"",""HF09""]","[5,4,7,2]","[4,6,8,2]","","",""
"show-reward","104","201221","0.0-104.0","p722338","A2JDYN6QM8M5UN","3RDTX9JRTZ7MP6YQMJD0Z3DG4HK978","3DQQ64TANIRPUSDS1IMA2T71LPUWP4","model","match","uniform","","","","","","","","201368.39999985695","203370.89999985695","","","","","","","","","","","","5","","stimuli/stars_5.png","187","","","","","stimuli/BM04_HE.jpg","",""
"explore-choice","105","203202","0.0-105.0","p722338","A2JDYN6QM8M5UN","3RDTX9JRTZ7MP6YQMJD0Z3DG4HK978","3DQQ64TANIRPUSDS1IMA2T71LPUWP4","model","match","uniform","","","","","","","1466.0999999046326","203374","204840.09999990463","[""stimuli/AF02_HE.jpg"",""stimuli/BM04_SUR.jpg"",""stimuli/HF09_FO.jpg"",""stimuli/AM05_CC.jpg""]","stimuli/AF02_HE.jpg","stimuli/BM04_SUR.jpg","stimuli/HF09_FO.jpg","stimuli/AM05_CC.jpg","pos1","stimuli/AF02_HE.jpg","HE","AF02","0","4","8","6","stimuli/stars_8.png","191","[""HE"",""SUR"",""FO"",""CC""]","[""AF02"",""BM04"",""HF09"",""AM05""]","[8,4,0,10]","[6,4,2,8]","","",""
"show-reward","106","205221","0.0-106.0","p722338","A2JDYN6QM8M5UN","3RDTX9JRTZ7MP6YQMJD0Z3DG4HK978","3DQQ64TANIRPUSDS1IMA2T71LPUWP4","model","match","uniform","","","","","","","","205366.5","207370.89999985695","","","","","","","","","","","","8","","stimuli/stars_8.png","191","","","","","stimuli/AF02_HE.jpg","",""
"explore-choice","107","207346","0.0-107.0","p722338","A2JDYN6QM8M5UN","3RDTX9JRTZ7MP6YQMJD0Z3DG4HK978","3DQQ64TANIRPUSDS1IMA2T71LPUWP4","model","match","uniform","","","","","","","1612.5","207372.69999980927","208985.19999980927","[""stimuli/BM04_SUR.jpg"",""stimuli/AM05_FO.jpg"",""stimuli/AF02_CC.jpg"",""stimuli/HF09_HE.jpg""]","stimuli/BM04_SUR.jpg","stimuli/AM05_FO.jpg","stimuli/AF02_CC.jpg","stimuli/HF09_HE.jpg","pos4","stimuli/HF09_HE.jpg","HE","HF09","3","0","0","2","stimuli/stars_0.png","191","[""SUR"",""FO"",""CC"",""HE""]","[""BM04"",""AM05"",""AF02"",""HF09""]","[3,6,8,0]","[4,8,6,2]","","",""
"show-reward","108","209365","0.0-108.0","p722338","A2JDYN6QM8M5UN","3RDTX9JRTZ7MP6YQMJD0Z3DG4HK978","3DQQ64TANIRPUSDS1IMA2T71LPUWP4","model","match","uniform","","","","","","","","209498.39999985695","211515.19999980927","","","","","","","","","","","","0","","stimuli/stars_0.png","191","","","","","stimuli/HF09_HE.jpg","",""
"explore-choice","109","211586","0.0-109.0","p722338","A2JDYN6QM8M5UN","3RDTX9JRTZ7MP6YQMJD0Z3DG4HK978","3DQQ64TANIRPUSDS1IMA2T71LPUWP4","model","match","uniform","","","","","","","1707.8999998569489","211517","213224.89999985695","[""stimuli/AM05_HE.jpg"",""stimuli/HF09_FO.jpg"",""stimuli/BM04_SUR.jpg"",""stimuli/AF02_CC.jpg""]","stimuli/AM05_HE.jpg","stimuli/HF09_FO.jpg","stimuli/BM04_SUR.jpg","stimuli/AF02_CC.jpg","pos1","stimuli/AM05_HE.jpg","HE","AM05","0","4.5","9","8","stimuli/stars_9.png","195.5","[""HE"",""FO"",""SUR"",""CC""]","[""AM05"",""HF09"",""BM04"",""AF02""]","[9,1,2,8]","[8,2,4,6]","","",""
"show-reward","110","213591","0.0-110.0","p722338","A2JDYN6QM8M5UN","3RDTX9JRTZ7MP6YQMJD0Z3DG4HK978","3DQQ64TANIRPUSDS1IMA2T71LPUWP4","model","match","uniform","","","","","","","","213737.69999980927","215741.39999985695","","","","","","","","","","","","9","","stimuli/stars_9.png","195.5","","","","","stimuli/AM05_HE.jpg","",""
"explore-choice","111","214789","0.0-111.0","p722338","A2JDYN6QM8M5UN","3RDTX9JRTZ7MP6YQMJD0Z3DG4HK978","3DQQ64TANIRPUSDS1IMA2T71LPUWP4","model","match","uniform","","","","","","","695.3999998569489","215742.79999995232","216438.19999980927","[""stimuli/BM04_SUR.jpg"",""stimuli/HF09_HE.jpg"",""stimuli/AM05_CC.jpg"",""stimuli/AF02_FO.jpg""]","stimuli/BM04_SUR.jpg","stimuli/HF09_HE.jpg","stimuli/AM05_CC.jpg","stimuli/AF02_FO.jpg","pos3","stimuli/AM05_CC.jpg","CC","AM05","2","4.5","9","8","stimuli/stars_9.png","200","[""SUR"",""HE"",""CC"",""FO""]","[""BM04"",""HF09"",""AM05"",""AF02""]","[2,4,9,5]","[4,2,8,6]","","",""
"show-reward","112","216793","0.0-112.0","p722338","A2JDYN6QM8M5UN","3RDTX9JRTZ7MP6YQMJD0Z3DG4HK978","3DQQ64TANIRPUSDS1IMA2T71LPUWP4","model","match","uniform","","","","","","","","216940.79999995232","218943.29999995232","","","","","","","","","","","","9","","stimuli/stars_9.png","200","","","","","stimuli/AM05_CC.jpg","",""
"explore-choice","113","218079","0.0-113.0","p722338","A2JDYN6QM8M5UN","3RDTX9JRTZ7MP6YQMJD0Z3DG4HK978","3DQQ64TANIRPUSDS1IMA2T71LPUWP4","model","match","uniform","","","","","","","774.2000000476837","218944.39999985695","219718.59999990463","[""stimuli/AM05_SUR.jpg"",""stimuli/AF02_HE.jpg"",""stimuli/BM04_FO.jpg"",""stimuli/HF09_CC.jpg""]","stimuli/AM05_SUR.jpg","stimuli/AF02_HE.jpg","stimuli/BM04_FO.jpg","stimuli/HF09_CC.jpg","pos1","stimuli/AM05_SUR.jpg","SUR","AM05","0","5","10","8","stimuli/stars_10.png","205","[""SUR"",""HE"",""FO"",""CC""]","[""AM05"",""AF02"",""BM04"",""HF09""]","[10,8,4,0]","[8,6,4,2]","","",""
"show-reward","114","220089","0.0-114.0","p722338","A2JDYN6QM8M5UN","3RDTX9JRTZ7MP6YQMJD0Z3DG4HK978","3DQQ64TANIRPUSDS1IMA2T71LPUWP4","model","match","uniform","","","","","","","","220230.59999990463","222238.89999985695","","","","","","","","","","","","10","","stimuli/stars_10.png","205","","","","","stimuli/AM05_SUR.jpg","",""
"explore-choice","115","221203","0.0-115.0","p722338","A2JDYN6QM8M5UN","3RDTX9JRTZ7MP6YQMJD0Z3DG4HK978","3DQQ64TANIRPUSDS1IMA2T71LPUWP4","model","match","uniform","","","","","","","610","222241.19999980927","222851.19999980927","[""stimuli/AM05_FO.jpg"",""stimuli/AF02_SUR.jpg"",""stimuli/BM04_HE.jpg"",""stimuli/HF09_CC.jpg""]","stimuli/AM05_FO.jpg","stimuli/AF02_SUR.jpg","stimuli/BM04_HE.jpg","stimuli/HF09_CC.jpg","pos1","stimuli/AM05_FO.jpg","FO","AM05","0","3","6","8","stimuli/stars_6.png","208","[""FO"",""SUR"",""HE"",""CC""]","[""AM05"",""AF02"",""BM04"",""HF09""]","[6,7,3,4]","[8,6,4,2]","","",""
"show-reward","116","223207","0.0-116.0","p722338","A2JDYN6QM8M5UN","3RDTX9JRTZ7MP6YQMJD0Z3DG4HK978","3DQQ64TANIRPUSDS1IMA2T71LPUWP4","model","match","uniform","","","","","","","","223354.09999990463","225356.69999980927","","","","","","","","","","","","6","","stimuli/stars_6.png","208","","","","","stimuli/AM05_FO.jpg","",""
"explore-choice","117","227160","0.0-117.0","p722338","A2JDYN6QM8M5UN","3RDTX9JRTZ7MP6YQMJD0Z3DG4HK978","3DQQ64TANIRPUSDS1IMA2T71LPUWP4","model","match","uniform","","","","","","","3433.399999856949","225358.79999995232","228792.19999980927","[""stimuli/HF09_HE.jpg"",""stimuli/AM05_CC.jpg"",""stimuli/BM04_FO.jpg"",""stimuli/AF02_SUR.jpg""]","stimuli/HF09_HE.jpg","stimuli/AM05_CC.jpg","stimuli/BM04_FO.jpg","stimuli/AF02_SUR.jpg","pos2","stimuli/AM05_CC.jpg","CC","AM05","1","5","10","8","stimuli/stars_10.png","213","[""HE"",""CC"",""FO"",""SUR""]","[""HF09"",""AM05"",""BM04"",""AF02""]","[0,10,6,8]","[2,8,4,6]","","",""
"show-reward","118","229167","0.0-118.0","p722338","A2JDYN6QM8M5UN","3RDTX9JRTZ7MP6YQMJD0Z3DG4HK978","3DQQ64TANIRPUSDS1IMA2T71LPUWP4","model","match","uniform","","","","","","","","229312.19999980927","231316.79999995232","","","","","","","","","","","","10","","stimuli/stars_10.png","213","","","","","stimuli/AM05_CC.jpg","",""
"explore-choice","119","230420","0.0-119.0","p722338","A2JDYN6QM8M5UN","3RDTX9JRTZ7MP6YQMJD0Z3DG4HK978","3DQQ64TANIRPUSDS1IMA2T71LPUWP4","model","match","uniform","","","","","","","747.8999998569489","231318","232065.89999985695","[""stimuli/HF09_SUR.jpg"",""stimuli/AF02_HE.jpg"",""stimuli/BM04_CC.jpg"",""stimuli/AM05_FO.jpg""]","stimuli/HF09_SUR.jpg","stimuli/AF02_HE.jpg","stimuli/BM04_CC.jpg","stimuli/AM05_FO.jpg","pos4","stimuli/AM05_FO.jpg","FO","AM05","3","3.5","7","8","stimuli/stars_7.png","216.5","[""SUR"",""HE"",""CC"",""FO""]","[""HF09"",""AF02"",""BM04"",""AM05""]","[2,4,4,7]","[2,6,4,8]","","",""
"show-reward","120","232438","0.0-120.0","p722338","A2JDYN6QM8M5UN","3RDTX9JRTZ7MP6YQMJD0Z3DG4HK978","3DQQ64TANIRPUSDS1IMA2T71LPUWP4","model","match","uniform","","","","","","","","232571.79999995232","234588","","","","","","","","","","","","7","","stimuli/stars_7.png","216.5","","","","","stimuli/AM05_FO.jpg","",""
"explore-choice","121","233971","0.0-121.0","p722338","A2JDYN6QM8M5UN","3RDTX9JRTZ7MP6YQMJD0Z3DG4HK978","3DQQ64TANIRPUSDS1IMA2T71LPUWP4","model","match","uniform","","","","","","","1030.5999999046326","234589.59999990463","235620.19999980927","[""stimuli/HF09_HE.jpg"",""stimuli/BM04_CC.jpg"",""stimuli/AM05_FO.jpg"",""stimuli/AF02_SUR.jpg""]","stimuli/HF09_HE.jpg","stimuli/BM04_CC.jpg","stimuli/AM05_FO.jpg","stimuli/AF02_SUR.jpg","pos3","stimuli/AM05_FO.jpg","FO","AM05","2","3.5","7","8","stimuli/stars_7.png","220","[""HE"",""CC"",""FO"",""SUR""]","[""HF09"",""BM04"",""AM05"",""AF02""]","[4,4,7,7]","[2,4,8,6]","","",""
"show-reward","122","235982","0.0-122.0","p722338","A2JDYN6QM8M5UN","3RDTX9JRTZ7MP6YQMJD0Z3DG4HK978","3DQQ64TANIRPUSDS1IMA2T71LPUWP4","model","match","uniform","","","","","","","","236125.69999980927","238132","","","","","","","","","","","","7","","stimuli/stars_7.png","220","","","","","stimuli/AM05_FO.jpg","",""
"explore-choice","123","237512","0.0-123.0","p722338","A2JDYN6QM8M5UN","3RDTX9JRTZ7MP6YQMJD0Z3DG4HK978","3DQQ64TANIRPUSDS1IMA2T71LPUWP4","model","match","uniform","","","","","","","1018","238133.19999980927","239151.19999980927","[""stimuli/AF02_HE.jpg"",""stimuli/HF09_FO.jpg"",""stimuli/AM05_SUR.jpg"",""stimuli/BM04_CC.jpg""]","stimuli/AF02_HE.jpg","stimuli/HF09_FO.jpg","stimuli/AM05_SUR.jpg","stimuli/BM04_CC.jpg","pos1","stimuli/AF02_HE.jpg","HE","AF02","0","3.5","7","6","stimuli/stars_7.png","223.5","[""HE"",""FO"",""SUR"",""CC""]","[""AF02"",""HF09"",""AM05"",""BM04""]","[7,0,6,2]","[6,2,8,4]","","",""
"show-reward","124","239516","0.0-124.0","p722338","A2JDYN6QM8M5UN","3RDTX9JRTZ7MP6YQMJD0Z3DG4HK978","3DQQ64TANIRPUSDS1IMA2T71LPUWP4","model","match","uniform","","","","","","","","239663.79999995232","241666","","","","","","","","","","","","7","","stimuli/stars_7.png","223.5","","","","","stimuli/AF02_HE.jpg","",""
"explore-choice","125","240707","0.0-125.0","p722338","A2JDYN6QM8M5UN","3RDTX9JRTZ7MP6YQMJD0Z3DG4HK978","3DQQ64TANIRPUSDS1IMA2T71LPUWP4","model","match","uniform","","","","","","","677.3000001907349","241667.19999980927","242344.5","[""stimuli/AF02_SUR.jpg"",""stimuli/AM05_CC.jpg"",""stimuli/HF09_FO.jpg"",""stimuli/BM04_HE.jpg""]","stimuli/AF02_SUR.jpg","stimuli/AM05_CC.jpg","stimuli/HF09_FO.jpg","stimuli/BM04_HE.jpg","pos1","stimuli/AF02_SUR.jpg","SUR","AF02","0","2","4","6","stimuli/stars_4.png","225.5","[""SUR"",""CC"",""FO"",""HE""]","[""AF02"",""AM05"",""HF09"",""BM04""]","[4,9,1,6]","[6,8,2,4]","","",""
"show-reward","126","242711","0.0-126.0","p722338","A2JDYN6QM8M5UN","3RDTX9JRTZ7MP6YQMJD0Z3DG4HK978","3DQQ64TANIRPUSDS1IMA2T71LPUWP4","model","match","uniform","","","","","","","","242858.79999995232","244861.19999980927","","","","","","","","","","","","4","","stimuli/stars_4.png","225.5","","","","","stimuli/AF02_SUR.jpg","",""
"explore-choice","127","243901","0.0-127.0","p722338","A2JDYN6QM8M5UN","3RDTX9JRTZ7MP6YQMJD0Z3DG4HK978","3DQQ64TANIRPUSDS1IMA2T71LPUWP4","model","match","uniform","","","","","","","675.6999998092651","244863.5","245539.19999980927","[""stimuli/HF09_FO.jpg"",""stimuli/AF02_SUR.jpg"",""stimuli/BM04_CC.jpg"",""stimuli/AM05_HE.jpg""]","stimuli/HF09_FO.jpg","stimuli/AF02_SUR.jpg","stimuli/BM04_CC.jpg","stimuli/AM05_HE.jpg","pos4","stimuli/AM05_HE.jpg","HE","AM05","3","3.5","7","8","stimuli/stars_7.png","229","[""FO"",""SUR"",""CC"",""HE""]","[""HF09"",""AF02"",""BM04"",""AM05""]","[0,5,6,7]","[2,6,4,8]","","",""
"show-reward","128","245911","0.0-128.0","p722338","A2JDYN6QM8M5UN","3RDTX9JRTZ7MP6YQMJD0Z3DG4HK978","3DQQ64TANIRPUSDS1IMA2T71LPUWP4","model","match","uniform","","","","","","","","246052.39999985695","248060.59999990463","","","","","","","","","","","","7","","stimuli/stars_7.png","229","","","","","stimuli/AM05_HE.jpg","",""
"explore-choice","129","246914","0.0-129.0","p722338","A2JDYN6QM8M5UN","3RDTX9JRTZ7MP6YQMJD0Z3DG4HK978","3DQQ64TANIRPUSDS1IMA2T71LPUWP4","model","match","uniform","","","","","","","498.2000000476837","248062.69999980927","248560.89999985695","[""stimuli/HF09_SUR.jpg"",""stimuli/AF02_CC.jpg"",""stimuli/BM04_FO.jpg"",""stimuli/AM05_HE.jpg""]","stimuli/HF09_SUR.jpg","stimuli/AF02_CC.jpg","stimuli/BM04_FO.jpg","stimuli/AM05_HE.jpg","pos4","stimuli/AM05_HE.jpg","HE","AM05","3","3.5","7","8","stimuli/stars_7.png","232.5","[""SUR"",""CC"",""FO"",""HE""]","[""HF09"",""AF02"",""BM04"",""AM05""]","[4,4,5,7]","[2,6,4,8]","","",""
"show-reward","130","248918","0.0-130.0","p722338","A2JDYN6QM8M5UN","3RDTX9JRTZ7MP6YQMJD0Z3DG4HK978","3DQQ64TANIRPUSDS1IMA2T71LPUWP4","model","match","uniform","","","","","","","","249065.69999980927","251067.59999990463","","","","","","","","","","","","7","","stimuli/stars_7.png","232.5","","","","","stimuli/AM05_HE.jpg","",""
"explore-choice","131","250070","0.0-131.0","p722338","A2JDYN6QM8M5UN","3RDTX9JRTZ7MP6YQMJD0Z3DG4HK978","3DQQ64TANIRPUSDS1IMA2T71LPUWP4","model","match","uniform","","","","","","","643.9000000953674","251069.39999985695","251713.29999995232","[""stimuli/AM05_FO.jpg"",""stimuli/BM04_HE.jpg"",""stimuli/HF09_SUR.jpg"",""stimuli/AF02_CC.jpg""]","stimuli/AM05_FO.jpg","stimuli/BM04_HE.jpg","stimuli/HF09_SUR.jpg","stimuli/AF02_CC.jpg","pos1","stimuli/AM05_FO.jpg","FO","AM05","0","3.5","7","8","stimuli/stars_7.png","236","[""FO"",""HE"",""SUR"",""CC""]","[""AM05"",""BM04"",""HF09"",""AF02""]","[7,4,2,7]","[8,4,2,6]","","",""
"show-reward","132","252073","0.0-132.0","p722338","A2JDYN6QM8M5UN","3RDTX9JRTZ7MP6YQMJD0Z3DG4HK978","3DQQ64TANIRPUSDS1IMA2T71LPUWP4","model","match","uniform","","","","","","","","252220.89999985695","254223","","","","","","","","","","","","7","","stimuli/stars_7.png","236","","","","","stimuli/AM05_FO.jpg","",""
"explore-choice","133","253138","0.0-133.0","p722338","A2JDYN6QM8M5UN","3RDTX9JRTZ7MP6YQMJD0Z3DG4HK978","3DQQ64TANIRPUSDS1IMA2T71LPUWP4","model","match","uniform","","","","","","","558.8999998569489","254224","254782.89999985695","[""stimuli/AF02_CC.jpg"",""stimuli/BM04_HE.jpg"",""stimuli/HF09_FO.jpg"",""stimuli/AM05_SUR.jpg""]","stimuli/AF02_CC.jpg","stimuli/BM04_HE.jpg","stimuli/HF09_FO.jpg","stimuli/AM05_SUR.jpg","pos4","stimuli/AM05_SUR.jpg","SUR","AM05","3","4","8","8","stimuli/stars_8.png","240","[""CC"",""HE"",""FO"",""SUR""]","[""AF02"",""BM04"",""HF09"",""AM05""]","[4,6,2,8]","[6,4,2,8]","","",""
"show-reward","134","255146","0.0-134.0","p722338","A2JDYN6QM8M5UN","3RDTX9JRTZ7MP6YQMJD0Z3DG4HK978","3DQQ64TANIRPUSDS1IMA2T71LPUWP4","model","match","uniform","","","","","","","","255289.69999980927","257295.79999995232","","","","","","","","","","","","8","","stimuli/stars_8.png","240","","","","","stimuli/AM05_SUR.jpg","",""
"explore-choice","135","256241","0.0-135.0","p722338","A2JDYN6QM8M5UN","3RDTX9JRTZ7MP6YQMJD0Z3DG4HK978","3DQQ64TANIRPUSDS1IMA2T71LPUWP4","model","match","uniform","","","","","","","589.3000001907349","257297.69999980927","257887","[""stimuli/AM05_HE.jpg"",""stimuli/BM04_SUR.jpg"",""stimuli/AF02_FO.jpg"",""stimuli/HF09_CC.jpg""]","stimuli/AM05_HE.jpg","stimuli/BM04_SUR.jpg","stimuli/AF02_FO.jpg","stimuli/HF09_CC.jpg","pos2","stimuli/BM04_SUR.jpg","SUR","BM04","1","3","6","4","stimuli/stars_6.png","243","[""HE"",""SUR"",""FO"",""CC""]","[""AM05"",""BM04"",""AF02"",""HF09""]","[9,6,7,0]","[8,4,6,2]","","",""
"show-reward","136","258245","0.0-136.0","p722338","A2JDYN6QM8M5UN","3RDTX9JRTZ7MP6YQMJD0Z3DG4HK978","3DQQ64TANIRPUSDS1IMA2T71LPUWP4","model","match","uniform","","","","","","","","258392.5","260395","","","","","","","","","","","","6","","stimuli/stars_6.png","243","","","","","stimuli/BM04_SUR.jpg","",""
"explore-choice","137","259424","0.0-137.0","p722338","A2JDYN6QM8M5UN","3RDTX9JRTZ7MP6YQMJD0Z3DG4HK978","3DQQ64TANIRPUSDS1IMA2T71LPUWP4","model","match","uniform","","","","","","","667.7000000476837","260396.29999995232","261064","[""stimuli/BM04_SUR.jpg"",""stimuli/AF02_HE.jpg"",""stimuli/HF09_CC.jpg"",""stimuli/AM05_FO.jpg""]","stimuli/BM04_SUR.jpg","stimuli/AF02_HE.jpg","stimuli/HF09_CC.jpg","stimuli/AM05_FO.jpg","pos4","stimuli/AM05_FO.jpg","FO","AM05","3","4.5","9","8","stimuli/stars_9.png","247.5","[""SUR"",""HE"",""CC"",""FO""]","[""BM04"",""AF02"",""HF09"",""AM05""]","[3,7,4,9]","[4,6,2,8]","","",""
"show-reward","138","261429","0.0-138.0","p722338","A2JDYN6QM8M5UN","3RDTX9JRTZ7MP6YQMJD0Z3DG4HK978","3DQQ64TANIRPUSDS1IMA2T71LPUWP4","model","match","uniform","","","","","","","","261575.39999985695","263579.19999980927","","","","","","","","","","","","9","","stimuli/stars_9.png","247.5","","","","","stimuli/AM05_FO.jpg","",""
"explore-choice","139","262504","0.0-139.0","p722338","A2JDYN6QM8M5UN","3RDTX9JRTZ7MP6YQMJD0Z3DG4HK978","3DQQ64TANIRPUSDS1IMA2T71LPUWP4","model","match","uniform","","","","","","","568.7000000476837","263580.39999985695","264149.09999990463","[""stimuli/AF02_SUR.jpg"",""stimuli/AM05_HE.jpg"",""stimuli/BM04_FO.jpg"",""stimuli/HF09_CC.jpg""]","stimuli/AF02_SUR.jpg","stimuli/AM05_HE.jpg","stimuli/BM04_FO.jpg","stimuli/HF09_CC.jpg","pos2","stimuli/AM05_HE.jpg","HE","AM05","1","3","6","8","stimuli/stars_6.png","250.5","[""SUR"",""HE"",""FO"",""CC""]","[""AF02"",""AM05"",""BM04"",""HF09""]","[4,6,5,1]","[6,8,4,2]","","",""
"show-reward","140","264511","0.0-140.0","p722338","A2JDYN6QM8M5UN","3RDTX9JRTZ7MP6YQMJD0Z3DG4HK978","3DQQ64TANIRPUSDS1IMA2T71LPUWP4","model","match","uniform","","","","","","","","264654.69999980927","266659.7999999523","","","","","","","","","","","","6","","stimuli/stars_6.png","250.5","","","","","stimuli/AM05_HE.jpg","",""
"explore-choice","141","265575","0.0-141.0","p722338","A2JDYN6QM8M5UN","3RDTX9JRTZ7MP6YQMJD0Z3DG4HK978","3DQQ64TANIRPUSDS1IMA2T71LPUWP4","model","match","uniform","","","","","","","551.2000000476837","266662.89999985695","267214.09999990463","[""stimuli/AM05_SUR.jpg"",""stimuli/AF02_FO.jpg"",""stimuli/HF09_HE.jpg"",""stimuli/BM04_CC.jpg""]","stimuli/AM05_SUR.jpg","stimuli/AF02_FO.jpg","stimuli/HF09_HE.jpg","stimuli/BM04_CC.jpg","pos1","stimuli/AM05_SUR.jpg","SUR","AM05","0","5","10","8","stimuli/stars_10.png","255.5","[""SUR"",""FO"",""HE"",""CC""]","[""AM05"",""AF02"",""HF09"",""BM04""]","[10,5,0,4]","[8,6,2,4]","","",""
"show-reward","142","267580","0.0-142.0","p722338","A2JDYN6QM8M5UN","3RDTX9JRTZ7MP6YQMJD0Z3DG4HK978","3DQQ64TANIRPUSDS1IMA2T71LPUWP4","model","match","uniform","","","","","","","","267726.39999985695","269729.69999980927","","","","","","","","","","","","10","","stimuli/stars_10.png","255.5","","","","","stimuli/AM05_SUR.jpg","",""
"explore-choice","143","268671","0.0-143.0","p722338","A2JDYN6QM8M5UN","3RDTX9JRTZ7MP6YQMJD0Z3DG4HK978","3DQQ64TANIRPUSDS1IMA2T71LPUWP4","model","match","uniform","","","","","","","588.6000001430511","269730.89999985695","270319.5","[""stimuli/AM05_CC.jpg"",""stimuli/HF09_SUR.jpg"",""stimuli/BM04_FO.jpg"",""stimuli/AF02_HE.jpg""]","stimuli/AM05_CC.jpg","stimuli/HF09_SUR.jpg","stimuli/BM04_FO.jpg","stimuli/AF02_HE.jpg","pos1","stimuli/AM05_CC.jpg","CC","AM05","0","5","10","8","stimuli/stars_10.png","260.5","[""CC"",""SUR"",""FO"",""HE""]","[""AM05"",""HF09"",""BM04"",""AF02""]","[10,2,3,7]","[8,2,4,6]","","",""
"show-reward","144","270676","0.0-144.0","p722338","A2JDYN6QM8M5UN","3RDTX9JRTZ7MP6YQMJD0Z3DG4HK978","3DQQ64TANIRPUSDS1IMA2T71LPUWP4","model","match","uniform","","","","","","","","270822.59999990463","272825.89999985695","","","","","","","","","","","","10","","stimuli/stars_10.png","260.5","","","","","stimuli/AM05_CC.jpg","",""
"explore-choice","145","271745","0.0-145.0","p722338","A2JDYN6QM8M5UN","3RDTX9JRTZ7MP6YQMJD0Z3DG4HK978","3DQQ64TANIRPUSDS1IMA2T71LPUWP4","model","match","uniform","","","","","","","557.6000001430511","272827.39999985695","273385","[""stimuli/AM05_SUR.jpg"",""stimuli/HF09_HE.jpg"",""stimuli/AF02_CC.jpg"",""stimuli/BM04_FO.jpg""]","stimuli/AM05_SUR.jpg","stimuli/HF09_HE.jpg","stimuli/AF02_CC.jpg","stimuli/BM04_FO.jpg","pos1","stimuli/AM05_SUR.jpg","SUR","AM05","0","4.5","9","8","stimuli/stars_9.png","265","[""SUR"",""HE"",""CC"",""FO""]","[""AM05"",""HF09"",""AF02"",""BM04""]","[9,4,4,4]","[8,2,6,4]","","",""
"show-reward","146","273749","0.0-146.0","p722338","A2JDYN6QM8M5UN","3RDTX9JRTZ7MP6YQMJD0Z3DG4HK978","3DQQ64TANIRPUSDS1IMA2T71LPUWP4","model","match","uniform","","","","","","","","273896","275899.09999990463","","","","","","","","","","","","9","","stimuli/stars_9.png","265","","","","","stimuli/AM05_SUR.jpg","",""
"explore-choice","147","274792","0.0-147.0","p722338","A2JDYN6QM8M5UN","3RDTX9JRTZ7MP6YQMJD0Z3DG4HK978","3DQQ64TANIRPUSDS1IMA2T71LPUWP4","model","match","uniform","","","","","","","533.7000000476837","275900.7999999523","276434.5","[""stimuli/HF09_SUR.jpg"",""stimuli/AM05_CC.jpg"",""stimuli/BM04_HE.jpg"",""stimuli/AF02_FO.jpg""]","stimuli/HF09_SUR.jpg","stimuli/AM05_CC.jpg","stimuli/BM04_HE.jpg","stimuli/AF02_FO.jpg","pos2","stimuli/AM05_CC.jpg","CC","AM05","1","3","6","8","stimuli/stars_6.png","268","[""SUR"",""CC"",""HE"",""FO""]","[""HF09"",""AM05"",""BM04"",""AF02""]","[1,6,5,7]","[2,8,4,6]","","",""
"show-reward","148","276799","0.0-148.0","p722338","A2JDYN6QM8M5UN","3RDTX9JRTZ7MP6YQMJD0Z3DG4HK978","3DQQ64TANIRPUSDS1IMA2T71LPUWP4","model","match","uniform","","","","","","","","276943.5","278948.09999990463","","","","","","","","","","","","6","","stimuli/stars_6.png","268","","","","","stimuli/AM05_CC.jpg","",""
"explore-choice","149","277956","0.0-149.0","p722338","A2JDYN6QM8M5UN","3RDTX9JRTZ7MP6YQMJD0Z3DG4HK978","3DQQ64TANIRPUSDS1IMA2T71LPUWP4","model","match","uniform","","","","","","","641.2999999523163","278950","279591.2999999523","[""stimuli/HF09_SUR.jpg"",""stimuli/AF02_FO.jpg"",""stimuli/BM04_CC.jpg"",""stimuli/AM05_HE.jpg""]","stimuli/HF09_SUR.jpg","stimuli/AF02_FO.jpg","stimuli/BM04_CC.jpg","stimuli/AM05_HE.jpg","pos4","stimuli/AM05_HE.jpg","HE","AM05","3","3","6","8","stimuli/stars_6.png","271","[""SUR"",""FO"",""CC"",""HE""]","[""HF09"",""AF02"",""BM04"",""AM05""]","[0,4,3,6]","[2,6,4,8]","","",""
"show-reward","150","279959","0.0-150.0","p722338","A2JDYN6QM8M5UN","3RDTX9JRTZ7MP6YQMJD0Z3DG4HK978","3DQQ64TANIRPUSDS1IMA2T71LPUWP4","model","match","uniform","","","","","","","","280106.7999999523","282108.7999999523","","","","","","","","","","","","6","","stimuli/stars_6.png","271","","","","","stimuli/AM05_HE.jpg","",""
"explore-choice","151","281026","0.0-151.0","p722338","A2JDYN6QM8M5UN","3RDTX9JRTZ7MP6YQMJD0Z3DG4HK978","3DQQ64TANIRPUSDS1IMA2T71LPUWP4","model","match","uniform","","","","","","","554.1000001430511","282110.19999980927","282664.2999999523","[""stimuli/AM05_HE.jpg"",""stimuli/AF02_SUR.jpg"",""stimuli/BM04_FO.jpg"",""stimuli/HF09_CC.jpg""]","stimuli/AM05_HE.jpg","stimuli/AF02_SUR.jpg","stimuli/BM04_FO.jpg","stimuli/HF09_CC.jpg","pos1","stimuli/AM05_HE.jpg","HE","AM05","0","3","6","8","stimuli/stars_6.png","274","[""HE"",""SUR"",""FO"",""CC""]","[""AM05"",""AF02"",""BM04"",""HF09""]","[6,4,5,1]","[8,6,4,2]","","",""
"show-reward","152","283040","0.0-152.0","p722338","A2JDYN6QM8M5UN","3RDTX9JRTZ7MP6YQMJD0Z3DG4HK978","3DQQ64TANIRPUSDS1IMA2T71LPUWP4","model","match","uniform","","","","","","","","283177.09999990463","285189","","","","","","","","","","","","6","","stimuli/stars_6.png","274","","","","","stimuli/AM05_HE.jpg","",""
"explore-choice","153","284666","0.0-153.0","p722338","A2JDYN6QM8M5UN","3RDTX9JRTZ7MP6YQMJD0Z3DG4HK978","3DQQ64TANIRPUSDS1IMA2T71LPUWP4","model","match","uniform","","","","","","","1122.7999999523163","285191","286313.7999999523","[""stimuli/AM05_CC.jpg"",""stimuli/BM04_HE.jpg"",""stimuli/AF02_FO.jpg"",""stimuli/HF09_SUR.jpg""]","stimuli/AM05_CC.jpg","stimuli/BM04_HE.jpg","stimuli/AF02_FO.jpg","stimuli/HF09_SUR.jpg","pos3","stimuli/AF02_FO.jpg","FO","AF02","2","3.5","7","6","stimuli/stars_7.png","277.5","[""CC"",""HE"",""FO"",""SUR""]","[""AM05"",""BM04"",""AF02"",""HF09""]","[6,5,7,1]","[8,4,6,2]","","",""
"show-reward","154","286670","0.0-154.0","p722338","A2JDYN6QM8M5UN","3RDTX9JRTZ7MP6YQMJD0Z3DG4HK978","3DQQ64TANIRPUSDS1IMA2T71LPUWP4","model","match","uniform","","","","","","","","286817.2999999523","288819.89999985695","","","","","","","","","","","","7","","stimuli/stars_7.png","277.5","","","","","stimuli/AF02_FO.jpg","",""
"explore-choice","155","287814","0.0-155.0","p722338","A2JDYN6QM8M5UN","3RDTX9JRTZ7MP6YQMJD0Z3DG4HK978","3DQQ64TANIRPUSDS1IMA2T71LPUWP4","model","match","uniform","","","","","","","631.6000001430511","288822.19999980927","289453.7999999523","[""stimuli/AM05_SUR.jpg"",""stimuli/HF09_HE.jpg"",""stimuli/AF02_CC.jpg"",""stimuli/BM04_FO.jpg""]","stimuli/AM05_SUR.jpg","stimuli/HF09_HE.jpg","stimuli/AF02_CC.jpg","stimuli/BM04_FO.jpg","pos4","stimuli/BM04_FO.jpg","FO","BM04","3","2","4","4","stimuli/stars_4.png","279.5","[""SUR"",""HE"",""CC"",""FO""]","[""AM05"",""HF09"",""AF02"",""BM04""]","[9,4,4,4]","[8,2,6,4]","","",""
"show-reward","156","289818","0.0-156.0","p722338","A2JDYN6QM8M5UN","3RDTX9JRTZ7MP6YQMJD0Z3DG4HK978","3DQQ64TANIRPUSDS1IMA2T71LPUWP4","model","match","uniform","","","","","","","","289965.2999999523","291967.5","","","","","","","","","","","","4","","stimuli/stars_4.png","279.5","","","","","stimuli/BM04_FO.jpg","",""
"explore-choice","157","290925","0.0-157.0","p722338","A2JDYN6QM8M5UN","3RDTX9JRTZ7MP6YQMJD0Z3DG4HK978","3DQQ64TANIRPUSDS1IMA2T71LPUWP4","model","match","uniform","","","","","","","606.2000000476837","291968.69999980927","292574.89999985695","[""stimuli/HF09_HE.jpg"",""stimuli/BM04_SUR.jpg"",""stimuli/AF02_FO.jpg"",""stimuli/AM05_CC.jpg""]","stimuli/HF09_HE.jpg","stimuli/BM04_SUR.jpg","stimuli/AF02_FO.jpg","stimuli/AM05_CC.jpg","pos4","stimuli/AM05_CC.jpg","CC","AM05","3","4.5","9","8","stimuli/stars_9.png","284","[""HE"",""SUR"",""FO"",""CC""]","[""HF09"",""BM04"",""AF02"",""AM05""]","[4,2,5,9]","[2,4,6,8]","","",""
"show-reward","158","292929","0.0-158.0","p722338","A2JDYN6QM8M5UN","3RDTX9JRTZ7MP6YQMJD0Z3DG4HK978","3DQQ64TANIRPUSDS1IMA2T71LPUWP4","model","match","uniform","","","","","","","","293076.39999985695","295079","","","","","","","","","","","","9","","stimuli/stars_9.png","284","","","","","stimuli/AM05_CC.jpg","",""
"explore-choice","159","293978","0.0-159.0","p722338","A2JDYN6QM8M5UN","3RDTX9JRTZ7MP6YQMJD0Z3DG4HK978","3DQQ64TANIRPUSDS1IMA2T71LPUWP4","model","match","uniform","","","","","","","545.7999999523163","295081.09999990463","295626.89999985695","[""stimuli/HF09_HE.jpg"",""stimuli/BM04_SUR.jpg"",""stimuli/AF02_CC.jpg"",""stimuli/AM05_FO.jpg""]","stimuli/HF09_HE.jpg","stimuli/BM04_SUR.jpg","stimuli/AF02_CC.jpg","stimuli/AM05_FO.jpg","pos4","stimuli/AM05_FO.jpg","FO","AM05","3","3","6","8","stimuli/stars_6.png","287","[""HE"",""SUR"",""CC"",""FO""]","[""HF09"",""BM04"",""AF02"",""AM05""]","[0,3,8,6]","[2,4,6,8]","","",""
"show-reward","160","295982","0.0-160.0","p722338","A2JDYN6QM8M5UN","3RDTX9JRTZ7MP6YQMJD0Z3DG4HK978","3DQQ64TANIRPUSDS1IMA2T71LPUWP4","model","match","uniform","","","","","","","","296128.89999985695","298131.89999985695","","","","","","","","","","","","6","","stimuli/stars_6.png","287","","","","","stimuli/AM05_FO.jpg","",""
"explore-choice","161","297029","0.0-161.0","p722338","A2JDYN6QM8M5UN","3RDTX9JRTZ7MP6YQMJD0Z3DG4HK978","3DQQ64TANIRPUSDS1IMA2T71LPUWP4","model","match","uniform","","","","","","","544.7999999523163","298132.89999985695","298677.69999980927","[""stimuli/BM04_CC.jpg"",""stimuli/HF09_FO.jpg"",""stimuli/AF02_HE.jpg"",""stimuli/AM05_SUR.jpg""]","stimuli/BM04_CC.jpg","stimuli/HF09_FO.jpg","stimuli/AF02_HE.jpg","stimuli/AM05_SUR.jpg","pos4","stimuli/AM05_SUR.jpg","SUR","AM05","3","3","6","8","stimuli/stars_6.png","290","[""CC"",""FO"",""HE"",""SUR""]","[""BM04"",""HF09"",""AF02"",""AM05""]","[2,0,7,6]","[4,2,6,8]","","",""
"show-reward","162","299049","0.0-162.0","p722338","A2JDYN6QM8M5UN","3RDTX9JRTZ7MP6YQMJD0Z3DG4HK978","3DQQ64TANIRPUSDS1IMA2T71LPUWP4","model","match","uniform","","","","","","","","299180.7999999523","301197.69999980927","","","","","","","","","","","","6","","stimuli/stars_6.png","290","","","","","stimuli/AM05_SUR.jpg","",""
"explore-choice","163","300133","0.0-163.0","p722338","A2JDYN6QM8M5UN","3RDTX9JRTZ7MP6YQMJD0Z3DG4HK978","3DQQ64TANIRPUSDS1IMA2T71LPUWP4","model","match","uniform","","","","","","","568.1000001430511","301199.89999985695","301768","[""stimuli/BM04_SUR.jpg"",""stimuli/HF09_CC.jpg"",""stimuli/AF02_HE.jpg"",""stimuli/AM05_FO.jpg""]","stimuli/BM04_SUR.jpg","stimuli/HF09_CC.jpg","stimuli/AF02_HE.jpg","stimuli/AM05_FO.jpg","pos4","stimuli/AM05_FO.jpg","FO","AM05","3","4.5","9","8","stimuli/stars_9.png","294.5","[""SUR"",""CC"",""HE"",""FO""]","[""BM04"",""HF09"",""AF02"",""AM05""]","[3,4,7,9]","[4,2,6,8]","","",""
"show-reward","164","302140","0.0-164.0","p722338","A2JDYN6QM8M5UN","3RDTX9JRTZ7MP6YQMJD0Z3DG4HK978","3DQQ64TANIRPUSDS1IMA2T71LPUWP4","model","match","uniform","","","","","","","","302283.59999990463","304289","","","","","","","","","","","","9","","stimuli/stars_9.png","294.5","","","","","stimuli/AM05_FO.jpg","",""
"explore-choice","165","303321","0.0-165.0","p722338","A2JDYN6QM8M5UN","3RDTX9JRTZ7MP6YQMJD0Z3DG4HK978","3DQQ64TANIRPUSDS1IMA2T71LPUWP4","model","match","uniform","","","","","","","677.8999998569489","304291.2999999523","304969.19999980927","[""stimuli/AF02_SUR.jpg"",""stimuli/HF09_FO.jpg"",""stimuli/AM05_CC.jpg"",""stimuli/BM04_HE.jpg""]","stimuli/AF02_SUR.jpg","stimuli/HF09_FO.jpg","stimuli/AM05_CC.jpg","stimuli/BM04_HE.jpg","pos3","stimuli/AM05_CC.jpg","CC","AM05","2","4.5","9","8","stimuli/stars_9.png","299","[""SUR"",""FO"",""CC"",""HE""]","[""AF02"",""HF09"",""AM05"",""BM04""]","[4,1,9,6]","[6,2,8,4]","","",""
"show-reward","166","305327","0.0-166.0","p722338","A2JDYN6QM8M5UN","3RDTX9JRTZ7MP6YQMJD0Z3DG4HK978","3DQQ64TANIRPUSDS1IMA2T71LPUWP4","model","match","uniform","","","","","","","","305471.7999999523","307475.5","","","","","","","","","","","","9","","stimuli/stars_9.png","299","","","","","stimuli/AM05_CC.jpg","",""
"explore-choice","167","306465","0.0-167.0","p722338","A2JDYN6QM8M5UN","3RDTX9JRTZ7MP6YQMJD0Z3DG4HK978","3DQQ64TANIRPUSDS1IMA2T71LPUWP4","model","match","uniform","","","","","","","626.5999999046326","307477.59999990463","308104.19999980927","[""stimuli/AF02_FO.jpg"",""stimuli/BM04_SUR.jpg"",""stimuli/AM05_HE.jpg"",""stimuli/HF09_CC.jpg""]","stimuli/AF02_FO.jpg","stimuli/BM04_SUR.jpg","stimuli/AM05_HE.jpg","stimuli/HF09_CC.jpg","pos3","stimuli/AM05_HE.jpg","HE","AM05","2","4.5","9","8","stimuli/stars_9.png","303.5","[""FO"",""SUR"",""HE"",""CC""]","[""AF02"",""BM04"",""AM05"",""HF09""]","[7,6,9,0]","[6,4,8,2]","","",""
"show-reward","168","308474","0.0-168.0","p722338","A2JDYN6QM8M5UN","3RDTX9JRTZ7MP6YQMJD0Z3DG4HK978","3DQQ64TANIRPUSDS1IMA2T71LPUWP4","model","match","uniform","","","","","","","","308616.2999999523","310623.59999990463","","","","","","","","","","","","9","","stimuli/stars_9.png","303.5","","","","","stimuli/AM05_HE.jpg","",""
"explore-choice","169","309631","0.0-169.0","p722338","A2JDYN6QM8M5UN","3RDTX9JRTZ7MP6YQMJD0Z3DG4HK978","3DQQ64TANIRPUSDS1IMA2T71LPUWP4","model","match","uniform","","","","","","","646.5","310625.2999999523","311271.7999999523","[""stimuli/BM04_CC.jpg"",""stimuli/AF02_FO.jpg"",""stimuli/HF09_SUR.jpg"",""stimuli/AM05_HE.jpg""]","stimuli/BM04_CC.jpg","stimuli/AF02_FO.jpg","stimuli/HF09_SUR.jpg","stimuli/AM05_HE.jpg","pos4","stimuli/AM05_HE.jpg","HE","AM05","3","3","6","8","stimuli/stars_6.png","306.5","[""CC"",""FO"",""SUR"",""HE""]","[""BM04"",""AF02"",""HF09"",""AM05""]","[3,4,0,6]","[4,6,2,8]","","",""
"show-reward","170","311650","0.0-170.0","p722338","A2JDYN6QM8M5UN","3RDTX9JRTZ7MP6YQMJD0Z3DG4HK978","3DQQ64TANIRPUSDS1IMA2T71LPUWP4","model","match","uniform","","","","","","","","311782.2999999523","313799.09999990463","","","","","","","","","","","","6","","stimuli/stars_6.png","306.5","","","","","stimuli/AM05_HE.jpg","",""
"explore-choice","171","312738","0.0-171.0","p722338","A2JDYN6QM8M5UN","3RDTX9JRTZ7MP6YQMJD0Z3DG4HK978","3DQQ64TANIRPUSDS1IMA2T71LPUWP4","model","match","uniform","","","","","","","586.0999999046326","313800.7999999523","314386.89999985695","[""stimuli/AF02_FO.jpg"",""stimuli/AM05_SUR.jpg"",""stimuli/HF09_HE.jpg"",""stimuli/BM04_CC.jpg""]","stimuli/AF02_FO.jpg","stimuli/AM05_SUR.jpg","stimuli/HF09_HE.jpg","stimuli/BM04_CC.jpg","pos2","stimuli/AM05_SUR.jpg","SUR","AM05","1","5","10","8","stimuli/stars_10.png","311.5","[""FO"",""SUR"",""HE"",""CC""]","[""AF02"",""AM05"",""HF09"",""BM04""]","[5,10,0,4]","[6,8,2,4]","","",""
"show-reward","172","314750","0.0-172.0","p722338","A2JDYN6QM8M5UN","3RDTX9JRTZ7MP6YQMJD0Z3DG4HK978","3DQQ64TANIRPUSDS1IMA2T71LPUWP4","model","match","uniform","","","","","","","","314889.7999999523","316899.09999990463","","","","","","","","","","","","10","","stimuli/stars_10.png","311.5","","","","","stimuli/AM05_SUR.jpg","",""
"explore-choice","173","315844","0.0-173.0","p722338","A2JDYN6QM8M5UN","3RDTX9JRTZ7MP6YQMJD0Z3DG4HK978","3DQQ64TANIRPUSDS1IMA2T71LPUWP4","model","match","uniform","","","","","","","582.5999999046326","316901","317483.59999990463","[""stimuli/BM04_HE.jpg"",""stimuli/AM05_SUR.jpg"",""stimuli/AF02_CC.jpg"",""stimuli/HF09_FO.jpg""]","stimuli/BM04_HE.jpg","stimuli/AM05_SUR.jpg","stimuli/AF02_CC.jpg","stimuli/HF09_FO.jpg","pos2","stimuli/AM05_SUR.jpg","SUR","AM05","1","4","8","8","stimuli/stars_8.png","315.5","[""HE"",""SUR"",""CC"",""FO""]","[""BM04"",""AM05"",""AF02"",""HF09""]","[6,8,4,2]","[4,8,6,2]","","",""
"show-reward","174","317857","0.0-174.0","p722338","A2JDYN6QM8M5UN","3RDTX9JRTZ7MP6YQMJD0Z3DG4HK978","3DQQ64TANIRPUSDS1IMA2T71LPUWP4","model","match","uniform","","","","","","","","317995.59999990463","320005.7999999523","","","","","","","","","","","","8","","stimuli/stars_8.png","315.5","","","","","stimuli/AM05_SUR.jpg","",""
"explore-choice","175","319272","0.0-175.0","p722338","A2JDYN6QM8M5UN","3RDTX9JRTZ7MP6YQMJD0Z3DG4HK978","3DQQ64TANIRPUSDS1IMA2T71LPUWP4","model","match","uniform","","","","","","","912.8999998569489","320007.2999999523","320920.19999980927","[""stimuli/HF09_SUR.jpg"",""stimuli/BM04_FO.jpg"",""stimuli/AM05_CC.jpg"",""stimuli/AF02_HE.jpg""]","stimuli/HF09_SUR.jpg","stimuli/BM04_FO.jpg","stimuli/AM05_CC.jpg","stimuli/AF02_HE.jpg","pos3","stimuli/AM05_CC.jpg","CC","AM05","2","5","10","8","stimuli/stars_10.png","320.5","[""SUR"",""FO"",""CC"",""HE""]","[""HF09"",""BM04"",""AM05"",""AF02""]","[2,3,10,7]","[2,4,8,6]","","",""
"show-reward","176","321284","0.0-176.0","p722338","A2JDYN6QM8M5UN","3RDTX9JRTZ7MP6YQMJD0Z3DG4HK978","3DQQ64TANIRPUSDS1IMA2T71LPUWP4","model","match","uniform","","","","","","","","321422.39999985695","323433.19999980927","","","","","","","","","","","","10","","stimuli/stars_10.png","320.5","","","","","stimuli/AM05_CC.jpg","",""
"explore-choice","177","322432","0.0-177.0","p722338","A2JDYN6QM8M5UN","3RDTX9JRTZ7MP6YQMJD0Z3DG4HK978","3DQQ64TANIRPUSDS1IMA2T71LPUWP4","model","match","uniform","","","","","","","635","323435","324070","[""stimuli/AF02_CC.jpg"",""stimuli/AM05_HE.jpg"",""stimuli/HF09_FO.jpg"",""stimuli/BM04_SUR.jpg""]","stimuli/AF02_CC.jpg","stimuli/AM05_HE.jpg","stimuli/HF09_FO.jpg","stimuli/BM04_SUR.jpg","pos2","stimuli/AM05_HE.jpg","HE","AM05","1","4.5","9","8","stimuli/stars_9.png","325","[""CC"",""HE"",""FO"",""SUR""]","[""AF02"",""AM05"",""HF09"",""BM04""]","[8,9,1,2]","[6,8,2,4]","","",""
"show-reward","178","324450","0.0-178.0","p722338","A2JDYN6QM8M5UN","3RDTX9JRTZ7MP6YQMJD0Z3DG4HK978","3DQQ64TANIRPUSDS1IMA2T71LPUWP4","model","match","uniform","","","","","","","","324582.69999980927","326598.7999999523","","","","","","","","","","","","9","","stimuli/stars_9.png","325","","","","","stimuli/AM05_HE.jpg","",""
"explore-choice","179","325533","0.0-179.0","p722338","A2JDYN6QM8M5UN","3RDTX9JRTZ7MP6YQMJD0Z3DG4HK978","3DQQ64TANIRPUSDS1IMA2T71LPUWP4","model","match","uniform","","","","","","","578.7000000476837","326601.2999999523","327180","[""stimuli/HF09_FO.jpg"",""stimuli/AF02_HE.jpg"",""stimuli/AM05_CC.jpg"",""stimuli/BM04_SUR.jpg""]","stimuli/HF09_FO.jpg","stimuli/AF02_HE.jpg","stimuli/AM05_CC.jpg","stimuli/BM04_SUR.jpg","pos3","stimuli/AM05_CC.jpg","CC","AM05","2","5","10","8","stimuli/stars_10.png","330","[""FO"",""HE"",""CC"",""SUR""]","[""HF09"",""AF02"",""AM05"",""BM04""]","[0,8,10,4]","[2,6,8,4]","","",""
"show-reward","180","327551","0.0-180.0","p722338","A2JDYN6QM8M5UN","3RDTX9JRTZ7MP6YQMJD0Z3DG4HK978","3DQQ64TANIRPUSDS1IMA2T71LPUWP4","model","match","uniform","","","","","","","","327684.89999985695","329700.39999985695","","","","","","","","","","","","10","","stimuli/stars_10.png","330","","","","","stimuli/AM05_CC.jpg","",""
"explore-choice","181","328581","0.0-181.0","p722338","A2JDYN6QM8M5UN","3RDTX9JRTZ7MP6YQMJD0Z3DG4HK978","3DQQ64TANIRPUSDS1IMA2T71LPUWP4","model","match","uniform","","","","","","","527","329702.09999990463","330229.09999990463","[""stimuli/HF09_CC.jpg"",""stimuli/BM04_HE.jpg"",""stimuli/AF02_FO.jpg"",""stimuli/AM05_SUR.jpg""]","stimuli/HF09_CC.jpg","stimuli/BM04_HE.jpg","stimuli/AF02_FO.jpg","stimuli/AM05_SUR.jpg","pos4","stimuli/AM05_SUR.jpg","SUR","AM05","3","3.5","7","8","stimuli/stars_7.png","333.5","[""CC"",""HE"",""FO"",""SUR""]","[""HF09"",""BM04"",""AF02"",""AM05""]","[2,5,4,7]","[2,4,6,8]","","",""
"show-reward","182","330598","0.0-182.0","p722338","A2JDYN6QM8M5UN","3RDTX9JRTZ7MP6YQMJD0Z3DG4HK978","3DQQ64TANIRPUSDS1IMA2T71LPUWP4","model","match","uniform","","","","","","","","330732.09999990463","332746.69999980927","","","","","","","","","","","","7","","stimuli/stars_7.png","333.5","","","","","stimuli/AM05_SUR.jpg","",""
"explore-choice","183","331737","0.0-183.0","p722338","A2JDYN6QM8M5UN","3RDTX9JRTZ7MP6YQMJD0Z3DG4HK978","3DQQ64TANIRPUSDS1IMA2T71LPUWP4","model","match","uniform","","","","","","","636.7000000476837","332748.69999980927","333385.39999985695","[""stimuli/HF09_SUR.jpg"",""stimuli/AM05_FO.jpg"",""stimuli/BM04_CC.jpg"",""stimuli/AF02_HE.jpg""]","stimuli/HF09_SUR.jpg","stimuli/AM05_FO.jpg","stimuli/BM04_CC.jpg","stimuli/AF02_HE.jpg","pos2","stimuli/AM05_FO.jpg","FO","AM05","1","3.5","7","8","stimuli/stars_7.png","337","[""SUR"",""FO"",""CC"",""HE""]","[""HF09"",""AM05"",""BM04"",""AF02""]","[2,7,4,4]","[2,8,4,6]","","",""
"show-reward","184","333744","0.0-184.0","p722338","A2JDYN6QM8M5UN","3RDTX9JRTZ7MP6YQMJD0Z3DG4HK978","3DQQ64TANIRPUSDS1IMA2T71LPUWP4","model","match","uniform","","","","","","","","333888","335892.7999999523","","","","","","","","","","","","7","","stimuli/stars_7.png","337","","","","","stimuli/AM05_FO.jpg","",""
"explore-choice","185","334961","0.0-185.0","p722338","A2JDYN6QM8M5UN","3RDTX9JRTZ7MP6YQMJD0Z3DG4HK978","3DQQ64TANIRPUSDS1IMA2T71LPUWP4","model","match","uniform","","","","","","","715.7000000476837","335894.89999985695","336610.59999990463","[""stimuli/AM05_CC.jpg"",""stimuli/BM04_FO.jpg"",""stimuli/HF09_HE.jpg"",""stimuli/AF02_SUR.jpg""]","stimuli/AM05_CC.jpg","stimuli/BM04_FO.jpg","stimuli/HF09_HE.jpg","stimuli/AF02_SUR.jpg","pos1","stimuli/AM05_CC.jpg","CC","AM05","0","5","10","8","stimuli/stars_10.png","342","[""CC"",""FO"",""HE"",""SUR""]","[""AM05"",""BM04"",""HF09"",""AF02""]","[10,6,0,8]","[8,4,2,6]","","",""
"show-reward","186","336967","0.0-186.0","p722338","A2JDYN6QM8M5UN","3RDTX9JRTZ7MP6YQMJD0Z3DG4HK978","3DQQ64TANIRPUSDS1IMA2T71LPUWP4","model","match","uniform","","","","","","","","337112.09999990463","339116.09999990463","","","","","","","","","","","","10","","stimuli/stars_10.png","342","","","","","stimuli/AM05_CC.jpg","",""
"explore-choice","187","338876","0.0-187.0","p722338","A2JDYN6QM8M5UN","3RDTX9JRTZ7MP6YQMJD0Z3DG4HK978","3DQQ64TANIRPUSDS1IMA2T71LPUWP4","model","match","uniform","","","","","","","1407.7000000476837","339117.2999999523","340525","[""stimuli/HF09_FO.jpg"",""stimuli/AF02_SUR.jpg"",""stimuli/BM04_CC.jpg"",""stimuli/AM05_HE.jpg""]","stimuli/HF09_FO.jpg","stimuli/AF02_SUR.jpg","stimuli/BM04_CC.jpg","stimuli/AM05_HE.jpg","pos4","stimuli/AM05_HE.jpg","HE","AM05","3","3.5","7","8","stimuli/stars_7.png","345.5","[""FO"",""SUR"",""CC"",""HE""]","[""HF09"",""AF02"",""BM04"",""AM05""]","[0,5,6,7]","[2,6,4,8]","","",""
"show-reward","188","340880","0.0-188.0","p722338","A2JDYN6QM8M5UN","3RDTX9JRTZ7MP6YQMJD0Z3DG4HK978","3DQQ64TANIRPUSDS1IMA2T71LPUWP4","model","match","uniform","","","","","","","","341027.39999985695","343029.5","","","","","","","","","","","","7","","stimuli/stars_7.png","345.5","","","","","stimuli/AM05_HE.jpg","",""
"explore-choice","189","341965","0.0-189.0","p722338","A2JDYN6QM8M5UN","3RDTX9JRTZ7MP6YQMJD0Z3DG4HK978","3DQQ64TANIRPUSDS1IMA2T71LPUWP4","model","match","uniform","","","","","","","575.9000000953674","343031.09999990463","343607","[""stimuli/AF02_CC.jpg"",""stimuli/AM05_HE.jpg"",""stimuli/BM04_FO.jpg"",""stimuli/HF09_SUR.jpg""]","stimuli/AF02_CC.jpg","stimuli/AM05_HE.jpg","stimuli/BM04_FO.jpg","stimuli/HF09_SUR.jpg","pos2","stimuli/AM05_HE.jpg","HE","AM05","1","3.5","7","8","stimuli/stars_7.png","349","[""CC"",""HE"",""FO"",""SUR""]","[""AF02"",""AM05"",""BM04"",""HF09""]","[4,7,5,4]","[6,8,4,2]","","",""
"show-reward","190","343970","0.0-190.0","p722338","A2JDYN6QM8M5UN","3RDTX9JRTZ7MP6YQMJD0Z3DG4HK978","3DQQ64TANIRPUSDS1IMA2T71LPUWP4","model","match","uniform","","","","","","","","344116.09999990463","346119.7999999523","","","","","","","","","","","","7","","stimuli/stars_7.png","349","","","","","stimuli/AM05_HE.jpg","",""
"explore-choice","191","345045","0.0-191.0","p722338","A2JDYN6QM8M5UN","3RDTX9JRTZ7MP6YQMJD0Z3DG4HK978","3DQQ64TANIRPUSDS1IMA2T71LPUWP4","model","match","uniform","","","","","","","571.9000000953674","346120.89999985695","346692.7999999523","[""stimuli/HF09_CC.jpg"",""stimuli/AM05_FO.jpg"",""stimuli/BM04_HE.jpg"",""stimuli/AF02_SUR.jpg""]","stimuli/HF09_CC.jpg","stimuli/AM05_FO.jpg","stimuli/BM04_HE.jpg","stimuli/AF02_SUR.jpg","pos2","stimuli/AM05_FO.jpg","FO","AM05","1","3","6","8","stimuli/stars_6.png","352","[""CC"",""FO"",""HE"",""SUR""]","[""HF09"",""AM05"",""BM04"",""AF02""]","[4,6,3,7]","[2,8,4,6]","","",""
"show-reward","192","347054","0.0-192.0","p722338","A2JDYN6QM8M5UN","3RDTX9JRTZ7MP6YQMJD0Z3DG4HK978","3DQQ64TANIRPUSDS1IMA2T71LPUWP4","model","match","uniform","","","","","","","","347196.5","349203.5","","","","","","","","","","","","6","","stimuli/stars_6.png","352","","","","","stimuli/AM05_FO.jpg","",""
"explore-choice","193","348082","0.0-193.0","p722338","A2JDYN6QM8M5UN","3RDTX9JRTZ7MP6YQMJD0Z3DG4HK978","3DQQ64TANIRPUSDS1IMA2T71LPUWP4","model","match","uniform","","","","","","","521.8000001907349","349205.19999980927","349727","[""stimuli/BM04_FO.jpg"",""stimuli/AM05_SUR.jpg"",""stimuli/AF02_HE.jpg"",""stimuli/HF09_CC.jpg""]","stimuli/BM04_FO.jpg","stimuli/AM05_SUR.jpg","stimuli/AF02_HE.jpg","stimuli/HF09_CC.jpg","pos2","stimuli/AM05_SUR.jpg","SUR","AM05","1","5","10","8","stimuli/stars_10.png","357","[""FO"",""SUR"",""HE"",""CC""]","[""BM04"",""AM05"",""AF02"",""HF09""]","[4,10,8,0]","[4,8,6,2]","","",""
"show-reward","194","350097","0.0-194.0","p722338","A2JDYN6QM8M5UN","3RDTX9JRTZ7MP6YQMJD0Z3DG4HK978","3DQQ64TANIRPUSDS1IMA2T71LPUWP4","model","match","uniform","","","","","","","","350232.89999985695","352245.5","","","","","","","","","","","","10","","stimuli/stars_10.png","357","","","","","stimuli/AM05_SUR.jpg","",""
"explore-choice","195","351337","0.0-195.0","p722338","A2JDYN6QM8M5UN","3RDTX9JRTZ7MP6YQMJD0Z3DG4HK978","3DQQ64TANIRPUSDS1IMA2T71LPUWP4","model","match","uniform","","","","","","","733.2000000476837","352247.59999990463","352980.7999999523","[""stimuli/AF02_CC.jpg"",""stimuli/HF09_SUR.jpg"",""stimuli/BM04_HE.jpg"",""stimuli/AM05_FO.jpg""]","stimuli/AF02_CC.jpg","stimuli/HF09_SUR.jpg","stimuli/BM04_HE.jpg","stimuli/AM05_FO.jpg","pos4","stimuli/AM05_FO.jpg","FO","AM05","3","3.5","7","8","stimuli/stars_7.png","360.5","[""CC"",""SUR"",""HE"",""FO""]","[""AF02"",""HF09"",""BM04"",""AM05""]","[7,2,4,7]","[6,2,4,8]","","",""
"show-reward","196","353341","0.0-196.0","p722338","A2JDYN6QM8M5UN","3RDTX9JRTZ7MP6YQMJD0Z3DG4HK978","3DQQ64TANIRPUSDS1IMA2T71LPUWP4","model","match","uniform","","","","","","","","353488.2999999523","355490.69999980927","","","","","","","","","","","","7","","stimuli/stars_7.png","360.5","","","","","stimuli/AM05_FO.jpg","",""
"explore-choice","197","354402","0.0-197.0","p722338","A2JDYN6QM8M5UN","3RDTX9JRTZ7MP6YQMJD0Z3DG4HK978","3DQQ64TANIRPUSDS1IMA2T71LPUWP4","model","match","uniform","","","","","","","553.2000000476837","355491.89999985695","356045.09999990463","[""stimuli/AF02_SUR.jpg"",""stimuli/AM05_FO.jpg"",""stimuli/HF09_HE.jpg"",""stimuli/BM04_CC.jpg""]","stimuli/AF02_SUR.jpg","stimuli/AM05_FO.jpg","stimuli/HF09_HE.jpg","stimuli/BM04_CC.jpg","pos2","stimuli/AM05_FO.jpg","FO","AM05","1","3.5","7","8","stimuli/stars_7.png","364","[""SUR"",""FO"",""HE"",""CC""]","[""AF02"",""AM05"",""HF09"",""BM04""]","[7,7,4,4]","[6,8,2,4]","","",""
"show-reward","198","356413","0.0-198.0","p722338","A2JDYN6QM8M5UN","3RDTX9JRTZ7MP6YQMJD0Z3DG4HK978","3DQQ64TANIRPUSDS1IMA2T71LPUWP4","model","match","uniform","","","","","","","","356553.39999985695","358562.19999980927","","","","","","","","","","","","7","","stimuli/stars_7.png","364","","","","","stimuli/AM05_FO.jpg","",""
"instructions","199","360254","0.0-199.0","p722338","A2JDYN6QM8M5UN","3RDTX9JRTZ7MP6YQMJD0Z3DG4HK978","3DQQ64TANIRPUSDS1IMA2T71LPUWP4","model","match","uniform","","","","","","[{""page_index"":0,""viewing_time"":3838}]","3840.5","","","","","","","","","","","","","","","","","","","","","","","",""
"survey-text","200","363242","0.0-200.0-0.0","p722338","A2JDYN6QM8M5UN","3RDTX9JRTZ7MP6YQMJD0Z3DG4HK978","3DQQ64TANIRPUSDS1IMA2T71LPUWP4","model","match","uniform","","","","","","","2981.0999999046326","","","","","","","","","","","","","","","","","","","","","","","{""age"":""28""}",""
"survey-text","201","366618","0.0-200.0-1.0","p722338","A2JDYN6QM8M5UN","3RDTX9JRTZ7MP6YQMJD0Z3DG4HK978","3DQQ64TANIRPUSDS1IMA2T71LPUWP4","model","match","uniform","","","","","","","3366.9000000953674","","","","","","","","","","","","","","","","","","","","","","","{""gender"":""male""}",""
"survey-text","202","370442","0.0-200.0-2.0","p722338","A2JDYN6QM8M5UN","3RDTX9JRTZ7MP6YQMJD0Z3DG4HK978","3DQQ64TANIRPUSDS1IMA2T71LPUWP4","model","match","uniform","","","","","","","3814.300000190735","","","","","","","","","","","","","","","","","","","","","","","{""country"":""USA""}",""
"survey-text","203","375498","0.0-200.0-3.0","p722338","A2JDYN6QM8M5UN","3RDTX9JRTZ7MP6YQMJD0Z3DG4HK978","3DQQ64TANIRPUSDS1IMA2T71LPUWP4","model","match","uniform","","","","","","","5048.400000095367","","","","","","","","","","","","","","","","","","","","","","","{""language"":""English"",""other_languages"":""""}",""
"survey-multi-select","204","377281","0.0-201.0","p722338","A2JDYN6QM8M5UN","3RDTX9JRTZ7MP6YQMJD0Z3DG4HK978","3DQQ64TANIRPUSDS1IMA2T71LPUWP4","model","match","uniform","","","","","","","1775.6000001430511","","","","","","","","","","","","","","","","","","","","","","","{""race"":[""White""]}","[0]"
"survey-multi-choice","205","379481","0.0-202.0","p722338","A2JDYN6QM8M5UN","3RDTX9JRTZ7MP6YQMJD0Z3DG4HK978","3DQQ64TANIRPUSDS1IMA2T71LPUWP4","model","match","uniform","","","","","","","2194.4000000953674","","","","","","","","","","","","","","","","","","","","","","","{""education"":""Some college/ university""}","[0]"
"survey-text","206","399168","0.0-203.0","p722338","A2JDYN6QM8M5UN","3RDTX9JRTZ7MP6YQMJD0Z3DG4HK978","3DQQ64TANIRPUSDS1IMA2T71LPUWP4","model","match","uniform","","","","","","","19666","","","","","","","","","","","","","","","","","","","","","","","{""patterns"":""None in particularly"",""strategy"":""chose the pictures that awarded the most stars..."",""comments"":""""}",""
