"trial_type","trial_index","time_elapsed","internal_node_id","subject","workerId","hitId","assignmentId","structure_condition","match_condition","noise_type","success","timeout","failed_images","failed_audio","failed_video","view_history","rt","start_time","end_time","stimuli","image1","image2","image3","image4","choiceLocation","choiceImage","choiceEmotion","choiceModel","choice_index","reward_score","reward","reward_score_unadjusted","reward_image","score_after_trial","emotions","models","rewards","rewards_unadjusted","stimulus","response","question_order"
"pavlovia","0","8","0.0-0.0","p689713","AFK9ALQK5GPNG","3S1L4CQSFYBD9IN1W8PCJQ1H8N7AFE","3FFJ6VRIL3U45GP3VG35M1XLY4G0IM","model","match","uniform","","","","","","","","","","","","","","","","","","","","","","","","","","","","","","",""
"preload","1","3823","0.0-1.0","p689713","AFK9ALQK5GPNG","3S1L4CQSFYBD9IN1W8PCJQ1H8N7AFE","3FFJ6VRIL3U45GP3VG35M1XLY4G0IM","model","match","uniform","true","false","[]","[]","[]","","","","","","","","","","","","","","","","","","","","","","","","","",""
"fullscreen","2","15622","0.0-2.0","p689713","AFK9ALQK5GPNG","3S1L4CQSFYBD9IN1W8PCJQ1H8N7AFE","3FFJ6VRIL3U45GP3VG35M1XLY4G0IM","model","match","uniform","true","","","","","","","","","","","","","","","","","","","","","","","","","","","","","",""
"instructions","3","21654","0.0-3.0","p689713","AFK9ALQK5GPNG","3S1L4CQSFYBD9IN1W8PCJQ1H8N7AFE","3FFJ6VRIL3U45GP3VG35M1XLY4G0IM","model","match","uniform","","","","","","[{""page_index"":0,""viewing_time"":6030}]","6030","","","","","","","","","","","","","","","","","","","","","","","",""
"explore-choice","4","24164","0.0-4.0","p689713","AFK9ALQK5GPNG","3S1L4CQSFYBD9IN1W8PCJQ1H8N7AFE","3FFJ6VRIL3U45GP3VG35M1XLY4G0IM","model","match","uniform","","","","","","","2005","23080","25085","[""stimuli/sheep.jpg"",""stimuli/hammer.jpg"",""stimuli/basketball.jpg"",""stimuli/horse.jpg""]","stimuli/sheep.jpg","stimuli/hammer.jpg","stimuli/basketball.jpg","stimuli/horse.jpg","pos4","stimuli/horse.jpg","","","3","64","64","64","stimuli/stars_8.png","65","","","","","","",""
"explore-choice","5","25765","0.0-5.0","p689713","AFK9ALQK5GPNG","3S1L4CQSFYBD9IN1W8PCJQ1H8N7AFE","3FFJ6VRIL3U45GP3VG35M1XLY4G0IM","model","match","uniform","","","","","","","1098","25589","26687","[""stimuli/hammer.jpg"",""stimuli/basketball.jpg"",""stimuli/horse.jpg"",""stimuli/sheep.jpg""]","stimuli/hammer.jpg","stimuli/basketball.jpg","stimuli/horse.jpg","stimuli/sheep.jpg","pos1","stimuli/hammer.jpg","","","0","8","8","8","stimuli/stars_2.png","9","","","","","","",""
"instructions","6","37489","0.0-6.0","p689713","AFK9ALQK5GPNG","3S1L4CQSFYBD9IN1W8PCJQ1H8N7AFE","3FFJ6VRIL3U45GP3VG35M1XLY4G0IM","model","match","uniform","","","","","","[{""page_index"":0,""viewing_time"":11724}]","11724","","","","","","","","","","","","","","","","","","","","","","","",""
"explore-choice","7","41213","0.0-7.0","p689713","AFK9ALQK5GPNG","3S1L4CQSFYBD9IN1W8PCJQ1H8N7AFE","3FFJ6VRIL3U45GP3VG35M1XLY4G0IM","model","match","uniform","","","","","","","3211","38915","42126","[""stimuli/WM09_HO.jpg"",""stimuli/WF06_AO.jpg"",""stimuli/AM05_CC.jpg"",""stimuli/WM07_FO.jpg""]","stimuli/WM09_HO.jpg","stimuli/WF06_AO.jpg","stimuli/AM05_CC.jpg","stimuli/WM07_FO.jpg","pos1","stimuli/WM09_HO.jpg","HO","WM09","0","3","6","6","stimuli/stars_6.png","4","[""HO"",""AO"",""CC"",""FO""]","[""WM09"",""WF06"",""AM05"",""WM07""]","[6,10,6,1]","[6,8,4,2]","","",""
"show-reward","8","43225","0.0-8.0","p689713","AFK9ALQK5GPNG","3S1L4CQSFYBD9IN1W8PCJQ1H8N7AFE","3FFJ6VRIL3U45GP3VG35M1XLY4G0IM","model","match","uniform","","","","","","","","42639","44648","","","","","","","","","","","","6","","stimuli/stars_6.png","4","","","","","stimuli/WM09_HO.jpg","",""
"explore-choice","9","45913","0.0-9.0","p689713","AFK9ALQK5GPNG","3S1L4CQSFYBD9IN1W8PCJQ1H8N7AFE","3FFJ6VRIL3U45GP3VG35M1XLY4G0IM","model","match","uniform","","","","","","","2178","44650","46828","[""stimuli/WM07_HO.jpg"",""stimuli/WF06_FO.jpg"",""stimuli/AM05_CC.jpg"",""stimuli/WM09_AO.jpg""]","stimuli/WM07_HO.jpg","stimuli/WF06_FO.jpg","stimuli/AM05_CC.jpg","stimuli/WM09_AO.jpg","pos4","stimuli/WM09_AO.jpg","AO","WM09","3","2","4","6","stimuli/stars_4.png","6","[""HO"",""FO"",""CC"",""AO""]","[""WM07"",""WF06"",""AM05"",""WM09""]","[2,7,5,4]","[2,8,4,6]","","",""
"show-reward","10","47927","0.0-10.0","p689713","AFK9ALQK5GPNG","3S1L4CQSFYBD9IN1W8PCJQ1H8N7AFE","3FFJ6VRIL3U45GP3VG35M1XLY4G0IM","model","match","uniform","","","","","","","","47338","49351","","","","","","","","","","","","4","","stimuli/stars_4.png","6","","","","","stimuli/WM09_AO.jpg","",""
"explore-choice","11","49772","0.0-11.0","p689713","AFK9ALQK5GPNG","3S1L4CQSFYBD9IN1W8PCJQ1H8N7AFE","3FFJ6VRIL3U45GP3VG35M1XLY4G0IM","model","match","uniform","","","","","","","1335","49353","50688","[""stimuli/WF06_HO.jpg"",""stimuli/AM05_FO.jpg"",""stimuli/WM09_CC.jpg"",""stimuli/WM07_AO.jpg""]","stimuli/WF06_HO.jpg","stimuli/AM05_FO.jpg","stimuli/WM09_CC.jpg","stimuli/WM07_AO.jpg","pos2","stimuli/AM05_FO.jpg","FO","AM05","1","1.5","3","4","stimuli/stars_3.png","7.5","[""HO"",""FO"",""CC"",""AO""]","[""WF06"",""AM05"",""WM09"",""WM07""]","[10,3,7,3]","[8,4,6,2]","","",""
"show-reward","12","51779","0.0-12.0","p689713","AFK9ALQK5GPNG","3S1L4CQSFYBD9IN1W8PCJQ1H8N7AFE","3FFJ6VRIL3U45GP3VG35M1XLY4G0IM","model","match","uniform","","","","","","","","51198","53203","","","","","","","","","","","","3","","stimuli/stars_3.png","7.5","","","","","stimuli/AM05_FO.jpg","",""
"explore-choice","13","54194","0.0-13.0","p689713","AFK9ALQK5GPNG","3S1L4CQSFYBD9IN1W8PCJQ1H8N7AFE","3FFJ6VRIL3U45GP3VG35M1XLY4G0IM","model","match","uniform","","","","","","","1909","53205","55114","[""stimuli/AM05_HO.jpg"",""stimuli/WF06_AO.jpg"",""stimuli/WM07_CC.jpg"",""stimuli/WM09_FO.jpg""]","stimuli/AM05_HO.jpg","stimuli/WF06_AO.jpg","stimuli/WM07_CC.jpg","stimuli/WM09_FO.jpg","pos1","stimuli/AM05_HO.jpg","HO","AM05","0","2","4","4","stimuli/stars_4.png","9.5","[""HO"",""AO"",""CC"",""FO""]","[""AM05"",""WF06"",""WM07"",""WM09""]","[4,8,2,6]","[4,8,2,6]","","",""
"show-reward","14","56208","0.0-14.0","p689713","AFK9ALQK5GPNG","3S1L4CQSFYBD9IN1W8PCJQ1H8N7AFE","3FFJ6VRIL3U45GP3VG35M1XLY4G0IM","model","match","uniform","","","","","","","","55618","57632","","","","","","","","","","","","4","","stimuli/stars_4.png","9.5","","","","","stimuli/AM05_HO.jpg","",""
"explore-choice","15","58112","0.0-15.0","p689713","AFK9ALQK5GPNG","3S1L4CQSFYBD9IN1W8PCJQ1H8N7AFE","3FFJ6VRIL3U45GP3VG35M1XLY4G0IM","model","match","uniform","","","","","","","1391","57633","59024","[""stimuli/WM09_FO.jpg"",""stimuli/WF06_CC.jpg"",""stimuli/AM05_AO.jpg"",""stimuli/WM07_HO.jpg""]","stimuli/WM09_FO.jpg","stimuli/WF06_CC.jpg","stimuli/AM05_AO.jpg","stimuli/WM07_HO.jpg","pos2","stimuli/WF06_CC.jpg","CC","WF06","1","4.5","9","8","stimuli/stars_9.png","14","[""FO"",""CC"",""AO"",""HO""]","[""WM09"",""WF06"",""AM05"",""WM07""]","[4,9,2,3]","[6,8,4,2]","","",""
"show-reward","16","60129","0.0-16.0","p689713","AFK9ALQK5GPNG","3S1L4CQSFYBD9IN1W8PCJQ1H8N7AFE","3FFJ6VRIL3U45GP3VG35M1XLY4G0IM","model","match","uniform","","","","","","","","59538","61553","","","","","","","","","","","","9","","stimuli/stars_9.png","14","","","","","stimuli/WF06_CC.jpg","",""
"explore-choice","17","61740","0.0-17.0","p689713","AFK9ALQK5GPNG","3S1L4CQSFYBD9IN1W8PCJQ1H8N7AFE","3FFJ6VRIL3U45GP3VG35M1XLY4G0IM","model","match","uniform","","","","","","","1100","61555","62655","[""stimuli/WM09_HO.jpg"",""stimuli/WM07_FO.jpg"",""stimuli/WF06_CC.jpg"",""stimuli/AM05_AO.jpg""]","stimuli/WM09_HO.jpg","stimuli/WM07_FO.jpg","stimuli/WF06_CC.jpg","stimuli/AM05_AO.jpg","pos3","stimuli/WF06_CC.jpg","CC","WF06","2","4","8","8","stimuli/stars_8.png","18","[""HO"",""FO"",""CC"",""AO""]","[""WM09"",""WM07"",""WF06"",""AM05""]","[8,0,8,2]","[6,2,8,4]","","",""
"show-reward","18","63758","0.0-18.0","p689713","AFK9ALQK5GPNG","3S1L4CQSFYBD9IN1W8PCJQ1H8N7AFE","3FFJ6VRIL3U45GP3VG35M1XLY4G0IM","model","match","uniform","","","","","","","","63165","65182","","","","","","","","","","","","8","","stimuli/stars_8.png","18","","","","","stimuli/WF06_CC.jpg","",""
"explore-choice","19","65228","0.0-19.0","p689713","AFK9ALQK5GPNG","3S1L4CQSFYBD9IN1W8PCJQ1H8N7AFE","3FFJ6VRIL3U45GP3VG35M1XLY4G0IM","model","match","uniform","","","","","","","962","65184","66146","[""stimuli/AM05_AO.jpg"",""stimuli/WM07_HO.jpg"",""stimuli/WM09_CC.jpg"",""stimuli/WF06_FO.jpg""]","stimuli/AM05_AO.jpg","stimuli/WM07_HO.jpg","stimuli/WM09_CC.jpg","stimuli/WF06_FO.jpg","pos4","stimuli/WF06_FO.jpg","FO","WF06","3","3.5","7","8","stimuli/stars_7.png","21.5","[""AO"",""HO"",""CC"",""FO""]","[""AM05"",""WM07"",""WM09"",""WF06""]","[4,4,4,7]","[4,2,6,8]","","",""
"show-reward","20","67242","0.0-20.0","p689713","AFK9ALQK5GPNG","3S1L4CQSFYBD9IN1W8PCJQ1H8N7AFE","3FFJ6VRIL3U45GP3VG35M1XLY4G0IM","model","match","uniform","","","","","","","","66654","68666","","","","","","","","","","","","7","","stimuli/stars_7.png","21.5","","","","","stimuli/WF06_FO.jpg","",""
"explore-choice","21","69447","0.0-21.0","p689713","AFK9ALQK5GPNG","3S1L4CQSFYBD9IN1W8PCJQ1H8N7AFE","3FFJ6VRIL3U45GP3VG35M1XLY4G0IM","model","match","uniform","","","","","","","1688","68667","70355","[""stimuli/WM09_HO.jpg"",""stimuli/WM07_AO.jpg"",""stimuli/AM05_FO.jpg"",""stimuli/WF06_CC.jpg""]","stimuli/WM09_HO.jpg","stimuli/WM07_AO.jpg","stimuli/AM05_FO.jpg","stimuli/WF06_CC.jpg","pos2","stimuli/WM07_AO.jpg","AO","WM07","1","0.5","1","2","stimuli/stars_1.png","22","[""HO"",""AO"",""FO"",""CC""]","[""WM09"",""WM07"",""AM05"",""WF06""]","[4,1,2,6]","[6,2,4,8]","","",""
"show-reward","22","71459","0.0-22.0","p689713","AFK9ALQK5GPNG","3S1L4CQSFYBD9IN1W8PCJQ1H8N7AFE","3FFJ6VRIL3U45GP3VG35M1XLY4G0IM","model","match","uniform","","","","","","","","70872","72883","","","","","","","","","","","","1","","stimuli/stars_1.png","22","","","","","stimuli/WM07_AO.jpg","",""
"explore-choice","23","73221","0.0-23.0","p689713","AFK9ALQK5GPNG","3S1L4CQSFYBD9IN1W8PCJQ1H8N7AFE","3FFJ6VRIL3U45GP3VG35M1XLY4G0IM","model","match","uniform","","","","","","","1246","72884","74130","[""stimuli/WF06_AO.jpg"",""stimuli/WM09_CC.jpg"",""stimuli/AM05_HO.jpg"",""stimuli/WM07_FO.jpg""]","stimuli/WF06_AO.jpg","stimuli/WM09_CC.jpg","stimuli/AM05_HO.jpg","stimuli/WM07_FO.jpg","pos1","stimuli/WF06_AO.jpg","AO","WF06","0","4","8","8","stimuli/stars_8.png","26","[""AO"",""CC"",""HO"",""FO""]","[""WF06"",""WM09"",""AM05"",""WM07""]","[8,4,3,0]","[8,6,4,2]","","",""
"show-reward","24","75239","0.0-24.0","p689713","AFK9ALQK5GPNG","3S1L4CQSFYBD9IN1W8PCJQ1H8N7AFE","3FFJ6VRIL3U45GP3VG35M1XLY4G0IM","model","match","uniform","","","","","","","","74648","76662","","","","","","","","","","","","8","","stimuli/stars_8.png","26","","","","","stimuli/WF06_AO.jpg","",""
"explore-choice","25","76636","0.0-25.0","p689713","AFK9ALQK5GPNG","3S1L4CQSFYBD9IN1W8PCJQ1H8N7AFE","3FFJ6VRIL3U45GP3VG35M1XLY4G0IM","model","match","uniform","","","","","","","880","76664","77544","[""stimuli/AM05_CC.jpg"",""stimuli/WM09_HO.jpg"",""stimuli/WM07_AO.jpg"",""stimuli/WF06_FO.jpg""]","stimuli/AM05_CC.jpg","stimuli/WM09_HO.jpg","stimuli/WM07_AO.jpg","stimuli/WF06_FO.jpg","pos4","stimuli/WF06_FO.jpg","FO","WF06","3","4.5","9","8","stimuli/stars_9.png","30.5","[""CC"",""HO"",""AO"",""FO""]","[""AM05"",""WM09"",""WM07"",""WF06""]","[6,7,4,9]","[4,6,2,8]","","",""
"show-reward","26","78652","0.0-26.0","p689713","AFK9ALQK5GPNG","3S1L4CQSFYBD9IN1W8PCJQ1H8N7AFE","3FFJ6VRIL3U45GP3VG35M1XLY4G0IM","model","match","uniform","","","","","","","","78061","80077","","","","","","","","","","","","9","","stimuli/stars_9.png","30.5","","","","","stimuli/WF06_FO.jpg","",""
"explore-choice","27","85423","0.0-27.0","p689713","AFK9ALQK5GPNG","3S1L4CQSFYBD9IN1W8PCJQ1H8N7AFE","3FFJ6VRIL3U45GP3VG35M1XLY4G0IM","model","match","uniform","","","","","","","6253","80078","86331","[""stimuli/WM07_HO.jpg"",""stimuli/AM05_FO.jpg"",""stimuli/WM09_CC.jpg"",""stimuli/WF06_AO.jpg""]","stimuli/WM07_HO.jpg","stimuli/AM05_FO.jpg","stimuli/WM09_CC.jpg","stimuli/WF06_AO.jpg","pos4","stimuli/WF06_AO.jpg","AO","WF06","3","3","6","8","stimuli/stars_6.png","33.5","[""HO"",""FO"",""CC"",""AO""]","[""WM07"",""AM05"",""WM09"",""WF06""]","[3,6,8,6]","[2,4,6,8]","","",""
"show-reward","28","87438","0.0-28.0","p689713","AFK9ALQK5GPNG","3S1L4CQSFYBD9IN1W8PCJQ1H8N7AFE","3FFJ6VRIL3U45GP3VG35M1XLY4G0IM","model","match","uniform","","","","","","","","86848","88862","","","","","","","","","","","","6","","stimuli/stars_6.png","33.5","","","","","stimuli/WF06_AO.jpg","",""
"explore-choice","29","89296","0.0-29.0","p689713","AFK9ALQK5GPNG","3S1L4CQSFYBD9IN1W8PCJQ1H8N7AFE","3FFJ6VRIL3U45GP3VG35M1XLY4G0IM","model","match","uniform","","","","","","","1354","88863","90217","[""stimuli/WF06_AO.jpg"",""stimuli/AM05_FO.jpg"",""stimuli/WM09_HO.jpg"",""stimuli/WM07_CC.jpg""]","stimuli/WF06_AO.jpg","stimuli/AM05_FO.jpg","stimuli/WM09_HO.jpg","stimuli/WM07_CC.jpg","pos1","stimuli/WF06_AO.jpg","AO","WF06","0","3.5","7","8","stimuli/stars_7.png","37","[""AO"",""FO"",""HO"",""CC""]","[""WF06"",""AM05"",""WM09"",""WM07""]","[7,4,8,3]","[8,4,6,2]","","",""
"show-reward","30","91316","0.0-30.0","p689713","AFK9ALQK5GPNG","3S1L4CQSFYBD9IN1W8PCJQ1H8N7AFE","3FFJ6VRIL3U45GP3VG35M1XLY4G0IM","model","match","uniform","","","","","","","","90722","92741","","","","","","","","","","","","7","","stimuli/stars_7.png","37","","","","","stimuli/WF06_AO.jpg","",""
"explore-choice","31","92657","0.0-31.0","p689713","AFK9ALQK5GPNG","3S1L4CQSFYBD9IN1W8PCJQ1H8N7AFE","3FFJ6VRIL3U45GP3VG35M1XLY4G0IM","model","match","uniform","","","","","","","835","92742","93577","[""stimuli/WM09_AO.jpg"",""stimuli/WF06_HO.jpg"",""stimuli/AM05_FO.jpg"",""stimuli/WM07_CC.jpg""]","stimuli/WM09_AO.jpg","stimuli/WF06_HO.jpg","stimuli/AM05_FO.jpg","stimuli/WM07_CC.jpg","pos2","stimuli/WF06_HO.jpg","HO","WF06","1","3","6","8","stimuli/stars_6.png","40","[""AO"",""HO"",""FO"",""CC""]","[""WM09"",""WF06"",""AM05"",""WM07""]","[6,6,6,4]","[6,8,4,2]","","",""
"show-reward","32","94671","0.0-32.0","p689713","AFK9ALQK5GPNG","3S1L4CQSFYBD9IN1W8PCJQ1H8N7AFE","3FFJ6VRIL3U45GP3VG35M1XLY4G0IM","model","match","uniform","","","","","","","","94082","96095","","","","","","","","","","","","6","","stimuli/stars_6.png","40","","","","","stimuli/WF06_HO.jpg","",""
"explore-choice","33","96157","0.0-33.0","p689713","AFK9ALQK5GPNG","3S1L4CQSFYBD9IN1W8PCJQ1H8N7AFE","3FFJ6VRIL3U45GP3VG35M1XLY4G0IM","model","match","uniform","","","","","","","974","96097","97071","[""stimuli/WF06_HO.jpg"",""stimuli/AM05_CC.jpg"",""stimuli/WM09_FO.jpg"",""stimuli/WM07_AO.jpg""]","stimuli/WF06_HO.jpg","stimuli/AM05_CC.jpg","stimuli/WM09_FO.jpg","stimuli/WM07_AO.jpg","pos1","stimuli/WF06_HO.jpg","HO","WF06","0","4","8","8","stimuli/stars_8.png","44","[""HO"",""CC"",""FO"",""AO""]","[""WF06"",""AM05"",""WM09"",""WM07""]","[8,5,4,2]","[8,4,6,2]","","",""
"show-reward","34","98167","0.0-34.0","p689713","AFK9ALQK5GPNG","3S1L4CQSFYBD9IN1W8PCJQ1H8N7AFE","3FFJ6VRIL3U45GP3VG35M1XLY4G0IM","model","match","uniform","","","","","","","","97584","99591","","","","","","","","","","","","8","","stimuli/stars_8.png","44","","","","","stimuli/WF06_HO.jpg","",""
"explore-choice","35","99472","0.0-35.0","p689713","AFK9ALQK5GPNG","3S1L4CQSFYBD9IN1W8PCJQ1H8N7AFE","3FFJ6VRIL3U45GP3VG35M1XLY4G0IM","model","match","uniform","","","","","","","796","99592","100388","[""stimuli/AM05_AO.jpg"",""stimuli/WM09_CC.jpg"",""stimuli/WF06_HO.jpg"",""stimuli/WM07_FO.jpg""]","stimuli/AM05_AO.jpg","stimuli/WM09_CC.jpg","stimuli/WF06_HO.jpg","stimuli/WM07_FO.jpg","pos3","stimuli/WF06_HO.jpg","HO","WF06","2","4","8","8","stimuli/stars_8.png","48","[""AO"",""CC"",""HO"",""FO""]","[""AM05"",""WM09"",""WF06"",""WM07""]","[3,4,8,2]","[4,6,8,2]","","",""
"show-reward","36","101482","0.0-36.0","p689713","AFK9ALQK5GPNG","3S1L4CQSFYBD9IN1W8PCJQ1H8N7AFE","3FFJ6VRIL3U45GP3VG35M1XLY4G0IM","model","match","uniform","","","","","","","","100898","102907","","","","","","","","","","","","8","","stimuli/stars_8.png","48","","","","","stimuli/WF06_HO.jpg","",""
"explore-choice","37","102688","0.0-37.0","p689713","AFK9ALQK5GPNG","3S1L4CQSFYBD9IN1W8PCJQ1H8N7AFE","3FFJ6VRIL3U45GP3VG35M1XLY4G0IM","model","match","uniform","","","","","","","690","102908","103598","[""stimuli/AM05_CC.jpg"",""stimuli/WM09_AO.jpg"",""stimuli/WM07_FO.jpg"",""stimuli/WF06_HO.jpg""]","stimuli/AM05_CC.jpg","stimuli/WM09_AO.jpg","stimuli/WM07_FO.jpg","stimuli/WF06_HO.jpg","pos4","stimuli/WF06_HO.jpg","HO","WF06","3","4.5","9","8","stimuli/stars_9.png","52.5","[""CC"",""AO"",""FO"",""HO""]","[""AM05"",""WM09"",""WM07"",""WF06""]","[2,5,4,9]","[4,6,2,8]","","",""
"show-reward","38","104693","0.0-38.0","p689713","AFK9ALQK5GPNG","3S1L4CQSFYBD9IN1W8PCJQ1H8N7AFE","3FFJ6VRIL3U45GP3VG35M1XLY4G0IM","model","match","uniform","","","","","","","","104113","106117","","","","","","","","","","","","9","","stimuli/stars_9.png","52.5","","","","","stimuli/WF06_HO.jpg","",""
"explore-choice","39","105910","0.0-39.0","p689713","AFK9ALQK5GPNG","3S1L4CQSFYBD9IN1W8PCJQ1H8N7AFE","3FFJ6VRIL3U45GP3VG35M1XLY4G0IM","model","match","uniform","","","","","","","711","106119","106830","[""stimuli/WF06_AO.jpg"",""stimuli/WM09_FO.jpg"",""stimuli/WM07_HO.jpg"",""stimuli/AM05_CC.jpg""]","stimuli/WF06_AO.jpg","stimuli/WM09_FO.jpg","stimuli/WM07_HO.jpg","stimuli/AM05_CC.jpg","pos1","stimuli/WF06_AO.jpg","AO","WF06","0","4","8","8","stimuli/stars_8.png","56.5","[""AO"",""FO"",""HO"",""CC""]","[""WF06"",""WM09"",""WM07"",""AM05""]","[8,8,2,5]","[8,6,2,4]","","",""
"show-reward","40","107922","0.0-40.0","p689713","AFK9ALQK5GPNG","3S1L4CQSFYBD9IN1W8PCJQ1H8N7AFE","3FFJ6VRIL3U45GP3VG35M1XLY4G0IM","model","match","uniform","","","","","","","","107335","109347","","","","","","","","","","","","8","","stimuli/stars_8.png","56.5","","","","","stimuli/WF06_AO.jpg","",""
"explore-choice","41","109177","0.0-41.0","p689713","AFK9ALQK5GPNG","3S1L4CQSFYBD9IN1W8PCJQ1H8N7AFE","3FFJ6VRIL3U45GP3VG35M1XLY4G0IM","model","match","uniform","","","","","","","746","109347","110093","[""stimuli/AM05_HO.jpg"",""stimuli/WF06_CC.jpg"",""stimuli/WM07_AO.jpg"",""stimuli/WM09_FO.jpg""]","stimuli/AM05_HO.jpg","stimuli/WF06_CC.jpg","stimuli/WM07_AO.jpg","stimuli/WM09_FO.jpg","pos2","stimuli/WF06_CC.jpg","CC","WF06","1","3.5","7","8","stimuli/stars_7.png","60","[""HO"",""CC"",""AO"",""FO""]","[""AM05"",""WF06"",""WM07"",""WM09""]","[4,7,3,5]","[4,8,2,6]","","",""
"show-reward","42","111185","0.0-42.0","p689713","AFK9ALQK5GPNG","3S1L4CQSFYBD9IN1W8PCJQ1H8N7AFE","3FFJ6VRIL3U45GP3VG35M1XLY4G0IM","model","match","uniform","","","","","","","","110604","112610","","","","","","","","","","","","7","","stimuli/stars_7.png","60","","","","","stimuli/WF06_CC.jpg","",""
"explore-choice","43","112502","0.0-43.0","p689713","AFK9ALQK5GPNG","3S1L4CQSFYBD9IN1W8PCJQ1H8N7AFE","3FFJ6VRIL3U45GP3VG35M1XLY4G0IM","model","match","uniform","","","","","","","801","112611","113412","[""stimuli/WM07_HO.jpg"",""stimuli/WF06_CC.jpg"",""stimuli/AM05_FO.jpg"",""stimuli/WM09_AO.jpg""]","stimuli/WM07_HO.jpg","stimuli/WF06_CC.jpg","stimuli/AM05_FO.jpg","stimuli/WM09_AO.jpg","pos2","stimuli/WF06_CC.jpg","CC","WF06","1","5","10","8","stimuli/stars_10.png","65","[""HO"",""CC"",""FO"",""AO""]","[""WM07"",""WF06"",""AM05"",""WM09""]","[3,10,6,7]","[2,8,4,6]","","",""
"show-reward","44","114514","0.0-44.0","p689713","AFK9ALQK5GPNG","3S1L4CQSFYBD9IN1W8PCJQ1H8N7AFE","3FFJ6VRIL3U45GP3VG35M1XLY4G0IM","model","match","uniform","","","","","","","","113928","115938","","","","","","","","","","","","10","","stimuli/stars_10.png","65","","","","","stimuli/WF06_CC.jpg","",""
"explore-choice","45","115776","0.0-45.0","p689713","AFK9ALQK5GPNG","3S1L4CQSFYBD9IN1W8PCJQ1H8N7AFE","3FFJ6VRIL3U45GP3VG35M1XLY4G0IM","model","match","uniform","","","","","","","748","115939","116687","[""stimuli/WF06_CC.jpg"",""stimuli/AM05_HO.jpg"",""stimuli/WM07_FO.jpg"",""stimuli/WM09_AO.jpg""]","stimuli/WF06_CC.jpg","stimuli/AM05_HO.jpg","stimuli/WM07_FO.jpg","stimuli/WM09_AO.jpg","pos1","stimuli/WF06_CC.jpg","CC","WF06","0","5","10","8","stimuli/stars_10.png","70","[""CC"",""HO"",""FO"",""AO""]","[""WF06"",""AM05"",""WM07"",""WM09""]","[10,6,4,6]","[8,4,2,6]","","",""
"show-reward","46","117791","0.0-46.0","p689713","AFK9ALQK5GPNG","3S1L4CQSFYBD9IN1W8PCJQ1H8N7AFE","3FFJ6VRIL3U45GP3VG35M1XLY4G0IM","model","match","uniform","","","","","","","","117202","119215","","","","","","","","","","","","10","","stimuli/stars_10.png","70","","","","","stimuli/WF06_CC.jpg","",""
"explore-choice","47","119394","0.0-47.0","p689713","AFK9ALQK5GPNG","3S1L4CQSFYBD9IN1W8PCJQ1H8N7AFE","3FFJ6VRIL3U45GP3VG35M1XLY4G0IM","model","match","uniform","","","","","","","1099","119216","120315","[""stimuli/WM07_CC.jpg"",""stimuli/AM05_HO.jpg"",""stimuli/WF06_FO.jpg"",""stimuli/WM09_AO.jpg""]","stimuli/WM07_CC.jpg","stimuli/AM05_HO.jpg","stimuli/WF06_FO.jpg","stimuli/WM09_AO.jpg","pos3","stimuli/WF06_FO.jpg","FO","WF06","2","3","6","8","stimuli/stars_6.png","73","[""CC"",""HO"",""FO"",""AO""]","[""WM07"",""AM05"",""WF06"",""WM09""]","[0,2,6,8]","[2,4,8,6]","","",""
"show-reward","48","121403","0.0-48.0","p689713","AFK9ALQK5GPNG","3S1L4CQSFYBD9IN1W8PCJQ1H8N7AFE","3FFJ6VRIL3U45GP3VG35M1XLY4G0IM","model","match","uniform","","","","","","","","120820","122827","","","","","","","","","","","","6","","stimuli/stars_6.png","73","","","","","stimuli/WF06_FO.jpg","",""
"explore-choice","49","122548","0.0-49.0","p689713","AFK9ALQK5GPNG","3S1L4CQSFYBD9IN1W8PCJQ1H8N7AFE","3FFJ6VRIL3U45GP3VG35M1XLY4G0IM","model","match","uniform","","","","","","","643","122828","123471","[""stimuli/AM05_AO.jpg"",""stimuli/WF06_FO.jpg"",""stimuli/WM07_CC.jpg"",""stimuli/WM09_HO.jpg""]","stimuli/AM05_AO.jpg","stimuli/WF06_FO.jpg","stimuli/WM07_CC.jpg","stimuli/WM09_HO.jpg","pos2","stimuli/WF06_FO.jpg","FO","WF06","1","5","10","8","stimuli/stars_10.png","78","[""AO"",""FO"",""CC"",""HO""]","[""AM05"",""WF06"",""WM07"",""WM09""]","[4,10,2,4]","[4,8,2,6]","","",""
"show-reward","50","124555","0.0-50.0","p689713","AFK9ALQK5GPNG","3S1L4CQSFYBD9IN1W8PCJQ1H8N7AFE","3FFJ6VRIL3U45GP3VG35M1XLY4G0IM","model","match","uniform","","","","","","","","123973","125979","","","","","","","","","","","","10","","stimuli/stars_10.png","78","","","","","stimuli/WF06_FO.jpg","",""
"explore-choice","51","125937","0.0-51.0","p689713","AFK9ALQK5GPNG","3S1L4CQSFYBD9IN1W8PCJQ1H8N7AFE","3FFJ6VRIL3U45GP3VG35M1XLY4G0IM","model","match","uniform","","","","","","","872","125981","126853","[""stimuli/WM09_FO.jpg"",""stimuli/WM07_CC.jpg"",""stimuli/WF06_HO.jpg"",""stimuli/AM05_AO.jpg""]","stimuli/WM09_FO.jpg","stimuli/WM07_CC.jpg","stimuli/WF06_HO.jpg","stimuli/AM05_AO.jpg","pos3","stimuli/WF06_HO.jpg","HO","WF06","2","5","10","8","stimuli/stars_10.png","83","[""FO"",""CC"",""HO"",""AO""]","[""WM09"",""WM07"",""WF06"",""AM05""]","[7,3,10,4]","[6,2,8,4]","","",""
"show-reward","52","127946","0.0-52.0","p689713","AFK9ALQK5GPNG","3S1L4CQSFYBD9IN1W8PCJQ1H8N7AFE","3FFJ6VRIL3U45GP3VG35M1XLY4G0IM","model","match","uniform","","","","","","","","127363","129370","","","","","","","","","","","","10","","stimuli/stars_10.png","83","","","","","stimuli/WF06_HO.jpg","",""
"explore-choice","53","129583","0.0-53.0","p689713","AFK9ALQK5GPNG","3S1L4CQSFYBD9IN1W8PCJQ1H8N7AFE","3FFJ6VRIL3U45GP3VG35M1XLY4G0IM","model","match","uniform","","","","","","","1133","129372","130505","[""stimuli/WM07_AO.jpg"",""stimuli/WM09_CC.jpg"",""stimuli/AM05_HO.jpg"",""stimuli/WF06_FO.jpg""]","stimuli/WM07_AO.jpg","stimuli/WM09_CC.jpg","stimuli/AM05_HO.jpg","stimuli/WF06_FO.jpg","pos4","stimuli/WF06_FO.jpg","FO","WF06","3","5","10","8","stimuli/stars_10.png","88","[""AO"",""CC"",""HO"",""FO""]","[""WM07"",""WM09"",""AM05"",""WF06""]","[0,8,6,10]","[2,6,4,8]","","",""
"show-reward","54","131596","0.0-54.0","p689713","AFK9ALQK5GPNG","3S1L4CQSFYBD9IN1W8PCJQ1H8N7AFE","3FFJ6VRIL3U45GP3VG35M1XLY4G0IM","model","match","uniform","","","","","","","","131008","133019","","","","","","","","","","","","10","","stimuli/stars_10.png","88","","","","","stimuli/WF06_FO.jpg","",""
"explore-choice","55","136223","0.0-55.0","p689713","AFK9ALQK5GPNG","3S1L4CQSFYBD9IN1W8PCJQ1H8N7AFE","3FFJ6VRIL3U45GP3VG35M1XLY4G0IM","model","match","uniform","","","","","","","4116","133021","137137","[""stimuli/WM09_CC.jpg"",""stimuli/AM05_AO.jpg"",""stimuli/WM07_FO.jpg"",""stimuli/WF06_HO.jpg""]","stimuli/WM09_CC.jpg","stimuli/AM05_AO.jpg","stimuli/WM07_FO.jpg","stimuli/WF06_HO.jpg","pos4","stimuli/WF06_HO.jpg","HO","WF06","3","4","8","8","stimuli/stars_8.png","92","[""CC"",""AO"",""FO"",""HO""]","[""WM09"",""AM05"",""WM07"",""WF06""]","[4,3,2,8]","[6,4,2,8]","","",""
"show-reward","56","138234","0.0-56.0","p689713","AFK9ALQK5GPNG","3S1L4CQSFYBD9IN1W8PCJQ1H8N7AFE","3FFJ6VRIL3U45GP3VG35M1XLY4G0IM","model","match","uniform","","","","","","","","137649","139658","","","","","","","","","","","","8","","stimuli/stars_8.png","92","","","","","stimuli/WF06_HO.jpg","",""
"explore-choice","57","145815","0.0-57.0","p689713","AFK9ALQK5GPNG","3S1L4CQSFYBD9IN1W8PCJQ1H8N7AFE","3FFJ6VRIL3U45GP3VG35M1XLY4G0IM","model","match","uniform","","","","","","","7080","139659","146739","[""stimuli/WM07_AO.jpg"",""stimuli/AM05_CC.jpg"",""stimuli/WF06_HO.jpg"",""stimuli/WM09_FO.jpg""]","stimuli/WM07_AO.jpg","stimuli/AM05_CC.jpg","stimuli/WF06_HO.jpg","stimuli/WM09_FO.jpg","pos3","stimuli/WF06_HO.jpg","HO","WF06","2","4","8","8","stimuli/stars_8.png","96","[""AO"",""CC"",""HO"",""FO""]","[""WM07"",""AM05"",""WF06"",""WM09""]","[2,5,8,4]","[2,4,8,6]","","",""
"show-reward","58","147835","0.0-58.0","p689713","AFK9ALQK5GPNG","3S1L4CQSFYBD9IN1W8PCJQ1H8N7AFE","3FFJ6VRIL3U45GP3VG35M1XLY4G0IM","model","match","uniform","","","","","","","","147241","149258","","","","","","","","","","","","8","","stimuli/stars_8.png","96","","","","","stimuli/WF06_HO.jpg","",""
"explore-choice","59","152330","0.0-59.0","p689713","AFK9ALQK5GPNG","3S1L4CQSFYBD9IN1W8PCJQ1H8N7AFE","3FFJ6VRIL3U45GP3VG35M1XLY4G0IM","model","match","uniform","","","","","","","3981","149260","153241","[""stimuli/AM05_AO.jpg"",""stimuli/WF06_CC.jpg"",""stimuli/WM09_HO.jpg"",""stimuli/WM07_FO.jpg""]","stimuli/AM05_AO.jpg","stimuli/WF06_CC.jpg","stimuli/WM09_HO.jpg","stimuli/WM07_FO.jpg","pos2","stimuli/WF06_CC.jpg","CC","WF06","1","4","8","8","stimuli/stars_8.png","100","[""AO"",""CC"",""HO"",""FO""]","[""AM05"",""WF06"",""WM09"",""WM07""]","[2,8,8,0]","[4,8,6,2]","","",""
"show-reward","60","154341","0.0-60.0","p689713","AFK9ALQK5GPNG","3S1L4CQSFYBD9IN1W8PCJQ1H8N7AFE","3FFJ6VRIL3U45GP3VG35M1XLY4G0IM","model","match","uniform","","","","","","","","153754","155766","","","","","","","","","","","","8","","stimuli/stars_8.png","100","","","","","stimuli/WF06_CC.jpg","",""
"explore-choice","61","157320","0.0-61.0","p689713","AFK9ALQK5GPNG","3S1L4CQSFYBD9IN1W8PCJQ1H8N7AFE","3FFJ6VRIL3U45GP3VG35M1XLY4G0IM","model","match","uniform","","","","","","","2462","155767","158229","[""stimuli/WM07_HO.jpg"",""stimuli/AM05_AO.jpg"",""stimuli/WF06_FO.jpg"",""stimuli/WM09_CC.jpg""]","stimuli/WM07_HO.jpg","stimuli/AM05_AO.jpg","stimuli/WF06_FO.jpg","stimuli/WM09_CC.jpg","pos3","stimuli/WF06_FO.jpg","FO","WF06","2","3.5","7","8","stimuli/stars_7.png","103.5","[""HO"",""AO"",""FO"",""CC""]","[""WM07"",""AM05"",""WF06"",""WM09""]","[4,4,7,4]","[2,4,8,6]","","",""
"show-reward","62","159335","0.0-62.0","p689713","AFK9ALQK5GPNG","3S1L4CQSFYBD9IN1W8PCJQ1H8N7AFE","3FFJ6VRIL3U45GP3VG35M1XLY4G0IM","model","match","uniform","","","","","","","","158746","160760","","","","","","","","","","","","7","","stimuli/stars_7.png","103.5","","","","","stimuli/WF06_FO.jpg","",""
"explore-choice","63","163287","0.0-63.0","p689713","AFK9ALQK5GPNG","3S1L4CQSFYBD9IN1W8PCJQ1H8N7AFE","3FFJ6VRIL3U45GP3VG35M1XLY4G0IM","model","match","uniform","","","","","","","3437","160760","164197","[""stimuli/WM09_AO.jpg"",""stimuli/WF06_CC.jpg"",""stimuli/AM05_FO.jpg"",""stimuli/WM07_HO.jpg""]","stimuli/WM09_AO.jpg","stimuli/WF06_CC.jpg","stimuli/AM05_FO.jpg","stimuli/WM07_HO.jpg","pos2","stimuli/WF06_CC.jpg","CC","WF06","1","5","10","8","stimuli/stars_10.png","108.5","[""AO"",""CC"",""FO"",""HO""]","[""WM09"",""WF06"",""AM05"",""WM07""]","[7,10,6,3]","[6,8,4,2]","","",""
"show-reward","64","165302","0.0-64.0","p689713","AFK9ALQK5GPNG","3S1L4CQSFYBD9IN1W8PCJQ1H8N7AFE","3FFJ6VRIL3U45GP3VG35M1XLY4G0IM","model","match","uniform","","","","","","","","164713","166726","","","","","","","","","","","","10","","stimuli/stars_10.png","108.5","","","","","stimuli/WF06_CC.jpg","",""
"explore-choice","65","168017","0.0-65.0","p689713","AFK9ALQK5GPNG","3S1L4CQSFYBD9IN1W8PCJQ1H8N7AFE","3FFJ6VRIL3U45GP3VG35M1XLY4G0IM","model","match","uniform","","","","","","","2210","166727","168937","[""stimuli/WM07_HO.jpg"",""stimuli/WF06_AO.jpg"",""stimuli/WM09_CC.jpg"",""stimuli/AM05_FO.jpg""]","stimuli/WM07_HO.jpg","stimuli/WF06_AO.jpg","stimuli/WM09_CC.jpg","stimuli/AM05_FO.jpg","pos2","stimuli/WF06_AO.jpg","AO","WF06","1","3","6","8","stimuli/stars_6.png","111.5","[""HO"",""AO"",""CC"",""FO""]","[""WM07"",""WF06"",""WM09"",""AM05""]","[3,6,8,6]","[2,8,6,4]","","",""
"show-reward","66","170023","0.0-66.0","p689713","AFK9ALQK5GPNG","3S1L4CQSFYBD9IN1W8PCJQ1H8N7AFE","3FFJ6VRIL3U45GP3VG35M1XLY4G0IM","model","match","uniform","","","","","","","","169443","171447","","","","","","","","","","","","6","","stimuli/stars_6.png","111.5","","","","","stimuli/WF06_AO.jpg","",""
"explore-choice","67","172226","0.0-67.0","p689713","AFK9ALQK5GPNG","3S1L4CQSFYBD9IN1W8PCJQ1H8N7AFE","3FFJ6VRIL3U45GP3VG35M1XLY4G0IM","model","match","uniform","","","","","","","1699","171448","173147","[""stimuli/WM07_AO.jpg"",""stimuli/WF06_HO.jpg"",""stimuli/AM05_FO.jpg"",""stimuli/WM09_CC.jpg""]","stimuli/WM07_AO.jpg","stimuli/WF06_HO.jpg","stimuli/AM05_FO.jpg","stimuli/WM09_CC.jpg","pos2","stimuli/WF06_HO.jpg","HO","WF06","1","5","10","8","stimuli/stars_10.png","116.5","[""AO"",""HO"",""FO"",""CC""]","[""WM07"",""WF06"",""AM05"",""WM09""]","[3,10,3,7]","[2,8,4,6]","","",""
"show-reward","68","174234","0.0-68.0","p689713","AFK9ALQK5GPNG","3S1L4CQSFYBD9IN1W8PCJQ1H8N7AFE","3FFJ6VRIL3U45GP3VG35M1XLY4G0IM","model","match","uniform","","","","","","","","173651","175658","","","","","","","","","","","","10","","stimuli/stars_10.png","116.5","","","","","stimuli/WF06_HO.jpg","",""
"explore-choice","69","175663","0.0-69.0","p689713","AFK9ALQK5GPNG","3S1L4CQSFYBD9IN1W8PCJQ1H8N7AFE","3FFJ6VRIL3U45GP3VG35M1XLY4G0IM","model","match","uniform","","","","","","","918","175658","176576","[""stimuli/WF06_AO.jpg"",""stimuli/WM07_HO.jpg"",""stimuli/AM05_CC.jpg"",""stimuli/WM09_FO.jpg""]","stimuli/WF06_AO.jpg","stimuli/WM07_HO.jpg","stimuli/AM05_CC.jpg","stimuli/WM09_FO.jpg","pos1","stimuli/WF06_AO.jpg","AO","WF06","0","4","8","8","stimuli/stars_8.png","120.5","[""AO"",""HO"",""CC"",""FO""]","[""WF06"",""WM07"",""AM05"",""WM09""]","[8,2,5,8]","[8,2,4,6]","","",""
"show-reward","70","177680","0.0-70.0","p689713","AFK9ALQK5GPNG","3S1L4CQSFYBD9IN1W8PCJQ1H8N7AFE","3FFJ6VRIL3U45GP3VG35M1XLY4G0IM","model","match","uniform","","","","","","","","177089","179104","","","","","","","","","","","","8","","stimuli/stars_8.png","120.5","","","","","stimuli/WF06_AO.jpg","",""
"explore-choice","71","178906","0.0-71.0","p689713","AFK9ALQK5GPNG","3S1L4CQSFYBD9IN1W8PCJQ1H8N7AFE","3FFJ6VRIL3U45GP3VG35M1XLY4G0IM","model","match","uniform","","","","","","","709","179105","179814","[""stimuli/WM09_HO.jpg"",""stimuli/WF06_AO.jpg"",""stimuli/AM05_FO.jpg"",""stimuli/WM07_CC.jpg""]","stimuli/WM09_HO.jpg","stimuli/WF06_AO.jpg","stimuli/AM05_FO.jpg","stimuli/WM07_CC.jpg","pos2","stimuli/WF06_AO.jpg","AO","WF06","1","3.5","7","8","stimuli/stars_7.png","124","[""HO"",""AO"",""FO"",""CC""]","[""WM09"",""WF06"",""AM05"",""WM07""]","[8,7,4,3]","[6,8,4,2]","","",""
"show-reward","72","180920","0.0-72.0","p689713","AFK9ALQK5GPNG","3S1L4CQSFYBD9IN1W8PCJQ1H8N7AFE","3FFJ6VRIL3U45GP3VG35M1XLY4G0IM","model","match","uniform","","","","","","","","180331","182345","","","","","","","","","","","","7","","stimuli/stars_7.png","124","","","","","stimuli/WF06_AO.jpg","",""
"explore-choice","73","185194","0.0-73.0","p689713","AFK9ALQK5GPNG","3S1L4CQSFYBD9IN1W8PCJQ1H8N7AFE","3FFJ6VRIL3U45GP3VG35M1XLY4G0IM","model","match","uniform","","","","","","","3768","182345","186113","[""stimuli/WM07_CC.jpg"",""stimuli/WM09_FO.jpg"",""stimuli/AM05_AO.jpg"",""stimuli/WF06_HO.jpg""]","stimuli/WM07_CC.jpg","stimuli/WM09_FO.jpg","stimuli/AM05_AO.jpg","stimuli/WF06_HO.jpg","pos4","stimuli/WF06_HO.jpg","HO","WF06","3","5","10","8","stimuli/stars_10.png","129","[""CC"",""FO"",""AO"",""HO""]","[""WM07"",""WM09"",""AM05"",""WF06""]","[3,7,4,10]","[2,6,4,8]","","",""
"show-reward","74","187199","0.0-74.0","p689713","AFK9ALQK5GPNG","3S1L4CQSFYBD9IN1W8PCJQ1H8N7AFE","3FFJ6VRIL3U45GP3VG35M1XLY4G0IM","model","match","uniform","","","","","","","","186619","188624","","","","","","","","","","","","10","","stimuli/stars_10.png","129","","","","","stimuli/WF06_HO.jpg","",""
"explore-choice","75","188485","0.0-75.0","p689713","AFK9ALQK5GPNG","3S1L4CQSFYBD9IN1W8PCJQ1H8N7AFE","3FFJ6VRIL3U45GP3VG35M1XLY4G0IM","model","match","uniform","","","","","","","773","188624","189397","[""stimuli/WM07_CC.jpg"",""stimuli/WF06_FO.jpg"",""stimuli/WM09_AO.jpg"",""stimuli/AM05_HO.jpg""]","stimuli/WM07_CC.jpg","stimuli/WF06_FO.jpg","stimuli/WM09_AO.jpg","stimuli/AM05_HO.jpg","pos2","stimuli/WF06_FO.jpg","FO","WF06","1","3","6","8","stimuli/stars_6.png","132","[""CC"",""FO"",""AO"",""HO""]","[""WM07"",""WF06"",""WM09"",""AM05""]","[0,6,8,2]","[2,8,6,4]","","",""
"show-reward","76","190493","0.0-76.0","p689713","AFK9ALQK5GPNG","3S1L4CQSFYBD9IN1W8PCJQ1H8N7AFE","3FFJ6VRIL3U45GP3VG35M1XLY4G0IM","model","match","uniform","","","","","","","","189911","191918","","","","","","","","","","","","6","","stimuli/stars_6.png","132","","","","","stimuli/WF06_FO.jpg","",""
"explore-choice","77","191895","0.0-77.0","p689713","AFK9ALQK5GPNG","3S1L4CQSFYBD9IN1W8PCJQ1H8N7AFE","3FFJ6VRIL3U45GP3VG35M1XLY4G0IM","model","match","uniform","","","","","","","886","191918","192804","[""stimuli/AM05_CC.jpg"",""stimuli/WM09_HO.jpg"",""stimuli/WF06_AO.jpg"",""stimuli/WM07_FO.jpg""]","stimuli/AM05_CC.jpg","stimuli/WM09_HO.jpg","stimuli/WF06_AO.jpg","stimuli/WM07_FO.jpg","pos3","stimuli/WF06_AO.jpg","AO","WF06","2","5","10","8","stimuli/stars_10.png","137","[""CC"",""HO"",""AO"",""FO""]","[""AM05"",""WM09"",""WF06"",""WM07""]","[6,6,10,1]","[4,6,8,2]","","",""
"show-reward","78","193908","0.0-78.0","p689713","AFK9ALQK5GPNG","3S1L4CQSFYBD9IN1W8PCJQ1H8N7AFE","3FFJ6VRIL3U45GP3VG35M1XLY4G0IM","model","match","uniform","","","","","","","","193319","195333","","","","","","","","","","","","10","","stimuli/stars_10.png","137","","","","","stimuli/WF06_AO.jpg","",""
"explore-choice","79","195795","0.0-79.0","p689713","AFK9ALQK5GPNG","3S1L4CQSFYBD9IN1W8PCJQ1H8N7AFE","3FFJ6VRIL3U45GP3VG35M1XLY4G0IM","model","match","uniform","","","","","","","1372","195334","196706","[""stimuli/WM07_AO.jpg"",""stimuli/WM09_HO.jpg"",""stimuli/WF06_CC.jpg"",""stimuli/AM05_FO.jpg""]","stimuli/WM07_AO.jpg","stimuli/WM09_HO.jpg","stimuli/WF06_CC.jpg","stimuli/AM05_FO.jpg","pos3","stimuli/WF06_CC.jpg","CC","WF06","2","3","6","8","stimuli/stars_6.png","140","[""AO"",""HO"",""CC"",""FO""]","[""WM07"",""WM09"",""WF06"",""AM05""]","[1,4,6,2]","[2,6,8,4]","","",""
"show-reward","80","197804","0.0-80.0","p689713","AFK9ALQK5GPNG","3S1L4CQSFYBD9IN1W8PCJQ1H8N7AFE","3FFJ6VRIL3U45GP3VG35M1XLY4G0IM","model","match","uniform","","","","","","","","197220","199228","","","","","","","","","","","","6","","stimuli/stars_6.png","140","","","","","stimuli/WF06_CC.jpg","",""
"explore-choice","81","202575","0.0-81.0","p689713","AFK9ALQK5GPNG","3S1L4CQSFYBD9IN1W8PCJQ1H8N7AFE","3FFJ6VRIL3U45GP3VG35M1XLY4G0IM","model","match","uniform","","","","","","","4256","199229","203485","[""stimuli/WM09_AO.jpg"",""stimuli/AM05_FO.jpg"",""stimuli/WF06_HO.jpg"",""stimuli/WM07_CC.jpg""]","stimuli/WM09_AO.jpg","stimuli/AM05_FO.jpg","stimuli/WF06_HO.jpg","stimuli/WM07_CC.jpg","pos3","stimuli/WF06_HO.jpg","HO","WF06","2","3","6","8","stimuli/stars_6.png","143","[""AO"",""FO"",""HO"",""CC""]","[""WM09"",""AM05"",""WF06"",""WM07""]","[6,6,6,4]","[6,4,8,2]","","",""
"show-reward","82","204591","0.0-82.0","p689713","AFK9ALQK5GPNG","3S1L4CQSFYBD9IN1W8PCJQ1H8N7AFE","3FFJ6VRIL3U45GP3VG35M1XLY4G0IM","model","match","uniform","","","","","","","","203999","206015","","","","","","","","","","","","6","","stimuli/stars_6.png","143","","","","","stimuli/WF06_HO.jpg","",""
"explore-choice","83","207859","0.0-83.0","p689713","AFK9ALQK5GPNG","3S1L4CQSFYBD9IN1W8PCJQ1H8N7AFE","3FFJ6VRIL3U45GP3VG35M1XLY4G0IM","model","match","uniform","","","","","","","2764","206016","208780","[""stimuli/WM07_HO.jpg"",""stimuli/WM09_AO.jpg"",""stimuli/AM05_CC.jpg"",""stimuli/WF06_FO.jpg""]","stimuli/WM07_HO.jpg","stimuli/WM09_AO.jpg","stimuli/AM05_CC.jpg","stimuli/WF06_FO.jpg","pos4","stimuli/WF06_FO.jpg","FO","WF06","3","3.5","7","8","stimuli/stars_7.png","146.5","[""HO"",""AO"",""CC"",""FO""]","[""WM07"",""WM09"",""AM05"",""WF06""]","[2,4,5,7]","[2,6,4,8]","","",""
"show-reward","84","209875","0.0-84.0","p689713","AFK9ALQK5GPNG","3S1L4CQSFYBD9IN1W8PCJQ1H8N7AFE","3FFJ6VRIL3U45GP3VG35M1XLY4G0IM","model","match","uniform","","","","","","","","209285","211300","","","","","","","","","","","","7","","stimuli/stars_7.png","146.5","","","","","stimuli/WF06_FO.jpg","",""
"explore-choice","85","211127","0.0-85.0","p689713","AFK9ALQK5GPNG","3S1L4CQSFYBD9IN1W8PCJQ1H8N7AFE","3FFJ6VRIL3U45GP3VG35M1XLY4G0IM","model","match","uniform","","","","","","","745","211301","212046","[""stimuli/WF06_AO.jpg"",""stimuli/WM07_FO.jpg"",""stimuli/AM05_HO.jpg"",""stimuli/WM09_CC.jpg""]","stimuli/WF06_AO.jpg","stimuli/WM07_FO.jpg","stimuli/AM05_HO.jpg","stimuli/WM09_CC.jpg","pos1","stimuli/WF06_AO.jpg","AO","WF06","0","4","8","8","stimuli/stars_8.png","150.5","[""AO"",""FO"",""HO"",""CC""]","[""WF06"",""WM07"",""AM05"",""WM09""]","[8,0,3,4]","[8,2,4,6]","","",""
"show-reward","86","213130","0.0-86.0","p689713","AFK9ALQK5GPNG","3S1L4CQSFYBD9IN1W8PCJQ1H8N7AFE","3FFJ6VRIL3U45GP3VG35M1XLY4G0IM","model","match","uniform","","","","","","","","212552","214555","","","","","","","","","","","","8","","stimuli/stars_8.png","150.5","","","","","stimuli/WF06_AO.jpg","",""
"explore-choice","87","217834","0.0-87.0","p689713","AFK9ALQK5GPNG","3S1L4CQSFYBD9IN1W8PCJQ1H8N7AFE","3FFJ6VRIL3U45GP3VG35M1XLY4G0IM","model","match","uniform","","","","","","","4188","214556","218744","[""stimuli/WM09_FO.jpg"",""stimuli/WM07_AO.jpg"",""stimuli/AM05_HO.jpg"",""stimuli/WF06_CC.jpg""]","stimuli/WM09_FO.jpg","stimuli/WM07_AO.jpg","stimuli/AM05_HO.jpg","stimuli/WF06_CC.jpg","pos4","stimuli/WF06_CC.jpg","CC","WF06","3","3.5","7","8","stimuli/stars_7.png","154","[""FO"",""AO"",""HO"",""CC""]","[""WM09"",""WM07"",""AM05"",""WF06""]","[5,3,4,7]","[6,2,4,8]","","",""
"show-reward","88","219849","0.0-88.0","p689713","AFK9ALQK5GPNG","3S1L4CQSFYBD9IN1W8PCJQ1H8N7AFE","3FFJ6VRIL3U45GP3VG35M1XLY4G0IM","model","match","uniform","","","","","","","","219259","221273","","","","","","","","","","","","7","","stimuli/stars_7.png","154","","","","","stimuli/WF06_CC.jpg","",""
"explore-choice","89","222057","0.0-89.0","p689713","AFK9ALQK5GPNG","3S1L4CQSFYBD9IN1W8PCJQ1H8N7AFE","3FFJ6VRIL3U45GP3VG35M1XLY4G0IM","model","match","uniform","","","","","","","1695","221274","222969","[""stimuli/WM07_CC.jpg"",""stimuli/AM05_AO.jpg"",""stimuli/WM09_HO.jpg"",""stimuli/WF06_FO.jpg""]","stimuli/WM07_CC.jpg","stimuli/AM05_AO.jpg","stimuli/WM09_HO.jpg","stimuli/WF06_FO.jpg","pos4","stimuli/WF06_FO.jpg","FO","WF06","3","5","10","8","stimuli/stars_10.png","159","[""CC"",""AO"",""HO"",""FO""]","[""WM07"",""AM05"",""WM09"",""WF06""]","[2,4,4,10]","[2,4,6,8]","","",""
"show-reward","90","224068","0.0-90.0","p689713","AFK9ALQK5GPNG","3S1L4CQSFYBD9IN1W8PCJQ1H8N7AFE","3FFJ6VRIL3U45GP3VG35M1XLY4G0IM","model","match","uniform","","","","","","","","223483","225492","","","","","","","","","","","","10","","stimuli/stars_10.png","159","","","","","stimuli/WF06_FO.jpg","",""
"explore-choice","91","225691","0.0-91.0","p689713","AFK9ALQK5GPNG","3S1L4CQSFYBD9IN1W8PCJQ1H8N7AFE","3FFJ6VRIL3U45GP3VG35M1XLY4G0IM","model","match","uniform","","","","","","","1109","225493","226602","[""stimuli/WM09_FO.jpg"",""stimuli/AM05_HO.jpg"",""stimuli/WF06_AO.jpg"",""stimuli/WM07_CC.jpg""]","stimuli/WM09_FO.jpg","stimuli/AM05_HO.jpg","stimuli/WF06_AO.jpg","stimuli/WM07_CC.jpg","pos3","stimuli/WF06_AO.jpg","AO","WF06","2","4","8","8","stimuli/stars_8.png","163","[""FO"",""HO"",""AO"",""CC""]","[""WM09"",""AM05"",""WF06"",""WM07""]","[6,4,8,2]","[6,4,8,2]","","",""
"show-reward","92","227698","0.0-92.0","p689713","AFK9ALQK5GPNG","3S1L4CQSFYBD9IN1W8PCJQ1H8N7AFE","3FFJ6VRIL3U45GP3VG35M1XLY4G0IM","model","match","uniform","","","","","","","","227117","229123","","","","","","","","","","","","8","","stimuli/stars_8.png","163","","","","","stimuli/WF06_AO.jpg","",""
"explore-choice","93","232317","0.0-93.0","p689713","AFK9ALQK5GPNG","3S1L4CQSFYBD9IN1W8PCJQ1H8N7AFE","3FFJ6VRIL3U45GP3VG35M1XLY4G0IM","model","match","uniform","","","","","","","4114","229123","233237","[""stimuli/WM09_CC.jpg"",""stimuli/WM07_AO.jpg"",""stimuli/AM05_HO.jpg"",""stimuli/WF06_FO.jpg""]","stimuli/WM09_CC.jpg","stimuli/WM07_AO.jpg","stimuli/AM05_HO.jpg","stimuli/WF06_FO.jpg","pos4","stimuli/WF06_FO.jpg","FO","WF06","3","5","10","8","stimuli/stars_10.png","168","[""CC"",""AO"",""HO"",""FO""]","[""WM09"",""WM07"",""AM05"",""WF06""]","[8,0,6,10]","[6,2,4,8]","","",""
"show-reward","94","234334","0.0-94.0","p689713","AFK9ALQK5GPNG","3S1L4CQSFYBD9IN1W8PCJQ1H8N7AFE","3FFJ6VRIL3U45GP3VG35M1XLY4G0IM","model","match","uniform","","","","","","","","233742","235758","","","","","","","","","","","","10","","stimuli/stars_10.png","168","","","","","stimuli/WF06_FO.jpg","",""
"explore-choice","95","237107","0.0-95.0","p689713","AFK9ALQK5GPNG","3S1L4CQSFYBD9IN1W8PCJQ1H8N7AFE","3FFJ6VRIL3U45GP3VG35M1XLY4G0IM","model","match","uniform","","","","","","","2264","235759","238023","[""stimuli/WF06_FO.jpg"",""stimuli/WM09_HO.jpg"",""stimuli/AM05_CC.jpg"",""stimuli/WM07_AO.jpg""]","stimuli/WF06_FO.jpg","stimuli/WM09_HO.jpg","stimuli/AM05_CC.jpg","stimuli/WM07_AO.jpg","pos1","stimuli/WF06_FO.jpg","FO","WF06","0","4.5","9","8","stimuli/stars_9.png","172.5","[""FO"",""HO"",""CC"",""AO""]","[""WF06"",""WM09"",""AM05"",""WM07""]","[9,7,6,4]","[8,6,4,2]","","",""
"show-reward","96","239122","0.0-96.0","p689713","AFK9ALQK5GPNG","3S1L4CQSFYBD9IN1W8PCJQ1H8N7AFE","3FFJ6VRIL3U45GP3VG35M1XLY4G0IM","model","match","uniform","","","","","","","","238533","240547","","","","","","","","","","","","9","","stimuli/stars_9.png","172.5","","","","","stimuli/WF06_FO.jpg","",""
"explore-choice","97","240720","0.0-97.0","p689713","AFK9ALQK5GPNG","3S1L4CQSFYBD9IN1W8PCJQ1H8N7AFE","3FFJ6VRIL3U45GP3VG35M1XLY4G0IM","model","match","uniform","","","","","","","1095","240548","241643","[""stimuli/AM05_AO.jpg"",""stimuli/WF06_CC.jpg"",""stimuli/WM09_FO.jpg"",""stimuli/WM07_HO.jpg""]","stimuli/AM05_AO.jpg","stimuli/WF06_CC.jpg","stimuli/WM09_FO.jpg","stimuli/WM07_HO.jpg","pos2","stimuli/WF06_CC.jpg","CC","WF06","1","4.5","9","8","stimuli/stars_9.png","177","[""AO"",""CC"",""FO"",""HO""]","[""AM05"",""WF06"",""WM09"",""WM07""]","[2,9,4,3]","[4,8,6,2]","","",""
"show-reward","98","242736","0.0-98.0","p689713","AFK9ALQK5GPNG","3S1L4CQSFYBD9IN1W8PCJQ1H8N7AFE","3FFJ6VRIL3U45GP3VG35M1XLY4G0IM","model","match","uniform","","","","","","","","242145","244160","","","","","","","","","","","","9","","stimuli/stars_9.png","177","","","","","stimuli/WF06_CC.jpg","",""
"explore-choice","99","243865","0.0-99.0","p689713","AFK9ALQK5GPNG","3S1L4CQSFYBD9IN1W8PCJQ1H8N7AFE","3FFJ6VRIL3U45GP3VG35M1XLY4G0IM","model","match","uniform","","","","","","","626","244161","244787","[""stimuli/AM05_CC.jpg"",""stimuli/WF06_HO.jpg"",""stimuli/WM09_AO.jpg"",""stimuli/WM07_FO.jpg""]","stimuli/AM05_CC.jpg","stimuli/WF06_HO.jpg","stimuli/WM09_AO.jpg","stimuli/WM07_FO.jpg","pos2","stimuli/WF06_HO.jpg","HO","WF06","1","4.5","9","8","stimuli/stars_9.png","181.5","[""CC"",""HO"",""AO"",""FO""]","[""AM05"",""WF06"",""WM09"",""WM07""]","[2,9,5,4]","[4,8,6,2]","","",""
"show-reward","100","245870","0.0-100.0","p689713","AFK9ALQK5GPNG","3S1L4CQSFYBD9IN1W8PCJQ1H8N7AFE","3FFJ6VRIL3U45GP3VG35M1XLY4G0IM","model","match","uniform","","","","","","","","245291","247294","","","","","","","","","","","","9","","stimuli/stars_9.png","181.5","","","","","stimuli/WF06_HO.jpg","",""
"explore-choice","101","247374","0.0-101.0","p689713","AFK9ALQK5GPNG","3S1L4CQSFYBD9IN1W8PCJQ1H8N7AFE","3FFJ6VRIL3U45GP3VG35M1XLY4G0IM","model","match","uniform","","","","","","","992","247295","248287","[""stimuli/WF06_CC.jpg"",""stimuli/WM09_AO.jpg"",""stimuli/WM07_FO.jpg"",""stimuli/AM05_HO.jpg""]","stimuli/WF06_CC.jpg","stimuli/WM09_AO.jpg","stimuli/WM07_FO.jpg","stimuli/AM05_HO.jpg","pos1","stimuli/WF06_CC.jpg","CC","WF06","0","5","10","8","stimuli/stars_10.png","186.5","[""CC"",""AO"",""FO"",""HO""]","[""WF06"",""WM09"",""WM07"",""AM05""]","[10,6,4,6]","[8,6,2,4]","","",""
"show-reward","102","249382","0.0-102.0","p689713","AFK9ALQK5GPNG","3S1L4CQSFYBD9IN1W8PCJQ1H8N7AFE","3FFJ6VRIL3U45GP3VG35M1XLY4G0IM","model","match","uniform","","","","","","","","248800","250806","","","","","","","","","","","","10","","stimuli/stars_10.png","186.5","","","","","stimuli/WF06_CC.jpg","",""
"explore-choice","103","250485","0.0-103.0","p689713","AFK9ALQK5GPNG","3S1L4CQSFYBD9IN1W8PCJQ1H8N7AFE","3FFJ6VRIL3U45GP3VG35M1XLY4G0IM","model","match","uniform","","","","","","","600","250807","251407","[""stimuli/WF14_SUR.jpg"",""stimuli/HM09_DO.jpg"",""stimuli/WM11_SC.jpg"",""stimuli/BF08_HE.jpg""]","stimuli/WF14_SUR.jpg","stimuli/HM09_DO.jpg","stimuli/WM11_SC.jpg","stimuli/BF08_HE.jpg","pos4","stimuli/BF08_HE.jpg","HE","BF08","3","1.5","3","4","stimuli/stars_3.png","188","[""SUR"",""DO"",""SC"",""HE""]","[""WF14"",""HM09"",""WM11"",""BF08""]","[5,2,10,3]","[6,2,8,4]","","",""
"show-reward","104","252496","0.0-104.0","p689713","AFK9ALQK5GPNG","3S1L4CQSFYBD9IN1W8PCJQ1H8N7AFE","3FFJ6VRIL3U45GP3VG35M1XLY4G0IM","model","match","uniform","","","","","","","","251910","253921","","","","","","","","","","","","3","","stimuli/stars_3.png","188","","","","","stimuli/BF08_HE.jpg","",""
"explore-choice","105","254102","0.0-105.0","p689713","AFK9ALQK5GPNG","3S1L4CQSFYBD9IN1W8PCJQ1H8N7AFE","3FFJ6VRIL3U45GP3VG35M1XLY4G0IM","model","match","uniform","","","","","","","1099","253922","255021","[""stimuli/WF14_SUR.jpg"",""stimuli/WM11_DO.jpg"",""stimuli/BF08_HE.jpg"",""stimuli/HM09_SC.jpg""]","stimuli/WF14_SUR.jpg","stimuli/WM11_DO.jpg","stimuli/BF08_HE.jpg","stimuli/HM09_SC.jpg","pos2","stimuli/WM11_DO.jpg","DO","WM11","1","4.5","9","8","stimuli/stars_9.png","192.5","[""SUR"",""DO"",""HE"",""SC""]","[""WF14"",""WM11"",""BF08"",""HM09""]","[5,9,5,3]","[6,8,4,2]","","",""
"show-reward","106","256119","0.0-106.0","p689713","AFK9ALQK5GPNG","3S1L4CQSFYBD9IN1W8PCJQ1H8N7AFE","3FFJ6VRIL3U45GP3VG35M1XLY4G0IM","model","match","uniform","","","","","","","","255528","257543","","","","","","","","","","","","9","","stimuli/stars_9.png","192.5","","","","","stimuli/WM11_DO.jpg","",""
"explore-choice","107","257513","0.0-107.0","p689713","AFK9ALQK5GPNG","3S1L4CQSFYBD9IN1W8PCJQ1H8N7AFE","3FFJ6VRIL3U45GP3VG35M1XLY4G0IM","model","match","uniform","","","","","","","888","257544","258432","[""stimuli/WM11_HE.jpg"",""stimuli/HM09_DO.jpg"",""stimuli/BF08_SC.jpg"",""stimuli/WF14_SUR.jpg""]","stimuli/WM11_HE.jpg","stimuli/HM09_DO.jpg","stimuli/BF08_SC.jpg","stimuli/WF14_SUR.jpg","pos1","stimuli/WM11_HE.jpg","HE","WM11","0","3","6","8","stimuli/stars_6.png","195.5","[""HE"",""DO"",""SC"",""SUR""]","[""WM11"",""HM09"",""BF08"",""WF14""]","[6,4,2,5]","[8,2,4,6]","","",""
"show-reward","108","259529","0.0-108.0","p689713","AFK9ALQK5GPNG","3S1L4CQSFYBD9IN1W8PCJQ1H8N7AFE","3FFJ6VRIL3U45GP3VG35M1XLY4G0IM","model","match","uniform","","","","","","","","258938","260953","","","","","","","","","","","","6","","stimuli/stars_6.png","195.5","","","","","stimuli/WM11_HE.jpg","",""
"explore-choice","109","261079","0.0-109.0","p689713","AFK9ALQK5GPNG","3S1L4CQSFYBD9IN1W8PCJQ1H8N7AFE","3FFJ6VRIL3U45GP3VG35M1XLY4G0IM","model","match","uniform","","","","","","","1040","260954","261994","[""stimuli/BF08_DO.jpg"",""stimuli/HM09_SC.jpg"",""stimuli/WM11_SUR.jpg"",""stimuli/WF14_HE.jpg""]","stimuli/BF08_DO.jpg","stimuli/HM09_SC.jpg","stimuli/WM11_SUR.jpg","stimuli/WF14_HE.jpg","pos3","stimuli/WM11_SUR.jpg","SUR","WM11","2","4","8","8","stimuli/stars_8.png","199.5","[""DO"",""SC"",""SUR"",""HE""]","[""BF08"",""HM09"",""WM11"",""WF14""]","[2,0,8,4]","[4,2,8,6]","","",""
"show-reward","110","263092","0.0-110.0","p689713","AFK9ALQK5GPNG","3S1L4CQSFYBD9IN1W8PCJQ1H8N7AFE","3FFJ6VRIL3U45GP3VG35M1XLY4G0IM","model","match","uniform","","","","","","","","262504","264517","","","","","","","","","","","","8","","stimuli/stars_8.png","199.5","","","","","stimuli/WM11_SUR.jpg","",""
"explore-choice","111","264560","0.0-111.0","p689713","AFK9ALQK5GPNG","3S1L4CQSFYBD9IN1W8PCJQ1H8N7AFE","3FFJ6VRIL3U45GP3VG35M1XLY4G0IM","model","match","uniform","","","","","","","960","264518","265478","[""stimuli/HM09_SC.jpg"",""stimuli/WM11_HE.jpg"",""stimuli/WF14_DO.jpg"",""stimuli/BF08_SUR.jpg""]","stimuli/HM09_SC.jpg","stimuli/WM11_HE.jpg","stimuli/WF14_DO.jpg","stimuli/BF08_SUR.jpg","pos2","stimuli/WM11_HE.jpg","HE","WM11","1","4","8","8","stimuli/stars_8.png","203.5","[""SC"",""HE"",""DO"",""SUR""]","[""HM09"",""WM11"",""WF14"",""BF08""]","[3,8,7,4]","[2,8,6,4]","","",""
"show-reward","112","266565","0.0-112.0","p689713","AFK9ALQK5GPNG","3S1L4CQSFYBD9IN1W8PCJQ1H8N7AFE","3FFJ6VRIL3U45GP3VG35M1XLY4G0IM","model","match","uniform","","","","","","","","265985","267990","","","","","","","","","","","","8","","stimuli/stars_8.png","203.5","","","","","stimuli/WM11_HE.jpg","",""
"explore-choice","113","267798","0.0-113.0","p689713","AFK9ALQK5GPNG","3S1L4CQSFYBD9IN1W8PCJQ1H8N7AFE","3FFJ6VRIL3U45GP3VG35M1XLY4G0IM","model","match","uniform","","","","","","","720","267991","268711","[""stimuli/BF08_DO.jpg"",""stimuli/WM11_HE.jpg"",""stimuli/HM09_SC.jpg"",""stimuli/WF14_SUR.jpg""]","stimuli/BF08_DO.jpg","stimuli/WM11_HE.jpg","stimuli/HM09_SC.jpg","stimuli/WF14_SUR.jpg","pos2","stimuli/WM11_HE.jpg","HE","WM11","1","4","8","8","stimuli/stars_8.png","207.5","[""DO"",""HE"",""SC"",""SUR""]","[""BF08"",""WM11"",""HM09"",""WF14""]","[3,8,2,8]","[4,8,2,6]","","",""
"show-reward","114","269802","0.0-114.0","p689713","AFK9ALQK5GPNG","3S1L4CQSFYBD9IN1W8PCJQ1H8N7AFE","3FFJ6VRIL3U45GP3VG35M1XLY4G0IM","model","match","uniform","","","","","","","","269223","271226","","","","","","","","","","","","8","","stimuli/stars_8.png","207.5","","","","","stimuli/WM11_HE.jpg","",""
"explore-choice","115","271303","0.0-115.0","p689713","AFK9ALQK5GPNG","3S1L4CQSFYBD9IN1W8PCJQ1H8N7AFE","3FFJ6VRIL3U45GP3VG35M1XLY4G0IM","model","match","uniform","","","","","","","988","271227","272215","[""stimuli/HM09_HE.jpg"",""stimuli/WF14_SC.jpg"",""stimuli/BF08_DO.jpg"",""stimuli/WM11_SUR.jpg""]","stimuli/HM09_HE.jpg","stimuli/WF14_SC.jpg","stimuli/BF08_DO.jpg","stimuli/WM11_SUR.jpg","pos4","stimuli/WM11_SUR.jpg","SUR","WM11","3","3","6","8","stimuli/stars_6.png","210.5","[""HE"",""SC"",""DO"",""SUR""]","[""HM09"",""WF14"",""BF08"",""WM11""]","[1,6,2,6]","[2,6,4,8]","","",""
"show-reward","116","273313","0.0-116.0","p689713","AFK9ALQK5GPNG","3S1L4CQSFYBD9IN1W8PCJQ1H8N7AFE","3FFJ6VRIL3U45GP3VG35M1XLY4G0IM","model","match","uniform","","","","","","","","272728","274738","","","","","","","","","","","","6","","stimuli/stars_6.png","210.5","","","","","stimuli/WM11_SUR.jpg","",""
"explore-choice","117","274801","0.0-117.0","p689713","AFK9ALQK5GPNG","3S1L4CQSFYBD9IN1W8PCJQ1H8N7AFE","3FFJ6VRIL3U45GP3VG35M1XLY4G0IM","model","match","uniform","","","","","","","985","274740","275725","[""stimuli/WM11_SC.jpg"",""stimuli/WF14_HE.jpg"",""stimuli/HM09_SUR.jpg"",""stimuli/BF08_DO.jpg""]","stimuli/WM11_SC.jpg","stimuli/WF14_HE.jpg","stimuli/HM09_SUR.jpg","stimuli/BF08_DO.jpg","pos1","stimuli/WM11_SC.jpg","SC","WM11","0","4.5","9","8","stimuli/stars_9.png","215","[""SC"",""HE"",""SUR"",""DO""]","[""WM11"",""WF14"",""HM09"",""BF08""]","[9,6,4,2]","[8,6,2,4]","","",""
"show-reward","118","276809","0.0-118.0","p689713","AFK9ALQK5GPNG","3S1L4CQSFYBD9IN1W8PCJQ1H8N7AFE","3FFJ6VRIL3U45GP3VG35M1XLY4G0IM","model","match","uniform","","","","","","","","276226","278233","","","","","","","","","","","","9","","stimuli/stars_9.png","215","","","","","stimuli/WM11_SC.jpg","",""
"explore-choice","119","278044","0.0-119.0","p689713","AFK9ALQK5GPNG","3S1L4CQSFYBD9IN1W8PCJQ1H8N7AFE","3FFJ6VRIL3U45GP3VG35M1XLY4G0IM","model","match","uniform","","","","","","","727","278234","278961","[""stimuli/WM11_HE.jpg"",""stimuli/BF08_SUR.jpg"",""stimuli/HM09_DO.jpg"",""stimuli/WF14_SC.jpg""]","stimuli/WM11_HE.jpg","stimuli/BF08_SUR.jpg","stimuli/HM09_DO.jpg","stimuli/WF14_SC.jpg","pos1","stimuli/WM11_HE.jpg","HE","WM11","0","3","6","8","stimuli/stars_6.png","218","[""HE"",""SUR"",""DO"",""SC""]","[""WM11"",""BF08"",""HM09"",""WF14""]","[6,6,0,4]","[8,4,2,6]","","",""
"show-reward","120","280059","0.0-120.0","p689713","AFK9ALQK5GPNG","3S1L4CQSFYBD9IN1W8PCJQ1H8N7AFE","3FFJ6VRIL3U45GP3VG35M1XLY4G0IM","model","match","uniform","","","","","","","","279469","281484","","","","","","","","","","","","6","","stimuli/stars_6.png","218","","","","","stimuli/WM11_HE.jpg","",""
"explore-choice","121","281438","0.0-121.0","p689713","AFK9ALQK5GPNG","3S1L4CQSFYBD9IN1W8PCJQ1H8N7AFE","3FFJ6VRIL3U45GP3VG35M1XLY4G0IM","model","match","uniform","","","","","","","864","281485","282349","[""stimuli/HM09_SUR.jpg"",""stimuli/WM11_HE.jpg"",""stimuli/BF08_DO.jpg"",""stimuli/WF14_SC.jpg""]","stimuli/HM09_SUR.jpg","stimuli/WM11_HE.jpg","stimuli/BF08_DO.jpg","stimuli/WF14_SC.jpg","pos2","stimuli/WM11_HE.jpg","HE","WM11","1","4","8","8","stimuli/stars_8.png","222","[""SUR"",""HE"",""DO"",""SC""]","[""HM09"",""WM11"",""BF08"",""WF14""]","[0,8,3,7]","[2,8,4,6]","","",""
"show-reward","122","283455","0.0-122.0","p689713","AFK9ALQK5GPNG","3S1L4CQSFYBD9IN1W8PCJQ1H8N7AFE","3FFJ6VRIL3U45GP3VG35M1XLY4G0IM","model","match","uniform","","","","","","","","282864","284879","","","","","","","","","","","","8","","stimuli/stars_8.png","222","","","","","stimuli/WM11_HE.jpg","",""
"explore-choice","123","285841","0.0-123.0","p689713","AFK9ALQK5GPNG","3S1L4CQSFYBD9IN1W8PCJQ1H8N7AFE","3FFJ6VRIL3U45GP3VG35M1XLY4G0IM","model","match","uniform","","","","","","","1870","284881","286751","[""stimuli/BF08_SUR.jpg"",""stimuli/HM09_DO.jpg"",""stimuli/WF14_HE.jpg"",""stimuli/WM11_SC.jpg""]","stimuli/BF08_SUR.jpg","stimuli/HM09_DO.jpg","stimuli/WF14_HE.jpg","stimuli/WM11_SC.jpg","pos4","stimuli/WM11_SC.jpg","SC","WM11","3","4","8","8","stimuli/stars_8.png","226","[""SUR"",""DO"",""HE"",""SC""]","[""BF08"",""HM09"",""WF14"",""WM11""]","[6,4,5,8]","[4,2,6,8]","","",""
"show-reward","124","287848","0.0-124.0","p689713","AFK9ALQK5GPNG","3S1L4CQSFYBD9IN1W8PCJQ1H8N7AFE","3FFJ6VRIL3U45GP3VG35M1XLY4G0IM","model","match","uniform","","","","","","","","287267","289273","","","","","","","","","","","","8","","stimuli/stars_8.png","226","","","","","stimuli/WM11_SC.jpg","",""
"explore-choice","125","289465","0.0-125.0","p689713","AFK9ALQK5GPNG","3S1L4CQSFYBD9IN1W8PCJQ1H8N7AFE","3FFJ6VRIL3U45GP3VG35M1XLY4G0IM","model","match","uniform","","","","","","","1105","289273","290378","[""stimuli/WF14_DO.jpg"",""stimuli/BF08_HE.jpg"",""stimuli/HM09_SC.jpg"",""stimuli/WM11_SUR.jpg""]","stimuli/WF14_DO.jpg","stimuli/BF08_HE.jpg","stimuli/HM09_SC.jpg","stimuli/WM11_SUR.jpg","pos4","stimuli/WM11_SUR.jpg","SUR","WM11","3","3","6","8","stimuli/stars_6.png","229","[""DO"",""HE"",""SC"",""SUR""]","[""WF14"",""BF08"",""HM09"",""WM11""]","[8,3,4,6]","[6,4,2,8]","","",""
"show-reward","126","291473","0.0-126.0","p689713","AFK9ALQK5GPNG","3S1L4CQSFYBD9IN1W8PCJQ1H8N7AFE","3FFJ6VRIL3U45GP3VG35M1XLY4G0IM","model","match","uniform","","","","","","","","290891","292898","","","","","","","","","","","","6","","stimuli/stars_6.png","229","","","","","stimuli/WM11_SUR.jpg","",""
"explore-choice","127","293360","0.0-127.0","p689713","AFK9ALQK5GPNG","3S1L4CQSFYBD9IN1W8PCJQ1H8N7AFE","3FFJ6VRIL3U45GP3VG35M1XLY4G0IM","model","match","uniform","","","","","","","1377","292899","294276","[""stimuli/WM11_DO.jpg"",""stimuli/WF14_SUR.jpg"",""stimuli/HM09_HE.jpg"",""stimuli/BF08_SC.jpg""]","stimuli/WM11_DO.jpg","stimuli/WF14_SUR.jpg","stimuli/HM09_HE.jpg","stimuli/BF08_SC.jpg","pos1","stimuli/WM11_DO.jpg","DO","WM11","0","4","8","8","stimuli/stars_8.png","233","[""DO"",""SUR"",""HE"",""SC""]","[""WM11"",""WF14"",""HM09"",""BF08""]","[8,8,0,6]","[8,6,2,4]","","",""
"show-reward","128","295376","0.0-128.0","p689713","AFK9ALQK5GPNG","3S1L4CQSFYBD9IN1W8PCJQ1H8N7AFE","3FFJ6VRIL3U45GP3VG35M1XLY4G0IM","model","match","uniform","","","","","","","","294785","296799","","","","","","","","","","","","8","","stimuli/stars_8.png","233","","","","","stimuli/WM11_DO.jpg","",""
"explore-choice","129","297205","0.0-129.0","p689713","AFK9ALQK5GPNG","3S1L4CQSFYBD9IN1W8PCJQ1H8N7AFE","3FFJ6VRIL3U45GP3VG35M1XLY4G0IM","model","match","uniform","","","","","","","1316","296800","298116","[""stimuli/BF08_SUR.jpg"",""stimuli/WM11_SC.jpg"",""stimuli/HM09_HE.jpg"",""stimuli/WF14_DO.jpg""]","stimuli/BF08_SUR.jpg","stimuli/WM11_SC.jpg","stimuli/HM09_HE.jpg","stimuli/WF14_DO.jpg","pos2","stimuli/WM11_SC.jpg","SC","WM11","1","5","10","8","stimuli/stars_10.png","238","[""SUR"",""SC"",""HE"",""DO""]","[""BF08"",""WM11"",""HM09"",""WF14""]","[2,10,1,5]","[4,8,2,6]","","",""
"show-reward","130","299216","0.0-130.0","p689713","AFK9ALQK5GPNG","3S1L4CQSFYBD9IN1W8PCJQ1H8N7AFE","3FFJ6VRIL3U45GP3VG35M1XLY4G0IM","model","match","uniform","","","","","","","","298630","300641","","","","","","","","","","","","10","","stimuli/stars_10.png","238","","","","","stimuli/WM11_SC.jpg","",""
"explore-choice","131","300735","0.0-131.0","p689713","AFK9ALQK5GPNG","3S1L4CQSFYBD9IN1W8PCJQ1H8N7AFE","3FFJ6VRIL3U45GP3VG35M1XLY4G0IM","model","match","uniform","","","","","","","1005","300642","301647","[""stimuli/BF08_SC.jpg"",""stimuli/WM11_DO.jpg"",""stimuli/HM09_SUR.jpg"",""stimuli/WF14_HE.jpg""]","stimuli/BF08_SC.jpg","stimuli/WM11_DO.jpg","stimuli/HM09_SUR.jpg","stimuli/WF14_HE.jpg","pos2","stimuli/WM11_DO.jpg","DO","WM11","1","3","6","8","stimuli/stars_6.png","241","[""SC"",""DO"",""SUR"",""HE""]","[""BF08"",""WM11"",""HM09"",""WF14""]","[6,6,0,4]","[4,8,2,6]","","",""
"show-reward","132","302743","0.0-132.0","p689713","AFK9ALQK5GPNG","3S1L4CQSFYBD9IN1W8PCJQ1H8N7AFE","3FFJ6VRIL3U45GP3VG35M1XLY4G0IM","model","match","uniform","","","","","","","","302160","304168","","","","","","","","","","","","6","","stimuli/stars_6.png","241","","","","","stimuli/WM11_DO.jpg","",""
"explore-choice","133","304182","0.0-133.0","p689713","AFK9ALQK5GPNG","3S1L4CQSFYBD9IN1W8PCJQ1H8N7AFE","3FFJ6VRIL3U45GP3VG35M1XLY4G0IM","model","match","uniform","","","","","","","936","304168","305104","[""stimuli/HM09_SUR.jpg"",""stimuli/BF08_SC.jpg"",""stimuli/WM11_HE.jpg"",""stimuli/WF14_DO.jpg""]","stimuli/HM09_SUR.jpg","stimuli/BF08_SC.jpg","stimuli/WM11_HE.jpg","stimuli/WF14_DO.jpg","pos3","stimuli/WM11_HE.jpg","HE","WM11","2","4.5","9","8","stimuli/stars_9.png","245.5","[""SUR"",""SC"",""HE"",""DO""]","[""HM09"",""BF08"",""WM11"",""WF14""]","[4,6,9,5]","[2,4,8,6]","","",""
"show-reward","134","306188","0.0-134.0","p689713","AFK9ALQK5GPNG","3S1L4CQSFYBD9IN1W8PCJQ1H8N7AFE","3FFJ6VRIL3U45GP3VG35M1XLY4G0IM","model","match","uniform","","","","","","","","305608","307613","","","","","","","","","","","","9","","stimuli/stars_9.png","245.5","","","","","stimuli/WM11_HE.jpg","",""
"explore-choice","135","307657","0.0-135.0","p689713","AFK9ALQK5GPNG","3S1L4CQSFYBD9IN1W8PCJQ1H8N7AFE","3FFJ6VRIL3U45GP3VG35M1XLY4G0IM","model","match","uniform","","","","","","","966","307614","308580","[""stimuli/WM11_DO.jpg"",""stimuli/HM09_SC.jpg"",""stimuli/WF14_HE.jpg"",""stimuli/BF08_SUR.jpg""]","stimuli/WM11_DO.jpg","stimuli/HM09_SC.jpg","stimuli/WF14_HE.jpg","stimuli/BF08_SUR.jpg","pos1","stimuli/WM11_DO.jpg","DO","WM11","0","3","6","8","stimuli/stars_6.png","248.5","[""DO"",""SC"",""HE"",""SUR""]","[""WM11"",""HM09"",""WF14"",""BF08""]","[6,0,8,6]","[8,2,6,4]","","",""
"show-reward","136","309671","0.0-136.0","p689713","AFK9ALQK5GPNG","3S1L4CQSFYBD9IN1W8PCJQ1H8N7AFE","3FFJ6VRIL3U45GP3VG35M1XLY4G0IM","model","match","uniform","","","","","","","","309083","311096","","","","","","","","","","","","6","","stimuli/stars_6.png","248.5","","","","","stimuli/WM11_DO.jpg","",""
"explore-choice","137","311104","0.0-137.0","p689713","AFK9ALQK5GPNG","3S1L4CQSFYBD9IN1W8PCJQ1H8N7AFE","3FFJ6VRIL3U45GP3VG35M1XLY4G0IM","model","match","uniform","","","","","","","918","311097","312015","[""stimuli/WF14_SC.jpg"",""stimuli/BF08_HE.jpg"",""stimuli/WM11_SUR.jpg"",""stimuli/HM09_DO.jpg""]","stimuli/WF14_SC.jpg","stimuli/BF08_HE.jpg","stimuli/WM11_SUR.jpg","stimuli/HM09_DO.jpg","pos3","stimuli/WM11_SUR.jpg","SUR","WM11","2","3","6","8","stimuli/stars_6.png","251.5","[""SC"",""HE"",""SUR"",""DO""]","[""WF14"",""BF08"",""WM11"",""HM09""]","[4,4,6,2]","[6,4,8,2]","","",""
"show-reward","138","313107","0.0-138.0","p689713","AFK9ALQK5GPNG","3S1L4CQSFYBD9IN1W8PCJQ1H8N7AFE","3FFJ6VRIL3U45GP3VG35M1XLY4G0IM","model","match","uniform","","","","","","","","312529","314532","","","","","","","","","","","","6","","stimuli/stars_6.png","251.5","","","","","stimuli/WM11_SUR.jpg","",""
"explore-choice","139","314524","0.0-139.0","p689713","AFK9ALQK5GPNG","3S1L4CQSFYBD9IN1W8PCJQ1H8N7AFE","3FFJ6VRIL3U45GP3VG35M1XLY4G0IM","model","match","uniform","","","","","","","910","314532","315442","[""stimuli/HM09_HE.jpg"",""stimuli/WF14_SUR.jpg"",""stimuli/BF08_DO.jpg"",""stimuli/WM11_SC.jpg""]","stimuli/HM09_HE.jpg","stimuli/WF14_SUR.jpg","stimuli/BF08_DO.jpg","stimuli/WM11_SC.jpg","pos4","stimuli/WM11_SC.jpg","SC","WM11","3","4","8","8","stimuli/stars_8.png","255.5","[""HE"",""SUR"",""DO"",""SC""]","[""HM09"",""WF14"",""BF08"",""WM11""]","[3,7,3,8]","[2,6,4,8]","","",""
"show-reward","140","316540","0.0-140.0","p689713","AFK9ALQK5GPNG","3S1L4CQSFYBD9IN1W8PCJQ1H8N7AFE","3FFJ6VRIL3U45GP3VG35M1XLY4G0IM","model","match","uniform","","","","","","","","315949","317964","","","","","","","","","","","","8","","stimuli/stars_8.png","255.5","","","","","stimuli/WM11_SC.jpg","",""
"explore-choice","141","317937","0.0-141.0","p689713","AFK9ALQK5GPNG","3S1L4CQSFYBD9IN1W8PCJQ1H8N7AFE","3FFJ6VRIL3U45GP3VG35M1XLY4G0IM","model","match","uniform","","","","","","","892","317965","318857","[""stimuli/BF08_SUR.jpg"",""stimuli/WF14_SC.jpg"",""stimuli/HM09_HE.jpg"",""stimuli/WM11_DO.jpg""]","stimuli/BF08_SUR.jpg","stimuli/WF14_SC.jpg","stimuli/HM09_HE.jpg","stimuli/WM11_DO.jpg","pos4","stimuli/WM11_DO.jpg","DO","WM11","3","3","6","8","stimuli/stars_6.png","258.5","[""SUR"",""SC"",""HE"",""DO""]","[""BF08"",""WF14"",""HM09"",""WM11""]","[5,7,0,6]","[4,6,2,8]","","",""
"show-reward","142","319953","0.0-142.0","p689713","AFK9ALQK5GPNG","3S1L4CQSFYBD9IN1W8PCJQ1H8N7AFE","3FFJ6VRIL3U45GP3VG35M1XLY4G0IM","model","match","uniform","","","","","","","","319362","321377","","","","","","","","","","","","6","","stimuli/stars_6.png","258.5","","","","","stimuli/WM11_DO.jpg","",""
"explore-choice","143","321536","0.0-143.0","p689713","AFK9ALQK5GPNG","3S1L4CQSFYBD9IN1W8PCJQ1H8N7AFE","3FFJ6VRIL3U45GP3VG35M1XLY4G0IM","model","match","uniform","","","","","","","1070","321379","322449","[""stimuli/HM09_HE.jpg"",""stimuli/BF08_SC.jpg"",""stimuli/WM11_SUR.jpg"",""stimuli/WF14_DO.jpg""]","stimuli/HM09_HE.jpg","stimuli/BF08_SC.jpg","stimuli/WM11_SUR.jpg","stimuli/WF14_DO.jpg","pos3","stimuli/WM11_SUR.jpg","SUR","WM11","2","4","8","8","stimuli/stars_8.png","262.5","[""HE"",""SC"",""SUR"",""DO""]","[""HM09"",""BF08"",""WM11"",""WF14""]","[0,3,8,6]","[2,4,8,6]","","",""
"show-reward","144","323540","0.0-144.0","p689713","AFK9ALQK5GPNG","3S1L4CQSFYBD9IN1W8PCJQ1H8N7AFE","3FFJ6VRIL3U45GP3VG35M1XLY4G0IM","model","match","uniform","","","","","","","","322961","324964","","","","","","","","","","","","8","","stimuli/stars_8.png","262.5","","","","","stimuli/WM11_SUR.jpg","",""
"explore-choice","145","324972","0.0-145.0","p689713","AFK9ALQK5GPNG","3S1L4CQSFYBD9IN1W8PCJQ1H8N7AFE","3FFJ6VRIL3U45GP3VG35M1XLY4G0IM","model","match","uniform","","","","","","","918","324966","325884","[""stimuli/BF08_SC.jpg"",""stimuli/HM09_DO.jpg"",""stimuli/WM11_SUR.jpg"",""stimuli/WF14_HE.jpg""]","stimuli/BF08_SC.jpg","stimuli/HM09_DO.jpg","stimuli/WM11_SUR.jpg","stimuli/WF14_HE.jpg","pos3","stimuli/WM11_SUR.jpg","SUR","WM11","2","3.5","7","8","stimuli/stars_7.png","266","[""SC"",""DO"",""SUR"",""HE""]","[""BF08"",""HM09"",""WM11"",""WF14""]","[6,3,7,5]","[4,2,8,6]","","",""
"show-reward","146","326982","0.0-146.0","p689713","AFK9ALQK5GPNG","3S1L4CQSFYBD9IN1W8PCJQ1H8N7AFE","3FFJ6VRIL3U45GP3VG35M1XLY4G0IM","model","match","uniform","","","","","","","","326398","328406","","","","","","","","","","","","7","","stimuli/stars_7.png","266","","","","","stimuli/WM11_SUR.jpg","",""
"explore-choice","147","328376","0.0-147.0","p689713","AFK9ALQK5GPNG","3S1L4CQSFYBD9IN1W8PCJQ1H8N7AFE","3FFJ6VRIL3U45GP3VG35M1XLY4G0IM","model","match","uniform","","","","","","","881","328408","329289","[""stimuli/WM11_SC.jpg"",""stimuli/BF08_HE.jpg"",""stimuli/HM09_SUR.jpg"",""stimuli/WF14_DO.jpg""]","stimuli/WM11_SC.jpg","stimuli/BF08_HE.jpg","stimuli/HM09_SUR.jpg","stimuli/WF14_DO.jpg","pos1","stimuli/WM11_SC.jpg","SC","WM11","0","4","8","8","stimuli/stars_8.png","270","[""SC"",""HE"",""SUR"",""DO""]","[""WM11"",""BF08"",""HM09"",""WF14""]","[8,5,1,8]","[8,4,2,6]","","",""
"show-reward","148","330392","0.0-148.0","p689713","AFK9ALQK5GPNG","3S1L4CQSFYBD9IN1W8PCJQ1H8N7AFE","3FFJ6VRIL3U45GP3VG35M1XLY4G0IM","model","match","uniform","","","","","","","","329802","331816","","","","","","","","","","","","8","","stimuli/stars_8.png","270","","","","","stimuli/WM11_SC.jpg","",""
"explore-choice","149","334661","0.0-149.0","p689713","AFK9ALQK5GPNG","3S1L4CQSFYBD9IN1W8PCJQ1H8N7AFE","3FFJ6VRIL3U45GP3VG35M1XLY4G0IM","model","match","uniform","","","","","","","3755","331818","335573","[""stimuli/WF14_SC.jpg"",""stimuli/BF08_HE.jpg"",""stimuli/HM09_SUR.jpg"",""stimuli/WM11_DO.jpg""]","stimuli/WF14_SC.jpg","stimuli/BF08_HE.jpg","stimuli/HM09_SUR.jpg","stimuli/WM11_DO.jpg","pos4","stimuli/WM11_DO.jpg","DO","WM11","3","3","6","8","stimuli/stars_6.png","273","[""SC"",""HE"",""SUR"",""DO""]","[""WF14"",""BF08"",""HM09"",""WM11""]","[5,4,4,6]","[6,4,2,8]","","",""
"show-reward","150","336666","0.0-150.0","p689713","AFK9ALQK5GPNG","3S1L4CQSFYBD9IN1W8PCJQ1H8N7AFE","3FFJ6VRIL3U45GP3VG35M1XLY4G0IM","model","match","uniform","","","","","","","","336087","338091","","","","","","","","","","","","6","","stimuli/stars_6.png","273","","","","","stimuli/WM11_DO.jpg","",""
"explore-choice","151","338904","0.0-151.0","p689713","AFK9ALQK5GPNG","3S1L4CQSFYBD9IN1W8PCJQ1H8N7AFE","3FFJ6VRIL3U45GP3VG35M1XLY4G0IM","model","match","uniform","","","","","","","1729","338093","339822","[""stimuli/WM11_SUR.jpg"",""stimuli/WF14_HE.jpg"",""stimuli/HM09_DO.jpg"",""stimuli/BF08_SC.jpg""]","stimuli/WM11_SUR.jpg","stimuli/WF14_HE.jpg","stimuli/HM09_DO.jpg","stimuli/BF08_SC.jpg","pos1","stimuli/WM11_SUR.jpg","SUR","WM11","0","3.5","7","8","stimuli/stars_7.png","276.5","[""SUR"",""HE"",""DO"",""SC""]","[""WM11"",""WF14"",""HM09"",""BF08""]","[7,5,3,6]","[8,6,2,4]","","",""
"show-reward","152","340912","0.0-152.0","p689713","AFK9ALQK5GPNG","3S1L4CQSFYBD9IN1W8PCJQ1H8N7AFE","3FFJ6VRIL3U45GP3VG35M1XLY4G0IM","model","match","uniform","","","","","","","","340329","342336","","","","","","","","","","","","7","","stimuli/stars_7.png","276.5","","","","","stimuli/WM11_SUR.jpg","",""
"explore-choice","153","342643","0.0-153.0","p689713","AFK9ALQK5GPNG","3S1L4CQSFYBD9IN1W8PCJQ1H8N7AFE","3FFJ6VRIL3U45GP3VG35M1XLY4G0IM","model","match","uniform","","","","","","","1219","342338","343557","[""stimuli/WM11_SC.jpg"",""stimuli/HM09_DO.jpg"",""stimuli/BF08_HE.jpg"",""stimuli/WF14_SUR.jpg""]","stimuli/WM11_SC.jpg","stimuli/HM09_DO.jpg","stimuli/BF08_HE.jpg","stimuli/WF14_SUR.jpg","pos1","stimuli/WM11_SC.jpg","SC","WM11","0","5","10","8","stimuli/stars_10.png","281.5","[""SC"",""DO"",""HE"",""SUR""]","[""WM11"",""HM09"",""BF08"",""WF14""]","[10,2,3,5]","[8,2,4,6]","","",""
"show-reward","154","344649","0.0-154.0","p689713","AFK9ALQK5GPNG","3S1L4CQSFYBD9IN1W8PCJQ1H8N7AFE","3FFJ6VRIL3U45GP3VG35M1XLY4G0IM","model","match","uniform","","","","","","","","344068","346073","","","","","","","","","","","","10","","stimuli/stars_10.png","281.5","","","","","stimuli/WM11_SC.jpg","",""
"explore-choice","155","345976","0.0-155.0","p689713","AFK9ALQK5GPNG","3S1L4CQSFYBD9IN1W8PCJQ1H8N7AFE","3FFJ6VRIL3U45GP3VG35M1XLY4G0IM","model","match","uniform","","","","","","","815","346074","346889","[""stimuli/WM11_HE.jpg"",""stimuli/BF08_SUR.jpg"",""stimuli/WF14_DO.jpg"",""stimuli/HM09_SC.jpg""]","stimuli/WM11_HE.jpg","stimuli/BF08_SUR.jpg","stimuli/WF14_DO.jpg","stimuli/HM09_SC.jpg","pos1","stimuli/WM11_HE.jpg","HE","WM11","0","4","8","8","stimuli/stars_8.png","285.5","[""HE"",""SUR"",""DO"",""SC""]","[""WM11"",""BF08"",""WF14"",""HM09""]","[8,4,7,3]","[8,4,6,2]","","",""
"show-reward","156","347986","0.0-156.0","p689713","AFK9ALQK5GPNG","3S1L4CQSFYBD9IN1W8PCJQ1H8N7AFE","3FFJ6VRIL3U45GP3VG35M1XLY4G0IM","model","match","uniform","","","","","","","","347402","349410","","","","","","","","","","","","8","","stimuli/stars_8.png","285.5","","","","","stimuli/WM11_HE.jpg","",""
"explore-choice","157","349338","0.0-157.0","p689713","AFK9ALQK5GPNG","3S1L4CQSFYBD9IN1W8PCJQ1H8N7AFE","3FFJ6VRIL3U45GP3VG35M1XLY4G0IM","model","match","uniform","","","","","","","837","349412","350249","[""stimuli/WF14_DO.jpg"",""stimuli/WM11_SC.jpg"",""stimuli/BF08_HE.jpg"",""stimuli/HM09_SUR.jpg""]","stimuli/WF14_DO.jpg","stimuli/WM11_SC.jpg","stimuli/BF08_HE.jpg","stimuli/HM09_SUR.jpg","pos2","stimuli/WM11_SC.jpg","SC","WM11","1","4","8","8","stimuli/stars_8.png","289.5","[""DO"",""SC"",""HE"",""SUR""]","[""WF14"",""WM11"",""BF08"",""HM09""]","[8,8,5,1]","[6,8,4,2]","","",""
"show-reward","158","351350","0.0-158.0","p689713","AFK9ALQK5GPNG","3S1L4CQSFYBD9IN1W8PCJQ1H8N7AFE","3FFJ6VRIL3U45GP3VG35M1XLY4G0IM","model","match","uniform","","","","","","","","350764","352773","","","","","","","","","","","","8","","stimuli/stars_8.png","289.5","","","","","stimuli/WM11_SC.jpg","",""
"explore-choice","159","352537","0.0-159.0","p689713","AFK9ALQK5GPNG","3S1L4CQSFYBD9IN1W8PCJQ1H8N7AFE","3FFJ6VRIL3U45GP3VG35M1XLY4G0IM","model","match","uniform","","","","","","","684","352775","353459","[""stimuli/HM09_SUR.jpg"",""stimuli/WM11_HE.jpg"",""stimuli/WF14_SC.jpg"",""stimuli/BF08_DO.jpg""]","stimuli/HM09_SUR.jpg","stimuli/WM11_HE.jpg","stimuli/WF14_SC.jpg","stimuli/BF08_DO.jpg","pos2","stimuli/WM11_HE.jpg","HE","WM11","1","4","8","8","stimuli/stars_8.png","293.5","[""SUR"",""HE"",""SC"",""DO""]","[""HM09"",""WM11"",""WF14"",""BF08""]","[0,8,7,3]","[2,8,6,4]","","",""
"show-reward","160","354550","0.0-160.0","p689713","AFK9ALQK5GPNG","3S1L4CQSFYBD9IN1W8PCJQ1H8N7AFE","3FFJ6VRIL3U45GP3VG35M1XLY4G0IM","model","match","uniform","","","","","","","","353963","355974","","","","","","","","","","","","8","","stimuli/stars_8.png","293.5","","","","","stimuli/WM11_HE.jpg","",""
"explore-choice","161","355908","0.0-161.0","p689713","AFK9ALQK5GPNG","3S1L4CQSFYBD9IN1W8PCJQ1H8N7AFE","3FFJ6VRIL3U45GP3VG35M1XLY4G0IM","model","match","uniform","","","","","","","842","355975","356817","[""stimuli/BF08_DO.jpg"",""stimuli/HM09_SC.jpg"",""stimuli/WF14_HE.jpg"",""stimuli/WM11_SUR.jpg""]","stimuli/BF08_DO.jpg","stimuli/HM09_SC.jpg","stimuli/WF14_HE.jpg","stimuli/WM11_SUR.jpg","pos4","stimuli/WM11_SUR.jpg","SUR","WM11","3","4","8","8","stimuli/stars_8.png","297.5","[""DO"",""SC"",""HE"",""SUR""]","[""BF08"",""HM09"",""WF14"",""WM11""]","[2,0,4,8]","[4,2,6,8]","","",""
"show-reward","162","357915","0.0-162.0","p689713","AFK9ALQK5GPNG","3S1L4CQSFYBD9IN1W8PCJQ1H8N7AFE","3FFJ6VRIL3U45GP3VG35M1XLY4G0IM","model","match","uniform","","","","","","","","357333","359340","","","","","","","","","","","","8","","stimuli/stars_8.png","297.5","","","","","stimuli/WM11_SUR.jpg","",""
"explore-choice","163","359494","0.0-163.0","p689713","AFK9ALQK5GPNG","3S1L4CQSFYBD9IN1W8PCJQ1H8N7AFE","3FFJ6VRIL3U45GP3VG35M1XLY4G0IM","model","match","uniform","","","","","","","1064","359341","360405","[""stimuli/HM09_HE.jpg"",""stimuli/BF08_SUR.jpg"",""stimuli/WM11_DO.jpg"",""stimuli/WF14_SC.jpg""]","stimuli/HM09_HE.jpg","stimuli/BF08_SUR.jpg","stimuli/WM11_DO.jpg","stimuli/WF14_SC.jpg","pos3","stimuli/WM11_DO.jpg","DO","WM11","2","3","6","8","stimuli/stars_6.png","300.5","[""HE"",""SUR"",""DO"",""SC""]","[""HM09"",""BF08"",""WM11"",""WF14""]","[0,5,6,7]","[2,4,8,6]","","",""
"show-reward","164","361500","0.0-164.0","p689713","AFK9ALQK5GPNG","3S1L4CQSFYBD9IN1W8PCJQ1H8N7AFE","3FFJ6VRIL3U45GP3VG35M1XLY4G0IM","model","match","uniform","","","","","","","","360920","362925","","","","","","","","","","","","6","","stimuli/stars_6.png","300.5","","","","","stimuli/WM11_DO.jpg","",""
"explore-choice","165","362860","0.0-165.0","p689713","AFK9ALQK5GPNG","3S1L4CQSFYBD9IN1W8PCJQ1H8N7AFE","3FFJ6VRIL3U45GP3VG35M1XLY4G0IM","model","match","uniform","","","","","","","847","362926","363773","[""stimuli/WM11_SC.jpg"",""stimuli/HM09_DO.jpg"",""stimuli/BF08_SUR.jpg"",""stimuli/WF14_HE.jpg""]","stimuli/WM11_SC.jpg","stimuli/HM09_DO.jpg","stimuli/BF08_SUR.jpg","stimuli/WF14_HE.jpg","pos1","stimuli/WM11_SC.jpg","SC","WM11","0","4","8","8","stimuli/stars_8.png","304.5","[""SC"",""DO"",""SUR"",""HE""]","[""WM11"",""HM09"",""BF08"",""WF14""]","[8,4,6,5]","[8,2,4,6]","","",""
"show-reward","166","364871","0.0-166.0","p689713","AFK9ALQK5GPNG","3S1L4CQSFYBD9IN1W8PCJQ1H8N7AFE","3FFJ6VRIL3U45GP3VG35M1XLY4G0IM","model","match","uniform","","","","","","","","364286","366295","","","","","","","","","","","","8","","stimuli/stars_8.png","304.5","","","","","stimuli/WM11_SC.jpg","",""
"explore-choice","167","366261","0.0-167.0","p689713","AFK9ALQK5GPNG","3S1L4CQSFYBD9IN1W8PCJQ1H8N7AFE","3FFJ6VRIL3U45GP3VG35M1XLY4G0IM","model","match","uniform","","","","","","","882","366296","367178","[""stimuli/WM11_HE.jpg"",""stimuli/BF08_DO.jpg"",""stimuli/HM09_SC.jpg"",""stimuli/WF14_SUR.jpg""]","stimuli/WM11_HE.jpg","stimuli/BF08_DO.jpg","stimuli/HM09_SC.jpg","stimuli/WF14_SUR.jpg","pos1","stimuli/WM11_HE.jpg","HE","WM11","0","4","8","8","stimuli/stars_8.png","308.5","[""HE"",""DO"",""SC"",""SUR""]","[""WM11"",""BF08"",""HM09"",""WF14""]","[8,3,2,8]","[8,4,2,6]","","",""
"show-reward","168","368277","0.0-168.0","p689713","AFK9ALQK5GPNG","3S1L4CQSFYBD9IN1W8PCJQ1H8N7AFE","3FFJ6VRIL3U45GP3VG35M1XLY4G0IM","model","match","uniform","","","","","","","","367686","369702","","","","","","","","","","","","8","","stimuli/stars_8.png","308.5","","","","","stimuli/WM11_HE.jpg","",""
"explore-choice","169","369337","0.0-169.0","p689713","AFK9ALQK5GPNG","3S1L4CQSFYBD9IN1W8PCJQ1H8N7AFE","3FFJ6VRIL3U45GP3VG35M1XLY4G0IM","model","match","uniform","","","","","","","548","369703","370251","[""stimuli/WM11_HE.jpg"",""stimuli/HM09_DO.jpg"",""stimuli/WF14_SC.jpg"",""stimuli/BF08_SUR.jpg""]","stimuli/WM11_HE.jpg","stimuli/HM09_DO.jpg","stimuli/WF14_SC.jpg","stimuli/BF08_SUR.jpg","pos1","stimuli/WM11_HE.jpg","HE","WM11","0","3","6","8","stimuli/stars_6.png","311.5","[""HE"",""DO"",""SC"",""SUR""]","[""WM11"",""HM09"",""WF14"",""BF08""]","[6,0,4,6]","[8,2,6,4]","","",""
"show-reward","170","371350","0.0-170.0","p689713","AFK9ALQK5GPNG","3S1L4CQSFYBD9IN1W8PCJQ1H8N7AFE","3FFJ6VRIL3U45GP3VG35M1XLY4G0IM","model","match","uniform","","","","","","","","370762","372775","","","","","","","","","","","","6","","stimuli/stars_6.png","311.5","","","","","stimuli/WM11_HE.jpg","",""
"explore-choice","171","372505","0.0-171.0","p689713","AFK9ALQK5GPNG","3S1L4CQSFYBD9IN1W8PCJQ1H8N7AFE","3FFJ6VRIL3U45GP3VG35M1XLY4G0IM","model","match","uniform","","","","","","","647","372776","373423","[""stimuli/WM11_DO.jpg"",""stimuli/WF14_HE.jpg"",""stimuli/HM09_SC.jpg"",""stimuli/BF08_SUR.jpg""]","stimuli/WM11_DO.jpg","stimuli/WF14_HE.jpg","stimuli/HM09_SC.jpg","stimuli/BF08_SUR.jpg","pos1","stimuli/WM11_DO.jpg","DO","WM11","0","3","6","8","stimuli/stars_6.png","314.5","[""DO"",""HE"",""SC"",""SUR""]","[""WM11"",""WF14"",""HM09"",""BF08""]","[6,8,0,6]","[8,6,2,4]","","",""
"show-reward","172","374507","0.0-172.0","p689713","AFK9ALQK5GPNG","3S1L4CQSFYBD9IN1W8PCJQ1H8N7AFE","3FFJ6VRIL3U45GP3VG35M1XLY4G0IM","model","match","uniform","","","","","","","","373930","375933","","","","","","","","","","","","6","","stimuli/stars_6.png","314.5","","","","","stimuli/WM11_DO.jpg","",""
"explore-choice","173","375812","0.0-173.0","p689713","AFK9ALQK5GPNG","3S1L4CQSFYBD9IN1W8PCJQ1H8N7AFE","3FFJ6VRIL3U45GP3VG35M1XLY4G0IM","model","match","uniform","","","","","","","796","375933","376729","[""stimuli/WF14_SUR.jpg"",""stimuli/WM11_DO.jpg"",""stimuli/HM09_HE.jpg"",""stimuli/BF08_SC.jpg""]","stimuli/WF14_SUR.jpg","stimuli/WM11_DO.jpg","stimuli/HM09_HE.jpg","stimuli/BF08_SC.jpg","pos2","stimuli/WM11_DO.jpg","DO","WM11","1","4","8","8","stimuli/stars_8.png","318.5","[""SUR"",""DO"",""HE"",""SC""]","[""WF14"",""WM11"",""HM09"",""BF08""]","[8,8,0,6]","[6,8,2,4]","","",""
"show-reward","174","377814","0.0-174.0","p689713","AFK9ALQK5GPNG","3S1L4CQSFYBD9IN1W8PCJQ1H8N7AFE","3FFJ6VRIL3U45GP3VG35M1XLY4G0IM","model","match","uniform","","","","","","","","377237","379239","","","","","","","","","","","","8","","stimuli/stars_8.png","318.5","","","","","stimuli/WM11_DO.jpg","",""
"explore-choice","175","379743","0.0-175.0","p689713","AFK9ALQK5GPNG","3S1L4CQSFYBD9IN1W8PCJQ1H8N7AFE","3FFJ6VRIL3U45GP3VG35M1XLY4G0IM","model","match","uniform","","","","","","","1425","379240","380665","[""stimuli/WF14_SC.jpg"",""stimuli/BF08_HE.jpg"",""stimuli/WM11_DO.jpg"",""stimuli/HM09_SUR.jpg""]","stimuli/WF14_SC.jpg","stimuli/BF08_HE.jpg","stimuli/WM11_DO.jpg","stimuli/HM09_SUR.jpg","pos3","stimuli/WM11_DO.jpg","DO","WM11","2","3","6","8","stimuli/stars_6.png","321.5","[""SC"",""HE"",""DO"",""SUR""]","[""WF14"",""BF08"",""WM11"",""HM09""]","[5,4,6,4]","[6,4,8,2]","","",""
"show-reward","176","381753","0.0-176.0","p689713","AFK9ALQK5GPNG","3S1L4CQSFYBD9IN1W8PCJQ1H8N7AFE","3FFJ6VRIL3U45GP3VG35M1XLY4G0IM","model","match","uniform","","","","","","","","381168","383178","","","","","","","","","","","","6","","stimuli/stars_6.png","321.5","","","","","stimuli/WM11_DO.jpg","",""
"explore-choice","177","384386","0.0-177.0","p689713","AFK9ALQK5GPNG","3S1L4CQSFYBD9IN1W8PCJQ1H8N7AFE","3FFJ6VRIL3U45GP3VG35M1XLY4G0IM","model","match","uniform","","","","","","","2124","383179","385303","[""stimuli/HM09_SC.jpg"",""stimuli/BF08_HE.jpg"",""stimuli/WF14_DO.jpg"",""stimuli/WM11_SUR.jpg""]","stimuli/HM09_SC.jpg","stimuli/BF08_HE.jpg","stimuli/WF14_DO.jpg","stimuli/WM11_SUR.jpg","pos4","stimuli/WM11_SUR.jpg","SUR","WM11","3","3","6","8","stimuli/stars_6.png","324.5","[""SC"",""HE"",""DO"",""SUR""]","[""HM09"",""BF08"",""WF14"",""WM11""]","[4,3,8,6]","[2,4,6,8]","","",""
"show-reward","178","386402","0.0-178.0","p689713","AFK9ALQK5GPNG","3S1L4CQSFYBD9IN1W8PCJQ1H8N7AFE","3FFJ6VRIL3U45GP3VG35M1XLY4G0IM","model","match","uniform","","","","","","","","385811","387826","","","","","","","","","","","","6","","stimuli/stars_6.png","324.5","","","","","stimuli/WM11_SUR.jpg","",""
"explore-choice","179","388172","0.0-179.0","p689713","AFK9ALQK5GPNG","3S1L4CQSFYBD9IN1W8PCJQ1H8N7AFE","3FFJ6VRIL3U45GP3VG35M1XLY4G0IM","model","match","uniform","","","","","","","1264","387827","389091","[""stimuli/WF14_SC.jpg"",""stimuli/BF08_DO.jpg"",""stimuli/WM11_SUR.jpg"",""stimuli/HM09_HE.jpg""]","stimuli/WF14_SC.jpg","stimuli/BF08_DO.jpg","stimuli/WM11_SUR.jpg","stimuli/HM09_HE.jpg","pos3","stimuli/WM11_SUR.jpg","SUR","WM11","2","3","6","8","stimuli/stars_6.png","327.5","[""SC"",""DO"",""SUR"",""HE""]","[""WF14"",""BF08"",""WM11"",""HM09""]","[6,2,6,1]","[6,4,8,2]","","",""
"show-reward","180","390187","0.0-180.0","p689713","AFK9ALQK5GPNG","3S1L4CQSFYBD9IN1W8PCJQ1H8N7AFE","3FFJ6VRIL3U45GP3VG35M1XLY4G0IM","model","match","uniform","","","","","","","","389598","391612","","","","","","","","","","","","6","","stimuli/stars_6.png","327.5","","","","","stimuli/WM11_SUR.jpg","",""
"explore-choice","181","391517","0.0-181.0","p689713","AFK9ALQK5GPNG","3S1L4CQSFYBD9IN1W8PCJQ1H8N7AFE","3FFJ6VRIL3U45GP3VG35M1XLY4G0IM","model","match","uniform","","","","","","","826","391613","392439","[""stimuli/WF14_SUR.jpg"",""stimuli/WM11_HE.jpg"",""stimuli/HM09_DO.jpg"",""stimuli/BF08_SC.jpg""]","stimuli/WF14_SUR.jpg","stimuli/WM11_HE.jpg","stimuli/HM09_DO.jpg","stimuli/BF08_SC.jpg","pos2","stimuli/WM11_HE.jpg","HE","WM11","1","3","6","8","stimuli/stars_6.png","330.5","[""SUR"",""HE"",""DO"",""SC""]","[""WF14"",""WM11"",""HM09"",""BF08""]","[5,6,4,2]","[6,8,2,4]","","",""
"show-reward","182","393526","0.0-182.0","p689713","AFK9ALQK5GPNG","3S1L4CQSFYBD9IN1W8PCJQ1H8N7AFE","3FFJ6VRIL3U45GP3VG35M1XLY4G0IM","model","match","uniform","","","","","","","","392942","394950","","","","","","","","","","","","6","","stimuli/stars_6.png","330.5","","","","","stimuli/WM11_HE.jpg","",""
"explore-choice","183","394846","0.0-183.0","p689713","AFK9ALQK5GPNG","3S1L4CQSFYBD9IN1W8PCJQ1H8N7AFE","3FFJ6VRIL3U45GP3VG35M1XLY4G0IM","model","match","uniform","","","","","","","814","394952","395766","[""stimuli/HM09_SC.jpg"",""stimuli/BF08_HE.jpg"",""stimuli/WM11_DO.jpg"",""stimuli/WF14_SUR.jpg""]","stimuli/HM09_SC.jpg","stimuli/BF08_HE.jpg","stimuli/WM11_DO.jpg","stimuli/WF14_SUR.jpg","pos3","stimuli/WM11_DO.jpg","DO","WM11","2","4.5","9","8","stimuli/stars_9.png","335","[""SC"",""HE"",""DO"",""SUR""]","[""HM09"",""BF08"",""WM11"",""WF14""]","[3,5,9,5]","[2,4,8,6]","","",""
"show-reward","184","396854","0.0-184.0","p689713","AFK9ALQK5GPNG","3S1L4CQSFYBD9IN1W8PCJQ1H8N7AFE","3FFJ6VRIL3U45GP3VG35M1XLY4G0IM","model","match","uniform","","","","","","","","396271","398279","","","","","","","","","","","","9","","stimuli/stars_9.png","335","","","","","stimuli/WM11_DO.jpg","",""
"explore-choice","185","398299","0.0-185.0","p689713","AFK9ALQK5GPNG","3S1L4CQSFYBD9IN1W8PCJQ1H8N7AFE","3FFJ6VRIL3U45GP3VG35M1XLY4G0IM","model","match","uniform","","","","","","","934","398279","399213","[""stimuli/HM09_HE.jpg"",""stimuli/WF14_DO.jpg"",""stimuli/BF08_SUR.jpg"",""stimuli/WM11_SC.jpg""]","stimuli/HM09_HE.jpg","stimuli/WF14_DO.jpg","stimuli/BF08_SUR.jpg","stimuli/WM11_SC.jpg","pos4","stimuli/WM11_SC.jpg","SC","WM11","3","5","10","8","stimuli/stars_10.png","340","[""HE"",""DO"",""SUR"",""SC""]","[""HM09"",""WF14"",""BF08"",""WM11""]","[1,5,2,10]","[2,6,4,8]","","",""
"show-reward","186","400309","0.0-186.0","p689713","AFK9ALQK5GPNG","3S1L4CQSFYBD9IN1W8PCJQ1H8N7AFE","3FFJ6VRIL3U45GP3VG35M1XLY4G0IM","model","match","uniform","","","","","","","","399724","401733","","","","","","","","","","","","10","","stimuli/stars_10.png","340","","","","","stimuli/WM11_SC.jpg","",""
"explore-choice","187","401490","0.0-187.0","p689713","AFK9ALQK5GPNG","3S1L4CQSFYBD9IN1W8PCJQ1H8N7AFE","3FFJ6VRIL3U45GP3VG35M1XLY4G0IM","model","match","uniform","","","","","","","668","401735","402403","[""stimuli/HM09_HE.jpg"",""stimuli/WF14_SUR.jpg"",""stimuli/BF08_DO.jpg"",""stimuli/WM11_SC.jpg""]","stimuli/HM09_HE.jpg","stimuli/WF14_SUR.jpg","stimuli/BF08_DO.jpg","stimuli/WM11_SC.jpg","pos4","stimuli/WM11_SC.jpg","SC","WM11","3","4","8","8","stimuli/stars_8.png","344","[""HE"",""SUR"",""DO"",""SC""]","[""HM09"",""WF14"",""BF08"",""WM11""]","[3,7,3,8]","[2,6,4,8]","","",""
"show-reward","188","403494","0.0-188.0","p689713","AFK9ALQK5GPNG","3S1L4CQSFYBD9IN1W8PCJQ1H8N7AFE","3FFJ6VRIL3U45GP3VG35M1XLY4G0IM","model","match","uniform","","","","","","","","402914","404919","","","","","","","","","","","","8","","stimuli/stars_8.png","344","","","","","stimuli/WM11_SC.jpg","",""
"explore-choice","189","404816","0.0-189.0","p689713","AFK9ALQK5GPNG","3S1L4CQSFYBD9IN1W8PCJQ1H8N7AFE","3FFJ6VRIL3U45GP3VG35M1XLY4G0IM","model","match","uniform","","","","","","","817","404920","405737","[""stimuli/BF08_HE.jpg"",""stimuli/WM11_SUR.jpg"",""stimuli/HM09_DO.jpg"",""stimuli/WF14_SC.jpg""]","stimuli/BF08_HE.jpg","stimuli/WM11_SUR.jpg","stimuli/HM09_DO.jpg","stimuli/WF14_SC.jpg","pos2","stimuli/WM11_SUR.jpg","SUR","WM11","1","3","6","8","stimuli/stars_6.png","347","[""HE"",""SUR"",""DO"",""SC""]","[""BF08"",""WM11"",""HM09"",""WF14""]","[4,6,2,4]","[4,8,2,6]","","",""
"show-reward","190","406833","0.0-190.0","p689713","AFK9ALQK5GPNG","3S1L4CQSFYBD9IN1W8PCJQ1H8N7AFE","3FFJ6VRIL3U45GP3VG35M1XLY4G0IM","model","match","uniform","","","","","","","","406241","408258","","","","","","","","","","","","6","","stimuli/stars_6.png","347","","","","","stimuli/WM11_SUR.jpg","",""
"explore-choice","191","408073","0.0-191.0","p689713","AFK9ALQK5GPNG","3S1L4CQSFYBD9IN1W8PCJQ1H8N7AFE","3FFJ6VRIL3U45GP3VG35M1XLY4G0IM","model","match","uniform","","","","","","","730","408259","408989","[""stimuli/BF08_DO.jpg"",""stimuli/HM09_SUR.jpg"",""stimuli/WF14_HE.jpg"",""stimuli/WM11_SC.jpg""]","stimuli/BF08_DO.jpg","stimuli/HM09_SUR.jpg","stimuli/WF14_HE.jpg","stimuli/WM11_SC.jpg","pos4","stimuli/WM11_SC.jpg","SC","WM11","3","4.5","9","8","stimuli/stars_9.png","351.5","[""DO"",""SUR"",""HE"",""SC""]","[""BF08"",""HM09"",""WF14"",""WM11""]","[2,4,6,9]","[4,2,6,8]","","",""
"show-reward","192","410084","0.0-192.0","p689713","AFK9ALQK5GPNG","3S1L4CQSFYBD9IN1W8PCJQ1H8N7AFE","3FFJ6VRIL3U45GP3VG35M1XLY4G0IM","model","match","uniform","","","","","","","","409499","411508","","","","","","","","","","","","9","","stimuli/stars_9.png","351.5","","","","","stimuli/WM11_SC.jpg","",""
"explore-choice","193","411537","0.0-193.0","p689713","AFK9ALQK5GPNG","3S1L4CQSFYBD9IN1W8PCJQ1H8N7AFE","3FFJ6VRIL3U45GP3VG35M1XLY4G0IM","model","match","uniform","","","","","","","939","411509","412448","[""stimuli/WF14_DO.jpg"",""stimuli/HM09_HE.jpg"",""stimuli/WM11_SUR.jpg"",""stimuli/BF08_SC.jpg""]","stimuli/WF14_DO.jpg","stimuli/HM09_HE.jpg","stimuli/WM11_SUR.jpg","stimuli/BF08_SC.jpg","pos3","stimuli/WM11_SUR.jpg","SUR","WM11","2","4","8","8","stimuli/stars_8.png","355.5","[""DO"",""HE"",""SUR"",""SC""]","[""WF14"",""HM09"",""WM11"",""BF08""]","[6,0,8,3]","[6,2,8,4]","","",""
"show-reward","194","413551","0.0-194.0","p689713","AFK9ALQK5GPNG","3S1L4CQSFYBD9IN1W8PCJQ1H8N7AFE","3FFJ6VRIL3U45GP3VG35M1XLY4G0IM","model","match","uniform","","","","","","","","412963","414975","","","","","","","","","","","","8","","stimuli/stars_8.png","355.5","","","","","stimuli/WM11_SUR.jpg","",""
"explore-choice","195","414659","0.0-195.0","p689713","AFK9ALQK5GPNG","3S1L4CQSFYBD9IN1W8PCJQ1H8N7AFE","3FFJ6VRIL3U45GP3VG35M1XLY4G0IM","model","match","uniform","","","","","","","594","414976","415570","[""stimuli/HM09_SUR.jpg"",""stimuli/WF14_HE.jpg"",""stimuli/BF08_SC.jpg"",""stimuli/WM11_DO.jpg""]","stimuli/HM09_SUR.jpg","stimuli/WF14_HE.jpg","stimuli/BF08_SC.jpg","stimuli/WM11_DO.jpg","pos4","stimuli/WM11_DO.jpg","DO","WM11","3","3","6","8","stimuli/stars_6.png","358.5","[""SUR"",""HE"",""SC"",""DO""]","[""HM09"",""WF14"",""BF08"",""WM11""]","[0,4,6,6]","[2,6,4,8]","","",""
"show-reward","196","416670","0.0-196.0","p689713","AFK9ALQK5GPNG","3S1L4CQSFYBD9IN1W8PCJQ1H8N7AFE","3FFJ6VRIL3U45GP3VG35M1XLY4G0IM","model","match","uniform","","","","","","","","416084","418094","","","","","","","","","","","","6","","stimuli/stars_6.png","358.5","","","","","stimuli/WM11_DO.jpg","",""
"explore-choice","197","418067","0.0-197.0","p689713","AFK9ALQK5GPNG","3S1L4CQSFYBD9IN1W8PCJQ1H8N7AFE","3FFJ6VRIL3U45GP3VG35M1XLY4G0IM","model","match","uniform","","","","","","","892","418095","418987","[""stimuli/WF14_DO.jpg"",""stimuli/HM09_SUR.jpg"",""stimuli/WM11_HE.jpg"",""stimuli/BF08_SC.jpg""]","stimuli/WF14_DO.jpg","stimuli/HM09_SUR.jpg","stimuli/WM11_HE.jpg","stimuli/BF08_SC.jpg","pos1","stimuli/WF14_DO.jpg","DO","WF14","0","2.5","5","6","stimuli/stars_5.png","361","[""DO"",""SUR"",""HE"",""SC""]","[""WF14"",""HM09"",""WM11"",""BF08""]","[5,4,9,6]","[6,2,8,4]","","",""
"show-reward","198","420082","0.0-198.0","p689713","AFK9ALQK5GPNG","3S1L4CQSFYBD9IN1W8PCJQ1H8N7AFE","3FFJ6VRIL3U45GP3VG35M1XLY4G0IM","model","match","uniform","","","","","","","","419493","421506","","","","","","","","","","","","5","","stimuli/stars_5.png","361","","","","","stimuli/WF14_DO.jpg","",""
"instructions","199","423236","0.0-199.0","p689713","AFK9ALQK5GPNG","3S1L4CQSFYBD9IN1W8PCJQ1H8N7AFE","3FFJ6VRIL3U45GP3VG35M1XLY4G0IM","model","match","uniform","","","","","","[{""page_index"":0,""viewing_time"":3153}]","3154","","","","","","","","","","","","","","","","","","","","","","","",""
"survey-text","200","425630","0.0-200.0-0.0","p689713","AFK9ALQK5GPNG","3S1L4CQSFYBD9IN1W8PCJQ1H8N7AFE","3FFJ6VRIL3U45GP3VG35M1XLY4G0IM","model","match","uniform","","","","","","","2384","","","","","","","","","","","","","","","","","","","","","","","{""age"":""37""}",""
"survey-text","201","429002","0.0-200.0-1.0","p689713","AFK9ALQK5GPNG","3S1L4CQSFYBD9IN1W8PCJQ1H8N7AFE","3FFJ6VRIL3U45GP3VG35M1XLY4G0IM","model","match","uniform","","","","","","","3369","","","","","","","","","","","","","","","","","","","","","","","{""gender"":""Male""}",""
"survey-text","202","431097","0.0-200.0-2.0","p689713","AFK9ALQK5GPNG","3S1L4CQSFYBD9IN1W8PCJQ1H8N7AFE","3FFJ6VRIL3U45GP3VG35M1XLY4G0IM","model","match","uniform","","","","","","","2090","","","","","","","","","","","","","","","","","","","","","","","{""country"":""USA""}",""
"survey-text","203","433541","0.0-200.0-3.0","p689713","AFK9ALQK5GPNG","3S1L4CQSFYBD9IN1W8PCJQ1H8N7AFE","3FFJ6VRIL3U45GP3VG35M1XLY4G0IM","model","match","uniform","","","","","","","2440","","","","","","","","","","","","","","","","","","","","","","","{""language"":""English"",""other_languages"":""""}",""
"survey-multi-select","204","441860","0.0-201.0","p689713","AFK9ALQK5GPNG","3S1L4CQSFYBD9IN1W8PCJQ1H8N7AFE","3FFJ6VRIL3U45GP3VG35M1XLY4G0IM","model","match","uniform","","","","","","","8313","","","","","","","","","","","","","","","","","","","","","","","{""race"":[""White""]}","[0]"
"survey-multi-choice","205","443994","0.0-202.0","p689713","AFK9ALQK5GPNG","3S1L4CQSFYBD9IN1W8PCJQ1H8N7AFE","3FFJ6VRIL3U45GP3VG35M1XLY4G0IM","model","match","uniform","","","","","","","2131","","","","","","","","","","","","","","","","","","","","","","","{""education"":""Bachelor's degree""}","[0]"
"survey-text","206","509080","0.0-203.0","p689713","AFK9ALQK5GPNG","3S1L4CQSFYBD9IN1W8PCJQ1H8N7AFE","3FFJ6VRIL3U45GP3VG35M1XLY4G0IM","model","match","uniform","","","","","","","65082","","","","","","","","","","","","","","","","","","","","","","","{""patterns"":""Not really patterns specifically, more so just certain people who were paying more."",""strategy"":""I found the people who had the highest baseline low scores and stuck with them throughout, and I think this was effective but cannot be sure."",""comments"":""I found this enjoyable, thank you!""}",""
