"trial_type","trial_index","time_elapsed","internal_node_id","subject","workerId","hitId","assignmentId","structure_condition","match_condition","noise_type","success","timeout","failed_images","failed_audio","failed_video","view_history","rt","start_time","end_time","stimuli","image1","image2","image3","image4","choiceLocation","choiceImage","choiceEmotion","choiceModel","choice_index","reward_score","reward","reward_score_unadjusted","reward_image","score_after_trial","emotions","models","rewards","rewards_unadjusted","stimulus","response","question_order"
"pavlovia","0","11","0.0-0.0","p314822","A37GOI3N77WX21","3P888QFVX40Z2B7BK75OWKP045JQOK","3JJVG1YBED3TDFXYMCH0H9PZKM7B59","emotion","match","uniform","","","","","","","","","","","","","","","","","","","","","","","","","","","","","","",""
"preload","1","9756","0.0-1.0","p314822","A37GOI3N77WX21","3P888QFVX40Z2B7BK75OWKP045JQOK","3JJVG1YBED3TDFXYMCH0H9PZKM7B59","emotion","match","uniform","true","false","[]","[]","[]","","","","","","","","","","","","","","","","","","","","","","","","","",""
"fullscreen","2","33152","0.0-2.0","p314822","A37GOI3N77WX21","3P888QFVX40Z2B7BK75OWKP045JQOK","3JJVG1YBED3TDFXYMCH0H9PZKM7B59","emotion","match","uniform","true","","","","","","","","","","","","","","","","","","","","","","","","","","","","","",""
"instructions","3","37400","0.0-3.0","p314822","A37GOI3N77WX21","3P888QFVX40Z2B7BK75OWKP045JQOK","3JJVG1YBED3TDFXYMCH0H9PZKM7B59","emotion","match","uniform","","","","","","[{""page_index"":0,""viewing_time"":4244.800000000745}]","4245.60000000149","","","","","","","","","","","","","","","","","","","","","","","",""
"explore-choice","4","40323","0.0-4.0","p314822","A37GOI3N77WX21","3P888QFVX40Z2B7BK75OWKP045JQOK","3JJVG1YBED3TDFXYMCH0H9PZKM7B59","emotion","match","uniform","","","","","","","2406.699999999255","39065.300000000745","41472","[""stimuli/sheep.jpg"",""stimuli/hammer.jpg"",""stimuli/basketball.jpg"",""stimuli/horse.jpg""]","stimuli/sheep.jpg","stimuli/hammer.jpg","stimuli/basketball.jpg","stimuli/horse.jpg","pos4","stimuli/horse.jpg","","","3","64","64","64","stimuli/stars_8.png","65","","","","","","",""
"explore-choice","5","42714","0.0-5.0","p314822","A37GOI3N77WX21","3P888QFVX40Z2B7BK75OWKP045JQOK","3JJVG1YBED3TDFXYMCH0H9PZKM7B59","emotion","match","uniform","","","","","","","1876","41987.800000000745","43863.800000000745","[""stimuli/hammer.jpg"",""stimuli/basketball.jpg"",""stimuli/horse.jpg"",""stimuli/sheep.jpg""]","stimuli/hammer.jpg","stimuli/basketball.jpg","stimuli/horse.jpg","stimuli/sheep.jpg","pos1","stimuli/hammer.jpg","","","0","8","8","8","stimuli/stars_2.png","9","","","","","","",""
"instructions","6","88560","0.0-6.0","p314822","A37GOI3N77WX21","3P888QFVX40Z2B7BK75OWKP045JQOK","3JJVG1YBED3TDFXYMCH0H9PZKM7B59","emotion","match","uniform","","","","","","[{""page_index"":0,""viewing_time"":45844.699999999255}]","45845.10000000149","","","","","","","","","","","","","","","","","","","","","","","",""
"explore-choice","7","93720","0.0-7.0","p314822","A37GOI3N77WX21","3P888QFVX40Z2B7BK75OWKP045JQOK","3JJVG1YBED3TDFXYMCH0H9PZKM7B59","emotion","match","uniform","","","","","","","4654.900000002235","90225.30000000075","94880.20000000298","[""stimuli/WM13_HO.jpg"",""stimuli/BM03_HE.jpg"",""stimuli/AF10_FO.jpg"",""stimuli/HM09_SC.jpg""]","stimuli/WM13_HO.jpg","stimuli/BM03_HE.jpg","stimuli/AF10_FO.jpg","stimuli/HM09_SC.jpg","pos3","stimuli/AF10_FO.jpg","FO","AF10","2","2","4","6","stimuli/stars_4.png","3","[""HO"",""HE"",""FO"",""SC""]","[""WM13"",""BM03"",""AF10"",""HM09""]","[5,10,4,0]","[4,8,6,2]","","",""
"show-reward","8","95737","0.0-8.0","p314822","A37GOI3N77WX21","3P888QFVX40Z2B7BK75OWKP045JQOK","3JJVG1YBED3TDFXYMCH0H9PZKM7B59","emotion","match","uniform","","","","","","","","95386.20000000298","97400.90000000224","","","","","","","","","","","","4","","stimuli/stars_4.png","3","","","","","stimuli/AF10_FO.jpg","",""
"explore-choice","9","99003","0.0-9.0","p314822","A37GOI3N77WX21","3P888QFVX40Z2B7BK75OWKP045JQOK","3JJVG1YBED3TDFXYMCH0H9PZKM7B59","emotion","match","uniform","","","","","","","2749.300000000745","97402.80000000075","100152.10000000149","[""stimuli/HM09_FO.jpg"",""stimuli/AF10_HE.jpg"",""stimuli/WM13_SC.jpg"",""stimuli/BM03_HO.jpg""]","stimuli/HM09_FO.jpg","stimuli/AF10_HE.jpg","stimuli/WM13_SC.jpg","stimuli/BM03_HO.jpg","pos1","stimuli/HM09_FO.jpg","FO","HM09","0","4","8","6","stimuli/stars_8.png","7","[""FO"",""HE"",""SC"",""HO""]","[""HM09"",""AF10"",""WM13"",""BM03""]","[8,10,1,4]","[6,8,2,4]","","",""
"show-reward","10","101008","0.0-10.0","p314822","A37GOI3N77WX21","3P888QFVX40Z2B7BK75OWKP045JQOK","3JJVG1YBED3TDFXYMCH0H9PZKM7B59","emotion","match","uniform","","","","","","","","100668.70000000298","102672.40000000224","","","","","","","","","","","","8","","stimuli/stars_8.png","7","","","","","stimuli/HM09_FO.jpg","",""
"explore-choice","11","103896","0.0-11.0","p314822","A37GOI3N77WX21","3P888QFVX40Z2B7BK75OWKP045JQOK","3JJVG1YBED3TDFXYMCH0H9PZKM7B59","emotion","match","uniform","","","","","","","2374.89999999851","102673.20000000298","105048.10000000149","[""stimuli/HM09_HO.jpg"",""stimuli/BM03_HE.jpg"",""stimuli/AF10_SC.jpg"",""stimuli/WM13_FO.jpg""]","stimuli/HM09_HO.jpg","stimuli/BM03_HE.jpg","stimuli/AF10_SC.jpg","stimuli/WM13_FO.jpg","pos3","stimuli/AF10_SC.jpg","SC","AF10","2","1","2","2","stimuli/stars_2.png","8","[""HO"",""HE"",""SC"",""FO""]","[""HM09"",""BM03"",""AF10"",""WM13""]","[5,8,2,6]","[4,8,2,6]","","",""
"show-reward","12","105905","0.0-12.0","p314822","A37GOI3N77WX21","3P888QFVX40Z2B7BK75OWKP045JQOK","3JJVG1YBED3TDFXYMCH0H9PZKM7B59","emotion","match","uniform","","","","","","","","105560.80000000075","107568.40000000224","","","","","","","","","","","","2","","stimuli/stars_2.png","8","","","","","stimuli/AF10_SC.jpg","",""
"explore-choice","13","107368","0.0-13.0","p314822","A37GOI3N77WX21","3P888QFVX40Z2B7BK75OWKP045JQOK","3JJVG1YBED3TDFXYMCH0H9PZKM7B59","emotion","match","uniform","","","","","","","950.6999999992549","107569.90000000224","108520.60000000149","[""stimuli/HM09_HE.jpg"",""stimuli/WM13_SC.jpg"",""stimuli/BM03_FO.jpg"",""stimuli/AF10_HO.jpg""]","stimuli/HM09_HE.jpg","stimuli/WM13_SC.jpg","stimuli/BM03_FO.jpg","stimuli/AF10_HO.jpg","pos1","stimuli/HM09_HE.jpg","HE","HM09","0","3.5","7","8","stimuli/stars_7.png","11.5","[""HE"",""SC"",""FO"",""HO""]","[""HM09"",""WM13"",""BM03"",""AF10""]","[7,3,5,2]","[8,2,6,4]","","",""
"show-reward","14","109372","0.0-14.0","p314822","A37GOI3N77WX21","3P888QFVX40Z2B7BK75OWKP045JQOK","3JJVG1YBED3TDFXYMCH0H9PZKM7B59","emotion","match","uniform","","","","","","","","109033.30000000075","111036.20000000298","","","","","","","","","","","","7","","stimuli/stars_7.png","11.5","","","","","stimuli/HM09_HE.jpg","",""
"explore-choice","15","111261","0.0-15.0","p314822","A37GOI3N77WX21","3P888QFVX40Z2B7BK75OWKP045JQOK","3JJVG1YBED3TDFXYMCH0H9PZKM7B59","emotion","match","uniform","","","","","","","1379","111037.10000000149","112416.10000000149","[""stimuli/WM13_FO.jpg"",""stimuli/AF10_SC.jpg"",""stimuli/HM09_HE.jpg"",""stimuli/BM03_HO.jpg""]","stimuli/WM13_FO.jpg","stimuli/AF10_SC.jpg","stimuli/HM09_HE.jpg","stimuli/BM03_HO.jpg","pos2","stimuli/AF10_SC.jpg","SC","AF10","1","1.5","3","2","stimuli/stars_3.png","13","[""FO"",""SC"",""HE"",""HO""]","[""WM13"",""AF10"",""HM09"",""BM03""]","[5,3,6,2]","[6,2,8,4]","","",""
"show-reward","16","113266","0.0-16.0","p314822","A37GOI3N77WX21","3P888QFVX40Z2B7BK75OWKP045JQOK","3JJVG1YBED3TDFXYMCH0H9PZKM7B59","emotion","match","uniform","","","","","","","","112926.20000000298","114929.90000000224","","","","","","","","","","","","3","","stimuli/stars_3.png","13","","","","","stimuli/AF10_SC.jpg","",""
"explore-choice","17","114889","0.0-17.0","p314822","A37GOI3N77WX21","3P888QFVX40Z2B7BK75OWKP045JQOK","3JJVG1YBED3TDFXYMCH0H9PZKM7B59","emotion","match","uniform","","","","","","","1116.7999999970198","114931.20000000298","116048","[""stimuli/HM09_SC.jpg"",""stimuli/BM03_FO.jpg"",""stimuli/AF10_HE.jpg"",""stimuli/WM13_HO.jpg""]","stimuli/HM09_SC.jpg","stimuli/BM03_FO.jpg","stimuli/AF10_HE.jpg","stimuli/WM13_HO.jpg","pos1","stimuli/HM09_SC.jpg","SC","HM09","0","2","4","2","stimuli/stars_4.png","15","[""SC"",""FO"",""HE"",""HO""]","[""HM09"",""BM03"",""AF10"",""WM13""]","[4,7,9,6]","[2,6,8,4]","","",""
"show-reward","18","116895","0.0-18.0","p314822","A37GOI3N77WX21","3P888QFVX40Z2B7BK75OWKP045JQOK","3JJVG1YBED3TDFXYMCH0H9PZKM7B59","emotion","match","uniform","","","","","","","","116553.80000000075","118558.60000000149","","","","","","","","","","","","4","","stimuli/stars_4.png","15","","","","","stimuli/HM09_SC.jpg","",""
"explore-choice","19","118391","0.0-19.0","p314822","A37GOI3N77WX21","3P888QFVX40Z2B7BK75OWKP045JQOK","3JJVG1YBED3TDFXYMCH0H9PZKM7B59","emotion","match","uniform","","","","","","","984.3999999985099","118559.90000000224","119544.30000000075","[""stimuli/HM09_FO.jpg"",""stimuli/AF10_HO.jpg"",""stimuli/BM03_HE.jpg"",""stimuli/WM13_SC.jpg""]","stimuli/HM09_FO.jpg","stimuli/AF10_HO.jpg","stimuli/BM03_HE.jpg","stimuli/WM13_SC.jpg","pos3","stimuli/BM03_HE.jpg","HE","BM03","2","3.5","7","8","stimuli/stars_7.png","18.5","[""FO"",""HO"",""HE"",""SC""]","[""HM09"",""AF10"",""BM03"",""WM13""]","[7,5,7,0]","[6,4,8,2]","","",""
"show-reward","20","120408","0.0-20.0","p314822","A37GOI3N77WX21","3P888QFVX40Z2B7BK75OWKP045JQOK","3JJVG1YBED3TDFXYMCH0H9PZKM7B59","emotion","match","uniform","","","","","","","","120055.90000000224","122071.80000000075","","","","","","","","","","","","7","","stimuli/stars_7.png","18.5","","","","","stimuli/BM03_HE.jpg","",""
"explore-choice","21","121915","0.0-21.0","p314822","A37GOI3N77WX21","3P888QFVX40Z2B7BK75OWKP045JQOK","3JJVG1YBED3TDFXYMCH0H9PZKM7B59","emotion","match","uniform","","","","","","","999.0999999977648","122073.20000000298","123072.30000000075","[""stimuli/AF10_SC.jpg"",""stimuli/WM13_HE.jpg"",""stimuli/BM03_FO.jpg"",""stimuli/HM09_HO.jpg""]","stimuli/AF10_SC.jpg","stimuli/WM13_HE.jpg","stimuli/BM03_FO.jpg","stimuli/HM09_HO.jpg","pos3","stimuli/BM03_FO.jpg","FO","BM03","2","3.5","7","6","stimuli/stars_7.png","22","[""SC"",""HE"",""FO"",""HO""]","[""AF10"",""WM13"",""BM03"",""HM09""]","[4,7,7,5]","[2,8,6,4]","","",""
"show-reward","22","123923","0.0-22.0","p314822","A37GOI3N77WX21","3P888QFVX40Z2B7BK75OWKP045JQOK","3JJVG1YBED3TDFXYMCH0H9PZKM7B59","emotion","match","uniform","","","","","","","","123579.80000000075","125587.30000000075","","","","","","","","","","","","7","","stimuli/stars_7.png","22","","","","","stimuli/BM03_FO.jpg","",""
"explore-choice","23","125686","0.0-23.0","p314822","A37GOI3N77WX21","3P888QFVX40Z2B7BK75OWKP045JQOK","3JJVG1YBED3TDFXYMCH0H9PZKM7B59","emotion","match","uniform","","","","","","","1260.2999999970198","125588.20000000298","126848.5","[""stimuli/WM13_HO.jpg"",""stimuli/HM09_FO.jpg"",""stimuli/AF10_HE.jpg"",""stimuli/BM03_SC.jpg""]","stimuli/WM13_HO.jpg","stimuli/HM09_FO.jpg","stimuli/AF10_HE.jpg","stimuli/BM03_SC.jpg","pos4","stimuli/BM03_SC.jpg","SC","BM03","3","2","4","2","stimuli/stars_4.png","24","[""HO"",""FO"",""HE"",""SC""]","[""WM13"",""HM09"",""AF10"",""BM03""]","[6,7,7,4]","[4,6,8,2]","","",""
"show-reward","24","127692","0.0-24.0","p314822","A37GOI3N77WX21","3P888QFVX40Z2B7BK75OWKP045JQOK","3JJVG1YBED3TDFXYMCH0H9PZKM7B59","emotion","match","uniform","","","","","","","","127351.60000000149","129355.5","","","","","","","","","","","","4","","stimuli/stars_4.png","24","","","","","stimuli/BM03_SC.jpg","",""
"explore-choice","25","129077","0.0-25.0","p314822","A37GOI3N77WX21","3P888QFVX40Z2B7BK75OWKP045JQOK","3JJVG1YBED3TDFXYMCH0H9PZKM7B59","emotion","match","uniform","","","","","","","883.8000000007451","129356.5","130240.30000000075","[""stimuli/WM13_HO.jpg"",""stimuli/HM09_FO.jpg"",""stimuli/AF10_SC.jpg"",""stimuli/BM03_HE.jpg""]","stimuli/WM13_HO.jpg","stimuli/HM09_FO.jpg","stimuli/AF10_SC.jpg","stimuli/BM03_HE.jpg","pos2","stimuli/HM09_FO.jpg","FO","HM09","1","3","6","6","stimuli/stars_6.png","27","[""HO"",""FO"",""SC"",""HE""]","[""WM13"",""HM09"",""AF10"",""BM03""]","[6,6,2,9]","[4,6,2,8]","","",""
"show-reward","26","131083","0.0-26.0","p314822","A37GOI3N77WX21","3P888QFVX40Z2B7BK75OWKP045JQOK","3JJVG1YBED3TDFXYMCH0H9PZKM7B59","emotion","match","uniform","","","","","","","","130742.20000000298","132746.6000000015","","","","","","","","","","","","6","","stimuli/stars_6.png","27","","","","","stimuli/HM09_FO.jpg","",""
"explore-choice","27","132543","0.0-27.0","p314822","A37GOI3N77WX21","3P888QFVX40Z2B7BK75OWKP045JQOK","3JJVG1YBED3TDFXYMCH0H9PZKM7B59","emotion","match","uniform","","","","","","","955.8999999985099","132748.70000000298","133704.6000000015","[""stimuli/BM03_HO.jpg"",""stimuli/HM09_FO.jpg"",""stimuli/WM13_HE.jpg"",""stimuli/AF10_SC.jpg""]","stimuli/BM03_HO.jpg","stimuli/HM09_FO.jpg","stimuli/WM13_HE.jpg","stimuli/AF10_SC.jpg","pos1","stimuli/BM03_HO.jpg","HO","BM03","0","1","2","4","stimuli/stars_2.png","28","[""HO"",""FO"",""HE"",""SC""]","[""BM03"",""HM09"",""WM13"",""AF10""]","[2,5,9,2]","[4,6,8,2]","","",""
"show-reward","28","134555","0.0-28.0","p314822","A37GOI3N77WX21","3P888QFVX40Z2B7BK75OWKP045JQOK","3JJVG1YBED3TDFXYMCH0H9PZKM7B59","emotion","match","uniform","","","","","","","","134207.70000000298","136218.70000000298","","","","","","","","","","","","2","","stimuli/stars_2.png","28","","","","","stimuli/BM03_HO.jpg","",""
"explore-choice","29","135918","0.0-29.0","p314822","A37GOI3N77WX21","3P888QFVX40Z2B7BK75OWKP045JQOK","3JJVG1YBED3TDFXYMCH0H9PZKM7B59","emotion","match","uniform","","","","","","","861.7000000029802","136219.5","137081.20000000298","[""stimuli/WM13_FO.jpg"",""stimuli/HM09_SC.jpg"",""stimuli/AF10_HO.jpg"",""stimuli/BM03_HE.jpg""]","stimuli/WM13_FO.jpg","stimuli/HM09_SC.jpg","stimuli/AF10_HO.jpg","stimuli/BM03_HE.jpg","pos3","stimuli/AF10_HO.jpg","HO","AF10","2","2","4","4","stimuli/stars_4.png","30","[""FO"",""SC"",""HO"",""HE""]","[""WM13"",""HM09"",""AF10"",""BM03""]","[8,0,4,7]","[6,2,4,8]","","",""
"show-reward","30","137926","0.0-30.0","p314822","A37GOI3N77WX21","3P888QFVX40Z2B7BK75OWKP045JQOK","3JJVG1YBED3TDFXYMCH0H9PZKM7B59","emotion","match","uniform","","","","","","","","137582.5","139589.20000000298","","","","","","","","","","","","4","","stimuli/stars_4.png","30","","","","","stimuli/AF10_HO.jpg","",""
"explore-choice","31","139894","0.0-31.0","p314822","A37GOI3N77WX21","3P888QFVX40Z2B7BK75OWKP045JQOK","3JJVG1YBED3TDFXYMCH0H9PZKM7B59","emotion","match","uniform","","","","","","","1458.2000000029802","139590.5","141048.70000000298","[""stimuli/BM03_HE.jpg"",""stimuli/HM09_HO.jpg"",""stimuli/AF10_FO.jpg"",""stimuli/WM13_SC.jpg""]","stimuli/BM03_HE.jpg","stimuli/HM09_HO.jpg","stimuli/AF10_FO.jpg","stimuli/WM13_SC.jpg","pos4","stimuli/WM13_SC.jpg","SC","WM13","3","0.5","1","2","stimuli/stars_1.png","30.5","[""HE"",""HO"",""FO"",""SC""]","[""BM03"",""HM09"",""AF10"",""WM13""]","[6,6,6,1]","[8,4,6,2]","","",""
"show-reward","32","141903","0.0-32.0","p314822","A37GOI3N77WX21","3P888QFVX40Z2B7BK75OWKP045JQOK","3JJVG1YBED3TDFXYMCH0H9PZKM7B59","emotion","match","uniform","","","","","","","","141558.6000000015","143567.30000000075","","","","","","","","","","","","1","","stimuli/stars_1.png","30.5","","","","","stimuli/WM13_SC.jpg","",""
"explore-choice","33","143402","0.0-33.0","p314822","A37GOI3N77WX21","3P888QFVX40Z2B7BK75OWKP045JQOK","3JJVG1YBED3TDFXYMCH0H9PZKM7B59","emotion","match","uniform","","","","","","","984.3999999985099","143568.1000000015","144552.5","[""stimuli/WM13_HE.jpg"",""stimuli/AF10_FO.jpg"",""stimuli/BM03_SC.jpg"",""stimuli/HM09_HO.jpg""]","stimuli/WM13_HE.jpg","stimuli/AF10_FO.jpg","stimuli/BM03_SC.jpg","stimuli/HM09_HO.jpg","pos2","stimuli/AF10_FO.jpg","FO","AF10","1","3.5","7","6","stimuli/stars_7.png","34","[""HE"",""FO"",""SC"",""HO""]","[""WM13"",""AF10"",""BM03"",""HM09""]","[9,7,4,3]","[8,6,2,4]","","",""
"show-reward","34","145404","0.0-34.0","p314822","A37GOI3N77WX21","3P888QFVX40Z2B7BK75OWKP045JQOK","3JJVG1YBED3TDFXYMCH0H9PZKM7B59","emotion","match","uniform","","","","","","","","145066.40000000224","147068.1000000015","","","","","","","","","","","","7","","stimuli/stars_7.png","34","","","","","stimuli/AF10_FO.jpg","",""
"explore-choice","35","146798","0.0-35.0","p314822","A37GOI3N77WX21","3P888QFVX40Z2B7BK75OWKP045JQOK","3JJVG1YBED3TDFXYMCH0H9PZKM7B59","emotion","match","uniform","","","","","","","883.6999999992549","147068.80000000075","147952.5","[""stimuli/AF10_FO.jpg"",""stimuli/BM03_SC.jpg"",""stimuli/WM13_HO.jpg"",""stimuli/HM09_HE.jpg""]","stimuli/AF10_FO.jpg","stimuli/BM03_SC.jpg","stimuli/WM13_HO.jpg","stimuli/HM09_HE.jpg","pos1","stimuli/AF10_FO.jpg","FO","AF10","0","3","6","6","stimuli/stars_6.png","37","[""FO"",""SC"",""HO"",""HE""]","[""AF10"",""BM03"",""WM13"",""HM09""]","[6,4,6,8]","[6,2,4,8]","","",""
"show-reward","36","148809","0.0-36.0","p314822","A37GOI3N77WX21","3P888QFVX40Z2B7BK75OWKP045JQOK","3JJVG1YBED3TDFXYMCH0H9PZKM7B59","emotion","match","uniform","","","","","","","","148462.6000000015","150472.80000000075","","","","","","","","","","","","6","","stimuli/stars_6.png","37","","","","","stimuli/AF10_FO.jpg","",""
"explore-choice","37","150725","0.0-37.0","p314822","A37GOI3N77WX21","3P888QFVX40Z2B7BK75OWKP045JQOK","3JJVG1YBED3TDFXYMCH0H9PZKM7B59","emotion","match","uniform","","","","","","","1415.199999999255","150473.70000000298","151888.90000000224","[""stimuli/AF10_HE.jpg"",""stimuli/WM13_SC.jpg"",""stimuli/BM03_FO.jpg"",""stimuli/HM09_HO.jpg""]","stimuli/AF10_HE.jpg","stimuli/WM13_SC.jpg","stimuli/BM03_FO.jpg","stimuli/HM09_HO.jpg","pos3","stimuli/BM03_FO.jpg","FO","BM03","2","2","4","6","stimuli/stars_4.png","39","[""HE"",""SC"",""FO"",""HO""]","[""AF10"",""WM13"",""BM03"",""HM09""]","[10,0,4,3]","[8,2,6,4]","","",""
"show-reward","38","152730","0.0-38.0","p314822","A37GOI3N77WX21","3P888QFVX40Z2B7BK75OWKP045JQOK","3JJVG1YBED3TDFXYMCH0H9PZKM7B59","emotion","match","uniform","","","","","","","","152389.90000000224","154393.80000000075","","","","","","","","","","","","4","","stimuli/stars_4.png","39","","","","","stimuli/BM03_FO.jpg","",""
"explore-choice","39","155291","0.0-39.0","p314822","A37GOI3N77WX21","3P888QFVX40Z2B7BK75OWKP045JQOK","3JJVG1YBED3TDFXYMCH0H9PZKM7B59","emotion","match","uniform","","","","","","","2059.39999999851","154394.40000000224","156453.80000000075","[""stimuli/AF10_HO.jpg"",""stimuli/HM09_FO.jpg"",""stimuli/WM13_HE.jpg"",""stimuli/BM03_SC.jpg""]","stimuli/AF10_HO.jpg","stimuli/HM09_FO.jpg","stimuli/WM13_HE.jpg","stimuli/BM03_SC.jpg","pos4","stimuli/BM03_SC.jpg","SC","BM03","3","2","4","2","stimuli/stars_4.png","41","[""HO"",""FO"",""HE"",""SC""]","[""AF10"",""HM09"",""WM13"",""BM03""]","[5,8,10,4]","[4,6,8,2]","","",""
"show-reward","40","157296","0.0-40.0","p314822","A37GOI3N77WX21","3P888QFVX40Z2B7BK75OWKP045JQOK","3JJVG1YBED3TDFXYMCH0H9PZKM7B59","emotion","match","uniform","","","","","","","","156957.20000000298","158960.1000000015","","","","","","","","","","","","4","","stimuli/stars_4.png","41","","","","","stimuli/BM03_SC.jpg","",""
"explore-choice","41","158501","0.0-41.0","p314822","A37GOI3N77WX21","3P888QFVX40Z2B7BK75OWKP045JQOK","3JJVG1YBED3TDFXYMCH0H9PZKM7B59","emotion","match","uniform","","","","","","","703.4000000022352","158961","159664.40000000224","[""stimuli/BM03_FO.jpg"",""stimuli/WM13_HE.jpg"",""stimuli/AF10_HO.jpg"",""stimuli/HM09_SC.jpg""]","stimuli/BM03_FO.jpg","stimuli/WM13_HE.jpg","stimuli/AF10_HO.jpg","stimuli/HM09_SC.jpg","pos1","stimuli/BM03_FO.jpg","FO","BM03","0","3","6","6","stimuli/stars_6.png","44","[""FO"",""HE"",""HO"",""SC""]","[""BM03"",""WM13"",""AF10"",""HM09""]","[6,9,6,2]","[6,8,4,2]","","",""
"show-reward","42","160511","0.0-42.0","p314822","A37GOI3N77WX21","3P888QFVX40Z2B7BK75OWKP045JQOK","3JJVG1YBED3TDFXYMCH0H9PZKM7B59","emotion","match","uniform","","","","","","","","160166.20000000298","162174.90000000224","","","","","","","","","","","","6","","stimuli/stars_6.png","44","","","","","stimuli/BM03_FO.jpg","",""
"explore-choice","43","161772","0.0-43.0","p314822","A37GOI3N77WX21","3P888QFVX40Z2B7BK75OWKP045JQOK","3JJVG1YBED3TDFXYMCH0H9PZKM7B59","emotion","match","uniform","","","","","","","745.0999999977648","162175.70000000298","162920.80000000075","[""stimuli/WM13_HE.jpg"",""stimuli/AF10_FO.jpg"",""stimuli/BM03_HO.jpg"",""stimuli/HM09_SC.jpg""]","stimuli/WM13_HE.jpg","stimuli/AF10_FO.jpg","stimuli/BM03_HO.jpg","stimuli/HM09_SC.jpg","pos3","stimuli/BM03_HO.jpg","HO","BM03","2","1","2","4","stimuli/stars_2.png","45","[""HE"",""FO"",""HO"",""SC""]","[""WM13"",""AF10"",""BM03"",""HM09""]","[7,5,2,2]","[8,6,4,2]","","",""
"show-reward","44","163788","0.0-44.0","p314822","A37GOI3N77WX21","3P888QFVX40Z2B7BK75OWKP045JQOK","3JJVG1YBED3TDFXYMCH0H9PZKM7B59","emotion","match","uniform","","","","","","","","163436.70000000298","165451.90000000224","","","","","","","","","","","","2","","stimuli/stars_2.png","45","","","","","stimuli/BM03_HO.jpg","",""
"explore-choice","45","165534","0.0-45.0","p314822","A37GOI3N77WX21","3P888QFVX40Z2B7BK75OWKP045JQOK","3JJVG1YBED3TDFXYMCH0H9PZKM7B59","emotion","match","uniform","","","","","","","1244","165452.80000000075","166696.80000000075","[""stimuli/WM13_HO.jpg"",""stimuli/BM03_FO.jpg"",""stimuli/AF10_SC.jpg"",""stimuli/HM09_HE.jpg""]","stimuli/WM13_HO.jpg","stimuli/BM03_FO.jpg","stimuli/AF10_SC.jpg","stimuli/HM09_HE.jpg","pos2","stimuli/BM03_FO.jpg","FO","BM03","1","2","4","6","stimuli/stars_4.png","47","[""HO"",""FO"",""SC"",""HE""]","[""WM13"",""BM03"",""AF10"",""HM09""]","[4,4,2,10]","[4,6,2,8]","","",""
"show-reward","46","167544","0.0-46.0","p314822","A37GOI3N77WX21","3P888QFVX40Z2B7BK75OWKP045JQOK","3JJVG1YBED3TDFXYMCH0H9PZKM7B59","emotion","match","uniform","","","","","","","","167198.6000000015","169207.90000000224","","","","","","","","","","","","4","","stimuli/stars_4.png","47","","","","","stimuli/BM03_FO.jpg","",""
"explore-choice","47","169788","0.0-47.0","p314822","A37GOI3N77WX21","3P888QFVX40Z2B7BK75OWKP045JQOK","3JJVG1YBED3TDFXYMCH0H9PZKM7B59","emotion","match","uniform","","","","","","","1736","169209.20000000298","170945.20000000298","[""stimuli/AF10_HE.jpg"",""stimuli/BM03_SC.jpg"",""stimuli/HM09_HO.jpg"",""stimuli/WM13_FO.jpg""]","stimuli/AF10_HE.jpg","stimuli/BM03_SC.jpg","stimuli/HM09_HO.jpg","stimuli/WM13_FO.jpg","pos3","stimuli/HM09_HO.jpg","HO","HM09","2","2.5","5","4","stimuli/stars_5.png","49.5","[""HE"",""SC"",""HO"",""FO""]","[""AF10"",""BM03"",""HM09"",""WM13""]","[9,3,5,4]","[8,2,4,6]","","",""
"show-reward","48","171795","0.0-48.0","p314822","A37GOI3N77WX21","3P888QFVX40Z2B7BK75OWKP045JQOK","3JJVG1YBED3TDFXYMCH0H9PZKM7B59","emotion","match","uniform","","","","","","","","171453.1000000015","173458.90000000224","","","","","","","","","","","","5","","stimuli/stars_5.png","49.5","","","","","stimuli/HM09_HO.jpg","",""
"explore-choice","49","174088","0.0-49.0","p314822","A37GOI3N77WX21","3P888QFVX40Z2B7BK75OWKP045JQOK","3JJVG1YBED3TDFXYMCH0H9PZKM7B59","emotion","match","uniform","","","","","","","1789.6000000014901","173459.5","175249.1000000015","[""stimuli/WM13_FO.jpg"",""stimuli/HM09_HE.jpg"",""stimuli/AF10_HO.jpg"",""stimuli/BM03_SC.jpg""]","stimuli/WM13_FO.jpg","stimuli/HM09_HE.jpg","stimuli/AF10_HO.jpg","stimuli/BM03_SC.jpg","pos2","stimuli/HM09_HE.jpg","HE","HM09","1","5","10","8","stimuli/stars_10.png","54.5","[""FO"",""HE"",""HO"",""SC""]","[""WM13"",""HM09"",""AF10"",""BM03""]","[4,10,3,1]","[6,8,4,2]","","",""
"show-reward","50","176104","0.0-50.0","p314822","A37GOI3N77WX21","3P888QFVX40Z2B7BK75OWKP045JQOK","3JJVG1YBED3TDFXYMCH0H9PZKM7B59","emotion","match","uniform","","","","","","","","175752.90000000224","177767.70000000298","","","","","","","","","","","","10","","stimuli/stars_10.png","54.5","","","","","stimuli/HM09_HE.jpg","",""
"explore-choice","51","177893","0.0-51.0","p314822","A37GOI3N77WX21","3P888QFVX40Z2B7BK75OWKP045JQOK","3JJVG1YBED3TDFXYMCH0H9PZKM7B59","emotion","match","uniform","","","","","","","1272.800000000745","177768.40000000224","179041.20000000298","[""stimuli/AF10_HE.jpg"",""stimuli/WM13_FO.jpg"",""stimuli/HM09_SC.jpg"",""stimuli/BM03_HO.jpg""]","stimuli/AF10_HE.jpg","stimuli/WM13_FO.jpg","stimuli/HM09_SC.jpg","stimuli/BM03_HO.jpg","pos3","stimuli/HM09_SC.jpg","SC","HM09","2","0","0","2","stimuli/stars_0.png","54.5","[""HE"",""FO"",""SC"",""HO""]","[""AF10"",""WM13"",""HM09"",""BM03""]","[9,4,0,6]","[8,6,2,4]","","",""
"show-reward","52","179909","0.0-52.0","p314822","A37GOI3N77WX21","3P888QFVX40Z2B7BK75OWKP045JQOK","3JJVG1YBED3TDFXYMCH0H9PZKM7B59","emotion","match","uniform","","","","","","","","179558.90000000224","181573.20000000298","","","","","","","","","","","","0","","stimuli/stars_0.png","54.5","","","","","stimuli/HM09_SC.jpg","",""
"explore-choice","53","181902","0.0-53.0","p314822","A37GOI3N77WX21","3P888QFVX40Z2B7BK75OWKP045JQOK","3JJVG1YBED3TDFXYMCH0H9PZKM7B59","emotion","match","uniform","","","","","","","1475.8999999985099","181574.20000000298","183050.1000000015","[""stimuli/BM03_HO.jpg"",""stimuli/HM09_HE.jpg"",""stimuli/AF10_FO.jpg"",""stimuli/WM13_SC.jpg""]","stimuli/BM03_HO.jpg","stimuli/HM09_HE.jpg","stimuli/AF10_FO.jpg","stimuli/WM13_SC.jpg","pos2","stimuli/HM09_HE.jpg","HE","HM09","1","3","6","8","stimuli/stars_6.png","57.5","[""HO"",""HE"",""FO"",""SC""]","[""BM03"",""HM09"",""AF10"",""WM13""]","[5,6,7,1]","[4,8,6,2]","","",""
"show-reward","54","183912","0.0-54.0","p314822","A37GOI3N77WX21","3P888QFVX40Z2B7BK75OWKP045JQOK","3JJVG1YBED3TDFXYMCH0H9PZKM7B59","emotion","match","uniform","","","","","","","","183567.1000000015","185576.20000000298","","","","","","","","","","","","6","","stimuli/stars_6.png","57.5","","","","","stimuli/HM09_HE.jpg","",""
"explore-choice","55","185535","0.0-55.0","p314822","A37GOI3N77WX21","3P888QFVX40Z2B7BK75OWKP045JQOK","3JJVG1YBED3TDFXYMCH0H9PZKM7B59","emotion","match","uniform","","","","","","","1111.9000000022352","185577","186688.90000000224","[""stimuli/HM09_FO.jpg"",""stimuli/AF10_HE.jpg"",""stimuli/WM13_HO.jpg"",""stimuli/BM03_SC.jpg""]","stimuli/HM09_FO.jpg","stimuli/AF10_HE.jpg","stimuli/WM13_HO.jpg","stimuli/BM03_SC.jpg","pos1","stimuli/HM09_FO.jpg","FO","HM09","0","3.5","7","6","stimuli/stars_7.png","61","[""FO"",""HE"",""HO"",""SC""]","[""HM09"",""AF10"",""WM13"",""BM03""]","[7,7,6,4]","[6,8,4,2]","","",""
"show-reward","56","187546","0.0-56.0","p314822","A37GOI3N77WX21","3P888QFVX40Z2B7BK75OWKP045JQOK","3JJVG1YBED3TDFXYMCH0H9PZKM7B59","emotion","match","uniform","","","","","","","","187200","189210","","","","","","","","","","","","7","","stimuli/stars_7.png","61","","","","","stimuli/HM09_FO.jpg","",""
"explore-choice","57","189501","0.0-57.0","p314822","A37GOI3N77WX21","3P888QFVX40Z2B7BK75OWKP045JQOK","3JJVG1YBED3TDFXYMCH0H9PZKM7B59","emotion","match","uniform","","","","","","","1437.8999999985099","189210.90000000224","190648.80000000075","[""stimuli/BM03_HO.jpg"",""stimuli/AF10_SC.jpg"",""stimuli/WM13_FO.jpg"",""stimuli/HM09_HE.jpg""]","stimuli/BM03_HO.jpg","stimuli/AF10_SC.jpg","stimuli/WM13_FO.jpg","stimuli/HM09_HE.jpg","pos4","stimuli/HM09_HE.jpg","HE","HM09","3","3","6","8","stimuli/stars_6.png","64","[""HO"",""SC"",""FO"",""HE""]","[""BM03"",""AF10"",""WM13"",""HM09""]","[2,3,5,6]","[4,2,6,8]","","",""
"show-reward","58","191505","0.0-58.0","p314822","A37GOI3N77WX21","3P888QFVX40Z2B7BK75OWKP045JQOK","3JJVG1YBED3TDFXYMCH0H9PZKM7B59","emotion","match","uniform","","","","","","","","191165.5","193168.6000000015","","","","","","","","","","","","6","","stimuli/stars_6.png","64","","","","","stimuli/HM09_HE.jpg","",""
"explore-choice","59","194025","0.0-59.0","p314822","A37GOI3N77WX21","3P888QFVX40Z2B7BK75OWKP045JQOK","3JJVG1YBED3TDFXYMCH0H9PZKM7B59","emotion","match","uniform","","","","","","","2015.300000000745","193169.90000000224","195185.20000000298","[""stimuli/WM13_SC.jpg"",""stimuli/BM03_HO.jpg"",""stimuli/AF10_FO.jpg"",""stimuli/HM09_HE.jpg""]","stimuli/WM13_SC.jpg","stimuli/BM03_HO.jpg","stimuli/AF10_FO.jpg","stimuli/HM09_HE.jpg","pos3","stimuli/AF10_FO.jpg","FO","AF10","2","3.5","7","6","stimuli/stars_7.png","67.5","[""SC"",""HO"",""FO"",""HE""]","[""WM13"",""BM03"",""AF10"",""HM09""]","[1,5,7,6]","[2,4,6,8]","","",""
"show-reward","60","196031","0.0-60.0","p314822","A37GOI3N77WX21","3P888QFVX40Z2B7BK75OWKP045JQOK","3JJVG1YBED3TDFXYMCH0H9PZKM7B59","emotion","match","uniform","","","","","","","","195690.1000000015","197694.90000000224","","","","","","","","","","","","7","","stimuli/stars_7.png","67.5","","","","","stimuli/AF10_FO.jpg","",""
"explore-choice","61","199655","0.0-61.0","p314822","A37GOI3N77WX21","3P888QFVX40Z2B7BK75OWKP045JQOK","3JJVG1YBED3TDFXYMCH0H9PZKM7B59","emotion","match","uniform","","","","","","","3121","197696.20000000298","200817.20000000298","[""stimuli/AF10_SC.jpg"",""stimuli/HM09_HE.jpg"",""stimuli/WM13_HO.jpg"",""stimuli/BM03_FO.jpg""]","stimuli/AF10_SC.jpg","stimuli/HM09_HE.jpg","stimuli/WM13_HO.jpg","stimuli/BM03_FO.jpg","pos4","stimuli/BM03_FO.jpg","FO","BM03","3","2","4","6","stimuli/stars_4.png","69.5","[""SC"",""HE"",""HO"",""FO""]","[""AF10"",""HM09"",""WM13"",""BM03""]","[2,10,4,4]","[2,8,4,6]","","",""
"show-reward","62","201676","0.0-62.0","p314822","A37GOI3N77WX21","3P888QFVX40Z2B7BK75OWKP045JQOK","3JJVG1YBED3TDFXYMCH0H9PZKM7B59","emotion","match","uniform","","","","","","","","201319.6000000015","203339.20000000298","","","","","","","","","","","","4","","stimuli/stars_4.png","69.5","","","","","stimuli/BM03_FO.jpg","",""
"explore-choice","63","203277","0.0-63.0","p314822","A37GOI3N77WX21","3P888QFVX40Z2B7BK75OWKP045JQOK","3JJVG1YBED3TDFXYMCH0H9PZKM7B59","emotion","match","uniform","","","","","","","1093","203340.20000000298","204433.20000000298","[""stimuli/WM13_HO.jpg"",""stimuli/BM03_FO.jpg"",""stimuli/AF10_HE.jpg"",""stimuli/HM09_SC.jpg""]","stimuli/WM13_HO.jpg","stimuli/BM03_FO.jpg","stimuli/AF10_HE.jpg","stimuli/HM09_SC.jpg","pos1","stimuli/WM13_HO.jpg","HO","WM13","0","3","6","4","stimuli/stars_6.png","72.5","[""HO"",""FO"",""HE"",""SC""]","[""WM13"",""BM03"",""AF10"",""HM09""]","[6,7,9,4]","[4,6,8,2]","","",""
"show-reward","64","205288","0.0-64.0","p314822","A37GOI3N77WX21","3P888QFVX40Z2B7BK75OWKP045JQOK","3JJVG1YBED3TDFXYMCH0H9PZKM7B59","emotion","match","uniform","","","","","","","","204942.6000000015","206952","","","","","","","","","","","","6","","stimuli/stars_6.png","72.5","","","","","stimuli/WM13_HO.jpg","",""
"explore-choice","65","207015","0.0-65.0","p314822","A37GOI3N77WX21","3P888QFVX40Z2B7BK75OWKP045JQOK","3JJVG1YBED3TDFXYMCH0H9PZKM7B59","emotion","match","uniform","","","","","","","1216.300000000745","206952.90000000224","208169.20000000298","[""stimuli/BM03_HO.jpg"",""stimuli/AF10_FO.jpg"",""stimuli/WM13_HE.jpg"",""stimuli/HM09_SC.jpg""]","stimuli/BM03_HO.jpg","stimuli/AF10_FO.jpg","stimuli/WM13_HE.jpg","stimuli/HM09_SC.jpg","pos2","stimuli/AF10_FO.jpg","FO","AF10","1","2.5","5","6","stimuli/stars_5.png","75","[""HO"",""FO"",""HE"",""SC""]","[""BM03"",""AF10"",""WM13"",""HM09""]","[2,5,7,2]","[4,6,8,2]","","",""
"show-reward","66","209022","0.0-66.0","p314822","A37GOI3N77WX21","3P888QFVX40Z2B7BK75OWKP045JQOK","3JJVG1YBED3TDFXYMCH0H9PZKM7B59","emotion","match","uniform","","","","","","","","208680.6000000015","210686.20000000298","","","","","","","","","","","","5","","stimuli/stars_5.png","75","","","","","stimuli/AF10_FO.jpg","",""
"explore-choice","67","210853","0.0-67.0","p314822","A37GOI3N77WX21","3P888QFVX40Z2B7BK75OWKP045JQOK","3JJVG1YBED3TDFXYMCH0H9PZKM7B59","emotion","match","uniform","","","","","","","1321.7999999970198","210687.20000000298","212009","[""stimuli/BM03_FO.jpg"",""stimuli/WM13_HE.jpg"",""stimuli/HM09_HO.jpg"",""stimuli/AF10_SC.jpg""]","stimuli/BM03_FO.jpg","stimuli/WM13_HE.jpg","stimuli/HM09_HO.jpg","stimuli/AF10_SC.jpg","pos3","stimuli/HM09_HO.jpg","HO","HM09","2","2.5","5","4","stimuli/stars_5.png","77.5","[""FO"",""HE"",""HO"",""SC""]","[""BM03"",""WM13"",""HM09"",""AF10""]","[7,7,5,4]","[6,8,4,2]","","",""
"show-reward","68","212867","0.0-68.0","p314822","A37GOI3N77WX21","3P888QFVX40Z2B7BK75OWKP045JQOK","3JJVG1YBED3TDFXYMCH0H9PZKM7B59","emotion","match","uniform","","","","","","","","212518.30000000075","214530.30000000075","","","","","","","","","","","","5","","stimuli/stars_5.png","77.5","","","","","stimuli/HM09_HO.jpg","",""
"explore-choice","69","217223","0.0-69.0","p314822","A37GOI3N77WX21","3P888QFVX40Z2B7BK75OWKP045JQOK","3JJVG1YBED3TDFXYMCH0H9PZKM7B59","emotion","match","uniform","","","","","","","3853.10000000149","214532.1000000015","218385.20000000298","[""stimuli/WM13_SC.jpg"",""stimuli/HM09_HE.jpg"",""stimuli/AF10_HO.jpg"",""stimuli/BM03_FO.jpg""]","stimuli/WM13_SC.jpg","stimuli/HM09_HE.jpg","stimuli/AF10_HO.jpg","stimuli/BM03_FO.jpg","pos4","stimuli/BM03_FO.jpg","FO","BM03","3","2.5","5","6","stimuli/stars_5.png","80","[""SC"",""HE"",""HO"",""FO""]","[""WM13"",""HM09"",""AF10"",""BM03""]","[3,7,2,5]","[2,8,4,6]","","",""
"show-reward","70","219227","0.0-70.0","p314822","A37GOI3N77WX21","3P888QFVX40Z2B7BK75OWKP045JQOK","3JJVG1YBED3TDFXYMCH0H9PZKM7B59","emotion","match","uniform","","","","","","","","218888","220890.70000000298","","","","","","","","","","","","5","","stimuli/stars_5.png","80","","","","","stimuli/BM03_FO.jpg","",""
"explore-choice","71","222368","0.0-71.0","p314822","A37GOI3N77WX21","3P888QFVX40Z2B7BK75OWKP045JQOK","3JJVG1YBED3TDFXYMCH0H9PZKM7B59","emotion","match","uniform","","","","","","","2624.199999999255","220891.30000000075","223515.5","[""stimuli/HM09_HO.jpg"",""stimuli/BM03_SC.jpg"",""stimuli/AF10_FO.jpg"",""stimuli/WM13_HE.jpg""]","stimuli/HM09_HO.jpg","stimuli/BM03_SC.jpg","stimuli/AF10_FO.jpg","stimuli/WM13_HE.jpg","pos1","stimuli/HM09_HO.jpg","HO","HM09","0","1.5","3","4","stimuli/stars_3.png","81.5","[""HO"",""SC"",""FO"",""HE""]","[""HM09"",""BM03"",""AF10"",""WM13""]","[3,4,7,9]","[4,2,6,8]","","",""
"show-reward","72","224373","0.0-72.0","p314822","A37GOI3N77WX21","3P888QFVX40Z2B7BK75OWKP045JQOK","3JJVG1YBED3TDFXYMCH0H9PZKM7B59","emotion","match","uniform","","","","","","","","224032.6000000015","226036.40000000224","","","","","","","","","","","","3","","stimuli/stars_3.png","81.5","","","","","stimuli/HM09_HO.jpg","",""
"explore-choice","73","226958","0.0-73.0","p314822","A37GOI3N77WX21","3P888QFVX40Z2B7BK75OWKP045JQOK","3JJVG1YBED3TDFXYMCH0H9PZKM7B59","emotion","match","uniform","","","","","","","2083.60000000149","226037.6000000015","228121.20000000298","[""stimuli/WM13_SC.jpg"",""stimuli/BM03_FO.jpg"",""stimuli/HM09_HO.jpg"",""stimuli/AF10_HE.jpg""]","stimuli/WM13_SC.jpg","stimuli/BM03_FO.jpg","stimuli/HM09_HO.jpg","stimuli/AF10_HE.jpg","pos2","stimuli/BM03_FO.jpg","FO","BM03","1","2","4","6","stimuli/stars_4.png","83.5","[""SC"",""FO"",""HO"",""HE""]","[""WM13"",""BM03"",""HM09"",""AF10""]","[0,4,3,10]","[2,6,4,8]","","",""
"show-reward","74","228963","0.0-74.0","p314822","A37GOI3N77WX21","3P888QFVX40Z2B7BK75OWKP045JQOK","3JJVG1YBED3TDFXYMCH0H9PZKM7B59","emotion","match","uniform","","","","","","","","228623.20000000298","230626.5","","","","","","","","","","","","4","","stimuli/stars_4.png","83.5","","","","","stimuli/BM03_FO.jpg","",""
"explore-choice","75","231705","0.0-75.0","p314822","A37GOI3N77WX21","3P888QFVX40Z2B7BK75OWKP045JQOK","3JJVG1YBED3TDFXYMCH0H9PZKM7B59","emotion","match","uniform","","","","","","","2240.800000000745","230627.30000000075","232868.1000000015","[""stimuli/BM03_HO.jpg"",""stimuli/WM13_HE.jpg"",""stimuli/AF10_SC.jpg"",""stimuli/HM09_FO.jpg""]","stimuli/BM03_HO.jpg","stimuli/WM13_HE.jpg","stimuli/AF10_SC.jpg","stimuli/HM09_FO.jpg","pos4","stimuli/HM09_FO.jpg","FO","HM09","3","2.5","5","6","stimuli/stars_5.png","86","[""HO"",""HE"",""SC"",""FO""]","[""BM03"",""WM13"",""AF10"",""HM09""]","[2,9,2,5]","[4,8,2,6]","","",""
"show-reward","76","233726","0.0-76.0","p314822","A37GOI3N77WX21","3P888QFVX40Z2B7BK75OWKP045JQOK","3JJVG1YBED3TDFXYMCH0H9PZKM7B59","emotion","match","uniform","","","","","","","","233369.40000000224","235389.6000000015","","","","","","","","","","","","5","","stimuli/stars_5.png","86","","","","","stimuli/HM09_FO.jpg","",""
"explore-choice","77","236218","0.0-77.0","p314822","A37GOI3N77WX21","3P888QFVX40Z2B7BK75OWKP045JQOK","3JJVG1YBED3TDFXYMCH0H9PZKM7B59","emotion","match","uniform","","","","","","","1979.199999999255","235390.70000000298","237369.90000000224","[""stimuli/WM13_FO.jpg"",""stimuli/BM03_SC.jpg"",""stimuli/HM09_HO.jpg"",""stimuli/AF10_HE.jpg""]","stimuli/WM13_FO.jpg","stimuli/BM03_SC.jpg","stimuli/HM09_HO.jpg","stimuli/AF10_HE.jpg","pos1","stimuli/WM13_FO.jpg","FO","WM13","0","2","4","6","stimuli/stars_4.png","88","[""FO"",""SC"",""HO"",""HE""]","[""WM13"",""BM03"",""HM09"",""AF10""]","[4,3,5,9]","[6,2,4,8]","","",""
"show-reward","78","238228","0.0-78.0","p314822","A37GOI3N77WX21","3P888QFVX40Z2B7BK75OWKP045JQOK","3JJVG1YBED3TDFXYMCH0H9PZKM7B59","emotion","match","uniform","","","","","","","","237882.5","239891.40000000224","","","","","","","","","","","","4","","stimuli/stars_4.png","88","","","","","stimuli/WM13_FO.jpg","",""
"explore-choice","79","240469","0.0-79.0","p314822","A37GOI3N77WX21","3P888QFVX40Z2B7BK75OWKP045JQOK","3JJVG1YBED3TDFXYMCH0H9PZKM7B59","emotion","match","uniform","","","","","","","1724.7999999970198","239892.70000000298","241617.5","[""stimuli/HM09_HO.jpg"",""stimuli/WM13_SC.jpg"",""stimuli/AF10_FO.jpg"",""stimuli/BM03_HE.jpg""]","stimuli/HM09_HO.jpg","stimuli/WM13_SC.jpg","stimuli/AF10_FO.jpg","stimuli/BM03_HE.jpg","pos3","stimuli/AF10_FO.jpg","FO","AF10","2","3","6","6","stimuli/stars_6.png","91","[""HO"",""SC"",""FO"",""HE""]","[""HM09"",""WM13"",""AF10"",""BM03""]","[6,1,6,6]","[4,2,6,8]","","",""
"show-reward","80","242484","0.0-80.0","p314822","A37GOI3N77WX21","3P888QFVX40Z2B7BK75OWKP045JQOK","3JJVG1YBED3TDFXYMCH0H9PZKM7B59","emotion","match","uniform","","","","","","","","242133.90000000224","244147.6000000015","","","","","","","","","","","","6","","stimuli/stars_6.png","91","","","","","stimuli/AF10_FO.jpg","",""
"explore-choice","81","246257","0.0-81.0","p314822","A37GOI3N77WX21","3P888QFVX40Z2B7BK75OWKP045JQOK","3JJVG1YBED3TDFXYMCH0H9PZKM7B59","emotion","match","uniform","","","","","","","3269","244148.40000000224","247417.40000000224","[""stimuli/AF10_SC.jpg"",""stimuli/HM09_FO.jpg"",""stimuli/BM03_HE.jpg"",""stimuli/WM13_HO.jpg""]","stimuli/AF10_SC.jpg","stimuli/HM09_FO.jpg","stimuli/BM03_HE.jpg","stimuli/WM13_HO.jpg","pos2","stimuli/HM09_FO.jpg","FO","HM09","1","3","6","6","stimuli/stars_6.png","94","[""SC"",""FO"",""HE"",""HO""]","[""AF10"",""HM09"",""BM03"",""WM13""]","[2,6,9,6]","[2,6,8,4]","","",""
"show-reward","82","248263","0.0-82.0","p314822","A37GOI3N77WX21","3P888QFVX40Z2B7BK75OWKP045JQOK","3JJVG1YBED3TDFXYMCH0H9PZKM7B59","emotion","match","uniform","","","","","","","","247921.70000000298","249926.6000000015","","","","","","","","","","","","6","","stimuli/stars_6.png","94","","","","","stimuli/HM09_FO.jpg","",""
"explore-choice","83","251270","0.0-83.0","p314822","A37GOI3N77WX21","3P888QFVX40Z2B7BK75OWKP045JQOK","3JJVG1YBED3TDFXYMCH0H9PZKM7B59","emotion","match","uniform","","","","","","","2498.5","249927.30000000075","252425.80000000075","[""stimuli/BM03_HO.jpg"",""stimuli/WM13_SC.jpg"",""stimuli/AF10_HE.jpg"",""stimuli/HM09_FO.jpg""]","stimuli/BM03_HO.jpg","stimuli/WM13_SC.jpg","stimuli/AF10_HE.jpg","stimuli/HM09_FO.jpg","pos1","stimuli/BM03_HO.jpg","HO","BM03","0","2","4","4","stimuli/stars_4.png","96","[""HO"",""SC"",""HE"",""FO""]","[""BM03"",""WM13"",""AF10"",""HM09""]","[4,1,10,8]","[4,2,8,6]","","",""
"show-reward","84","253276","0.0-84.0","p314822","A37GOI3N77WX21","3P888QFVX40Z2B7BK75OWKP045JQOK","3JJVG1YBED3TDFXYMCH0H9PZKM7B59","emotion","match","uniform","","","","","","","","252935.1000000015","254939.40000000224","","","","","","","","","","","","4","","stimuli/stars_4.png","96","","","","","stimuli/BM03_HO.jpg","",""
"explore-choice","85","254772","0.0-85.0","p314822","A37GOI3N77WX21","3P888QFVX40Z2B7BK75OWKP045JQOK","3JJVG1YBED3TDFXYMCH0H9PZKM7B59","emotion","match","uniform","","","","","","","981.5","254940.5","255922","[""stimuli/AF10_HO.jpg"",""stimuli/HM09_SC.jpg"",""stimuli/BM03_HE.jpg"",""stimuli/WM13_FO.jpg""]","stimuli/AF10_HO.jpg","stimuli/HM09_SC.jpg","stimuli/BM03_HE.jpg","stimuli/WM13_FO.jpg","pos3","stimuli/BM03_HE.jpg","HE","BM03","2","3.5","7","8","stimuli/stars_7.png","99.5","[""HO"",""SC"",""HE"",""FO""]","[""AF10"",""HM09"",""BM03"",""WM13""]","[4,0,7,8]","[4,2,8,6]","","",""
"show-reward","86","256775","0.0-86.0","p314822","A37GOI3N77WX21","3P888QFVX40Z2B7BK75OWKP045JQOK","3JJVG1YBED3TDFXYMCH0H9PZKM7B59","emotion","match","uniform","","","","","","","","256436.80000000075","258438.90000000224","","","","","","","","","","","","7","","stimuli/stars_7.png","99.5","","","","","stimuli/BM03_HE.jpg","",""
"explore-choice","87","260276","0.0-87.0","p314822","A37GOI3N77WX21","3P888QFVX40Z2B7BK75OWKP045JQOK","3JJVG1YBED3TDFXYMCH0H9PZKM7B59","emotion","match","uniform","","","","","","","2986","258439.90000000224","261425.90000000224","[""stimuli/WM13_HE.jpg"",""stimuli/AF10_HO.jpg"",""stimuli/HM09_SC.jpg"",""stimuli/BM03_FO.jpg""]","stimuli/WM13_HE.jpg","stimuli/AF10_HO.jpg","stimuli/HM09_SC.jpg","stimuli/BM03_FO.jpg","pos3","stimuli/HM09_SC.jpg","SC","HM09","2","1","2","2","stimuli/stars_2.png","100.5","[""HE"",""HO"",""SC"",""FO""]","[""WM13"",""AF10"",""HM09"",""BM03""]","[9,6,2,6]","[8,4,2,6]","","",""
"show-reward","88","262282","0.0-88.0","p314822","A37GOI3N77WX21","3P888QFVX40Z2B7BK75OWKP045JQOK","3JJVG1YBED3TDFXYMCH0H9PZKM7B59","emotion","match","uniform","","","","","","","","261942.20000000298","263945.30000000075","","","","","","","","","","","","2","","stimuli/stars_2.png","100.5","","","","","stimuli/HM09_SC.jpg","",""
"explore-choice","89","263904","0.0-89.0","p314822","A37GOI3N77WX21","3P888QFVX40Z2B7BK75OWKP045JQOK","3JJVG1YBED3TDFXYMCH0H9PZKM7B59","emotion","match","uniform","","","","","","","1111.8999999985099","263946.200000003","265058.1000000015","[""stimuli/BM03_HE.jpg"",""stimuli/WM13_SC.jpg"",""stimuli/HM09_FO.jpg"",""stimuli/AF10_HO.jpg""]","stimuli/BM03_HE.jpg","stimuli/WM13_SC.jpg","stimuli/HM09_FO.jpg","stimuli/AF10_HO.jpg","pos4","stimuli/AF10_HO.jpg","HO","AF10","3","2.5","5","4","stimuli/stars_5.png","103","[""HE"",""SC"",""FO"",""HO""]","[""BM03"",""WM13"",""HM09"",""AF10""]","[7,0,7,5]","[8,2,6,4]","","",""
"show-reward","90","265910","0.0-90.0","p314822","A37GOI3N77WX21","3P888QFVX40Z2B7BK75OWKP045JQOK","3JJVG1YBED3TDFXYMCH0H9PZKM7B59","emotion","match","uniform","","","","","","","","265568.700000003","267573.40000000224","","","","","","","","","","","","5","","stimuli/stars_5.png","103","","","","","stimuli/AF10_HO.jpg","",""
"explore-choice","91","267630","0.0-91.0","p314822","A37GOI3N77WX21","3P888QFVX40Z2B7BK75OWKP045JQOK","3JJVG1YBED3TDFXYMCH0H9PZKM7B59","emotion","match","uniform","","","","","","","1200","267577.6000000015","268777.6000000015","[""stimuli/HM09_HE.jpg"",""stimuli/BM03_SC.jpg"",""stimuli/WM13_HO.jpg"",""stimuli/AF10_FO.jpg""]","stimuli/HM09_HE.jpg","stimuli/BM03_SC.jpg","stimuli/WM13_HO.jpg","stimuli/AF10_FO.jpg","pos4","stimuli/AF10_FO.jpg","FO","AF10","3","3","6","6","stimuli/stars_6.png","106","[""HE"",""SC"",""HO"",""FO""]","[""HM09"",""BM03"",""WM13"",""AF10""]","[8,4,6,6]","[8,2,4,6]","","",""
"show-reward","92","269633","0.0-92.0","p314822","A37GOI3N77WX21","3P888QFVX40Z2B7BK75OWKP045JQOK","3JJVG1YBED3TDFXYMCH0H9PZKM7B59","emotion","match","uniform","","","","","","","","269294.30000000075","271296.5","","","","","","","","","","","","6","","stimuli/stars_6.png","106","","","","","stimuli/AF10_FO.jpg","",""
"explore-choice","93","271385","0.0-93.0","p314822","A37GOI3N77WX21","3P888QFVX40Z2B7BK75OWKP045JQOK","3JJVG1YBED3TDFXYMCH0H9PZKM7B59","emotion","match","uniform","","","","","","","1248","271297.80000000075","272545.80000000075","[""stimuli/HM09_HO.jpg"",""stimuli/AF10_SC.jpg"",""stimuli/WM13_FO.jpg"",""stimuli/BM03_HE.jpg""]","stimuli/HM09_HO.jpg","stimuli/AF10_SC.jpg","stimuli/WM13_FO.jpg","stimuli/BM03_HE.jpg","pos2","stimuli/AF10_SC.jpg","SC","AF10","1","1","2","2","stimuli/stars_2.png","107","[""HO"",""SC"",""FO"",""HE""]","[""HM09"",""AF10"",""WM13"",""BM03""]","[5,2,6,8]","[4,2,6,8]","","",""
"show-reward","94","273401","0.0-94.0","p314822","A37GOI3N77WX21","3P888QFVX40Z2B7BK75OWKP045JQOK","3JJVG1YBED3TDFXYMCH0H9PZKM7B59","emotion","match","uniform","","","","","","","","273049.30000000075","275064.6000000015","","","","","","","","","","","","2","","stimuli/stars_2.png","107","","","","","stimuli/AF10_SC.jpg","",""
"explore-choice","95","275448","0.0-95.0","p314822","A37GOI3N77WX21","3P888QFVX40Z2B7BK75OWKP045JQOK","3JJVG1YBED3TDFXYMCH0H9PZKM7B59","emotion","match","uniform","","","","","","","1535.6000000014901","275066","276601.6000000015","[""stimuli/AF10_HE.jpg"",""stimuli/HM09_SC.jpg"",""stimuli/BM03_HO.jpg"",""stimuli/WM13_FO.jpg""]","stimuli/AF10_HE.jpg","stimuli/HM09_SC.jpg","stimuli/BM03_HO.jpg","stimuli/WM13_FO.jpg","pos1","stimuli/AF10_HE.jpg","HE","AF10","0","4.5","9","8","stimuli/stars_9.png","111.5","[""HE"",""SC"",""HO"",""FO""]","[""AF10"",""HM09"",""BM03"",""WM13""]","[9,0,6,4]","[8,2,4,6]","","",""
"show-reward","96","277460","0.0-96.0","p314822","A37GOI3N77WX21","3P888QFVX40Z2B7BK75OWKP045JQOK","3JJVG1YBED3TDFXYMCH0H9PZKM7B59","emotion","match","uniform","","","","","","","","277112.200000003","279123.5","","","","","","","","","","","","9","","stimuli/stars_9.png","111.5","","","","","stimuli/AF10_HE.jpg","",""
"explore-choice","97","279679","0.0-97.0","p314822","A37GOI3N77WX21","3P888QFVX40Z2B7BK75OWKP045JQOK","3JJVG1YBED3TDFXYMCH0H9PZKM7B59","emotion","match","uniform","","","","","","","1717.300000000745","279125.1000000015","280842.40000000224","[""stimuli/HM09_SC.jpg"",""stimuli/WM13_HO.jpg"",""stimuli/AF10_FO.jpg"",""stimuli/BM03_HE.jpg""]","stimuli/HM09_SC.jpg","stimuli/WM13_HO.jpg","stimuli/AF10_FO.jpg","stimuli/BM03_HE.jpg","pos3","stimuli/AF10_FO.jpg","FO","AF10","2","2","4","6","stimuli/stars_4.png","113.5","[""SC"",""HO"",""FO"",""HE""]","[""HM09"",""WM13"",""AF10"",""BM03""]","[0,5,4,10]","[2,4,6,8]","","",""
"show-reward","98","281696","0.0-98.0","p314822","A37GOI3N77WX21","3P888QFVX40Z2B7BK75OWKP045JQOK","3JJVG1YBED3TDFXYMCH0H9PZKM7B59","emotion","match","uniform","","","","","","","","281343.80000000075","283359.30000000075","","","","","","","","","","","","4","","stimuli/stars_4.png","113.5","","","","","stimuli/AF10_FO.jpg","",""
"explore-choice","99","283228","0.0-99.0","p314822","A37GOI3N77WX21","3P888QFVX40Z2B7BK75OWKP045JQOK","3JJVG1YBED3TDFXYMCH0H9PZKM7B59","emotion","match","uniform","","","","","","","1025.300000000745","283360.80000000075","284386.1000000015","[""stimuli/AF10_HO.jpg"",""stimuli/HM09_HE.jpg"",""stimuli/BM03_SC.jpg"",""stimuli/WM13_FO.jpg""]","stimuli/AF10_HO.jpg","stimuli/HM09_HE.jpg","stimuli/BM03_SC.jpg","stimuli/WM13_FO.jpg","pos2","stimuli/HM09_HE.jpg","HE","HM09","1","5","10","8","stimuli/stars_10.png","118.5","[""HO"",""HE"",""SC"",""FO""]","[""AF10"",""HM09"",""BM03"",""WM13""]","[3,10,1,4]","[4,8,2,6]","","",""
"show-reward","100","285241","0.0-100.0","p314822","A37GOI3N77WX21","3P888QFVX40Z2B7BK75OWKP045JQOK","3JJVG1YBED3TDFXYMCH0H9PZKM7B59","emotion","match","uniform","","","","","","","","284892.30000000075","286905.1000000015","","","","","","","","","","","","10","","stimuli/stars_10.png","118.5","","","","","stimuli/HM09_HE.jpg","",""
"explore-choice","101","287832","0.0-101.0","p314822","A37GOI3N77WX21","3P888QFVX40Z2B7BK75OWKP045JQOK","3JJVG1YBED3TDFXYMCH0H9PZKM7B59","emotion","match","uniform","","","","","","","2087.900000002235","286906","288993.90000000224","[""stimuli/BM03_SC.jpg"",""stimuli/AF10_HO.jpg"",""stimuli/HM09_FO.jpg"",""stimuli/WM13_HE.jpg""]","stimuli/BM03_SC.jpg","stimuli/AF10_HO.jpg","stimuli/HM09_FO.jpg","stimuli/WM13_HE.jpg","pos2","stimuli/AF10_HO.jpg","HO","AF10","1","2.5","5","4","stimuli/stars_5.png","121","[""SC"",""HO"",""FO"",""HE""]","[""BM03"",""AF10"",""HM09"",""WM13""]","[4,5,8,10]","[2,4,6,8]","","",""
"show-reward","102","289848","0.0-102.0","p314822","A37GOI3N77WX21","3P888QFVX40Z2B7BK75OWKP045JQOK","3JJVG1YBED3TDFXYMCH0H9PZKM7B59","emotion","match","uniform","","","","","","","","289496.5","291512.200000003","","","","","","","","","","","","5","","stimuli/stars_5.png","121","","","","","stimuli/AF10_HO.jpg","",""
"explore-choice","103","291748","0.0-103.0","p314822","A37GOI3N77WX21","3P888QFVX40Z2B7BK75OWKP045JQOK","3JJVG1YBED3TDFXYMCH0H9PZKM7B59","emotion","match","uniform","","","","","","","1384.4000000022352","291513.30000000075","292897.700000003","[""stimuli/WM07_DO.jpg"",""stimuli/WF04_CC.jpg"",""stimuli/HM02_SUR.jpg"",""stimuli/AF02_AO.jpg""]","stimuli/WM07_DO.jpg","stimuli/WF04_CC.jpg","stimuli/HM02_SUR.jpg","stimuli/AF02_AO.jpg","pos1","stimuli/WM07_DO.jpg","DO","WM07","0","5","10","8","stimuli/stars_10.png","126","[""DO"",""CC"",""SUR"",""AO""]","[""WM07"",""WF04"",""HM02"",""AF02""]","[10,2,8,4]","[8,4,6,2]","","",""
"show-reward","104","293762","0.0-104.0","p314822","A37GOI3N77WX21","3P888QFVX40Z2B7BK75OWKP045JQOK","3JJVG1YBED3TDFXYMCH0H9PZKM7B59","emotion","match","uniform","","","","","","","","293412.200000003","295424.80000000075","","","","","","","","","","","","10","","stimuli/stars_10.png","126","","","","","stimuli/WM07_DO.jpg","",""
"explore-choice","105","295482","0.0-105.0","p314822","A37GOI3N77WX21","3P888QFVX40Z2B7BK75OWKP045JQOK","3JJVG1YBED3TDFXYMCH0H9PZKM7B59","emotion","match","uniform","","","","","","","1207.800000000745","295426.6000000015","296634.40000000224","[""stimuli/AF02_SUR.jpg"",""stimuli/WM07_DO.jpg"",""stimuli/HM02_CC.jpg"",""stimuli/WF04_AO.jpg""]","stimuli/AF02_SUR.jpg","stimuli/WM07_DO.jpg","stimuli/HM02_CC.jpg","stimuli/WF04_AO.jpg","pos2","stimuli/WM07_DO.jpg","DO","WM07","1","3.5","7","8","stimuli/stars_7.png","129.5","[""SUR"",""DO"",""CC"",""AO""]","[""AF02"",""WM07"",""HM02"",""WF04""]","[4,7,3,1]","[6,8,4,2]","","",""
"show-reward","106","297497","0.0-106.0","p314822","A37GOI3N77WX21","3P888QFVX40Z2B7BK75OWKP045JQOK","3JJVG1YBED3TDFXYMCH0H9PZKM7B59","emotion","match","uniform","","","","","","","","297146.1000000015","299160.30000000075","","","","","","","","","","","","7","","stimuli/stars_7.png","129.5","","","","","stimuli/WM07_DO.jpg","",""
"explore-choice","107","299276","0.0-107.0","p314822","A37GOI3N77WX21","3P888QFVX40Z2B7BK75OWKP045JQOK","3JJVG1YBED3TDFXYMCH0H9PZKM7B59","emotion","match","uniform","","","","","","","1272.699999999255","299161.6000000015","300434.30000000075","[""stimuli/AF02_AO.jpg"",""stimuli/WM07_SUR.jpg"",""stimuli/HM02_CC.jpg"",""stimuli/WF04_DO.jpg""]","stimuli/AF02_AO.jpg","stimuli/WM07_SUR.jpg","stimuli/HM02_CC.jpg","stimuli/WF04_DO.jpg","pos4","stimuli/WF04_DO.jpg","DO","WF04","3","5","10","8","stimuli/stars_10.png","134.5","[""AO"",""SUR"",""CC"",""DO""]","[""AF02"",""WM07"",""HM02"",""WF04""]","[4,5,4,10]","[2,6,4,8]","","",""
"show-reward","108","301280","0.0-108.0","p314822","A37GOI3N77WX21","3P888QFVX40Z2B7BK75OWKP045JQOK","3JJVG1YBED3TDFXYMCH0H9PZKM7B59","emotion","match","uniform","","","","","","","","300940.200000003","302944","","","","","","","","","","","","10","","stimuli/stars_10.png","134.5","","","","","stimuli/WF04_DO.jpg","",""
"explore-choice","109","302548","0.0-109.0","p314822","A37GOI3N77WX21","3P888QFVX40Z2B7BK75OWKP045JQOK","3JJVG1YBED3TDFXYMCH0H9PZKM7B59","emotion","match","uniform","","","","","","","761.1000000014901","302945","303706.1000000015","[""stimuli/AF02_CC.jpg"",""stimuli/WF04_DO.jpg"",""stimuli/WM07_AO.jpg"",""stimuli/HM02_SUR.jpg""]","stimuli/AF02_CC.jpg","stimuli/WF04_DO.jpg","stimuli/WM07_AO.jpg","stimuli/HM02_SUR.jpg","pos2","stimuli/WF04_DO.jpg","DO","WF04","1","3","6","8","stimuli/stars_6.png","137.5","[""CC"",""DO"",""AO"",""SUR""]","[""AF02"",""WF04"",""WM07"",""HM02""]","[4,6,0,4]","[4,8,2,6]","","",""
"show-reward","110","304566","0.0-110.0","p314822","A37GOI3N77WX21","3P888QFVX40Z2B7BK75OWKP045JQOK","3JJVG1YBED3TDFXYMCH0H9PZKM7B59","emotion","match","uniform","","","","","","","","304212.700000003","306229.80000000075","","","","","","","","","","","","6","","stimuli/stars_6.png","137.5","","","","","stimuli/WF04_DO.jpg","",""
"explore-choice","111","305977","0.0-111.0","p314822","A37GOI3N77WX21","3P888QFVX40Z2B7BK75OWKP045JQOK","3JJVG1YBED3TDFXYMCH0H9PZKM7B59","emotion","match","uniform","","","","","","","907.6000000014901","306230.5","307138.1000000015","[""stimuli/WM07_SUR.jpg"",""stimuli/AF02_DO.jpg"",""stimuli/WF04_CC.jpg"",""stimuli/HM02_AO.jpg""]","stimuli/WM07_SUR.jpg","stimuli/AF02_DO.jpg","stimuli/WF04_CC.jpg","stimuli/HM02_AO.jpg","pos3","stimuli/WF04_CC.jpg","CC","WF04","2","2","4","4","stimuli/stars_4.png","139.5","[""SUR"",""DO"",""CC"",""AO""]","[""WM07"",""AF02"",""WF04"",""HM02""]","[4,9,4,2]","[6,8,4,2]","","",""
"show-reward","112","307979","0.0-112.0","p314822","A37GOI3N77WX21","3P888QFVX40Z2B7BK75OWKP045JQOK","3JJVG1YBED3TDFXYMCH0H9PZKM7B59","emotion","match","uniform","","","","","","","","307641","309643","","","","","","","","","","","","4","","stimuli/stars_4.png","139.5","","","","","stimuli/WF04_CC.jpg","",""
"explore-choice","113","311220","0.0-113.0","p314822","A37GOI3N77WX21","3P888QFVX40Z2B7BK75OWKP045JQOK","3JJVG1YBED3TDFXYMCH0H9PZKM7B59","emotion","match","uniform","","","","","","","2734.699999999255","309643.6000000015","312378.30000000075","[""stimuli/WF04_AO.jpg"",""stimuli/WM07_DO.jpg"",""stimuli/AF02_CC.jpg"",""stimuli/HM02_SUR.jpg""]","stimuli/WF04_AO.jpg","stimuli/WM07_DO.jpg","stimuli/AF02_CC.jpg","stimuli/HM02_SUR.jpg","pos1","stimuli/WF04_AO.jpg","AO","WF04","0","2","4","2","stimuli/stars_4.png","141.5","[""AO"",""DO"",""CC"",""SUR""]","[""WF04"",""WM07"",""AF02"",""HM02""]","[4,7,2,5]","[2,8,4,6]","","",""
"show-reward","114","313234","0.0-114.0","p314822","A37GOI3N77WX21","3P888QFVX40Z2B7BK75OWKP045JQOK","3JJVG1YBED3TDFXYMCH0H9PZKM7B59","emotion","match","uniform","","","","","","","","312884.5","314897.6000000015","","","","","","","","","","","","4","","stimuli/stars_4.png","141.5","","","","","stimuli/WF04_AO.jpg","",""
"explore-choice","115","319833","0.0-115.0","p314822","A37GOI3N77WX21","3P888QFVX40Z2B7BK75OWKP045JQOK","3JJVG1YBED3TDFXYMCH0H9PZKM7B59","emotion","match","uniform","","","","","","","6095.900000002235","314898.5","320994.40000000224","[""stimuli/WM07_AO.jpg"",""stimuli/AF02_CC.jpg"",""stimuli/HM02_DO.jpg"",""stimuli/WF04_SUR.jpg""]","stimuli/WM07_AO.jpg","stimuli/AF02_CC.jpg","stimuli/HM02_DO.jpg","stimuli/WF04_SUR.jpg","pos4","stimuli/WF04_SUR.jpg","SUR","WF04","3","2","4","6","stimuli/stars_4.png","143.5","[""AO"",""CC"",""DO"",""SUR""]","[""WM07"",""AF02"",""HM02"",""WF04""]","[2,2,6,4]","[2,4,8,6]","","",""
"show-reward","116","321840","0.0-116.0","p314822","A37GOI3N77WX21","3P888QFVX40Z2B7BK75OWKP045JQOK","3JJVG1YBED3TDFXYMCH0H9PZKM7B59","emotion","match","uniform","","","","","","","","321497.80000000075","323503.80000000075","","","","","","","","","","","","4","","stimuli/stars_4.png","143.5","","","","","stimuli/WF04_SUR.jpg","",""
"explore-choice","117","328536","0.0-117.0","p314822","A37GOI3N77WX21","3P888QFVX40Z2B7BK75OWKP045JQOK","3JJVG1YBED3TDFXYMCH0H9PZKM7B59","emotion","match","uniform","","","","","","","6192.800000000745","323505.6000000015","329698.40000000224","[""stimuli/WF04_CC.jpg"",""stimuli/WM07_SUR.jpg"",""stimuli/AF02_AO.jpg"",""stimuli/HM02_DO.jpg""]","stimuli/WF04_CC.jpg","stimuli/WM07_SUR.jpg","stimuli/AF02_AO.jpg","stimuli/HM02_DO.jpg","pos1","stimuli/WF04_CC.jpg","CC","WF04","0","1","2","4","stimuli/stars_2.png","144.5","[""CC"",""SUR"",""AO"",""DO""]","[""WF04"",""WM07"",""AF02"",""HM02""]","[2,5,3,7]","[4,6,2,8]","","",""
"show-reward","118","330554","0.0-118.0","p314822","A37GOI3N77WX21","3P888QFVX40Z2B7BK75OWKP045JQOK","3JJVG1YBED3TDFXYMCH0H9PZKM7B59","emotion","match","uniform","","","","","","","","330201.5","332217.6000000015","","","","","","","","","","","","2","","stimuli/stars_2.png","144.5","","","","","stimuli/WF04_CC.jpg","",""
"explore-choice","119","332302","0.0-119.0","p314822","A37GOI3N77WX21","3P888QFVX40Z2B7BK75OWKP045JQOK","3JJVG1YBED3TDFXYMCH0H9PZKM7B59","emotion","match","uniform","","","","","","","1231.5999999977648","332218.90000000224","333450.5","[""stimuli/AF02_DO.jpg"",""stimuli/WM07_AO.jpg"",""stimuli/WF04_SUR.jpg"",""stimuli/HM02_CC.jpg""]","stimuli/AF02_DO.jpg","stimuli/WM07_AO.jpg","stimuli/WF04_SUR.jpg","stimuli/HM02_CC.jpg","pos3","stimuli/WF04_SUR.jpg","SUR","WF04","2","2.5","5","6","stimuli/stars_5.png","147","[""DO"",""AO"",""SUR"",""CC""]","[""AF02"",""WM07"",""WF04"",""HM02""]","[9,3,5,4]","[8,2,6,4]","","",""
"show-reward","120","334306","0.0-120.0","p314822","A37GOI3N77WX21","3P888QFVX40Z2B7BK75OWKP045JQOK","3JJVG1YBED3TDFXYMCH0H9PZKM7B59","emotion","match","uniform","","","","","","","","333966.80000000075","335969.200000003","","","","","","","","","","","","5","","stimuli/stars_5.png","147","","","","","stimuli/WF04_SUR.jpg","",""
"explore-choice","121","337184","0.0-121.0","p314822","A37GOI3N77WX21","3P888QFVX40Z2B7BK75OWKP045JQOK","3JJVG1YBED3TDFXYMCH0H9PZKM7B59","emotion","match","uniform","","","","","","","2375.300000000745","335971","338346.30000000075","[""stimuli/WM07_SUR.jpg"",""stimuli/WF04_AO.jpg"",""stimuli/HM02_CC.jpg"",""stimuli/AF02_DO.jpg""]","stimuli/WM07_SUR.jpg","stimuli/WF04_AO.jpg","stimuli/HM02_CC.jpg","stimuli/AF02_DO.jpg","pos2","stimuli/WF04_AO.jpg","AO","WF04","1","0.5","1","2","stimuli/stars_1.png","147.5","[""SUR"",""AO"",""CC"",""DO""]","[""WM07"",""WF04"",""HM02"",""AF02""]","[6,1,4,7]","[6,2,4,8]","","",""
"show-reward","122","339188","0.0-122.0","p314822","A37GOI3N77WX21","3P888QFVX40Z2B7BK75OWKP045JQOK","3JJVG1YBED3TDFXYMCH0H9PZKM7B59","emotion","match","uniform","","","","","","","","338849.1000000015","340852.1000000015","","","","","","","","","","","","1","","stimuli/stars_1.png","147.5","","","","","stimuli/WF04_AO.jpg","",""
"explore-choice","123","340687","0.0-123.0","p314822","A37GOI3N77WX21","3P888QFVX40Z2B7BK75OWKP045JQOK","3JJVG1YBED3TDFXYMCH0H9PZKM7B59","emotion","match","uniform","","","","","","","997.6999999992549","340852.90000000224","341850.6000000015","[""stimuli/WM07_SUR.jpg"",""stimuli/HM02_DO.jpg"",""stimuli/AF02_CC.jpg"",""stimuli/WF04_AO.jpg""]","stimuli/WM07_SUR.jpg","stimuli/HM02_DO.jpg","stimuli/AF02_CC.jpg","stimuli/WF04_AO.jpg","pos4","stimuli/WF04_AO.jpg","AO","WF04","3","1.5","3","2","stimuli/stars_3.png","149","[""SUR"",""DO"",""CC"",""AO""]","[""WM07"",""HM02"",""AF02"",""WF04""]","[6,8,5,3]","[6,8,4,2]","","",""
"show-reward","124","342693","0.0-124.0","p314822","A37GOI3N77WX21","3P888QFVX40Z2B7BK75OWKP045JQOK","3JJVG1YBED3TDFXYMCH0H9PZKM7B59","emotion","match","uniform","","","","","","","","342352.200000003","344356.80000000075","","","","","","","","","","","","3","","stimuli/stars_3.png","149","","","","","stimuli/WF04_AO.jpg","",""
"explore-choice","125","344088","0.0-125.0","p314822","A37GOI3N77WX21","3P888QFVX40Z2B7BK75OWKP045JQOK","3JJVG1YBED3TDFXYMCH0H9PZKM7B59","emotion","match","uniform","","","","","","","893.6000000014901","344357.5","345251.1000000015","[""stimuli/HM02_SUR.jpg"",""stimuli/AF02_AO.jpg"",""stimuli/WF04_DO.jpg"",""stimuli/WM07_CC.jpg""]","stimuli/HM02_SUR.jpg","stimuli/AF02_AO.jpg","stimuli/WF04_DO.jpg","stimuli/WM07_CC.jpg","pos1","stimuli/HM02_SUR.jpg","SUR","HM02","0","3.5","7","6","stimuli/stars_7.png","152.5","[""SUR"",""AO"",""DO"",""CC""]","[""HM02"",""AF02"",""WF04"",""WM07""]","[7,4,6,2]","[6,2,8,4]","","",""
"show-reward","126","346101","0.0-126.0","p314822","A37GOI3N77WX21","3P888QFVX40Z2B7BK75OWKP045JQOK","3JJVG1YBED3TDFXYMCH0H9PZKM7B59","emotion","match","uniform","","","","","","","","345755.1000000015","347764.5","","","","","","","","","","","","7","","stimuli/stars_7.png","152.5","","","","","stimuli/HM02_SUR.jpg","",""
"explore-choice","127","348100","0.0-127.0","p314822","A37GOI3N77WX21","3P888QFVX40Z2B7BK75OWKP045JQOK","3JJVG1YBED3TDFXYMCH0H9PZKM7B59","emotion","match","uniform","","","","","","","1485.4000000022352","347765.30000000075","349250.700000003","[""stimuli/HM02_AO.jpg"",""stimuli/WM07_CC.jpg"",""stimuli/AF02_DO.jpg"",""stimuli/WF04_SUR.jpg""]","stimuli/HM02_AO.jpg","stimuli/WM07_CC.jpg","stimuli/AF02_DO.jpg","stimuli/WF04_SUR.jpg","pos2","stimuli/WM07_CC.jpg","CC","WM07","1","2.5","5","4","stimuli/stars_5.png","155","[""AO"",""CC"",""DO"",""SUR""]","[""HM02"",""WM07"",""AF02"",""WF04""]","[2,5,7,4]","[2,4,8,6]","","",""
"show-reward","128","350105","0.0-128.0","p314822","A37GOI3N77WX21","3P888QFVX40Z2B7BK75OWKP045JQOK","3JJVG1YBED3TDFXYMCH0H9PZKM7B59","emotion","match","uniform","","","","","","","","349764.700000003","351768.700000003","","","","","","","","","","","","5","","stimuli/stars_5.png","155","","","","","stimuli/WM07_CC.jpg","",""
"explore-choice","129","354151","0.0-129.0","p314822","A37GOI3N77WX21","3P888QFVX40Z2B7BK75OWKP045JQOK","3JJVG1YBED3TDFXYMCH0H9PZKM7B59","emotion","match","uniform","","","","","","","3544","351770.700000003","355314.700000003","[""stimuli/HM02_AO.jpg"",""stimuli/AF02_SUR.jpg"",""stimuli/WM07_DO.jpg"",""stimuli/WF04_CC.jpg""]","stimuli/HM02_AO.jpg","stimuli/AF02_SUR.jpg","stimuli/WM07_DO.jpg","stimuli/WF04_CC.jpg","pos3","stimuli/WM07_DO.jpg","DO","WM07","2","5","10","8","stimuli/stars_10.png","160","[""AO"",""SUR"",""DO"",""CC""]","[""HM02"",""AF02"",""WM07"",""WF04""]","[0,4,10,3]","[2,6,8,4]","","",""
"show-reward","130","356159","0.0-130.0","p314822","A37GOI3N77WX21","3P888QFVX40Z2B7BK75OWKP045JQOK","3JJVG1YBED3TDFXYMCH0H9PZKM7B59","emotion","match","uniform","","","","","","","","355815.80000000075","357823.200000003","","","","","","","","","","","","10","","stimuli/stars_10.png","160","","","","","stimuli/WM07_DO.jpg","",""
"explore-choice","131","357656","0.0-131.0","p314822","A37GOI3N77WX21","3P888QFVX40Z2B7BK75OWKP045JQOK","3JJVG1YBED3TDFXYMCH0H9PZKM7B59","emotion","match","uniform","","","","","","","994.2000000029802","357824.5","358818.700000003","[""stimuli/HM02_AO.jpg"",""stimuli/AF02_CC.jpg"",""stimuli/WM07_SUR.jpg"",""stimuli/WF04_DO.jpg""]","stimuli/HM02_AO.jpg","stimuli/AF02_CC.jpg","stimuli/WM07_SUR.jpg","stimuli/WF04_DO.jpg","pos3","stimuli/WM07_SUR.jpg","SUR","WM07","2","2","4","6","stimuli/stars_4.png","162","[""AO"",""CC"",""SUR"",""DO""]","[""HM02"",""AF02"",""WM07"",""WF04""]","[0,4,4,8]","[2,4,6,8]","","",""
"show-reward","132","359662","0.0-132.0","p314822","A37GOI3N77WX21","3P888QFVX40Z2B7BK75OWKP045JQOK","3JJVG1YBED3TDFXYMCH0H9PZKM7B59","emotion","match","uniform","","","","","","","","359320.700000003","361325.200000003","","","","","","","","","","","","4","","stimuli/stars_4.png","162","","","","","stimuli/WM07_SUR.jpg","",""
"explore-choice","133","361781","0.0-133.0","p314822","A37GOI3N77WX21","3P888QFVX40Z2B7BK75OWKP045JQOK","3JJVG1YBED3TDFXYMCH0H9PZKM7B59","emotion","match","uniform","","","","","","","1612.800000000745","361326.30000000075","362939.1000000015","[""stimuli/HM02_DO.jpg"",""stimuli/WF04_SUR.jpg"",""stimuli/AF02_AO.jpg"",""stimuli/WM07_CC.jpg""]","stimuli/HM02_DO.jpg","stimuli/WF04_SUR.jpg","stimuli/AF02_AO.jpg","stimuli/WM07_CC.jpg","pos3","stimuli/AF02_AO.jpg","AO","AF02","2","1","2","2","stimuli/stars_2.png","163","[""DO"",""SUR"",""AO"",""CC""]","[""HM02"",""WF04"",""AF02"",""WM07""]","[7,4,2,6]","[8,6,2,4]","","",""
"show-reward","134","363796","0.0-134.0","p314822","A37GOI3N77WX21","3P888QFVX40Z2B7BK75OWKP045JQOK","3JJVG1YBED3TDFXYMCH0H9PZKM7B59","emotion","match","uniform","","","","","","","","363445.30000000075","365460.1000000015","","","","","","","","","","","","2","","stimuli/stars_2.png","163","","","","","stimuli/AF02_AO.jpg","",""
"explore-choice","135","365616","0.0-135.0","p314822","A37GOI3N77WX21","3P888QFVX40Z2B7BK75OWKP045JQOK","3JJVG1YBED3TDFXYMCH0H9PZKM7B59","emotion","match","uniform","","","","","","","1317.300000000745","365461.30000000075","366778.6000000015","[""stimuli/AF02_DO.jpg"",""stimuli/HM02_SUR.jpg"",""stimuli/WF04_AO.jpg"",""stimuli/WM07_CC.jpg""]","stimuli/AF02_DO.jpg","stimuli/HM02_SUR.jpg","stimuli/WF04_AO.jpg","stimuli/WM07_CC.jpg","pos3","stimuli/WF04_AO.jpg","AO","WF04","2","1.5","3","2","stimuli/stars_3.png","164.5","[""DO"",""SUR"",""AO"",""CC""]","[""AF02"",""HM02"",""WF04"",""WM07""]","[6,5,3,3]","[8,6,2,4]","","",""
"show-reward","136","367626","0.0-136.0","p314822","A37GOI3N77WX21","3P888QFVX40Z2B7BK75OWKP045JQOK","3JJVG1YBED3TDFXYMCH0H9PZKM7B59","emotion","match","uniform","","","","","","","","367280.700000003","369289.30000000075","","","","","","","","","","","","3","","stimuli/stars_3.png","164.5","","","","","stimuli/WF04_AO.jpg","",""
"explore-choice","137","369144","0.0-137.0","p314822","A37GOI3N77WX21","3P888QFVX40Z2B7BK75OWKP045JQOK","3JJVG1YBED3TDFXYMCH0H9PZKM7B59","emotion","match","uniform","","","","","","","1016.4000000022352","369290.30000000075","370306.700000003","[""stimuli/WM07_CC.jpg"",""stimuli/WF04_DO.jpg"",""stimuli/AF02_SUR.jpg"",""stimuli/HM02_AO.jpg""]","stimuli/WM07_CC.jpg","stimuli/WF04_DO.jpg","stimuli/AF02_SUR.jpg","stimuli/HM02_AO.jpg","pos2","stimuli/WF04_DO.jpg","DO","WF04","1","3","6","8","stimuli/stars_6.png","167.5","[""CC"",""DO"",""SUR"",""AO""]","[""WM07"",""WF04"",""AF02"",""HM02""]","[3,6,5,0]","[4,8,6,2]","","",""
"show-reward","138","371146","0.0-138.0","p314822","A37GOI3N77WX21","3P888QFVX40Z2B7BK75OWKP045JQOK","3JJVG1YBED3TDFXYMCH0H9PZKM7B59","emotion","match","uniform","","","","","","","","370808.200000003","372809.700000003","","","","","","","","","","","","6","","stimuli/stars_6.png","167.5","","","","","stimuli/WF04_DO.jpg","",""
"explore-choice","139","374789","0.0-139.0","p314822","A37GOI3N77WX21","3P888QFVX40Z2B7BK75OWKP045JQOK","3JJVG1YBED3TDFXYMCH0H9PZKM7B59","emotion","match","uniform","","","","","","","3136.5","372810.5","375947","[""stimuli/AF02_SUR.jpg"",""stimuli/HM02_DO.jpg"",""stimuli/WM07_AO.jpg"",""stimuli/WF04_CC.jpg""]","stimuli/AF02_SUR.jpg","stimuli/HM02_DO.jpg","stimuli/WM07_AO.jpg","stimuli/WF04_CC.jpg","pos3","stimuli/WM07_AO.jpg","AO","WM07","2","0","0","2","stimuli/stars_0.png","167.5","[""SUR"",""DO"",""AO"",""CC""]","[""AF02"",""HM02"",""WM07"",""WF04""]","[5,6,0,6]","[6,8,2,4]","","",""
"show-reward","140","376798","0.0-140.0","p314822","A37GOI3N77WX21","3P888QFVX40Z2B7BK75OWKP045JQOK","3JJVG1YBED3TDFXYMCH0H9PZKM7B59","emotion","match","uniform","","","","","","","","376453.5","378461.40000000224","","","","","","","","","","","","0","","stimuli/stars_0.png","167.5","","","","","stimuli/WM07_AO.jpg","",""
"explore-choice","141","378832","0.0-141.0","p314822","A37GOI3N77WX21","3P888QFVX40Z2B7BK75OWKP045JQOK","3JJVG1YBED3TDFXYMCH0H9PZKM7B59","emotion","match","uniform","","","","","","","1532.300000000745","378462.5","379994.80000000075","[""stimuli/AF02_SUR.jpg"",""stimuli/WF04_DO.jpg"",""stimuli/HM02_CC.jpg"",""stimuli/WM07_AO.jpg""]","stimuli/AF02_SUR.jpg","stimuli/WF04_DO.jpg","stimuli/HM02_CC.jpg","stimuli/WM07_AO.jpg","pos2","stimuli/WF04_DO.jpg","DO","WF04","1","4","8","8","stimuli/stars_8.png","171.5","[""SUR"",""DO"",""CC"",""AO""]","[""AF02"",""WF04"",""HM02"",""WM07""]","[4,8,5,2]","[6,8,4,2]","","",""
"show-reward","142","380839","0.0-142.0","p314822","A37GOI3N77WX21","3P888QFVX40Z2B7BK75OWKP045JQOK","3JJVG1YBED3TDFXYMCH0H9PZKM7B59","emotion","match","uniform","","","","","","","","380496.80000000075","382502.200000003","","","","","","","","","","","","8","","stimuli/stars_8.png","171.5","","","","","stimuli/WF04_DO.jpg","",""
"explore-choice","143","382552","0.0-143.0","p314822","A37GOI3N77WX21","3P888QFVX40Z2B7BK75OWKP045JQOK","3JJVG1YBED3TDFXYMCH0H9PZKM7B59","emotion","match","uniform","","","","","","","1210.9000000022352","382503.80000000075","383714.700000003","[""stimuli/AF02_CC.jpg"",""stimuli/WM07_DO.jpg"",""stimuli/WF04_SUR.jpg"",""stimuli/HM02_AO.jpg""]","stimuli/AF02_CC.jpg","stimuli/WM07_DO.jpg","stimuli/WF04_SUR.jpg","stimuli/HM02_AO.jpg","pos3","stimuli/WF04_SUR.jpg","SUR","WF04","2","3.5","7","6","stimuli/stars_7.png","175","[""CC"",""DO"",""SUR"",""AO""]","[""AF02"",""WM07"",""WF04"",""HM02""]","[3,10,7,0]","[4,8,6,2]","","",""
"show-reward","144","384564","0.0-144.0","p314822","A37GOI3N77WX21","3P888QFVX40Z2B7BK75OWKP045JQOK","3JJVG1YBED3TDFXYMCH0H9PZKM7B59","emotion","match","uniform","","","","","","","","384216.80000000075","386227.200000003","","","","","","","","","","","","7","","stimuli/stars_7.png","175","","","","","stimuli/WF04_SUR.jpg","",""
"explore-choice","145","387880","0.0-145.0","p314822","A37GOI3N77WX21","3P888QFVX40Z2B7BK75OWKP045JQOK","3JJVG1YBED3TDFXYMCH0H9PZKM7B59","emotion","match","uniform","","","","","","","2813.5","386229.5","389043","[""stimuli/HM02_SUR.jpg"",""stimuli/AF02_DO.jpg"",""stimuli/WF04_CC.jpg"",""stimuli/WM07_AO.jpg""]","stimuli/HM02_SUR.jpg","stimuli/AF02_DO.jpg","stimuli/WF04_CC.jpg","stimuli/WM07_AO.jpg","pos4","stimuli/WM07_AO.jpg","AO","WM07","3","1.5","3","2","stimuli/stars_3.png","176.5","[""SUR"",""DO"",""CC"",""AO""]","[""HM02"",""AF02"",""WF04"",""WM07""]","[5,9,3,3]","[6,8,4,2]","","",""
"show-reward","146","389884","0.0-146.0","p314822","A37GOI3N77WX21","3P888QFVX40Z2B7BK75OWKP045JQOK","3JJVG1YBED3TDFXYMCH0H9PZKM7B59","emotion","match","uniform","","","","","","","","389544.90000000224","391547.6000000015","","","","","","","","","","","","3","","stimuli/stars_3.png","176.5","","","","","stimuli/WM07_AO.jpg","",""
"explore-choice","147","392216","0.0-147.0","p314822","A37GOI3N77WX21","3P888QFVX40Z2B7BK75OWKP045JQOK","3JJVG1YBED3TDFXYMCH0H9PZKM7B59","emotion","match","uniform","","","","","","","1830.5","391548.30000000075","393378.80000000075","[""stimuli/HM02_CC.jpg"",""stimuli/AF02_AO.jpg"",""stimuli/WF04_SUR.jpg"",""stimuli/WM07_DO.jpg""]","stimuli/HM02_CC.jpg","stimuli/AF02_AO.jpg","stimuli/WF04_SUR.jpg","stimuli/WM07_DO.jpg","pos4","stimuli/WM07_DO.jpg","DO","WM07","3","5","10","8","stimuli/stars_10.png","181.5","[""CC"",""AO"",""SUR"",""DO""]","[""HM02"",""AF02"",""WF04"",""WM07""]","[5,2,7,10]","[4,2,6,8]","","",""
"show-reward","148","394220","0.0-148.0","p314822","A37GOI3N77WX21","3P888QFVX40Z2B7BK75OWKP045JQOK","3JJVG1YBED3TDFXYMCH0H9PZKM7B59","emotion","match","uniform","","","","","","","","393880.40000000224","395883.6000000015","","","","","","","","","","","","10","","stimuli/stars_10.png","181.5","","","","","stimuli/WM07_DO.jpg","",""
"explore-choice","149","397247","0.0-149.0","p314822","A37GOI3N77WX21","3P888QFVX40Z2B7BK75OWKP045JQOK","3JJVG1YBED3TDFXYMCH0H9PZKM7B59","emotion","match","uniform","","","","","","","2518.10000000149","395885","398403.1000000015","[""stimuli/WF04_AO.jpg"",""stimuli/WM07_CC.jpg"",""stimuli/AF02_SUR.jpg"",""stimuli/HM02_DO.jpg""]","stimuli/WF04_AO.jpg","stimuli/WM07_CC.jpg","stimuli/AF02_SUR.jpg","stimuli/HM02_DO.jpg","pos2","stimuli/WM07_CC.jpg","CC","WM07","1","1","2","4","stimuli/stars_2.png","182.5","[""AO"",""CC"",""SUR"",""DO""]","[""WF04"",""WM07"",""AF02"",""HM02""]","[0,2,8,7]","[2,4,6,8]","","",""
"show-reward","150","399257","0.0-150.0","p314822","A37GOI3N77WX21","3P888QFVX40Z2B7BK75OWKP045JQOK","3JJVG1YBED3TDFXYMCH0H9PZKM7B59","emotion","match","uniform","","","","","","","","398912","400920.80000000075","","","","","","","","","","","","2","","stimuli/stars_2.png","182.5","","","","","stimuli/WM07_CC.jpg","",""
"explore-choice","151","403128","0.0-151.0","p314822","A37GOI3N77WX21","3P888QFVX40Z2B7BK75OWKP045JQOK","3JJVG1YBED3TDFXYMCH0H9PZKM7B59","emotion","match","uniform","","","","","","","3369.5","400921.5","404291","[""stimuli/WF04_AO.jpg"",""stimuli/WM07_DO.jpg"",""stimuli/AF02_SUR.jpg"",""stimuli/HM02_CC.jpg""]","stimuli/WF04_AO.jpg","stimuli/WM07_DO.jpg","stimuli/AF02_SUR.jpg","stimuli/HM02_CC.jpg","pos2","stimuli/WM07_DO.jpg","DO","WM07","1","3.5","7","8","stimuli/stars_7.png","186","[""AO"",""DO"",""SUR"",""CC""]","[""WF04"",""WM07"",""AF02"",""HM02""]","[1,7,4,3]","[2,8,6,4]","","",""
"show-reward","152","405142","0.0-152.0","p314822","A37GOI3N77WX21","3P888QFVX40Z2B7BK75OWKP045JQOK","3JJVG1YBED3TDFXYMCH0H9PZKM7B59","emotion","match","uniform","","","","","","","","404792.90000000224","406806.1000000015","","","","","","","","","","","","7","","stimuli/stars_7.png","186","","","","","stimuli/WM07_DO.jpg","",""
"explore-choice","153","407343","0.0-153.0","p314822","A37GOI3N77WX21","3P888QFVX40Z2B7BK75OWKP045JQOK","3JJVG1YBED3TDFXYMCH0H9PZKM7B59","emotion","match","uniform","","","","","","","1684.699999999255","406807.1000000015","408491.80000000075","[""stimuli/WF04_SUR.jpg"",""stimuli/WM07_DO.jpg"",""stimuli/AF02_CC.jpg"",""stimuli/HM02_AO.jpg""]","stimuli/WF04_SUR.jpg","stimuli/WM07_DO.jpg","stimuli/AF02_CC.jpg","stimuli/HM02_AO.jpg","pos2","stimuli/WM07_DO.jpg","DO","WM07","1","5","10","8","stimuli/stars_10.png","191","[""SUR"",""DO"",""CC"",""AO""]","[""WF04"",""WM07"",""AF02"",""HM02""]","[7,10,3,0]","[6,8,4,2]","","",""
"show-reward","154","409377","0.0-154.0","p314822","A37GOI3N77WX21","3P888QFVX40Z2B7BK75OWKP045JQOK","3JJVG1YBED3TDFXYMCH0H9PZKM7B59","emotion","match","uniform","","","","","","","","409009.30000000075","411040.6000000015","","","","","","","","","","","","10","","stimuli/stars_10.png","191","","","","","stimuli/WM07_DO.jpg","",""
"explore-choice","155","411272","0.0-155.0","p314822","A37GOI3N77WX21","3P888QFVX40Z2B7BK75OWKP045JQOK","3JJVG1YBED3TDFXYMCH0H9PZKM7B59","emotion","match","uniform","","","","","","","1393.5999999977648","411041.90000000224","412435.5","[""stimuli/HM02_DO.jpg"",""stimuli/AF02_SUR.jpg"",""stimuli/WF04_CC.jpg"",""stimuli/WM07_AO.jpg""]","stimuli/HM02_DO.jpg","stimuli/AF02_SUR.jpg","stimuli/WF04_CC.jpg","stimuli/WM07_AO.jpg","pos4","stimuli/WM07_AO.jpg","AO","WM07","3","0","0","2","stimuli/stars_0.png","191","[""DO"",""SUR"",""CC"",""AO""]","[""HM02"",""AF02"",""WF04"",""WM07""]","[6,5,6,0]","[8,6,4,2]","","",""
"show-reward","156","413288","0.0-156.0","p314822","A37GOI3N77WX21","3P888QFVX40Z2B7BK75OWKP045JQOK","3JJVG1YBED3TDFXYMCH0H9PZKM7B59","emotion","match","uniform","","","","","","","","412937.6000000015","414951.90000000224","","","","","","","","","","","","0","","stimuli/stars_0.png","191","","","","","stimuli/WM07_AO.jpg","",""
"explore-choice","157","416368","0.0-157.0","p314822","A37GOI3N77WX21","3P888QFVX40Z2B7BK75OWKP045JQOK","3JJVG1YBED3TDFXYMCH0H9PZKM7B59","emotion","match","uniform","","","","","","","2578.699999999255","414952.80000000075","417531.5","[""stimuli/WF04_SUR.jpg"",""stimuli/AF02_DO.jpg"",""stimuli/WM07_AO.jpg"",""stimuli/HM02_CC.jpg""]","stimuli/WF04_SUR.jpg","stimuli/AF02_DO.jpg","stimuli/WM07_AO.jpg","stimuli/HM02_CC.jpg","pos3","stimuli/WM07_AO.jpg","AO","WM07","2","1.5","3","2","stimuli/stars_3.png","192.5","[""SUR"",""DO"",""AO"",""CC""]","[""WF04"",""AF02"",""WM07"",""HM02""]","[5,9,3,4]","[6,8,2,4]","","",""
"show-reward","158","418372","0.0-158.0","p314822","A37GOI3N77WX21","3P888QFVX40Z2B7BK75OWKP045JQOK","3JJVG1YBED3TDFXYMCH0H9PZKM7B59","emotion","match","uniform","","","","","","","","418033.1000000015","420036.1000000015","","","","","","","","","","","","3","","stimuli/stars_3.png","192.5","","","","","stimuli/WM07_AO.jpg","",""
"explore-choice","159","422305","0.0-159.0","p314822","A37GOI3N77WX21","3P888QFVX40Z2B7BK75OWKP045JQOK","3JJVG1YBED3TDFXYMCH0H9PZKM7B59","emotion","match","uniform","","","","","","","3431.300000000745","420037","423468.30000000075","[""stimuli/WF04_DO.jpg"",""stimuli/HM02_CC.jpg"",""stimuli/WM07_SUR.jpg"",""stimuli/AF02_AO.jpg""]","stimuli/WF04_DO.jpg","stimuli/HM02_CC.jpg","stimuli/WM07_SUR.jpg","stimuli/AF02_AO.jpg","pos2","stimuli/HM02_CC.jpg","CC","HM02","1","2","4","4","stimuli/stars_4.png","194.5","[""DO"",""CC"",""SUR"",""AO""]","[""WF04"",""HM02"",""WM07"",""AF02""]","[10,4,5,4]","[8,4,6,2]","","",""
"show-reward","160","424322","0.0-160.0","p314822","A37GOI3N77WX21","3P888QFVX40Z2B7BK75OWKP045JQOK","3JJVG1YBED3TDFXYMCH0H9PZKM7B59","emotion","match","uniform","","","","","","","","423969.6000000015","425986","","","","","","","","","","","","4","","stimuli/stars_4.png","194.5","","","","","stimuli/HM02_CC.jpg","",""
"explore-choice","161","426600","0.0-161.0","p314822","A37GOI3N77WX21","3P888QFVX40Z2B7BK75OWKP045JQOK","3JJVG1YBED3TDFXYMCH0H9PZKM7B59","emotion","match","uniform","","","","","","","1776.1000000014901","425987.1000000015","427763.200000003","[""stimuli/WM07_SUR.jpg"",""stimuli/HM02_CC.jpg"",""stimuli/WF04_AO.jpg"",""stimuli/AF02_DO.jpg""]","stimuli/WM07_SUR.jpg","stimuli/HM02_CC.jpg","stimuli/WF04_AO.jpg","stimuli/AF02_DO.jpg","pos1","stimuli/WM07_SUR.jpg","SUR","WM07","0","3","6","6","stimuli/stars_6.png","197.5","[""SUR"",""CC"",""AO"",""DO""]","[""WM07"",""HM02"",""WF04"",""AF02""]","[6,4,1,7]","[6,4,2,8]","","",""
"show-reward","162","428610","0.0-162.0","p314822","A37GOI3N77WX21","3P888QFVX40Z2B7BK75OWKP045JQOK","3JJVG1YBED3TDFXYMCH0H9PZKM7B59","emotion","match","uniform","","","","","","","","428265.200000003","430274.1000000015","","","","","","","","","","","","6","","stimuli/stars_6.png","197.5","","","","","stimuli/WM07_SUR.jpg","",""
"explore-choice","163","432512","0.0-163.0","p314822","A37GOI3N77WX21","3P888QFVX40Z2B7BK75OWKP045JQOK","3JJVG1YBED3TDFXYMCH0H9PZKM7B59","emotion","match","uniform","","","","","","","3392.199999999255","430275.30000000075","433667.5","[""stimuli/AF02_SUR.jpg"",""stimuli/HM02_AO.jpg"",""stimuli/WM07_CC.jpg"",""stimuli/WF04_DO.jpg""]","stimuli/AF02_SUR.jpg","stimuli/HM02_AO.jpg","stimuli/WM07_CC.jpg","stimuli/WF04_DO.jpg","pos2","stimuli/HM02_AO.jpg","AO","HM02","1","0","0","2","stimuli/stars_0.png","197.5","[""SUR"",""AO"",""CC"",""DO""]","[""AF02"",""HM02"",""WM07"",""WF04""]","[5,0,3,6]","[6,2,4,8]","","",""
"show-reward","164","434527","0.0-164.0","p314822","A37GOI3N77WX21","3P888QFVX40Z2B7BK75OWKP045JQOK","3JJVG1YBED3TDFXYMCH0H9PZKM7B59","emotion","match","uniform","","","","","","","","434177.1000000015","436190.80000000075","","","","","","","","","","","","0","","stimuli/stars_0.png","197.5","","","","","stimuli/HM02_AO.jpg","",""
"explore-choice","165","437430","0.0-165.0","p314822","A37GOI3N77WX21","3P888QFVX40Z2B7BK75OWKP045JQOK","3JJVG1YBED3TDFXYMCH0H9PZKM7B59","emotion","match","uniform","","","","","","","2395.599999997765","436191.700000003","438587.30000000075","[""stimuli/WF04_CC.jpg"",""stimuli/HM02_DO.jpg"",""stimuli/AF02_AO.jpg"",""stimuli/WM07_SUR.jpg""]","stimuli/WF04_CC.jpg","stimuli/HM02_DO.jpg","stimuli/AF02_AO.jpg","stimuli/WM07_SUR.jpg","pos4","stimuli/WM07_SUR.jpg","SUR","WM07","3","2.5","5","6","stimuli/stars_5.png","200","[""CC"",""DO"",""AO"",""SUR""]","[""WF04"",""HM02"",""AF02"",""WM07""]","[2,7,3,5]","[4,8,2,6]","","",""
"show-reward","166","439435","0.0-166.0","p314822","A37GOI3N77WX21","3P888QFVX40Z2B7BK75OWKP045JQOK","3JJVG1YBED3TDFXYMCH0H9PZKM7B59","emotion","match","uniform","","","","","","","","439095","441097.90000000224","","","","","","","","","","","","5","","stimuli/stars_5.png","200","","","","","stimuli/WM07_SUR.jpg","",""
"explore-choice","167","441658","0.0-167.0","p314822","A37GOI3N77WX21","3P888QFVX40Z2B7BK75OWKP045JQOK","3JJVG1YBED3TDFXYMCH0H9PZKM7B59","emotion","match","uniform","","","","","","","1718.300000000745","441101.40000000224","442819.700000003","[""stimuli/AF02_CC.jpg"",""stimuli/HM02_SUR.jpg"",""stimuli/WF04_AO.jpg"",""stimuli/WM07_DO.jpg""]","stimuli/AF02_CC.jpg","stimuli/HM02_SUR.jpg","stimuli/WF04_AO.jpg","stimuli/WM07_DO.jpg","pos4","stimuli/WM07_DO.jpg","DO","WM07","3","3.5","7","8","stimuli/stars_7.png","203.5","[""CC"",""SUR"",""AO"",""DO""]","[""AF02"",""HM02"",""WF04"",""WM07""]","[2,5,4,7]","[4,6,2,8]","","",""
"show-reward","168","443669","0.0-168.0","p314822","A37GOI3N77WX21","3P888QFVX40Z2B7BK75OWKP045JQOK","3JJVG1YBED3TDFXYMCH0H9PZKM7B59","emotion","match","uniform","","","","","","","","443322.80000000075","445333.6000000015","","","","","","","","","","","","7","","stimuli/stars_7.png","203.5","","","","","stimuli/WM07_DO.jpg","",""
"explore-choice","169","447400","0.0-169.0","p314822","A37GOI3N77WX21","3P888QFVX40Z2B7BK75OWKP045JQOK","3JJVG1YBED3TDFXYMCH0H9PZKM7B59","emotion","match","uniform","","","","","","","3229.099999997765","445334.700000003","448563.80000000075","[""stimuli/AF02_CC.jpg"",""stimuli/WM07_SUR.jpg"",""stimuli/WF04_DO.jpg"",""stimuli/HM02_AO.jpg""]","stimuli/AF02_CC.jpg","stimuli/WM07_SUR.jpg","stimuli/WF04_DO.jpg","stimuli/HM02_AO.jpg","pos2","stimuli/WM07_SUR.jpg","SUR","WM07","1","2","4","6","stimuli/stars_4.png","205.5","[""CC"",""SUR"",""DO"",""AO""]","[""AF02"",""WM07"",""WF04"",""HM02""]","[4,4,8,0]","[4,6,8,2]","","",""
"show-reward","170","449419","0.0-170.0","p314822","A37GOI3N77WX21","3P888QFVX40Z2B7BK75OWKP045JQOK","3JJVG1YBED3TDFXYMCH0H9PZKM7B59","emotion","match","uniform","","","","","","","","449066.700000003","451083.30000000075","","","","","","","","","","","","4","","stimuli/stars_4.png","205.5","","","","","stimuli/WM07_SUR.jpg","",""
"explore-choice","171","452496","0.0-171.0","p314822","A37GOI3N77WX21","3P888QFVX40Z2B7BK75OWKP045JQOK","3JJVG1YBED3TDFXYMCH0H9PZKM7B59","emotion","match","uniform","","","","","","","2575.60000000149","451084","453659.6000000015","[""stimuli/WM07_CC.jpg"",""stimuli/AF02_DO.jpg"",""stimuli/HM02_SUR.jpg"",""stimuli/WF04_AO.jpg""]","stimuli/WM07_CC.jpg","stimuli/AF02_DO.jpg","stimuli/HM02_SUR.jpg","stimuli/WF04_AO.jpg","pos2","stimuli/AF02_DO.jpg","DO","AF02","1","3","6","8","stimuli/stars_6.png","208.5","[""CC"",""DO"",""SUR"",""AO""]","[""WM07"",""AF02"",""HM02"",""WF04""]","[3,6,5,3]","[4,8,6,2]","","",""
"show-reward","172","454511","0.0-172.0","p314822","A37GOI3N77WX21","3P888QFVX40Z2B7BK75OWKP045JQOK","3JJVG1YBED3TDFXYMCH0H9PZKM7B59","emotion","match","uniform","","","","","","","","454160.6000000015","456175.6000000015","","","","","","","","","","","","6","","stimuli/stars_6.png","208.5","","","","","stimuli/AF02_DO.jpg","",""
"explore-choice","173","457337","0.0-173.0","p314822","A37GOI3N77WX21","3P888QFVX40Z2B7BK75OWKP045JQOK","3JJVG1YBED3TDFXYMCH0H9PZKM7B59","emotion","match","uniform","","","","","","","2323.60000000149","456176.5","458500.1000000015","[""stimuli/HM02_CC.jpg"",""stimuli/WM07_AO.jpg"",""stimuli/AF02_SUR.jpg"",""stimuli/WF04_DO.jpg""]","stimuli/HM02_CC.jpg","stimuli/WM07_AO.jpg","stimuli/AF02_SUR.jpg","stimuli/WF04_DO.jpg","pos2","stimuli/WM07_AO.jpg","AO","WM07","1","1","2","2","stimuli/stars_2.png","209.5","[""CC"",""AO"",""SUR"",""DO""]","[""HM02"",""WM07"",""AF02"",""WF04""]","[5,2,4,8]","[4,2,6,8]","","",""
"show-reward","174","459340","0.0-174.0","p314822","A37GOI3N77WX21","3P888QFVX40Z2B7BK75OWKP045JQOK","3JJVG1YBED3TDFXYMCH0H9PZKM7B59","emotion","match","uniform","","","","","","","","459001.700000003","461003.90000000224","","","","","","","","","","","","2","","stimuli/stars_2.png","209.5","","","","","stimuli/WM07_AO.jpg","",""
"explore-choice","175","462244","0.0-175.0","p314822","A37GOI3N77WX21","3P888QFVX40Z2B7BK75OWKP045JQOK","3JJVG1YBED3TDFXYMCH0H9PZKM7B59","emotion","match","uniform","","","","","","","2391","461004.6000000015","463395.6000000015","[""stimuli/HM02_CC.jpg"",""stimuli/WM07_DO.jpg"",""stimuli/WF04_SUR.jpg"",""stimuli/AF02_AO.jpg""]","stimuli/HM02_CC.jpg","stimuli/WM07_DO.jpg","stimuli/WF04_SUR.jpg","stimuli/AF02_AO.jpg","pos3","stimuli/WF04_SUR.jpg","SUR","WF04","2","3.5","7","6","stimuli/stars_7.png","213","[""CC"",""DO"",""SUR"",""AO""]","[""HM02"",""WM07"",""WF04"",""AF02""]","[5,10,7,2]","[4,8,6,2]","","",""
"show-reward","176","464246","0.0-176.0","p314822","A37GOI3N77WX21","3P888QFVX40Z2B7BK75OWKP045JQOK","3JJVG1YBED3TDFXYMCH0H9PZKM7B59","emotion","match","uniform","","","","","","","","463908.6000000015","465910.30000000075","","","","","","","","","","","","7","","stimuli/stars_7.png","213","","","","","stimuli/WF04_SUR.jpg","",""
"explore-choice","177","467192","0.0-177.0","p314822","A37GOI3N77WX21","3P888QFVX40Z2B7BK75OWKP045JQOK","3JJVG1YBED3TDFXYMCH0H9PZKM7B59","emotion","match","uniform","","","","","","","2430.599999997765","465910.90000000224","468341.5","[""stimuli/HM02_AO.jpg"",""stimuli/WM07_SUR.jpg"",""stimuli/WF04_CC.jpg"",""stimuli/AF02_DO.jpg""]","stimuli/HM02_AO.jpg","stimuli/WM07_SUR.jpg","stimuli/WF04_CC.jpg","stimuli/AF02_DO.jpg","pos2","stimuli/WM07_SUR.jpg","SUR","WM07","1","2","4","6","stimuli/stars_4.png","215","[""AO"",""SUR"",""CC"",""DO""]","[""HM02"",""WM07"",""WF04"",""AF02""]","[2,4,4,9]","[2,6,4,8]","","",""
"show-reward","178","469200","0.0-178.0","p314822","A37GOI3N77WX21","3P888QFVX40Z2B7BK75OWKP045JQOK","3JJVG1YBED3TDFXYMCH0H9PZKM7B59","emotion","match","uniform","","","","","","","","468857.80000000075","470864.30000000075","","","","","","","","","","","","4","","stimuli/stars_4.png","215","","","","","stimuli/WM07_SUR.jpg","",""
"explore-choice","179","472518","0.0-179.0","p314822","A37GOI3N77WX21","3P888QFVX40Z2B7BK75OWKP045JQOK","3JJVG1YBED3TDFXYMCH0H9PZKM7B59","emotion","match","uniform","","","","","","","2810.39999999851","470865.40000000224","473675.80000000075","[""stimuli/WF04_CC.jpg"",""stimuli/HM02_AO.jpg"",""stimuli/AF02_SUR.jpg"",""stimuli/WM07_DO.jpg""]","stimuli/WF04_CC.jpg","stimuli/HM02_AO.jpg","stimuli/AF02_SUR.jpg","stimuli/WM07_DO.jpg","pos4","stimuli/WM07_DO.jpg","DO","WM07","3","5","10","8","stimuli/stars_10.png","220","[""CC"",""AO"",""SUR"",""DO""]","[""WF04"",""HM02"",""AF02"",""WM07""]","[3,0,4,10]","[4,2,6,8]","","",""
"show-reward","180","474524","0.0-180.0","p314822","A37GOI3N77WX21","3P888QFVX40Z2B7BK75OWKP045JQOK","3JJVG1YBED3TDFXYMCH0H9PZKM7B59","emotion","match","uniform","","","","","","","","474183.80000000075","476187.80000000075","","","","","","","","","","","","10","","stimuli/stars_10.png","220","","","","","stimuli/WM07_DO.jpg","",""
"explore-choice","181","476961","0.0-181.0","p314822","A37GOI3N77WX21","3P888QFVX40Z2B7BK75OWKP045JQOK","3JJVG1YBED3TDFXYMCH0H9PZKM7B59","emotion","match","uniform","","","","","","","1934.3999999985099","476189.40000000224","478123.80000000075","[""stimuli/WM07_AO.jpg"",""stimuli/AF02_CC.jpg"",""stimuli/WF04_SUR.jpg"",""stimuli/HM02_DO.jpg""]","stimuli/WM07_AO.jpg","stimuli/AF02_CC.jpg","stimuli/WF04_SUR.jpg","stimuli/HM02_DO.jpg","pos1","stimuli/WM07_AO.jpg","AO","WM07","0","1","2","2","stimuli/stars_2.png","221","[""AO"",""CC"",""SUR"",""DO""]","[""WM07"",""AF02"",""WF04"",""HM02""]","[2,2,4,6]","[2,4,6,8]","","",""
"show-reward","182","478965","0.0-182.0","p314822","A37GOI3N77WX21","3P888QFVX40Z2B7BK75OWKP045JQOK","3JJVG1YBED3TDFXYMCH0H9PZKM7B59","emotion","match","uniform","","","","","","","","478626.1000000015","480628.90000000224","","","","","","","","","","","","2","","stimuli/stars_2.png","221","","","","","stimuli/WM07_AO.jpg","",""
"explore-choice","183","483059","0.0-183.0","p314822","A37GOI3N77WX21","3P888QFVX40Z2B7BK75OWKP045JQOK","3JJVG1YBED3TDFXYMCH0H9PZKM7B59","emotion","match","uniform","","","","","","","3581.800000000745","480630","484211.80000000075","[""stimuli/WF04_CC.jpg"",""stimuli/WM07_AO.jpg"",""stimuli/HM02_SUR.jpg"",""stimuli/AF02_DO.jpg""]","stimuli/WF04_CC.jpg","stimuli/WM07_AO.jpg","stimuli/HM02_SUR.jpg","stimuli/AF02_DO.jpg","pos3","stimuli/HM02_SUR.jpg","SUR","HM02","2","2.5","5","6","stimuli/stars_5.png","223.5","[""CC"",""AO"",""SUR"",""DO""]","[""WF04"",""WM07"",""HM02"",""AF02""]","[3,3,5,9]","[4,2,6,8]","","",""
"show-reward","184","485067","0.0-184.0","p314822","A37GOI3N77WX21","3P888QFVX40Z2B7BK75OWKP045JQOK","3JJVG1YBED3TDFXYMCH0H9PZKM7B59","emotion","match","uniform","","","","","","","","484724.200000003","486730.700000003","","","","","","","","","","","","5","","stimuli/stars_5.png","223.5","","","","","stimuli/HM02_SUR.jpg","",""
"explore-choice","185","487462","0.0-185.0","p314822","A37GOI3N77WX21","3P888QFVX40Z2B7BK75OWKP045JQOK","3JJVG1YBED3TDFXYMCH0H9PZKM7B59","emotion","match","uniform","","","","","","","1888.0999999977648","486731.700000003","488619.80000000075","[""stimuli/AF02_AO.jpg"",""stimuli/HM02_SUR.jpg"",""stimuli/WF04_CC.jpg"",""stimuli/WM07_DO.jpg""]","stimuli/AF02_AO.jpg","stimuli/HM02_SUR.jpg","stimuli/WF04_CC.jpg","stimuli/WM07_DO.jpg","pos4","stimuli/WM07_DO.jpg","DO","WM07","3","5","10","8","stimuli/stars_10.png","228.5","[""AO"",""SUR"",""CC"",""DO""]","[""AF02"",""HM02"",""WF04"",""WM07""]","[4,8,2,10]","[2,6,4,8]","","",""
"show-reward","186","489465","0.0-186.0","p314822","A37GOI3N77WX21","3P888QFVX40Z2B7BK75OWKP045JQOK","3JJVG1YBED3TDFXYMCH0H9PZKM7B59","emotion","match","uniform","","","","","","","","489126.6000000015","491129.30000000075","","","","","","","","","","","","10","","stimuli/stars_10.png","228.5","","","","","stimuli/WM07_DO.jpg","",""
"explore-choice","187","494104","0.0-187.0","p314822","A37GOI3N77WX21","3P888QFVX40Z2B7BK75OWKP045JQOK","3JJVG1YBED3TDFXYMCH0H9PZKM7B59","emotion","match","uniform","","","","","","","4130.300000000745","491130","495260.30000000075","[""stimuli/AF02_AO.jpg"",""stimuli/WM07_CC.jpg"",""stimuli/HM02_DO.jpg"",""stimuli/WF04_SUR.jpg""]","stimuli/AF02_AO.jpg","stimuli/WM07_CC.jpg","stimuli/HM02_DO.jpg","stimuli/WF04_SUR.jpg","pos2","stimuli/WM07_CC.jpg","CC","WM07","1","3","6","4","stimuli/stars_6.png","231.5","[""AO"",""CC"",""DO"",""SUR""]","[""AF02"",""WM07"",""HM02"",""WF04""]","[2,6,7,4]","[2,4,8,6]","","",""
"show-reward","188","496117","0.0-188.0","p314822","A37GOI3N77WX21","3P888QFVX40Z2B7BK75OWKP045JQOK","3JJVG1YBED3TDFXYMCH0H9PZKM7B59","emotion","match","uniform","","","","","","","","495769.200000003","497780.5","","","","","","","","","","","","6","","stimuli/stars_6.png","231.5","","","","","stimuli/WM07_CC.jpg","",""
"explore-choice","189","500349","0.0-189.0","p314822","A37GOI3N77WX21","3P888QFVX40Z2B7BK75OWKP045JQOK","3JJVG1YBED3TDFXYMCH0H9PZKM7B59","emotion","match","uniform","","","","","","","3718.800000000745","497781.30000000075","501500.1000000015","[""stimuli/WM07_SUR.jpg"",""stimuli/WF04_AO.jpg"",""stimuli/HM02_DO.jpg"",""stimuli/AF02_CC.jpg""]","stimuli/WM07_SUR.jpg","stimuli/WF04_AO.jpg","stimuli/HM02_DO.jpg","stimuli/AF02_CC.jpg","pos1","stimuli/WM07_SUR.jpg","SUR","WM07","0","3","6","6","stimuli/stars_6.png","234.5","[""SUR"",""AO"",""DO"",""CC""]","[""WM07"",""WF04"",""HM02"",""AF02""]","[6,3,8,5]","[6,2,8,4]","","",""
"show-reward","190","502362","0.0-190.0","p314822","A37GOI3N77WX21","3P888QFVX40Z2B7BK75OWKP045JQOK","3JJVG1YBED3TDFXYMCH0H9PZKM7B59","emotion","match","uniform","","","","","","","","502013.6000000015","504026","","","","","","","","","","","","6","","stimuli/stars_6.png","234.5","","","","","stimuli/WM07_SUR.jpg","",""
"explore-choice","191","507749","0.0-191.0","p314822","A37GOI3N77WX21","3P888QFVX40Z2B7BK75OWKP045JQOK","3JJVG1YBED3TDFXYMCH0H9PZKM7B59","emotion","match","uniform","","","","","","","4873.699999999255","504026.90000000224","508900.6000000015","[""stimuli/AF02_DO.jpg"",""stimuli/WM07_CC.jpg"",""stimuli/WF04_SUR.jpg"",""stimuli/HM02_AO.jpg""]","stimuli/AF02_DO.jpg","stimuli/WM07_CC.jpg","stimuli/WF04_SUR.jpg","stimuli/HM02_AO.jpg","pos2","stimuli/WM07_CC.jpg","CC","WM07","1","2.5","5","4","stimuli/stars_5.png","237","[""DO"",""CC"",""SUR"",""AO""]","[""AF02"",""WM07"",""WF04"",""HM02""]","[7,5,4,2]","[8,4,6,2]","","",""
"show-reward","192","509767","0.0-192.0","p314822","A37GOI3N77WX21","3P888QFVX40Z2B7BK75OWKP045JQOK","3JJVG1YBED3TDFXYMCH0H9PZKM7B59","emotion","match","uniform","","","","","","","","509414","511430.90000000224","","","","","","","","","","","","5","","stimuli/stars_5.png","237","","","","","stimuli/WM07_CC.jpg","",""
"explore-choice","193","513223","0.0-193.0","p314822","A37GOI3N77WX21","3P888QFVX40Z2B7BK75OWKP045JQOK","3JJVG1YBED3TDFXYMCH0H9PZKM7B59","emotion","match","uniform","","","","","","","2948.199999999255","511432.200000003","514380.40000000224","[""stimuli/HM02_SUR.jpg"",""stimuli/AF02_CC.jpg"",""stimuli/WF04_DO.jpg"",""stimuli/WM07_AO.jpg""]","stimuli/HM02_SUR.jpg","stimuli/AF02_CC.jpg","stimuli/WF04_DO.jpg","stimuli/WM07_AO.jpg","pos1","stimuli/HM02_SUR.jpg","SUR","HM02","0","2","4","6","stimuli/stars_4.png","239","[""SUR"",""CC"",""DO"",""AO""]","[""HM02"",""AF02"",""WF04"",""WM07""]","[4,4,6,0]","[6,4,8,2]","","",""
"show-reward","194","515227","0.0-194.0","p314822","A37GOI3N77WX21","3P888QFVX40Z2B7BK75OWKP045JQOK","3JJVG1YBED3TDFXYMCH0H9PZKM7B59","emotion","match","uniform","","","","","","","","514888.200000003","516891.30000000075","","","","","","","","","","","","4","","stimuli/stars_4.png","239","","","","","stimuli/HM02_SUR.jpg","",""
"explore-choice","195","519137","0.0-195.0","p314822","A37GOI3N77WX21","3P888QFVX40Z2B7BK75OWKP045JQOK","3JJVG1YBED3TDFXYMCH0H9PZKM7B59","emotion","match","uniform","","","","","","","3407.89999999851","516892.1000000015","520300","[""stimuli/AF02_SUR.jpg"",""stimuli/HM02_DO.jpg"",""stimuli/WM07_CC.jpg"",""stimuli/WF04_AO.jpg""]","stimuli/AF02_SUR.jpg","stimuli/HM02_DO.jpg","stimuli/WM07_CC.jpg","stimuli/WF04_AO.jpg","pos1","stimuli/AF02_SUR.jpg","SUR","AF02","0","4","8","6","stimuli/stars_8.png","243","[""SUR"",""DO"",""CC"",""AO""]","[""AF02"",""HM02"",""WM07"",""WF04""]","[8,7,2,0]","[6,8,4,2]","","",""
"show-reward","196","521142","0.0-196.0","p314822","A37GOI3N77WX21","3P888QFVX40Z2B7BK75OWKP045JQOK","3JJVG1YBED3TDFXYMCH0H9PZKM7B59","emotion","match","uniform","","","","","","","","520801.700000003","522806.30000000075","","","","","","","","","","","","8","","stimuli/stars_8.png","243","","","","","stimuli/AF02_SUR.jpg","",""
"explore-choice","197","523282","0.0-197.0","p314822","A37GOI3N77WX21","3P888QFVX40Z2B7BK75OWKP045JQOK","3JJVG1YBED3TDFXYMCH0H9PZKM7B59","emotion","match","uniform","","","","","","","1637","522807.6000000015","524444.6000000015","[""stimuli/WF04_DO.jpg"",""stimuli/HM02_SUR.jpg"",""stimuli/WM07_CC.jpg"",""stimuli/AF02_AO.jpg""]","stimuli/WF04_DO.jpg","stimuli/HM02_SUR.jpg","stimuli/WM07_CC.jpg","stimuli/AF02_AO.jpg","pos4","stimuli/AF02_AO.jpg","AO","AF02","3","2","4","2","stimuli/stars_4.png","245","[""DO"",""SUR"",""CC"",""AO""]","[""WF04"",""HM02"",""WM07"",""AF02""]","[6,7,2,4]","[8,6,4,2]","","",""
"show-reward","198","525293","0.0-198.0","p314822","A37GOI3N77WX21","3P888QFVX40Z2B7BK75OWKP045JQOK","3JJVG1YBED3TDFXYMCH0H9PZKM7B59","emotion","match","uniform","","","","","","","","524946.5","526957.1000000015","","","","","","","","","","","","4","","stimuli/stars_4.png","245","","","","","stimuli/AF02_AO.jpg","",""
"instructions","199","530234","0.0-199.0","p314822","A37GOI3N77WX21","3P888QFVX40Z2B7BK75OWKP045JQOK","3JJVG1YBED3TDFXYMCH0H9PZKM7B59","emotion","match","uniform","","","","","","[{""page_index"":0,""viewing_time"":4938.199999999255}]","4939","","","","","","","","","","","","","","","","","","","","","","","",""
"survey-text","200","533217","0.0-200.0-0.0","p314822","A37GOI3N77WX21","3P888QFVX40Z2B7BK75OWKP045JQOK","3JJVG1YBED3TDFXYMCH0H9PZKM7B59","emotion","match","uniform","","","","","","","2979.800000000745","","","","","","","","","","","","","","","","","","","","","","","{""age"":""31""}",""
"survey-text","201","535957","0.0-200.0-1.0","p314822","A37GOI3N77WX21","3P888QFVX40Z2B7BK75OWKP045JQOK","3JJVG1YBED3TDFXYMCH0H9PZKM7B59","emotion","match","uniform","","","","","","","2737","","","","","","","","","","","","","","","","","","","","","","","{""gender"":""Male""}",""
"survey-text","202","542389","0.0-200.0-2.0","p314822","A37GOI3N77WX21","3P888QFVX40Z2B7BK75OWKP045JQOK","3JJVG1YBED3TDFXYMCH0H9PZKM7B59","emotion","match","uniform","","","","","","","6429.60000000149","","","","","","","","","","","","","","","","","","","","","","","{""country"":""United States""}",""
"survey-text","203","548805","0.0-200.0-3.0","p314822","A37GOI3N77WX21","3P888QFVX40Z2B7BK75OWKP045JQOK","3JJVG1YBED3TDFXYMCH0H9PZKM7B59","emotion","match","uniform","","","","","","","6413.39999999851","","","","","","","","","","","","","","","","","","","","","","","{""language"":""English"",""other_languages"":""Spanish""}",""
"survey-multi-select","204","551631","0.0-201.0","p314822","A37GOI3N77WX21","3P888QFVX40Z2B7BK75OWKP045JQOK","3JJVG1YBED3TDFXYMCH0H9PZKM7B59","emotion","match","uniform","","","","","","","2821.5","","","","","","","","","","","","","","","","","","","","","","","{""race"":[""Hispanic or Latino""]}","[0]"
"survey-multi-choice","205","553862","0.0-202.0","p314822","A37GOI3N77WX21","3P888QFVX40Z2B7BK75OWKP045JQOK","3JJVG1YBED3TDFXYMCH0H9PZKM7B59","emotion","match","uniform","","","","","","","2228.89999999851","","","","","","","","","","","","","","","","","","","","","","","{""education"":""High school""}","[0]"
"survey-text","206","579966","0.0-203.0","p314822","A37GOI3N77WX21","3P888QFVX40Z2B7BK75OWKP045JQOK","3JJVG1YBED3TDFXYMCH0H9PZKM7B59","emotion","match","uniform","","","","","","","26099.800000000745","","","","","","","","","","","","","","","","","","","","","","","{""patterns"":""Nothing in particular."",""strategy"":""I tried to form a mental image of the very best payout amounts."",""comments"":""No issues. Great experiment!""}",""
