"trial_type","trial_index","time_elapsed","internal_node_id","subject","workerId","hitId","assignmentId","structure_condition","match_condition","noise_type","success","timeout","failed_images","failed_audio","failed_video","view_history","rt","start_time","end_time","stimuli","image1","image2","image3","image4","choiceLocation","choiceImage","choiceEmotion","choiceModel","choice_index","reward_score","reward","reward_score_unadjusted","reward_image","score_after_trial","emotions","models","rewards","rewards_unadjusted","stimulus","response","question_order"
"pavlovia","0","16","0.0-0.0","p828701","A3OTBMKOEQ410P","3UUIU9GZC6BQMHTLWW3KSJ0W7IE5TB","3W92K5RLWWN8MTV4RT80ILJ6NEN5V9","emotion","match","uniform","","","","","","","","","","","","","","","","","","","","","","","","","","","","","","",""
"preload","1","2439","0.0-1.0","p828701","A3OTBMKOEQ410P","3UUIU9GZC6BQMHTLWW3KSJ0W7IE5TB","3W92K5RLWWN8MTV4RT80ILJ6NEN5V9","emotion","match","uniform","true","false","[]","[]","[]","","","","","","","","","","","","","","","","","","","","","","","","","",""
"fullscreen","2","164385","0.0-2.0","p828701","A3OTBMKOEQ410P","3UUIU9GZC6BQMHTLWW3KSJ0W7IE5TB","3W92K5RLWWN8MTV4RT80ILJ6NEN5V9","emotion","match","uniform","true","","","","","","","","","","","","","","","","","","","","","","","","","","","","","",""
"instructions","3","168055","0.0-3.0","p828701","A3OTBMKOEQ410P","3UUIU9GZC6BQMHTLWW3KSJ0W7IE5TB","3W92K5RLWWN8MTV4RT80ILJ6NEN5V9","emotion","match","uniform","","","","","","[{""page_index"":0,""viewing_time"":3667.5999999940395}]","3668.2000000178814","","","","","","","","","","","","","","","","","","","","","","","",""
"explore-choice","4","174282","0.0-4.0","p828701","A3OTBMKOEQ410P","3UUIU9GZC6BQMHTLWW3KSJ0W7IE5TB","3W92K5RLWWN8MTV4RT80ILJ6NEN5V9","emotion","match","uniform","","","","","","","5719.0999999940395","170106.5","175825.59999999404","[""stimuli/sheep.jpg"",""stimuli/hammer.jpg"",""stimuli/basketball.jpg"",""stimuli/horse.jpg""]","stimuli/sheep.jpg","stimuli/hammer.jpg","stimuli/basketball.jpg","stimuli/horse.jpg","pos4","stimuli/horse.jpg","","","3","64","64","64","stimuli/stars_8.png","65","","","","","","",""
"explore-choice","5","175979","0.0-5.0","p828701","A3OTBMKOEQ410P","3UUIU9GZC6BQMHTLWW3KSJ0W7IE5TB","3W92K5RLWWN8MTV4RT80ILJ6NEN5V9","emotion","match","uniform","","","","","","","1195.2000000178814","176333.69999998808","177528.90000000596","[""stimuli/hammer.jpg"",""stimuli/basketball.jpg"",""stimuli/horse.jpg"",""stimuli/sheep.jpg""]","stimuli/hammer.jpg","stimuli/basketball.jpg","stimuli/horse.jpg","stimuli/sheep.jpg","pos1","stimuli/hammer.jpg","","","0","8","8","8","stimuli/stars_2.png","9","","","","","","",""
"instructions","6","186167","0.0-6.0","p828701","A3OTBMKOEQ410P","3UUIU9GZC6BQMHTLWW3KSJ0W7IE5TB","3W92K5RLWWN8MTV4RT80ILJ6NEN5V9","emotion","match","uniform","","","","","","[{""page_index"":0,""viewing_time"":10185.90000000596}]","10186.199999988079","","","","","","","","","","","","","","","","","","","","","","","",""
"explore-choice","7","187910","0.0-7.0","p828701","A3OTBMKOEQ410P","3UUIU9GZC6BQMHTLWW3KSJ0W7IE5TB","3W92K5RLWWN8MTV4RT80ILJ6NEN5V9","emotion","match","uniform","","","","","","","1230.2999999821186","188218.40000000596","189448.69999998808","[""stimuli/BM16_HO.jpg"",""stimuli/WF06_DO.jpg"",""stimuli/BF05_CC.jpg"",""stimuli/BM07_HE.jpg""]","stimuli/BM16_HO.jpg","stimuli/WF06_DO.jpg","stimuli/BF05_CC.jpg","stimuli/BM07_HE.jpg","pos4","stimuli/BM07_HE.jpg","HE","BM07","3","2","4","2","stimuli/stars_4.png","3","[""HO"",""DO"",""CC"",""HE""]","[""BM16"",""WF06"",""BF05"",""BM07""]","[10,2,8,4]","[8,4,6,2]","","",""
"show-reward","8","189921","0.0-8.0","p828701","A3OTBMKOEQ410P","3UUIU9GZC6BQMHTLWW3KSJ0W7IE5TB","3W92K5RLWWN8MTV4RT80ILJ6NEN5V9","emotion","match","uniform","","","","","","","","189962.5","191970.79999998212","","","","","","","","","","","","4","","stimuli/stars_4.png","3","","","","","stimuli/BM07_HE.jpg","",""
"explore-choice","9","192795","0.0-9.0","p828701","A3OTBMKOEQ410P","3UUIU9GZC6BQMHTLWW3KSJ0W7IE5TB","3W92K5RLWWN8MTV4RT80ILJ6NEN5V9","emotion","match","uniform","","","","","","","2372.0999999940395","191972.40000000596","194344.5","[""stimuli/BM16_HO.jpg"",""stimuli/BF05_CC.jpg"",""stimuli/WF06_HE.jpg"",""stimuli/BM07_DO.jpg""]","stimuli/BM16_HO.jpg","stimuli/BF05_CC.jpg","stimuli/WF06_HE.jpg","stimuli/BM07_DO.jpg","pos1","stimuli/BM16_HO.jpg","HO","BM16","0","5","10","8","stimuli/stars_10.png","8","[""HO"",""CC"",""HE"",""DO""]","[""BM16"",""BF05"",""WF06"",""BM07""]","[10,5,3,5]","[8,6,2,4]","","",""
"show-reward","10","194800","0.0-10.0","p828701","A3OTBMKOEQ410P","3UUIU9GZC6BQMHTLWW3KSJ0W7IE5TB","3W92K5RLWWN8MTV4RT80ILJ6NEN5V9","emotion","match","uniform","","","","","","","","194846.69999998808","196850.19999998808","","","","","","","","","","","","10","","stimuli/stars_10.png","8","","","","","stimuli/BM16_HO.jpg","",""
"explore-choice","11","196759","0.0-11.0","p828701","A3OTBMKOEQ410P","3UUIU9GZC6BQMHTLWW3KSJ0W7IE5TB","3W92K5RLWWN8MTV4RT80ILJ6NEN5V9","emotion","match","uniform","","","","","","","1453.199999988079","196851.40000000596","198304.59999999404","[""stimuli/BM07_DO.jpg"",""stimuli/BF05_CC.jpg"",""stimuli/WF06_HO.jpg"",""stimuli/BM16_HE.jpg""]","stimuli/BM07_DO.jpg","stimuli/BF05_CC.jpg","stimuli/WF06_HO.jpg","stimuli/BM16_HE.jpg","pos4","stimuli/BM16_HE.jpg","HE","BM16","3","0","0","2","stimuli/stars_0.png","8","[""DO"",""CC"",""HO"",""HE""]","[""BM07"",""BF05"",""WF06"",""BM16""]","[4,5,9,0]","[4,6,8,2]","","",""
"show-reward","12","198770","0.0-12.0","p828701","A3OTBMKOEQ410P","3UUIU9GZC6BQMHTLWW3KSJ0W7IE5TB","3W92K5RLWWN8MTV4RT80ILJ6NEN5V9","emotion","match","uniform","","","","","","","","198810.5","200820","","","","","","","","","","","","0","","stimuli/stars_0.png","8","","","","","stimuli/BM16_HE.jpg","",""
"explore-choice","13","201048","0.0-13.0","p828701","A3OTBMKOEQ410P","3UUIU9GZC6BQMHTLWW3KSJ0W7IE5TB","3W92K5RLWWN8MTV4RT80ILJ6NEN5V9","emotion","match","uniform","","","","","","","1771.5","200821.29999998212","202592.79999998212","[""stimuli/BM07_HO.jpg"",""stimuli/BF05_CC.jpg"",""stimuli/BM16_HE.jpg"",""stimuli/WF06_DO.jpg""]","stimuli/BM07_HO.jpg","stimuli/BF05_CC.jpg","stimuli/BM16_HE.jpg","stimuli/WF06_DO.jpg","pos2","stimuli/BF05_CC.jpg","CC","BF05","1","2","4","6","stimuli/stars_4.png","10","[""HO"",""CC"",""HE"",""DO""]","[""BM07"",""BF05"",""BM16"",""WF06""]","[9,4,0,4]","[8,6,2,4]","","",""
"show-reward","14","203054","0.0-14.0","p828701","A3OTBMKOEQ410P","3UUIU9GZC6BQMHTLWW3KSJ0W7IE5TB","3W92K5RLWWN8MTV4RT80ILJ6NEN5V9","emotion","match","uniform","","","","","","","","203099.69999998808","205103.40000000596","","","","","","","","","","","","4","","stimuli/stars_4.png","10","","","","","stimuli/BF05_CC.jpg","",""
"explore-choice","15","205587","0.0-15.0","p828701","A3OTBMKOEQ410P","3UUIU9GZC6BQMHTLWW3KSJ0W7IE5TB","3W92K5RLWWN8MTV4RT80ILJ6NEN5V9","emotion","match","uniform","","","","","","","2031.5","205104.90000000596","207136.40000000596","[""stimuli/BF05_HO.jpg"",""stimuli/BM07_DO.jpg"",""stimuli/WF06_CC.jpg"",""stimuli/BM16_HE.jpg""]","stimuli/BF05_HO.jpg","stimuli/BM07_DO.jpg","stimuli/WF06_CC.jpg","stimuli/BM16_HE.jpg","pos1","stimuli/BF05_HO.jpg","HO","BF05","0","4.5","9","8","stimuli/stars_9.png","14.5","[""HO"",""DO"",""CC"",""HE""]","[""BF05"",""BM07"",""WF06"",""BM16""]","[9,2,8,3]","[8,4,6,2]","","",""
"show-reward","16","207598","0.0-16.0","p828701","A3OTBMKOEQ410P","3UUIU9GZC6BQMHTLWW3KSJ0W7IE5TB","3W92K5RLWWN8MTV4RT80ILJ6NEN5V9","emotion","match","uniform","","","","","","","","207638.69999998808","209647.79999998212","","","","","","","","","","","","9","","stimuli/stars_9.png","14.5","","","","","stimuli/BF05_HO.jpg","",""
"explore-choice","17","209406","0.0-17.0","p828701","A3OTBMKOEQ410P","3UUIU9GZC6BQMHTLWW3KSJ0W7IE5TB","3W92K5RLWWN8MTV4RT80ILJ6NEN5V9","emotion","match","uniform","","","","","","","1295.300000011921","209649.09999999404","210944.40000000596","[""stimuli/BF05_CC.jpg"",""stimuli/BM07_HE.jpg"",""stimuli/WF06_HO.jpg"",""stimuli/BM16_DO.jpg""]","stimuli/BF05_CC.jpg","stimuli/BM07_HE.jpg","stimuli/WF06_HO.jpg","stimuli/BM16_DO.jpg","pos3","stimuli/WF06_HO.jpg","HO","WF06","2","4.5","9","8","stimuli/stars_9.png","19","[""CC"",""HE"",""HO"",""DO""]","[""BF05"",""BM07"",""WF06"",""BM16""]","[7,0,9,3]","[6,2,8,4]","","",""
"show-reward","18","211416","0.0-18.0","p828701","A3OTBMKOEQ410P","3UUIU9GZC6BQMHTLWW3KSJ0W7IE5TB","3W92K5RLWWN8MTV4RT80ILJ6NEN5V9","emotion","match","uniform","","","","","","","","211456.5","213466","","","","","","","","","","","","9","","stimuli/stars_9.png","19","","","","","stimuli/WF06_HO.jpg","",""
"explore-choice","19","213815","0.0-19.0","p828701","A3OTBMKOEQ410P","3UUIU9GZC6BQMHTLWW3KSJ0W7IE5TB","3W92K5RLWWN8MTV4RT80ILJ6NEN5V9","emotion","match","uniform","","","","","","","1893.0999999940395","213467.40000000596","215360.5","[""stimuli/BM16_CC.jpg"",""stimuli/BM07_HE.jpg"",""stimuli/WF06_HO.jpg"",""stimuli/BF05_DO.jpg""]","stimuli/BM16_CC.jpg","stimuli/BM07_HE.jpg","stimuli/WF06_HO.jpg","stimuli/BF05_DO.jpg","pos2","stimuli/BM07_HE.jpg","HE","BM07","1","0","0","2","stimuli/stars_0.png","19","[""CC"",""HE"",""HO"",""DO""]","[""BM16"",""BM07"",""WF06"",""BF05""]","[7,0,9,5]","[6,2,8,4]","","",""
"show-reward","20","215831","0.0-20.0","p828701","A3OTBMKOEQ410P","3UUIU9GZC6BQMHTLWW3KSJ0W7IE5TB","3W92K5RLWWN8MTV4RT80ILJ6NEN5V9","emotion","match","uniform","","","","","","","","215866","217880.90000000596","","","","","","","","","","","","0","","stimuli/stars_0.png","19","","","","","stimuli/BM07_HE.jpg","",""
"explore-choice","21","217878","0.0-21.0","p828701","A3OTBMKOEQ410P","3UUIU9GZC6BQMHTLWW3KSJ0W7IE5TB","3W92K5RLWWN8MTV4RT80ILJ6NEN5V9","emotion","match","uniform","","","","","","","1542.1000000238419","217882.29999998212","219424.40000000596","[""stimuli/BF05_HO.jpg"",""stimuli/BM16_DO.jpg"",""stimuli/BM07_CC.jpg"",""stimuli/WF06_HE.jpg""]","stimuli/BF05_HO.jpg","stimuli/BM16_DO.jpg","stimuli/BM07_CC.jpg","stimuli/WF06_HE.jpg","pos4","stimuli/WF06_HE.jpg","HE","WF06","3","0","0","2","stimuli/stars_0.png","19","[""HO"",""DO"",""CC"",""HE""]","[""BF05"",""BM16"",""BM07"",""WF06""]","[8,3,5,0]","[8,4,6,2]","","",""
"show-reward","22","219895","0.0-22.0","p828701","A3OTBMKOEQ410P","3UUIU9GZC6BQMHTLWW3KSJ0W7IE5TB","3W92K5RLWWN8MTV4RT80ILJ6NEN5V9","emotion","match","uniform","","","","","","","","219928.79999998212","221944.5","","","","","","","","","","","","0","","stimuli/stars_0.png","19","","","","","stimuli/WF06_HE.jpg","",""
"explore-choice","23","223163","0.0-23.0","p828701","A3OTBMKOEQ410P","3UUIU9GZC6BQMHTLWW3KSJ0W7IE5TB","3W92K5RLWWN8MTV4RT80ILJ6NEN5V9","emotion","match","uniform","","","","","","","2766.4000000059605","221946.09999999404","224712.5","[""stimuli/BM07_HO.jpg"",""stimuli/BF05_HE.jpg"",""stimuli/BM16_CC.jpg"",""stimuli/WF06_DO.jpg""]","stimuli/BM07_HO.jpg","stimuli/BF05_HE.jpg","stimuli/BM16_CC.jpg","stimuli/WF06_DO.jpg","pos1","stimuli/BM07_HO.jpg","HO","BM07","0","4","8","8","stimuli/stars_8.png","23","[""HO"",""HE"",""CC"",""DO""]","[""BM07"",""BF05"",""BM16"",""WF06""]","[8,2,8,3]","[8,2,6,4]","","",""
"show-reward","24","225180","0.0-24.0","p828701","A3OTBMKOEQ410P","3UUIU9GZC6BQMHTLWW3KSJ0W7IE5TB","3W92K5RLWWN8MTV4RT80ILJ6NEN5V9","emotion","match","uniform","","","","","","","","225214.5","227229.5","","","","","","","","","","","","8","","stimuli/stars_8.png","23","","","","","stimuli/BM07_HO.jpg","",""
"explore-choice","25","227461","0.0-25.0","p828701","A3OTBMKOEQ410P","3UUIU9GZC6BQMHTLWW3KSJ0W7IE5TB","3W92K5RLWWN8MTV4RT80ILJ6NEN5V9","emotion","match","uniform","","","","","","","1777.2999999821186","227230.90000000596","229008.19999998808","[""stimuli/BM07_DO.jpg"",""stimuli/WF06_HO.jpg"",""stimuli/BF05_HE.jpg"",""stimuli/BM16_CC.jpg""]","stimuli/BM07_DO.jpg","stimuli/WF06_HO.jpg","stimuli/BF05_HE.jpg","stimuli/BM16_CC.jpg","pos2","stimuli/WF06_HO.jpg","HO","WF06","1","4","8","8","stimuli/stars_8.png","27","[""DO"",""HO"",""HE"",""CC""]","[""BM07"",""WF06"",""BF05"",""BM16""]","[3,8,3,7]","[4,8,2,6]","","",""
"show-reward","26","229466","0.0-26.0","p828701","A3OTBMKOEQ410P","3UUIU9GZC6BQMHTLWW3KSJ0W7IE5TB","3W92K5RLWWN8MTV4RT80ILJ6NEN5V9","emotion","match","uniform","","","","","","","","229512","231515.69999998808","","","","","","","","","","","","8","","stimuli/stars_8.png","27","","","","","stimuli/WF06_HO.jpg","",""
"explore-choice","27","231491","0.0-27.0","p828701","A3OTBMKOEQ410P","3UUIU9GZC6BQMHTLWW3KSJ0W7IE5TB","3W92K5RLWWN8MTV4RT80ILJ6NEN5V9","emotion","match","uniform","","","","","","","1523.2999999821186","231516.90000000596","233040.19999998808","[""stimuli/WF06_CC.jpg"",""stimuli/BF05_HE.jpg"",""stimuli/BM16_DO.jpg"",""stimuli/BM07_HO.jpg""]","stimuli/WF06_CC.jpg","stimuli/BF05_HE.jpg","stimuli/BM16_DO.jpg","stimuli/BM07_HO.jpg","pos2","stimuli/BF05_HE.jpg","HE","BF05","1","0","0","2","stimuli/stars_0.png","27","[""CC"",""HE"",""DO"",""HO""]","[""WF06"",""BF05"",""BM16"",""BM07""]","[6,0,4,6]","[6,2,4,8]","","",""
"show-reward","28","233509","0.0-28.0","p828701","A3OTBMKOEQ410P","3UUIU9GZC6BQMHTLWW3KSJ0W7IE5TB","3W92K5RLWWN8MTV4RT80ILJ6NEN5V9","emotion","match","uniform","","","","","","","","233542.40000000596","235559.09999999404","","","","","","","","","","","","0","","stimuli/stars_0.png","27","","","","","stimuli/BF05_HE.jpg","",""
"explore-choice","29","237548","0.0-29.0","p828701","A3OTBMKOEQ410P","3UUIU9GZC6BQMHTLWW3KSJ0W7IE5TB","3W92K5RLWWN8MTV4RT80ILJ6NEN5V9","emotion","match","uniform","","","","","","","3536","235560.29999998212","239096.29999998212","[""stimuli/WF06_HE.jpg"",""stimuli/BM16_HO.jpg"",""stimuli/BF05_DO.jpg"",""stimuli/BM07_CC.jpg""]","stimuli/WF06_HE.jpg","stimuli/BM16_HO.jpg","stimuli/BF05_DO.jpg","stimuli/BM07_CC.jpg","pos2","stimuli/BM16_HO.jpg","HO","BM16","1","4.5","9","8","stimuli/stars_9.png","31.5","[""HE"",""HO"",""DO"",""CC""]","[""WF06"",""BM16"",""BF05"",""BM07""]","[2,9,6,8]","[2,8,4,6]","","",""
"show-reward","30","239559","0.0-30.0","p828701","A3OTBMKOEQ410P","3UUIU9GZC6BQMHTLWW3KSJ0W7IE5TB","3W92K5RLWWN8MTV4RT80ILJ6NEN5V9","emotion","match","uniform","","","","","","","","239599.59999999404","241609.09999999404","","","","","","","","","","","","9","","stimuli/stars_9.png","31.5","","","","","stimuli/BM16_HO.jpg","",""
"explore-choice","31","241919","0.0-31.0","p828701","A3OTBMKOEQ410P","3UUIU9GZC6BQMHTLWW3KSJ0W7IE5TB","3W92K5RLWWN8MTV4RT80ILJ6NEN5V9","emotion","match","uniform","","","","","","","1853.800000011921","241610.29999998212","243464.09999999404","[""stimuli/BM07_CC.jpg"",""stimuli/WF06_HO.jpg"",""stimuli/BM16_DO.jpg"",""stimuli/BF05_HE.jpg""]","stimuli/BM07_CC.jpg","stimuli/WF06_HO.jpg","stimuli/BM16_DO.jpg","stimuli/BF05_HE.jpg","pos3","stimuli/BM16_DO.jpg","DO","BM16","2","1","2","4","stimuli/stars_2.png","32.5","[""CC"",""HO"",""DO"",""HE""]","[""BM07"",""WF06"",""BM16"",""BF05""]","[5,6,2,2]","[6,8,4,2]","","",""
"show-reward","32","243938","0.0-32.0","p828701","A3OTBMKOEQ410P","3UUIU9GZC6BQMHTLWW3KSJ0W7IE5TB","3W92K5RLWWN8MTV4RT80ILJ6NEN5V9","emotion","match","uniform","","","","","","","","243969.69999998808","245988.29999998212","","","","","","","","","","","","2","","stimuli/stars_2.png","32.5","","","","","stimuli/BM16_DO.jpg","",""
"explore-choice","33","246663","0.0-33.0","p828701","A3OTBMKOEQ410P","3UUIU9GZC6BQMHTLWW3KSJ0W7IE5TB","3W92K5RLWWN8MTV4RT80ILJ6NEN5V9","emotion","match","uniform","","","","","","","2218.5999999940395","245989.59999999404","248208.19999998808","[""stimuli/BM07_DO.jpg"",""stimuli/BM16_HO.jpg"",""stimuli/WF06_CC.jpg"",""stimuli/BF05_HE.jpg""]","stimuli/BM07_DO.jpg","stimuli/BM16_HO.jpg","stimuli/WF06_CC.jpg","stimuli/BF05_HE.jpg","pos2","stimuli/BM16_HO.jpg","HO","BM16","1","4.5","9","8","stimuli/stars_9.png","37","[""DO"",""HO"",""CC"",""HE""]","[""BM07"",""BM16"",""WF06"",""BF05""]","[5,9,8,4]","[4,8,6,2]","","",""
"show-reward","34","248672","0.0-34.0","p828701","A3OTBMKOEQ410P","3UUIU9GZC6BQMHTLWW3KSJ0W7IE5TB","3W92K5RLWWN8MTV4RT80ILJ6NEN5V9","emotion","match","uniform","","","","","","","","248713.79999998212","250720.69999998808","","","","","","","","","","","","9","","stimuli/stars_9.png","37","","","","","stimuli/BM16_HO.jpg","",""
"explore-choice","35","250523","0.0-35.0","p828701","A3OTBMKOEQ410P","3UUIU9GZC6BQMHTLWW3KSJ0W7IE5TB","3W92K5RLWWN8MTV4RT80ILJ6NEN5V9","emotion","match","uniform","","","","","","","1347.5999999940395","250724.40000000596","252072","[""stimuli/BM07_CC.jpg"",""stimuli/BF05_HO.jpg"",""stimuli/BM16_HE.jpg"",""stimuli/WF06_DO.jpg""]","stimuli/BM07_CC.jpg","stimuli/BF05_HO.jpg","stimuli/BM16_HE.jpg","stimuli/WF06_DO.jpg","pos2","stimuli/BF05_HO.jpg","HO","BF05","1","4.5","9","8","stimuli/stars_9.png","41.5","[""CC"",""HO"",""HE"",""DO""]","[""BM07"",""BF05"",""BM16"",""WF06""]","[5,9,4,5]","[6,8,2,4]","","",""
"show-reward","36","252532","0.0-36.0","p828701","A3OTBMKOEQ410P","3UUIU9GZC6BQMHTLWW3KSJ0W7IE5TB","3W92K5RLWWN8MTV4RT80ILJ6NEN5V9","emotion","match","uniform","","","","","","","","252573.79999998212","254581.40000000596","","","","","","","","","","","","9","","stimuli/stars_9.png","41.5","","","","","stimuli/BF05_HO.jpg","",""
"explore-choice","37","254653","0.0-37.0","p828701","A3OTBMKOEQ410P","3UUIU9GZC6BQMHTLWW3KSJ0W7IE5TB","3W92K5RLWWN8MTV4RT80ILJ6NEN5V9","emotion","match","uniform","","","","","","","1617.300000011921","254582.69999998808","256200","[""stimuli/BF05_HE.jpg"",""stimuli/BM07_CC.jpg"",""stimuli/BM16_HO.jpg"",""stimuli/WF06_DO.jpg""]","stimuli/BF05_HE.jpg","stimuli/BM07_CC.jpg","stimuli/BM16_HO.jpg","stimuli/WF06_DO.jpg","pos1","stimuli/BF05_HE.jpg","HE","BF05","0","1.5","3","2","stimuli/stars_3.png","43","[""HE"",""CC"",""HO"",""DO""]","[""BF05"",""BM07"",""BM16"",""WF06""]","[3,5,10,6]","[2,6,8,4]","","",""
"show-reward","38","256658","0.0-38.0","p828701","A3OTBMKOEQ410P","3UUIU9GZC6BQMHTLWW3KSJ0W7IE5TB","3W92K5RLWWN8MTV4RT80ILJ6NEN5V9","emotion","match","uniform","","","","","","","","256704.40000000596","258707.90000000596","","","","","","","","","","","","3","","stimuli/stars_3.png","43","","","","","stimuli/BF05_HE.jpg","",""
"explore-choice","39","258331","0.0-39.0","p828701","A3OTBMKOEQ410P","3UUIU9GZC6BQMHTLWW3KSJ0W7IE5TB","3W92K5RLWWN8MTV4RT80ILJ6NEN5V9","emotion","match","uniform","","","","","","","1170.9000000059605","258709.09999999404","259880","[""stimuli/WF06_CC.jpg"",""stimuli/BF05_DO.jpg"",""stimuli/BM16_HO.jpg"",""stimuli/BM07_HE.jpg""]","stimuli/WF06_CC.jpg","stimuli/BF05_DO.jpg","stimuli/BM16_HO.jpg","stimuli/BM07_HE.jpg","pos2","stimuli/BF05_DO.jpg","DO","BF05","1","1","2","4","stimuli/stars_2.png","44","[""CC"",""DO"",""HO"",""HE""]","[""WF06"",""BF05"",""BM16"",""BM07""]","[8,2,9,3]","[6,4,8,2]","","",""
"show-reward","40","260334","0.0-40.0","p828701","A3OTBMKOEQ410P","3UUIU9GZC6BQMHTLWW3KSJ0W7IE5TB","3W92K5RLWWN8MTV4RT80ILJ6NEN5V9","emotion","match","uniform","","","","","","","","260381.59999999404","262383.59999999404","","","","","","","","","","","","2","","stimuli/stars_2.png","44","","","","","stimuli/BF05_DO.jpg","",""
"explore-choice","41","262107","0.0-41.0","p828701","A3OTBMKOEQ410P","3UUIU9GZC6BQMHTLWW3KSJ0W7IE5TB","3W92K5RLWWN8MTV4RT80ILJ6NEN5V9","emotion","match","uniform","","","","","","","1271.2000000178814","262384.7999999821","263656","[""stimuli/BM16_CC.jpg"",""stimuli/WF06_HE.jpg"",""stimuli/BF05_HO.jpg"",""stimuli/BM07_DO.jpg""]","stimuli/BM16_CC.jpg","stimuli/WF06_HE.jpg","stimuli/BF05_HO.jpg","stimuli/BM07_DO.jpg","pos2","stimuli/WF06_HE.jpg","HE","WF06","1","2","4","2","stimuli/stars_4.png","46","[""CC"",""HE"",""HO"",""DO""]","[""BM16"",""WF06"",""BF05"",""BM07""]","[4,4,10,5]","[6,2,8,4]","","",""
"show-reward","42","264123","0.0-42.0","p828701","A3OTBMKOEQ410P","3UUIU9GZC6BQMHTLWW3KSJ0W7IE5TB","3W92K5RLWWN8MTV4RT80ILJ6NEN5V9","emotion","match","uniform","","","","","","","","264157.90000000596","266172.90000000596","","","","","","","","","","","","4","","stimuli/stars_4.png","46","","","","","stimuli/WF06_HE.jpg","",""
"explore-choice","43","266204","0.0-43.0","p828701","A3OTBMKOEQ410P","3UUIU9GZC6BQMHTLWW3KSJ0W7IE5TB","3W92K5RLWWN8MTV4RT80ILJ6NEN5V9","emotion","match","uniform","","","","","","","1577.7000000178814","266174.2999999821","267752","[""stimuli/BM16_HE.jpg"",""stimuli/WF06_HO.jpg"",""stimuli/BF05_DO.jpg"",""stimuli/BM07_CC.jpg""]","stimuli/BM16_HE.jpg","stimuli/WF06_HO.jpg","stimuli/BF05_DO.jpg","stimuli/BM07_CC.jpg","pos3","stimuli/BF05_DO.jpg","DO","BF05","2","1","2","4","stimuli/stars_2.png","47","[""HE"",""HO"",""DO"",""CC""]","[""BM16"",""WF06"",""BF05"",""BM07""]","[2,6,2,5]","[2,8,4,6]","","",""
"show-reward","44","268210","0.0-44.0","p828701","A3OTBMKOEQ410P","3UUIU9GZC6BQMHTLWW3KSJ0W7IE5TB","3W92K5RLWWN8MTV4RT80ILJ6NEN5V9","emotion","match","uniform","","","","","","","","268254.7999999821","270259.59999999404","","","","","","","","","","","","2","","stimuli/stars_2.png","47","","","","","stimuli/BF05_DO.jpg","",""
"explore-choice","45","270174","0.0-45.0","p828701","A3OTBMKOEQ410P","3UUIU9GZC6BQMHTLWW3KSJ0W7IE5TB","3W92K5RLWWN8MTV4RT80ILJ6NEN5V9","emotion","match","uniform","","","","","","","1459.2000000178814","270260.7999999821","271720","[""stimuli/WF06_CC.jpg"",""stimuli/BM16_HE.jpg"",""stimuli/BM07_HO.jpg"",""stimuli/BF05_DO.jpg""]","stimuli/WF06_CC.jpg","stimuli/BM16_HE.jpg","stimuli/BM07_HO.jpg","stimuli/BF05_DO.jpg","pos2","stimuli/BM16_HE.jpg","HE","BM16","1","0.5","1","2","stimuli/stars_1.png","47.5","[""CC"",""HE"",""HO"",""DO""]","[""WF06"",""BM16"",""BM07"",""BF05""]","[8,1,6,5]","[6,2,8,4]","","",""
"show-reward","46","272179","0.0-46.0","p828701","A3OTBMKOEQ410P","3UUIU9GZC6BQMHTLWW3KSJ0W7IE5TB","3W92K5RLWWN8MTV4RT80ILJ6NEN5V9","emotion","match","uniform","","","","","","","","272225.2999999821","274228.59999999404","","","","","","","","","","","","1","","stimuli/stars_1.png","47.5","","","","","stimuli/BM16_HE.jpg","",""
"explore-choice","47","273605","0.0-47.0","p828701","A3OTBMKOEQ410P","3UUIU9GZC6BQMHTLWW3KSJ0W7IE5TB","3W92K5RLWWN8MTV4RT80ILJ6NEN5V9","emotion","match","uniform","","","","","","","922.2000000178814","274229.6999999881","275151.90000000596","[""stimuli/BM16_CC.jpg"",""stimuli/BM07_HE.jpg"",""stimuli/WF06_DO.jpg"",""stimuli/BF05_HO.jpg""]","stimuli/BM16_CC.jpg","stimuli/BM07_HE.jpg","stimuli/WF06_DO.jpg","stimuli/BF05_HO.jpg","pos4","stimuli/BF05_HO.jpg","HO","BF05","3","4.5","9","8","stimuli/stars_9.png","52","[""CC"",""HE"",""DO"",""HO""]","[""BM16"",""BM07"",""WF06"",""BF05""]","[7,2,2,9]","[6,2,4,8]","","",""
"show-reward","48","275610","0.0-48.0","p828701","A3OTBMKOEQ410P","3UUIU9GZC6BQMHTLWW3KSJ0W7IE5TB","3W92K5RLWWN8MTV4RT80ILJ6NEN5V9","emotion","match","uniform","","","","","","","","275656.5","277659.5","","","","","","","","","","","","9","","stimuli/stars_9.png","52","","","","","stimuli/BF05_HO.jpg","",""
"explore-choice","49","276947","0.0-49.0","p828701","A3OTBMKOEQ410P","3UUIU9GZC6BQMHTLWW3KSJ0W7IE5TB","3W92K5RLWWN8MTV4RT80ILJ6NEN5V9","emotion","match","uniform","","","","","","","827.1000000238419","277660.7999999821","278487.90000000596","[""stimuli/BM07_HE.jpg"",""stimuli/WF06_CC.jpg"",""stimuli/BF05_HO.jpg"",""stimuli/BM16_DO.jpg""]","stimuli/BM07_HE.jpg","stimuli/WF06_CC.jpg","stimuli/BF05_HO.jpg","stimuli/BM16_DO.jpg","pos1","stimuli/BM07_HE.jpg","HE","BM07","0","0","0","2","stimuli/stars_0.png","52","[""HE"",""CC"",""HO"",""DO""]","[""BM07"",""WF06"",""BF05"",""BM16""]","[0,7,10,4]","[2,6,8,4]","","",""
"show-reward","50","278964","0.0-50.0","p828701","A3OTBMKOEQ410P","3UUIU9GZC6BQMHTLWW3KSJ0W7IE5TB","3W92K5RLWWN8MTV4RT80ILJ6NEN5V9","emotion","match","uniform","","","","","","","","278997.6999999881","281014.40000000596","","","","","","","","","","","","0","","stimuli/stars_0.png","52","","","","","stimuli/BM07_HE.jpg","",""
"explore-choice","51","280289","0.0-51.0","p828701","A3OTBMKOEQ410P","3UUIU9GZC6BQMHTLWW3KSJ0W7IE5TB","3W92K5RLWWN8MTV4RT80ILJ6NEN5V9","emotion","match","uniform","","","","","","","816.6000000238419","281015.2999999821","281831.90000000596","[""stimuli/BM07_HO.jpg"",""stimuli/BM16_DO.jpg"",""stimuli/BF05_CC.jpg"",""stimuli/WF06_HE.jpg""]","stimuli/BM07_HO.jpg","stimuli/BM16_DO.jpg","stimuli/BF05_CC.jpg","stimuli/WF06_HE.jpg","pos1","stimuli/BM07_HO.jpg","HO","BM07","0","4","8","8","stimuli/stars_8.png","56","[""HO"",""DO"",""CC"",""HE""]","[""BM07"",""BM16"",""BF05"",""WF06""]","[8,2,8,3]","[8,4,6,2]","","",""
"show-reward","52","282297","0.0-52.0","p828701","A3OTBMKOEQ410P","3UUIU9GZC6BQMHTLWW3KSJ0W7IE5TB","3W92K5RLWWN8MTV4RT80ILJ6NEN5V9","emotion","match","uniform","","","","","","","","282339.5","284347.2999999821","","","","","","","","","","","","8","","stimuli/stars_8.png","56","","","","","stimuli/BM07_HO.jpg","",""
"explore-choice","53","283639","0.0-53.0","p828701","A3OTBMKOEQ410P","3UUIU9GZC6BQMHTLWW3KSJ0W7IE5TB","3W92K5RLWWN8MTV4RT80ILJ6NEN5V9","emotion","match","uniform","","","","","","","826.5999999940395","284349.09999999404","285175.6999999881","[""stimuli/WF06_HE.jpg"",""stimuli/BM07_HO.jpg"",""stimuli/BF05_DO.jpg"",""stimuli/BM16_CC.jpg""]","stimuli/WF06_HE.jpg","stimuli/BM07_HO.jpg","stimuli/BF05_DO.jpg","stimuli/BM16_CC.jpg","pos1","stimuli/WF06_HE.jpg","HE","WF06","0","1.5","3","2","stimuli/stars_3.png","57.5","[""HE"",""HO"",""DO"",""CC""]","[""WF06"",""BM07"",""BF05"",""BM16""]","[3,8,6,7]","[2,8,4,6]","","",""
"show-reward","54","285656","0.0-54.0","p828701","A3OTBMKOEQ410P","3UUIU9GZC6BQMHTLWW3KSJ0W7IE5TB","3W92K5RLWWN8MTV4RT80ILJ6NEN5V9","emotion","match","uniform","","","","","","","","285690.40000000596","287706.40000000596","","","","","","","","","","","","3","","stimuli/stars_3.png","57.5","","","","","stimuli/WF06_HE.jpg","",""
"explore-choice","55","287363","0.0-55.0","p828701","A3OTBMKOEQ410P","3UUIU9GZC6BQMHTLWW3KSJ0W7IE5TB","3W92K5RLWWN8MTV4RT80ILJ6NEN5V9","emotion","match","uniform","","","","","","","1196.0999999940395","287707.59999999404","288903.6999999881","[""stimuli/BM16_CC.jpg"",""stimuli/WF06_HO.jpg"",""stimuli/BF05_DO.jpg"",""stimuli/BM07_HE.jpg""]","stimuli/BM16_CC.jpg","stimuli/WF06_HO.jpg","stimuli/BF05_DO.jpg","stimuli/BM07_HE.jpg","pos4","stimuli/BM07_HE.jpg","HE","BM07","3","0","0","2","stimuli/stars_0.png","57.5","[""CC"",""HO"",""DO"",""HE""]","[""BM16"",""WF06"",""BF05"",""BM07""]","[7,9,5,0]","[6,8,4,2]","","",""
"show-reward","56","289371","0.0-56.0","p828701","A3OTBMKOEQ410P","3UUIU9GZC6BQMHTLWW3KSJ0W7IE5TB","3W92K5RLWWN8MTV4RT80ILJ6NEN5V9","emotion","match","uniform","","","","","","","","289414","291421.5","","","","","","","","","","","","0","","stimuli/stars_0.png","57.5","","","","","stimuli/BM07_HE.jpg","",""
"explore-choice","57","291578","0.0-57.0","p828701","A3OTBMKOEQ410P","3UUIU9GZC6BQMHTLWW3KSJ0W7IE5TB","3W92K5RLWWN8MTV4RT80ILJ6NEN5V9","emotion","match","uniform","","","","","","","1705","291422.7999999821","293127.7999999821","[""stimuli/WF06_CC.jpg"",""stimuli/BM16_DO.jpg"",""stimuli/BF05_HO.jpg"",""stimuli/BM07_HE.jpg""]","stimuli/WF06_CC.jpg","stimuli/BM16_DO.jpg","stimuli/BF05_HO.jpg","stimuli/BM07_HE.jpg","pos3","stimuli/BF05_HO.jpg","HO","BF05","2","5","10","8","stimuli/stars_10.png","62.5","[""CC"",""DO"",""HO"",""HE""]","[""WF06"",""BM16"",""BF05"",""BM07""]","[7,4,10,0]","[6,4,8,2]","","",""
"show-reward","58","293594","0.0-58.0","p828701","A3OTBMKOEQ410P","3UUIU9GZC6BQMHTLWW3KSJ0W7IE5TB","3W92K5RLWWN8MTV4RT80ILJ6NEN5V9","emotion","match","uniform","","","","","","","","293629.59999999404","295644.40000000596","","","","","","","","","","","","10","","stimuli/stars_10.png","62.5","","","","","stimuli/BF05_HO.jpg","",""
"explore-choice","59","297679","0.0-59.0","p828701","A3OTBMKOEQ410P","3UUIU9GZC6BQMHTLWW3KSJ0W7IE5TB","3W92K5RLWWN8MTV4RT80ILJ6NEN5V9","emotion","match","uniform","","","","","","","3578","295645.59999999404","299223.59999999404","[""stimuli/BM16_CC.jpg"",""stimuli/BF05_HE.jpg"",""stimuli/BM07_HO.jpg"",""stimuli/WF06_DO.jpg""]","stimuli/BM16_CC.jpg","stimuli/BF05_HE.jpg","stimuli/BM07_HO.jpg","stimuli/WF06_DO.jpg","pos4","stimuli/WF06_DO.jpg","DO","WF06","3","1.5","3","4","stimuli/stars_3.png","64","[""CC"",""HE"",""HO"",""DO""]","[""BM16"",""BF05"",""BM07"",""WF06""]","[8,2,8,3]","[6,2,8,4]","","",""
"show-reward","60","299683","0.0-60.0","p828701","A3OTBMKOEQ410P","3UUIU9GZC6BQMHTLWW3KSJ0W7IE5TB","3W92K5RLWWN8MTV4RT80ILJ6NEN5V9","emotion","match","uniform","","","","","","","","299730.6999999881","301733.40000000596","","","","","","","","","","","","3","","stimuli/stars_3.png","64","","","","","stimuli/WF06_DO.jpg","",""
"explore-choice","61","302362","0.0-61.0","p828701","A3OTBMKOEQ410P","3UUIU9GZC6BQMHTLWW3KSJ0W7IE5TB","3W92K5RLWWN8MTV4RT80ILJ6NEN5V9","emotion","match","uniform","","","","","","","2177","301734.59999999404","303911.59999999404","[""stimuli/BM16_HE.jpg"",""stimuli/BF05_DO.jpg"",""stimuli/BM07_CC.jpg"",""stimuli/WF06_HO.jpg""]","stimuli/BM16_HE.jpg","stimuli/BF05_DO.jpg","stimuli/BM07_CC.jpg","stimuli/WF06_HO.jpg","pos2","stimuli/BF05_DO.jpg","DO","BF05","1","1","2","4","stimuli/stars_2.png","65","[""HE"",""DO"",""CC"",""HO""]","[""BM16"",""BF05"",""BM07"",""WF06""]","[2,2,5,6]","[2,4,6,8]","","",""
"show-reward","62","304379","0.0-62.0","p828701","A3OTBMKOEQ410P","3UUIU9GZC6BQMHTLWW3KSJ0W7IE5TB","3W92K5RLWWN8MTV4RT80ILJ6NEN5V9","emotion","match","uniform","","","","","","","","304413.7999999821","306429.6999999881","","","","","","","","","","","","2","","stimuli/stars_2.png","65","","","","","stimuli/BF05_DO.jpg","",""
"explore-choice","63","306465","0.0-63.0","p828701","A3OTBMKOEQ410P","3UUIU9GZC6BQMHTLWW3KSJ0W7IE5TB","3W92K5RLWWN8MTV4RT80ILJ6NEN5V9","emotion","match","uniform","","","","","","","1576.699999988079","306430.90000000596","308007.59999999404","[""stimuli/WF06_HO.jpg"",""stimuli/BM16_DO.jpg"",""stimuli/BF05_HE.jpg"",""stimuli/BM07_CC.jpg""]","stimuli/WF06_HO.jpg","stimuli/BM16_DO.jpg","stimuli/BF05_HE.jpg","stimuli/BM07_CC.jpg","pos3","stimuli/BF05_HE.jpg","HE","BF05","2","1","2","2","stimuli/stars_2.png","66","[""HO"",""DO"",""HE"",""CC""]","[""WF06"",""BM16"",""BF05"",""BM07""]","[6,2,2,5]","[8,4,2,6]","","",""
"show-reward","64","308471","0.0-64.0","p828701","A3OTBMKOEQ410P","3UUIU9GZC6BQMHTLWW3KSJ0W7IE5TB","3W92K5RLWWN8MTV4RT80ILJ6NEN5V9","emotion","match","uniform","","","","","","","","308516.7999999821","310521.7999999821","","","","","","","","","","","","2","","stimuli/stars_2.png","66","","","","","stimuli/BF05_HE.jpg","",""
"explore-choice","65","310003","0.0-65.0","p828701","A3OTBMKOEQ410P","3UUIU9GZC6BQMHTLWW3KSJ0W7IE5TB","3W92K5RLWWN8MTV4RT80ILJ6NEN5V9","emotion","match","uniform","","","","","","","1028.5","310523","311551.5","[""stimuli/WF06_CC.jpg"",""stimuli/BM16_HO.jpg"",""stimuli/BM07_HE.jpg"",""stimuli/BF05_DO.jpg""]","stimuli/WF06_CC.jpg","stimuli/BM16_HO.jpg","stimuli/BM07_HE.jpg","stimuli/BF05_DO.jpg","pos2","stimuli/BM16_HO.jpg","HO","BM16","1","4.5","9","8","stimuli/stars_9.png","70.5","[""CC"",""HO"",""HE"",""DO""]","[""WF06"",""BM16"",""BM07"",""BF05""]","[8,9,3,2]","[6,8,2,4]","","",""
"show-reward","66","312009","0.0-66.0","p828701","A3OTBMKOEQ410P","3UUIU9GZC6BQMHTLWW3KSJ0W7IE5TB","3W92K5RLWWN8MTV4RT80ILJ6NEN5V9","emotion","match","uniform","","","","","","","","312054.7999999821","314059.40000000596","","","","","","","","","","","","9","","stimuli/stars_9.png","70.5","","","","","stimuli/BM16_HO.jpg","",""
"explore-choice","67","313711","0.0-67.0","p828701","A3OTBMKOEQ410P","3UUIU9GZC6BQMHTLWW3KSJ0W7IE5TB","3W92K5RLWWN8MTV4RT80ILJ6NEN5V9","emotion","match","uniform","","","","","","","1187.199999988079","314060.59999999404","315247.7999999821","[""stimuli/BF05_HO.jpg"",""stimuli/WF06_DO.jpg"",""stimuli/BM16_CC.jpg"",""stimuli/BM07_HE.jpg""]","stimuli/BF05_HO.jpg","stimuli/WF06_DO.jpg","stimuli/BM16_CC.jpg","stimuli/BM07_HE.jpg","pos1","stimuli/BF05_HO.jpg","HO","BF05","0","4.5","9","8","stimuli/stars_9.png","75","[""HO"",""DO"",""CC"",""HE""]","[""BF05"",""WF06"",""BM16"",""BM07""]","[9,2,7,2]","[8,4,6,2]","","",""
"show-reward","68","315730","0.0-68.0","p828701","A3OTBMKOEQ410P","3UUIU9GZC6BQMHTLWW3KSJ0W7IE5TB","3W92K5RLWWN8MTV4RT80ILJ6NEN5V9","emotion","match","uniform","","","","","","","","315762.7999999821","317780.1999999881","","","","","","","","","","","","9","","stimuli/stars_9.png","75","","","","","stimuli/BF05_HO.jpg","",""
"explore-choice","69","318916","0.0-69.0","p828701","A3OTBMKOEQ410P","3UUIU9GZC6BQMHTLWW3KSJ0W7IE5TB","3W92K5RLWWN8MTV4RT80ILJ6NEN5V9","emotion","match","uniform","","","","","","","2682.0999999940395","317781.40000000596","320463.5","[""stimuli/BF05_CC.jpg"",""stimuli/BM07_HE.jpg"",""stimuli/BM16_DO.jpg"",""stimuli/WF06_HO.jpg""]","stimuli/BF05_CC.jpg","stimuli/BM07_HE.jpg","stimuli/BM16_DO.jpg","stimuli/WF06_HO.jpg","pos4","stimuli/WF06_HO.jpg","HO","WF06","3","4.5","9","8","stimuli/stars_9.png","79.5","[""CC"",""HE"",""DO"",""HO""]","[""BF05"",""BM07"",""BM16"",""WF06""]","[7,0,3,9]","[6,2,4,8]","","",""
"show-reward","70","320921","0.0-70.0","p828701","A3OTBMKOEQ410P","3UUIU9GZC6BQMHTLWW3KSJ0W7IE5TB","3W92K5RLWWN8MTV4RT80ILJ6NEN5V9","emotion","match","uniform","","","","","","","","320968.09999999404","322970.90000000596","","","","","","","","","","","","9","","stimuli/stars_9.png","79.5","","","","","stimuli/WF06_HO.jpg","",""
"explore-choice","71","323300","0.0-71.0","p828701","A3OTBMKOEQ410P","3UUIU9GZC6BQMHTLWW3KSJ0W7IE5TB","3W92K5RLWWN8MTV4RT80ILJ6NEN5V9","emotion","match","uniform","","","","","","","1875.4000000059605","322972.09999999404","324847.5","[""stimuli/BM16_HO.jpg"",""stimuli/WF06_CC.jpg"",""stimuli/BM07_DO.jpg"",""stimuli/BF05_HE.jpg""]","stimuli/BM16_HO.jpg","stimuli/WF06_CC.jpg","stimuli/BM07_DO.jpg","stimuli/BF05_HE.jpg","pos1","stimuli/BM16_HO.jpg","HO","BM16","0","4.5","9","8","stimuli/stars_9.png","84","[""HO"",""CC"",""DO"",""HE""]","[""BM16"",""WF06"",""BM07"",""BF05""]","[9,8,5,4]","[8,6,4,2]","","",""
"show-reward","72","325311","0.0-72.0","p828701","A3OTBMKOEQ410P","3UUIU9GZC6BQMHTLWW3KSJ0W7IE5TB","3W92K5RLWWN8MTV4RT80ILJ6NEN5V9","emotion","match","uniform","","","","","","","","325352.09999999404","327361","","","","","","","","","","","","9","","stimuli/stars_9.png","84","","","","","stimuli/BM16_HO.jpg","",""
"explore-choice","73","327618","0.0-73.0","p828701","A3OTBMKOEQ410P","3UUIU9GZC6BQMHTLWW3KSJ0W7IE5TB","3W92K5RLWWN8MTV4RT80ILJ6NEN5V9","emotion","match","uniform","","","","","","","1804.699999988079","327362.59999999404","329167.2999999821","[""stimuli/BF05_HE.jpg"",""stimuli/WF06_HO.jpg"",""stimuli/BM07_DO.jpg"",""stimuli/BM16_CC.jpg""]","stimuli/BF05_HE.jpg","stimuli/WF06_HO.jpg","stimuli/BM07_DO.jpg","stimuli/BM16_CC.jpg","pos1","stimuli/BF05_HE.jpg","HE","BF05","0","1.5","3","2","stimuli/stars_3.png","85.5","[""HE"",""HO"",""DO"",""CC""]","[""BF05"",""WF06"",""BM07"",""BM16""]","[3,8,3,7]","[2,8,4,6]","","",""
"show-reward","74","329626","0.0-74.0","p828701","A3OTBMKOEQ410P","3UUIU9GZC6BQMHTLWW3KSJ0W7IE5TB","3W92K5RLWWN8MTV4RT80ILJ6NEN5V9","emotion","match","uniform","","","","","","","","329669.40000000596","331676","","","","","","","","","","","","3","","stimuli/stars_3.png","85.5","","","","","stimuli/BF05_HE.jpg","",""
"explore-choice","75","331677","0.0-75.0","p828701","A3OTBMKOEQ410P","3UUIU9GZC6BQMHTLWW3KSJ0W7IE5TB","3W92K5RLWWN8MTV4RT80ILJ6NEN5V9","emotion","match","uniform","","","","","","","1537.9000000059605","331677.5","333215.40000000596","[""stimuli/BF05_CC.jpg"",""stimuli/BM16_HO.jpg"",""stimuli/BM07_DO.jpg"",""stimuli/WF06_HE.jpg""]","stimuli/BF05_CC.jpg","stimuli/BM16_HO.jpg","stimuli/BM07_DO.jpg","stimuli/WF06_HE.jpg","pos2","stimuli/BM16_HO.jpg","HO","BM16","1","5","10","8","stimuli/stars_10.png","90.5","[""CC"",""HO"",""DO"",""HE""]","[""BF05"",""BM16"",""BM07"",""WF06""]","[5,10,5,3]","[6,8,4,2]","","",""
"show-reward","76","333686","0.0-76.0","p828701","A3OTBMKOEQ410P","3UUIU9GZC6BQMHTLWW3KSJ0W7IE5TB","3W92K5RLWWN8MTV4RT80ILJ6NEN5V9","emotion","match","uniform","","","","","","","","333728.7999999821","335736.59999999404","","","","","","","","","","","","10","","stimuli/stars_10.png","90.5","","","","","stimuli/BM16_HO.jpg","",""
"explore-choice","77","336525","0.0-77.0","p828701","A3OTBMKOEQ410P","3UUIU9GZC6BQMHTLWW3KSJ0W7IE5TB","3W92K5RLWWN8MTV4RT80ILJ6NEN5V9","emotion","match","uniform","","","","","","","2333.2999999821186","335737.90000000596","338071.1999999881","[""stimuli/BM07_DO.jpg"",""stimuli/WF06_CC.jpg"",""stimuli/BF05_HO.jpg"",""stimuli/BM16_HE.jpg""]","stimuli/BM07_DO.jpg","stimuli/WF06_CC.jpg","stimuli/BF05_HO.jpg","stimuli/BM16_HE.jpg","pos3","stimuli/BF05_HO.jpg","HO","BF05","2","4.5","9","8","stimuli/stars_9.png","95","[""DO"",""CC"",""HO"",""HE""]","[""BM07"",""WF06"",""BF05"",""BM16""]","[2,8,9,3]","[4,6,8,2]","","",""
"show-reward","78","338530","0.0-78.0","p828701","A3OTBMKOEQ410P","3UUIU9GZC6BQMHTLWW3KSJ0W7IE5TB","3W92K5RLWWN8MTV4RT80ILJ6NEN5V9","emotion","match","uniform","","","","","","","","338576.90000000596","340580.40000000596","","","","","","","","","","","","9","","stimuli/stars_9.png","95","","","","","stimuli/BF05_HO.jpg","",""
"explore-choice","79","340361","0.0-79.0","p828701","A3OTBMKOEQ410P","3UUIU9GZC6BQMHTLWW3KSJ0W7IE5TB","3W92K5RLWWN8MTV4RT80ILJ6NEN5V9","emotion","match","uniform","","","","","","","1330","340581.2999999821","341911.2999999821","[""stimuli/WF06_CC.jpg"",""stimuli/BF05_HE.jpg"",""stimuli/BM16_DO.jpg"",""stimuli/BM07_HO.jpg""]","stimuli/WF06_CC.jpg","stimuli/BF05_HE.jpg","stimuli/BM16_DO.jpg","stimuli/BM07_HO.jpg","pos2","stimuli/BF05_HE.jpg","HE","BF05","1","0","0","2","stimuli/stars_0.png","95","[""CC"",""HE"",""DO"",""HO""]","[""WF06"",""BF05"",""BM16"",""BM07""]","[6,0,4,6]","[6,2,4,8]","","",""
"show-reward","80","342364","0.0-80.0","p828701","A3OTBMKOEQ410P","3UUIU9GZC6BQMHTLWW3KSJ0W7IE5TB","3W92K5RLWWN8MTV4RT80ILJ6NEN5V9","emotion","match","uniform","","","","","","","","342412.59999999404","344414.5","","","","","","","","","","","","0","","stimuli/stars_0.png","95","","","","","stimuli/BF05_HE.jpg","",""
"explore-choice","81","346411","0.0-81.0","p828701","A3OTBMKOEQ410P","3UUIU9GZC6BQMHTLWW3KSJ0W7IE5TB","3W92K5RLWWN8MTV4RT80ILJ6NEN5V9","emotion","match","uniform","","","","","","","3536.100000023842","344415.2999999821","347951.40000000596","[""stimuli/BM07_HO.jpg"",""stimuli/BM16_DO.jpg"",""stimuli/BF05_CC.jpg"",""stimuli/WF06_HE.jpg""]","stimuli/BM07_HO.jpg","stimuli/BM16_DO.jpg","stimuli/BF05_CC.jpg","stimuli/WF06_HE.jpg","pos1","stimuli/BM07_HO.jpg","HO","BM07","0","4","8","8","stimuli/stars_8.png","99","[""HO"",""DO"",""CC"",""HE""]","[""BM07"",""BM16"",""BF05"",""WF06""]","[8,2,8,3]","[8,4,6,2]","","",""
"show-reward","82","348416","0.0-82.0","p828701","A3OTBMKOEQ410P","3UUIU9GZC6BQMHTLWW3KSJ0W7IE5TB","3W92K5RLWWN8MTV4RT80ILJ6NEN5V9","emotion","match","uniform","","","","","","","","348462.5","350465.90000000596","","","","","","","","","","","","8","","stimuli/stars_8.png","99","","","","","stimuli/BM07_HO.jpg","",""
"explore-choice","83","352226","0.0-83.0","p828701","A3OTBMKOEQ410P","3UUIU9GZC6BQMHTLWW3KSJ0W7IE5TB","3W92K5RLWWN8MTV4RT80ILJ6NEN5V9","emotion","match","uniform","","","","","","","3308.0999999940395","350467.09999999404","353775.1999999881","[""stimuli/BM16_HO.jpg"",""stimuli/BF05_CC.jpg"",""stimuli/BM07_HE.jpg"",""stimuli/WF06_DO.jpg""]","stimuli/BM16_HO.jpg","stimuli/BF05_CC.jpg","stimuli/BM07_HE.jpg","stimuli/WF06_DO.jpg","pos1","stimuli/BM16_HO.jpg","HO","BM16","0","5","10","8","stimuli/stars_10.png","104","[""HO"",""CC"",""HE"",""DO""]","[""BM16"",""BF05"",""BM07"",""WF06""]","[10,8,4,2]","[8,6,2,4]","","",""
"show-reward","84","354229","0.0-84.0","p828701","A3OTBMKOEQ410P","3UUIU9GZC6BQMHTLWW3KSJ0W7IE5TB","3W92K5RLWWN8MTV4RT80ILJ6NEN5V9","emotion","match","uniform","","","","","","","","354276.90000000596","356279.40000000596","","","","","","","","","","","","10","","stimuli/stars_10.png","104","","","","","stimuli/BM16_HO.jpg","",""
"explore-choice","85","357912","0.0-85.0","p828701","A3OTBMKOEQ410P","3UUIU9GZC6BQMHTLWW3KSJ0W7IE5TB","3W92K5RLWWN8MTV4RT80ILJ6NEN5V9","emotion","match","uniform","","","","","","","3166.5999999940395","356280.6999999881","359447.2999999821","[""stimuli/BF05_CC.jpg"",""stimuli/WF06_DO.jpg"",""stimuli/BM07_HO.jpg"",""stimuli/BM16_HE.jpg""]","stimuli/BF05_CC.jpg","stimuli/WF06_DO.jpg","stimuli/BM07_HO.jpg","stimuli/BM16_HE.jpg","pos4","stimuli/BM16_HE.jpg","HE","BM16","3","0","0","2","stimuli/stars_0.png","104","[""CC"",""DO"",""HO"",""HE""]","[""BF05"",""WF06"",""BM07"",""BM16""]","[4,4,9,0]","[6,4,8,2]","","",""
"show-reward","86","359917","0.0-86.0","p828701","A3OTBMKOEQ410P","3UUIU9GZC6BQMHTLWW3KSJ0W7IE5TB","3W92K5RLWWN8MTV4RT80ILJ6NEN5V9","emotion","match","uniform","","","","","","","","359963.59999999404","361966.6999999881","","","","","","","","","","","","0","","stimuli/stars_0.png","104","","","","","stimuli/BM16_HE.jpg","",""
"explore-choice","87","362642","0.0-87.0","p828701","A3OTBMKOEQ410P","3UUIU9GZC6BQMHTLWW3KSJ0W7IE5TB","3W92K5RLWWN8MTV4RT80ILJ6NEN5V9","emotion","match","uniform","","","","","","","2223.4000000059605","361967.6999999881","364191.09999999404","[""stimuli/BM07_CC.jpg"",""stimuli/BM16_HO.jpg"",""stimuli/WF06_DO.jpg"",""stimuli/BF05_HE.jpg""]","stimuli/BM07_CC.jpg","stimuli/BM16_HO.jpg","stimuli/WF06_DO.jpg","stimuli/BF05_HE.jpg","pos4","stimuli/BF05_HE.jpg","HE","BF05","3","1.5","3","2","stimuli/stars_3.png","105.5","[""CC"",""HO"",""DO"",""HE""]","[""BM07"",""BM16"",""WF06"",""BF05""]","[5,10,6,3]","[6,8,4,2]","","",""
"show-reward","88","364649","0.0-88.0","p828701","A3OTBMKOEQ410P","3UUIU9GZC6BQMHTLWW3KSJ0W7IE5TB","3W92K5RLWWN8MTV4RT80ILJ6NEN5V9","emotion","match","uniform","","","","","","","","364694.7999999821","366698.6999999881","","","","","","","","","","","","3","","stimuli/stars_3.png","105.5","","","","","stimuli/BF05_HE.jpg","",""
"explore-choice","89","367366","0.0-89.0","p828701","A3OTBMKOEQ410P","3UUIU9GZC6BQMHTLWW3KSJ0W7IE5TB","3W92K5RLWWN8MTV4RT80ILJ6NEN5V9","emotion","match","uniform","","","","","","","2203.300000011921","366699.6999999881","368903","[""stimuli/WF06_CC.jpg"",""stimuli/BM16_HE.jpg"",""stimuli/BM07_HO.jpg"",""stimuli/BF05_DO.jpg""]","stimuli/WF06_CC.jpg","stimuli/BM16_HE.jpg","stimuli/BM07_HO.jpg","stimuli/BF05_DO.jpg","pos3","stimuli/BM07_HO.jpg","HO","BM07","2","3","6","8","stimuli/stars_6.png","108.5","[""CC"",""HE"",""HO"",""DO""]","[""WF06"",""BM16"",""BM07"",""BF05""]","[8,1,6,5]","[6,2,8,4]","","",""
"show-reward","90","369374","0.0-90.0","p828701","A3OTBMKOEQ410P","3UUIU9GZC6BQMHTLWW3KSJ0W7IE5TB","3W92K5RLWWN8MTV4RT80ILJ6NEN5V9","emotion","match","uniform","","","","","","","","369416.90000000596","371423.90000000596","","","","","","","","","","","","6","","stimuli/stars_6.png","108.5","","","","","stimuli/BM07_HO.jpg","",""
"explore-choice","91","371052","0.0-91.0","p828701","A3OTBMKOEQ410P","3UUIU9GZC6BQMHTLWW3KSJ0W7IE5TB","3W92K5RLWWN8MTV4RT80ILJ6NEN5V9","emotion","match","uniform","","","","","","","1174.0999999940395","371424.90000000596","372599","[""stimuli/BF05_HO.jpg"",""stimuli/WF06_HE.jpg"",""stimuli/BM16_DO.jpg"",""stimuli/BM07_CC.jpg""]","stimuli/BF05_HO.jpg","stimuli/WF06_HE.jpg","stimuli/BM16_DO.jpg","stimuli/BM07_CC.jpg","pos2","stimuli/WF06_HE.jpg","HE","WF06","1","0","0","2","stimuli/stars_0.png","108.5","[""HO"",""HE"",""DO"",""CC""]","[""BF05"",""WF06"",""BM16"",""BM07""]","[8,0,3,5]","[8,2,4,6]","","",""
"show-reward","92","373057","0.0-92.0","p828701","A3OTBMKOEQ410P","3UUIU9GZC6BQMHTLWW3KSJ0W7IE5TB","3W92K5RLWWN8MTV4RT80ILJ6NEN5V9","emotion","match","uniform","","","","","","","","373103.6999999881","375106.6999999881","","","","","","","","","","","","0","","stimuli/stars_0.png","108.5","","","","","stimuli/WF06_HE.jpg","",""
"explore-choice","93","375175","0.0-93.0","p828701","A3OTBMKOEQ410P","3UUIU9GZC6BQMHTLWW3KSJ0W7IE5TB","3W92K5RLWWN8MTV4RT80ILJ6NEN5V9","emotion","match","uniform","","","","","","","1603.0999999940395","375108","376711.09999999404","[""stimuli/BF05_HO.jpg"",""stimuli/BM07_CC.jpg"",""stimuli/WF06_DO.jpg"",""stimuli/BM16_HE.jpg""]","stimuli/BF05_HO.jpg","stimuli/BM07_CC.jpg","stimuli/WF06_DO.jpg","stimuli/BM16_HE.jpg","pos1","stimuli/BF05_HO.jpg","HO","BF05","0","4.5","9","8","stimuli/stars_9.png","113","[""HO"",""CC"",""DO"",""HE""]","[""BF05"",""BM07"",""WF06"",""BM16""]","[9,5,5,4]","[8,6,4,2]","","",""
"show-reward","94","377185","0.0-94.0","p828701","A3OTBMKOEQ410P","3UUIU9GZC6BQMHTLWW3KSJ0W7IE5TB","3W92K5RLWWN8MTV4RT80ILJ6NEN5V9","emotion","match","uniform","","","","","","","","377226.40000000596","379235.1999999881","","","","","","","","","","","","9","","stimuli/stars_9.png","113","","","","","stimuli/BF05_HO.jpg","",""
"explore-choice","95","378981","0.0-95.0","p828701","A3OTBMKOEQ410P","3UUIU9GZC6BQMHTLWW3KSJ0W7IE5TB","3W92K5RLWWN8MTV4RT80ILJ6NEN5V9","emotion","match","uniform","","","","","","","1282.7999999821186","379236","380518.7999999821","[""stimuli/BM16_CC.jpg"",""stimuli/BM07_HO.jpg"",""stimuli/WF06_HE.jpg"",""stimuli/BF05_DO.jpg""]","stimuli/BM16_CC.jpg","stimuli/BM07_HO.jpg","stimuli/WF06_HE.jpg","stimuli/BF05_DO.jpg","pos3","stimuli/WF06_HE.jpg","HE","WF06","2","1.5","3","2","stimuli/stars_3.png","114.5","[""CC"",""HO"",""HE"",""DO""]","[""BM16"",""BM07"",""WF06"",""BF05""]","[7,8,3,6]","[6,8,2,4]","","",""
"show-reward","96","380985","0.0-96.0","p828701","A3OTBMKOEQ410P","3UUIU9GZC6BQMHTLWW3KSJ0W7IE5TB","3W92K5RLWWN8MTV4RT80ILJ6NEN5V9","emotion","match","uniform","","","","","","","","381032.09999999404","383034.6999999881","","","","","","","","","","","","3","","stimuli/stars_3.png","114.5","","","","","stimuli/WF06_HE.jpg","",""
"explore-choice","97","383618","0.0-97.0","p828701","A3OTBMKOEQ410P","3UUIU9GZC6BQMHTLWW3KSJ0W7IE5TB","3W92K5RLWWN8MTV4RT80ILJ6NEN5V9","emotion","match","uniform","","","","","","","2131","383035.90000000596","385166.90000000596","[""stimuli/WF06_HE.jpg"",""stimuli/BM07_DO.jpg"",""stimuli/BF05_HO.jpg"",""stimuli/BM16_CC.jpg""]","stimuli/WF06_HE.jpg","stimuli/BM07_DO.jpg","stimuli/BF05_HO.jpg","stimuli/BM16_CC.jpg","pos3","stimuli/BF05_HO.jpg","HO","BF05","2","5","10","8","stimuli/stars_10.png","119.5","[""HE"",""DO"",""HO"",""CC""]","[""WF06"",""BM07"",""BF05"",""BM16""]","[4,5,10,4]","[2,4,8,6]","","",""
"show-reward","98","385621","0.0-98.0","p828701","A3OTBMKOEQ410P","3UUIU9GZC6BQMHTLWW3KSJ0W7IE5TB","3W92K5RLWWN8MTV4RT80ILJ6NEN5V9","emotion","match","uniform","","","","","","","","385668.90000000596","387671.40000000596","","","","","","","","","","","","10","","stimuli/stars_10.png","119.5","","","","","stimuli/BF05_HO.jpg","",""
"explore-choice","99","389048","0.0-99.0","p828701","A3OTBMKOEQ410P","3UUIU9GZC6BQMHTLWW3KSJ0W7IE5TB","3W92K5RLWWN8MTV4RT80ILJ6NEN5V9","emotion","match","uniform","","","","","","","2918.600000023842","387672.2999999821","390590.90000000596","[""stimuli/WF06_HE.jpg"",""stimuli/BM07_CC.jpg"",""stimuli/BM16_HO.jpg"",""stimuli/BF05_DO.jpg""]","stimuli/WF06_HE.jpg","stimuli/BM07_CC.jpg","stimuli/BM16_HO.jpg","stimuli/BF05_DO.jpg","pos3","stimuli/BM16_HO.jpg","HO","BM16","2","4.5","9","8","stimuli/stars_9.png","124","[""HE"",""CC"",""HO"",""DO""]","[""WF06"",""BM07"",""BM16"",""BF05""]","[2,8,9,6]","[2,6,8,4]","","",""
"show-reward","100","391052","0.0-100.0","p828701","A3OTBMKOEQ410P","3UUIU9GZC6BQMHTLWW3KSJ0W7IE5TB","3W92K5RLWWN8MTV4RT80ILJ6NEN5V9","emotion","match","uniform","","","","","","","","391099.1999999881","393102.09999999404","","","","","","","","","","","","9","","stimuli/stars_9.png","124","","","","","stimuli/BM16_HO.jpg","",""
"explore-choice","101","394295","0.0-101.0","p828701","A3OTBMKOEQ410P","3UUIU9GZC6BQMHTLWW3KSJ0W7IE5TB","3W92K5RLWWN8MTV4RT80ILJ6NEN5V9","emotion","match","uniform","","","","","","","2735.600000023842","393103.2999999821","395838.90000000596","[""stimuli/BF05_CC.jpg"",""stimuli/BM16_HE.jpg"",""stimuli/BM07_DO.jpg"",""stimuli/WF06_HO.jpg""]","stimuli/BF05_CC.jpg","stimuli/BM16_HE.jpg","stimuli/BM07_DO.jpg","stimuli/WF06_HO.jpg","pos4","stimuli/WF06_HO.jpg","HO","WF06","3","4.5","9","8","stimuli/stars_9.png","128.5","[""CC"",""HE"",""DO"",""HO""]","[""BF05"",""BM16"",""BM07"",""WF06""]","[5,0,4,9]","[6,2,4,8]","","",""
"show-reward","102","396299","0.0-102.0","p828701","A3OTBMKOEQ410P","3UUIU9GZC6BQMHTLWW3KSJ0W7IE5TB","3W92K5RLWWN8MTV4RT80ILJ6NEN5V9","emotion","match","uniform","","","","","","","","396345.7999999821","398348.5","","","","","","","","","","","","9","","stimuli/stars_9.png","128.5","","","","","stimuli/WF06_HO.jpg","",""
"explore-choice","103","400658","0.0-103.0","p828701","A3OTBMKOEQ410P","3UUIU9GZC6BQMHTLWW3KSJ0W7IE5TB","3W92K5RLWWN8MTV4RT80ILJ6NEN5V9","emotion","match","uniform","","","","","","","3856.699999988079","398350","402206.6999999881","[""stimuli/BF08_SC.jpg"",""stimuli/WM07_SUR.jpg"",""stimuli/HM07_FO.jpg"",""stimuli/BF04_AO.jpg""]","stimuli/BF08_SC.jpg","stimuli/WM07_SUR.jpg","stimuli/HM07_FO.jpg","stimuli/BF04_AO.jpg","pos4","stimuli/BF04_AO.jpg","AO","BF04","3","2","4","6","stimuli/stars_4.png","130.5","[""SC"",""SUR"",""FO"",""AO""]","[""BF08"",""WM07"",""HM07"",""BF04""]","[4,5,9,4]","[2,4,8,6]","","",""
"show-reward","104","402665","0.0-104.0","p828701","A3OTBMKOEQ410P","3UUIU9GZC6BQMHTLWW3KSJ0W7IE5TB","3W92K5RLWWN8MTV4RT80ILJ6NEN5V9","emotion","match","uniform","","","","","","","","402709.09999999404","404715.1999999881","","","","","","","","","","","","4","","stimuli/stars_4.png","130.5","","","","","stimuli/BF04_AO.jpg","",""
"explore-choice","105","405065","0.0-105.0","p828701","A3OTBMKOEQ410P","3UUIU9GZC6BQMHTLWW3KSJ0W7IE5TB","3W92K5RLWWN8MTV4RT80ILJ6NEN5V9","emotion","match","uniform","","","","","","","1890.199999988079","404716.40000000596","406606.59999999404","[""stimuli/WM07_SUR.jpg"",""stimuli/HM07_AO.jpg"",""stimuli/BF08_SC.jpg"",""stimuli/BF04_FO.jpg""]","stimuli/WM07_SUR.jpg","stimuli/HM07_AO.jpg","stimuli/BF08_SC.jpg","stimuli/BF04_FO.jpg","pos2","stimuli/HM07_AO.jpg","AO","HM07","1","2","4","6","stimuli/stars_4.png","132.5","[""SUR"",""AO"",""SC"",""FO""]","[""WM07"",""HM07"",""BF08"",""BF04""]","[5,4,4,10]","[4,6,2,8]","","",""
"show-reward","106","407077","0.0-106.0","p828701","A3OTBMKOEQ410P","3UUIU9GZC6BQMHTLWW3KSJ0W7IE5TB","3W92K5RLWWN8MTV4RT80ILJ6NEN5V9","emotion","match","uniform","","","","","","","","407116.59999999404","409126.40000000596","","","","","","","","","","","","4","","stimuli/stars_4.png","132.5","","","","","stimuli/HM07_AO.jpg","",""
"explore-choice","107","408896","0.0-107.0","p828701","A3OTBMKOEQ410P","3UUIU9GZC6BQMHTLWW3KSJ0W7IE5TB","3W92K5RLWWN8MTV4RT80ILJ6NEN5V9","emotion","match","uniform","","","","","","","1310.9000000059605","409127.7999999821","410438.6999999881","[""stimuli/BF04_FO.jpg"",""stimuli/BF08_SC.jpg"",""stimuli/HM07_SUR.jpg"",""stimuli/WM07_AO.jpg""]","stimuli/BF04_FO.jpg","stimuli/BF08_SC.jpg","stimuli/HM07_SUR.jpg","stimuli/WM07_AO.jpg","pos4","stimuli/WM07_AO.jpg","AO","WM07","3","2","4","6","stimuli/stars_4.png","134.5","[""FO"",""SC"",""SUR"",""AO""]","[""BF04"",""BF08"",""HM07"",""WM07""]","[9,1,6,4]","[8,2,4,6]","","",""
"show-reward","108","410901","0.0-108.0","p828701","A3OTBMKOEQ410P","3UUIU9GZC6BQMHTLWW3KSJ0W7IE5TB","3W92K5RLWWN8MTV4RT80ILJ6NEN5V9","emotion","match","uniform","","","","","","","","410947.5","412950.5","","","","","","","","","","","","4","","stimuli/stars_4.png","134.5","","","","","stimuli/WM07_AO.jpg","",""
"explore-choice","109","412702","0.0-109.0","p828701","A3OTBMKOEQ410P","3UUIU9GZC6BQMHTLWW3KSJ0W7IE5TB","3W92K5RLWWN8MTV4RT80ILJ6NEN5V9","emotion","match","uniform","","","","","","","1295","412951.6999999881","414246.6999999881","[""stimuli/WM07_AO.jpg"",""stimuli/HM07_SC.jpg"",""stimuli/BF08_FO.jpg"",""stimuli/BF04_SUR.jpg""]","stimuli/WM07_AO.jpg","stimuli/HM07_SC.jpg","stimuli/BF08_FO.jpg","stimuli/BF04_SUR.jpg","pos3","stimuli/BF08_FO.jpg","FO","BF08","2","3.5","7","8","stimuli/stars_7.png","138","[""AO"",""SC"",""FO"",""SUR""]","[""WM07"",""HM07"",""BF08"",""BF04""]","[4,2,7,4]","[6,2,8,4]","","",""
"show-reward","110","414714","0.0-110.0","p828701","A3OTBMKOEQ410P","3UUIU9GZC6BQMHTLWW3KSJ0W7IE5TB","3W92K5RLWWN8MTV4RT80ILJ6NEN5V9","emotion","match","uniform","","","","","","","","414753","416763.59999999404","","","","","","","","","","","","7","","stimuli/stars_7.png","138","","","","","stimuli/BF08_FO.jpg","",""
"explore-choice","111","417725","0.0-111.0","p828701","A3OTBMKOEQ410P","3UUIU9GZC6BQMHTLWW3KSJ0W7IE5TB","3W92K5RLWWN8MTV4RT80ILJ6NEN5V9","emotion","match","uniform","","","","","","","2497.800000011921","416764.7999999821","419262.59999999404","[""stimuli/HM07_AO.jpg"",""stimuli/BF08_SC.jpg"",""stimuli/WM07_FO.jpg"",""stimuli/BF04_SUR.jpg""]","stimuli/HM07_AO.jpg","stimuli/BF08_SC.jpg","stimuli/WM07_FO.jpg","stimuli/BF04_SUR.jpg","pos4","stimuli/BF04_SUR.jpg","SUR","BF04","3","1.5","3","4","stimuli/stars_3.png","139.5","[""AO"",""SC"",""FO"",""SUR""]","[""HM07"",""BF08"",""WM07"",""BF04""]","[7,4,8,3]","[6,2,8,4]","","",""
"show-reward","112","419727","0.0-112.0","p828701","A3OTBMKOEQ410P","3UUIU9GZC6BQMHTLWW3KSJ0W7IE5TB","3W92K5RLWWN8MTV4RT80ILJ6NEN5V9","emotion","match","uniform","","","","","","","","419775.59999999404","421777.5","","","","","","","","","","","","3","","stimuli/stars_3.png","139.5","","","","","stimuli/BF04_SUR.jpg","",""
"explore-choice","113","422245","0.0-113.0","p828701","A3OTBMKOEQ410P","3UUIU9GZC6BQMHTLWW3KSJ0W7IE5TB","3W92K5RLWWN8MTV4RT80ILJ6NEN5V9","emotion","match","uniform","","","","","","","2003.5","421779.09999999404","423782.59999999404","[""stimuli/BF08_AO.jpg"",""stimuli/HM07_SUR.jpg"",""stimuli/WM07_FO.jpg"",""stimuli/BF04_SC.jpg""]","stimuli/BF08_AO.jpg","stimuli/HM07_SUR.jpg","stimuli/WM07_FO.jpg","stimuli/BF04_SC.jpg","pos1","stimuli/BF08_AO.jpg","AO","BF08","0","3.5","7","6","stimuli/stars_7.png","143","[""AO"",""SUR"",""FO"",""SC""]","[""BF08"",""HM07"",""WM07"",""BF04""]","[7,3,7,3]","[6,4,8,2]","","",""
"show-reward","114","424249","0.0-114.0","p828701","A3OTBMKOEQ410P","3UUIU9GZC6BQMHTLWW3KSJ0W7IE5TB","3W92K5RLWWN8MTV4RT80ILJ6NEN5V9","emotion","match","uniform","","","","","","","","424295.7999999821","426298.59999999404","","","","","","","","","","","","7","","stimuli/stars_7.png","143","","","","","stimuli/BF08_AO.jpg","",""
"explore-choice","115","427698","0.0-115.0","p828701","A3OTBMKOEQ410P","3UUIU9GZC6BQMHTLWW3KSJ0W7IE5TB","3W92K5RLWWN8MTV4RT80ILJ6NEN5V9","emotion","match","uniform","","","","","","","2946.800000011921","426299.6999999881","429246.5","[""stimuli/HM07_FO.jpg"",""stimuli/BF08_SUR.jpg"",""stimuli/WM07_SC.jpg"",""stimuli/BF04_AO.jpg""]","stimuli/HM07_FO.jpg","stimuli/BF08_SUR.jpg","stimuli/WM07_SC.jpg","stimuli/BF04_AO.jpg","pos2","stimuli/BF08_SUR.jpg","SUR","BF08","1","2","4","4","stimuli/stars_4.png","145","[""FO"",""SUR"",""SC"",""AO""]","[""HM07"",""BF08"",""WM07"",""BF04""]","[7,4,4,7]","[8,4,2,6]","","",""
"show-reward","116","429713","0.0-116.0","p828701","A3OTBMKOEQ410P","3UUIU9GZC6BQMHTLWW3KSJ0W7IE5TB","3W92K5RLWWN8MTV4RT80ILJ6NEN5V9","emotion","match","uniform","","","","","","","","429748.6999999881","431763.2999999821","","","","","","","","","","","","4","","stimuli/stars_4.png","145","","","","","stimuli/BF08_SUR.jpg","",""
"explore-choice","117","432004","0.0-117.0","p828701","A3OTBMKOEQ410P","3UUIU9GZC6BQMHTLWW3KSJ0W7IE5TB","3W92K5RLWWN8MTV4RT80ILJ6NEN5V9","emotion","match","uniform","","","","","","","1777.9000000059605","431764.5","433542.40000000596","[""stimuli/BF04_SC.jpg"",""stimuli/HM07_AO.jpg"",""stimuli/BF08_SUR.jpg"",""stimuli/WM07_FO.jpg""]","stimuli/BF04_SC.jpg","stimuli/HM07_AO.jpg","stimuli/BF08_SUR.jpg","stimuli/WM07_FO.jpg","pos3","stimuli/BF08_SUR.jpg","SUR","BF08","2","2.5","5","4","stimuli/stars_5.png","147.5","[""SC"",""AO"",""SUR"",""FO""]","[""BF04"",""HM07"",""BF08"",""WM07""]","[2,8,5,7]","[2,6,4,8]","","",""
"show-reward","118","434008","0.0-118.0","p828701","A3OTBMKOEQ410P","3UUIU9GZC6BQMHTLWW3KSJ0W7IE5TB","3W92K5RLWWN8MTV4RT80ILJ6NEN5V9","emotion","match","uniform","","","","","","","","434055.40000000596","436058.2999999821","","","","","","","","","","","","5","","stimuli/stars_5.png","147.5","","","","","stimuli/BF08_SUR.jpg","",""
"explore-choice","119","437411","0.0-119.0","p828701","A3OTBMKOEQ410P","3UUIU9GZC6BQMHTLWW3KSJ0W7IE5TB","3W92K5RLWWN8MTV4RT80ILJ6NEN5V9","emotion","match","uniform","","","","","","","2890.9000000059605","436059.5","438950.40000000596","[""stimuli/BF04_SC.jpg"",""stimuli/WM07_AO.jpg"",""stimuli/BF08_SUR.jpg"",""stimuli/HM07_FO.jpg""]","stimuli/BF04_SC.jpg","stimuli/WM07_AO.jpg","stimuli/BF08_SUR.jpg","stimuli/HM07_FO.jpg","pos4","stimuli/HM07_FO.jpg","FO","HM07","3","4.5","9","8","stimuli/stars_9.png","152","[""SC"",""AO"",""SUR"",""FO""]","[""BF04"",""WM07"",""BF08"",""HM07""]","[4,4,3,9]","[2,6,4,8]","","",""
"show-reward","120","439430","0.0-120.0","p828701","A3OTBMKOEQ410P","3UUIU9GZC6BQMHTLWW3KSJ0W7IE5TB","3W92K5RLWWN8MTV4RT80ILJ6NEN5V9","emotion","match","uniform","","","","","","","","439462.40000000596","441479.59999999404","","","","","","","","","","","","9","","stimuli/stars_9.png","152","","","","","stimuli/HM07_FO.jpg","",""
"explore-choice","121","443277","0.0-121.0","p828701","A3OTBMKOEQ410P","3UUIU9GZC6BQMHTLWW3KSJ0W7IE5TB","3W92K5RLWWN8MTV4RT80ILJ6NEN5V9","emotion","match","uniform","","","","","","","3341.2999999821186","441480.90000000596","444822.1999999881","[""stimuli/WM07_SC.jpg"",""stimuli/BF08_FO.jpg"",""stimuli/HM07_SUR.jpg"",""stimuli/BF04_AO.jpg""]","stimuli/WM07_SC.jpg","stimuli/BF08_FO.jpg","stimuli/HM07_SUR.jpg","stimuli/BF04_AO.jpg","pos2","stimuli/BF08_FO.jpg","FO","BF08","1","3","6","8","stimuli/stars_6.png","155","[""SC"",""FO"",""SUR"",""AO""]","[""WM07"",""BF08"",""HM07"",""BF04""]","[2,6,4,6]","[2,8,4,6]","","",""
"show-reward","122","445287","0.0-122.0","p828701","A3OTBMKOEQ410P","3UUIU9GZC6BQMHTLWW3KSJ0W7IE5TB","3W92K5RLWWN8MTV4RT80ILJ6NEN5V9","emotion","match","uniform","","","","","","","","445328.59999999404","447336.59999999404","","","","","","","","","","","","6","","stimuli/stars_6.png","155","","","","","stimuli/BF08_FO.jpg","",""
"explore-choice","123","450106","0.0-123.0","p828701","A3OTBMKOEQ410P","3UUIU9GZC6BQMHTLWW3KSJ0W7IE5TB","3W92K5RLWWN8MTV4RT80ILJ6NEN5V9","emotion","match","uniform","","","","","","","4308.5","447337.7999999821","451646.2999999821","[""stimuli/WM07_SUR.jpg"",""stimuli/BF04_AO.jpg"",""stimuli/HM07_SC.jpg"",""stimuli/BF08_FO.jpg""]","stimuli/WM07_SUR.jpg","stimuli/BF04_AO.jpg","stimuli/HM07_SC.jpg","stimuli/BF08_FO.jpg","pos3","stimuli/HM07_SC.jpg","SC","HM07","2","0.5","1","2","stimuli/stars_1.png","155.5","[""SUR"",""AO"",""SC"",""FO""]","[""WM07"",""BF04"",""HM07"",""BF08""]","[2,5,1,10]","[4,6,2,8]","","",""
"show-reward","124","452111","0.0-124.0","p828701","A3OTBMKOEQ410P","3UUIU9GZC6BQMHTLWW3KSJ0W7IE5TB","3W92K5RLWWN8MTV4RT80ILJ6NEN5V9","emotion","match","uniform","","","","","","","","452156.90000000596","454161.1999999881","","","","","","","","","","","","1","","stimuli/stars_1.png","155.5","","","","","stimuli/HM07_SC.jpg","",""
"explore-choice","125","454465","0.0-125.0","p828701","A3OTBMKOEQ410P","3UUIU9GZC6BQMHTLWW3KSJ0W7IE5TB","3W92K5RLWWN8MTV4RT80ILJ6NEN5V9","emotion","match","uniform","","","","","","","1851.800000011921","454162.2999999821","456014.09999999404","[""stimuli/BF08_FO.jpg"",""stimuli/WM07_AO.jpg"",""stimuli/BF04_SC.jpg"",""stimuli/HM07_SUR.jpg""]","stimuli/BF08_FO.jpg","stimuli/WM07_AO.jpg","stimuli/BF04_SC.jpg","stimuli/HM07_SUR.jpg","pos1","stimuli/BF08_FO.jpg","FO","BF08","0","3.5","7","8","stimuli/stars_7.png","159","[""FO"",""AO"",""SC"",""SUR""]","[""BF08"",""WM07"",""BF04"",""HM07""]","[7,6,4,4]","[8,6,2,4]","","",""
"show-reward","126","456468","0.0-126.0","p828701","A3OTBMKOEQ410P","3UUIU9GZC6BQMHTLWW3KSJ0W7IE5TB","3W92K5RLWWN8MTV4RT80ILJ6NEN5V9","emotion","match","uniform","","","","","","","","456515.40000000596","458517.59999999404","","","","","","","","","","","","7","","stimuli/stars_7.png","159","","","","","stimuli/BF08_FO.jpg","",""
"explore-choice","127","458816","0.0-127.0","p828701","A3OTBMKOEQ410P","3UUIU9GZC6BQMHTLWW3KSJ0W7IE5TB","3W92K5RLWWN8MTV4RT80ILJ6NEN5V9","emotion","match","uniform","","","","","","","1831.5999999940395","458518.6999999881","460350.2999999821","[""stimuli/BF04_FO.jpg"",""stimuli/WM07_SC.jpg"",""stimuli/BF08_SUR.jpg"",""stimuli/HM07_AO.jpg""]","stimuli/BF04_FO.jpg","stimuli/WM07_SC.jpg","stimuli/BF08_SUR.jpg","stimuli/HM07_AO.jpg","pos2","stimuli/WM07_SC.jpg","SC","WM07","1","0","0","2","stimuli/stars_0.png","159","[""FO"",""SC"",""SUR"",""AO""]","[""BF04"",""WM07"",""BF08"",""HM07""]","[10,0,3,4]","[8,2,4,6]","","",""
"show-reward","128","460821","0.0-128.0","p828701","A3OTBMKOEQ410P","3UUIU9GZC6BQMHTLWW3KSJ0W7IE5TB","3W92K5RLWWN8MTV4RT80ILJ6NEN5V9","emotion","match","uniform","","","","","","","","460867.5","462871.09999999404","","","","","","","","","","","","0","","stimuli/stars_0.png","159","","","","","stimuli/WM07_SC.jpg","",""
"explore-choice","129","470277","0.0-129.0","p828701","A3OTBMKOEQ410P","3UUIU9GZC6BQMHTLWW3KSJ0W7IE5TB","3W92K5RLWWN8MTV4RT80ILJ6NEN5V9","emotion","match","uniform","","","","","","","8942.299999982119","462872.40000000596","471814.6999999881","[""stimuli/HM07_SC.jpg"",""stimuli/BF04_SUR.jpg"",""stimuli/WM07_FO.jpg"",""stimuli/BF08_AO.jpg""]","stimuli/HM07_SC.jpg","stimuli/BF04_SUR.jpg","stimuli/WM07_FO.jpg","stimuli/BF08_AO.jpg","pos1","stimuli/HM07_SC.jpg","SC","HM07","0","2","4","2","stimuli/stars_4.png","161","[""SC"",""SUR"",""FO"",""AO""]","[""HM07"",""BF04"",""WM07"",""BF08""]","[4,3,8,5]","[2,4,8,6]","","",""
"show-reward","130","472297","0.0-130.0","p828701","A3OTBMKOEQ410P","3UUIU9GZC6BQMHTLWW3KSJ0W7IE5TB","3W92K5RLWWN8MTV4RT80ILJ6NEN5V9","emotion","match","uniform","","","","","","","","472328.7999999821","474346.59999999404","","","","","","","","","","","","4","","stimuli/stars_4.png","161","","","","","stimuli/HM07_SC.jpg","",""
"explore-choice","131","475217","0.0-131.0","p828701","A3OTBMKOEQ410P","3UUIU9GZC6BQMHTLWW3KSJ0W7IE5TB","3W92K5RLWWN8MTV4RT80ILJ6NEN5V9","emotion","match","uniform","","","","","","","2418.4000000059605","474347.7999999821","476766.1999999881","[""stimuli/BF04_FO.jpg"",""stimuli/WM07_AO.jpg"",""stimuli/HM07_SC.jpg"",""stimuli/BF08_SUR.jpg""]","stimuli/BF04_FO.jpg","stimuli/WM07_AO.jpg","stimuli/HM07_SC.jpg","stimuli/BF08_SUR.jpg","pos2","stimuli/WM07_AO.jpg","AO","WM07","1","3.5","7","6","stimuli/stars_7.png","164.5","[""FO"",""AO"",""SC"",""SUR""]","[""BF04"",""WM07"",""HM07"",""BF08""]","[9,7,3,3]","[8,6,2,4]","","",""
"show-reward","132","477232","0.0-132.0","p828701","A3OTBMKOEQ410P","3UUIU9GZC6BQMHTLWW3KSJ0W7IE5TB","3W92K5RLWWN8MTV4RT80ILJ6NEN5V9","emotion","match","uniform","","","","","","","","477268.5","479281.7999999821","","","","","","","","","","","","7","","stimuli/stars_7.png","164.5","","","","","stimuli/WM07_AO.jpg","",""
"explore-choice","133","479173","0.0-133.0","p828701","A3OTBMKOEQ410P","3UUIU9GZC6BQMHTLWW3KSJ0W7IE5TB","3W92K5RLWWN8MTV4RT80ILJ6NEN5V9","emotion","match","uniform","","","","","","","1426.800000011921","479283.09999999404","480709.90000000596","[""stimuli/HM07_AO.jpg"",""stimuli/BF04_SC.jpg"",""stimuli/BF08_FO.jpg"",""stimuli/WM07_SUR.jpg""]","stimuli/HM07_AO.jpg","stimuli/BF04_SC.jpg","stimuli/BF08_FO.jpg","stimuli/WM07_SUR.jpg","pos3","stimuli/BF08_FO.jpg","FO","BF08","2","3.5","7","8","stimuli/stars_7.png","168","[""AO"",""SC"",""FO"",""SUR""]","[""HM07"",""BF04"",""BF08"",""WM07""]","[4,4,7,3]","[6,2,8,4]","","",""
"show-reward","134","481183","0.0-134.0","p828701","A3OTBMKOEQ410P","3UUIU9GZC6BQMHTLWW3KSJ0W7IE5TB","3W92K5RLWWN8MTV4RT80ILJ6NEN5V9","emotion","match","uniform","","","","","","","","481224.40000000596","483232.5","","","","","","","","","","","","7","","stimuli/stars_7.png","168","","","","","stimuli/BF08_FO.jpg","",""
"explore-choice","135","489717","0.0-135.0","p828701","A3OTBMKOEQ410P","3UUIU9GZC6BQMHTLWW3KSJ0W7IE5TB","3W92K5RLWWN8MTV4RT80ILJ6NEN5V9","emotion","match","uniform","","","","","","","8020.100000023842","483233.7999999821","491253.90000000596","[""stimuli/BF04_SUR.jpg"",""stimuli/WM07_SC.jpg"",""stimuli/HM07_AO.jpg"",""stimuli/BF08_FO.jpg""]","stimuli/BF04_SUR.jpg","stimuli/WM07_SC.jpg","stimuli/HM07_AO.jpg","stimuli/BF08_FO.jpg","pos4","stimuli/BF08_FO.jpg","FO","BF08","3","4","8","8","stimuli/stars_8.png","172","[""SUR"",""SC"",""AO"",""FO""]","[""BF04"",""WM07"",""HM07"",""BF08""]","[6,0,6,8]","[4,2,6,8]","","",""
"show-reward","136","491737","0.0-136.0","p828701","A3OTBMKOEQ410P","3UUIU9GZC6BQMHTLWW3KSJ0W7IE5TB","3W92K5RLWWN8MTV4RT80ILJ6NEN5V9","emotion","match","uniform","","","","","","","","491768.7999999821","493787.40000000596","","","","","","","","","","","","8","","stimuli/stars_8.png","172","","","","","stimuli/BF08_FO.jpg","",""
"explore-choice","137","493668","0.0-137.0","p828701","A3OTBMKOEQ410P","3UUIU9GZC6BQMHTLWW3KSJ0W7IE5TB","3W92K5RLWWN8MTV4RT80ILJ6NEN5V9","emotion","match","uniform","","","","","","","1417.0999999940395","493788.6999999881","495205.7999999821","[""stimuli/BF08_SC.jpg"",""stimuli/WM07_AO.jpg"",""stimuli/HM07_FO.jpg"",""stimuli/BF04_SUR.jpg""]","stimuli/BF08_SC.jpg","stimuli/WM07_AO.jpg","stimuli/HM07_FO.jpg","stimuli/BF04_SUR.jpg","pos4","stimuli/BF04_SUR.jpg","SUR","BF04","3","3","6","4","stimuli/stars_6.png","175","[""SC"",""AO"",""FO"",""SUR""]","[""BF08"",""WM07"",""HM07"",""BF04""]","[2,6,6,6]","[2,6,8,4]","","",""
"show-reward","138","495672","0.0-138.0","p828701","A3OTBMKOEQ410P","3UUIU9GZC6BQMHTLWW3KSJ0W7IE5TB","3W92K5RLWWN8MTV4RT80ILJ6NEN5V9","emotion","match","uniform","","","","","","","","495718.7999999821","497721.7999999821","","","","","","","","","","","","6","","stimuli/stars_6.png","175","","","","","stimuli/BF04_SUR.jpg","",""
"explore-choice","139","501669","0.0-139.0","p828701","A3OTBMKOEQ410P","3UUIU9GZC6BQMHTLWW3KSJ0W7IE5TB","3W92K5RLWWN8MTV4RT80ILJ6NEN5V9","emotion","match","uniform","","","","","","","5482.5","497723.1999999881","503205.6999999881","[""stimuli/WM07_SUR.jpg"",""stimuli/BF08_AO.jpg"",""stimuli/HM07_SC.jpg"",""stimuli/BF04_FO.jpg""]","stimuli/WM07_SUR.jpg","stimuli/BF08_AO.jpg","stimuli/HM07_SC.jpg","stimuli/BF04_FO.jpg","pos2","stimuli/BF08_AO.jpg","AO","BF08","1","2","4","6","stimuli/stars_4.png","177","[""SUR"",""AO"",""SC"",""FO""]","[""WM07"",""BF08"",""HM07"",""BF04""]","[2,4,2,6]","[4,6,2,8]","","",""
"show-reward","140","503673","0.0-140.0","p828701","A3OTBMKOEQ410P","3UUIU9GZC6BQMHTLWW3KSJ0W7IE5TB","3W92K5RLWWN8MTV4RT80ILJ6NEN5V9","emotion","match","uniform","","","","","","","","503720","505722.6999999881","","","","","","","","","","","","4","","stimuli/stars_4.png","177","","","","","stimuli/BF08_AO.jpg","",""
"explore-choice","141","505865","0.0-141.0","p828701","A3OTBMKOEQ410P","3UUIU9GZC6BQMHTLWW3KSJ0W7IE5TB","3W92K5RLWWN8MTV4RT80ILJ6NEN5V9","emotion","match","uniform","","","","","","","1681.7999999821186","505724","507405.7999999821","[""stimuli/BF08_AO.jpg"",""stimuli/BF04_FO.jpg"",""stimuli/HM07_SUR.jpg"",""stimuli/WM07_SC.jpg""]","stimuli/BF08_AO.jpg","stimuli/BF04_FO.jpg","stimuli/HM07_SUR.jpg","stimuli/WM07_SC.jpg","pos1","stimuli/BF08_AO.jpg","AO","BF08","0","3","6","6","stimuli/stars_6.png","180","[""AO"",""FO"",""SUR"",""SC""]","[""BF08"",""BF04"",""HM07"",""WM07""]","[6,8,3,0]","[6,8,4,2]","","",""
"show-reward","142","507880","0.0-142.0","p828701","A3OTBMKOEQ410P","3UUIU9GZC6BQMHTLWW3KSJ0W7IE5TB","3W92K5RLWWN8MTV4RT80ILJ6NEN5V9","emotion","match","uniform","","","","","","","","507916.59999999404","509930.40000000596","","","","","","","","","","","","6","","stimuli/stars_6.png","180","","","","","stimuli/BF08_AO.jpg","",""
"explore-choice","143","510857","0.0-143.0","p828701","A3OTBMKOEQ410P","3UUIU9GZC6BQMHTLWW3KSJ0W7IE5TB","3W92K5RLWWN8MTV4RT80ILJ6NEN5V9","emotion","match","uniform","","","","","","","2474.0999999940395","509931.59999999404","512405.6999999881","[""stimuli/WM07_SUR.jpg"",""stimuli/BF04_SC.jpg"",""stimuli/BF08_AO.jpg"",""stimuli/HM07_FO.jpg""]","stimuli/WM07_SUR.jpg","stimuli/BF04_SC.jpg","stimuli/BF08_AO.jpg","stimuli/HM07_FO.jpg","pos3","stimuli/BF08_AO.jpg","AO","BF08","2","4","8","6","stimuli/stars_8.png","184","[""SUR"",""SC"",""AO"",""FO""]","[""WM07"",""BF04"",""BF08"",""HM07""]","[3,0,8,8]","[4,2,6,8]","","",""
"show-reward","144","512861","0.0-144.0","p828701","A3OTBMKOEQ410P","3UUIU9GZC6BQMHTLWW3KSJ0W7IE5TB","3W92K5RLWWN8MTV4RT80ILJ6NEN5V9","emotion","match","uniform","","","","","","","","512908.2999999821","514911.2999999821","","","","","","","","","","","","8","","stimuli/stars_8.png","184","","","","","stimuli/BF08_AO.jpg","",""
"explore-choice","145","515398","0.0-145.0","p828701","A3OTBMKOEQ410P","3UUIU9GZC6BQMHTLWW3KSJ0W7IE5TB","3W92K5RLWWN8MTV4RT80ILJ6NEN5V9","emotion","match","uniform","","","","","","","2021.7999999821186","514912.40000000596","516934.1999999881","[""stimuli/BF08_AO.jpg"",""stimuli/HM07_FO.jpg"",""stimuli/BF04_SUR.jpg"",""stimuli/WM07_SC.jpg""]","stimuli/BF08_AO.jpg","stimuli/HM07_FO.jpg","stimuli/BF04_SUR.jpg","stimuli/WM07_SC.jpg","pos1","stimuli/BF08_AO.jpg","AO","BF08","0","2.5","5","6","stimuli/stars_5.png","186.5","[""AO"",""FO"",""SUR"",""SC""]","[""BF08"",""HM07"",""BF04"",""WM07""]","[5,6,5,4]","[6,8,4,2]","","",""
"show-reward","146","517405","0.0-146.0","p828701","A3OTBMKOEQ410P","3UUIU9GZC6BQMHTLWW3KSJ0W7IE5TB","3W92K5RLWWN8MTV4RT80ILJ6NEN5V9","emotion","match","uniform","","","","","","","","517449","519454.90000000596","","","","","","","","","","","","5","","stimuli/stars_5.png","186.5","","","","","stimuli/BF08_AO.jpg","",""
"explore-choice","147","520031","0.0-147.0","p828701","A3OTBMKOEQ410P","3UUIU9GZC6BQMHTLWW3KSJ0W7IE5TB","3W92K5RLWWN8MTV4RT80ILJ6NEN5V9","emotion","match","uniform","","","","","","","2117.5","519456.09999999404","521573.59999999404","[""stimuli/BF08_SC.jpg"",""stimuli/BF04_AO.jpg"",""stimuli/WM07_FO.jpg"",""stimuli/HM07_SUR.jpg""]","stimuli/BF08_SC.jpg","stimuli/BF04_AO.jpg","stimuli/WM07_FO.jpg","stimuli/HM07_SUR.jpg","pos2","stimuli/BF04_AO.jpg","AO","BF04","1","2.5","5","6","stimuli/stars_5.png","189","[""SC"",""AO"",""FO"",""SUR""]","[""BF08"",""BF04"",""WM07"",""HM07""]","[2,5,10,4]","[2,6,8,4]","","",""
"show-reward","148","522047","0.0-148.0","p828701","A3OTBMKOEQ410P","3UUIU9GZC6BQMHTLWW3KSJ0W7IE5TB","3W92K5RLWWN8MTV4RT80ILJ6NEN5V9","emotion","match","uniform","","","","","","","","522081.6999999881","524096.7999999821","","","","","","","","","","","","5","","stimuli/stars_5.png","189","","","","","stimuli/BF04_AO.jpg","",""
"explore-choice","149","523585","0.0-149.0","p828701","A3OTBMKOEQ410P","3UUIU9GZC6BQMHTLWW3KSJ0W7IE5TB","3W92K5RLWWN8MTV4RT80ILJ6NEN5V9","emotion","match","uniform","","","","","","","1027.9000000059605","524097.6999999881","525125.599999994","[""stimuli/HM07_SC.jpg"",""stimuli/BF08_SUR.jpg"",""stimuli/BF04_AO.jpg"",""stimuli/WM07_FO.jpg""]","stimuli/HM07_SC.jpg","stimuli/BF08_SUR.jpg","stimuli/BF04_AO.jpg","stimuli/WM07_FO.jpg","pos2","stimuli/BF08_SUR.jpg","SUR","BF08","1","2","4","4","stimuli/stars_4.png","191","[""SC"",""SUR"",""AO"",""FO""]","[""HM07"",""BF08"",""BF04"",""WM07""]","[0,4,7,8]","[2,4,6,8]","","",""
"show-reward","150","525590","0.0-150.0","p828701","A3OTBMKOEQ410P","3UUIU9GZC6BQMHTLWW3KSJ0W7IE5TB","3W92K5RLWWN8MTV4RT80ILJ6NEN5V9","emotion","match","uniform","","","","","","","","525636.2999999821","527639.599999994","","","","","","","","","","","","4","","stimuli/stars_4.png","191","","","","","stimuli/BF08_SUR.jpg","",""
"explore-choice","151","527075","0.0-151.0","p828701","A3OTBMKOEQ410P","3UUIU9GZC6BQMHTLWW3KSJ0W7IE5TB","3W92K5RLWWN8MTV4RT80ILJ6NEN5V9","emotion","match","uniform","","","","","","","980.9000000059605","527640.6999999881","528621.599999994","[""stimuli/BF04_SUR.jpg"",""stimuli/WM07_FO.jpg"",""stimuli/BF08_SC.jpg"",""stimuli/HM07_AO.jpg""]","stimuli/BF04_SUR.jpg","stimuli/WM07_FO.jpg","stimuli/BF08_SC.jpg","stimuli/HM07_AO.jpg","pos3","stimuli/BF08_SC.jpg","SC","BF08","2","2","4","2","stimuli/stars_4.png","193","[""SUR"",""FO"",""SC"",""AO""]","[""BF04"",""WM07"",""BF08"",""HM07""]","[3,8,4,7]","[4,8,2,6]","","",""
"show-reward","152","529086","0.0-152.0","p828701","A3OTBMKOEQ410P","3UUIU9GZC6BQMHTLWW3KSJ0W7IE5TB","3W92K5RLWWN8MTV4RT80ILJ6NEN5V9","emotion","match","uniform","","","","","","","","529126.5","531135.900000006","","","","","","","","","","","","4","","stimuli/stars_4.png","193","","","","","stimuli/BF08_SC.jpg","",""
"explore-choice","153","530998","0.0-153.0","p828701","A3OTBMKOEQ410P","3UUIU9GZC6BQMHTLWW3KSJ0W7IE5TB","3W92K5RLWWN8MTV4RT80ILJ6NEN5V9","emotion","match","uniform","","","","","","","1404.4000000059605","531137.1999999881","532541.599999994","[""stimuli/WM07_FO.jpg"",""stimuli/BF04_SUR.jpg"",""stimuli/BF08_AO.jpg"",""stimuli/HM07_SC.jpg""]","stimuli/WM07_FO.jpg","stimuli/BF04_SUR.jpg","stimuli/BF08_AO.jpg","stimuli/HM07_SC.jpg","pos2","stimuli/BF04_SUR.jpg","SUR","BF04","1","1.5","3","4","stimuli/stars_3.png","194.5","[""FO"",""SUR"",""AO"",""SC""]","[""WM07"",""BF04"",""BF08"",""HM07""]","[8,3,5,4]","[8,4,6,2]","","",""
"show-reward","154","533011","0.0-154.0","p828701","A3OTBMKOEQ410P","3UUIU9GZC6BQMHTLWW3KSJ0W7IE5TB","3W92K5RLWWN8MTV4RT80ILJ6NEN5V9","emotion","match","uniform","","","","","","","","533049.900000006","535061.5","","","","","","","","","","","","3","","stimuli/stars_3.png","194.5","","","","","stimuli/BF04_SUR.jpg","",""
"explore-choice","155","534491","0.0-155.0","p828701","A3OTBMKOEQ410P","3UUIU9GZC6BQMHTLWW3KSJ0W7IE5TB","3W92K5RLWWN8MTV4RT80ILJ6NEN5V9","emotion","match","uniform","","","","","","","974.7000000178814","535062.6999999881","536037.400000006","[""stimuli/WM07_SC.jpg"",""stimuli/HM07_FO.jpg"",""stimuli/BF04_AO.jpg"",""stimuli/BF08_SUR.jpg""]","stimuli/WM07_SC.jpg","stimuli/HM07_FO.jpg","stimuli/BF04_AO.jpg","stimuli/BF08_SUR.jpg","pos4","stimuli/BF08_SUR.jpg","SUR","BF08","3","2","4","4","stimuli/stars_4.png","196.5","[""SC"",""FO"",""AO"",""SUR""]","[""WM07"",""HM07"",""BF04"",""BF08""]","[4,7,7,4]","[2,8,6,4]","","",""
"show-reward","156","536496","0.0-156.0","p828701","A3OTBMKOEQ410P","3UUIU9GZC6BQMHTLWW3KSJ0W7IE5TB","3W92K5RLWWN8MTV4RT80ILJ6NEN5V9","emotion","match","uniform","","","","","","","","536542.599999994","538545.7999999821","","","","","","","","","","","","4","","stimuli/stars_4.png","196.5","","","","","stimuli/BF08_SUR.jpg","",""
"explore-choice","157","537954","0.0-157.0","p828701","A3OTBMKOEQ410P","3UUIU9GZC6BQMHTLWW3KSJ0W7IE5TB","3W92K5RLWWN8MTV4RT80ILJ6NEN5V9","emotion","match","uniform","","","","","","","946.6999999880791","538547","539493.6999999881","[""stimuli/BF08_SC.jpg"",""stimuli/HM07_SUR.jpg"",""stimuli/WM07_AO.jpg"",""stimuli/BF04_FO.jpg""]","stimuli/BF08_SC.jpg","stimuli/HM07_SUR.jpg","stimuli/WM07_AO.jpg","stimuli/BF04_FO.jpg","pos1","stimuli/BF08_SC.jpg","SC","BF08","0","0.5","1","2","stimuli/stars_1.png","197","[""SC"",""SUR"",""AO"",""FO""]","[""BF08"",""HM07"",""WM07"",""BF04""]","[1,6,4,9]","[2,4,6,8]","","",""
"show-reward","158","539967","0.0-158.0","p828701","A3OTBMKOEQ410P","3UUIU9GZC6BQMHTLWW3KSJ0W7IE5TB","3W92K5RLWWN8MTV4RT80ILJ6NEN5V9","emotion","match","uniform","","","","","","","","540005.2999999821","542016.7999999821","","","","","","","","","","","","1","","stimuli/stars_1.png","197","","","","","stimuli/BF08_SC.jpg","",""
"explore-choice","159","541304","0.0-159.0","p828701","A3OTBMKOEQ410P","3UUIU9GZC6BQMHTLWW3KSJ0W7IE5TB","3W92K5RLWWN8MTV4RT80ILJ6NEN5V9","emotion","match","uniform","","","","","","","835.3000000119209","542018.099999994","542853.400000006","[""stimuli/HM07_AO.jpg"",""stimuli/BF04_FO.jpg"",""stimuli/WM07_SUR.jpg"",""stimuli/BF08_SC.jpg""]","stimuli/HM07_AO.jpg","stimuli/BF04_FO.jpg","stimuli/WM07_SUR.jpg","stimuli/BF08_SC.jpg","pos3","stimuli/WM07_SUR.jpg","SUR","WM07","2","2.5","5","4","stimuli/stars_5.png","199.5","[""AO"",""FO"",""SUR"",""SC""]","[""HM07"",""BF04"",""WM07"",""BF08""]","[4,10,5,4]","[6,8,4,2]","","",""
"show-reward","160","543310","0.0-160.0","p828701","A3OTBMKOEQ410P","3UUIU9GZC6BQMHTLWW3KSJ0W7IE5TB","3W92K5RLWWN8MTV4RT80ILJ6NEN5V9","emotion","match","uniform","","","","","","","","543355.1999999881","545359.1999999881","","","","","","","","","","","","5","","stimuli/stars_5.png","199.5","","","","","stimuli/WM07_SUR.jpg","",""
"explore-choice","161","544477","0.0-161.0","p828701","A3OTBMKOEQ410P","3UUIU9GZC6BQMHTLWW3KSJ0W7IE5TB","3W92K5RLWWN8MTV4RT80ILJ6NEN5V9","emotion","match","uniform","","","","","","","652.5999999940395","545360.900000006","546013.5","[""stimuli/BF08_FO.jpg"",""stimuli/BF04_SC.jpg"",""stimuli/WM07_SUR.jpg"",""stimuli/HM07_AO.jpg""]","stimuli/BF08_FO.jpg","stimuli/BF04_SC.jpg","stimuli/WM07_SUR.jpg","stimuli/HM07_AO.jpg","pos2","stimuli/BF04_SC.jpg","SC","BF04","1","2","4","2","stimuli/stars_4.png","201.5","[""FO"",""SC"",""SUR"",""AO""]","[""BF08"",""BF04"",""WM07"",""HM07""]","[7,4,3,4]","[8,2,4,6]","","",""
"show-reward","162","546482","0.0-162.0","p828701","A3OTBMKOEQ410P","3UUIU9GZC6BQMHTLWW3KSJ0W7IE5TB","3W92K5RLWWN8MTV4RT80ILJ6NEN5V9","emotion","match","uniform","","","","","","","","546528.599999994","548532.099999994","","","","","","","","","","","","4","","stimuli/stars_4.png","201.5","","","","","stimuli/BF04_SC.jpg","",""
"explore-choice","163","548082","0.0-163.0","p828701","A3OTBMKOEQ410P","3UUIU9GZC6BQMHTLWW3KSJ0W7IE5TB","3W92K5RLWWN8MTV4RT80ILJ6NEN5V9","emotion","match","uniform","","","","","","","1096.2000000178814","548533.2999999821","549629.5","[""stimuli/BF08_SUR.jpg"",""stimuli/WM07_AO.jpg"",""stimuli/HM07_SC.jpg"",""stimuli/BF04_FO.jpg""]","stimuli/BF08_SUR.jpg","stimuli/WM07_AO.jpg","stimuli/HM07_SC.jpg","stimuli/BF04_FO.jpg","pos4","stimuli/BF04_FO.jpg","FO","BF04","3","4.5","9","8","stimuli/stars_9.png","206","[""SUR"",""AO"",""SC"",""FO""]","[""BF08"",""WM07"",""HM07"",""BF04""]","[3,7,3,9]","[4,6,2,8]","","",""
"show-reward","164","550090","0.0-164.0","p828701","A3OTBMKOEQ410P","3UUIU9GZC6BQMHTLWW3KSJ0W7IE5TB","3W92K5RLWWN8MTV4RT80ILJ6NEN5V9","emotion","match","uniform","","","","","","","","550133.2999999821","552139.599999994","","","","","","","","","","","","9","","stimuli/stars_9.png","206","","","","","stimuli/BF04_FO.jpg","",""
"explore-choice","165","555409","0.0-165.0","p828701","A3OTBMKOEQ410P","3UUIU9GZC6BQMHTLWW3KSJ0W7IE5TB","3W92K5RLWWN8MTV4RT80ILJ6NEN5V9","emotion","match","uniform","","","","","","","4808.600000023842","552140.7999999821","556949.400000006","[""stimuli/BF08_AO.jpg"",""stimuli/WM07_SC.jpg"",""stimuli/BF04_FO.jpg"",""stimuli/HM07_SUR.jpg""]","stimuli/BF08_AO.jpg","stimuli/WM07_SC.jpg","stimuli/BF04_FO.jpg","stimuli/HM07_SUR.jpg","pos3","stimuli/BF04_FO.jpg","FO","BF04","2","4","8","8","stimuli/stars_8.png","210","[""AO"",""SC"",""FO"",""SUR""]","[""BF08"",""WM07"",""BF04"",""HM07""]","[6,0,8,3]","[6,2,8,4]","","",""
"show-reward","166","557414","0.0-166.0","p828701","A3OTBMKOEQ410P","3UUIU9GZC6BQMHTLWW3KSJ0W7IE5TB","3W92K5RLWWN8MTV4RT80ILJ6NEN5V9","emotion","match","uniform","","","","","","","","557460.6999999881","559464.2999999821","","","","","","","","","","","","8","","stimuli/stars_8.png","210","","","","","stimuli/BF04_FO.jpg","",""
"explore-choice","167","560413","0.0-167.0","p828701","A3OTBMKOEQ410P","3UUIU9GZC6BQMHTLWW3KSJ0W7IE5TB","3W92K5RLWWN8MTV4RT80ILJ6NEN5V9","emotion","match","uniform","","","","","","","2483.5999999940395","559465.599999994","561949.1999999881","[""stimuli/BF04_SC.jpg"",""stimuli/BF08_AO.jpg"",""stimuli/HM07_SUR.jpg"",""stimuli/WM07_FO.jpg""]","stimuli/BF04_SC.jpg","stimuli/BF08_AO.jpg","stimuli/HM07_SUR.jpg","stimuli/WM07_FO.jpg","pos2","stimuli/BF08_AO.jpg","AO","BF08","1","3.5","7","6","stimuli/stars_7.png","213.5","[""SC"",""AO"",""SUR"",""FO""]","[""BF04"",""BF08"",""HM07"",""WM07""]","[3,7,3,7]","[2,6,4,8]","","",""
"show-reward","168","562420","0.0-168.0","p828701","A3OTBMKOEQ410P","3UUIU9GZC6BQMHTLWW3KSJ0W7IE5TB","3W92K5RLWWN8MTV4RT80ILJ6NEN5V9","emotion","match","uniform","","","","","","","","562463.900000006","564470.1999999881","","","","","","","","","","","","7","","stimuli/stars_7.png","213.5","","","","","stimuli/BF08_AO.jpg","",""
"explore-choice","169","564136","0.0-169.0","p828701","A3OTBMKOEQ410P","3UUIU9GZC6BQMHTLWW3KSJ0W7IE5TB","3W92K5RLWWN8MTV4RT80ILJ6NEN5V9","emotion","match","uniform","","","","","","","1205.9000000059605","564471.2999999821","565677.1999999881","[""stimuli/HM07_SC.jpg"",""stimuli/WM07_SUR.jpg"",""stimuli/BF04_AO.jpg"",""stimuli/BF08_FO.jpg""]","stimuli/HM07_SC.jpg","stimuli/WM07_SUR.jpg","stimuli/BF04_AO.jpg","stimuli/BF08_FO.jpg","pos3","stimuli/BF04_AO.jpg","AO","BF04","2","2.5","5","6","stimuli/stars_5.png","216","[""SC"",""SUR"",""AO"",""FO""]","[""HM07"",""WM07"",""BF04"",""BF08""]","[1,2,5,10]","[2,4,6,8]","","",""
"show-reward","170","566140","0.0-170.0","p828701","A3OTBMKOEQ410P","3UUIU9GZC6BQMHTLWW3KSJ0W7IE5TB","3W92K5RLWWN8MTV4RT80ILJ6NEN5V9","emotion","match","uniform","","","","","","","","566187.099999994","568190","","","","","","","","","","","","5","","stimuli/stars_5.png","216","","","","","stimuli/BF04_AO.jpg","",""
"explore-choice","171","568344","0.0-171.0","p828701","A3OTBMKOEQ410P","3UUIU9GZC6BQMHTLWW3KSJ0W7IE5TB","3W92K5RLWWN8MTV4RT80ILJ6NEN5V9","emotion","match","uniform","","","","","","","1702.0999999940395","568191.099999994","569893.1999999881","[""stimuli/BF08_FO.jpg"",""stimuli/WM07_SC.jpg"",""stimuli/HM07_AO.jpg"",""stimuli/BF04_SUR.jpg""]","stimuli/BF08_FO.jpg","stimuli/WM07_SC.jpg","stimuli/HM07_AO.jpg","stimuli/BF04_SUR.jpg","pos4","stimuli/BF04_SUR.jpg","SUR","BF04","3","3","6","4","stimuli/stars_6.png","219","[""FO"",""SC"",""AO"",""SUR""]","[""BF08"",""WM07"",""HM07"",""BF04""]","[8,0,6,6]","[8,2,6,4]","","",""
"show-reward","172","570348","0.0-172.0","p828701","A3OTBMKOEQ410P","3UUIU9GZC6BQMHTLWW3KSJ0W7IE5TB","3W92K5RLWWN8MTV4RT80ILJ6NEN5V9","emotion","match","uniform","","","","","","","","570395.1999999881","572398.099999994","","","","","","","","","","","","6","","stimuli/stars_6.png","219","","","","","stimuli/BF04_SUR.jpg","",""
"explore-choice","173","573757","0.0-173.0","p828701","A3OTBMKOEQ410P","3UUIU9GZC6BQMHTLWW3KSJ0W7IE5TB","3W92K5RLWWN8MTV4RT80ILJ6NEN5V9","emotion","match","uniform","","","","","","","2901.5","572399.599999994","575301.099999994","[""stimuli/WM07_FO.jpg"",""stimuli/BF08_SUR.jpg"",""stimuli/HM07_AO.jpg"",""stimuli/BF04_SC.jpg""]","stimuli/WM07_FO.jpg","stimuli/BF08_SUR.jpg","stimuli/HM07_AO.jpg","stimuli/BF04_SC.jpg","pos2","stimuli/BF08_SUR.jpg","SUR","BF08","1","2.5","5","4","stimuli/stars_5.png","221.5","[""FO"",""SUR"",""AO"",""SC""]","[""WM07"",""BF08"",""HM07"",""BF04""]","[7,5,8,2]","[8,4,6,2]","","",""
"show-reward","174","575768","0.0-174.0","p828701","A3OTBMKOEQ410P","3UUIU9GZC6BQMHTLWW3KSJ0W7IE5TB","3W92K5RLWWN8MTV4RT80ILJ6NEN5V9","emotion","match","uniform","","","","","","","","575808.400000006","577818","","","","","","","","","","","","5","","stimuli/stars_5.png","221.5","","","","","stimuli/BF08_SUR.jpg","",""
"explore-choice","175","578039","0.0-175.0","p828701","A3OTBMKOEQ410P","3UUIU9GZC6BQMHTLWW3KSJ0W7IE5TB","3W92K5RLWWN8MTV4RT80ILJ6NEN5V9","emotion","match","uniform","","","","","","","1761.800000011921","577819.1999999881","579581","[""stimuli/BF04_FO.jpg"",""stimuli/HM07_AO.jpg"",""stimuli/WM07_SC.jpg"",""stimuli/BF08_SUR.jpg""]","stimuli/BF04_FO.jpg","stimuli/HM07_AO.jpg","stimuli/WM07_SC.jpg","stimuli/BF08_SUR.jpg","pos1","stimuli/BF04_FO.jpg","FO","BF04","0","5","10","8","stimuli/stars_10.png","226.5","[""FO"",""AO"",""SC"",""SUR""]","[""BF04"",""HM07"",""WM07"",""BF08""]","[10,4,0,3]","[8,6,2,4]","","",""
"show-reward","176","580044","0.0-176.0","p828701","A3OTBMKOEQ410P","3UUIU9GZC6BQMHTLWW3KSJ0W7IE5TB","3W92K5RLWWN8MTV4RT80ILJ6NEN5V9","emotion","match","uniform","","","","","","","","580090.099999994","582094","","","","","","","","","","","","10","","stimuli/stars_10.png","226.5","","","","","stimuli/BF04_FO.jpg","",""
"explore-choice","177","582920","0.0-177.0","p828701","A3OTBMKOEQ410P","3UUIU9GZC6BQMHTLWW3KSJ0W7IE5TB","3W92K5RLWWN8MTV4RT80ILJ6NEN5V9","emotion","match","uniform","","","","","","","2374","582095.099999994","584469.099999994","[""stimuli/WM07_SUR.jpg"",""stimuli/HM07_FO.jpg"",""stimuli/BF04_SC.jpg"",""stimuli/BF08_AO.jpg""]","stimuli/WM07_SUR.jpg","stimuli/HM07_FO.jpg","stimuli/BF04_SC.jpg","stimuli/BF08_AO.jpg","pos4","stimuli/BF08_AO.jpg","AO","BF08","3","4","8","6","stimuli/stars_8.png","230.5","[""SUR"",""FO"",""SC"",""AO""]","[""WM07"",""HM07"",""BF04"",""BF08""]","[3,8,0,8]","[4,8,2,6]","","",""
"show-reward","178","584924","0.0-178.0","p828701","A3OTBMKOEQ410P","3UUIU9GZC6BQMHTLWW3KSJ0W7IE5TB","3W92K5RLWWN8MTV4RT80ILJ6NEN5V9","emotion","match","uniform","","","","","","","","584971.099999994","586973.900000006","","","","","","","","","","","","8","","stimuli/stars_8.png","230.5","","","","","stimuli/BF08_AO.jpg","",""
"explore-choice","179","587755","0.0-179.0","p828701","A3OTBMKOEQ410P","3UUIU9GZC6BQMHTLWW3KSJ0W7IE5TB","3W92K5RLWWN8MTV4RT80ILJ6NEN5V9","emotion","match","uniform","","","","","","","2317.9000000059605","586975.1999999881","589293.099999994","[""stimuli/BF04_AO.jpg"",""stimuli/HM07_SUR.jpg"",""stimuli/WM07_SC.jpg"",""stimuli/BF08_FO.jpg""]","stimuli/BF04_AO.jpg","stimuli/HM07_SUR.jpg","stimuli/WM07_SC.jpg","stimuli/BF08_FO.jpg","pos1","stimuli/BF04_AO.jpg","AO","BF04","0","3","6","6","stimuli/stars_6.png","233.5","[""AO"",""SUR"",""SC"",""FO""]","[""BF04"",""HM07"",""WM07"",""BF08""]","[6,4,2,6]","[6,4,2,8]","","",""
"show-reward","180","589764","0.0-180.0","p828701","A3OTBMKOEQ410P","3UUIU9GZC6BQMHTLWW3KSJ0W7IE5TB","3W92K5RLWWN8MTV4RT80ILJ6NEN5V9","emotion","match","uniform","","","","","","","","589806.599999994","591813.5","","","","","","","","","","","","6","","stimuli/stars_6.png","233.5","","","","","stimuli/BF04_AO.jpg","",""
"explore-choice","181","592017","0.0-181.0","p828701","A3OTBMKOEQ410P","3UUIU9GZC6BQMHTLWW3KSJ0W7IE5TB","3W92K5RLWWN8MTV4RT80ILJ6NEN5V9","emotion","match","uniform","","","","","","","1750.3999999761581","591814.900000006","593565.2999999821","[""stimuli/WM07_SUR.jpg"",""stimuli/BF04_AO.jpg"",""stimuli/BF08_SC.jpg"",""stimuli/HM07_FO.jpg""]","stimuli/WM07_SUR.jpg","stimuli/BF04_AO.jpg","stimuli/BF08_SC.jpg","stimuli/HM07_FO.jpg","pos2","stimuli/BF04_AO.jpg","AO","BF04","1","2","4","6","stimuli/stars_4.png","235.5","[""SUR"",""AO"",""SC"",""FO""]","[""WM07"",""BF04"",""BF08"",""HM07""]","[5,4,4,9]","[4,6,2,8]","","",""
"show-reward","182","594036","0.0-182.0","p828701","A3OTBMKOEQ410P","3UUIU9GZC6BQMHTLWW3KSJ0W7IE5TB","3W92K5RLWWN8MTV4RT80ILJ6NEN5V9","emotion","match","uniform","","","","","","","","594068.400000006","596086.099999994","","","","","","","","","","","","4","","stimuli/stars_4.png","235.5","","","","","stimuli/BF04_AO.jpg","",""
"explore-choice","183","596456","0.0-183.0","p828701","A3OTBMKOEQ410P","3UUIU9GZC6BQMHTLWW3KSJ0W7IE5TB","3W92K5RLWWN8MTV4RT80ILJ6NEN5V9","emotion","match","uniform","","","","","","","1917.5","596087.400000006","598004.900000006","[""stimuli/BF08_SUR.jpg"",""stimuli/WM07_FO.jpg"",""stimuli/HM07_SC.jpg"",""stimuli/BF04_AO.jpg""]","stimuli/BF08_SUR.jpg","stimuli/WM07_FO.jpg","stimuli/HM07_SC.jpg","stimuli/BF04_AO.jpg","pos1","stimuli/BF08_SUR.jpg","SUR","BF08","0","2","4","4","stimuli/stars_4.png","237.5","[""SUR"",""FO"",""SC"",""AO""]","[""BF08"",""WM07"",""HM07"",""BF04""]","[4,8,0,7]","[4,8,2,6]","","",""
"show-reward","184","598461","0.0-184.0","p828701","A3OTBMKOEQ410P","3UUIU9GZC6BQMHTLWW3KSJ0W7IE5TB","3W92K5RLWWN8MTV4RT80ILJ6NEN5V9","emotion","match","uniform","","","","","","","","598507.1999999881","600511.599999994","","","","","","","","","","","","4","","stimuli/stars_4.png","237.5","","","","","stimuli/BF08_SUR.jpg","",""
"explore-choice","185","600128","0.0-185.0","p828701","A3OTBMKOEQ410P","3UUIU9GZC6BQMHTLWW3KSJ0W7IE5TB","3W92K5RLWWN8MTV4RT80ILJ6NEN5V9","emotion","match","uniform","","","","","","","1156","600512.900000006","601668.900000006","[""stimuli/HM07_SUR.jpg"",""stimuli/WM07_FO.jpg"",""stimuli/BF08_SC.jpg"",""stimuli/BF04_AO.jpg""]","stimuli/HM07_SUR.jpg","stimuli/WM07_FO.jpg","stimuli/BF08_SC.jpg","stimuli/BF04_AO.jpg","pos4","stimuli/BF04_AO.jpg","AO","BF04","3","2.5","5","6","stimuli/stars_5.png","240","[""SUR"",""FO"",""SC"",""AO""]","[""HM07"",""WM07"",""BF08"",""BF04""]","[4,10,2,5]","[4,8,2,6]","","",""
"show-reward","186","602132","0.0-186.0","p828701","A3OTBMKOEQ410P","3UUIU9GZC6BQMHTLWW3KSJ0W7IE5TB","3W92K5RLWWN8MTV4RT80ILJ6NEN5V9","emotion","match","uniform","","","","","","","","602179","604181.7999999821","","","","","","","","","","","","5","","stimuli/stars_5.png","240","","","","","stimuli/BF04_AO.jpg","",""
"explore-choice","187","604495","0.0-187.0","p828701","A3OTBMKOEQ410P","3UUIU9GZC6BQMHTLWW3KSJ0W7IE5TB","3W92K5RLWWN8MTV4RT80ILJ6NEN5V9","emotion","match","uniform","","","","","","","1861.7000000178814","604183.1999999881","606044.900000006","[""stimuli/WM07_AO.jpg"",""stimuli/BF04_SUR.jpg"",""stimuli/BF08_FO.jpg"",""stimuli/HM07_SC.jpg""]","stimuli/WM07_AO.jpg","stimuli/BF04_SUR.jpg","stimuli/BF08_FO.jpg","stimuli/HM07_SC.jpg","pos2","stimuli/BF04_SUR.jpg","SUR","BF04","1","2","4","4","stimuli/stars_4.png","242","[""AO"",""SUR"",""FO"",""SC""]","[""WM07"",""BF04"",""BF08"",""HM07""]","[4,4,7,2]","[6,4,8,2]","","",""
"show-reward","188","606499","0.0-188.0","p828701","A3OTBMKOEQ410P","3UUIU9GZC6BQMHTLWW3KSJ0W7IE5TB","3W92K5RLWWN8MTV4RT80ILJ6NEN5V9","emotion","match","uniform","","","","","","","","606546.5","608549.599999994","","","","","","","","","","","","4","","stimuli/stars_4.png","242","","","","","stimuli/BF04_SUR.jpg","",""
"explore-choice","189","607855","0.0-189.0","p828701","A3OTBMKOEQ410P","3UUIU9GZC6BQMHTLWW3KSJ0W7IE5TB","3W92K5RLWWN8MTV4RT80ILJ6NEN5V9","emotion","match","uniform","","","","","","","854.5","608550.2999999821","609404.7999999821","[""stimuli/HM07_SC.jpg"",""stimuli/WM07_SUR.jpg"",""stimuli/BF08_AO.jpg"",""stimuli/BF04_FO.jpg""]","stimuli/HM07_SC.jpg","stimuli/WM07_SUR.jpg","stimuli/BF08_AO.jpg","stimuli/BF04_FO.jpg","pos4","stimuli/BF04_FO.jpg","FO","BF04","3","3","6","8","stimuli/stars_6.png","245","[""SC"",""SUR"",""AO"",""FO""]","[""HM07"",""WM07"",""BF08"",""BF04""]","[2,2,4,6]","[2,4,6,8]","","",""
"show-reward","190","609862","0.0-190.0","p828701","A3OTBMKOEQ410P","3UUIU9GZC6BQMHTLWW3KSJ0W7IE5TB","3W92K5RLWWN8MTV4RT80ILJ6NEN5V9","emotion","match","uniform","","","","","","","","609906.2999999821","611912.599999994","","","","","","","","","","","","6","","stimuli/stars_6.png","245","","","","","stimuli/BF04_FO.jpg","",""
"explore-choice","191","612645","0.0-191.0","p828701","A3OTBMKOEQ410P","3UUIU9GZC6BQMHTLWW3KSJ0W7IE5TB","3W92K5RLWWN8MTV4RT80ILJ6NEN5V9","emotion","match","uniform","","","","","","","2274.7999999821186","611914","614188.7999999821","[""stimuli/HM07_SUR.jpg"",""stimuli/BF08_FO.jpg"",""stimuli/BF04_SC.jpg"",""stimuli/WM07_AO.jpg""]","stimuli/HM07_SUR.jpg","stimuli/BF08_FO.jpg","stimuli/BF04_SC.jpg","stimuli/WM07_AO.jpg","pos2","stimuli/BF08_FO.jpg","FO","BF08","1","3.5","7","8","stimuli/stars_7.png","248.5","[""SUR"",""FO"",""SC"",""AO""]","[""HM07"",""BF08"",""BF04"",""WM07""]","[4,7,4,6]","[4,8,2,6]","","",""
"show-reward","192","614652","0.0-192.0","p828701","A3OTBMKOEQ410P","3UUIU9GZC6BQMHTLWW3KSJ0W7IE5TB","3W92K5RLWWN8MTV4RT80ILJ6NEN5V9","emotion","match","uniform","","","","","","","","614696.599999994","616702.2999999821","","","","","","","","","","","","7","","stimuli/stars_7.png","248.5","","","","","stimuli/BF08_FO.jpg","",""
"explore-choice","193","617808","0.0-193.0","p828701","A3OTBMKOEQ410P","3UUIU9GZC6BQMHTLWW3KSJ0W7IE5TB","3W92K5RLWWN8MTV4RT80ILJ6NEN5V9","emotion","match","uniform","","","","","","","2645.199999988079","616703.5","619348.6999999881","[""stimuli/HM07_FO.jpg"",""stimuli/WM07_SC.jpg"",""stimuli/BF04_SUR.jpg"",""stimuli/BF08_AO.jpg""]","stimuli/HM07_FO.jpg","stimuli/WM07_SC.jpg","stimuli/BF04_SUR.jpg","stimuli/BF08_AO.jpg","pos3","stimuli/BF04_SUR.jpg","SUR","BF04","2","2.5","5","4","stimuli/stars_5.png","251","[""FO"",""SC"",""SUR"",""AO""]","[""HM07"",""WM07"",""BF04"",""BF08""]","[6,4,5,5]","[8,2,4,6]","","",""
"show-reward","194","619812","0.0-194.0","p828701","A3OTBMKOEQ410P","3UUIU9GZC6BQMHTLWW3KSJ0W7IE5TB","3W92K5RLWWN8MTV4RT80ILJ6NEN5V9","emotion","match","uniform","","","","","","","","619859.400000006","621862.6999999881","","","","","","","","","","","","5","","stimuli/stars_5.png","251","","","","","stimuli/BF04_SUR.jpg","",""
"explore-choice","195","621439","0.0-195.0","p828701","A3OTBMKOEQ410P","3UUIU9GZC6BQMHTLWW3KSJ0W7IE5TB","3W92K5RLWWN8MTV4RT80ILJ6NEN5V9","emotion","match","uniform","","","","","","","1124.9000000059605","621863.7999999821","622988.6999999881","[""stimuli/WM07_AO.jpg"",""stimuli/HM07_FO.jpg"",""stimuli/BF08_SC.jpg"",""stimuli/BF04_SUR.jpg""]","stimuli/WM07_AO.jpg","stimuli/HM07_FO.jpg","stimuli/BF08_SC.jpg","stimuli/BF04_SUR.jpg","pos4","stimuli/BF04_SUR.jpg","SUR","BF04","3","3","6","4","stimuli/stars_6.png","254","[""AO"",""FO"",""SC"",""SUR""]","[""WM07"",""HM07"",""BF08"",""BF04""]","[6,6,2,6]","[6,8,2,4]","","",""
"show-reward","196","623447","0.0-196.0","p828701","A3OTBMKOEQ410P","3UUIU9GZC6BQMHTLWW3KSJ0W7IE5TB","3W92K5RLWWN8MTV4RT80ILJ6NEN5V9","emotion","match","uniform","","","","","","","","623490.599999994","625496.599999994","","","","","","","","","","","","6","","stimuli/stars_6.png","254","","","","","stimuli/BF04_SUR.jpg","",""
"explore-choice","197","624755","0.0-197.0","p828701","A3OTBMKOEQ410P","3UUIU9GZC6BQMHTLWW3KSJ0W7IE5TB","3W92K5RLWWN8MTV4RT80ILJ6NEN5V9","emotion","match","uniform","","","","","","","802.6999999880791","625498","626300.6999999881","[""stimuli/BF08_SUR.jpg"",""stimuli/HM07_FO.jpg"",""stimuli/BF04_SC.jpg"",""stimuli/WM07_AO.jpg""]","stimuli/BF08_SUR.jpg","stimuli/HM07_FO.jpg","stimuli/BF04_SC.jpg","stimuli/WM07_AO.jpg","pos3","stimuli/BF04_SC.jpg","SC","BF04","2","2","4","2","stimuli/stars_4.png","256","[""SUR"",""FO"",""SC"",""AO""]","[""BF08"",""HM07"",""BF04"",""WM07""]","[3,9,4,4]","[4,8,2,6]","","",""
"show-reward","198","626773","0.0-198.0","p828701","A3OTBMKOEQ410P","3UUIU9GZC6BQMHTLWW3KSJ0W7IE5TB","3W92K5RLWWN8MTV4RT80ILJ6NEN5V9","emotion","match","uniform","","","","","","","","626806.1999999881","628822.900000006","","","","","","","","","","","","4","","stimuli/stars_4.png","256","","","","","stimuli/BF04_SC.jpg","",""
"instructions","199","631651","0.0-199.0","p828701","A3OTBMKOEQ410P","3UUIU9GZC6BQMHTLWW3KSJ0W7IE5TB","3W92K5RLWWN8MTV4RT80ILJ6NEN5V9","emotion","match","uniform","","","","","","[{""page_index"":0,""viewing_time"":4875.9000000059605}]","4876.700000017881","","","","","","","","","","","","","","","","","","","","","","","",""
"survey-text","200","634627","0.0-200.0-0.0","p828701","A3OTBMKOEQ410P","3UUIU9GZC6BQMHTLWW3KSJ0W7IE5TB","3W92K5RLWWN8MTV4RT80ILJ6NEN5V9","emotion","match","uniform","","","","","","","2971.5","","","","","","","","","","","","","","","","","","","","","","","{""age"":""29""}",""
"survey-text","201","638123","0.0-200.0-1.0","p828701","A3OTBMKOEQ410P","3UUIU9GZC6BQMHTLWW3KSJ0W7IE5TB","3W92K5RLWWN8MTV4RT80ILJ6NEN5V9","emotion","match","uniform","","","","","","","3493.2999999821186","","","","","","","","","","","","","","","","","","","","","","","{""gender"":""male""}",""
"survey-text","202","644051","0.0-200.0-2.0","p828701","A3OTBMKOEQ410P","3UUIU9GZC6BQMHTLWW3KSJ0W7IE5TB","3W92K5RLWWN8MTV4RT80ILJ6NEN5V9","emotion","match","uniform","","","","","","","5925","","","","","","","","","","","","","","","","","","","","","","","{""country"":""united states""}",""
"survey-text","203","653394","0.0-200.0-3.0","p828701","A3OTBMKOEQ410P","3UUIU9GZC6BQMHTLWW3KSJ0W7IE5TB","3W92K5RLWWN8MTV4RT80ILJ6NEN5V9","emotion","match","uniform","","","","","","","9340.5","","","","","","","","","","","","","","","","","","","","","","","{""language"":""english "",""other_languages"":""""}",""
"survey-multi-select","204","684130","0.0-201.0","p828701","A3OTBMKOEQ410P","3UUIU9GZC6BQMHTLWW3KSJ0W7IE5TB","3W92K5RLWWN8MTV4RT80ILJ6NEN5V9","emotion","match","uniform","","","","","","","30729.80000001192","","","","","","","","","","","","","","","","","","","","","","","{""race"":[""Black or African American""]}","[0]"
"survey-multi-choice","205","686546","0.0-202.0","p828701","A3OTBMKOEQ410P","3UUIU9GZC6BQMHTLWW3KSJ0W7IE5TB","3W92K5RLWWN8MTV4RT80ILJ6NEN5V9","emotion","match","uniform","","","","","","","2412.800000011921","","","","","","","","","","","","","","","","","","","","","","","{""education"":""High school""}","[0]"
"survey-text","206","741010","0.0-203.0","p828701","A3OTBMKOEQ410P","3UUIU9GZC6BQMHTLWW3KSJ0W7IE5TB","3W92K5RLWWN8MTV4RT80ILJ6NEN5V9","emotion","match","uniform","","","","","","","54457.30000001192","","","","","","","","","","","","","","","","","","","","","","","{""patterns"":""I could eventually remember certain faces was equivalent to more stars"",""strategy"":""just memory"",""comments"":""""}",""
