"trial_type","trial_index","time_elapsed","internal_node_id","subject","workerId","hitId","assignmentId","structure_condition","match_condition","noise_type","success","timeout","failed_images","failed_audio","failed_video","view_history","rt","start_time","end_time","stimuli","image1","image2","image3","image4","choiceLocation","choiceImage","choiceEmotion","choiceModel","choice_index","reward_score","reward","reward_score_unadjusted","reward_image","score_after_trial","emotions","models","rewards","rewards_unadjusted","stimulus","response","question_order"
"pavlovia","0","5","0.0-0.0","p736976","A3S3WYVCVWW8IZ","3UUIU9GZC6BQMHTLWW3KSJ0W7IE5TB","37UQDCYH6Z1N9X9NFMNXG5X2EKI7VQ","model","mismatch","uniform","","","","","","","","","","","","","","","","","","","","","","","","","","","","","","",""
"preload","1","2249","0.0-1.0","p736976","A3S3WYVCVWW8IZ","3UUIU9GZC6BQMHTLWW3KSJ0W7IE5TB","37UQDCYH6Z1N9X9NFMNXG5X2EKI7VQ","model","mismatch","uniform","true","false","[]","[]","[]","","","","","","","","","","","","","","","","","","","","","","","","","",""
"fullscreen","2","35386","0.0-2.0","p736976","A3S3WYVCVWW8IZ","3UUIU9GZC6BQMHTLWW3KSJ0W7IE5TB","37UQDCYH6Z1N9X9NFMNXG5X2EKI7VQ","model","mismatch","uniform","true","","","","","","","","","","","","","","","","","","","","","","","","","","","","","",""
"instructions","3","45425","0.0-3.0","p736976","A3S3WYVCVWW8IZ","3UUIU9GZC6BQMHTLWW3KSJ0W7IE5TB","37UQDCYH6Z1N9X9NFMNXG5X2EKI7VQ","model","mismatch","uniform","","","","","","[{""page_index"":0,""viewing_time"":10038.600000023842}]","10039","","","","","","","","","","","","","","","","","","","","","","","",""
"explore-choice","4","47968","0.0-4.0","p736976","A3S3WYVCVWW8IZ","3UUIU9GZC6BQMHTLWW3KSJ0W7IE5TB","37UQDCYH6Z1N9X9NFMNXG5X2EKI7VQ","model","mismatch","uniform","","","","","","","2041.5","46736.699999928474","48778.199999928474","[""stimuli/sheep.jpg"",""stimuli/hammer.jpg"",""stimuli/basketball.jpg"",""stimuli/horse.jpg""]","stimuli/sheep.jpg","stimuli/hammer.jpg","stimuli/basketball.jpg","stimuli/horse.jpg","pos4","stimuli/horse.jpg","","","3","64","64","64","stimuli/stars_8.png","65","","","","","","",""
"explore-choice","5","49522","0.0-5.0","p736976","A3S3WYVCVWW8IZ","3UUIU9GZC6BQMHTLWW3KSJ0W7IE5TB","37UQDCYH6Z1N9X9NFMNXG5X2EKI7VQ","model","mismatch","uniform","","","","","","","1053","49278.89999997616","50331.89999997616","[""stimuli/hammer.jpg"",""stimuli/basketball.jpg"",""stimuli/horse.jpg"",""stimuli/sheep.jpg""]","stimuli/hammer.jpg","stimuli/basketball.jpg","stimuli/horse.jpg","stimuli/sheep.jpg","pos1","stimuli/hammer.jpg","","","0","8","8","8","stimuli/stars_2.png","9","","","","","","",""
"instructions","6","474537","0.0-6.0","p736976","A3S3WYVCVWW8IZ","3UUIU9GZC6BQMHTLWW3KSJ0W7IE5TB","37UQDCYH6Z1N9X9NFMNXG5X2EKI7VQ","model","mismatch","uniform","","","","","","[{""page_index"":0,""viewing_time"":425014.7000000477}]","425014.89999997616","","","","","","","","","","","","","","","","","","","","","","","",""
"explore-choice","7","479372","0.0-7.0","p736976","A3S3WYVCVWW8IZ","3UUIU9GZC6BQMHTLWW3KSJ0W7IE5TB","37UQDCYH6Z1N9X9NFMNXG5X2EKI7VQ","model","mismatch","uniform","","","","","","","4333.399999976158","475848.89999997616","480182.2999999523","[""stimuli/AF11_SC.jpg"",""stimuli/AM05_CC.jpg"",""stimuli/AM09_HE.jpg"",""stimuli/BM16_SUR.jpg""]","stimuli/AF11_SC.jpg","stimuli/AM05_CC.jpg","stimuli/AM09_HE.jpg","stimuli/BM16_SUR.jpg","pos3","stimuli/AM09_HE.jpg","HE","AM09","2","3","6","6","stimuli/stars_6.png","4","[""SC"",""CC"",""HE"",""SUR""]","[""AF11"",""AM05"",""AM09"",""BM16""]","[8,2,6,4]","[8,2,6,4]","","",""
"show-reward","8","481374","0.0-8.0","p736976","A3S3WYVCVWW8IZ","3UUIU9GZC6BQMHTLWW3KSJ0W7IE5TB","37UQDCYH6Z1N9X9NFMNXG5X2EKI7VQ","model","mismatch","uniform","","","","","","","","480683.6999999285","482684.7999999523","","","","","","","","","","","","6","","stimuli/stars_6.png","4","","","","","stimuli/AM09_HE.jpg","",""
"explore-choice","9","483255","0.0-9.0","p736976","A3S3WYVCVWW8IZ","3UUIU9GZC6BQMHTLWW3KSJ0W7IE5TB","37UQDCYH6Z1N9X9NFMNXG5X2EKI7VQ","model","mismatch","uniform","","","","","","","1372.6999999284744","482685.5","484058.1999999285","[""stimuli/AM09_CC.jpg"",""stimuli/BM16_SC.jpg"",""stimuli/AF11_SUR.jpg"",""stimuli/AM05_HE.jpg""]","stimuli/AM09_CC.jpg","stimuli/BM16_SC.jpg","stimuli/AF11_SUR.jpg","stimuli/AM05_HE.jpg","pos1","stimuli/AM09_CC.jpg","CC","AM09","0","4","8","6","stimuli/stars_8.png","8","[""CC"",""SC"",""SUR"",""HE""]","[""AM09"",""BM16"",""AF11"",""AM05""]","[8,4,8,3]","[6,4,8,2]","","",""
"show-reward","10","485257","0.0-10.0","p736976","A3S3WYVCVWW8IZ","3UUIU9GZC6BQMHTLWW3KSJ0W7IE5TB","37UQDCYH6Z1N9X9NFMNXG5X2EKI7VQ","model","mismatch","uniform","","","","","","","","484566.60000002384","486568.10000002384","","","","","","","","","","","","8","","stimuli/stars_8.png","8","","","","","stimuli/AM09_CC.jpg","",""
"explore-choice","11","487004","0.0-11.0","p736976","A3S3WYVCVWW8IZ","3UUIU9GZC6BQMHTLWW3KSJ0W7IE5TB","37UQDCYH6Z1N9X9NFMNXG5X2EKI7VQ","model","mismatch","uniform","","","","","","","1231.5","486568.60000002384","487800.10000002384","[""stimuli/BM16_HE.jpg"",""stimuli/AF11_SUR.jpg"",""stimuli/AM05_CC.jpg"",""stimuli/AM09_SC.jpg""]","stimuli/BM16_HE.jpg","stimuli/AF11_SUR.jpg","stimuli/AM05_CC.jpg","stimuli/AM09_SC.jpg","pos4","stimuli/AM09_SC.jpg","SC","AM09","3","3.5","7","6","stimuli/stars_7.png","11.5","[""HE"",""SUR"",""CC"",""SC""]","[""BM16"",""AF11"",""AM05"",""AM09""]","[2,6,1,7]","[4,8,2,6]","","",""
"show-reward","12","489019","0.0-12.0","p736976","A3S3WYVCVWW8IZ","3UUIU9GZC6BQMHTLWW3KSJ0W7IE5TB","37UQDCYH6Z1N9X9NFMNXG5X2EKI7VQ","model","mismatch","uniform","","","","","","","","488315","490330.2999999523","","","","","","","","","","","","7","","stimuli/stars_7.png","11.5","","","","","stimuli/AM09_SC.jpg","",""
"explore-choice","13","490612","0.0-13.0","p736976","A3S3WYVCVWW8IZ","3UUIU9GZC6BQMHTLWW3KSJ0W7IE5TB","37UQDCYH6Z1N9X9NFMNXG5X2EKI7VQ","model","mismatch","uniform","","","","","","","1081.2000000476837","490330.7999999523","491412","[""stimuli/AF11_CC.jpg"",""stimuli/AM05_SUR.jpg"",""stimuli/AM09_HE.jpg"",""stimuli/BM16_SC.jpg""]","stimuli/AF11_CC.jpg","stimuli/AM05_SUR.jpg","stimuli/AM09_HE.jpg","stimuli/BM16_SC.jpg","pos3","stimuli/AM09_HE.jpg","HE","AM09","2","3.5","7","6","stimuli/stars_7.png","15","[""CC"",""SUR"",""HE"",""SC""]","[""AF11"",""AM05"",""AM09"",""BM16""]","[6,3,7,2]","[8,2,6,4]","","",""
"show-reward","14","492615","0.0-14.0","p736976","A3S3WYVCVWW8IZ","3UUIU9GZC6BQMHTLWW3KSJ0W7IE5TB","37UQDCYH6Z1N9X9NFMNXG5X2EKI7VQ","model","mismatch","uniform","","","","","","","","491923.2999999523","493926.1999999285","","","","","","","","","","","","7","","stimuli/stars_7.png","15","","","","","stimuli/AM09_HE.jpg","",""
"explore-choice","15","494433","0.0-15.0","p736976","A3S3WYVCVWW8IZ","3UUIU9GZC6BQMHTLWW3KSJ0W7IE5TB","37UQDCYH6Z1N9X9NFMNXG5X2EKI7VQ","model","mismatch","uniform","","","","","","","1307.2000000476837","493926.7999999523","495234","[""stimuli/AM09_SUR.jpg"",""stimuli/AF11_HE.jpg"",""stimuli/BM16_SC.jpg"",""stimuli/AM05_CC.jpg""]","stimuli/AM09_SUR.jpg","stimuli/AF11_HE.jpg","stimuli/BM16_SC.jpg","stimuli/AM05_CC.jpg","pos1","stimuli/AM09_SUR.jpg","SUR","AM09","0","3.5","7","6","stimuli/stars_7.png","18.5","[""SUR"",""HE"",""SC"",""CC""]","[""AM09"",""AF11"",""BM16"",""AM05""]","[7,7,2,3]","[6,8,4,2]","","",""
"show-reward","16","496438","0.0-16.0","p736976","A3S3WYVCVWW8IZ","3UUIU9GZC6BQMHTLWW3KSJ0W7IE5TB","37UQDCYH6Z1N9X9NFMNXG5X2EKI7VQ","model","mismatch","uniform","","","","","","","","495744.6999999285","497748.7999999523","","","","","","","","","","","","7","","stimuli/stars_7.png","18.5","","","","","stimuli/AM09_SUR.jpg","",""
"explore-choice","17","497758","0.0-17.0","p736976","A3S3WYVCVWW8IZ","3UUIU9GZC6BQMHTLWW3KSJ0W7IE5TB","37UQDCYH6Z1N9X9NFMNXG5X2EKI7VQ","model","mismatch","uniform","","","","","","","818.6000000238419","497749.39999997616","498568","[""stimuli/AM09_HE.jpg"",""stimuli/BM16_SUR.jpg"",""stimuli/AF11_CC.jpg"",""stimuli/AM05_SC.jpg""]","stimuli/AM09_HE.jpg","stimuli/BM16_SUR.jpg","stimuli/AF11_CC.jpg","stimuli/AM05_SC.jpg","pos3","stimuli/AF11_CC.jpg","CC","AF11","2","3","6","8","stimuli/stars_6.png","21.5","[""HE"",""SUR"",""CC"",""SC""]","[""AM09"",""BM16"",""AF11"",""AM05""]","[5,5,6,1]","[6,4,8,2]","","",""
"show-reward","18","499763","0.0-18.0","p736976","A3S3WYVCVWW8IZ","3UUIU9GZC6BQMHTLWW3KSJ0W7IE5TB","37UQDCYH6Z1N9X9NFMNXG5X2EKI7VQ","model","mismatch","uniform","","","","","","","","499069.5","501074.2999999523","","","","","","","","","","","","6","","stimuli/stars_6.png","21.5","","","","","stimuli/AF11_CC.jpg","",""
"explore-choice","19","501106","0.0-19.0","p736976","A3S3WYVCVWW8IZ","3UUIU9GZC6BQMHTLWW3KSJ0W7IE5TB","37UQDCYH6Z1N9X9NFMNXG5X2EKI7VQ","model","mismatch","uniform","","","","","","","841.3000000715256","501074.7999999523","501916.10000002384","[""stimuli/AF11_SUR.jpg"",""stimuli/AM05_CC.jpg"",""stimuli/BM16_SC.jpg"",""stimuli/AM09_HE.jpg""]","stimuli/AF11_SUR.jpg","stimuli/AM05_CC.jpg","stimuli/BM16_SC.jpg","stimuli/AM09_HE.jpg","pos2","stimuli/AM05_CC.jpg","CC","AM05","1","2","4","2","stimuli/stars_4.png","23.5","[""SUR"",""CC"",""SC"",""HE""]","[""AF11"",""AM05"",""BM16"",""AM09""]","[10,4,5,6]","[8,2,4,6]","","",""
"show-reward","20","503111","0.0-20.0","p736976","A3S3WYVCVWW8IZ","3UUIU9GZC6BQMHTLWW3KSJ0W7IE5TB","37UQDCYH6Z1N9X9NFMNXG5X2EKI7VQ","model","mismatch","uniform","","","","","","","","502417.39999997616","504421.5","","","","","","","","","","","","4","","stimuli/stars_4.png","23.5","","","","","stimuli/AM05_CC.jpg","",""
"explore-choice","21","504006","0.0-21.0","p736976","A3S3WYVCVWW8IZ","3UUIU9GZC6BQMHTLWW3KSJ0W7IE5TB","37UQDCYH6Z1N9X9NFMNXG5X2EKI7VQ","model","mismatch","uniform","","","","","","","394.1999999284744","504422","504816.1999999285","[""stimuli/AM05_SUR.jpg"",""stimuli/AM09_CC.jpg"",""stimuli/BM16_HE.jpg"",""stimuli/AF11_SC.jpg""]","stimuli/AM05_SUR.jpg","stimuli/AM09_CC.jpg","stimuli/BM16_HE.jpg","stimuli/AF11_SC.jpg","pos4","stimuli/AF11_SC.jpg","SC","AF11","3","4.5","9","8","stimuli/stars_9.png","28","[""SUR"",""CC"",""HE"",""SC""]","[""AM05"",""AM09"",""BM16"",""AF11""]","[0,6,2,9]","[2,6,4,8]","","",""
"show-reward","22","506007","0.0-22.0","p736976","A3S3WYVCVWW8IZ","3UUIU9GZC6BQMHTLWW3KSJ0W7IE5TB","37UQDCYH6Z1N9X9NFMNXG5X2EKI7VQ","model","mismatch","uniform","","","","","","","","505317.1999999285","507318.2999999523","","","","","","","","","","","","9","","stimuli/stars_9.png","28","","","","","stimuli/AF11_SC.jpg","",""
"explore-choice","23","507956","0.0-23.0","p736976","A3S3WYVCVWW8IZ","3UUIU9GZC6BQMHTLWW3KSJ0W7IE5TB","37UQDCYH6Z1N9X9NFMNXG5X2EKI7VQ","model","mismatch","uniform","","","","","","","1447.3000000715256","507318.7999999523","508766.10000002384","[""stimuli/AM05_HE.jpg"",""stimuli/AM09_CC.jpg"",""stimuli/AF11_SC.jpg"",""stimuli/BM16_SUR.jpg""]","stimuli/AM05_HE.jpg","stimuli/AM09_CC.jpg","stimuli/AF11_SC.jpg","stimuli/BM16_SUR.jpg","pos4","stimuli/BM16_SUR.jpg","SUR","BM16","3","2.5","5","4","stimuli/stars_5.png","30.5","[""HE"",""CC"",""SC"",""SUR""]","[""AM05"",""AM09"",""AF11"",""BM16""]","[1,7,9,5]","[2,6,8,4]","","",""
"show-reward","24","509957","0.0-24.0","p736976","A3S3WYVCVWW8IZ","3UUIU9GZC6BQMHTLWW3KSJ0W7IE5TB","37UQDCYH6Z1N9X9NFMNXG5X2EKI7VQ","model","mismatch","uniform","","","","","","","","509266.89999997616","511267.89999997616","","","","","","","","","","","","5","","stimuli/stars_5.png","30.5","","","","","stimuli/BM16_SUR.jpg","",""
"explore-choice","25","511240","0.0-25.0","p736976","A3S3WYVCVWW8IZ","3UUIU9GZC6BQMHTLWW3KSJ0W7IE5TB","37UQDCYH6Z1N9X9NFMNXG5X2EKI7VQ","model","mismatch","uniform","","","","","","","781.8000000715256","511268.2999999523","512050.10000002384","[""stimuli/AM09_CC.jpg"",""stimuli/AM05_SC.jpg"",""stimuli/BM16_HE.jpg"",""stimuli/AF11_SUR.jpg""]","stimuli/AM09_CC.jpg","stimuli/AM05_SC.jpg","stimuli/BM16_HE.jpg","stimuli/AF11_SUR.jpg","pos4","stimuli/AF11_SUR.jpg","SUR","AF11","3","3","6","8","stimuli/stars_6.png","33.5","[""CC"",""SC"",""HE"",""SUR""]","[""AM09"",""AM05"",""BM16"",""AF11""]","[7,1,4,6]","[6,2,4,8]","","",""
"show-reward","26","513249","0.0-26.0","p736976","A3S3WYVCVWW8IZ","3UUIU9GZC6BQMHTLWW3KSJ0W7IE5TB","37UQDCYH6Z1N9X9NFMNXG5X2EKI7VQ","model","mismatch","uniform","","","","","","","","512551.10000002384","514559.5","","","","","","","","","","","","6","","stimuli/stars_6.png","33.5","","","","","stimuli/AF11_SUR.jpg","",""
"explore-choice","27","514485","0.0-27.0","p736976","A3S3WYVCVWW8IZ","3UUIU9GZC6BQMHTLWW3KSJ0W7IE5TB","37UQDCYH6Z1N9X9NFMNXG5X2EKI7VQ","model","mismatch","uniform","","","","","","","736","514560","515296","[""stimuli/AM09_CC.jpg"",""stimuli/AM05_SUR.jpg"",""stimuli/BM16_SC.jpg"",""stimuli/AF11_HE.jpg""]","stimuli/AM09_CC.jpg","stimuli/AM05_SUR.jpg","stimuli/BM16_SC.jpg","stimuli/AF11_HE.jpg","pos4","stimuli/AF11_HE.jpg","HE","AF11","3","5","10","8","stimuli/stars_10.png","38.5","[""CC"",""SUR"",""SC"",""HE""]","[""AM09"",""AM05"",""BM16"",""AF11""]","[8,0,5,10]","[6,2,4,8]","","",""
"show-reward","28","516487","0.0-28.0","p736976","A3S3WYVCVWW8IZ","3UUIU9GZC6BQMHTLWW3KSJ0W7IE5TB","37UQDCYH6Z1N9X9NFMNXG5X2EKI7VQ","model","mismatch","uniform","","","","","","","","515796.60000002384","517797.6999999285","","","","","","","","","","","","10","","stimuli/stars_10.png","38.5","","","","","stimuli/AF11_HE.jpg","",""
"explore-choice","29","518129","0.0-29.0","p736976","A3S3WYVCVWW8IZ","3UUIU9GZC6BQMHTLWW3KSJ0W7IE5TB","37UQDCYH6Z1N9X9NFMNXG5X2EKI7VQ","model","mismatch","uniform","","","","","","","1141.8000000715256","517798.1999999285","518940","[""stimuli/BM16_CC.jpg"",""stimuli/AM09_HE.jpg"",""stimuli/AF11_SUR.jpg"",""stimuli/AM05_SC.jpg""]","stimuli/BM16_CC.jpg","stimuli/AM09_HE.jpg","stimuli/AF11_SUR.jpg","stimuli/AM05_SC.jpg","pos2","stimuli/AM09_HE.jpg","HE","AM09","1","3","6","6","stimuli/stars_6.png","41.5","[""CC"",""HE"",""SUR"",""SC""]","[""BM16"",""AM09"",""AF11"",""AM05""]","[3,6,10,1]","[4,6,8,2]","","",""
"show-reward","30","520132","0.0-30.0","p736976","A3S3WYVCVWW8IZ","3UUIU9GZC6BQMHTLWW3KSJ0W7IE5TB","37UQDCYH6Z1N9X9NFMNXG5X2EKI7VQ","model","mismatch","uniform","","","","","","","","519440.7999999523","521442.5","","","","","","","","","","","","6","","stimuli/stars_6.png","41.5","","","","","stimuli/AM09_HE.jpg","",""
"explore-choice","31","522224","0.0-31.0","p736976","A3S3WYVCVWW8IZ","3UUIU9GZC6BQMHTLWW3KSJ0W7IE5TB","37UQDCYH6Z1N9X9NFMNXG5X2EKI7VQ","model","mismatch","uniform","","","","","","","1591.1999999284744","521443","523034.1999999285","[""stimuli/AF11_HE.jpg"",""stimuli/AM05_SC.jpg"",""stimuli/BM16_SUR.jpg"",""stimuli/AM09_CC.jpg""]","stimuli/AF11_HE.jpg","stimuli/AM05_SC.jpg","stimuli/BM16_SUR.jpg","stimuli/AM09_CC.jpg","pos1","stimuli/AF11_HE.jpg","HE","AF11","0","5","10","8","stimuli/stars_10.png","46.5","[""HE"",""SC"",""SUR"",""CC""]","[""AF11"",""AM05"",""BM16"",""AM09""]","[10,2,3,7]","[8,2,4,6]","","",""
"show-reward","32","524228","0.0-32.0","p736976","A3S3WYVCVWW8IZ","3UUIU9GZC6BQMHTLWW3KSJ0W7IE5TB","37UQDCYH6Z1N9X9NFMNXG5X2EKI7VQ","model","mismatch","uniform","","","","","","","","523535.5","525539.1000000238","","","","","","","","","","","","10","","stimuli/stars_10.png","46.5","","","","","stimuli/AF11_HE.jpg","",""
"explore-choice","33","526493","0.0-33.0","p736976","A3S3WYVCVWW8IZ","3UUIU9GZC6BQMHTLWW3KSJ0W7IE5TB","37UQDCYH6Z1N9X9NFMNXG5X2EKI7VQ","model","mismatch","uniform","","","","","","","1764.5","525539.6000000238","527304.1000000238","[""stimuli/BM16_HE.jpg"",""stimuli/AM05_SC.jpg"",""stimuli/AM09_SUR.jpg"",""stimuli/AF11_CC.jpg""]","stimuli/BM16_HE.jpg","stimuli/AM05_SC.jpg","stimuli/AM09_SUR.jpg","stimuli/AF11_CC.jpg","pos3","stimuli/AM09_SUR.jpg","SUR","AM09","2","2.5","5","6","stimuli/stars_5.png","49","[""HE"",""SC"",""SUR"",""CC""]","[""BM16"",""AM05"",""AM09"",""AF11""]","[6,3,5,6]","[4,2,6,8]","","",""
"show-reward","34","528495","0.0-34.0","p736976","A3S3WYVCVWW8IZ","3UUIU9GZC6BQMHTLWW3KSJ0W7IE5TB","37UQDCYH6Z1N9X9NFMNXG5X2EKI7VQ","model","mismatch","uniform","","","","","","","","527804.6000000238","529805.8999999762","","","","","","","","","","","","5","","stimuli/stars_5.png","49","","","","","stimuli/AM09_SUR.jpg","",""
"explore-choice","35","530852","0.0-35.0","p736976","A3S3WYVCVWW8IZ","3UUIU9GZC6BQMHTLWW3KSJ0W7IE5TB","37UQDCYH6Z1N9X9NFMNXG5X2EKI7VQ","model","mismatch","uniform","","","","","","","1855.7999999523163","529806.3999999762","531662.1999999285","[""stimuli/BM16_HE.jpg"",""stimuli/AF11_CC.jpg"",""stimuli/AM05_SUR.jpg"",""stimuli/AM09_SC.jpg""]","stimuli/BM16_HE.jpg","stimuli/AF11_CC.jpg","stimuli/AM05_SUR.jpg","stimuli/AM09_SC.jpg","pos2","stimuli/AF11_CC.jpg","CC","AF11","1","4","8","8","stimuli/stars_8.png","53","[""HE"",""CC"",""SUR"",""SC""]","[""BM16"",""AF11"",""AM05"",""AM09""]","[5,8,0,7]","[4,8,2,6]","","",""
"show-reward","36","532867","0.0-36.0","p736976","A3S3WYVCVWW8IZ","3UUIU9GZC6BQMHTLWW3KSJ0W7IE5TB","37UQDCYH6Z1N9X9NFMNXG5X2EKI7VQ","model","mismatch","uniform","","","","","","","","532163.2999999523","534177.1999999285","","","","","","","","","","","","8","","stimuli/stars_8.png","53","","","","","stimuli/AF11_CC.jpg","",""
"explore-choice","37","535780","0.0-37.0","p736976","A3S3WYVCVWW8IZ","3UUIU9GZC6BQMHTLWW3KSJ0W7IE5TB","37UQDCYH6Z1N9X9NFMNXG5X2EKI7VQ","model","mismatch","uniform","","","","","","","2410.3000000715256","534177.6999999285","536588","[""stimuli/AM09_HE.jpg"",""stimuli/BM16_CC.jpg"",""stimuli/AM05_SUR.jpg"",""stimuli/AF11_SC.jpg""]","stimuli/AM09_HE.jpg","stimuli/BM16_CC.jpg","stimuli/AM05_SUR.jpg","stimuli/AF11_SC.jpg","pos1","stimuli/AM09_HE.jpg","HE","AM09","0","3","6","6","stimuli/stars_6.png","56","[""HE"",""CC"",""SUR"",""SC""]","[""AM09"",""BM16"",""AM05"",""AF11""]","[6,4,1,6]","[6,4,2,8]","","",""
"show-reward","38","537797","0.0-38.0","p736976","A3S3WYVCVWW8IZ","3UUIU9GZC6BQMHTLWW3KSJ0W7IE5TB","37UQDCYH6Z1N9X9NFMNXG5X2EKI7VQ","model","mismatch","uniform","","","","","","","","537091.1000000238","539107.7999999523","","","","","","","","","","","","6","","stimuli/stars_6.png","56","","","","","stimuli/AM09_HE.jpg","",""
"explore-choice","39","539848","0.0-39.0","p736976","A3S3WYVCVWW8IZ","3UUIU9GZC6BQMHTLWW3KSJ0W7IE5TB","37UQDCYH6Z1N9X9NFMNXG5X2EKI7VQ","model","mismatch","uniform","","","","","","","1549.9000000953674","539108.1999999285","540658.1000000238","[""stimuli/AF11_SC.jpg"",""stimuli/BM16_CC.jpg"",""stimuli/AM09_SUR.jpg"",""stimuli/AM05_HE.jpg""]","stimuli/AF11_SC.jpg","stimuli/BM16_CC.jpg","stimuli/AM09_SUR.jpg","stimuli/AM05_HE.jpg","pos3","stimuli/AM09_SUR.jpg","SUR","AM09","2","2","4","6","stimuli/stars_4.png","58","[""SC"",""CC"",""SUR"",""HE""]","[""AF11"",""BM16"",""AM09"",""AM05""]","[10,2,4,1]","[8,4,6,2]","","",""
"show-reward","40","541850","0.0-40.0","p736976","A3S3WYVCVWW8IZ","3UUIU9GZC6BQMHTLWW3KSJ0W7IE5TB","37UQDCYH6Z1N9X9NFMNXG5X2EKI7VQ","model","mismatch","uniform","","","","","","","","541159.3999999762","543160.8999999762","","","","","","","","","","","","4","","stimuli/stars_4.png","58","","","","","stimuli/AM09_SUR.jpg","",""
"explore-choice","41","543400","0.0-41.0","p736976","A3S3WYVCVWW8IZ","3UUIU9GZC6BQMHTLWW3KSJ0W7IE5TB","37UQDCYH6Z1N9X9NFMNXG5X2EKI7VQ","model","mismatch","uniform","","","","","","","1038.5","543161.5","544200","[""stimuli/AM09_SUR.jpg"",""stimuli/BM16_CC.jpg"",""stimuli/AM05_SC.jpg"",""stimuli/AF11_HE.jpg""]","stimuli/AM09_SUR.jpg","stimuli/BM16_CC.jpg","stimuli/AM05_SC.jpg","stimuli/AF11_HE.jpg","pos1","stimuli/AM09_SUR.jpg","SUR","AM09","0","2","4","6","stimuli/stars_4.png","60","[""SUR"",""CC"",""SC"",""HE""]","[""AM09"",""BM16"",""AM05"",""AF11""]","[4,4,4,7]","[6,4,2,8]","","",""
"show-reward","42","545401","0.0-42.0","p736976","A3S3WYVCVWW8IZ","3UUIU9GZC6BQMHTLWW3KSJ0W7IE5TB","37UQDCYH6Z1N9X9NFMNXG5X2EKI7VQ","model","mismatch","uniform","","","","","","","","544710.7999999523","546711.6999999285","","","","","","","","","","","","4","","stimuli/stars_4.png","60","","","","","stimuli/AM09_SUR.jpg","",""
"explore-choice","43","546882","0.0-43.0","p736976","A3S3WYVCVWW8IZ","3UUIU9GZC6BQMHTLWW3KSJ0W7IE5TB","37UQDCYH6Z1N9X9NFMNXG5X2EKI7VQ","model","mismatch","uniform","","","","","","","979.8000000715256","546712.2999999523","547692.1000000238","[""stimuli/AM05_HE.jpg"",""stimuli/AM09_SC.jpg"",""stimuli/BM16_CC.jpg"",""stimuli/AF11_SUR.jpg""]","stimuli/AM05_HE.jpg","stimuli/AM09_SC.jpg","stimuli/BM16_CC.jpg","stimuli/AF11_SUR.jpg","pos4","stimuli/AF11_SUR.jpg","SUR","AF11","3","4","8","8","stimuli/stars_8.png","64","[""HE"",""SC"",""CC"",""SUR""]","[""AM05"",""AM09"",""BM16"",""AF11""]","[1,4,3,8]","[2,6,4,8]","","",""
"show-reward","44","548896","0.0-44.0","p736976","A3S3WYVCVWW8IZ","3UUIU9GZC6BQMHTLWW3KSJ0W7IE5TB","37UQDCYH6Z1N9X9NFMNXG5X2EKI7VQ","model","mismatch","uniform","","","","","","","","548192.8999999762","550207.1000000238","","","","","","","","","","","","8","","stimuli/stars_8.png","64","","","","","stimuli/AF11_SUR.jpg","",""
"explore-choice","45","550416","0.0-45.0","p736976","A3S3WYVCVWW8IZ","3UUIU9GZC6BQMHTLWW3KSJ0W7IE5TB","37UQDCYH6Z1N9X9NFMNXG5X2EKI7VQ","model","mismatch","uniform","","","","","","","1018.3999999761581","550207.6000000238","551226","[""stimuli/AM09_SC.jpg"",""stimuli/BM16_SUR.jpg"",""stimuli/AF11_HE.jpg"",""stimuli/AM05_CC.jpg""]","stimuli/AM09_SC.jpg","stimuli/BM16_SUR.jpg","stimuli/AF11_HE.jpg","stimuli/AM05_CC.jpg","pos3","stimuli/AF11_HE.jpg","HE","AF11","2","5","10","8","stimuli/stars_10.png","69","[""SC"",""SUR"",""HE"",""CC""]","[""AM09"",""BM16"",""AF11"",""AM05""]","[5,5,10,2]","[6,4,8,2]","","",""
"show-reward","46","552418","0.0-46.0","p736976","A3S3WYVCVWW8IZ","3UUIU9GZC6BQMHTLWW3KSJ0W7IE5TB","37UQDCYH6Z1N9X9NFMNXG5X2EKI7VQ","model","mismatch","uniform","","","","","","","","551727.2999999523","553728.5","","","","","","","","","","","","10","","stimuli/stars_10.png","69","","","","","stimuli/AF11_HE.jpg","",""
"explore-choice","47","554542","0.0-47.0","p736976","A3S3WYVCVWW8IZ","3UUIU9GZC6BQMHTLWW3KSJ0W7IE5TB","37UQDCYH6Z1N9X9NFMNXG5X2EKI7VQ","model","mismatch","uniform","","","","","","","1623","553729","555352","[""stimuli/AM09_SUR.jpg"",""stimuli/AF11_SC.jpg"",""stimuli/AM05_CC.jpg"",""stimuli/BM16_HE.jpg""]","stimuli/AM09_SUR.jpg","stimuli/AF11_SC.jpg","stimuli/AM05_CC.jpg","stimuli/BM16_HE.jpg","pos2","stimuli/AF11_SC.jpg","SC","AF11","1","5","10","8","stimuli/stars_10.png","74","[""SUR"",""SC"",""CC"",""HE""]","[""AM09"",""AF11"",""AM05"",""BM16""]","[7,10,1,5]","[6,8,2,4]","","",""
"show-reward","48","556552","0.0-48.0","p736976","A3S3WYVCVWW8IZ","3UUIU9GZC6BQMHTLWW3KSJ0W7IE5TB","37UQDCYH6Z1N9X9NFMNXG5X2EKI7VQ","model","mismatch","uniform","","","","","","","","555853.5","557863.1000000238","","","","","","","","","","","","10","","stimuli/stars_10.png","74","","","","","stimuli/AF11_SC.jpg","",""
"explore-choice","49","557674","0.0-49.0","p736976","A3S3WYVCVWW8IZ","3UUIU9GZC6BQMHTLWW3KSJ0W7IE5TB","37UQDCYH6Z1N9X9NFMNXG5X2EKI7VQ","model","mismatch","uniform","","","","","","","620.5999999046326","557863.6000000238","558484.1999999285","[""stimuli/BM16_CC.jpg"",""stimuli/AM09_SC.jpg"",""stimuli/AM05_SUR.jpg"",""stimuli/AF11_HE.jpg""]","stimuli/BM16_CC.jpg","stimuli/AM09_SC.jpg","stimuli/AM05_SUR.jpg","stimuli/AF11_HE.jpg","pos4","stimuli/AF11_HE.jpg","HE","AF11","3","5","10","8","stimuli/stars_10.png","79","[""CC"",""SC"",""SUR"",""HE""]","[""BM16"",""AM09"",""AM05"",""AF11""]","[2,5,0,10]","[4,6,2,8]","","",""
"show-reward","50","559678","0.0-50.0","p736976","A3S3WYVCVWW8IZ","3UUIU9GZC6BQMHTLWW3KSJ0W7IE5TB","37UQDCYH6Z1N9X9NFMNXG5X2EKI7VQ","model","mismatch","uniform","","","","","","","","558985.3999999762","560988.7999999523","","","","","","","","","","","","10","","stimuli/stars_10.png","79","","","","","stimuli/AF11_HE.jpg","",""
"explore-choice","51","561064","0.0-51.0","p736976","A3S3WYVCVWW8IZ","3UUIU9GZC6BQMHTLWW3KSJ0W7IE5TB","37UQDCYH6Z1N9X9NFMNXG5X2EKI7VQ","model","mismatch","uniform","","","","","","","884.8000000715256","560989.2999999523","561874.1000000238","[""stimuli/BM16_SUR.jpg"",""stimuli/AM05_HE.jpg"",""stimuli/AF11_CC.jpg"",""stimuli/AM09_SC.jpg""]","stimuli/BM16_SUR.jpg","stimuli/AM05_HE.jpg","stimuli/AF11_CC.jpg","stimuli/AM09_SC.jpg","pos3","stimuli/AF11_CC.jpg","CC","AF11","2","3.5","7","8","stimuli/stars_7.png","82.5","[""SUR"",""HE"",""CC"",""SC""]","[""BM16"",""AM05"",""AF11"",""AM09""]","[3,1,7,6]","[4,2,8,6]","","",""
"show-reward","52","563078","0.0-52.0","p736976","A3S3WYVCVWW8IZ","3UUIU9GZC6BQMHTLWW3KSJ0W7IE5TB","37UQDCYH6Z1N9X9NFMNXG5X2EKI7VQ","model","mismatch","uniform","","","","","","","","562375.3999999762","564388.7999999523","","","","","","","","","","","","7","","stimuli/stars_7.png","82.5","","","","","stimuli/AF11_CC.jpg","",""
"explore-choice","53","564300","0.0-53.0","p736976","A3S3WYVCVWW8IZ","3UUIU9GZC6BQMHTLWW3KSJ0W7IE5TB","37UQDCYH6Z1N9X9NFMNXG5X2EKI7VQ","model","mismatch","uniform","","","","","","","720.7000000476837","564389.2999999523","565110","[""stimuli/AM09_SUR.jpg"",""stimuli/AF11_CC.jpg"",""stimuli/BM16_SC.jpg"",""stimuli/AM05_HE.jpg""]","stimuli/AM09_SUR.jpg","stimuli/AF11_CC.jpg","stimuli/BM16_SC.jpg","stimuli/AM05_HE.jpg","pos2","stimuli/AF11_CC.jpg","CC","AF11","1","5","10","8","stimuli/stars_10.png","87.5","[""SUR"",""CC"",""SC"",""HE""]","[""AM09"",""AF11"",""BM16"",""AM05""]","[8,10,2,3]","[6,8,4,2]","","",""
"show-reward","54","566302","0.0-54.0","p736976","A3S3WYVCVWW8IZ","3UUIU9GZC6BQMHTLWW3KSJ0W7IE5TB","37UQDCYH6Z1N9X9NFMNXG5X2EKI7VQ","model","mismatch","uniform","","","","","","","","565611.1999999285","567612.6999999285","","","","","","","","","","","","10","","stimuli/stars_10.png","87.5","","","","","stimuli/AF11_CC.jpg","",""
"explore-choice","55","569025","0.0-55.0","p736976","A3S3WYVCVWW8IZ","3UUIU9GZC6BQMHTLWW3KSJ0W7IE5TB","37UQDCYH6Z1N9X9NFMNXG5X2EKI7VQ","model","mismatch","uniform","","","","","","","2222.8000000715256","567613.1999999285","569836","[""stimuli/AM09_CC.jpg"",""stimuli/BM16_HE.jpg"",""stimuli/AM05_SC.jpg"",""stimuli/AF11_SUR.jpg""]","stimuli/AM09_CC.jpg","stimuli/BM16_HE.jpg","stimuli/AM05_SC.jpg","stimuli/AF11_SUR.jpg","pos4","stimuli/AF11_SUR.jpg","SUR","AF11","3","3","6","8","stimuli/stars_6.png","90.5","[""CC"",""HE"",""SC"",""SUR""]","[""AM09"",""BM16"",""AM05"",""AF11""]","[7,4,1,6]","[6,4,2,8]","","",""
"show-reward","56","571027","0.0-56.0","p736976","A3S3WYVCVWW8IZ","3UUIU9GZC6BQMHTLWW3KSJ0W7IE5TB","37UQDCYH6Z1N9X9NFMNXG5X2EKI7VQ","model","mismatch","uniform","","","","","","","","570336.6000000238","572338.1999999285","","","","","","","","","","","","6","","stimuli/stars_6.png","90.5","","","","","stimuli/AF11_SUR.jpg","",""
"explore-choice","57","573016","0.0-57.0","p736976","A3S3WYVCVWW8IZ","3UUIU9GZC6BQMHTLWW3KSJ0W7IE5TB","37UQDCYH6Z1N9X9NFMNXG5X2EKI7VQ","model","mismatch","uniform","","","","","","","1487.4000000953674","572338.6999999285","573826.1000000238","[""stimuli/AF11_CC.jpg"",""stimuli/AM05_HE.jpg"",""stimuli/BM16_SUR.jpg"",""stimuli/AM09_SC.jpg""]","stimuli/AF11_CC.jpg","stimuli/AM05_HE.jpg","stimuli/BM16_SUR.jpg","stimuli/AM09_SC.jpg","pos1","stimuli/AF11_CC.jpg","CC","AF11","0","3.5","7","8","stimuli/stars_7.png","94","[""CC"",""HE"",""SUR"",""SC""]","[""AF11"",""AM05"",""BM16"",""AM09""]","[7,1,3,6]","[8,2,4,6]","","",""
"show-reward","58","575017","0.0-58.0","p736976","A3S3WYVCVWW8IZ","3UUIU9GZC6BQMHTLWW3KSJ0W7IE5TB","37UQDCYH6Z1N9X9NFMNXG5X2EKI7VQ","model","mismatch","uniform","","","","","","","","574326.7999999523","576328","","","","","","","","","","","","7","","stimuli/stars_7.png","94","","","","","stimuli/AF11_CC.jpg","",""
"explore-choice","59","577015","0.0-59.0","p736976","A3S3WYVCVWW8IZ","3UUIU9GZC6BQMHTLWW3KSJ0W7IE5TB","37UQDCYH6Z1N9X9NFMNXG5X2EKI7VQ","model","mismatch","uniform","","","","","","","1495.7999999523163","576328.5","577824.2999999523","[""stimuli/AF11_SUR.jpg"",""stimuli/AM05_CC.jpg"",""stimuli/AM09_HE.jpg"",""stimuli/BM16_SC.jpg""]","stimuli/AF11_SUR.jpg","stimuli/AM05_CC.jpg","stimuli/AM09_HE.jpg","stimuli/BM16_SC.jpg","pos1","stimuli/AF11_SUR.jpg","SUR","AF11","0","5","10","8","stimuli/stars_10.png","99","[""SUR"",""CC"",""HE"",""SC""]","[""AF11"",""AM05"",""AM09"",""BM16""]","[10,4,6,5]","[8,2,6,4]","","",""
"show-reward","60","579031","0.0-60.0","p736976","A3S3WYVCVWW8IZ","3UUIU9GZC6BQMHTLWW3KSJ0W7IE5TB","37UQDCYH6Z1N9X9NFMNXG5X2EKI7VQ","model","mismatch","uniform","","","","","","","","578325.7999999523","580341.5","","","","","","","","","","","","10","","stimuli/stars_10.png","99","","","","","stimuli/AF11_SUR.jpg","",""
"explore-choice","61","580548","0.0-61.0","p736976","A3S3WYVCVWW8IZ","3UUIU9GZC6BQMHTLWW3KSJ0W7IE5TB","37UQDCYH6Z1N9X9NFMNXG5X2EKI7VQ","model","mismatch","uniform","","","","","","","1016.0999999046326","580342.1000000238","581358.1999999285","[""stimuli/AM09_HE.jpg"",""stimuli/BM16_CC.jpg"",""stimuli/AM05_SC.jpg"",""stimuli/AF11_SUR.jpg""]","stimuli/AM09_HE.jpg","stimuli/BM16_CC.jpg","stimuli/AM05_SC.jpg","stimuli/AF11_SUR.jpg","pos4","stimuli/AF11_SUR.jpg","SUR","AF11","3","5","10","8","stimuli/stars_10.png","104","[""HE"",""CC"",""SC"",""SUR""]","[""AM09"",""BM16"",""AM05"",""AF11""]","[6,3,1,10]","[6,4,2,8]","","",""
"show-reward","62","582565","0.0-62.0","p736976","A3S3WYVCVWW8IZ","3UUIU9GZC6BQMHTLWW3KSJ0W7IE5TB","37UQDCYH6Z1N9X9NFMNXG5X2EKI7VQ","model","mismatch","uniform","","","","","","","","581859.1000000238","583875.7999999523","","","","","","","","","","","","10","","stimuli/stars_10.png","104","","","","","stimuli/AF11_SUR.jpg","",""
"explore-choice","63","584404","0.0-63.0","p736976","A3S3WYVCVWW8IZ","3UUIU9GZC6BQMHTLWW3KSJ0W7IE5TB","37UQDCYH6Z1N9X9NFMNXG5X2EKI7VQ","model","mismatch","uniform","","","","","","","1337.8000000715256","583876.2999999523","585214.1000000238","[""stimuli/AM09_CC.jpg"",""stimuli/AF11_SC.jpg"",""stimuli/BM16_SUR.jpg"",""stimuli/AM05_HE.jpg""]","stimuli/AM09_CC.jpg","stimuli/AF11_SC.jpg","stimuli/BM16_SUR.jpg","stimuli/AM05_HE.jpg","pos2","stimuli/AF11_SC.jpg","SC","AF11","1","4.5","9","8","stimuli/stars_9.png","108.5","[""CC"",""SC"",""SUR"",""HE""]","[""AM09"",""AF11"",""BM16"",""AM05""]","[7,9,5,1]","[6,8,4,2]","","",""
"show-reward","64","586406","0.0-64.0","p736976","A3S3WYVCVWW8IZ","3UUIU9GZC6BQMHTLWW3KSJ0W7IE5TB","37UQDCYH6Z1N9X9NFMNXG5X2EKI7VQ","model","mismatch","uniform","","","","","","","","585715.2999999523","587716.6000000238","","","","","","","","","","","","9","","stimuli/stars_9.png","108.5","","","","","stimuli/AF11_SC.jpg","",""
"explore-choice","65","588308","0.0-65.0","p736976","A3S3WYVCVWW8IZ","3UUIU9GZC6BQMHTLWW3KSJ0W7IE5TB","37UQDCYH6Z1N9X9NFMNXG5X2EKI7VQ","model","mismatch","uniform","","","","","","","1391.1000000238419","587717","589108.1000000238","[""stimuli/BM16_CC.jpg"",""stimuli/AM09_SC.jpg"",""stimuli/AM05_SUR.jpg"",""stimuli/AF11_HE.jpg""]","stimuli/BM16_CC.jpg","stimuli/AM09_SC.jpg","stimuli/AM05_SUR.jpg","stimuli/AF11_HE.jpg","pos4","stimuli/AF11_HE.jpg","HE","AF11","3","5","10","8","stimuli/stars_10.png","113.5","[""CC"",""SC"",""SUR"",""HE""]","[""BM16"",""AM09"",""AM05"",""AF11""]","[2,5,0,10]","[4,6,2,8]","","",""
"show-reward","66","590319","0.0-66.0","p736976","A3S3WYVCVWW8IZ","3UUIU9GZC6BQMHTLWW3KSJ0W7IE5TB","37UQDCYH6Z1N9X9NFMNXG5X2EKI7VQ","model","mismatch","uniform","","","","","","","","589618.7999999523","591629.7999999523","","","","","","","","","","","","10","","stimuli/stars_10.png","113.5","","","","","stimuli/AF11_HE.jpg","",""
"explore-choice","67","591494","0.0-67.0","p736976","A3S3WYVCVWW8IZ","3UUIU9GZC6BQMHTLWW3KSJ0W7IE5TB","37UQDCYH6Z1N9X9NFMNXG5X2EKI7VQ","model","mismatch","uniform","","","","","","","673.6000000238419","591630.2999999523","592303.8999999762","[""stimuli/AM05_SUR.jpg"",""stimuli/BM16_SC.jpg"",""stimuli/AM09_HE.jpg"",""stimuli/AF11_CC.jpg""]","stimuli/AM05_SUR.jpg","stimuli/BM16_SC.jpg","stimuli/AM09_HE.jpg","stimuli/AF11_CC.jpg","pos4","stimuli/AF11_CC.jpg","CC","AF11","3","3","6","8","stimuli/stars_6.png","116.5","[""SUR"",""SC"",""HE"",""CC""]","[""AM05"",""BM16"",""AM09"",""AF11""]","[3,2,7,6]","[2,4,6,8]","","",""
"show-reward","68","593506","0.0-68.0","p736976","A3S3WYVCVWW8IZ","3UUIU9GZC6BQMHTLWW3KSJ0W7IE5TB","37UQDCYH6Z1N9X9NFMNXG5X2EKI7VQ","model","mismatch","uniform","","","","","","","","592805.2999999523","594816.3999999762","","","","","","","","","","","","6","","stimuli/stars_6.png","116.5","","","","","stimuli/AF11_CC.jpg","",""
"explore-choice","69","595598","0.0-69.0","p736976","A3S3WYVCVWW8IZ","3UUIU9GZC6BQMHTLWW3KSJ0W7IE5TB","37UQDCYH6Z1N9X9NFMNXG5X2EKI7VQ","model","mismatch","uniform","","","","","","","1591.1000000238419","594817","596408.1000000238","[""stimuli/AF11_SUR.jpg"",""stimuli/AM09_SC.jpg"",""stimuli/AM05_HE.jpg"",""stimuli/BM16_CC.jpg""]","stimuli/AF11_SUR.jpg","stimuli/AM09_SC.jpg","stimuli/AM05_HE.jpg","stimuli/BM16_CC.jpg","pos1","stimuli/AF11_SUR.jpg","SUR","AF11","0","4","8","8","stimuli/stars_8.png","120.5","[""SUR"",""SC"",""HE"",""CC""]","[""AF11"",""AM09"",""AM05"",""BM16""]","[8,4,1,3]","[8,6,2,4]","","",""
"show-reward","70","597602","0.0-70.0","p736976","A3S3WYVCVWW8IZ","3UUIU9GZC6BQMHTLWW3KSJ0W7IE5TB","37UQDCYH6Z1N9X9NFMNXG5X2EKI7VQ","model","mismatch","uniform","","","","","","","","596908.8999999762","598913.1999999285","","","","","","","","","","","","8","","stimuli/stars_8.png","120.5","","","","","stimuli/AF11_SUR.jpg","",""
"explore-choice","71","599350","0.0-71.0","p736976","A3S3WYVCVWW8IZ","3UUIU9GZC6BQMHTLWW3KSJ0W7IE5TB","37UQDCYH6Z1N9X9NFMNXG5X2EKI7VQ","model","mismatch","uniform","","","","","","","1246.2000000476837","598913.8999999762","600160.1000000238","[""stimuli/AF11_CC.jpg"",""stimuli/AM05_SUR.jpg"",""stimuli/AM09_SC.jpg"",""stimuli/BM16_HE.jpg""]","stimuli/AF11_CC.jpg","stimuli/AM05_SUR.jpg","stimuli/AM09_SC.jpg","stimuli/BM16_HE.jpg","pos1","stimuli/AF11_CC.jpg","CC","AF11","0","4","8","8","stimuli/stars_8.png","124.5","[""CC"",""SUR"",""SC"",""HE""]","[""AF11"",""AM05"",""AM09"",""BM16""]","[8,0,7,5]","[8,2,6,4]","","",""
"show-reward","72","601352","0.0-72.0","p736976","A3S3WYVCVWW8IZ","3UUIU9GZC6BQMHTLWW3KSJ0W7IE5TB","37UQDCYH6Z1N9X9NFMNXG5X2EKI7VQ","model","mismatch","uniform","","","","","","","","600661.6000000238","602663.1999999285","","","","","","","","","","","","8","","stimuli/stars_8.png","124.5","","","","","stimuli/AF11_CC.jpg","",""
"explore-choice","73","603308","0.0-73.0","p736976","A3S3WYVCVWW8IZ","3UUIU9GZC6BQMHTLWW3KSJ0W7IE5TB","37UQDCYH6Z1N9X9NFMNXG5X2EKI7VQ","model","mismatch","uniform","","","","","","","1452.5","602663.6000000238","604116.1000000238","[""stimuli/AF11_SC.jpg"",""stimuli/BM16_SUR.jpg"",""stimuli/AM09_HE.jpg"",""stimuli/AM05_CC.jpg""]","stimuli/AF11_SC.jpg","stimuli/BM16_SUR.jpg","stimuli/AM09_HE.jpg","stimuli/AM05_CC.jpg","pos1","stimuli/AF11_SC.jpg","SC","AF11","0","4","8","8","stimuli/stars_8.png","128.5","[""SC"",""SUR"",""HE"",""CC""]","[""AF11"",""BM16"",""AM09"",""AM05""]","[8,4,6,2]","[8,4,6,2]","","",""
"show-reward","74","605310","0.0-74.0","p736976","A3S3WYVCVWW8IZ","3UUIU9GZC6BQMHTLWW3KSJ0W7IE5TB","37UQDCYH6Z1N9X9NFMNXG5X2EKI7VQ","model","mismatch","uniform","","","","","","","","604619.3999999762","606620.7999999523","","","","","","","","","","","","8","","stimuli/stars_8.png","128.5","","","","","stimuli/AF11_SC.jpg","",""
"explore-choice","75","608942","0.0-75.0","p736976","A3S3WYVCVWW8IZ","3UUIU9GZC6BQMHTLWW3KSJ0W7IE5TB","37UQDCYH6Z1N9X9NFMNXG5X2EKI7VQ","model","mismatch","uniform","","","","","","","3131","606621.1999999285","609752.1999999285","[""stimuli/AM05_HE.jpg"",""stimuli/AM09_SUR.jpg"",""stimuli/BM16_CC.jpg"",""stimuli/AF11_SC.jpg""]","stimuli/AM05_HE.jpg","stimuli/AM09_SUR.jpg","stimuli/BM16_CC.jpg","stimuli/AF11_SC.jpg","pos4","stimuli/AF11_SC.jpg","SC","AF11","3","5","10","8","stimuli/stars_10.png","133.5","[""HE"",""SUR"",""CC"",""SC""]","[""AM05"",""AM09"",""BM16"",""AF11""]","[1,4,2,10]","[2,6,4,8]","","",""
"show-reward","76","610947","0.0-76.0","p736976","A3S3WYVCVWW8IZ","3UUIU9GZC6BQMHTLWW3KSJ0W7IE5TB","37UQDCYH6Z1N9X9NFMNXG5X2EKI7VQ","model","mismatch","uniform","","","","","","","","610253","612257.2999999523","","","","","","","","","","","","10","","stimuli/stars_10.png","133.5","","","","","stimuli/AF11_SC.jpg","",""
"explore-choice","77","613294","0.0-77.0","p736976","A3S3WYVCVWW8IZ","3UUIU9GZC6BQMHTLWW3KSJ0W7IE5TB","37UQDCYH6Z1N9X9NFMNXG5X2EKI7VQ","model","mismatch","uniform","","","","","","","1844.5","612257.6999999285","614102.1999999285","[""stimuli/AM05_SUR.jpg"",""stimuli/AM09_CC.jpg"",""stimuli/AF11_SC.jpg"",""stimuli/BM16_HE.jpg""]","stimuli/AM05_SUR.jpg","stimuli/AM09_CC.jpg","stimuli/AF11_SC.jpg","stimuli/BM16_HE.jpg","pos3","stimuli/AF11_SC.jpg","SC","AF11","2","4.5","9","8","stimuli/stars_9.png","138","[""SUR"",""CC"",""SC"",""HE""]","[""AM05"",""AM09"",""AF11"",""BM16""]","[0,6,9,2]","[2,6,8,4]","","",""
"show-reward","78","615308","0.0-78.0","p736976","A3S3WYVCVWW8IZ","3UUIU9GZC6BQMHTLWW3KSJ0W7IE5TB","37UQDCYH6Z1N9X9NFMNXG5X2EKI7VQ","model","mismatch","uniform","","","","","","","","614605.1000000238","616618.6000000238","","","","","","","","","","","","9","","stimuli/stars_9.png","138","","","","","stimuli/AF11_SC.jpg","",""
"explore-choice","79","617131","0.0-79.0","p736976","A3S3WYVCVWW8IZ","3UUIU9GZC6BQMHTLWW3KSJ0W7IE5TB","37UQDCYH6Z1N9X9NFMNXG5X2EKI7VQ","model","mismatch","uniform","","","","","","","1323","616619.1000000238","617942.1000000238","[""stimuli/AM09_SC.jpg"",""stimuli/AM05_CC.jpg"",""stimuli/BM16_HE.jpg"",""stimuli/AF11_SUR.jpg""]","stimuli/AM09_SC.jpg","stimuli/AM05_CC.jpg","stimuli/BM16_HE.jpg","stimuli/AF11_SUR.jpg","pos4","stimuli/AF11_SUR.jpg","SUR","AF11","3","3","6","8","stimuli/stars_6.png","141","[""SC"",""CC"",""HE"",""SUR""]","[""AM09"",""AM05"",""BM16"",""AF11""]","[7,1,2,6]","[6,2,4,8]","","",""
"show-reward","80","619144","0.0-80.0","p736976","A3S3WYVCVWW8IZ","3UUIU9GZC6BQMHTLWW3KSJ0W7IE5TB","37UQDCYH6Z1N9X9NFMNXG5X2EKI7VQ","model","mismatch","uniform","","","","","","","","618442.6000000238","620455.1999999285","","","","","","","","","","","","6","","stimuli/stars_6.png","141","","","","","stimuli/AF11_SUR.jpg","",""
"explore-choice","81","622069","0.0-81.0","p736976","A3S3WYVCVWW8IZ","3UUIU9GZC6BQMHTLWW3KSJ0W7IE5TB","37UQDCYH6Z1N9X9NFMNXG5X2EKI7VQ","model","mismatch","uniform","","","","","","","2422.5","620455.6999999285","622878.1999999285","[""stimuli/BM16_CC.jpg"",""stimuli/AF11_HE.jpg"",""stimuli/AM09_SUR.jpg"",""stimuli/AM05_SC.jpg""]","stimuli/BM16_CC.jpg","stimuli/AF11_HE.jpg","stimuli/AM09_SUR.jpg","stimuli/AM05_SC.jpg","pos2","stimuli/AF11_HE.jpg","HE","AF11","1","3.5","7","8","stimuli/stars_7.png","144.5","[""CC"",""HE"",""SUR"",""SC""]","[""BM16"",""AF11"",""AM09"",""AM05""]","[4,7,4,4]","[4,8,6,2]","","",""
"show-reward","82","624072","0.0-82.0","p736976","A3S3WYVCVWW8IZ","3UUIU9GZC6BQMHTLWW3KSJ0W7IE5TB","37UQDCYH6Z1N9X9NFMNXG5X2EKI7VQ","model","mismatch","uniform","","","","","","","","623380.7999999523","625382.2999999523","","","","","","","","","","","","7","","stimuli/stars_7.png","144.5","","","","","stimuli/AF11_HE.jpg","",""
"explore-choice","83","626234","0.0-83.0","p736976","A3S3WYVCVWW8IZ","3UUIU9GZC6BQMHTLWW3KSJ0W7IE5TB","37UQDCYH6Z1N9X9NFMNXG5X2EKI7VQ","model","mismatch","uniform","","","","","","","1661.2000000476837","625382.7999999523","627044","[""stimuli/AM05_HE.jpg"",""stimuli/AF11_SUR.jpg"",""stimuli/BM16_SC.jpg"",""stimuli/AM09_CC.jpg""]","stimuli/AM05_HE.jpg","stimuli/AF11_SUR.jpg","stimuli/BM16_SC.jpg","stimuli/AM09_CC.jpg","pos2","stimuli/AF11_SUR.jpg","SUR","AF11","1","4","8","8","stimuli/stars_8.png","148.5","[""HE"",""SUR"",""SC"",""CC""]","[""AM05"",""AF11"",""BM16"",""AM09""]","[3,8,4,8]","[2,8,4,6]","","",""
"show-reward","84","628240","0.0-84.0","p736976","A3S3WYVCVWW8IZ","3UUIU9GZC6BQMHTLWW3KSJ0W7IE5TB","37UQDCYH6Z1N9X9NFMNXG5X2EKI7VQ","model","mismatch","uniform","","","","","","","","627545","629551.1999999285","","","","","","","","","","","","8","","stimuli/stars_8.png","148.5","","","","","stimuli/AF11_SUR.jpg","",""
"explore-choice","85","630306","0.0-85.0","p736976","A3S3WYVCVWW8IZ","3UUIU9GZC6BQMHTLWW3KSJ0W7IE5TB","37UQDCYH6Z1N9X9NFMNXG5X2EKI7VQ","model","mismatch","uniform","","","","","","","1564.5","629551.6999999285","631116.1999999285","[""stimuli/AM09_SUR.jpg"",""stimuli/AM05_CC.jpg"",""stimuli/BM16_SC.jpg"",""stimuli/AF11_HE.jpg""]","stimuli/AM09_SUR.jpg","stimuli/AM05_CC.jpg","stimuli/BM16_SC.jpg","stimuli/AF11_HE.jpg","pos4","stimuli/AF11_HE.jpg","HE","AF11","3","3.5","7","8","stimuli/stars_7.png","152","[""SUR"",""CC"",""SC"",""HE""]","[""AM09"",""AM05"",""BM16"",""AF11""]","[7,3,2,7]","[6,2,4,8]","","",""
"show-reward","86","632308","0.0-86.0","p736976","A3S3WYVCVWW8IZ","3UUIU9GZC6BQMHTLWW3KSJ0W7IE5TB","37UQDCYH6Z1N9X9NFMNXG5X2EKI7VQ","model","mismatch","uniform","","","","","","","","631617.5","633618.8999999762","","","","","","","","","","","","7","","stimuli/stars_7.png","152","","","","","stimuli/AF11_HE.jpg","",""
"explore-choice","87","633824","0.0-87.0","p736976","A3S3WYVCVWW8IZ","3UUIU9GZC6BQMHTLWW3KSJ0W7IE5TB","37UQDCYH6Z1N9X9NFMNXG5X2EKI7VQ","model","mismatch","uniform","","","","","","","1014.8000000715256","633619.2999999523","634634.1000000238","[""stimuli/AM05_HE.jpg"",""stimuli/AM09_SUR.jpg"",""stimuli/AF11_CC.jpg"",""stimuli/BM16_SC.jpg""]","stimuli/AM05_HE.jpg","stimuli/AM09_SUR.jpg","stimuli/AF11_CC.jpg","stimuli/BM16_SC.jpg","pos3","stimuli/AF11_CC.jpg","CC","AF11","2","5","10","8","stimuli/stars_10.png","157","[""HE"",""SUR"",""CC"",""SC""]","[""AM05"",""AM09"",""AF11"",""BM16""]","[3,8,10,2]","[2,6,8,4]","","",""
"show-reward","88","635841","0.0-88.0","p736976","A3S3WYVCVWW8IZ","3UUIU9GZC6BQMHTLWW3KSJ0W7IE5TB","37UQDCYH6Z1N9X9NFMNXG5X2EKI7VQ","model","mismatch","uniform","","","","","","","","635135.3999999762","637151.8999999762","","","","","","","","","","","","10","","stimuli/stars_10.png","157","","","","","stimuli/AF11_CC.jpg","",""
"explore-choice","89","637374","0.0-89.0","p736976","A3S3WYVCVWW8IZ","3UUIU9GZC6BQMHTLWW3KSJ0W7IE5TB","37UQDCYH6Z1N9X9NFMNXG5X2EKI7VQ","model","mismatch","uniform","","","","","","","1031.7000000476837","637152.3999999762","638184.1000000238","[""stimuli/AM05_SUR.jpg"",""stimuli/BM16_CC.jpg"",""stimuli/AF11_SC.jpg"",""stimuli/AM09_HE.jpg""]","stimuli/AM05_SUR.jpg","stimuli/BM16_CC.jpg","stimuli/AF11_SC.jpg","stimuli/AM09_HE.jpg","pos3","stimuli/AF11_SC.jpg","SC","AF11","2","3","6","8","stimuli/stars_6.png","160","[""SUR"",""CC"",""SC"",""HE""]","[""AM05"",""BM16"",""AF11"",""AM09""]","[1,4,6,6]","[2,4,8,6]","","",""
"show-reward","90","639376","0.0-90.0","p736976","A3S3WYVCVWW8IZ","3UUIU9GZC6BQMHTLWW3KSJ0W7IE5TB","37UQDCYH6Z1N9X9NFMNXG5X2EKI7VQ","model","mismatch","uniform","","","","","","","","638684.7999999523","640686.1999999285","","","","","","","","","","","","6","","stimuli/stars_6.png","160","","","","","stimuli/AF11_SC.jpg","",""
"explore-choice","91","641911","0.0-91.0","p736976","A3S3WYVCVWW8IZ","3UUIU9GZC6BQMHTLWW3KSJ0W7IE5TB","37UQDCYH6Z1N9X9NFMNXG5X2EKI7VQ","model","mismatch","uniform","","","","","","","2023.3000000715256","640686.6999999285","642710","[""stimuli/AF11_HE.jpg"",""stimuli/BM16_SUR.jpg"",""stimuli/AM05_SC.jpg"",""stimuli/AM09_CC.jpg""]","stimuli/AF11_HE.jpg","stimuli/BM16_SUR.jpg","stimuli/AM05_SC.jpg","stimuli/AM09_CC.jpg","pos1","stimuli/AF11_HE.jpg","HE","AF11","0","5","10","8","stimuli/stars_10.png","165","[""HE"",""SUR"",""SC"",""CC""]","[""AF11"",""BM16"",""AM05"",""AM09""]","[10,3,2,7]","[8,4,2,6]","","",""
"show-reward","92","643913","0.0-92.0","p736976","A3S3WYVCVWW8IZ","3UUIU9GZC6BQMHTLWW3KSJ0W7IE5TB","37UQDCYH6Z1N9X9NFMNXG5X2EKI7VQ","model","mismatch","uniform","","","","","","","","643222.3999999762","645224.1000000238","","","","","","","","","","","","10","","stimuli/stars_10.png","165","","","","","stimuli/AF11_HE.jpg","",""
"explore-choice","93","645874","0.0-93.0","p736976","A3S3WYVCVWW8IZ","3UUIU9GZC6BQMHTLWW3KSJ0W7IE5TB","37UQDCYH6Z1N9X9NFMNXG5X2EKI7VQ","model","mismatch","uniform","","","","","","","1459.6000000238419","645224.6999999285","646684.2999999523","[""stimuli/AF11_CC.jpg"",""stimuli/AM05_SC.jpg"",""stimuli/BM16_SUR.jpg"",""stimuli/AM09_HE.jpg""]","stimuli/AF11_CC.jpg","stimuli/AM05_SC.jpg","stimuli/BM16_SUR.jpg","stimuli/AM09_HE.jpg","pos1","stimuli/AF11_CC.jpg","CC","AF11","0","3","6","8","stimuli/stars_6.png","168","[""CC"",""SC"",""SUR"",""HE""]","[""AF11"",""AM05"",""BM16"",""AM09""]","[6,1,5,5]","[8,2,4,6]","","",""
"show-reward","94","647882","0.0-94.0","p736976","A3S3WYVCVWW8IZ","3UUIU9GZC6BQMHTLWW3KSJ0W7IE5TB","37UQDCYH6Z1N9X9NFMNXG5X2EKI7VQ","model","mismatch","uniform","","","","","","","","647185.2999999523","649193","","","","","","","","","","","","6","","stimuli/stars_6.png","168","","","","","stimuli/AF11_CC.jpg","",""
"explore-choice","95","649168","0.0-95.0","p736976","A3S3WYVCVWW8IZ","3UUIU9GZC6BQMHTLWW3KSJ0W7IE5TB","37UQDCYH6Z1N9X9NFMNXG5X2EKI7VQ","model","mismatch","uniform","","","","","","","784.6000000238419","649193.5","649978.1000000238","[""stimuli/BM16_HE.jpg"",""stimuli/AM09_SUR.jpg"",""stimuli/AM05_SC.jpg"",""stimuli/AF11_CC.jpg""]","stimuli/BM16_HE.jpg","stimuli/AM09_SUR.jpg","stimuli/AM05_SC.jpg","stimuli/AF11_CC.jpg","pos4","stimuli/AF11_CC.jpg","CC","AF11","3","3","6","8","stimuli/stars_6.png","171","[""HE"",""SUR"",""SC"",""CC""]","[""BM16"",""AM09"",""AM05"",""AF11""]","[6,5,3,6]","[4,6,2,8]","","",""
"show-reward","96","651173","0.0-96.0","p736976","A3S3WYVCVWW8IZ","3UUIU9GZC6BQMHTLWW3KSJ0W7IE5TB","37UQDCYH6Z1N9X9NFMNXG5X2EKI7VQ","model","mismatch","uniform","","","","","","","","650478.8999999762","652483.5","","","","","","","","","","","","6","","stimuli/stars_6.png","171","","","","","stimuli/AF11_CC.jpg","",""
"explore-choice","97","652698","0.0-97.0","p736976","A3S3WYVCVWW8IZ","3UUIU9GZC6BQMHTLWW3KSJ0W7IE5TB","37UQDCYH6Z1N9X9NFMNXG5X2EKI7VQ","model","mismatch","uniform","","","","","","","1024.0999999046326","652484.1000000238","653508.1999999285","[""stimuli/AM09_SC.jpg"",""stimuli/AF11_HE.jpg"",""stimuli/AM05_CC.jpg"",""stimuli/BM16_SUR.jpg""]","stimuli/AM09_SC.jpg","stimuli/AF11_HE.jpg","stimuli/AM05_CC.jpg","stimuli/BM16_SUR.jpg","pos2","stimuli/AF11_HE.jpg","HE","AF11","1","5","10","8","stimuli/stars_10.png","176","[""SC"",""HE"",""CC"",""SUR""]","[""AM09"",""AF11"",""AM05"",""BM16""]","[5,10,2,5]","[6,8,2,4]","","",""
"show-reward","98","655497","0.0-98.0","p736976","A3S3WYVCVWW8IZ","3UUIU9GZC6BQMHTLWW3KSJ0W7IE5TB","37UQDCYH6Z1N9X9NFMNXG5X2EKI7VQ","model","mismatch","uniform","","","","","","","","654008.8999999762","656807.6000000238","","","","","","","","","","","","10","","stimuli/stars_10.png","176","","","","","stimuli/AF11_HE.jpg","",""
"explore-choice","99","658624","0.0-99.0","p736976","A3S3WYVCVWW8IZ","3UUIU9GZC6BQMHTLWW3KSJ0W7IE5TB","37UQDCYH6Z1N9X9NFMNXG5X2EKI7VQ","model","mismatch","uniform","","","","","","","2616","656808.1999999285","659424.1999999285","[""stimuli/AM05_CC.jpg"",""stimuli/AF11_SC.jpg"",""stimuli/AM09_SUR.jpg"",""stimuli/BM16_HE.jpg""]","stimuli/AM05_CC.jpg","stimuli/AF11_SC.jpg","stimuli/AM09_SUR.jpg","stimuli/BM16_HE.jpg","pos2","stimuli/AF11_SC.jpg","SC","AF11","1","5","10","8","stimuli/stars_10.png","181","[""CC"",""SC"",""SUR"",""HE""]","[""AM05"",""AF11"",""AM09"",""BM16""]","[1,10,7,5]","[2,8,6,4]","","",""
"show-reward","100","660626","0.0-100.0","p736976","A3S3WYVCVWW8IZ","3UUIU9GZC6BQMHTLWW3KSJ0W7IE5TB","37UQDCYH6Z1N9X9NFMNXG5X2EKI7VQ","model","mismatch","uniform","","","","","","","","659935.1999999285","661936.6000000238","","","","","","","","","","","","10","","stimuli/stars_10.png","181","","","","","stimuli/AF11_SC.jpg","",""
"explore-choice","101","662401","0.0-101.0","p736976","A3S3WYVCVWW8IZ","3UUIU9GZC6BQMHTLWW3KSJ0W7IE5TB","37UQDCYH6Z1N9X9NFMNXG5X2EKI7VQ","model","mismatch","uniform","","","","","","","1274.8999999761581","661937.1000000238","663212","[""stimuli/AF11_HE.jpg"",""stimuli/BM16_SC.jpg"",""stimuli/AM09_CC.jpg"",""stimuli/AM05_SUR.jpg""]","stimuli/AF11_HE.jpg","stimuli/BM16_SC.jpg","stimuli/AM09_CC.jpg","stimuli/AM05_SUR.jpg","pos1","stimuli/AF11_HE.jpg","HE","AF11","0","5","10","8","stimuli/stars_10.png","186","[""HE"",""SC"",""CC"",""SUR""]","[""AF11"",""BM16"",""AM09"",""AM05""]","[10,5,8,0]","[8,4,6,2]","","",""
"show-reward","102","664403","0.0-102.0","p736976","A3S3WYVCVWW8IZ","3UUIU9GZC6BQMHTLWW3KSJ0W7IE5TB","37UQDCYH6Z1N9X9NFMNXG5X2EKI7VQ","model","mismatch","uniform","","","","","","","","663712.6999999285","665714","","","","","","","","","","","","10","","stimuli/stars_10.png","186","","","","","stimuli/AF11_HE.jpg","",""
"explore-choice","103","667305","0.0-103.0","p736976","A3S3WYVCVWW8IZ","3UUIU9GZC6BQMHTLWW3KSJ0W7IE5TB","37UQDCYH6Z1N9X9NFMNXG5X2EKI7VQ","model","mismatch","uniform","","","","","","","2401.6999999284744","665714.5","668116.1999999285","[""stimuli/HF09_HO.jpg"",""stimuli/BF08_DO.jpg"",""stimuli/WM11_FO.jpg"",""stimuli/BM07_AO.jpg""]","stimuli/HF09_HO.jpg","stimuli/BF08_DO.jpg","stimuli/WM11_FO.jpg","stimuli/BM07_AO.jpg","pos1","stimuli/HF09_HO.jpg","HO","HF09","0","0","0","2","stimuli/stars_0.png","186","[""HO"",""DO"",""FO"",""AO""]","[""HF09"",""BF08"",""WM11"",""BM07""]","[0,4,9,6]","[2,6,8,4]","","",""
"show-reward","104","669307","0.0-104.0","p736976","A3S3WYVCVWW8IZ","3UUIU9GZC6BQMHTLWW3KSJ0W7IE5TB","37UQDCYH6Z1N9X9NFMNXG5X2EKI7VQ","model","mismatch","uniform","","","","","","","","668616.6999999285","670618.1999999285","","","","","","","","","","","","0","","stimuli/stars_0.png","186","","","","","stimuli/HF09_HO.jpg","",""
"explore-choice","105","671009","0.0-105.0","p736976","A3S3WYVCVWW8IZ","3UUIU9GZC6BQMHTLWW3KSJ0W7IE5TB","37UQDCYH6Z1N9X9NFMNXG5X2EKI7VQ","model","mismatch","uniform","","","","","","","1197.6000000238419","670618.6999999285","671816.2999999523","[""stimuli/BF08_HO.jpg"",""stimuli/BM07_DO.jpg"",""stimuli/HF09_FO.jpg"",""stimuli/WM11_AO.jpg""]","stimuli/BF08_HO.jpg","stimuli/BM07_DO.jpg","stimuli/HF09_FO.jpg","stimuli/WM11_AO.jpg","pos1","stimuli/BF08_HO.jpg","HO","BF08","0","0","0","2","stimuli/stars_0.png","186","[""HO"",""DO"",""FO"",""AO""]","[""BF08"",""BM07"",""HF09"",""WM11""]","[0,8,7,5]","[2,6,8,4]","","",""
"show-reward","106","673022","0.0-106.0","p736976","A3S3WYVCVWW8IZ","3UUIU9GZC6BQMHTLWW3KSJ0W7IE5TB","37UQDCYH6Z1N9X9NFMNXG5X2EKI7VQ","model","mismatch","uniform","","","","","","","","672320.5","674332.6999999285","","","","","","","","","","","","0","","stimuli/stars_0.png","186","","","","","stimuli/BF08_HO.jpg","",""
"explore-choice","107","674493","0.0-107.0","p736976","A3S3WYVCVWW8IZ","3UUIU9GZC6BQMHTLWW3KSJ0W7IE5TB","37UQDCYH6Z1N9X9NFMNXG5X2EKI7VQ","model","mismatch","uniform","","","","","","","960.7000000476837","674333.2999999523","675294","[""stimuli/WM11_AO.jpg"",""stimuli/HF09_DO.jpg"",""stimuli/BF08_FO.jpg"",""stimuli/BM07_HO.jpg""]","stimuli/WM11_AO.jpg","stimuli/HF09_DO.jpg","stimuli/BF08_FO.jpg","stimuli/BM07_HO.jpg","pos1","stimuli/WM11_AO.jpg","AO","WM11","0","3","6","4","stimuli/stars_6.png","189","[""AO"",""DO"",""FO"",""HO""]","[""WM11"",""HF09"",""BF08"",""BM07""]","[6,4,8,0]","[4,6,8,2]","","",""
"show-reward","108","676496","0.0-108.0","p736976","A3S3WYVCVWW8IZ","3UUIU9GZC6BQMHTLWW3KSJ0W7IE5TB","37UQDCYH6Z1N9X9NFMNXG5X2EKI7VQ","model","mismatch","uniform","","","","","","","","675804.5","677807.1999999285","","","","","","","","","","","","6","","stimuli/stars_6.png","189","","","","","stimuli/WM11_AO.jpg","",""
"explore-choice","109","677818","0.0-109.0","p736976","A3S3WYVCVWW8IZ","3UUIU9GZC6BQMHTLWW3KSJ0W7IE5TB","37UQDCYH6Z1N9X9NFMNXG5X2EKI7VQ","model","mismatch","uniform","","","","","","","820.2000000476837","677807.8999999762","678628.1000000238","[""stimuli/BF08_AO.jpg"",""stimuli/BM07_FO.jpg"",""stimuli/WM11_HO.jpg"",""stimuli/HF09_DO.jpg""]","stimuli/BF08_AO.jpg","stimuli/BM07_FO.jpg","stimuli/WM11_HO.jpg","stimuli/HF09_DO.jpg","pos2","stimuli/BM07_FO.jpg","FO","BM07","1","4.5","9","8","stimuli/stars_9.png","193.5","[""AO"",""FO"",""HO"",""DO""]","[""BF08"",""BM07"",""WM11"",""HF09""]","[6,9,4,8]","[4,8,2,6]","","",""
"show-reward","110","679832","0.0-110.0","p736976","A3S3WYVCVWW8IZ","3UUIU9GZC6BQMHTLWW3KSJ0W7IE5TB","37UQDCYH6Z1N9X9NFMNXG5X2EKI7VQ","model","mismatch","uniform","","","","","","","","679128.7999999523","681143.1999999285","","","","","","","","","","","","9","","stimuli/stars_9.png","193.5","","","","","stimuli/BM07_FO.jpg","",""
"explore-choice","111","680972","0.0-111.0","p736976","A3S3WYVCVWW8IZ","3UUIU9GZC6BQMHTLWW3KSJ0W7IE5TB","37UQDCYH6Z1N9X9NFMNXG5X2EKI7VQ","model","mismatch","uniform","","","","","","","634.3000000715256","681143.6999999285","681778","[""stimuli/HF09_AO.jpg"",""stimuli/BF08_HO.jpg"",""stimuli/WM11_FO.jpg"",""stimuli/BM07_DO.jpg""]","stimuli/HF09_AO.jpg","stimuli/BF08_HO.jpg","stimuli/WM11_FO.jpg","stimuli/BM07_DO.jpg","pos4","stimuli/BM07_DO.jpg","DO","BM07","3","3","6","6","stimuli/stars_6.png","196.5","[""AO"",""HO"",""FO"",""DO""]","[""HF09"",""BF08"",""WM11"",""BM07""]","[3,1,6,6]","[4,2,8,6]","","",""
"show-reward","112","682974","0.0-112.0","p736976","A3S3WYVCVWW8IZ","3UUIU9GZC6BQMHTLWW3KSJ0W7IE5TB","37UQDCYH6Z1N9X9NFMNXG5X2EKI7VQ","model","mismatch","uniform","","","","","","","","682283.1000000238","684284.5","","","","","","","","","","","","6","","stimuli/stars_6.png","196.5","","","","","stimuli/BM07_DO.jpg","",""
"explore-choice","113","684510","0.0-113.0","p736976","A3S3WYVCVWW8IZ","3UUIU9GZC6BQMHTLWW3KSJ0W7IE5TB","37UQDCYH6Z1N9X9NFMNXG5X2EKI7VQ","model","mismatch","uniform","","","","","","","1035.1000000238419","684285","685320.1000000238","[""stimuli/BF08_DO.jpg"",""stimuli/HF09_AO.jpg"",""stimuli/BM07_HO.jpg"",""stimuli/WM11_FO.jpg""]","stimuli/BF08_DO.jpg","stimuli/HF09_AO.jpg","stimuli/BM07_HO.jpg","stimuli/WM11_FO.jpg","pos4","stimuli/WM11_FO.jpg","FO","WM11","3","3","6","8","stimuli/stars_6.png","199.5","[""DO"",""AO"",""HO"",""FO""]","[""BF08"",""HF09"",""BM07"",""WM11""]","[7,6,2,6]","[6,4,2,8]","","",""
"show-reward","114","686512","0.0-114.0","p736976","A3S3WYVCVWW8IZ","3UUIU9GZC6BQMHTLWW3KSJ0W7IE5TB","37UQDCYH6Z1N9X9NFMNXG5X2EKI7VQ","model","mismatch","uniform","","","","","","","","685821.2999999523","687822.7999999523","","","","","","","","","","","","6","","stimuli/stars_6.png","199.5","","","","","stimuli/WM11_FO.jpg","",""
"explore-choice","115","687922","0.0-115.0","p736976","A3S3WYVCVWW8IZ","3UUIU9GZC6BQMHTLWW3KSJ0W7IE5TB","37UQDCYH6Z1N9X9NFMNXG5X2EKI7VQ","model","mismatch","uniform","","","","","","","909","687823.2999999523","688732.2999999523","[""stimuli/BF08_FO.jpg"",""stimuli/BM07_DO.jpg"",""stimuli/WM11_HO.jpg"",""stimuli/HF09_AO.jpg""]","stimuli/BF08_FO.jpg","stimuli/BM07_DO.jpg","stimuli/WM11_HO.jpg","stimuli/HF09_AO.jpg","pos2","stimuli/BM07_DO.jpg","DO","BM07","1","4","8","6","stimuli/stars_8.png","203.5","[""FO"",""DO"",""HO"",""AO""]","[""BF08"",""BM07"",""WM11"",""HF09""]","[7,8,4,5]","[8,6,2,4]","","",""
"show-reward","116","689924","0.0-116.0","p736976","A3S3WYVCVWW8IZ","3UUIU9GZC6BQMHTLWW3KSJ0W7IE5TB","37UQDCYH6Z1N9X9NFMNXG5X2EKI7VQ","model","mismatch","uniform","","","","","","","","689233.5","691234.7999999523","","","","","","","","","","","","8","","stimuli/stars_8.png","203.5","","","","","stimuli/BM07_DO.jpg","",""
"explore-choice","117","691936","0.0-117.0","p736976","A3S3WYVCVWW8IZ","3UUIU9GZC6BQMHTLWW3KSJ0W7IE5TB","37UQDCYH6Z1N9X9NFMNXG5X2EKI7VQ","model","mismatch","uniform","","","","","","","1510.8999999761581","691235.2999999523","692746.1999999285","[""stimuli/WM11_DO.jpg"",""stimuli/HF09_HO.jpg"",""stimuli/BM07_AO.jpg"",""stimuli/BF08_FO.jpg""]","stimuli/WM11_DO.jpg","stimuli/HF09_HO.jpg","stimuli/BM07_AO.jpg","stimuli/BF08_FO.jpg","pos3","stimuli/BM07_AO.jpg","AO","BM07","2","1","2","4","stimuli/stars_2.png","204.5","[""DO"",""HO"",""AO"",""FO""]","[""WM11"",""HF09"",""BM07"",""BF08""]","[7,3,2,9]","[6,2,4,8]","","",""
"show-reward","118","693937","0.0-118.0","p736976","A3S3WYVCVWW8IZ","3UUIU9GZC6BQMHTLWW3KSJ0W7IE5TB","37UQDCYH6Z1N9X9NFMNXG5X2EKI7VQ","model","mismatch","uniform","","","","","","","","693247","695247.8999999762","","","","","","","","","","","","2","","stimuli/stars_2.png","204.5","","","","","stimuli/BM07_AO.jpg","",""
"explore-choice","119","695485","0.0-119.0","p736976","A3S3WYVCVWW8IZ","3UUIU9GZC6BQMHTLWW3KSJ0W7IE5TB","37UQDCYH6Z1N9X9NFMNXG5X2EKI7VQ","model","mismatch","uniform","","","","","","","1039.7000000476837","695248.3999999762","696288.1000000238","[""stimuli/BM07_FO.jpg"",""stimuli/BF08_DO.jpg"",""stimuli/HF09_AO.jpg"",""stimuli/WM11_HO.jpg""]","stimuli/BM07_FO.jpg","stimuli/BF08_DO.jpg","stimuli/HF09_AO.jpg","stimuli/WM11_HO.jpg","pos1","stimuli/BM07_FO.jpg","FO","BM07","0","4.5","9","8","stimuli/stars_9.png","209","[""FO"",""DO"",""AO"",""HO""]","[""BM07"",""BF08"",""HF09"",""WM11""]","[9,8,3,4]","[8,6,4,2]","","",""
"show-reward","120","697500","0.0-120.0","p736976","A3S3WYVCVWW8IZ","3UUIU9GZC6BQMHTLWW3KSJ0W7IE5TB","37UQDCYH6Z1N9X9NFMNXG5X2EKI7VQ","model","mismatch","uniform","","","","","","","","696796.1000000238","698811.1000000238","","","","","","","","","","","","9","","stimuli/stars_9.png","209","","","","","stimuli/BM07_FO.jpg","",""
"explore-choice","121","699100","0.0-121.0","p736976","A3S3WYVCVWW8IZ","3UUIU9GZC6BQMHTLWW3KSJ0W7IE5TB","37UQDCYH6Z1N9X9NFMNXG5X2EKI7VQ","model","mismatch","uniform","","","","","","","1098.2000000476837","698811.7999999523","699910","[""stimuli/HF09_FO.jpg"",""stimuli/BM07_HO.jpg"",""stimuli/WM11_AO.jpg"",""stimuli/BF08_DO.jpg""]","stimuli/HF09_FO.jpg","stimuli/BM07_HO.jpg","stimuli/WM11_AO.jpg","stimuli/BF08_DO.jpg","pos2","stimuli/BM07_HO.jpg","HO","BM07","1","1","2","2","stimuli/stars_2.png","210","[""FO"",""HO"",""AO"",""DO""]","[""HF09"",""BM07"",""WM11"",""BF08""]","[10,2,2,7]","[8,2,4,6]","","",""
"show-reward","122","701109","0.0-122.0","p736976","A3S3WYVCVWW8IZ","3UUIU9GZC6BQMHTLWW3KSJ0W7IE5TB","37UQDCYH6Z1N9X9NFMNXG5X2EKI7VQ","model","mismatch","uniform","","","","","","","","700411.3999999762","702420.1999999285","","","","","","","","","","","","2","","stimuli/stars_2.png","210","","","","","stimuli/BM07_HO.jpg","",""
"explore-choice","123","703539","0.0-123.0","p736976","A3S3WYVCVWW8IZ","3UUIU9GZC6BQMHTLWW3KSJ0W7IE5TB","37UQDCYH6Z1N9X9NFMNXG5X2EKI7VQ","model","mismatch","uniform","","","","","","","1929.2000000476837","702420.6999999285","704349.8999999762","[""stimuli/HF09_DO.jpg"",""stimuli/WM11_FO.jpg"",""stimuli/BF08_AO.jpg"",""stimuli/BM07_HO.jpg""]","stimuli/HF09_DO.jpg","stimuli/WM11_FO.jpg","stimuli/BF08_AO.jpg","stimuli/BM07_HO.jpg","pos2","stimuli/WM11_FO.jpg","FO","WM11","1","3.5","7","8","stimuli/stars_7.png","213.5","[""DO"",""FO"",""AO"",""HO""]","[""HF09"",""WM11"",""BF08"",""BM07""]","[5,7,5,2]","[6,8,4,2]","","",""
"show-reward","124","705541","0.0-124.0","p736976","A3S3WYVCVWW8IZ","3UUIU9GZC6BQMHTLWW3KSJ0W7IE5TB","37UQDCYH6Z1N9X9NFMNXG5X2EKI7VQ","model","mismatch","uniform","","","","","","","","704850.5","706851.6999999285","","","","","","","","","","","","7","","stimuli/stars_7.png","213.5","","","","","stimuli/WM11_FO.jpg","",""
"explore-choice","125","707650","0.0-125.0","p736976","A3S3WYVCVWW8IZ","3UUIU9GZC6BQMHTLWW3KSJ0W7IE5TB","37UQDCYH6Z1N9X9NFMNXG5X2EKI7VQ","model","mismatch","uniform","","","","","","","1608.0999999046326","706852.1000000238","708460.1999999285","[""stimuli/WM11_AO.jpg"",""stimuli/BM07_FO.jpg"",""stimuli/BF08_HO.jpg"",""stimuli/HF09_DO.jpg""]","stimuli/WM11_AO.jpg","stimuli/BM07_FO.jpg","stimuli/BF08_HO.jpg","stimuli/HF09_DO.jpg","pos2","stimuli/BM07_FO.jpg","FO","BM07","1","3.5","7","8","stimuli/stars_7.png","217","[""AO"",""FO"",""HO"",""DO""]","[""WM11"",""BM07"",""BF08"",""HF09""]","[4,7,3,4]","[4,8,2,6]","","",""
"show-reward","126","709660","0.0-126.0","p736976","A3S3WYVCVWW8IZ","3UUIU9GZC6BQMHTLWW3KSJ0W7IE5TB","37UQDCYH6Z1N9X9NFMNXG5X2EKI7VQ","model","mismatch","uniform","","","","","","","","708961.2999999523","710970.3999999762","","","","","","","","","","","","7","","stimuli/stars_7.png","217","","","","","stimuli/BM07_FO.jpg","",""
"explore-choice","127","712280","0.0-127.0","p736976","A3S3WYVCVWW8IZ","3UUIU9GZC6BQMHTLWW3KSJ0W7IE5TB","37UQDCYH6Z1N9X9NFMNXG5X2EKI7VQ","model","mismatch","uniform","","","","","","","2119.100000023842","710970.8999999762","713090","[""stimuli/HF09_HO.jpg"",""stimuli/WM11_AO.jpg"",""stimuli/BF08_DO.jpg"",""stimuli/BM07_FO.jpg""]","stimuli/HF09_HO.jpg","stimuli/WM11_AO.jpg","stimuli/BF08_DO.jpg","stimuli/BM07_FO.jpg","pos4","stimuli/BM07_FO.jpg","FO","BM07","3","3","6","8","stimuli/stars_6.png","220","[""HO"",""AO"",""DO"",""FO""]","[""HF09"",""WM11"",""BF08"",""BM07""]","[3,3,6,6]","[2,4,6,8]","","",""
"show-reward","128","714285","0.0-128.0","p736976","A3S3WYVCVWW8IZ","3UUIU9GZC6BQMHTLWW3KSJ0W7IE5TB","37UQDCYH6Z1N9X9NFMNXG5X2EKI7VQ","model","mismatch","uniform","","","","","","","","713591.1999999285","715595.2999999523","","","","","","","","","","","","6","","stimuli/stars_6.png","220","","","","","stimuli/BM07_FO.jpg","",""
"explore-choice","129","716145","0.0-129.0","p736976","A3S3WYVCVWW8IZ","3UUIU9GZC6BQMHTLWW3KSJ0W7IE5TB","37UQDCYH6Z1N9X9NFMNXG5X2EKI7VQ","model","mismatch","uniform","","","","","","","1356.5","715595.7999999523","716952.2999999523","[""stimuli/BF08_AO.jpg"",""stimuli/BM07_HO.jpg"",""stimuli/HF09_FO.jpg"",""stimuli/WM11_DO.jpg""]","stimuli/BF08_AO.jpg","stimuli/BM07_HO.jpg","stimuli/HF09_FO.jpg","stimuli/WM11_DO.jpg","pos4","stimuli/WM11_DO.jpg","DO","WM11","3","2.5","5","6","stimuli/stars_5.png","222.5","[""AO"",""HO"",""FO"",""DO""]","[""BF08"",""BM07"",""HF09"",""WM11""]","[5,3,9,5]","[4,2,8,6]","","",""
"show-reward","130","718157","0.0-130.0","p736976","A3S3WYVCVWW8IZ","3UUIU9GZC6BQMHTLWW3KSJ0W7IE5TB","37UQDCYH6Z1N9X9NFMNXG5X2EKI7VQ","model","mismatch","uniform","","","","","","","","717455.8999999762","719467.5","","","","","","","","","","","","5","","stimuli/stars_5.png","222.5","","","","","stimuli/WM11_DO.jpg","",""
"explore-choice","131","720765","0.0-131.0","p736976","A3S3WYVCVWW8IZ","3UUIU9GZC6BQMHTLWW3KSJ0W7IE5TB","37UQDCYH6Z1N9X9NFMNXG5X2EKI7VQ","model","mismatch","uniform","","","","","","","2108.1999999284744","719468","721576.1999999285","[""stimuli/BF08_AO.jpg"",""stimuli/HF09_HO.jpg"",""stimuli/WM11_DO.jpg"",""stimuli/BM07_FO.jpg""]","stimuli/BF08_AO.jpg","stimuli/HF09_HO.jpg","stimuli/WM11_DO.jpg","stimuli/BM07_FO.jpg","pos4","stimuli/BM07_FO.jpg","FO","BM07","3","3.5","7","8","stimuli/stars_7.png","226","[""AO"",""HO"",""DO"",""FO""]","[""BF08"",""HF09"",""WM11"",""BM07""]","[3,4,5,7]","[4,2,6,8]","","",""
"show-reward","132","722767","0.0-132.0","p736976","A3S3WYVCVWW8IZ","3UUIU9GZC6BQMHTLWW3KSJ0W7IE5TB","37UQDCYH6Z1N9X9NFMNXG5X2EKI7VQ","model","mismatch","uniform","","","","","","","","722076.6000000238","724077.7999999523","","","","","","","","","","","","7","","stimuli/stars_7.png","226","","","","","stimuli/BM07_FO.jpg","",""
"explore-choice","133","724732","0.0-133.0","p736976","A3S3WYVCVWW8IZ","3UUIU9GZC6BQMHTLWW3KSJ0W7IE5TB","37UQDCYH6Z1N9X9NFMNXG5X2EKI7VQ","model","mismatch","uniform","","","","","","","1463.8000000715256","724078.2999999523","725542.1000000238","[""stimuli/BM07_DO.jpg"",""stimuli/HF09_FO.jpg"",""stimuli/BF08_AO.jpg"",""stimuli/WM11_HO.jpg""]","stimuli/BM07_DO.jpg","stimuli/HF09_FO.jpg","stimuli/BF08_AO.jpg","stimuli/WM11_HO.jpg","pos1","stimuli/BM07_DO.jpg","DO","BM07","0","3.5","7","6","stimuli/stars_7.png","229.5","[""DO"",""FO"",""AO"",""HO""]","[""BM07"",""HF09"",""BF08"",""WM11""]","[7,8,6,2]","[6,8,4,2]","","",""
"show-reward","134","726749","0.0-134.0","p736976","A3S3WYVCVWW8IZ","3UUIU9GZC6BQMHTLWW3KSJ0W7IE5TB","37UQDCYH6Z1N9X9NFMNXG5X2EKI7VQ","model","mismatch","uniform","","","","","","","","726043.1000000238","728059.3999999762","","","","","","","","","","","","7","","stimuli/stars_7.png","229.5","","","","","stimuli/BM07_DO.jpg","",""
"explore-choice","135","728210","0.0-135.0","p736976","A3S3WYVCVWW8IZ","3UUIU9GZC6BQMHTLWW3KSJ0W7IE5TB","37UQDCYH6Z1N9X9NFMNXG5X2EKI7VQ","model","mismatch","uniform","","","","","","","960.3999999761581","728059.7999999523","729020.1999999285","[""stimuli/HF09_HO.jpg"",""stimuli/BM07_DO.jpg"",""stimuli/WM11_FO.jpg"",""stimuli/BF08_AO.jpg""]","stimuli/HF09_HO.jpg","stimuli/BM07_DO.jpg","stimuli/WM11_FO.jpg","stimuli/BF08_AO.jpg","pos2","stimuli/BM07_DO.jpg","DO","BM07","1","2.5","5","6","stimuli/stars_5.png","232","[""HO"",""DO"",""FO"",""AO""]","[""HF09"",""BM07"",""WM11"",""BF08""]","[0,5,6,3]","[2,6,8,4]","","",""
"show-reward","136","730212","0.0-136.0","p736976","A3S3WYVCVWW8IZ","3UUIU9GZC6BQMHTLWW3KSJ0W7IE5TB","37UQDCYH6Z1N9X9NFMNXG5X2EKI7VQ","model","mismatch","uniform","","","","","","","","729521","731523","","","","","","","","","","","","5","","stimuli/stars_5.png","232","","","","","stimuli/BM07_DO.jpg","",""
"explore-choice","137","731808","0.0-137.0","p736976","A3S3WYVCVWW8IZ","3UUIU9GZC6BQMHTLWW3KSJ0W7IE5TB","37UQDCYH6Z1N9X9NFMNXG5X2EKI7VQ","model","mismatch","uniform","","","","","","","1094.7000000476837","731523.3999999762","732618.1000000238","[""stimuli/BF08_HO.jpg"",""stimuli/WM11_DO.jpg"",""stimuli/BM07_AO.jpg"",""stimuli/HF09_FO.jpg""]","stimuli/BF08_HO.jpg","stimuli/WM11_DO.jpg","stimuli/BM07_AO.jpg","stimuli/HF09_FO.jpg","pos3","stimuli/BM07_AO.jpg","AO","BM07","2","2","4","4","stimuli/stars_4.png","234","[""HO"",""DO"",""AO"",""FO""]","[""BF08"",""WM11"",""BM07"",""HF09""]","[2,8,4,8]","[2,6,4,8]","","",""
"show-reward","138","733818","0.0-138.0","p736976","A3S3WYVCVWW8IZ","3UUIU9GZC6BQMHTLWW3KSJ0W7IE5TB","37UQDCYH6Z1N9X9NFMNXG5X2EKI7VQ","model","mismatch","uniform","","","","","","","","733119.3999999762","735128.8999999762","","","","","","","","","","","","4","","stimuli/stars_4.png","234","","","","","stimuli/BM07_AO.jpg","",""
"explore-choice","139","735031","0.0-139.0","p736976","A3S3WYVCVWW8IZ","3UUIU9GZC6BQMHTLWW3KSJ0W7IE5TB","37UQDCYH6Z1N9X9NFMNXG5X2EKI7VQ","model","mismatch","uniform","","","","","","","700.7000000476837","735129.3999999762","735830.1000000238","[""stimuli/BF08_HO.jpg"",""stimuli/HF09_DO.jpg"",""stimuli/BM07_AO.jpg"",""stimuli/WM11_FO.jpg""]","stimuli/BF08_HO.jpg","stimuli/HF09_DO.jpg","stimuli/BM07_AO.jpg","stimuli/WM11_FO.jpg","pos3","stimuli/BM07_AO.jpg","AO","BM07","2","2.5","5","4","stimuli/stars_5.png","236.5","[""HO"",""DO"",""AO"",""FO""]","[""BF08"",""HF09"",""BM07"",""WM11""]","[3,5,5,8]","[2,6,4,8]","","",""
"show-reward","140","737504","0.0-140.0","p736976","A3S3WYVCVWW8IZ","3UUIU9GZC6BQMHTLWW3KSJ0W7IE5TB","37UQDCYH6Z1N9X9NFMNXG5X2EKI7VQ","model","mismatch","uniform","","","","","","","","736342.2999999523","738815.1999999285","","","","","","","","","","","","5","","stimuli/stars_5.png","236.5","","","","","stimuli/BM07_AO.jpg","",""
"explore-choice","141","740488","0.0-141.0","p736976","A3S3WYVCVWW8IZ","3UUIU9GZC6BQMHTLWW3KSJ0W7IE5TB","37UQDCYH6Z1N9X9NFMNXG5X2EKI7VQ","model","mismatch","uniform","","","","","","","2478.2000000476837","738815.7999999523","741294","[""stimuli/HF09_FO.jpg"",""stimuli/WM11_HO.jpg"",""stimuli/BF08_DO.jpg"",""stimuli/BM07_AO.jpg""]","stimuli/HF09_FO.jpg","stimuli/WM11_HO.jpg","stimuli/BF08_DO.jpg","stimuli/BM07_AO.jpg","pos4","stimuli/BM07_AO.jpg","AO","BM07","3","3","6","4","stimuli/stars_6.png","239.5","[""FO"",""HO"",""DO"",""AO""]","[""HF09"",""WM11"",""BF08"",""BM07""]","[10,2,7,6]","[8,2,6,4]","","",""
"show-reward","142","742495","0.0-142.0","p736976","A3S3WYVCVWW8IZ","3UUIU9GZC6BQMHTLWW3KSJ0W7IE5TB","37UQDCYH6Z1N9X9NFMNXG5X2EKI7VQ","model","mismatch","uniform","","","","","","","","741799.5","743806.1000000238","","","","","","","","","","","","6","","stimuli/stars_6.png","239.5","","","","","stimuli/BM07_AO.jpg","",""
"explore-choice","143","744630","0.0-143.0","p736976","A3S3WYVCVWW8IZ","3UUIU9GZC6BQMHTLWW3KSJ0W7IE5TB","37UQDCYH6Z1N9X9NFMNXG5X2EKI7VQ","model","mismatch","uniform","","","","","","","1629.8999999761581","743806.5","745436.3999999762","[""stimuli/HF09_AO.jpg"",""stimuli/BF08_FO.jpg"",""stimuli/WM11_DO.jpg"",""stimuli/BM07_HO.jpg""]","stimuli/HF09_AO.jpg","stimuli/BF08_FO.jpg","stimuli/WM11_DO.jpg","stimuli/BM07_HO.jpg","pos3","stimuli/WM11_DO.jpg","DO","WM11","2","4","8","6","stimuli/stars_8.png","243.5","[""AO"",""FO"",""DO"",""HO""]","[""HF09"",""BF08"",""WM11"",""BM07""]","[3,7,8,2]","[4,8,6,2]","","",""
"show-reward","144","746632","0.0-144.0","p736976","A3S3WYVCVWW8IZ","3UUIU9GZC6BQMHTLWW3KSJ0W7IE5TB","37UQDCYH6Z1N9X9NFMNXG5X2EKI7VQ","model","mismatch","uniform","","","","","","","","745941.3999999762","747942.8999999762","","","","","","","","","","","","8","","stimuli/stars_8.png","243.5","","","","","stimuli/WM11_DO.jpg","",""
"explore-choice","145","748465","0.0-145.0","p736976","A3S3WYVCVWW8IZ","3UUIU9GZC6BQMHTLWW3KSJ0W7IE5TB","37UQDCYH6Z1N9X9NFMNXG5X2EKI7VQ","model","mismatch","uniform","","","","","","","1328.5","747943.6999999285","749272.1999999285","[""stimuli/WM11_HO.jpg"",""stimuli/BM07_AO.jpg"",""stimuli/HF09_DO.jpg"",""stimuli/BF08_FO.jpg""]","stimuli/WM11_HO.jpg","stimuli/BM07_AO.jpg","stimuli/HF09_DO.jpg","stimuli/BF08_FO.jpg","pos2","stimuli/BM07_AO.jpg","AO","BM07","1","2.5","5","4","stimuli/stars_5.png","246","[""HO"",""AO"",""DO"",""FO""]","[""WM11"",""BM07"",""HF09"",""BF08""]","[2,5,8,8]","[2,4,6,8]","","",""
"show-reward","146","750467","0.0-146.0","p736976","A3S3WYVCVWW8IZ","3UUIU9GZC6BQMHTLWW3KSJ0W7IE5TB","37UQDCYH6Z1N9X9NFMNXG5X2EKI7VQ","model","mismatch","uniform","","","","","","","","749775.7999999523","751777.2999999523","","","","","","","","","","","","5","","stimuli/stars_5.png","246","","","","","stimuli/BM07_AO.jpg","",""
"explore-choice","147","752241","0.0-147.0","p736976","A3S3WYVCVWW8IZ","3UUIU9GZC6BQMHTLWW3KSJ0W7IE5TB","37UQDCYH6Z1N9X9NFMNXG5X2EKI7VQ","model","mismatch","uniform","","","","","","","1262.3000000715256","751777.7999999523","753040.1000000238","[""stimuli/WM11_AO.jpg"",""stimuli/HF09_HO.jpg"",""stimuli/BM07_DO.jpg"",""stimuli/BF08_FO.jpg""]","stimuli/WM11_AO.jpg","stimuli/HF09_HO.jpg","stimuli/BM07_DO.jpg","stimuli/BF08_FO.jpg","pos3","stimuli/BM07_DO.jpg","DO","BM07","2","4","8","6","stimuli/stars_8.png","250","[""AO"",""HO"",""DO"",""FO""]","[""WM11"",""HF09"",""BM07"",""BF08""]","[3,1,8,10]","[4,2,6,8]","","",""
"show-reward","148","754247","0.0-148.0","p736976","A3S3WYVCVWW8IZ","3UUIU9GZC6BQMHTLWW3KSJ0W7IE5TB","37UQDCYH6Z1N9X9NFMNXG5X2EKI7VQ","model","mismatch","uniform","","","","","","","","753551.8999999762","755557.7999999523","","","","","","","","","","","","8","","stimuli/stars_8.png","250","","","","","stimuli/BM07_DO.jpg","",""
"explore-choice","149","756186","0.0-149.0","p736976","A3S3WYVCVWW8IZ","3UUIU9GZC6BQMHTLWW3KSJ0W7IE5TB","37UQDCYH6Z1N9X9NFMNXG5X2EKI7VQ","model","mismatch","uniform","","","","","","","1423.8999999761581","755558.2999999523","756982.1999999285","[""stimuli/WM11_DO.jpg"",""stimuli/BM07_FO.jpg"",""stimuli/BF08_HO.jpg"",""stimuli/HF09_AO.jpg""]","stimuli/WM11_DO.jpg","stimuli/BM07_FO.jpg","stimuli/BF08_HO.jpg","stimuli/HF09_AO.jpg","pos2","stimuli/BM07_FO.jpg","FO","BM07","1","3","6","8","stimuli/stars_6.png","253","[""DO"",""FO"",""HO"",""AO""]","[""WM11"",""BM07"",""BF08"",""HF09""]","[6,6,3,3]","[6,8,2,4]","","",""
"show-reward","150","758202","0.0-150.0","p736976","A3S3WYVCVWW8IZ","3UUIU9GZC6BQMHTLWW3KSJ0W7IE5TB","37UQDCYH6Z1N9X9NFMNXG5X2EKI7VQ","model","mismatch","uniform","","","","","","","","757497.6000000238","759512.6000000238","","","","","","","","","","","","6","","stimuli/stars_6.png","253","","","","","stimuli/BM07_FO.jpg","",""
"explore-choice","151","761244","0.0-151.0","p736976","A3S3WYVCVWW8IZ","3UUIU9GZC6BQMHTLWW3KSJ0W7IE5TB","37UQDCYH6Z1N9X9NFMNXG5X2EKI7VQ","model","mismatch","uniform","","","","","","","2541","759513.1000000238","762054.1000000238","[""stimuli/WM11_HO.jpg"",""stimuli/BF08_AO.jpg"",""stimuli/HF09_FO.jpg"",""stimuli/BM07_DO.jpg""]","stimuli/WM11_HO.jpg","stimuli/BF08_AO.jpg","stimuli/HF09_FO.jpg","stimuli/BM07_DO.jpg","pos4","stimuli/BM07_DO.jpg","DO","BM07","3","3.5","7","6","stimuli/stars_7.png","256.5","[""HO"",""AO"",""FO"",""DO""]","[""WM11"",""BF08"",""HF09"",""BM07""]","[2,6,8,7]","[2,4,8,6]","","",""
"show-reward","152","763246","0.0-152.0","p736976","A3S3WYVCVWW8IZ","3UUIU9GZC6BQMHTLWW3KSJ0W7IE5TB","37UQDCYH6Z1N9X9NFMNXG5X2EKI7VQ","model","mismatch","uniform","","","","","","","","762555.1000000238","764556.8999999762","","","","","","","","","","","","7","","stimuli/stars_7.png","256.5","","","","","stimuli/BM07_DO.jpg","",""
"explore-choice","153","764722","0.0-153.0","p736976","A3S3WYVCVWW8IZ","3UUIU9GZC6BQMHTLWW3KSJ0W7IE5TB","37UQDCYH6Z1N9X9NFMNXG5X2EKI7VQ","model","mismatch","uniform","","","","","","","974.8999999761581","764557.2999999523","765532.1999999285","[""stimuli/HF09_DO.jpg"",""stimuli/BM07_FO.jpg"",""stimuli/WM11_HO.jpg"",""stimuli/BF08_AO.jpg""]","stimuli/HF09_DO.jpg","stimuli/BM07_FO.jpg","stimuli/WM11_HO.jpg","stimuli/BF08_AO.jpg","pos2","stimuli/BM07_FO.jpg","FO","BM07","1","4.5","9","8","stimuli/stars_9.png","261","[""DO"",""FO"",""HO"",""AO""]","[""HF09"",""BM07"",""WM11"",""BF08""]","[8,9,4,6]","[6,8,2,4]","","",""
"show-reward","154","766723","0.0-154.0","p736976","A3S3WYVCVWW8IZ","3UUIU9GZC6BQMHTLWW3KSJ0W7IE5TB","37UQDCYH6Z1N9X9NFMNXG5X2EKI7VQ","model","mismatch","uniform","","","","","","","","766033","768034.1000000238","","","","","","","","","","","","9","","stimuli/stars_9.png","261","","","","","stimuli/BM07_FO.jpg","",""
"explore-choice","155","770046","0.0-155.0","p736976","A3S3WYVCVWW8IZ","3UUIU9GZC6BQMHTLWW3KSJ0W7IE5TB","37UQDCYH6Z1N9X9NFMNXG5X2EKI7VQ","model","mismatch","uniform","","","","","","","2809.5","768034.6000000238","770844.1000000238","[""stimuli/BM07_FO.jpg"",""stimuli/BF08_DO.jpg"",""stimuli/WM11_AO.jpg"",""stimuli/HF09_HO.jpg""]","stimuli/BM07_FO.jpg","stimuli/BF08_DO.jpg","stimuli/WM11_AO.jpg","stimuli/HF09_HO.jpg","pos1","stimuli/BM07_FO.jpg","FO","BM07","0","3","6","8","stimuli/stars_6.png","264","[""FO"",""DO"",""AO"",""HO""]","[""BM07"",""BF08"",""WM11"",""HF09""]","[6,6,3,3]","[8,6,4,2]","","",""
"show-reward","156","772048","0.0-156.0","p736976","A3S3WYVCVWW8IZ","3UUIU9GZC6BQMHTLWW3KSJ0W7IE5TB","37UQDCYH6Z1N9X9NFMNXG5X2EKI7VQ","model","mismatch","uniform","","","","","","","","771356.8999999762","773358.6000000238","","","","","","","","","","","","6","","stimuli/stars_6.png","264","","","","","stimuli/BM07_FO.jpg","",""
"explore-choice","157","774488","0.0-157.0","p736976","A3S3WYVCVWW8IZ","3UUIU9GZC6BQMHTLWW3KSJ0W7IE5TB","37UQDCYH6Z1N9X9NFMNXG5X2EKI7VQ","model","mismatch","uniform","","","","","","","1931","773359","775290","[""stimuli/WM11_FO.jpg"",""stimuli/HF09_AO.jpg"",""stimuli/BM07_HO.jpg"",""stimuli/BF08_DO.jpg""]","stimuli/WM11_FO.jpg","stimuli/HF09_AO.jpg","stimuli/BM07_HO.jpg","stimuli/BF08_DO.jpg","pos1","stimuli/WM11_FO.jpg","FO","WM11","0","3","6","8","stimuli/stars_6.png","267","[""FO"",""AO"",""HO"",""DO""]","[""WM11"",""HF09"",""BM07"",""BF08""]","[6,6,2,7]","[8,4,2,6]","","",""
"show-reward","158","776489","0.0-158.0","p736976","A3S3WYVCVWW8IZ","3UUIU9GZC6BQMHTLWW3KSJ0W7IE5TB","37UQDCYH6Z1N9X9NFMNXG5X2EKI7VQ","model","mismatch","uniform","","","","","","","","775798.8999999762","777800.2999999523","","","","","","","","","","","","6","","stimuli/stars_6.png","267","","","","","stimuli/WM11_FO.jpg","",""
"explore-choice","159","780131","0.0-159.0","p736976","A3S3WYVCVWW8IZ","3UUIU9GZC6BQMHTLWW3KSJ0W7IE5TB","37UQDCYH6Z1N9X9NFMNXG5X2EKI7VQ","model","mismatch","uniform","","","","","","","3137.4000000953674","777800.6999999285","780938.1000000238","[""stimuli/BM07_HO.jpg"",""stimuli/BF08_DO.jpg"",""stimuli/HF09_FO.jpg"",""stimuli/WM11_AO.jpg""]","stimuli/BM07_HO.jpg","stimuli/BF08_DO.jpg","stimuli/HF09_FO.jpg","stimuli/WM11_AO.jpg","pos4","stimuli/WM11_AO.jpg","AO","WM11","3","1","2","4","stimuli/stars_2.png","268","[""HO"",""DO"",""FO"",""AO""]","[""BM07"",""BF08"",""HF09"",""WM11""]","[2,7,10,2]","[2,6,8,4]","","",""
"show-reward","160","782134","0.0-160.0","p736976","A3S3WYVCVWW8IZ","3UUIU9GZC6BQMHTLWW3KSJ0W7IE5TB","37UQDCYH6Z1N9X9NFMNXG5X2EKI7VQ","model","mismatch","uniform","","","","","","","","781442.6000000238","783444.8999999762","","","","","","","","","","","","2","","stimuli/stars_2.png","268","","","","","stimuli/WM11_AO.jpg","",""
"explore-choice","161","783925","0.0-161.0","p736976","A3S3WYVCVWW8IZ","3UUIU9GZC6BQMHTLWW3KSJ0W7IE5TB","37UQDCYH6Z1N9X9NFMNXG5X2EKI7VQ","model","mismatch","uniform","","","","","","","1274.8999999761581","783445.3999999762","784720.2999999523","[""stimuli/BF08_AO.jpg"",""stimuli/BM07_DO.jpg"",""stimuli/HF09_HO.jpg"",""stimuli/WM11_FO.jpg""]","stimuli/BF08_AO.jpg","stimuli/BM07_DO.jpg","stimuli/HF09_HO.jpg","stimuli/WM11_FO.jpg","pos2","stimuli/BM07_DO.jpg","DO","BM07","1","2.5","5","6","stimuli/stars_5.png","270.5","[""AO"",""DO"",""HO"",""FO""]","[""BF08"",""BM07"",""HF09"",""WM11""]","[3,5,0,6]","[4,6,2,8]","","",""
"show-reward","162","785940","0.0-162.0","p736976","A3S3WYVCVWW8IZ","3UUIU9GZC6BQMHTLWW3KSJ0W7IE5TB","37UQDCYH6Z1N9X9NFMNXG5X2EKI7VQ","model","mismatch","uniform","","","","","","","","785236.1999999285","787250.8999999762","","","","","","","","","","","","5","","stimuli/stars_5.png","270.5","","","","","stimuli/BM07_DO.jpg","",""
"explore-choice","163","787220","0.0-163.0","p736976","A3S3WYVCVWW8IZ","3UUIU9GZC6BQMHTLWW3KSJ0W7IE5TB","37UQDCYH6Z1N9X9NFMNXG5X2EKI7VQ","model","mismatch","uniform","","","","","","","778.7999999523163","787251.5","788030.2999999523","[""stimuli/WM11_FO.jpg"",""stimuli/BF08_HO.jpg"",""stimuli/BM07_AO.jpg"",""stimuli/HF09_DO.jpg""]","stimuli/WM11_FO.jpg","stimuli/BF08_HO.jpg","stimuli/BM07_AO.jpg","stimuli/HF09_DO.jpg","pos3","stimuli/BM07_AO.jpg","AO","BM07","2","2.5","5","4","stimuli/stars_5.png","273","[""FO"",""HO"",""AO"",""DO""]","[""WM11"",""BF08"",""BM07"",""HF09""]","[8,3,5,5]","[8,2,4,6]","","",""
"show-reward","164","789231","0.0-164.0","p736976","A3S3WYVCVWW8IZ","3UUIU9GZC6BQMHTLWW3KSJ0W7IE5TB","37UQDCYH6Z1N9X9NFMNXG5X2EKI7VQ","model","mismatch","uniform","","","","","","","","788530.8999999762","790541.6000000238","","","","","","","","","","","","5","","stimuli/stars_5.png","273","","","","","stimuli/BM07_AO.jpg","",""
"explore-choice","165","791370","0.0-165.0","p736976","A3S3WYVCVWW8IZ","3UUIU9GZC6BQMHTLWW3KSJ0W7IE5TB","37UQDCYH6Z1N9X9NFMNXG5X2EKI7VQ","model","mismatch","uniform","","","","","","","1637.9000000953674","790542.1999999285","792180.1000000238","[""stimuli/BF08_HO.jpg"",""stimuli/HF09_FO.jpg"",""stimuli/BM07_AO.jpg"",""stimuli/WM11_DO.jpg""]","stimuli/BF08_HO.jpg","stimuli/HF09_FO.jpg","stimuli/BM07_AO.jpg","stimuli/WM11_DO.jpg","pos3","stimuli/BM07_AO.jpg","AO","BM07","2","2","4","4","stimuli/stars_4.png","275","[""HO"",""FO"",""AO"",""DO""]","[""BF08"",""HF09"",""BM07"",""WM11""]","[2,8,4,8]","[2,8,4,6]","","",""
"show-reward","166","793387","0.0-166.0","p736976","A3S3WYVCVWW8IZ","3UUIU9GZC6BQMHTLWW3KSJ0W7IE5TB","37UQDCYH6Z1N9X9NFMNXG5X2EKI7VQ","model","mismatch","uniform","","","","","","","","792681.3999999762","794697.5","","","","","","","","","","","","4","","stimuli/stars_4.png","275","","","","","stimuli/BM07_AO.jpg","",""
"explore-choice","167","794958","0.0-167.0","p736976","A3S3WYVCVWW8IZ","3UUIU9GZC6BQMHTLWW3KSJ0W7IE5TB","37UQDCYH6Z1N9X9NFMNXG5X2EKI7VQ","model","mismatch","uniform","","","","","","","1070.1000000238419","794698","795768.1000000238","[""stimuli/BF08_FO.jpg"",""stimuli/WM11_AO.jpg"",""stimuli/BM07_DO.jpg"",""stimuli/HF09_HO.jpg""]","stimuli/BF08_FO.jpg","stimuli/WM11_AO.jpg","stimuli/BM07_DO.jpg","stimuli/HF09_HO.jpg","pos3","stimuli/BM07_DO.jpg","DO","BM07","2","4","8","6","stimuli/stars_8.png","279","[""FO"",""AO"",""DO"",""HO""]","[""BF08"",""WM11"",""BM07"",""HF09""]","[10,3,8,1]","[8,4,6,2]","","",""
"show-reward","168","796963","0.0-168.0","p736976","A3S3WYVCVWW8IZ","3UUIU9GZC6BQMHTLWW3KSJ0W7IE5TB","37UQDCYH6Z1N9X9NFMNXG5X2EKI7VQ","model","mismatch","uniform","","","","","","","","796269","798273.7999999523","","","","","","","","","","","","8","","stimuli/stars_8.png","279","","","","","stimuli/BM07_DO.jpg","",""
"explore-choice","169","798779","0.0-169.0","p736976","A3S3WYVCVWW8IZ","3UUIU9GZC6BQMHTLWW3KSJ0W7IE5TB","37UQDCYH6Z1N9X9NFMNXG5X2EKI7VQ","model","mismatch","uniform","","","","","","","1311.8000000715256","798274.2999999523","799586.1000000238","[""stimuli/BM07_AO.jpg"",""stimuli/WM11_HO.jpg"",""stimuli/BF08_DO.jpg"",""stimuli/HF09_FO.jpg""]","stimuli/BM07_AO.jpg","stimuli/WM11_HO.jpg","stimuli/BF08_DO.jpg","stimuli/HF09_FO.jpg","pos1","stimuli/BM07_AO.jpg","AO","BM07","0","3","6","4","stimuli/stars_6.png","282","[""AO"",""HO"",""DO"",""FO""]","[""BM07"",""WM11"",""BF08"",""HF09""]","[6,2,7,10]","[4,2,6,8]","","",""
"show-reward","170","800796","0.0-170.0","p736976","A3S3WYVCVWW8IZ","3UUIU9GZC6BQMHTLWW3KSJ0W7IE5TB","37UQDCYH6Z1N9X9NFMNXG5X2EKI7VQ","model","mismatch","uniform","","","","","","","","800090.5","802107.1999999285","","","","","","","","","","","","6","","stimuli/stars_6.png","282","","","","","stimuli/BM07_AO.jpg","",""
"explore-choice","171","802536","0.0-171.0","p736976","A3S3WYVCVWW8IZ","3UUIU9GZC6BQMHTLWW3KSJ0W7IE5TB","37UQDCYH6Z1N9X9NFMNXG5X2EKI7VQ","model","mismatch","uniform","","","","","","","1238.5","802107.6999999285","803346.1999999285","[""stimuli/HF09_DO.jpg"",""stimuli/BF08_HO.jpg"",""stimuli/BM07_FO.jpg"",""stimuli/WM11_AO.jpg""]","stimuli/HF09_DO.jpg","stimuli/BF08_HO.jpg","stimuli/BM07_FO.jpg","stimuli/WM11_AO.jpg","pos3","stimuli/BM07_FO.jpg","FO","BM07","2","3.5","7","8","stimuli/stars_7.png","285.5","[""DO"",""HO"",""FO"",""AO""]","[""HF09"",""BF08"",""BM07"",""WM11""]","[4,3,7,4]","[6,2,8,4]","","",""
"show-reward","172","804538","0.0-172.0","p736976","A3S3WYVCVWW8IZ","3UUIU9GZC6BQMHTLWW3KSJ0W7IE5TB","37UQDCYH6Z1N9X9NFMNXG5X2EKI7VQ","model","mismatch","uniform","","","","","","","","803847.6000000238","805849.1999999285","","","","","","","","","","","","7","","stimuli/stars_7.png","285.5","","","","","stimuli/BM07_FO.jpg","",""
"explore-choice","173","806008","0.0-173.0","p736976","A3S3WYVCVWW8IZ","3UUIU9GZC6BQMHTLWW3KSJ0W7IE5TB","37UQDCYH6Z1N9X9NFMNXG5X2EKI7VQ","model","mismatch","uniform","","","","","","","964.5","805849.6000000238","806814.1000000238","[""stimuli/BF08_FO.jpg"",""stimuli/WM11_AO.jpg"",""stimuli/BM07_HO.jpg"",""stimuli/HF09_DO.jpg""]","stimuli/BF08_FO.jpg","stimuli/WM11_AO.jpg","stimuli/BM07_HO.jpg","stimuli/HF09_DO.jpg","pos2","stimuli/WM11_AO.jpg","AO","WM11","1","3","6","4","stimuli/stars_6.png","288.5","[""FO"",""AO"",""HO"",""DO""]","[""BF08"",""WM11"",""BM07"",""HF09""]","[8,6,0,4]","[8,4,2,6]","","",""
"show-reward","174","808010","0.0-174.0","p736976","A3S3WYVCVWW8IZ","3UUIU9GZC6BQMHTLWW3KSJ0W7IE5TB","37UQDCYH6Z1N9X9NFMNXG5X2EKI7VQ","model","mismatch","uniform","","","","","","","","807319.6999999285","809321.2999999523","","","","","","","","","","","","6","","stimuli/stars_6.png","288.5","","","","","stimuli/WM11_AO.jpg","",""
"explore-choice","175","809662","0.0-175.0","p736976","A3S3WYVCVWW8IZ","3UUIU9GZC6BQMHTLWW3KSJ0W7IE5TB","37UQDCYH6Z1N9X9NFMNXG5X2EKI7VQ","model","mismatch","uniform","","","","","","","1144.5","809321.6999999285","810466.1999999285","[""stimuli/WM11_DO.jpg"",""stimuli/BM07_HO.jpg"",""stimuli/BF08_AO.jpg"",""stimuli/HF09_FO.jpg""]","stimuli/WM11_DO.jpg","stimuli/BM07_HO.jpg","stimuli/BF08_AO.jpg","stimuli/HF09_FO.jpg","pos1","stimuli/WM11_DO.jpg","DO","WM11","0","2.5","5","6","stimuli/stars_5.png","291","[""DO"",""HO"",""AO"",""FO""]","[""WM11"",""BM07"",""BF08"",""HF09""]","[5,3,5,9]","[6,2,4,8]","","",""
"show-reward","176","811677","0.0-176.0","p736976","A3S3WYVCVWW8IZ","3UUIU9GZC6BQMHTLWW3KSJ0W7IE5TB","37UQDCYH6Z1N9X9NFMNXG5X2EKI7VQ","model","mismatch","uniform","","","","","","","","810973.6000000238","812987.6000000238","","","","","","","","","","","","5","","stimuli/stars_5.png","291","","","","","stimuli/WM11_DO.jpg","",""
"explore-choice","177","813600","0.0-177.0","p736976","A3S3WYVCVWW8IZ","3UUIU9GZC6BQMHTLWW3KSJ0W7IE5TB","37UQDCYH6Z1N9X9NFMNXG5X2EKI7VQ","model","mismatch","uniform","","","","","","","1422.1999999284744","812988.1000000238","814410.2999999523","[""stimuli/BM07_DO.jpg"",""stimuli/WM11_AO.jpg"",""stimuli/HF09_FO.jpg"",""stimuli/BF08_HO.jpg""]","stimuli/BM07_DO.jpg","stimuli/WM11_AO.jpg","stimuli/HF09_FO.jpg","stimuli/BF08_HO.jpg","pos1","stimuli/BM07_DO.jpg","DO","BM07","0","4","8","6","stimuli/stars_8.png","295","[""DO"",""AO"",""FO"",""HO""]","[""BM07"",""WM11"",""HF09"",""BF08""]","[8,5,7,0]","[6,4,8,2]","","",""
"show-reward","178","815601","0.0-178.0","p736976","A3S3WYVCVWW8IZ","3UUIU9GZC6BQMHTLWW3KSJ0W7IE5TB","37UQDCYH6Z1N9X9NFMNXG5X2EKI7VQ","model","mismatch","uniform","","","","","","","","814911","816912","","","","","","","","","","","","8","","stimuli/stars_8.png","295","","","","","stimuli/BM07_DO.jpg","",""
"explore-choice","179","817255","0.0-179.0","p736976","A3S3WYVCVWW8IZ","3UUIU9GZC6BQMHTLWW3KSJ0W7IE5TB","37UQDCYH6Z1N9X9NFMNXG5X2EKI7VQ","model","mismatch","uniform","","","","","","","1149.6999999284744","816912.5","818062.1999999285","[""stimuli/WM11_FO.jpg"",""stimuli/BM07_HO.jpg"",""stimuli/HF09_DO.jpg"",""stimuli/BF08_AO.jpg""]","stimuli/WM11_FO.jpg","stimuli/BM07_HO.jpg","stimuli/HF09_DO.jpg","stimuli/BF08_AO.jpg","pos1","stimuli/WM11_FO.jpg","FO","WM11","0","3.5","7","8","stimuli/stars_7.png","298.5","[""FO"",""HO"",""DO"",""AO""]","[""WM11"",""BM07"",""HF09"",""BF08""]","[7,2,5,5]","[8,2,6,4]","","",""
"show-reward","180","819272","0.0-180.0","p736976","A3S3WYVCVWW8IZ","3UUIU9GZC6BQMHTLWW3KSJ0W7IE5TB","37UQDCYH6Z1N9X9NFMNXG5X2EKI7VQ","model","mismatch","uniform","","","","","","","","818566.7999999523","820582.6000000238","","","","","","","","","","","","7","","stimuli/stars_7.png","298.5","","","","","stimuli/WM11_FO.jpg","",""
"explore-choice","181","820818","0.0-181.0","p736976","A3S3WYVCVWW8IZ","3UUIU9GZC6BQMHTLWW3KSJ0W7IE5TB","37UQDCYH6Z1N9X9NFMNXG5X2EKI7VQ","model","mismatch","uniform","","","","","","","1044.8000000715256","820583.2999999523","821628.1000000238","[""stimuli/BF08_DO.jpg"",""stimuli/WM11_FO.jpg"",""stimuli/BM07_AO.jpg"",""stimuli/HF09_HO.jpg""]","stimuli/BF08_DO.jpg","stimuli/WM11_FO.jpg","stimuli/BM07_AO.jpg","stimuli/HF09_HO.jpg","pos3","stimuli/BM07_AO.jpg","AO","BM07","2","3","6","4","stimuli/stars_6.png","301.5","[""DO"",""FO"",""AO"",""HO""]","[""BF08"",""WM11"",""BM07"",""HF09""]","[4,9,6,0]","[6,8,4,2]","","",""
"show-reward","182","822820","0.0-182.0","p736976","A3S3WYVCVWW8IZ","3UUIU9GZC6BQMHTLWW3KSJ0W7IE5TB","37UQDCYH6Z1N9X9NFMNXG5X2EKI7VQ","model","mismatch","uniform","","","","","","","","822129.1999999285","824130.5","","","","","","","","","","","","6","","stimuli/stars_6.png","301.5","","","","","stimuli/BM07_AO.jpg","",""
"explore-choice","183","824784","0.0-183.0","p736976","A3S3WYVCVWW8IZ","3UUIU9GZC6BQMHTLWW3KSJ0W7IE5TB","37UQDCYH6Z1N9X9NFMNXG5X2EKI7VQ","model","mismatch","uniform","","","","","","","1463","824131.1000000238","825594.1000000238","[""stimuli/BF08_FO.jpg"",""stimuli/HF09_AO.jpg"",""stimuli/BM07_HO.jpg"",""stimuli/WM11_DO.jpg""]","stimuli/BF08_FO.jpg","stimuli/HF09_AO.jpg","stimuli/BM07_HO.jpg","stimuli/WM11_DO.jpg","pos4","stimuli/WM11_DO.jpg","DO","WM11","3","4","8","6","stimuli/stars_8.png","305.5","[""FO"",""AO"",""HO"",""DO""]","[""BF08"",""HF09"",""BM07"",""WM11""]","[7,3,2,8]","[8,4,2,6]","","",""
"show-reward","184","826785","0.0-184.0","p736976","A3S3WYVCVWW8IZ","3UUIU9GZC6BQMHTLWW3KSJ0W7IE5TB","37UQDCYH6Z1N9X9NFMNXG5X2EKI7VQ","model","mismatch","uniform","","","","","","","","826094.8999999762","828096","","","","","","","","","","","","8","","stimuli/stars_8.png","305.5","","","","","stimuli/WM11_DO.jpg","",""
"explore-choice","185","828716","0.0-185.0","p736976","A3S3WYVCVWW8IZ","3UUIU9GZC6BQMHTLWW3KSJ0W7IE5TB","37UQDCYH6Z1N9X9NFMNXG5X2EKI7VQ","model","mismatch","uniform","","","","","","","1429.7000000476837","828096.3999999762","829526.1000000238","[""stimuli/WM11_HO.jpg"",""stimuli/BF08_FO.jpg"",""stimuli/BM07_AO.jpg"",""stimuli/HF09_DO.jpg""]","stimuli/WM11_HO.jpg","stimuli/BF08_FO.jpg","stimuli/BM07_AO.jpg","stimuli/HF09_DO.jpg","pos3","stimuli/BM07_AO.jpg","AO","BM07","2","2.5","5","4","stimuli/stars_5.png","308","[""HO"",""FO"",""AO"",""DO""]","[""WM11"",""BF08"",""BM07"",""HF09""]","[2,8,5,8]","[2,8,4,6]","","",""
"show-reward","186","830718","0.0-186.0","p736976","A3S3WYVCVWW8IZ","3UUIU9GZC6BQMHTLWW3KSJ0W7IE5TB","37UQDCYH6Z1N9X9NFMNXG5X2EKI7VQ","model","mismatch","uniform","","","","","","","","830027.5","832028.8999999762","","","","","","","","","","","","5","","stimuli/stars_5.png","308","","","","","stimuli/BM07_AO.jpg","",""
"explore-choice","187","833396","0.0-187.0","p736976","A3S3WYVCVWW8IZ","3UUIU9GZC6BQMHTLWW3KSJ0W7IE5TB","37UQDCYH6Z1N9X9NFMNXG5X2EKI7VQ","model","mismatch","uniform","","","","","","","2176.6999999284744","832029.5","834206.1999999285","[""stimuli/HF09_HO.jpg"",""stimuli/WM11_DO.jpg"",""stimuli/BF08_AO.jpg"",""stimuli/BM07_FO.jpg""]","stimuli/HF09_HO.jpg","stimuli/WM11_DO.jpg","stimuli/BF08_AO.jpg","stimuli/BM07_FO.jpg","pos4","stimuli/BM07_FO.jpg","FO","BM07","3","3.5","7","8","stimuli/stars_7.png","311.5","[""HO"",""DO"",""AO"",""FO""]","[""HF09"",""WM11"",""BF08"",""BM07""]","[4,5,3,7]","[2,6,4,8]","","",""
"show-reward","188","835407","0.0-188.0","p736976","A3S3WYVCVWW8IZ","3UUIU9GZC6BQMHTLWW3KSJ0W7IE5TB","37UQDCYH6Z1N9X9NFMNXG5X2EKI7VQ","model","mismatch","uniform","","","","","","","","834707.6000000238","836717.7999999523","","","","","","","","","","","","7","","stimuli/stars_7.png","311.5","","","","","stimuli/BM07_FO.jpg","",""
"explore-choice","189","837045","0.0-189.0","p736976","A3S3WYVCVWW8IZ","3UUIU9GZC6BQMHTLWW3KSJ0W7IE5TB","37UQDCYH6Z1N9X9NFMNXG5X2EKI7VQ","model","mismatch","uniform","","","","","","","1123.7999999523163","836718.3999999762","837842.1999999285","[""stimuli/BF08_HO.jpg"",""stimuli/BM07_DO.jpg"",""stimuli/HF09_AO.jpg"",""stimuli/WM11_FO.jpg""]","stimuli/BF08_HO.jpg","stimuli/BM07_DO.jpg","stimuli/HF09_AO.jpg","stimuli/WM11_FO.jpg","pos2","stimuli/BM07_DO.jpg","DO","BM07","1","3","6","6","stimuli/stars_6.png","314.5","[""HO"",""DO"",""AO"",""FO""]","[""BF08"",""BM07"",""HF09"",""WM11""]","[1,6,3,6]","[2,6,4,8]","","",""
"show-reward","190","839050","0.0-190.0","p736976","A3S3WYVCVWW8IZ","3UUIU9GZC6BQMHTLWW3KSJ0W7IE5TB","37UQDCYH6Z1N9X9NFMNXG5X2EKI7VQ","model","mismatch","uniform","","","","","","","","838355.8999999762","840360.1999999285","","","","","","","","","","","","6","","stimuli/stars_6.png","314.5","","","","","stimuli/BM07_DO.jpg","",""
"explore-choice","191","841280","0.0-191.0","p736976","A3S3WYVCVWW8IZ","3UUIU9GZC6BQMHTLWW3KSJ0W7IE5TB","37UQDCYH6Z1N9X9NFMNXG5X2EKI7VQ","model","mismatch","uniform","","","","","","","1729.3000000715256","840360.7999999523","842090.1000000238","[""stimuli/WM11_HO.jpg"",""stimuli/HF09_AO.jpg"",""stimuli/BF08_FO.jpg"",""stimuli/BM07_DO.jpg""]","stimuli/WM11_HO.jpg","stimuli/HF09_AO.jpg","stimuli/BF08_FO.jpg","stimuli/BM07_DO.jpg","pos4","stimuli/BM07_DO.jpg","DO","BM07","3","4","8","6","stimuli/stars_8.png","318.5","[""HO"",""AO"",""FO"",""DO""]","[""WM11"",""HF09"",""BF08"",""BM07""]","[4,5,7,8]","[2,4,8,6]","","",""
"show-reward","192","843285","0.0-192.0","p736976","A3S3WYVCVWW8IZ","3UUIU9GZC6BQMHTLWW3KSJ0W7IE5TB","37UQDCYH6Z1N9X9NFMNXG5X2EKI7VQ","model","mismatch","uniform","","","","","","","","842591.1000000238","844596.1000000238","","","","","","","","","","","","8","","stimuli/stars_8.png","318.5","","","","","stimuli/BM07_DO.jpg","",""
"explore-choice","193","845664","0.0-193.0","p736976","A3S3WYVCVWW8IZ","3UUIU9GZC6BQMHTLWW3KSJ0W7IE5TB","37UQDCYH6Z1N9X9NFMNXG5X2EKI7VQ","model","mismatch","uniform","","","","","","","1877.6999999284744","844596.6000000238","846474.2999999523","[""stimuli/HF09_HO.jpg"",""stimuli/BM07_AO.jpg"",""stimuli/WM11_DO.jpg"",""stimuli/BF08_FO.jpg""]","stimuli/HF09_HO.jpg","stimuli/BM07_AO.jpg","stimuli/WM11_DO.jpg","stimuli/BF08_FO.jpg","pos3","stimuli/WM11_DO.jpg","DO","WM11","2","3.5","7","6","stimuli/stars_7.png","322","[""HO"",""AO"",""DO"",""FO""]","[""HF09"",""BM07"",""WM11"",""BF08""]","[3,2,7,9]","[2,4,6,8]","","",""
"show-reward","194","847666","0.0-194.0","p736976","A3S3WYVCVWW8IZ","3UUIU9GZC6BQMHTLWW3KSJ0W7IE5TB","37UQDCYH6Z1N9X9NFMNXG5X2EKI7VQ","model","mismatch","uniform","","","","","","","","846975","848976.1999999285","","","","","","","","","","","","7","","stimuli/stars_7.png","322","","","","","stimuli/WM11_DO.jpg","",""
"explore-choice","195","849237","0.0-195.0","p736976","A3S3WYVCVWW8IZ","3UUIU9GZC6BQMHTLWW3KSJ0W7IE5TB","37UQDCYH6Z1N9X9NFMNXG5X2EKI7VQ","model","mismatch","uniform","","","","","","","1069.5","848976.6999999285","850046.1999999285","[""stimuli/HF09_AO.jpg"",""stimuli/BF08_HO.jpg"",""stimuli/BM07_FO.jpg"",""stimuli/WM11_DO.jpg""]","stimuli/HF09_AO.jpg","stimuli/BF08_HO.jpg","stimuli/BM07_FO.jpg","stimuli/WM11_DO.jpg","pos3","stimuli/BM07_FO.jpg","FO","BM07","2","3","6","8","stimuli/stars_6.png","325","[""AO"",""HO"",""FO"",""DO""]","[""HF09"",""BF08"",""BM07"",""WM11""]","[3,3,6,6]","[4,2,8,6]","","",""
"show-reward","196","851253","0.0-196.0","p736976","A3S3WYVCVWW8IZ","3UUIU9GZC6BQMHTLWW3KSJ0W7IE5TB","37UQDCYH6Z1N9X9NFMNXG5X2EKI7VQ","model","mismatch","uniform","","","","","","","","850547.6999999285","852563.3999999762","","","","","","","","","","","","6","","stimuli/stars_6.png","325","","","","","stimuli/BM07_FO.jpg","",""
"explore-choice","197","852746","0.0-197.0","p736976","A3S3WYVCVWW8IZ","3UUIU9GZC6BQMHTLWW3KSJ0W7IE5TB","37UQDCYH6Z1N9X9NFMNXG5X2EKI7VQ","model","mismatch","uniform","","","","","","","992.2999999523163","852563.8999999762","853556.1999999285","[""stimuli/WM11_HO.jpg"",""stimuli/HF09_AO.jpg"",""stimuli/BF08_DO.jpg"",""stimuli/BM07_FO.jpg""]","stimuli/WM11_HO.jpg","stimuli/HF09_AO.jpg","stimuli/BF08_DO.jpg","stimuli/BM07_FO.jpg","pos4","stimuli/BM07_FO.jpg","FO","BM07","3","4.5","9","8","stimuli/stars_9.png","329.5","[""HO"",""AO"",""DO"",""FO""]","[""WM11"",""HF09"",""BF08"",""BM07""]","[4,3,8,9]","[2,4,6,8]","","",""
"show-reward","198","854749","0.0-198.0","p736976","A3S3WYVCVWW8IZ","3UUIU9GZC6BQMHTLWW3KSJ0W7IE5TB","37UQDCYH6Z1N9X9NFMNXG5X2EKI7VQ","model","mismatch","uniform","","","","","","","","854057.5","856059.2999999523","","","","","","","","","","","","9","","stimuli/stars_9.png","329.5","","","","","stimuli/BM07_FO.jpg","",""
"instructions","199","860444","0.0-199.0","p736976","A3S3WYVCVWW8IZ","3UUIU9GZC6BQMHTLWW3KSJ0W7IE5TB","37UQDCYH6Z1N9X9NFMNXG5X2EKI7VQ","model","mismatch","uniform","","","","","","[{""page_index"":0,""viewing_time"":5694.5}]","5695","","","","","","","","","","","","","","","","","","","","","","","",""
"survey-text","200","864338","0.0-200.0-0.0","p736976","A3S3WYVCVWW8IZ","3UUIU9GZC6BQMHTLWW3KSJ0W7IE5TB","37UQDCYH6Z1N9X9NFMNXG5X2EKI7VQ","model","mismatch","uniform","","","","","","","3891.899999976158","","","","","","","","","","","","","","","","","","","","","","","{""age"":""37""}",""
"survey-text","201","868770","0.0-200.0-1.0","p736976","A3S3WYVCVWW8IZ","3UUIU9GZC6BQMHTLWW3KSJ0W7IE5TB","37UQDCYH6Z1N9X9NFMNXG5X2EKI7VQ","model","mismatch","uniform","","","","","","","4430.599999904633","","","","","","","","","","","","","","","","","","","","","","","{""gender"":""male""}",""
"survey-text","202","872576","0.0-200.0-2.0","p736976","A3S3WYVCVWW8IZ","3UUIU9GZC6BQMHTLWW3KSJ0W7IE5TB","37UQDCYH6Z1N9X9NFMNXG5X2EKI7VQ","model","mismatch","uniform","","","","","","","3804.4000000953674","","","","","","","","","","","","","","","","","","","","","","","{""country"":""US""}",""
"survey-text","203","878290","0.0-200.0-3.0","p736976","A3S3WYVCVWW8IZ","3UUIU9GZC6BQMHTLWW3KSJ0W7IE5TB","37UQDCYH6Z1N9X9NFMNXG5X2EKI7VQ","model","mismatch","uniform","","","","","","","5712.399999976158","","","","","","","","","","","","","","","","","","","","","","","{""language"":""english"",""other_languages"":""""}",""
"survey-multi-select","204","879830","0.0-201.0","p736976","A3S3WYVCVWW8IZ","3UUIU9GZC6BQMHTLWW3KSJ0W7IE5TB","37UQDCYH6Z1N9X9NFMNXG5X2EKI7VQ","model","mismatch","uniform","","","","","","","1536.5","","","","","","","","","","","","","","","","","","","","","","","{""race"":[""Black or African American""]}","[0]"
"survey-multi-choice","205","881768","0.0-202.0","p736976","A3S3WYVCVWW8IZ","3UUIU9GZC6BQMHTLWW3KSJ0W7IE5TB","37UQDCYH6Z1N9X9NFMNXG5X2EKI7VQ","model","mismatch","uniform","","","","","","","1936.6000000238419","","","","","","","","","","","","","","","","","","","","","","","{""education"":""Bachelor's degree""}","[0]"
"survey-text","206","936336","0.0-203.0","p736976","A3S3WYVCVWW8IZ","3UUIU9GZC6BQMHTLWW3KSJ0W7IE5TB","37UQDCYH6Z1N9X9NFMNXG5X2EKI7VQ","model","mismatch","uniform","","","","","","","54565.799999952316","","","","","","","","","","","","","","","","","","","","","","","{""patterns"":""somewhat, it seemed some facial expressions for certain individuals yielded more stars"",""strategy"":""Yes, I kept selecting the person who gave the most stars"",""comments"":""""}",""
