"trial_type","trial_index","time_elapsed","internal_node_id","subject","workerId","hitId","assignmentId","structure_condition","match_condition","noise_type","success","timeout","failed_images","failed_audio","failed_video","view_history","rt","start_time","end_time","stimuli","image1","image2","image3","image4","choiceLocation","choiceImage","choiceEmotion","choiceModel","choice_index","reward_score","reward","reward_score_unadjusted","reward_image","score_after_trial","emotions","models","rewards","rewards_unadjusted","stimulus","response","question_order"
"pavlovia","0","86","0.0-0.0","p902712","A2NXMRPHG86N2T","3FVBZG9CLKK1M1GPZWGJX51HFG80HB","37C0GNLMHH9IBGVW5RIB45RZJ2U6DR","emotion","mismatch","uniform","","","","","","","","","","","","","","","","","","","","","","","","","","","","","","",""
"preload","1","17163","0.0-1.0","p902712","A2NXMRPHG86N2T","3FVBZG9CLKK1M1GPZWGJX51HFG80HB","37C0GNLMHH9IBGVW5RIB45RZJ2U6DR","emotion","mismatch","uniform","true","false","[]","[]","[]","","","","","","","","","","","","","","","","","","","","","","","","","",""
"fullscreen","2","101693","0.0-2.0","p902712","A2NXMRPHG86N2T","3FVBZG9CLKK1M1GPZWGJX51HFG80HB","37C0GNLMHH9IBGVW5RIB45RZJ2U6DR","emotion","mismatch","uniform","true","","","","","","","","","","","","","","","","","","","","","","","","","","","","","",""
"instructions","3","114296","0.0-3.0","p902712","A2NXMRPHG86N2T","3FVBZG9CLKK1M1GPZWGJX51HFG80HB","37C0GNLMHH9IBGVW5RIB45RZJ2U6DR","emotion","mismatch","uniform","","","","","","[{""page_index"":0,""viewing_time"":12595.10000000894}]","12598.20000000298","","","","","","","","","","","","","","","","","","","","","","","",""
"explore-choice","4","117906","0.0-4.0","p902712","A2NXMRPHG86N2T","3FVBZG9CLKK1M1GPZWGJX51HFG80HB","37C0GNLMHH9IBGVW5RIB45RZJ2U6DR","emotion","mismatch","uniform","","","","","","","3083.5","119809.40000000596","122892.90000000596","[""stimuli/sheep.jpg"",""stimuli/hammer.jpg"",""stimuli/basketball.jpg"",""stimuli/horse.jpg""]","stimuli/sheep.jpg","stimuli/hammer.jpg","stimuli/basketball.jpg","stimuli/horse.jpg","pos4","stimuli/horse.jpg","","","3","64","64","64","stimuli/stars_8.png","65","","","","","","",""
"explore-choice","5","119856","0.0-5.0","p902712","A2NXMRPHG86N2T","3FVBZG9CLKK1M1GPZWGJX51HFG80HB","37C0GNLMHH9IBGVW5RIB45RZJ2U6DR","emotion","mismatch","uniform","","","","","","","1427.7999999970198","123416.10000000894","124843.90000000596","[""stimuli/hammer.jpg"",""stimuli/basketball.jpg"",""stimuli/horse.jpg"",""stimuli/sheep.jpg""]","stimuli/hammer.jpg","stimuli/basketball.jpg","stimuli/horse.jpg","stimuli/sheep.jpg","pos1","stimuli/hammer.jpg","","","0","8","8","8","stimuli/stars_2.png","9","","","","","","",""
"instructions","6","139412","0.0-6.0","p902712","A2NXMRPHG86N2T","3FVBZG9CLKK1M1GPZWGJX51HFG80HB","37C0GNLMHH9IBGVW5RIB45RZJ2U6DR","emotion","mismatch","uniform","","","","","","[{""page_index"":0,""viewing_time"":19548.79999999702}]","19551.59999999404","","","","","","","","","","","","","","","","","","","","","","","",""
"explore-choice","7","141870","0.0-7.0","p902712","A2NXMRPHG86N2T","3FVBZG9CLKK1M1GPZWGJX51HFG80HB","37C0GNLMHH9IBGVW5RIB45RZJ2U6DR","emotion","mismatch","uniform","","","","","","","1933.3999999910593","144941.30000001192","146874.70000000298","[""stimuli/HM10_DO.jpg"",""stimuli/BF04_CC.jpg"",""stimuli/WM13_HO.jpg"",""stimuli/BF05_AO.jpg""]","stimuli/HM10_DO.jpg","stimuli/BF04_CC.jpg","stimuli/WM13_HO.jpg","stimuli/BF05_AO.jpg","pos1","stimuli/HM10_DO.jpg","DO","HM10","0","3","6","4","stimuli/stars_6.png","4","[""DO"",""CC"",""HO"",""AO""]","[""HM10"",""BF04"",""WM13"",""BF05""]","[6,3,8,4]","[4,2,8,6]","","",""
"show-reward","8","143891","0.0-8.0","p902712","A2NXMRPHG86N2T","3FVBZG9CLKK1M1GPZWGJX51HFG80HB","37C0GNLMHH9IBGVW5RIB45RZJ2U6DR","emotion","mismatch","uniform","","","","","","","","147383.30000001192","149397.30000001192","","","","","","","","","","","","6","","stimuli/stars_6.png","4","","","","","stimuli/HM10_DO.jpg","",""
"explore-choice","9","146286","0.0-9.0","p902712","A2NXMRPHG86N2T","3FVBZG9CLKK1M1GPZWGJX51HFG80HB","37C0GNLMHH9IBGVW5RIB45RZJ2U6DR","emotion","mismatch","uniform","","","","","","","1881.7999999970198","149401.40000000596","151283.20000000298","[""stimuli/BF04_AO.jpg"",""stimuli/BF05_CC.jpg"",""stimuli/HM10_HO.jpg"",""stimuli/WM13_DO.jpg""]","stimuli/BF04_AO.jpg","stimuli/BF05_CC.jpg","stimuli/HM10_HO.jpg","stimuli/WM13_DO.jpg","pos2","stimuli/BF05_CC.jpg","CC","BF05","1","1.5","3","2","stimuli/stars_3.png","5.5","[""AO"",""CC"",""HO"",""DO""]","[""BF04"",""BF05"",""HM10"",""WM13""]","[7,3,10,2]","[6,2,8,4]","","",""
"show-reward","10","148317","0.0-10.0","p902712","A2NXMRPHG86N2T","3FVBZG9CLKK1M1GPZWGJX51HFG80HB","37C0GNLMHH9IBGVW5RIB45RZJ2U6DR","emotion","mismatch","uniform","","","","","","","","151797.5","153821.40000000596","","","","","","","","","","","","3","","stimuli/stars_3.png","5.5","","","","","stimuli/BF05_CC.jpg","",""
"explore-choice","11","150271","0.0-11.0","p902712","A2NXMRPHG86N2T","3FVBZG9CLKK1M1GPZWGJX51HFG80HB","37C0GNLMHH9IBGVW5RIB45RZJ2U6DR","emotion","mismatch","uniform","","","","","","","1444.4000000059605","153829.90000000596","155274.30000001192","[""stimuli/HM10_CC.jpg"",""stimuli/WM13_AO.jpg"",""stimuli/BF04_DO.jpg"",""stimuli/BF05_HO.jpg""]","stimuli/HM10_CC.jpg","stimuli/WM13_AO.jpg","stimuli/BF04_DO.jpg","stimuli/BF05_HO.jpg","pos4","stimuli/BF05_HO.jpg","HO","BF05","3","3","6","8","stimuli/stars_6.png","8.5","[""CC"",""AO"",""DO"",""HO""]","[""HM10"",""WM13"",""BF04"",""BF05""]","[1,6,4,6]","[2,6,4,8]","","",""
"show-reward","12","152300","0.0-12.0","p902712","A2NXMRPHG86N2T","3FVBZG9CLKK1M1GPZWGJX51HFG80HB","37C0GNLMHH9IBGVW5RIB45RZJ2U6DR","emotion","mismatch","uniform","","","","","","","","155780.70000000298","157806.60000000894","","","","","","","","","","","","6","","stimuli/stars_6.png","8.5","","","","","stimuli/BF05_HO.jpg","",""
"explore-choice","13","153686","0.0-13.0","p902712","A2NXMRPHG86N2T","3FVBZG9CLKK1M1GPZWGJX51HFG80HB","37C0GNLMHH9IBGVW5RIB45RZJ2U6DR","emotion","mismatch","uniform","","","","","","","863.7999999970198","157810.10000000894","158673.90000000596","[""stimuli/BF05_DO.jpg"",""stimuli/BF04_AO.jpg"",""stimuli/WM13_CC.jpg"",""stimuli/HM10_HO.jpg""]","stimuli/BF05_DO.jpg","stimuli/BF04_AO.jpg","stimuli/WM13_CC.jpg","stimuli/HM10_HO.jpg","pos3","stimuli/WM13_CC.jpg","CC","WM13","2","0.5","1","2","stimuli/stars_1.png","9","[""DO"",""AO"",""CC"",""HO""]","[""BF05"",""BF04"",""WM13"",""HM10""]","[5,5,1,7]","[4,6,2,8]","","",""
"show-reward","14","155707","0.0-14.0","p902712","A2NXMRPHG86N2T","3FVBZG9CLKK1M1GPZWGJX51HFG80HB","37C0GNLMHH9IBGVW5RIB45RZJ2U6DR","emotion","mismatch","uniform","","","","","","","","159197.10000000894","161213.60000000894","","","","","","","","","","","","1","","stimuli/stars_1.png","9","","","","","stimuli/WM13_CC.jpg","",""
"explore-choice","15","156857","0.0-15.0","p902712","A2NXMRPHG86N2T","3FVBZG9CLKK1M1GPZWGJX51HFG80HB","37C0GNLMHH9IBGVW5RIB45RZJ2U6DR","emotion","mismatch","uniform","","","","","","","631.7999999970198","161216.80000001192","161848.60000000894","[""stimuli/WM13_AO.jpg"",""stimuli/BF04_DO.jpg"",""stimuli/HM10_HO.jpg"",""stimuli/BF05_CC.jpg""]","stimuli/WM13_AO.jpg","stimuli/BF04_DO.jpg","stimuli/HM10_HO.jpg","stimuli/BF05_CC.jpg","pos1","stimuli/WM13_AO.jpg","AO","WM13","0","2.5","5","6","stimuli/stars_5.png","11.5","[""AO"",""DO"",""HO"",""CC""]","[""WM13"",""BF04"",""HM10"",""BF05""]","[5,6,7,2]","[6,4,8,2]","","",""
"show-reward","16","158876","0.0-16.0","p902712","A2NXMRPHG86N2T","3FVBZG9CLKK1M1GPZWGJX51HFG80HB","37C0GNLMHH9IBGVW5RIB45RZJ2U6DR","emotion","mismatch","uniform","","","","","","","","162367","164381.40000000596","","","","","","","","","","","","5","","stimuli/stars_5.png","11.5","","","","","stimuli/WM13_AO.jpg","",""
"explore-choice","17","160714","0.0-17.0","p902712","A2NXMRPHG86N2T","3FVBZG9CLKK1M1GPZWGJX51HFG80HB","37C0GNLMHH9IBGVW5RIB45RZJ2U6DR","emotion","mismatch","uniform","","","","","","","1322.7999999970198","164393.20000000298","165716","[""stimuli/BF05_AO.jpg"",""stimuli/BF04_HO.jpg"",""stimuli/WM13_CC.jpg"",""stimuli/HM10_DO.jpg""]","stimuli/BF05_AO.jpg","stimuli/BF04_HO.jpg","stimuli/WM13_CC.jpg","stimuli/HM10_DO.jpg","pos2","stimuli/BF04_HO.jpg","HO","BF04","1","3","6","8","stimuli/stars_6.png","14.5","[""AO"",""HO"",""CC"",""DO""]","[""BF05"",""BF04"",""WM13"",""HM10""]","[6,6,0,4]","[6,8,2,4]","","",""
"show-reward","18","162774","0.0-18.0","p902712","A2NXMRPHG86N2T","3FVBZG9CLKK1M1GPZWGJX51HFG80HB","37C0GNLMHH9IBGVW5RIB45RZJ2U6DR","emotion","mismatch","uniform","","","","","","","","166230.30000001192","168275.70000000298","","","","","","","","","","","","6","","stimuli/stars_6.png","14.5","","","","","stimuli/BF04_HO.jpg","",""
"explore-choice","19","166864","0.0-19.0","p902712","A2NXMRPHG86N2T","3FVBZG9CLKK1M1GPZWGJX51HFG80HB","37C0GNLMHH9IBGVW5RIB45RZJ2U6DR","emotion","mismatch","uniform","","","","","","","3581.2000000029802","168286.40000000596","171867.60000000894","[""stimuli/BF05_CC.jpg"",""stimuli/WM13_DO.jpg"",""stimuli/BF04_HO.jpg"",""stimuli/HM10_AO.jpg""]","stimuli/BF05_CC.jpg","stimuli/WM13_DO.jpg","stimuli/BF04_HO.jpg","stimuli/HM10_AO.jpg","pos3","stimuli/BF04_HO.jpg","HO","BF04","2","4","8","8","stimuli/stars_8.png","18.5","[""CC"",""DO"",""HO"",""AO""]","[""BF05"",""WM13"",""BF04"",""HM10""]","[2,5,8,7]","[2,4,8,6]","","",""
"show-reward","20","168919","0.0-20.0","p902712","A2NXMRPHG86N2T","3FVBZG9CLKK1M1GPZWGJX51HFG80HB","37C0GNLMHH9IBGVW5RIB45RZJ2U6DR","emotion","mismatch","uniform","","","","","","","","172384.10000000894","174425.20000000298","","","","","","","","","","","","8","","stimuli/stars_8.png","18.5","","","","","stimuli/BF04_HO.jpg","",""
"explore-choice","21","172268","0.0-21.0","p902712","A2NXMRPHG86N2T","3FVBZG9CLKK1M1GPZWGJX51HFG80HB","37C0GNLMHH9IBGVW5RIB45RZJ2U6DR","emotion","mismatch","uniform","","","","","","","2837.1000000089407","174428.5","177265.60000000894","[""stimuli/WM13_AO.jpg"",""stimuli/BF05_HO.jpg"",""stimuli/BF04_CC.jpg"",""stimuli/HM10_DO.jpg""]","stimuli/WM13_AO.jpg","stimuli/BF05_HO.jpg","stimuli/BF04_CC.jpg","stimuli/HM10_DO.jpg","pos2","stimuli/BF05_HO.jpg","HO","BF05","1","4","8","8","stimuli/stars_8.png","22.5","[""AO"",""HO"",""CC"",""DO""]","[""WM13"",""BF05"",""BF04"",""HM10""]","[7,8,2,4]","[6,8,2,4]","","",""
"show-reward","22","174312","0.0-22.0","p902712","A2NXMRPHG86N2T","3FVBZG9CLKK1M1GPZWGJX51HFG80HB","37C0GNLMHH9IBGVW5RIB45RZJ2U6DR","emotion","mismatch","uniform","","","","","","","","177780.30000001192","179817.80000001192","","","","","","","","","","","","8","","stimuli/stars_8.png","22.5","","","","","stimuli/BF05_HO.jpg","",""
"explore-choice","23","177358","0.0-23.0","p902712","A2NXMRPHG86N2T","3FVBZG9CLKK1M1GPZWGJX51HFG80HB","37C0GNLMHH9IBGVW5RIB45RZJ2U6DR","emotion","mismatch","uniform","","","","","","","2530.4000000059605","179823.70000000298","182354.10000000894","[""stimuli/HM10_DO.jpg"",""stimuli/BF05_CC.jpg"",""stimuli/WM13_HO.jpg"",""stimuli/BF04_AO.jpg""]","stimuli/HM10_DO.jpg","stimuli/BF05_CC.jpg","stimuli/WM13_HO.jpg","stimuli/BF04_AO.jpg","pos3","stimuli/WM13_HO.jpg","HO","WM13","2","4.5","9","8","stimuli/stars_9.png","27","[""DO"",""CC"",""HO"",""AO""]","[""HM10"",""BF05"",""WM13"",""BF04""]","[5,3,9,5]","[4,2,8,6]","","",""
"show-reward","24","179374","0.0-24.0","p902712","A2NXMRPHG86N2T","3FVBZG9CLKK1M1GPZWGJX51HFG80HB","37C0GNLMHH9IBGVW5RIB45RZJ2U6DR","emotion","mismatch","uniform","","","","","","","","182868.20000000298","184879.70000000298","","","","","","","","","","","","9","","stimuli/stars_9.png","27","","","","","stimuli/WM13_HO.jpg","",""
"explore-choice","25","181081","0.0-25.0","p902712","A2NXMRPHG86N2T","3FVBZG9CLKK1M1GPZWGJX51HFG80HB","37C0GNLMHH9IBGVW5RIB45RZJ2U6DR","emotion","mismatch","uniform","","","","","","","1197.3999999910593","184884.30000001192","186081.70000000298","[""stimuli/WM13_HO.jpg"",""stimuli/HM10_AO.jpg"",""stimuli/BF04_CC.jpg"",""stimuli/BF05_DO.jpg""]","stimuli/WM13_HO.jpg","stimuli/HM10_AO.jpg","stimuli/BF04_CC.jpg","stimuli/BF05_DO.jpg","pos1","stimuli/WM13_HO.jpg","HO","WM13","0","5","10","8","stimuli/stars_10.png","32","[""HO"",""AO"",""CC"",""DO""]","[""WM13"",""HM10"",""BF04"",""BF05""]","[10,5,0,2]","[8,6,2,4]","","",""
"show-reward","26","183107","0.0-26.0","p902712","A2NXMRPHG86N2T","3FVBZG9CLKK1M1GPZWGJX51HFG80HB","37C0GNLMHH9IBGVW5RIB45RZJ2U6DR","emotion","mismatch","uniform","","","","","","","","186591.80000001192","188612.40000000596","","","","","","","","","","","","10","","stimuli/stars_10.png","32","","","","","stimuli/WM13_HO.jpg","",""
"explore-choice","27","186676","0.0-27.0","p902712","A2NXMRPHG86N2T","3FVBZG9CLKK1M1GPZWGJX51HFG80HB","37C0GNLMHH9IBGVW5RIB45RZJ2U6DR","emotion","mismatch","uniform","","","","","","","3049.4000000059605","188616.20000000298","191665.60000000894","[""stimuli/BF04_DO.jpg"",""stimuli/WM13_CC.jpg"",""stimuli/HM10_AO.jpg"",""stimuli/BF05_HO.jpg""]","stimuli/BF04_DO.jpg","stimuli/WM13_CC.jpg","stimuli/HM10_AO.jpg","stimuli/BF05_HO.jpg","pos4","stimuli/BF05_HO.jpg","HO","BF05","3","3","6","8","stimuli/stars_6.png","35","[""DO"",""CC"",""AO"",""HO""]","[""BF04"",""WM13"",""HM10"",""BF05""]","[2,2,4,6]","[4,2,6,8]","","",""
"show-reward","28","188697","0.0-28.0","p902712","A2NXMRPHG86N2T","3FVBZG9CLKK1M1GPZWGJX51HFG80HB","37C0GNLMHH9IBGVW5RIB45RZJ2U6DR","emotion","mismatch","uniform","","","","","","","","192186.30000001192","194202.30000001192","","","","","","","","","","","","6","","stimuli/stars_6.png","35","","","","","stimuli/BF05_HO.jpg","",""
"explore-choice","29","190812","0.0-29.0","p902712","A2NXMRPHG86N2T","3FVBZG9CLKK1M1GPZWGJX51HFG80HB","37C0GNLMHH9IBGVW5RIB45RZJ2U6DR","emotion","mismatch","uniform","","","","","","","1594.2000000029802","194210.60000000894","195804.80000001192","[""stimuli/BF04_DO.jpg"",""stimuli/BF05_AO.jpg"",""stimuli/WM13_CC.jpg"",""stimuli/HM10_HO.jpg""]","stimuli/BF04_DO.jpg","stimuli/BF05_AO.jpg","stimuli/WM13_CC.jpg","stimuli/HM10_HO.jpg","pos4","stimuli/HM10_HO.jpg","HO","HM10","3","5","10","8","stimuli/stars_10.png","40","[""DO"",""AO"",""CC"",""HO""]","[""BF04"",""BF05"",""WM13"",""HM10""]","[3,5,1,10]","[4,6,2,8]","","",""
"show-reward","30","192831","0.0-30.0","p902712","A2NXMRPHG86N2T","3FVBZG9CLKK1M1GPZWGJX51HFG80HB","37C0GNLMHH9IBGVW5RIB45RZJ2U6DR","emotion","mismatch","uniform","","","","","","","","196322.60000000894","198337.70000000298","","","","","","","","","","","","10","","stimuli/stars_10.png","40","","","","","stimuli/HM10_HO.jpg","",""
"explore-choice","31","194652","0.0-31.0","p902712","A2NXMRPHG86N2T","3FVBZG9CLKK1M1GPZWGJX51HFG80HB","37C0GNLMHH9IBGVW5RIB45RZJ2U6DR","emotion","mismatch","uniform","","","","","","","1308.7000000029802","198340.70000000298","199649.40000000596","[""stimuli/WM13_DO.jpg"",""stimuli/BF04_CC.jpg"",""stimuli/BF05_AO.jpg"",""stimuli/HM10_HO.jpg""]","stimuli/WM13_DO.jpg","stimuli/BF04_CC.jpg","stimuli/BF05_AO.jpg","stimuli/HM10_HO.jpg","pos4","stimuli/HM10_HO.jpg","HO","HM10","3","3.5","7","8","stimuli/stars_7.png","43.5","[""DO"",""CC"",""AO"",""HO""]","[""WM13"",""BF04"",""BF05"",""HM10""]","[4,4,4,7]","[4,2,6,8]","","",""
"show-reward","32","196664","0.0-32.0","p902712","A2NXMRPHG86N2T","3FVBZG9CLKK1M1GPZWGJX51HFG80HB","37C0GNLMHH9IBGVW5RIB45RZJ2U6DR","emotion","mismatch","uniform","","","","","","","","200161.30000001192","202170.5","","","","","","","","","","","","7","","stimuli/stars_7.png","43.5","","","","","stimuli/HM10_HO.jpg","",""
"explore-choice","33","199232","0.0-33.0","p902712","A2NXMRPHG86N2T","3FVBZG9CLKK1M1GPZWGJX51HFG80HB","37C0GNLMHH9IBGVW5RIB45RZJ2U6DR","emotion","mismatch","uniform","","","","","","","2060.7999999970198","202173.60000000894","204234.40000000596","[""stimuli/BF04_AO.jpg"",""stimuli/BF05_HO.jpg"",""stimuli/WM13_DO.jpg"",""stimuli/HM10_CC.jpg""]","stimuli/BF04_AO.jpg","stimuli/BF05_HO.jpg","stimuli/WM13_DO.jpg","stimuli/HM10_CC.jpg","pos2","stimuli/BF05_HO.jpg","HO","BF05","1","4","8","8","stimuli/stars_8.png","47.5","[""AO"",""HO"",""DO"",""CC""]","[""BF04"",""BF05"",""WM13"",""HM10""]","[4,8,4,0]","[6,8,4,2]","","",""
"show-reward","34","201247","0.0-34.0","p902712","A2NXMRPHG86N2T","3FVBZG9CLKK1M1GPZWGJX51HFG80HB","37C0GNLMHH9IBGVW5RIB45RZJ2U6DR","emotion","mismatch","uniform","","","","","","","","204740.90000000596","206752.70000000298","","","","","","","","","","","","8","","stimuli/stars_8.png","47.5","","","","","stimuli/BF05_HO.jpg","",""
"explore-choice","35","204232","0.0-35.0","p902712","A2NXMRPHG86N2T","3FVBZG9CLKK1M1GPZWGJX51HFG80HB","37C0GNLMHH9IBGVW5RIB45RZJ2U6DR","emotion","mismatch","uniform","","","","","","","2478.7999999970198","206755.80000001192","209234.60000000894","[""stimuli/BF04_HO.jpg"",""stimuli/HM10_CC.jpg"",""stimuli/WM13_DO.jpg"",""stimuli/BF05_AO.jpg""]","stimuli/BF04_HO.jpg","stimuli/HM10_CC.jpg","stimuli/WM13_DO.jpg","stimuli/BF05_AO.jpg","pos1","stimuli/BF04_HO.jpg","HO","BF04","0","3","6","8","stimuli/stars_6.png","50.5","[""HO"",""CC"",""DO"",""AO""]","[""BF04"",""HM10"",""WM13"",""BF05""]","[6,0,6,4]","[8,2,4,6]","","",""
"show-reward","36","206255","0.0-36.0","p902712","A2NXMRPHG86N2T","3FVBZG9CLKK1M1GPZWGJX51HFG80HB","37C0GNLMHH9IBGVW5RIB45RZJ2U6DR","emotion","mismatch","uniform","","","","","","","","209741.60000000894","211760.80000001192","","","","","","","","","","","","6","","stimuli/stars_6.png","50.5","","","","","stimuli/BF04_HO.jpg","",""
"explore-choice","37","208545","0.0-37.0","p902712","A2NXMRPHG86N2T","3FVBZG9CLKK1M1GPZWGJX51HFG80HB","37C0GNLMHH9IBGVW5RIB45RZJ2U6DR","emotion","mismatch","uniform","","","","","","","1779.9000000059605","211766.90000000596","213546.80000001192","[""stimuli/BF05_HO.jpg"",""stimuli/WM13_CC.jpg"",""stimuli/BF04_AO.jpg"",""stimuli/HM10_DO.jpg""]","stimuli/BF05_HO.jpg","stimuli/WM13_CC.jpg","stimuli/BF04_AO.jpg","stimuli/HM10_DO.jpg","pos1","stimuli/BF05_HO.jpg","HO","BF05","0","3","6","8","stimuli/stars_6.png","53.5","[""HO"",""CC"",""AO"",""DO""]","[""BF05"",""WM13"",""BF04"",""HM10""]","[6,1,6,3]","[8,2,6,4]","","",""
"show-reward","38","210573","0.0-38.0","p902712","A2NXMRPHG86N2T","3FVBZG9CLKK1M1GPZWGJX51HFG80HB","37C0GNLMHH9IBGVW5RIB45RZJ2U6DR","emotion","mismatch","uniform","","","","","","","","214054.10000000894","216079.20000000298","","","","","","","","","","","","6","","stimuli/stars_6.png","53.5","","","","","stimuli/BF05_HO.jpg","",""
"explore-choice","39","212398","0.0-39.0","p902712","A2NXMRPHG86N2T","3FVBZG9CLKK1M1GPZWGJX51HFG80HB","37C0GNLMHH9IBGVW5RIB45RZJ2U6DR","emotion","mismatch","uniform","","","","","","","1313.5999999940395","216082.30000001192","217395.90000000596","[""stimuli/WM13_HO.jpg"",""stimuli/HM10_CC.jpg"",""stimuli/BF05_AO.jpg"",""stimuli/BF04_DO.jpg""]","stimuli/WM13_HO.jpg","stimuli/HM10_CC.jpg","stimuli/BF05_AO.jpg","stimuli/BF04_DO.jpg","pos2","stimuli/HM10_CC.jpg","CC","HM10","1","0","0","2","stimuli/stars_0.png","53.5","[""HO"",""CC"",""AO"",""DO""]","[""WM13"",""HM10"",""BF05"",""BF04""]","[7,0,8,2]","[8,2,6,4]","","",""
"show-reward","40","214447","0.0-40.0","p902712","A2NXMRPHG86N2T","3FVBZG9CLKK1M1GPZWGJX51HFG80HB","37C0GNLMHH9IBGVW5RIB45RZJ2U6DR","emotion","mismatch","uniform","","","","","","","","217917","219953.20000000298","","","","","","","","","","","","0","","stimuli/stars_0.png","53.5","","","","","stimuli/HM10_CC.jpg","",""
"explore-choice","41","217064","0.0-41.0","p902712","A2NXMRPHG86N2T","3FVBZG9CLKK1M1GPZWGJX51HFG80HB","37C0GNLMHH9IBGVW5RIB45RZJ2U6DR","emotion","mismatch","uniform","","","","","","","2107.5","219956.5","222064","[""stimuli/BF05_DO.jpg"",""stimuli/BF04_HO.jpg"",""stimuli/HM10_CC.jpg"",""stimuli/WM13_AO.jpg""]","stimuli/BF05_DO.jpg","stimuli/BF04_HO.jpg","stimuli/HM10_CC.jpg","stimuli/WM13_AO.jpg","pos4","stimuli/WM13_AO.jpg","AO","WM13","3","2","4","6","stimuli/stars_4.png","55.5","[""DO"",""HO"",""CC"",""AO""]","[""BF05"",""BF04"",""HM10"",""WM13""]","[6,9,3,4]","[4,8,2,6]","","",""
"show-reward","42","219094","0.0-42.0","p902712","A2NXMRPHG86N2T","3FVBZG9CLKK1M1GPZWGJX51HFG80HB","37C0GNLMHH9IBGVW5RIB45RZJ2U6DR","emotion","mismatch","uniform","","","","","","","","222573.40000000596","224599","","","","","","","","","","","","4","","stimuli/stars_4.png","55.5","","","","","stimuli/WM13_AO.jpg","",""
"explore-choice","43","221497","0.0-43.0","p902712","A2NXMRPHG86N2T","3FVBZG9CLKK1M1GPZWGJX51HFG80HB","37C0GNLMHH9IBGVW5RIB45RZJ2U6DR","emotion","mismatch","uniform","","","","","","","1890","224606.10000000894","226496.10000000894","[""stimuli/BF04_HO.jpg"",""stimuli/BF05_DO.jpg"",""stimuli/WM13_CC.jpg"",""stimuli/HM10_AO.jpg""]","stimuli/BF04_HO.jpg","stimuli/BF05_DO.jpg","stimuli/WM13_CC.jpg","stimuli/HM10_AO.jpg","pos4","stimuli/HM10_AO.jpg","AO","HM10","3","4","8","6","stimuli/stars_8.png","59.5","[""HO"",""DO"",""CC"",""AO""]","[""BF04"",""BF05"",""WM13"",""HM10""]","[9,3,0,8]","[8,4,2,6]","","",""
"show-reward","44","223531","0.0-44.0","p902712","A2NXMRPHG86N2T","3FVBZG9CLKK1M1GPZWGJX51HFG80HB","37C0GNLMHH9IBGVW5RIB45RZJ2U6DR","emotion","mismatch","uniform","","","","","","","","227007.60000000894","229036.90000000596","","","","","","","","","","","","8","","stimuli/stars_8.png","59.5","","","","","stimuli/HM10_AO.jpg","",""
"explore-choice","45","227364","0.0-45.0","p902712","A2NXMRPHG86N2T","3FVBZG9CLKK1M1GPZWGJX51HFG80HB","37C0GNLMHH9IBGVW5RIB45RZJ2U6DR","emotion","mismatch","uniform","","","","","","","3311","229044.30000001192","232355.30000001192","[""stimuli/BF04_AO.jpg"",""stimuli/BF05_DO.jpg"",""stimuli/WM13_HO.jpg"",""stimuli/HM10_CC.jpg""]","stimuli/BF04_AO.jpg","stimuli/BF05_DO.jpg","stimuli/WM13_HO.jpg","stimuli/HM10_CC.jpg","pos1","stimuli/BF04_AO.jpg","AO","BF04","0","3","6","6","stimuli/stars_6.png","62.5","[""AO"",""DO"",""HO"",""CC""]","[""BF04"",""BF05"",""WM13"",""HM10""]","[6,2,8,2]","[6,4,8,2]","","",""
"show-reward","46","229392","0.0-46.0","p902712","A2NXMRPHG86N2T","3FVBZG9CLKK1M1GPZWGJX51HFG80HB","37C0GNLMHH9IBGVW5RIB45RZJ2U6DR","emotion","mismatch","uniform","","","","","","","","232873.80000001192","234896.90000000596","","","","","","","","","","","","6","","stimuli/stars_6.png","62.5","","","","","stimuli/BF04_AO.jpg","",""
"explore-choice","47","231670","0.0-47.0","p902712","A2NXMRPHG86N2T","3FVBZG9CLKK1M1GPZWGJX51HFG80HB","37C0GNLMHH9IBGVW5RIB45RZJ2U6DR","emotion","mismatch","uniform","","","","","","","1765.699999988079","234902.80000001192","236668.5","[""stimuli/BF05_CC.jpg"",""stimuli/WM13_HO.jpg"",""stimuli/BF04_DO.jpg"",""stimuli/HM10_AO.jpg""]","stimuli/BF05_CC.jpg","stimuli/WM13_HO.jpg","stimuli/BF04_DO.jpg","stimuli/HM10_AO.jpg","pos2","stimuli/WM13_HO.jpg","HO","WM13","1","5","10","8","stimuli/stars_10.png","67.5","[""CC"",""HO"",""DO"",""AO""]","[""BF05"",""WM13"",""BF04"",""HM10""]","[3,10,2,6]","[2,8,4,6]","","",""
"show-reward","48","233683","0.0-48.0","p902712","A2NXMRPHG86N2T","3FVBZG9CLKK1M1GPZWGJX51HFG80HB","37C0GNLMHH9IBGVW5RIB45RZJ2U6DR","emotion","mismatch","uniform","","","","","","","","237179.30000001192","239188.70000000298","","","","","","","","","","","","10","","stimuli/stars_10.png","67.5","","","","","stimuli/WM13_HO.jpg","",""
"explore-choice","49","236753","0.0-49.0","p902712","A2NXMRPHG86N2T","3FVBZG9CLKK1M1GPZWGJX51HFG80HB","37C0GNLMHH9IBGVW5RIB45RZJ2U6DR","emotion","mismatch","uniform","","","","","","","2563.5","239192.20000000298","241755.70000000298","[""stimuli/BF05_HO.jpg"",""stimuli/HM10_AO.jpg"",""stimuli/WM13_DO.jpg"",""stimuli/BF04_CC.jpg""]","stimuli/BF05_HO.jpg","stimuli/HM10_AO.jpg","stimuli/WM13_DO.jpg","stimuli/BF04_CC.jpg","pos3","stimuli/WM13_DO.jpg","DO","WM13","2","1","2","4","stimuli/stars_2.png","68.5","[""HO"",""AO"",""DO"",""CC""]","[""BF05"",""HM10"",""WM13"",""BF04""]","[9,5,2,1]","[8,6,4,2]","","",""
"show-reward","50","238788","0.0-50.0","p902712","A2NXMRPHG86N2T","3FVBZG9CLKK1M1GPZWGJX51HFG80HB","37C0GNLMHH9IBGVW5RIB45RZJ2U6DR","emotion","mismatch","uniform","","","","","","","","242262.60000000894","244294.20000000298","","","","","","","","","","","","2","","stimuli/stars_2.png","68.5","","","","","stimuli/WM13_DO.jpg","",""
"explore-choice","51","242832","0.0-51.0","p902712","A2NXMRPHG86N2T","3FVBZG9CLKK1M1GPZWGJX51HFG80HB","37C0GNLMHH9IBGVW5RIB45RZJ2U6DR","emotion","mismatch","uniform","","","","","","","3529.7999999970198","244298.10000000894","247827.90000000596","[""stimuli/BF04_HO.jpg"",""stimuli/BF05_CC.jpg"",""stimuli/WM13_AO.jpg"",""stimuli/HM10_DO.jpg""]","stimuli/BF04_HO.jpg","stimuli/BF05_CC.jpg","stimuli/WM13_AO.jpg","stimuli/HM10_DO.jpg","pos3","stimuli/WM13_AO.jpg","AO","WM13","2","2","4","6","stimuli/stars_4.png","70.5","[""HO"",""CC"",""AO"",""DO""]","[""BF04"",""BF05"",""WM13"",""HM10""]","[10,3,4,2]","[8,2,6,4]","","",""
"show-reward","52","244918","0.0-52.0","p902712","A2NXMRPHG86N2T","3FVBZG9CLKK1M1GPZWGJX51HFG80HB","37C0GNLMHH9IBGVW5RIB45RZJ2U6DR","emotion","mismatch","uniform","","","","","","","","248354.40000000596","250423.90000000596","","","","","","","","","","","","4","","stimuli/stars_4.png","70.5","","","","","stimuli/WM13_AO.jpg","",""
"explore-choice","53","248768","0.0-53.0","p902712","A2NXMRPHG86N2T","3FVBZG9CLKK1M1GPZWGJX51HFG80HB","37C0GNLMHH9IBGVW5RIB45RZJ2U6DR","emotion","mismatch","uniform","","","","","","","3345","250427.60000000894","253772.60000000894","[""stimuli/HM10_HO.jpg"",""stimuli/BF05_DO.jpg"",""stimuli/BF04_CC.jpg"",""stimuli/WM13_AO.jpg""]","stimuli/HM10_HO.jpg","stimuli/BF05_DO.jpg","stimuli/BF04_CC.jpg","stimuli/WM13_AO.jpg","pos1","stimuli/HM10_HO.jpg","HO","HM10","0","3","6","8","stimuli/stars_6.png","73.5","[""HO"",""DO"",""CC"",""AO""]","[""HM10"",""BF05"",""BF04"",""WM13""]","[6,6,1,5]","[8,4,2,6]","","",""
"show-reward","54","250783","0.0-54.0","p902712","A2NXMRPHG86N2T","3FVBZG9CLKK1M1GPZWGJX51HFG80HB","37C0GNLMHH9IBGVW5RIB45RZJ2U6DR","emotion","mismatch","uniform","","","","","","","","254277.5","256289.20000000298","","","","","","","","","","","","6","","stimuli/stars_6.png","73.5","","","","","stimuli/HM10_HO.jpg","",""
"explore-choice","55","252864","0.0-55.0","p902712","A2NXMRPHG86N2T","3FVBZG9CLKK1M1GPZWGJX51HFG80HB","37C0GNLMHH9IBGVW5RIB45RZJ2U6DR","emotion","mismatch","uniform","","","","","","","1564.2999999970198","256292.20000000298","257856.5","[""stimuli/WM13_AO.jpg"",""stimuli/BF04_DO.jpg"",""stimuli/BF05_HO.jpg"",""stimuli/HM10_CC.jpg""]","stimuli/WM13_AO.jpg","stimuli/BF04_DO.jpg","stimuli/BF05_HO.jpg","stimuli/HM10_CC.jpg","pos3","stimuli/BF05_HO.jpg","HO","BF05","2","3","6","8","stimuli/stars_6.png","76.5","[""AO"",""DO"",""HO"",""CC""]","[""WM13"",""BF04"",""BF05"",""HM10""]","[6,4,6,1]","[6,4,8,2]","","",""
"show-reward","56","254881","0.0-56.0","p902712","A2NXMRPHG86N2T","3FVBZG9CLKK1M1GPZWGJX51HFG80HB","37C0GNLMHH9IBGVW5RIB45RZJ2U6DR","emotion","mismatch","uniform","","","","","","","","258373.30000001192","260386.60000000894","","","","","","","","","","","","6","","stimuli/stars_6.png","76.5","","","","","stimuli/BF05_HO.jpg","",""
"explore-choice","57","258791","0.0-57.0","p902712","A2NXMRPHG86N2T","3FVBZG9CLKK1M1GPZWGJX51HFG80HB","37C0GNLMHH9IBGVW5RIB45RZJ2U6DR","emotion","mismatch","uniform","","","","","","","3389.4000000059605","260390.90000000596","263780.3000000119","[""stimuli/WM13_AO.jpg"",""stimuli/HM10_DO.jpg"",""stimuli/BF04_HO.jpg"",""stimuli/BF05_CC.jpg""]","stimuli/WM13_AO.jpg","stimuli/HM10_DO.jpg","stimuli/BF04_HO.jpg","stimuli/BF05_CC.jpg","pos3","stimuli/BF04_HO.jpg","HO","BF04","2","5","10","8","stimuli/stars_10.png","81.5","[""AO"",""DO"",""HO"",""CC""]","[""WM13"",""HM10"",""BF04"",""BF05""]","[4,2,10,3]","[6,4,8,2]","","",""
"show-reward","58","260831","0.0-58.0","p902712","A2NXMRPHG86N2T","3FVBZG9CLKK1M1GPZWGJX51HFG80HB","37C0GNLMHH9IBGVW5RIB45RZJ2U6DR","emotion","mismatch","uniform","","","","","","","","264307.40000000596","266336.700000003","","","","","","","","","","","","10","","stimuli/stars_10.png","81.5","","","","","stimuli/BF04_HO.jpg","",""
"explore-choice","59","262624","0.0-59.0","p902712","A2NXMRPHG86N2T","3FVBZG9CLKK1M1GPZWGJX51HFG80HB","37C0GNLMHH9IBGVW5RIB45RZJ2U6DR","emotion","mismatch","uniform","","","","","","","1279","266340.8000000119","267619.8000000119","[""stimuli/WM13_AO.jpg"",""stimuli/HM10_CC.jpg"",""stimuli/BF05_DO.jpg"",""stimuli/BF04_HO.jpg""]","stimuli/WM13_AO.jpg","stimuli/HM10_CC.jpg","stimuli/BF05_DO.jpg","stimuli/BF04_HO.jpg","pos4","stimuli/BF04_HO.jpg","HO","BF04","3","4.5","9","8","stimuli/stars_9.png","86","[""AO"",""CC"",""DO"",""HO""]","[""WM13"",""HM10"",""BF05"",""BF04""]","[4,3,6,9]","[6,2,4,8]","","",""
"show-reward","60","264644","0.0-60.0","p902712","A2NXMRPHG86N2T","3FVBZG9CLKK1M1GPZWGJX51HFG80HB","37C0GNLMHH9IBGVW5RIB45RZJ2U6DR","emotion","mismatch","uniform","","","","","","","","268133","270149.5","","","","","","","","","","","","9","","stimuli/stars_9.png","86","","","","","stimuli/BF04_HO.jpg","",""
"explore-choice","61","267624","0.0-61.0","p902712","A2NXMRPHG86N2T","3FVBZG9CLKK1M1GPZWGJX51HFG80HB","37C0GNLMHH9IBGVW5RIB45RZJ2U6DR","emotion","mismatch","uniform","","","","","","","2466.2999999970198","270153.8000000119","272620.10000000894","[""stimuli/WM13_HO.jpg"",""stimuli/BF04_DO.jpg"",""stimuli/HM10_AO.jpg"",""stimuli/BF05_CC.jpg""]","stimuli/WM13_HO.jpg","stimuli/BF04_DO.jpg","stimuli/HM10_AO.jpg","stimuli/BF05_CC.jpg","pos1","stimuli/WM13_HO.jpg","HO","WM13","0","5","10","8","stimuli/stars_10.png","91","[""HO"",""DO"",""AO"",""CC""]","[""WM13"",""BF04"",""HM10"",""BF05""]","[10,2,6,3]","[8,4,6,2]","","",""
"show-reward","62","269677","0.0-62.0","p902712","A2NXMRPHG86N2T","3FVBZG9CLKK1M1GPZWGJX51HFG80HB","37C0GNLMHH9IBGVW5RIB45RZJ2U6DR","emotion","mismatch","uniform","","","","","","","","273133.40000000596","275183.40000000596","","","","","","","","","","","","10","","stimuli/stars_10.png","91","","","","","stimuli/WM13_HO.jpg","",""
"explore-choice","63","272355","0.0-63.0","p902712","A2NXMRPHG86N2T","3FVBZG9CLKK1M1GPZWGJX51HFG80HB","37C0GNLMHH9IBGVW5RIB45RZJ2U6DR","emotion","mismatch","uniform","","","","","","","2153.5","275202.60000000894","277356.10000000894","[""stimuli/BF04_CC.jpg"",""stimuli/BF05_HO.jpg"",""stimuli/HM10_DO.jpg"",""stimuli/WM13_AO.jpg""]","stimuli/BF04_CC.jpg","stimuli/BF05_HO.jpg","stimuli/HM10_DO.jpg","stimuli/WM13_AO.jpg","pos2","stimuli/BF05_HO.jpg","HO","BF05","1","4","8","8","stimuli/stars_8.png","95","[""CC"",""HO"",""DO"",""AO""]","[""BF04"",""BF05"",""HM10"",""WM13""]","[2,8,4,7]","[2,8,4,6]","","",""
"show-reward","64","274374","0.0-64.0","p902712","A2NXMRPHG86N2T","3FVBZG9CLKK1M1GPZWGJX51HFG80HB","37C0GNLMHH9IBGVW5RIB45RZJ2U6DR","emotion","mismatch","uniform","","","","","","","","277867.5","279879.90000000596","","","","","","","","","","","","8","","stimuli/stars_8.png","95","","","","","stimuli/BF05_HO.jpg","",""
"explore-choice","65","278317","0.0-65.0","p902712","A2NXMRPHG86N2T","3FVBZG9CLKK1M1GPZWGJX51HFG80HB","37C0GNLMHH9IBGVW5RIB45RZJ2U6DR","emotion","mismatch","uniform","","","","","","","3415.800000011921","279884","283299.8000000119","[""stimuli/WM13_DO.jpg"",""stimuli/BF04_AO.jpg"",""stimuli/BF05_CC.jpg"",""stimuli/HM10_HO.jpg""]","stimuli/WM13_DO.jpg","stimuli/BF04_AO.jpg","stimuli/BF05_CC.jpg","stimuli/HM10_HO.jpg","pos1","stimuli/WM13_DO.jpg","DO","WM13","0","1","2","4","stimuli/stars_2.png","96","[""DO"",""AO"",""CC"",""HO""]","[""WM13"",""BF04"",""BF05"",""HM10""]","[2,7,3,10]","[4,6,2,8]","","",""
"show-reward","66","280351","0.0-66.0","p902712","A2NXMRPHG86N2T","3FVBZG9CLKK1M1GPZWGJX51HFG80HB","37C0GNLMHH9IBGVW5RIB45RZJ2U6DR","emotion","mismatch","uniform","","","","","","","","283833","285855.5","","","","","","","","","","","","2","","stimuli/stars_2.png","96","","","","","stimuli/WM13_DO.jpg","",""
"explore-choice","67","379848","0.0-67.0","p902712","A2NXMRPHG86N2T","3FVBZG9CLKK1M1GPZWGJX51HFG80HB","37C0GNLMHH9IBGVW5RIB45RZJ2U6DR","emotion","mismatch","uniform","","","","","","","98988.5","285864.5","384853","[""stimuli/BF04_CC.jpg"",""stimuli/BF05_DO.jpg"",""stimuli/WM13_HO.jpg"",""stimuli/HM10_AO.jpg""]","stimuli/BF04_CC.jpg","stimuli/BF05_DO.jpg","stimuli/WM13_HO.jpg","stimuli/HM10_AO.jpg","pos3","stimuli/WM13_HO.jpg","HO","WM13","2","5","10","8","stimuli/stars_10.png","101","[""CC"",""DO"",""HO"",""AO""]","[""BF04"",""BF05"",""WM13"",""HM10""]","[0,2,10,5]","[2,4,8,6]","","",""
"show-reward","68","381872","0.0-68.0","p902712","A2NXMRPHG86N2T","3FVBZG9CLKK1M1GPZWGJX51HFG80HB","37C0GNLMHH9IBGVW5RIB45RZJ2U6DR","emotion","mismatch","uniform","","","","","","","","385358.40000000596","387378.40000000596","","","","","","","","","","","","10","","stimuli/stars_10.png","101","","","","","stimuli/WM13_HO.jpg","",""
"explore-choice","69","383470","0.0-69.0","p902712","A2NXMRPHG86N2T","3FVBZG9CLKK1M1GPZWGJX51HFG80HB","37C0GNLMHH9IBGVW5RIB45RZJ2U6DR","emotion","mismatch","uniform","","","","","","","1082.5","387382.8000000119","388465.3000000119","[""stimuli/BF04_HO.jpg"",""stimuli/WM13_DO.jpg"",""stimuli/BF05_CC.jpg"",""stimuli/HM10_AO.jpg""]","stimuli/BF04_HO.jpg","stimuli/WM13_DO.jpg","stimuli/BF05_CC.jpg","stimuli/HM10_AO.jpg","pos1","stimuli/BF04_HO.jpg","HO","BF04","0","4","8","8","stimuli/stars_8.png","105","[""HO"",""DO"",""CC"",""AO""]","[""BF04"",""WM13"",""BF05"",""HM10""]","[8,5,2,7]","[8,4,2,6]","","",""
"show-reward","70","385498","0.0-70.0","p902712","A2NXMRPHG86N2T","3FVBZG9CLKK1M1GPZWGJX51HFG80HB","37C0GNLMHH9IBGVW5RIB45RZJ2U6DR","emotion","mismatch","uniform","","","","","","","","388979.90000000596","391003.5","","","","","","","","","","","","8","","stimuli/stars_8.png","105","","","","","stimuli/BF04_HO.jpg","",""
"explore-choice","71","390702","0.0-71.0","p902712","A2NXMRPHG86N2T","3FVBZG9CLKK1M1GPZWGJX51HFG80HB","37C0GNLMHH9IBGVW5RIB45RZJ2U6DR","emotion","mismatch","uniform","","","","","","","4685.0999999940395","391010.10000000894","395695.200000003","[""stimuli/BF04_HO.jpg"",""stimuli/WM13_DO.jpg"",""stimuli/HM10_CC.jpg"",""stimuli/BF05_AO.jpg""]","stimuli/BF04_HO.jpg","stimuli/WM13_DO.jpg","stimuli/HM10_CC.jpg","stimuli/BF05_AO.jpg","pos4","stimuli/BF05_AO.jpg","AO","BF05","3","2","4","6","stimuli/stars_4.png","107","[""HO"",""DO"",""CC"",""AO""]","[""BF04"",""WM13"",""HM10"",""BF05""]","[6,6,0,4]","[8,4,2,6]","","",""
"show-reward","72","392715","0.0-72.0","p902712","A2NXMRPHG86N2T","3FVBZG9CLKK1M1GPZWGJX51HFG80HB","37C0GNLMHH9IBGVW5RIB45RZJ2U6DR","emotion","mismatch","uniform","","","","","","","","396212.10000000894","398221.40000000596","","","","","","","","","","","","4","","stimuli/stars_4.png","107","","","","","stimuli/BF05_AO.jpg","",""
"explore-choice","73","396305","0.0-73.0","p902712","A2NXMRPHG86N2T","3FVBZG9CLKK1M1GPZWGJX51HFG80HB","37C0GNLMHH9IBGVW5RIB45RZJ2U6DR","emotion","mismatch","uniform","","","","","","","3063.5","398225.40000000596","401288.90000000596","[""stimuli/WM13_CC.jpg"",""stimuli/BF05_HO.jpg"",""stimuli/HM10_AO.jpg"",""stimuli/BF04_DO.jpg""]","stimuli/WM13_CC.jpg","stimuli/BF05_HO.jpg","stimuli/HM10_AO.jpg","stimuli/BF04_DO.jpg","pos2","stimuli/BF05_HO.jpg","HO","BF05","1","3","6","8","stimuli/stars_6.png","110","[""CC"",""HO"",""AO"",""DO""]","[""WM13"",""BF05"",""HM10"",""BF04""]","[2,6,4,2]","[2,8,6,4]","","",""
"show-reward","74","398318","0.0-74.0","p902712","A2NXMRPHG86N2T","3FVBZG9CLKK1M1GPZWGJX51HFG80HB","37C0GNLMHH9IBGVW5RIB45RZJ2U6DR","emotion","mismatch","uniform","","","","","","","","401815.60000000894","403824.60000000894","","","","","","","","","","","","6","","stimuli/stars_6.png","110","","","","","stimuli/BF05_HO.jpg","",""
"explore-choice","75","400213","0.0-75.0","p902712","A2NXMRPHG86N2T","3FVBZG9CLKK1M1GPZWGJX51HFG80HB","37C0GNLMHH9IBGVW5RIB45RZJ2U6DR","emotion","mismatch","uniform","","","","","","","1389.699999988079","403828.8000000119","405218.5","[""stimuli/BF05_AO.jpg"",""stimuli/BF04_HO.jpg"",""stimuli/WM13_CC.jpg"",""stimuli/HM10_DO.jpg""]","stimuli/BF05_AO.jpg","stimuli/BF04_HO.jpg","stimuli/WM13_CC.jpg","stimuli/HM10_DO.jpg","pos2","stimuli/BF04_HO.jpg","HO","BF04","1","3","6","8","stimuli/stars_6.png","113","[""AO"",""HO"",""CC"",""DO""]","[""BF05"",""BF04"",""WM13"",""HM10""]","[6,6,0,4]","[6,8,2,4]","","",""
"show-reward","76","402243","0.0-76.0","p902712","A2NXMRPHG86N2T","3FVBZG9CLKK1M1GPZWGJX51HFG80HB","37C0GNLMHH9IBGVW5RIB45RZJ2U6DR","emotion","mismatch","uniform","","","","","","","","405723.60000000894","407749","","","","","","","","","","","","6","","stimuli/stars_6.png","113","","","","","stimuli/BF04_HO.jpg","",""
"explore-choice","77","404251","0.0-77.0","p902712","A2NXMRPHG86N2T","3FVBZG9CLKK1M1GPZWGJX51HFG80HB","37C0GNLMHH9IBGVW5RIB45RZJ2U6DR","emotion","mismatch","uniform","","","","","","","1486.6000000089407","407753.5","409240.10000000894","[""stimuli/WM13_AO.jpg"",""stimuli/BF05_CC.jpg"",""stimuli/BF04_DO.jpg"",""stimuli/HM10_HO.jpg""]","stimuli/WM13_AO.jpg","stimuli/BF05_CC.jpg","stimuli/BF04_DO.jpg","stimuli/HM10_HO.jpg","pos4","stimuli/HM10_HO.jpg","HO","HM10","3","3.5","7","8","stimuli/stars_7.png","116.5","[""AO"",""CC"",""DO"",""HO""]","[""WM13"",""BF05"",""BF04"",""HM10""]","[5,2,6,7]","[6,2,4,8]","","",""
"show-reward","78","406285","0.0-78.0","p902712","A2NXMRPHG86N2T","3FVBZG9CLKK1M1GPZWGJX51HFG80HB","37C0GNLMHH9IBGVW5RIB45RZJ2U6DR","emotion","mismatch","uniform","","","","","","","","409765.200000003","411791.10000000894","","","","","","","","","","","","7","","stimuli/stars_7.png","116.5","","","","","stimuli/HM10_HO.jpg","",""
"explore-choice","79","408678","0.0-79.0","p902712","A2NXMRPHG86N2T","3FVBZG9CLKK1M1GPZWGJX51HFG80HB","37C0GNLMHH9IBGVW5RIB45RZJ2U6DR","emotion","mismatch","uniform","","","","","","","1882.300000011921","411794","413676.3000000119","[""stimuli/WM13_CC.jpg"",""stimuli/HM10_DO.jpg"",""stimuli/BF04_AO.jpg"",""stimuli/BF05_HO.jpg""]","stimuli/WM13_CC.jpg","stimuli/HM10_DO.jpg","stimuli/BF04_AO.jpg","stimuli/BF05_HO.jpg","pos4","stimuli/BF05_HO.jpg","HO","BF05","3","3","6","8","stimuli/stars_6.png","119.5","[""CC"",""DO"",""AO"",""HO""]","[""WM13"",""HM10"",""BF04"",""BF05""]","[1,3,6,6]","[2,4,6,8]","","",""
"show-reward","80","410694","0.0-80.0","p902712","A2NXMRPHG86N2T","3FVBZG9CLKK1M1GPZWGJX51HFG80HB","37C0GNLMHH9IBGVW5RIB45RZJ2U6DR","emotion","mismatch","uniform","","","","","","","","414187.5","416199.3000000119","","","","","","","","","","","","6","","stimuli/stars_6.png","119.5","","","","","stimuli/BF05_HO.jpg","",""
"explore-choice","81","415744","0.0-81.0","p902712","A2NXMRPHG86N2T","3FVBZG9CLKK1M1GPZWGJX51HFG80HB","37C0GNLMHH9IBGVW5RIB45RZJ2U6DR","emotion","mismatch","uniform","","","","","","","4534.5","416210.90000000596","420745.40000000596","[""stimuli/HM10_CC.jpg"",""stimuli/BF04_AO.jpg"",""stimuli/WM13_DO.jpg"",""stimuli/BF05_HO.jpg""]","stimuli/HM10_CC.jpg","stimuli/BF04_AO.jpg","stimuli/WM13_DO.jpg","stimuli/BF05_HO.jpg","pos2","stimuli/BF04_AO.jpg","AO","BF04","1","2","4","6","stimuli/stars_4.png","121.5","[""CC"",""AO"",""DO"",""HO""]","[""HM10"",""BF04"",""WM13"",""BF05""]","[0,4,4,8]","[2,6,4,8]","","",""
"show-reward","82","417764","0.0-82.0","p902712","A2NXMRPHG86N2T","3FVBZG9CLKK1M1GPZWGJX51HFG80HB","37C0GNLMHH9IBGVW5RIB45RZJ2U6DR","emotion","mismatch","uniform","","","","","","","","421253.90000000596","423269.200000003","","","","","","","","","","","","4","","stimuli/stars_4.png","121.5","","","","","stimuli/BF04_AO.jpg","",""
"explore-choice","83","419573","0.0-83.0","p902712","A2NXMRPHG86N2T","3FVBZG9CLKK1M1GPZWGJX51HFG80HB","37C0GNLMHH9IBGVW5RIB45RZJ2U6DR","emotion","mismatch","uniform","","","","","","","1302.6000000089407","423274","424576.60000000894","[""stimuli/HM10_HO.jpg"",""stimuli/WM13_CC.jpg"",""stimuli/BF04_DO.jpg"",""stimuli/BF05_AO.jpg""]","stimuli/HM10_HO.jpg","stimuli/WM13_CC.jpg","stimuli/BF04_DO.jpg","stimuli/BF05_AO.jpg","pos4","stimuli/BF05_AO.jpg","AO","BF05","3","2.5","5","6","stimuli/stars_5.png","124","[""HO"",""CC"",""DO"",""AO""]","[""HM10"",""WM13"",""BF04"",""BF05""]","[10,1,3,5]","[8,2,4,6]","","",""
"show-reward","84","421604","0.0-84.0","p902712","A2NXMRPHG86N2T","3FVBZG9CLKK1M1GPZWGJX51HFG80HB","37C0GNLMHH9IBGVW5RIB45RZJ2U6DR","emotion","mismatch","uniform","","","","","","","","425082.60000000894","427109.60000000894","","","","","","","","","","","","5","","stimuli/stars_5.png","124","","","","","stimuli/BF05_AO.jpg","",""
"explore-choice","85","423353","0.0-85.0","p902712","A2NXMRPHG86N2T","3FVBZG9CLKK1M1GPZWGJX51HFG80HB","37C0GNLMHH9IBGVW5RIB45RZJ2U6DR","emotion","mismatch","uniform","","","","","","","1238","427114.90000000596","428352.90000000596","[""stimuli/BF04_CC.jpg"",""stimuli/HM10_DO.jpg"",""stimuli/BF05_AO.jpg"",""stimuli/WM13_HO.jpg""]","stimuli/BF04_CC.jpg","stimuli/HM10_DO.jpg","stimuli/BF05_AO.jpg","stimuli/WM13_HO.jpg","pos4","stimuli/WM13_HO.jpg","HO","WM13","3","4","8","8","stimuli/stars_8.png","128","[""CC"",""DO"",""AO"",""HO""]","[""BF04"",""HM10"",""BF05"",""WM13""]","[3,6,4,8]","[2,4,6,8]","","",""
"show-reward","86","425380","0.0-86.0","p902712","A2NXMRPHG86N2T","3FVBZG9CLKK1M1GPZWGJX51HFG80HB","37C0GNLMHH9IBGVW5RIB45RZJ2U6DR","emotion","mismatch","uniform","","","","","","","","428862.90000000596","430884.8000000119","","","","","","","","","","","","8","","stimuli/stars_8.png","128","","","","","stimuli/WM13_HO.jpg","",""
"explore-choice","87","428955","0.0-87.0","p902712","A2NXMRPHG86N2T","3FVBZG9CLKK1M1GPZWGJX51HFG80HB","37C0GNLMHH9IBGVW5RIB45RZJ2U6DR","emotion","mismatch","uniform","","","","","","","3055","430890.10000000894","433945.10000000894","[""stimuli/BF04_HO.jpg"",""stimuli/BF05_DO.jpg"",""stimuli/HM10_AO.jpg"",""stimuli/WM13_CC.jpg""]","stimuli/BF04_HO.jpg","stimuli/BF05_DO.jpg","stimuli/HM10_AO.jpg","stimuli/WM13_CC.jpg","pos2","stimuli/BF05_DO.jpg","DO","BF05","1","1.5","3","4","stimuli/stars_3.png","129.5","[""HO"",""DO"",""AO"",""CC""]","[""BF04"",""BF05"",""HM10"",""WM13""]","[9,3,8,0]","[8,4,6,2]","","",""
"show-reward","88","430982","0.0-88.0","p902712","A2NXMRPHG86N2T","3FVBZG9CLKK1M1GPZWGJX51HFG80HB","37C0GNLMHH9IBGVW5RIB45RZJ2U6DR","emotion","mismatch","uniform","","","","","","","","434467.60000000894","436487.60000000894","","","","","","","","","","","","3","","stimuli/stars_3.png","129.5","","","","","stimuli/BF05_DO.jpg","",""
"explore-choice","89","433291","0.0-89.0","p902712","A2NXMRPHG86N2T","3FVBZG9CLKK1M1GPZWGJX51HFG80HB","37C0GNLMHH9IBGVW5RIB45RZJ2U6DR","emotion","mismatch","uniform","","","","","","","1771","436518.10000000894","438289.10000000894","[""stimuli/BF04_AO.jpg"",""stimuli/BF05_DO.jpg"",""stimuli/WM13_HO.jpg"",""stimuli/HM10_CC.jpg""]","stimuli/BF04_AO.jpg","stimuli/BF05_DO.jpg","stimuli/WM13_HO.jpg","stimuli/HM10_CC.jpg","pos1","stimuli/BF04_AO.jpg","AO","BF04","0","3","6","6","stimuli/stars_6.png","132.5","[""AO"",""DO"",""HO"",""CC""]","[""BF04"",""BF05"",""WM13"",""HM10""]","[6,2,8,2]","[6,4,8,2]","","",""
"show-reward","90","435320","0.0-90.0","p902712","A2NXMRPHG86N2T","3FVBZG9CLKK1M1GPZWGJX51HFG80HB","37C0GNLMHH9IBGVW5RIB45RZJ2U6DR","emotion","mismatch","uniform","","","","","","","","438801.5","440825.3000000119","","","","","","","","","","","","6","","stimuli/stars_6.png","132.5","","","","","stimuli/BF04_AO.jpg","",""
"explore-choice","91","440880","0.0-91.0","p902712","A2NXMRPHG86N2T","3FVBZG9CLKK1M1GPZWGJX51HFG80HB","37C0GNLMHH9IBGVW5RIB45RZJ2U6DR","emotion","mismatch","uniform","","","","","","","5045.9000000059605","440831.5","445877.40000000596","[""stimuli/WM13_DO.jpg"",""stimuli/BF05_HO.jpg"",""stimuli/HM10_AO.jpg"",""stimuli/BF04_CC.jpg""]","stimuli/WM13_DO.jpg","stimuli/BF05_HO.jpg","stimuli/HM10_AO.jpg","stimuli/BF04_CC.jpg","pos4","stimuli/BF04_CC.jpg","CC","BF04","3","0.5","1","2","stimuli/stars_1.png","133","[""DO"",""HO"",""AO"",""CC""]","[""WM13"",""BF05"",""HM10"",""BF04""]","[2,9,5,1]","[4,8,6,2]","","",""
"show-reward","92","442902","0.0-92.0","p902712","A2NXMRPHG86N2T","3FVBZG9CLKK1M1GPZWGJX51HFG80HB","37C0GNLMHH9IBGVW5RIB45RZJ2U6DR","emotion","mismatch","uniform","","","","","","","","446390.8000000119","448407.700000003","","","","","","","","","","","","1","","stimuli/stars_1.png","133","","","","","stimuli/BF04_CC.jpg","",""
"explore-choice","93","450710","0.0-93.0","p902712","A2NXMRPHG86N2T","3FVBZG9CLKK1M1GPZWGJX51HFG80HB","37C0GNLMHH9IBGVW5RIB45RZJ2U6DR","emotion","mismatch","uniform","","","","","","","7295.600000008941","448411.200000003","455706.8000000119","[""stimuli/WM13_DO.jpg"",""stimuli/BF04_CC.jpg"",""stimuli/HM10_HO.jpg"",""stimuli/BF05_AO.jpg""]","stimuli/WM13_DO.jpg","stimuli/BF04_CC.jpg","stimuli/HM10_HO.jpg","stimuli/BF05_AO.jpg","pos4","stimuli/BF05_AO.jpg","AO","BF05","3","2","4","6","stimuli/stars_4.png","135","[""DO"",""CC"",""HO"",""AO""]","[""WM13"",""BF04"",""HM10"",""BF05""]","[4,4,7,4]","[4,2,8,6]","","",""
"show-reward","94","452730","0.0-94.0","p902712","A2NXMRPHG86N2T","3FVBZG9CLKK1M1GPZWGJX51HFG80HB","37C0GNLMHH9IBGVW5RIB45RZJ2U6DR","emotion","mismatch","uniform","","","","","","","","456219.3000000119","458235.40000000596","","","","","","","","","","","","4","","stimuli/stars_4.png","135","","","","","stimuli/BF05_AO.jpg","",""
"explore-choice","95","456431","0.0-95.0","p902712","A2NXMRPHG86N2T","3FVBZG9CLKK1M1GPZWGJX51HFG80HB","37C0GNLMHH9IBGVW5RIB45RZJ2U6DR","emotion","mismatch","uniform","","","","","","","3196.2999999970198","458238.8000000119","461435.10000000894","[""stimuli/WM13_CC.jpg"",""stimuli/BF05_DO.jpg"",""stimuli/HM10_HO.jpg"",""stimuli/BF04_AO.jpg""]","stimuli/WM13_CC.jpg","stimuli/BF05_DO.jpg","stimuli/HM10_HO.jpg","stimuli/BF04_AO.jpg","pos4","stimuli/BF04_AO.jpg","AO","BF04","3","2.5","5","6","stimuli/stars_5.png","137.5","[""CC"",""DO"",""HO"",""AO""]","[""WM13"",""BF05"",""HM10"",""BF04""]","[1,5,7,5]","[2,4,8,6]","","",""
"show-reward","96","458449","0.0-96.0","p902712","A2NXMRPHG86N2T","3FVBZG9CLKK1M1GPZWGJX51HFG80HB","37C0GNLMHH9IBGVW5RIB45RZJ2U6DR","emotion","mismatch","uniform","","","","","","","","461939.700000003","463955.3000000119","","","","","","","","","","","","5","","stimuli/stars_5.png","137.5","","","","","stimuli/BF04_AO.jpg","",""
"explore-choice","97","460750","0.0-97.0","p902712","A2NXMRPHG86N2T","3FVBZG9CLKK1M1GPZWGJX51HFG80HB","37C0GNLMHH9IBGVW5RIB45RZJ2U6DR","emotion","mismatch","uniform","","","","","","","1780","463958.3000000119","465738.3000000119","[""stimuli/WM13_HO.jpg"",""stimuli/BF04_DO.jpg"",""stimuli/BF05_AO.jpg"",""stimuli/HM10_CC.jpg""]","stimuli/WM13_HO.jpg","stimuli/BF04_DO.jpg","stimuli/BF05_AO.jpg","stimuli/HM10_CC.jpg","pos1","stimuli/WM13_HO.jpg","HO","WM13","0","3.5","7","8","stimuli/stars_7.png","141","[""HO"",""DO"",""AO"",""CC""]","[""WM13"",""BF04"",""BF05"",""HM10""]","[7,2,8,0]","[8,4,6,2]","","",""
"show-reward","98","462767","0.0-98.0","p902712","A2NXMRPHG86N2T","3FVBZG9CLKK1M1GPZWGJX51HFG80HB","37C0GNLMHH9IBGVW5RIB45RZJ2U6DR","emotion","mismatch","uniform","","","","","","","","466259.5","468271","","","","","","","","","","","","7","","stimuli/stars_7.png","141","","","","","stimuli/WM13_HO.jpg","",""
"explore-choice","99","468631","0.0-99.0","p902712","A2NXMRPHG86N2T","3FVBZG9CLKK1M1GPZWGJX51HFG80HB","37C0GNLMHH9IBGVW5RIB45RZJ2U6DR","emotion","mismatch","uniform","","","","","","","5346.0999999940395","468276.40000000596","473622.5","[""stimuli/BF04_CC.jpg"",""stimuli/BF05_DO.jpg"",""stimuli/WM13_AO.jpg"",""stimuli/HM10_HO.jpg""]","stimuli/BF04_CC.jpg","stimuli/BF05_DO.jpg","stimuli/WM13_AO.jpg","stimuli/HM10_HO.jpg","pos4","stimuli/HM10_HO.jpg","HO","HM10","3","3","6","8","stimuli/stars_6.png","144","[""CC"",""DO"",""AO"",""HO""]","[""BF04"",""BF05"",""WM13"",""HM10""]","[1,6,5,6]","[2,4,6,8]","","",""
"show-reward","100","470646","0.0-100.0","p902712","A2NXMRPHG86N2T","3FVBZG9CLKK1M1GPZWGJX51HFG80HB","37C0GNLMHH9IBGVW5RIB45RZJ2U6DR","emotion","mismatch","uniform","","","","","","","","474140.200000003","476151.200000003","","","","","","","","","","","","6","","stimuli/stars_6.png","144","","","","","stimuli/HM10_HO.jpg","",""
"explore-choice","101","473185","0.0-101.0","p902712","A2NXMRPHG86N2T","3FVBZG9CLKK1M1GPZWGJX51HFG80HB","37C0GNLMHH9IBGVW5RIB45RZJ2U6DR","emotion","mismatch","uniform","","","","","","","2031.0999999940395","476157.3000000119","478188.40000000596","[""stimuli/BF05_CC.jpg"",""stimuli/WM13_HO.jpg"",""stimuli/HM10_DO.jpg"",""stimuli/BF04_AO.jpg""]","stimuli/BF05_CC.jpg","stimuli/WM13_HO.jpg","stimuli/HM10_DO.jpg","stimuli/BF04_AO.jpg","pos2","stimuli/WM13_HO.jpg","HO","WM13","1","4.5","9","8","stimuli/stars_9.png","148.5","[""CC"",""HO"",""DO"",""AO""]","[""BF05"",""WM13"",""HM10"",""BF04""]","[3,9,5,5]","[2,8,4,6]","","",""
"show-reward","102","475220","0.0-102.0","p902712","A2NXMRPHG86N2T","3FVBZG9CLKK1M1GPZWGJX51HFG80HB","37C0GNLMHH9IBGVW5RIB45RZJ2U6DR","emotion","mismatch","uniform","","","","","","","","478694.60000000894","480726.10000000894","","","","","","","","","","","","9","","stimuli/stars_9.png","148.5","","","","","stimuli/WM13_HO.jpg","",""
"explore-choice","103","480122","0.0-103.0","p902712","A2NXMRPHG86N2T","3FVBZG9CLKK1M1GPZWGJX51HFG80HB","37C0GNLMHH9IBGVW5RIB45RZJ2U6DR","emotion","mismatch","uniform","","","","","","","4392.9000000059605","480728.90000000596","485121.8000000119","[""stimuli/WF06_SUR.jpg"",""stimuli/BM03_SC.jpg"",""stimuli/HM02_FO.jpg"",""stimuli/HF10_HE.jpg""]","stimuli/WF06_SUR.jpg","stimuli/BM03_SC.jpg","stimuli/HM02_FO.jpg","stimuli/HF10_HE.jpg","pos4","stimuli/HF10_HE.jpg","HE","HF10","3","1","2","4","stimuli/stars_2.png","149.5","[""SUR"",""SC"",""FO"",""HE""]","[""WF06"",""BM03"",""HM02"",""HF10""]","[3,9,5,2]","[2,8,6,4]","","",""
"show-reward","104","482140","0.0-104.0","p902712","A2NXMRPHG86N2T","3FVBZG9CLKK1M1GPZWGJX51HFG80HB","37C0GNLMHH9IBGVW5RIB45RZJ2U6DR","emotion","mismatch","uniform","","","","","","","","485632.8000000119","487646","","","","","","","","","","","","2","","stimuli/stars_2.png","149.5","","","","","stimuli/HF10_HE.jpg","",""
"explore-choice","105","485400","0.0-105.0","p902712","A2NXMRPHG86N2T","3FVBZG9CLKK1M1GPZWGJX51HFG80HB","37C0GNLMHH9IBGVW5RIB45RZJ2U6DR","emotion","mismatch","uniform","","","","","","","2743.5","487648.8000000119","490392.3000000119","[""stimuli/WF06_SUR.jpg"",""stimuli/HM02_SC.jpg"",""stimuli/HF10_HE.jpg"",""stimuli/BM03_FO.jpg""]","stimuli/WF06_SUR.jpg","stimuli/HM02_SC.jpg","stimuli/HF10_HE.jpg","stimuli/BM03_FO.jpg","pos4","stimuli/BM03_FO.jpg","FO","BM03","3","3.5","7","8","stimuli/stars_7.png","153","[""SUR"",""SC"",""HE"",""FO""]","[""WF06"",""HM02"",""HF10"",""BM03""]","[1,4,2,7]","[2,6,4,8]","","",""
"show-reward","106","487432","0.0-106.0","p902712","A2NXMRPHG86N2T","3FVBZG9CLKK1M1GPZWGJX51HFG80HB","37C0GNLMHH9IBGVW5RIB45RZJ2U6DR","emotion","mismatch","uniform","","","","","","","","490909.8000000119","492936.5","","","","","","","","","","","","7","","stimuli/stars_7.png","153","","","","","stimuli/BM03_FO.jpg","",""
"explore-choice","107","493328","0.0-107.0","p902712","A2NXMRPHG86N2T","3FVBZG9CLKK1M1GPZWGJX51HFG80HB","37C0GNLMHH9IBGVW5RIB45RZJ2U6DR","emotion","mismatch","uniform","","","","","","","5378.5999999940395","492945.40000000596","498324","[""stimuli/BM03_FO.jpg"",""stimuli/WF06_SC.jpg"",""stimuli/HM02_SUR.jpg"",""stimuli/HF10_HE.jpg""]","stimuli/BM03_FO.jpg","stimuli/WF06_SC.jpg","stimuli/HM02_SUR.jpg","stimuli/HF10_HE.jpg","pos1","stimuli/BM03_FO.jpg","FO","BM03","0","3.5","7","8","stimuli/stars_7.png","156.5","[""FO"",""SC"",""SUR"",""HE""]","[""BM03"",""WF06"",""HM02"",""HF10""]","[7,0,4,4]","[8,2,6,4]","","",""
"show-reward","108","495345","0.0-108.0","p902712","A2NXMRPHG86N2T","3FVBZG9CLKK1M1GPZWGJX51HFG80HB","37C0GNLMHH9IBGVW5RIB45RZJ2U6DR","emotion","mismatch","uniform","","","","","","","","498837.90000000596","500851.700000003","","","","","","","","","","","","7","","stimuli/stars_7.png","156.5","","","","","stimuli/BM03_FO.jpg","",""
"explore-choice","109","497341","0.0-109.0","p902712","A2NXMRPHG86N2T","3FVBZG9CLKK1M1GPZWGJX51HFG80HB","37C0GNLMHH9IBGVW5RIB45RZJ2U6DR","emotion","mismatch","uniform","","","","","","","1484.9000000059605","500854.5","502339.40000000596","[""stimuli/WF06_SC.jpg"",""stimuli/BM03_SUR.jpg"",""stimuli/HF10_HE.jpg"",""stimuli/HM02_FO.jpg""]","stimuli/WF06_SC.jpg","stimuli/BM03_SUR.jpg","stimuli/HF10_HE.jpg","stimuli/HM02_FO.jpg","pos2","stimuli/BM03_SUR.jpg","SUR","BM03","1","5","10","8","stimuli/stars_10.png","161.5","[""SC"",""SUR"",""HE"",""FO""]","[""WF06"",""BM03"",""HF10"",""HM02""]","[1,10,3,4]","[2,8,4,6]","","",""
"show-reward","110","499361","0.0-110.0","p902712","A2NXMRPHG86N2T","3FVBZG9CLKK1M1GPZWGJX51HFG80HB","37C0GNLMHH9IBGVW5RIB45RZJ2U6DR","emotion","mismatch","uniform","","","","","","","","502850","504867.60000000894","","","","","","","","","","","","10","","stimuli/stars_10.png","161.5","","","","","stimuli/BM03_SUR.jpg","",""
"explore-choice","111","501157","0.0-111.0","p902712","A2NXMRPHG86N2T","3FVBZG9CLKK1M1GPZWGJX51HFG80HB","37C0GNLMHH9IBGVW5RIB45RZJ2U6DR","emotion","mismatch","uniform","","","","","","","1281.2999999970198","504873.3000000119","506154.60000000894","[""stimuli/HF10_SUR.jpg"",""stimuli/BM03_FO.jpg"",""stimuli/WF06_SC.jpg"",""stimuli/HM02_HE.jpg""]","stimuli/HF10_SUR.jpg","stimuli/BM03_FO.jpg","stimuli/WF06_SC.jpg","stimuli/HM02_HE.jpg","pos2","stimuli/BM03_FO.jpg","FO","BM03","1","4","8","8","stimuli/stars_8.png","165.5","[""SUR"",""FO"",""SC"",""HE""]","[""HF10"",""BM03"",""WF06"",""HM02""]","[5,8,0,6]","[4,8,2,6]","","",""
"show-reward","112","503186","0.0-112.0","p902712","A2NXMRPHG86N2T","3FVBZG9CLKK1M1GPZWGJX51HFG80HB","37C0GNLMHH9IBGVW5RIB45RZJ2U6DR","emotion","mismatch","uniform","","","","","","","","506666.3000000119","508692.10000000894","","","","","","","","","","","","8","","stimuli/stars_8.png","165.5","","","","","stimuli/BM03_FO.jpg","",""
"explore-choice","113","506133","0.0-113.0","p902712","A2NXMRPHG86N2T","3FVBZG9CLKK1M1GPZWGJX51HFG80HB","37C0GNLMHH9IBGVW5RIB45RZJ2U6DR","emotion","mismatch","uniform","","","","","","","2438.4000000059605","508695.40000000596","511133.8000000119","[""stimuli/HM02_SUR.jpg"",""stimuli/WF06_HE.jpg"",""stimuli/BM03_SC.jpg"",""stimuli/HF10_FO.jpg""]","stimuli/HM02_SUR.jpg","stimuli/WF06_HE.jpg","stimuli/BM03_SC.jpg","stimuli/HF10_FO.jpg","pos2","stimuli/WF06_HE.jpg","HE","WF06","1","1.5","3","2","stimuli/stars_3.png","167","[""SUR"",""HE"",""SC"",""FO""]","[""HM02"",""WF06"",""BM03"",""HF10""]","[5,3,6,6]","[6,2,8,4]","","",""
"show-reward","114","508162","0.0-114.0","p902712","A2NXMRPHG86N2T","3FVBZG9CLKK1M1GPZWGJX51HFG80HB","37C0GNLMHH9IBGVW5RIB45RZJ2U6DR","emotion","mismatch","uniform","","","","","","","","511644.90000000596","513666.8000000119","","","","","","","","","","","","3","","stimuli/stars_3.png","167","","","","","stimuli/WF06_HE.jpg","",""
"explore-choice","115","512271","0.0-115.0","p902712","A2NXMRPHG86N2T","3FVBZG9CLKK1M1GPZWGJX51HFG80HB","37C0GNLMHH9IBGVW5RIB45RZJ2U6DR","emotion","mismatch","uniform","","","","","","","3597.4000000059605","513671.40000000596","517268.8000000119","[""stimuli/HF10_HE.jpg"",""stimuli/BM03_SC.jpg"",""stimuli/HM02_SUR.jpg"",""stimuli/WF06_FO.jpg""]","stimuli/HF10_HE.jpg","stimuli/BM03_SC.jpg","stimuli/HM02_SUR.jpg","stimuli/WF06_FO.jpg","pos3","stimuli/HM02_SUR.jpg","SUR","HM02","2","4","8","6","stimuli/stars_8.png","171","[""HE"",""SC"",""SUR"",""FO""]","[""HF10"",""BM03"",""HM02"",""WF06""]","[4,8,8,2]","[4,8,6,2]","","",""
"show-reward","116","514298","0.0-116.0","p902712","A2NXMRPHG86N2T","3FVBZG9CLKK1M1GPZWGJX51HFG80HB","37C0GNLMHH9IBGVW5RIB45RZJ2U6DR","emotion","mismatch","uniform","","","","","","","","517780.700000003","519803.60000000894","","","","","","","","","","","","8","","stimuli/stars_8.png","171","","","","","stimuli/HM02_SUR.jpg","",""
"explore-choice","117","518467","0.0-117.0","p902712","A2NXMRPHG86N2T","3FVBZG9CLKK1M1GPZWGJX51HFG80HB","37C0GNLMHH9IBGVW5RIB45RZJ2U6DR","emotion","mismatch","uniform","","","","","","","3650.6000000089407","519809.200000003","523459.8000000119","[""stimuli/WF06_SUR.jpg"",""stimuli/HF10_FO.jpg"",""stimuli/BM03_SC.jpg"",""stimuli/HM02_HE.jpg""]","stimuli/WF06_SUR.jpg","stimuli/HF10_FO.jpg","stimuli/BM03_SC.jpg","stimuli/HM02_HE.jpg","pos2","stimuli/HF10_FO.jpg","FO","HF10","1","2","4","4","stimuli/stars_4.png","173","[""SUR"",""FO"",""SC"",""HE""]","[""WF06"",""HF10"",""BM03"",""HM02""]","[2,4,7,4]","[2,4,8,6]","","",""
"show-reward","118","520501","0.0-118.0","p902712","A2NXMRPHG86N2T","3FVBZG9CLKK1M1GPZWGJX51HFG80HB","37C0GNLMHH9IBGVW5RIB45RZJ2U6DR","emotion","mismatch","uniform","","","","","","","","523980.60000000894","526007.200000003","","","","","","","","","","","","4","","stimuli/stars_4.png","173","","","","","stimuli/HF10_FO.jpg","",""
"explore-choice","119","523122","0.0-119.0","p902712","A2NXMRPHG86N2T","3FVBZG9CLKK1M1GPZWGJX51HFG80HB","37C0GNLMHH9IBGVW5RIB45RZJ2U6DR","emotion","mismatch","uniform","","","","","","","2104.7000000029802","526010.6000000089","528115.3000000119","[""stimuli/WF06_SUR.jpg"",""stimuli/BM03_HE.jpg"",""stimuli/HF10_FO.jpg"",""stimuli/HM02_SC.jpg""]","stimuli/WF06_SUR.jpg","stimuli/BM03_HE.jpg","stimuli/HF10_FO.jpg","stimuli/HM02_SC.jpg","pos2","stimuli/BM03_HE.jpg","HE","BM03","1","3.5","7","8","stimuli/stars_7.png","176.5","[""SUR"",""HE"",""FO"",""SC""]","[""WF06"",""BM03"",""HF10"",""HM02""]","[2,7,4,7]","[2,8,4,6]","","",""
"show-reward","120","525137","0.0-120.0","p902712","A2NXMRPHG86N2T","3FVBZG9CLKK1M1GPZWGJX51HFG80HB","37C0GNLMHH9IBGVW5RIB45RZJ2U6DR","emotion","mismatch","uniform","","","","","","","","528631","530642.8000000119","","","","","","","","","","","","7","","stimuli/stars_7.png","176.5","","","","","stimuli/BM03_HE.jpg","",""
"explore-choice","121","526831","0.0-121.0","p902712","A2NXMRPHG86N2T","3FVBZG9CLKK1M1GPZWGJX51HFG80HB","37C0GNLMHH9IBGVW5RIB45RZJ2U6DR","emotion","mismatch","uniform","","","","","","","1176.7999999970198","530646.3000000119","531823.1000000089","[""stimuli/BM03_HE.jpg"",""stimuli/WF06_SC.jpg"",""stimuli/HM02_FO.jpg"",""stimuli/HF10_SUR.jpg""]","stimuli/BM03_HE.jpg","stimuli/WF06_SC.jpg","stimuli/HM02_FO.jpg","stimuli/HF10_SUR.jpg","pos1","stimuli/BM03_HE.jpg","HE","BM03","0","4.5","9","8","stimuli/stars_9.png","181","[""HE"",""SC"",""FO"",""SUR""]","[""BM03"",""WF06"",""HM02"",""HF10""]","[9,4,6,3]","[8,2,6,4]","","",""
"show-reward","122","528864","0.0-122.0","p902712","A2NXMRPHG86N2T","3FVBZG9CLKK1M1GPZWGJX51HFG80HB","37C0GNLMHH9IBGVW5RIB45RZJ2U6DR","emotion","mismatch","uniform","","","","","","","","532340.400000006","534369.5","","","","","","","","","","","","9","","stimuli/stars_9.png","181","","","","","stimuli/BM03_HE.jpg","",""
"explore-choice","123","531499","0.0-123.0","p902712","A2NXMRPHG86N2T","3FVBZG9CLKK1M1GPZWGJX51HFG80HB","37C0GNLMHH9IBGVW5RIB45RZJ2U6DR","emotion","mismatch","uniform","","","","","","","2121.6000000089407","534374","536495.6000000089","[""stimuli/BM03_FO.jpg"",""stimuli/WF06_SUR.jpg"",""stimuli/HM02_HE.jpg"",""stimuli/HF10_SC.jpg""]","stimuli/BM03_FO.jpg","stimuli/WF06_SUR.jpg","stimuli/HM02_HE.jpg","stimuli/HF10_SC.jpg","pos1","stimuli/BM03_FO.jpg","FO","BM03","0","3.5","7","8","stimuli/stars_7.png","184.5","[""FO"",""SUR"",""HE"",""SC""]","[""BM03"",""WF06"",""HM02"",""HF10""]","[7,1,7,4]","[8,2,6,4]","","",""
"show-reward","124","533517","0.0-124.0","p902712","A2NXMRPHG86N2T","3FVBZG9CLKK1M1GPZWGJX51HFG80HB","37C0GNLMHH9IBGVW5RIB45RZJ2U6DR","emotion","mismatch","uniform","","","","","","","","537008.900000006","539023","","","","","","","","","","","","7","","stimuli/stars_7.png","184.5","","","","","stimuli/BM03_FO.jpg","",""
"explore-choice","125","535730","0.0-125.0","p902712","A2NXMRPHG86N2T","3FVBZG9CLKK1M1GPZWGJX51HFG80HB","37C0GNLMHH9IBGVW5RIB45RZJ2U6DR","emotion","mismatch","uniform","","","","","","","1697.4000000059605","539027.400000006","540724.8000000119","[""stimuli/HF10_SC.jpg"",""stimuli/WF06_SUR.jpg"",""stimuli/BM03_HE.jpg"",""stimuli/HM02_FO.jpg""]","stimuli/HF10_SC.jpg","stimuli/WF06_SUR.jpg","stimuli/BM03_HE.jpg","stimuli/HM02_FO.jpg","pos3","stimuli/BM03_HE.jpg","HE","BM03","2","4","8","8","stimuli/stars_8.png","188.5","[""SC"",""SUR"",""HE"",""FO""]","[""HF10"",""WF06"",""BM03"",""HM02""]","[2,0,8,8]","[4,2,8,6]","","",""
"show-reward","126","537753","0.0-126.0","p902712","A2NXMRPHG86N2T","3FVBZG9CLKK1M1GPZWGJX51HFG80HB","37C0GNLMHH9IBGVW5RIB45RZJ2U6DR","emotion","mismatch","uniform","","","","","","","","541239.8000000119","543258.900000006","","","","","","","","","","","","8","","stimuli/stars_8.png","188.5","","","","","stimuli/BM03_HE.jpg","",""
"explore-choice","127","539682","0.0-127.0","p902712","A2NXMRPHG86N2T","3FVBZG9CLKK1M1GPZWGJX51HFG80HB","37C0GNLMHH9IBGVW5RIB45RZJ2U6DR","emotion","mismatch","uniform","","","","","","","1420.7000000029802","543266","544686.700000003","[""stimuli/HF10_FO.jpg"",""stimuli/BM03_HE.jpg"",""stimuli/WF06_SC.jpg"",""stimuli/HM02_SUR.jpg""]","stimuli/HF10_FO.jpg","stimuli/BM03_HE.jpg","stimuli/WF06_SC.jpg","stimuli/HM02_SUR.jpg","pos2","stimuli/BM03_HE.jpg","HE","BM03","1","3","6","8","stimuli/stars_6.png","191.5","[""FO"",""HE"",""SC"",""SUR""]","[""HF10"",""BM03"",""WF06"",""HM02""]","[6,6,0,4]","[4,8,2,6]","","",""
"show-reward","128","541697","0.0-128.0","p902712","A2NXMRPHG86N2T","3FVBZG9CLKK1M1GPZWGJX51HFG80HB","37C0GNLMHH9IBGVW5RIB45RZJ2U6DR","emotion","mismatch","uniform","","","","","","","","545191.200000003","547203.1000000089","","","","","","","","","","","","6","","stimuli/stars_6.png","191.5","","","","","stimuli/BM03_HE.jpg","",""
"explore-choice","129","543917","0.0-129.0","p902712","A2NXMRPHG86N2T","3FVBZG9CLKK1M1GPZWGJX51HFG80HB","37C0GNLMHH9IBGVW5RIB45RZJ2U6DR","emotion","mismatch","uniform","","","","","","","1699.7999999970198","547206.3000000119","548906.1000000089","[""stimuli/BM03_FO.jpg"",""stimuli/HF10_SC.jpg"",""stimuli/HM02_SUR.jpg"",""stimuli/WF06_HE.jpg""]","stimuli/BM03_FO.jpg","stimuli/HF10_SC.jpg","stimuli/HM02_SUR.jpg","stimuli/WF06_HE.jpg","pos1","stimuli/BM03_FO.jpg","FO","BM03","0","3.5","7","8","stimuli/stars_7.png","195","[""FO"",""SC"",""SUR"",""HE""]","[""BM03"",""HF10"",""HM02"",""WF06""]","[7,5,7,0]","[8,4,6,2]","","",""
"show-reward","130","545952","0.0-130.0","p902712","A2NXMRPHG86N2T","3FVBZG9CLKK1M1GPZWGJX51HFG80HB","37C0GNLMHH9IBGVW5RIB45RZJ2U6DR","emotion","mismatch","uniform","","","","","","","","549427.700000003","551458","","","","","","","","","","","","7","","stimuli/stars_7.png","195","","","","","stimuli/BM03_FO.jpg","",""
"explore-choice","131","547773","0.0-131.0","p902712","A2NXMRPHG86N2T","3FVBZG9CLKK1M1GPZWGJX51HFG80HB","37C0GNLMHH9IBGVW5RIB45RZJ2U6DR","emotion","mismatch","uniform","","","","","","","1303.2999999970198","551461.3000000119","552764.6000000089","[""stimuli/HM02_FO.jpg"",""stimuli/WF06_HE.jpg"",""stimuli/BM03_SC.jpg"",""stimuli/HF10_SUR.jpg""]","stimuli/HM02_FO.jpg","stimuli/WF06_HE.jpg","stimuli/BM03_SC.jpg","stimuli/HF10_SUR.jpg","pos3","stimuli/BM03_SC.jpg","SC","BM03","2","3.5","7","8","stimuli/stars_7.png","198.5","[""FO"",""HE"",""SC"",""SUR""]","[""HM02"",""WF06"",""BM03"",""HF10""]","[7,2,7,5]","[6,2,8,4]","","",""
"show-reward","132","549807","0.0-132.0","p902712","A2NXMRPHG86N2T","3FVBZG9CLKK1M1GPZWGJX51HFG80HB","37C0GNLMHH9IBGVW5RIB45RZJ2U6DR","emotion","mismatch","uniform","","","","","","","","553284.5","555313.3000000119","","","","","","","","","","","","7","","stimuli/stars_7.png","198.5","","","","","stimuli/BM03_SC.jpg","",""
"explore-choice","133","551343","0.0-133.0","p902712","A2NXMRPHG86N2T","3FVBZG9CLKK1M1GPZWGJX51HFG80HB","37C0GNLMHH9IBGVW5RIB45RZJ2U6DR","emotion","mismatch","uniform","","","","","","","1031.1000000089407","555316.700000003","556347.8000000119","[""stimuli/HF10_SC.jpg"",""stimuli/WF06_HE.jpg"",""stimuli/HM02_FO.jpg"",""stimuli/BM03_SUR.jpg""]","stimuli/HF10_SC.jpg","stimuli/WF06_HE.jpg","stimuli/HM02_FO.jpg","stimuli/BM03_SUR.jpg","pos4","stimuli/BM03_SUR.jpg","SUR","BM03","3","3.5","7","8","stimuli/stars_7.png","202","[""SC"",""HE"",""FO"",""SUR""]","[""HF10"",""WF06"",""HM02"",""BM03""]","[2,1,4,7]","[4,2,6,8]","","",""
"show-reward","134","553358","0.0-134.0","p902712","A2NXMRPHG86N2T","3FVBZG9CLKK1M1GPZWGJX51HFG80HB","37C0GNLMHH9IBGVW5RIB45RZJ2U6DR","emotion","mismatch","uniform","","","","","","","","556853.400000006","558863.400000006","","","","","","","","","","","","7","","stimuli/stars_7.png","202","","","","","stimuli/BM03_SUR.jpg","",""
"explore-choice","135","555203","0.0-135.0","p902712","A2NXMRPHG86N2T","3FVBZG9CLKK1M1GPZWGJX51HFG80HB","37C0GNLMHH9IBGVW5RIB45RZJ2U6DR","emotion","mismatch","uniform","","","","","","","1330","558867.200000003","560197.200000003","[""stimuli/HF10_FO.jpg"",""stimuli/BM03_SUR.jpg"",""stimuli/HM02_HE.jpg"",""stimuli/WF06_SC.jpg""]","stimuli/HF10_FO.jpg","stimuli/BM03_SUR.jpg","stimuli/HM02_HE.jpg","stimuli/WF06_SC.jpg","pos2","stimuli/BM03_SUR.jpg","SUR","BM03","1","4.5","9","8","stimuli/stars_9.png","206.5","[""FO"",""SUR"",""HE"",""SC""]","[""HF10"",""BM03"",""HM02"",""WF06""]","[2,9,7,0]","[4,8,6,2]","","",""
"show-reward","136","557264","0.0-136.0","p902712","A2NXMRPHG86N2T","3FVBZG9CLKK1M1GPZWGJX51HFG80HB","37C0GNLMHH9IBGVW5RIB45RZJ2U6DR","emotion","mismatch","uniform","","","","","","","","560722.6000000089","562768.6000000089","","","","","","","","","","","","9","","stimuli/stars_9.png","206.5","","","","","stimuli/BM03_SUR.jpg","",""
"explore-choice","137","558613","0.0-137.0","p902712","A2NXMRPHG86N2T","3FVBZG9CLKK1M1GPZWGJX51HFG80HB","37C0GNLMHH9IBGVW5RIB45RZJ2U6DR","emotion","mismatch","uniform","","","","","","","831.2000000029802","562773.1000000089","563604.3000000119","[""stimuli/WF06_FO.jpg"",""stimuli/BM03_SUR.jpg"",""stimuli/HM02_SC.jpg"",""stimuli/HF10_HE.jpg""]","stimuli/WF06_FO.jpg","stimuli/BM03_SUR.jpg","stimuli/HM02_SC.jpg","stimuli/HF10_HE.jpg","pos2","stimuli/BM03_SUR.jpg","SUR","BM03","1","3.5","7","8","stimuli/stars_7.png","210","[""FO"",""SUR"",""SC"",""HE""]","[""WF06"",""BM03"",""HM02"",""HF10""]","[2,7,4,5]","[2,8,6,4]","","",""
"show-reward","138","560634","0.0-138.0","p902712","A2NXMRPHG86N2T","3FVBZG9CLKK1M1GPZWGJX51HFG80HB","37C0GNLMHH9IBGVW5RIB45RZJ2U6DR","emotion","mismatch","uniform","","","","","","","","564121.5","566138.6000000089","","","","","","","","","","","","7","","stimuli/stars_7.png","210","","","","","stimuli/BM03_SUR.jpg","",""
"explore-choice","139","563003","0.0-139.0","p902712","A2NXMRPHG86N2T","3FVBZG9CLKK1M1GPZWGJX51HFG80HB","37C0GNLMHH9IBGVW5RIB45RZJ2U6DR","emotion","mismatch","uniform","","","","","","","1863.7000000029802","566142.5","568006.200000003","[""stimuli/HM02_SC.jpg"",""stimuli/HF10_FO.jpg"",""stimuli/BM03_SUR.jpg"",""stimuli/WF06_HE.jpg""]","stimuli/HM02_SC.jpg","stimuli/HF10_FO.jpg","stimuli/BM03_SUR.jpg","stimuli/WF06_HE.jpg","pos3","stimuli/BM03_SUR.jpg","SUR","BM03","2","4.5","9","8","stimuli/stars_9.png","214.5","[""SC"",""FO"",""SUR"",""HE""]","[""HM02"",""HF10"",""BM03"",""WF06""]","[7,3,9,2]","[6,4,8,2]","","",""
"show-reward","140","565038","0.0-140.0","p902712","A2NXMRPHG86N2T","3FVBZG9CLKK1M1GPZWGJX51HFG80HB","37C0GNLMHH9IBGVW5RIB45RZJ2U6DR","emotion","mismatch","uniform","","","","","","","","568512.700000003","570543.6000000089","","","","","","","","","","","","9","","stimuli/stars_9.png","214.5","","","","","stimuli/BM03_SUR.jpg","",""
"explore-choice","141","570480","0.0-141.0","p902712","A2NXMRPHG86N2T","3FVBZG9CLKK1M1GPZWGJX51HFG80HB","37C0GNLMHH9IBGVW5RIB45RZJ2U6DR","emotion","mismatch","uniform","","","","","","","4937.29999999702","570547.8000000119","575485.1000000089","[""stimuli/BM03_SC.jpg"",""stimuli/WF06_FO.jpg"",""stimuli/HM02_HE.jpg"",""stimuli/HF10_SUR.jpg""]","stimuli/BM03_SC.jpg","stimuli/WF06_FO.jpg","stimuli/HM02_HE.jpg","stimuli/HF10_SUR.jpg","pos1","stimuli/BM03_SC.jpg","SC","BM03","0","3.5","7","8","stimuli/stars_7.png","218","[""SC"",""FO"",""HE"",""SUR""]","[""BM03"",""WF06"",""HM02"",""HF10""]","[7,3,4,2]","[8,2,6,4]","","",""
"show-reward","142","572582","0.0-142.0","p902712","A2NXMRPHG86N2T","3FVBZG9CLKK1M1GPZWGJX51HFG80HB","37C0GNLMHH9IBGVW5RIB45RZJ2U6DR","emotion","mismatch","uniform","","","","","","","","575989.8000000119","578087","","","","","","","","","","","","7","","stimuli/stars_7.png","218","","","","","stimuli/BM03_SC.jpg","",""
"explore-choice","143","574283","0.0-143.0","p902712","A2NXMRPHG86N2T","3FVBZG9CLKK1M1GPZWGJX51HFG80HB","37C0GNLMHH9IBGVW5RIB45RZJ2U6DR","emotion","mismatch","uniform","","","","","","","1185.0999999940395","578091.6000000089","579276.700000003","[""stimuli/HF10_SC.jpg"",""stimuli/HM02_SUR.jpg"",""stimuli/WF06_FO.jpg"",""stimuli/BM03_HE.jpg""]","stimuli/HF10_SC.jpg","stimuli/HM02_SUR.jpg","stimuli/WF06_FO.jpg","stimuli/BM03_HE.jpg","pos4","stimuli/BM03_HE.jpg","HE","BM03","3","4.5","9","8","stimuli/stars_9.png","222.5","[""SC"",""SUR"",""FO"",""HE""]","[""HF10"",""HM02"",""WF06"",""BM03""]","[4,5,3,9]","[4,6,2,8]","","",""
"show-reward","144","576305","0.0-144.0","p902712","A2NXMRPHG86N2T","3FVBZG9CLKK1M1GPZWGJX51HFG80HB","37C0GNLMHH9IBGVW5RIB45RZJ2U6DR","emotion","mismatch","uniform","","","","","","","","579792.1000000089","581808.6000000089","","","","","","","","","","","","9","","stimuli/stars_9.png","222.5","","","","","stimuli/BM03_HE.jpg","",""
"explore-choice","145","577718","0.0-145.0","p902712","A2NXMRPHG86N2T","3FVBZG9CLKK1M1GPZWGJX51HFG80HB","37C0GNLMHH9IBGVW5RIB45RZJ2U6DR","emotion","mismatch","uniform","","","","","","","906.5","581815.700000003","582722.200000003","[""stimuli/HF10_SUR.jpg"",""stimuli/HM02_SC.jpg"",""stimuli/BM03_FO.jpg"",""stimuli/WF06_HE.jpg""]","stimuli/HF10_SUR.jpg","stimuli/HM02_SC.jpg","stimuli/BM03_FO.jpg","stimuli/WF06_HE.jpg","pos3","stimuli/BM03_FO.jpg","FO","BM03","2","3","6","8","stimuli/stars_6.png","225.5","[""SUR"",""SC"",""FO"",""HE""]","[""HF10"",""HM02"",""BM03"",""WF06""]","[2,6,6,1]","[4,6,8,2]","","",""
"show-reward","146","579734","0.0-146.0","p902712","A2NXMRPHG86N2T","3FVBZG9CLKK1M1GPZWGJX51HFG80HB","37C0GNLMHH9IBGVW5RIB45RZJ2U6DR","emotion","mismatch","uniform","","","","","","","","583226.900000006","585239.400000006","","","","","","","","","","","","6","","stimuli/stars_6.png","225.5","","","","","stimuli/BM03_FO.jpg","",""
"explore-choice","147","581369","0.0-147.0","p902712","A2NXMRPHG86N2T","3FVBZG9CLKK1M1GPZWGJX51HFG80HB","37C0GNLMHH9IBGVW5RIB45RZJ2U6DR","emotion","mismatch","uniform","","","","","","","1122.2000000029802","585242.6000000089","586364.8000000119","[""stimuli/HM02_SC.jpg"",""stimuli/WF06_FO.jpg"",""stimuli/HF10_SUR.jpg"",""stimuli/BM03_HE.jpg""]","stimuli/HM02_SC.jpg","stimuli/WF06_FO.jpg","stimuli/HF10_SUR.jpg","stimuli/BM03_HE.jpg","pos4","stimuli/BM03_HE.jpg","HE","BM03","3","5","10","8","stimuli/stars_10.png","230.5","[""SC"",""FO"",""SUR"",""HE""]","[""HM02"",""WF06"",""HF10"",""BM03""]","[7,3,3,10]","[6,2,4,8]","","",""
"show-reward","148","583395","0.0-148.0","p902712","A2NXMRPHG86N2T","3FVBZG9CLKK1M1GPZWGJX51HFG80HB","37C0GNLMHH9IBGVW5RIB45RZJ2U6DR","emotion","mismatch","uniform","","","","","","","","586877.900000006","588900.3000000119","","","","","","","","","","","","10","","stimuli/stars_10.png","230.5","","","","","stimuli/BM03_HE.jpg","",""
"explore-choice","149","584969","0.0-149.0","p902712","A2NXMRPHG86N2T","3FVBZG9CLKK1M1GPZWGJX51HFG80HB","37C0GNLMHH9IBGVW5RIB45RZJ2U6DR","emotion","mismatch","uniform","","","","","","","1051.7999999970198","588907.1000000089","589958.900000006","[""stimuli/HF10_SC.jpg"",""stimuli/BM03_SUR.jpg"",""stimuli/HM02_HE.jpg"",""stimuli/WF06_FO.jpg""]","stimuli/HF10_SC.jpg","stimuli/BM03_SUR.jpg","stimuli/HM02_HE.jpg","stimuli/WF06_FO.jpg","pos2","stimuli/BM03_SUR.jpg","SUR","BM03","1","3.5","7","8","stimuli/stars_7.png","234","[""SC"",""SUR"",""HE"",""FO""]","[""HF10"",""BM03"",""HM02"",""WF06""]","[6,7,7,4]","[4,8,6,2]","","",""
"show-reward","150","586990","0.0-150.0","p902712","A2NXMRPHG86N2T","3FVBZG9CLKK1M1GPZWGJX51HFG80HB","37C0GNLMHH9IBGVW5RIB45RZJ2U6DR","emotion","mismatch","uniform","","","","","","","","590477.6000000089","592494.8000000119","","","","","","","","","","","","7","","stimuli/stars_7.png","234","","","","","stimuli/BM03_SUR.jpg","",""
"explore-choice","151","588608","0.0-151.0","p902712","A2NXMRPHG86N2T","3FVBZG9CLKK1M1GPZWGJX51HFG80HB","37C0GNLMHH9IBGVW5RIB45RZJ2U6DR","emotion","mismatch","uniform","","","","","","","1113.3999999910593","592499.3000000119","593612.700000003","[""stimuli/HF10_FO.jpg"",""stimuli/HM02_SUR.jpg"",""stimuli/BM03_HE.jpg"",""stimuli/WF06_SC.jpg""]","stimuli/HF10_FO.jpg","stimuli/HM02_SUR.jpg","stimuli/BM03_HE.jpg","stimuli/WF06_SC.jpg","pos3","stimuli/BM03_HE.jpg","HE","BM03","2","3","6","8","stimuli/stars_6.png","237","[""FO"",""SUR"",""HE"",""SC""]","[""HF10"",""HM02"",""BM03"",""WF06""]","[6,4,6,0]","[4,6,8,2]","","",""
"show-reward","152","590629","0.0-152.0","p902712","A2NXMRPHG86N2T","3FVBZG9CLKK1M1GPZWGJX51HFG80HB","37C0GNLMHH9IBGVW5RIB45RZJ2U6DR","emotion","mismatch","uniform","","","","","","","","594117.200000003","596134.400000006","","","","","","","","","","","","6","","stimuli/stars_6.png","237","","","","","stimuli/BM03_HE.jpg","",""
"explore-choice","153","592194","0.0-153.0","p902712","A2NXMRPHG86N2T","3FVBZG9CLKK1M1GPZWGJX51HFG80HB","37C0GNLMHH9IBGVW5RIB45RZJ2U6DR","emotion","mismatch","uniform","","","","","","","1060","596138.700000003","597198.700000003","[""stimuli/WF06_SUR.jpg"",""stimuli/HM02_SC.jpg"",""stimuli/BM03_HE.jpg"",""stimuli/HF10_FO.jpg""]","stimuli/WF06_SUR.jpg","stimuli/HM02_SC.jpg","stimuli/BM03_HE.jpg","stimuli/HF10_FO.jpg","pos3","stimuli/BM03_HE.jpg","HE","BM03","2","3.5","7","8","stimuli/stars_7.png","240.5","[""SUR"",""SC"",""HE"",""FO""]","[""WF06"",""HM02"",""BM03"",""HF10""]","[2,7,7,4]","[2,6,8,4]","","",""
"show-reward","154","594221","0.0-154.0","p902712","A2NXMRPHG86N2T","3FVBZG9CLKK1M1GPZWGJX51HFG80HB","37C0GNLMHH9IBGVW5RIB45RZJ2U6DR","emotion","mismatch","uniform","","","","","","","","597706.900000006","599725.5","","","","","","","","","","","","7","","stimuli/stars_7.png","240.5","","","","","stimuli/BM03_HE.jpg","",""
"explore-choice","155","596525","0.0-155.0","p902712","A2NXMRPHG86N2T","3FVBZG9CLKK1M1GPZWGJX51HFG80HB","37C0GNLMHH9IBGVW5RIB45RZJ2U6DR","emotion","mismatch","uniform","","","","","","","1795.2999999970198","599732.700000003","601528","[""stimuli/HM02_SUR.jpg"",""stimuli/WF06_SC.jpg"",""stimuli/HF10_HE.jpg"",""stimuli/BM03_FO.jpg""]","stimuli/HM02_SUR.jpg","stimuli/WF06_SC.jpg","stimuli/HF10_HE.jpg","stimuli/BM03_FO.jpg","pos4","stimuli/BM03_FO.jpg","FO","BM03","3","3.5","7","8","stimuli/stars_7.png","244","[""SUR"",""SC"",""HE"",""FO""]","[""HM02"",""WF06"",""HF10"",""BM03""]","[4,0,4,7]","[6,2,4,8]","","",""
"show-reward","156","598587","0.0-156.0","p902712","A2NXMRPHG86N2T","3FVBZG9CLKK1M1GPZWGJX51HFG80HB","37C0GNLMHH9IBGVW5RIB45RZJ2U6DR","emotion","mismatch","uniform","","","","","","","","602036.1000000089","604091.900000006","","","","","","","","","","","","7","","stimuli/stars_7.png","244","","","","","stimuli/BM03_FO.jpg","",""
"explore-choice","157","602595","0.0-157.0","p902712","A2NXMRPHG86N2T","3FVBZG9CLKK1M1GPZWGJX51HFG80HB","37C0GNLMHH9IBGVW5RIB45RZJ2U6DR","emotion","mismatch","uniform","","","","","","","3501","604098.200000003","607599.200000003","[""stimuli/HF10_SC.jpg"",""stimuli/WF06_HE.jpg"",""stimuli/BM03_SUR.jpg"",""stimuli/HM02_FO.jpg""]","stimuli/HF10_SC.jpg","stimuli/WF06_HE.jpg","stimuli/BM03_SUR.jpg","stimuli/HM02_FO.jpg","pos3","stimuli/BM03_SUR.jpg","SUR","BM03","2","3.5","7","8","stimuli/stars_7.png","247.5","[""SC"",""HE"",""SUR"",""FO""]","[""HF10"",""WF06"",""BM03"",""HM02""]","[2,1,7,4]","[4,2,8,6]","","",""
"show-reward","158","604620","0.0-158.0","p902712","A2NXMRPHG86N2T","3FVBZG9CLKK1M1GPZWGJX51HFG80HB","37C0GNLMHH9IBGVW5RIB45RZJ2U6DR","emotion","mismatch","uniform","","","","","","","","608106.200000003","610125.400000006","","","","","","","","","","","","7","","stimuli/stars_7.png","247.5","","","","","stimuli/BM03_SUR.jpg","",""
"explore-choice","159","606328","0.0-159.0","p902712","A2NXMRPHG86N2T","3FVBZG9CLKK1M1GPZWGJX51HFG80HB","37C0GNLMHH9IBGVW5RIB45RZJ2U6DR","emotion","mismatch","uniform","","","","","","","1188.5","610129.6000000089","611318.1000000089","[""stimuli/BM03_SC.jpg"",""stimuli/HM02_FO.jpg"",""stimuli/WF06_SUR.jpg"",""stimuli/HF10_HE.jpg""]","stimuli/BM03_SC.jpg","stimuli/HM02_FO.jpg","stimuli/WF06_SUR.jpg","stimuli/HF10_HE.jpg","pos1","stimuli/BM03_SC.jpg","SC","BM03","0","4.5","9","8","stimuli/stars_9.png","252","[""SC"",""FO"",""SUR"",""HE""]","[""BM03"",""HM02"",""WF06"",""HF10""]","[9,5,3,2]","[8,6,2,4]","","",""
"show-reward","160","608357","0.0-160.0","p902712","A2NXMRPHG86N2T","3FVBZG9CLKK1M1GPZWGJX51HFG80HB","37C0GNLMHH9IBGVW5RIB45RZJ2U6DR","emotion","mismatch","uniform","","","","","","","","611839.700000003","613861.900000006","","","","","","","","","","","","9","","stimuli/stars_9.png","252","","","","","stimuli/BM03_SC.jpg","",""
"explore-choice","161","610451","0.0-161.0","p902712","A2NXMRPHG86N2T","3FVBZG9CLKK1M1GPZWGJX51HFG80HB","37C0GNLMHH9IBGVW5RIB45RZJ2U6DR","emotion","mismatch","uniform","","","","","","","1583.4000000059605","613872.900000006","615456.3000000119","[""stimuli/HF10_SC.jpg"",""stimuli/BM03_HE.jpg"",""stimuli/HM02_FO.jpg"",""stimuli/WF06_SUR.jpg""]","stimuli/HF10_SC.jpg","stimuli/BM03_HE.jpg","stimuli/HM02_FO.jpg","stimuli/WF06_SUR.jpg","pos2","stimuli/BM03_HE.jpg","HE","BM03","1","4","8","8","stimuli/stars_8.png","256","[""SC"",""HE"",""FO"",""SUR""]","[""HF10"",""BM03"",""HM02"",""WF06""]","[2,8,8,0]","[4,8,6,2]","","",""
"show-reward","162","612465","0.0-162.0","p902712","A2NXMRPHG86N2T","3FVBZG9CLKK1M1GPZWGJX51HFG80HB","37C0GNLMHH9IBGVW5RIB45RZJ2U6DR","emotion","mismatch","uniform","","","","","","","","615959.5","617970.700000003","","","","","","","","","","","","8","","stimuli/stars_8.png","256","","","","","stimuli/BM03_HE.jpg","",""
"explore-choice","163","614425","0.0-163.0","p902712","A2NXMRPHG86N2T","3FVBZG9CLKK1M1GPZWGJX51HFG80HB","37C0GNLMHH9IBGVW5RIB45RZJ2U6DR","emotion","mismatch","uniform","","","","","","","1442","617973.700000003","619415.700000003","[""stimuli/WF06_SC.jpg"",""stimuli/HF10_SUR.jpg"",""stimuli/BM03_FO.jpg"",""stimuli/HM02_HE.jpg""]","stimuli/WF06_SC.jpg","stimuli/HF10_SUR.jpg","stimuli/BM03_FO.jpg","stimuli/HM02_HE.jpg","pos4","stimuli/HM02_HE.jpg","HE","HM02","3","3","6","6","stimuli/stars_6.png","259","[""SC"",""SUR"",""FO"",""HE""]","[""WF06"",""HF10"",""BM03"",""HM02""]","[0,5,8,6]","[2,4,8,6]","","",""
"show-reward","164","616453","0.0-164.0","p902712","A2NXMRPHG86N2T","3FVBZG9CLKK1M1GPZWGJX51HFG80HB","37C0GNLMHH9IBGVW5RIB45RZJ2U6DR","emotion","mismatch","uniform","","","","","","","","619933.8000000119","621959","","","","","","","","","","","","6","","stimuli/stars_6.png","259","","","","","stimuli/HM02_HE.jpg","",""
"explore-choice","165","618475","0.0-165.0","p902712","A2NXMRPHG86N2T","3FVBZG9CLKK1M1GPZWGJX51HFG80HB","37C0GNLMHH9IBGVW5RIB45RZJ2U6DR","emotion","mismatch","uniform","","","","","","","1510.300000011921","621962","623472.3000000119","[""stimuli/HF10_HE.jpg"",""stimuli/WF06_FO.jpg"",""stimuli/HM02_SC.jpg"",""stimuli/BM03_SUR.jpg""]","stimuli/HF10_HE.jpg","stimuli/WF06_FO.jpg","stimuli/HM02_SC.jpg","stimuli/BM03_SUR.jpg","pos3","stimuli/HM02_SC.jpg","SC","HM02","2","2","4","6","stimuli/stars_4.png","261","[""HE"",""FO"",""SC"",""SUR""]","[""HF10"",""WF06"",""HM02"",""BM03""]","[5,2,4,7]","[4,2,6,8]","","",""
"show-reward","166","620499","0.0-166.0","p902712","A2NXMRPHG86N2T","3FVBZG9CLKK1M1GPZWGJX51HFG80HB","37C0GNLMHH9IBGVW5RIB45RZJ2U6DR","emotion","mismatch","uniform","","","","","","","","623986.6000000089","626005.400000006","","","","","","","","","","","","4","","stimuli/stars_4.png","261","","","","","stimuli/HM02_SC.jpg","",""
"explore-choice","167","623030","0.0-167.0","p902712","A2NXMRPHG86N2T","3FVBZG9CLKK1M1GPZWGJX51HFG80HB","37C0GNLMHH9IBGVW5RIB45RZJ2U6DR","emotion","mismatch","uniform","","","","","","","2015.7000000029802","626008.200000003","628023.900000006","[""stimuli/WF06_SC.jpg"",""stimuli/HM02_FO.jpg"",""stimuli/BM03_HE.jpg"",""stimuli/HF10_SUR.jpg""]","stimuli/WF06_SC.jpg","stimuli/HM02_FO.jpg","stimuli/BM03_HE.jpg","stimuli/HF10_SUR.jpg","pos2","stimuli/HM02_FO.jpg","FO","HM02","1","3","6","6","stimuli/stars_6.png","264","[""SC"",""FO"",""HE"",""SUR""]","[""WF06"",""HM02"",""BM03"",""HF10""]","[4,6,9,3]","[2,6,8,4]","","",""
"show-reward","168","625047","0.0-168.0","p902712","A2NXMRPHG86N2T","3FVBZG9CLKK1M1GPZWGJX51HFG80HB","37C0GNLMHH9IBGVW5RIB45RZJ2U6DR","emotion","mismatch","uniform","","","","","","","","628541.5","630553.200000003","","","","","","","","","","","","6","","stimuli/stars_6.png","264","","","","","stimuli/HM02_FO.jpg","",""
"explore-choice","169","626590","0.0-169.0","p902712","A2NXMRPHG86N2T","3FVBZG9CLKK1M1GPZWGJX51HFG80HB","37C0GNLMHH9IBGVW5RIB45RZJ2U6DR","emotion","mismatch","uniform","","","","","","","1026.4000000059605","630557.5","631583.900000006","[""stimuli/HM02_FO.jpg"",""stimuli/WF06_SC.jpg"",""stimuli/BM03_SUR.jpg"",""stimuli/HF10_HE.jpg""]","stimuli/HM02_FO.jpg","stimuli/WF06_SC.jpg","stimuli/BM03_SUR.jpg","stimuli/HF10_HE.jpg","pos1","stimuli/HM02_FO.jpg","FO","HM02","0","2","4","6","stimuli/stars_4.png","266","[""FO"",""SC"",""SUR"",""HE""]","[""HM02"",""WF06"",""BM03"",""HF10""]","[4,1,10,3]","[6,2,8,4]","","",""
"show-reward","170","628621","0.0-170.0","p902712","A2NXMRPHG86N2T","3FVBZG9CLKK1M1GPZWGJX51HFG80HB","37C0GNLMHH9IBGVW5RIB45RZJ2U6DR","emotion","mismatch","uniform","","","","","","","","632100.8000000119","634125.6000000089","","","","","","","","","","","","4","","stimuli/stars_4.png","266","","","","","stimuli/HM02_FO.jpg","",""
"explore-choice","171","630436","0.0-171.0","p902712","A2NXMRPHG86N2T","3FVBZG9CLKK1M1GPZWGJX51HFG80HB","37C0GNLMHH9IBGVW5RIB45RZJ2U6DR","emotion","mismatch","uniform","","","","","","","1302.2000000029802","634131.400000006","635433.6000000089","[""stimuli/BM03_SC.jpg"",""stimuli/HF10_SUR.jpg"",""stimuli/WF06_HE.jpg"",""stimuli/HM02_FO.jpg""]","stimuli/BM03_SC.jpg","stimuli/HF10_SUR.jpg","stimuli/WF06_HE.jpg","stimuli/HM02_FO.jpg","pos2","stimuli/HF10_SUR.jpg","SUR","HF10","1","2.5","5","4","stimuli/stars_5.png","268.5","[""SC"",""SUR"",""HE"",""FO""]","[""BM03"",""HF10"",""WF06"",""HM02""]","[7,5,2,7]","[8,4,2,6]","","",""
"show-reward","172","632450","0.0-172.0","p902712","A2NXMRPHG86N2T","3FVBZG9CLKK1M1GPZWGJX51HFG80HB","37C0GNLMHH9IBGVW5RIB45RZJ2U6DR","emotion","mismatch","uniform","","","","","","","","635945.3000000119","637955.900000006","","","","","","","","","","","","5","","stimuli/stars_5.png","268.5","","","","","stimuli/HF10_SUR.jpg","",""
"explore-choice","173","633981","0.0-173.0","p902712","A2NXMRPHG86N2T","3FVBZG9CLKK1M1GPZWGJX51HFG80HB","37C0GNLMHH9IBGVW5RIB45RZJ2U6DR","emotion","mismatch","uniform","","","","","","","1007.1000000089407","637959.700000003","638966.8000000119","[""stimuli/BM03_HE.jpg"",""stimuli/WF06_FO.jpg"",""stimuli/HF10_SUR.jpg"",""stimuli/HM02_SC.jpg""]","stimuli/BM03_HE.jpg","stimuli/WF06_FO.jpg","stimuli/HF10_SUR.jpg","stimuli/HM02_SC.jpg","pos3","stimuli/HF10_SUR.jpg","SUR","HF10","2","1.5","3","4","stimuli/stars_3.png","270","[""HE"",""FO"",""SUR"",""SC""]","[""BM03"",""WF06"",""HF10"",""HM02""]","[10,3,3,7]","[8,2,4,6]","","",""
"show-reward","174","636006","0.0-174.0","p902712","A2NXMRPHG86N2T","3FVBZG9CLKK1M1GPZWGJX51HFG80HB","37C0GNLMHH9IBGVW5RIB45RZJ2U6DR","emotion","mismatch","uniform","","","","","","","","639491.700000003","641511","","","","","","","","","","","","3","","stimuli/stars_3.png","270","","","","","stimuli/HF10_SUR.jpg","",""
"explore-choice","175","638343","0.0-175.0","p902712","A2NXMRPHG86N2T","3FVBZG9CLKK1M1GPZWGJX51HFG80HB","37C0GNLMHH9IBGVW5RIB45RZJ2U6DR","emotion","mismatch","uniform","","","","","","","1822.9000000059605","641515.200000003","643338.1000000089","[""stimuli/HF10_FO.jpg"",""stimuli/WF06_SUR.jpg"",""stimuli/BM03_SC.jpg"",""stimuli/HM02_HE.jpg""]","stimuli/HF10_FO.jpg","stimuli/WF06_SUR.jpg","stimuli/BM03_SC.jpg","stimuli/HM02_HE.jpg","pos2","stimuli/WF06_SUR.jpg","SUR","WF06","1","1","2","2","stimuli/stars_2.png","271","[""FO"",""SUR"",""SC"",""HE""]","[""HF10"",""WF06"",""BM03"",""HM02""]","[4,2,7,4]","[4,2,8,6]","","",""
"show-reward","176","640368","0.0-176.0","p902712","A2NXMRPHG86N2T","3FVBZG9CLKK1M1GPZWGJX51HFG80HB","37C0GNLMHH9IBGVW5RIB45RZJ2U6DR","emotion","mismatch","uniform","","","","","","","","643853.200000003","645872.8000000119","","","","","","","","","","","","2","","stimuli/stars_2.png","271","","","","","stimuli/WF06_SUR.jpg","",""
"explore-choice","177","642026","0.0-177.0","p902712","A2NXMRPHG86N2T","3FVBZG9CLKK1M1GPZWGJX51HFG80HB","37C0GNLMHH9IBGVW5RIB45RZJ2U6DR","emotion","mismatch","uniform","","","","","","","1136","645880.1000000089","647016.1000000089","[""stimuli/BM03_SUR.jpg"",""stimuli/HM02_SC.jpg"",""stimuli/WF06_HE.jpg"",""stimuli/HF10_FO.jpg""]","stimuli/BM03_SUR.jpg","stimuli/HM02_SC.jpg","stimuli/WF06_HE.jpg","stimuli/HF10_FO.jpg","pos1","stimuli/BM03_SUR.jpg","SUR","BM03","0","4.5","9","8","stimuli/stars_9.png","275.5","[""SUR"",""SC"",""HE"",""FO""]","[""BM03"",""HM02"",""WF06"",""HF10""]","[9,7,2,3]","[8,6,2,4]","","",""
"show-reward","178","644056","0.0-178.0","p902712","A2NXMRPHG86N2T","3FVBZG9CLKK1M1GPZWGJX51HFG80HB","37C0GNLMHH9IBGVW5RIB45RZJ2U6DR","emotion","mismatch","uniform","","","","","","","","647535.5","649561.400000006","","","","","","","","","","","","9","","stimuli/stars_9.png","275.5","","","","","stimuli/BM03_SUR.jpg","",""
"explore-choice","179","645437","0.0-179.0","p902712","A2NXMRPHG86N2T","3FVBZG9CLKK1M1GPZWGJX51HFG80HB","37C0GNLMHH9IBGVW5RIB45RZJ2U6DR","emotion","mismatch","uniform","","","","","","","858.9000000059605","649567.5","650426.400000006","[""stimuli/BM03_SC.jpg"",""stimuli/WF06_FO.jpg"",""stimuli/HF10_HE.jpg"",""stimuli/HM02_SUR.jpg""]","stimuli/BM03_SC.jpg","stimuli/WF06_FO.jpg","stimuli/HF10_HE.jpg","stimuli/HM02_SUR.jpg","pos1","stimuli/BM03_SC.jpg","SC","BM03","0","4","8","8","stimuli/stars_8.png","279.5","[""SC"",""FO"",""HE"",""SUR""]","[""BM03"",""WF06"",""HF10"",""HM02""]","[8,2,4,8]","[8,2,4,6]","","",""
"show-reward","180","647461","0.0-180.0","p902712","A2NXMRPHG86N2T","3FVBZG9CLKK1M1GPZWGJX51HFG80HB","37C0GNLMHH9IBGVW5RIB45RZJ2U6DR","emotion","mismatch","uniform","","","","","","","","650945.8000000119","652965.900000006","","","","","","","","","","","","8","","stimuli/stars_8.png","279.5","","","","","stimuli/BM03_SC.jpg","",""
"explore-choice","181","648895","0.0-181.0","p902712","A2NXMRPHG86N2T","3FVBZG9CLKK1M1GPZWGJX51HFG80HB","37C0GNLMHH9IBGVW5RIB45RZJ2U6DR","emotion","mismatch","uniform","","","","","","","930.1999999880791","652969.8000000119","653900","[""stimuli/HM02_SC.jpg"",""stimuli/BM03_FO.jpg"",""stimuli/HF10_SUR.jpg"",""stimuli/WF06_HE.jpg""]","stimuli/HM02_SC.jpg","stimuli/BM03_FO.jpg","stimuli/HF10_SUR.jpg","stimuli/WF06_HE.jpg","pos2","stimuli/BM03_FO.jpg","FO","BM03","1","3","6","8","stimuli/stars_6.png","282.5","[""SC"",""FO"",""SUR"",""HE""]","[""HM02"",""BM03"",""HF10"",""WF06""]","[6,6,2,1]","[6,8,4,2]","","",""
"show-reward","182","650937","0.0-182.0","p902712","A2NXMRPHG86N2T","3FVBZG9CLKK1M1GPZWGJX51HFG80HB","37C0GNLMHH9IBGVW5RIB45RZJ2U6DR","emotion","mismatch","uniform","","","","","","","","654407.1000000089","656441.700000003","","","","","","","","","","","","6","","stimuli/stars_6.png","282.5","","","","","stimuli/BM03_FO.jpg","",""
"explore-choice","183","653003","0.0-183.0","p902712","A2NXMRPHG86N2T","3FVBZG9CLKK1M1GPZWGJX51HFG80HB","37C0GNLMHH9IBGVW5RIB45RZJ2U6DR","emotion","mismatch","uniform","","","","","","","1544.7000000029802","656447.200000003","657991.900000006","[""stimuli/HM02_HE.jpg"",""stimuli/HF10_SC.jpg"",""stimuli/BM03_FO.jpg"",""stimuli/WF06_SUR.jpg""]","stimuli/HM02_HE.jpg","stimuli/HF10_SC.jpg","stimuli/BM03_FO.jpg","stimuli/WF06_SUR.jpg","pos3","stimuli/BM03_FO.jpg","FO","BM03","2","3.5","7","8","stimuli/stars_7.png","286","[""HE"",""SC"",""FO"",""SUR""]","[""HM02"",""HF10"",""BM03"",""WF06""]","[7,4,7,1]","[6,4,8,2]","","",""
"show-reward","184","655027","0.0-184.0","p902712","A2NXMRPHG86N2T","3FVBZG9CLKK1M1GPZWGJX51HFG80HB","37C0GNLMHH9IBGVW5RIB45RZJ2U6DR","emotion","mismatch","uniform","","","","","","","","658513.6000000089","660531.5","","","","","","","","","","","","7","","stimuli/stars_7.png","286","","","","","stimuli/BM03_FO.jpg","",""
"explore-choice","185","657526","0.0-185.0","p902712","A2NXMRPHG86N2T","3FVBZG9CLKK1M1GPZWGJX51HFG80HB","37C0GNLMHH9IBGVW5RIB45RZJ2U6DR","emotion","mismatch","uniform","","","","","","","1984.0999999940395","660535.6000000089","662519.700000003","[""stimuli/BM03_SUR.jpg"",""stimuli/HM02_HE.jpg"",""stimuli/HF10_FO.jpg"",""stimuli/WF06_SC.jpg""]","stimuli/BM03_SUR.jpg","stimuli/HM02_HE.jpg","stimuli/HF10_FO.jpg","stimuli/WF06_SC.jpg","pos1","stimuli/BM03_SUR.jpg","SUR","BM03","0","4.5","9","8","stimuli/stars_9.png","290.5","[""SUR"",""HE"",""FO"",""SC""]","[""BM03"",""HM02"",""HF10"",""WF06""]","[9,7,2,0]","[8,6,4,2]","","",""
"show-reward","186","659551","0.0-186.0","p902712","A2NXMRPHG86N2T","3FVBZG9CLKK1M1GPZWGJX51HFG80HB","37C0GNLMHH9IBGVW5RIB45RZJ2U6DR","emotion","mismatch","uniform","","","","","","","","663034.900000006","665056.700000003","","","","","","","","","","","","9","","stimuli/stars_9.png","290.5","","","","","stimuli/BM03_SUR.jpg","",""
"explore-choice","187","661157","0.0-187.0","p902712","A2NXMRPHG86N2T","3FVBZG9CLKK1M1GPZWGJX51HFG80HB","37C0GNLMHH9IBGVW5RIB45RZJ2U6DR","emotion","mismatch","uniform","","","","","","","1092.699999988079","665059.8000000119","666152.5","[""stimuli/HM02_HE.jpg"",""stimuli/WF06_FO.jpg"",""stimuli/BM03_SC.jpg"",""stimuli/HF10_SUR.jpg""]","stimuli/HM02_HE.jpg","stimuli/WF06_FO.jpg","stimuli/BM03_SC.jpg","stimuli/HF10_SUR.jpg","pos3","stimuli/BM03_SC.jpg","SC","BM03","2","3.5","7","8","stimuli/stars_7.png","294","[""HE"",""FO"",""SC"",""SUR""]","[""HM02"",""WF06"",""BM03"",""HF10""]","[4,3,7,2]","[6,2,8,4]","","",""
"show-reward","188","663173","0.0-188.0","p902712","A2NXMRPHG86N2T","3FVBZG9CLKK1M1GPZWGJX51HFG80HB","37C0GNLMHH9IBGVW5RIB45RZJ2U6DR","emotion","mismatch","uniform","","","","","","","","666666.900000006","668679.5","","","","","","","","","","","","7","","stimuli/stars_7.png","294","","","","","stimuli/BM03_SC.jpg","",""
"explore-choice","189","664742","0.0-189.0","p902712","A2NXMRPHG86N2T","3FVBZG9CLKK1M1GPZWGJX51HFG80HB","37C0GNLMHH9IBGVW5RIB45RZJ2U6DR","emotion","mismatch","uniform","","","","","","","1061.3999999910593","668682.3000000119","669743.700000003","[""stimuli/WF06_SUR.jpg"",""stimuli/HF10_HE.jpg"",""stimuli/HM02_SC.jpg"",""stimuli/BM03_FO.jpg""]","stimuli/WF06_SUR.jpg","stimuli/HF10_HE.jpg","stimuli/HM02_SC.jpg","stimuli/BM03_FO.jpg","pos4","stimuli/BM03_FO.jpg","FO","BM03","3","3.5","7","8","stimuli/stars_7.png","297.5","[""SUR"",""HE"",""SC"",""FO""]","[""WF06"",""HF10"",""HM02"",""BM03""]","[1,2,4,7]","[2,4,6,8]","","",""
"show-reward","190","666768","0.0-190.0","p902712","A2NXMRPHG86N2T","3FVBZG9CLKK1M1GPZWGJX51HFG80HB","37C0GNLMHH9IBGVW5RIB45RZJ2U6DR","emotion","mismatch","uniform","","","","","","","","670250.900000006","672272.3000000119","","","","","","","","","","","","7","","stimuli/stars_7.png","297.5","","","","","stimuli/BM03_FO.jpg","",""
"explore-choice","191","669727","0.0-191.0","p902712","A2NXMRPHG86N2T","3FVBZG9CLKK1M1GPZWGJX51HFG80HB","37C0GNLMHH9IBGVW5RIB45RZJ2U6DR","emotion","mismatch","uniform","","","","","","","2449","672279.900000006","674728.900000006","[""stimuli/HF10_FO.jpg"",""stimuli/WF06_HE.jpg"",""stimuli/HM02_SUR.jpg"",""stimuli/BM03_SC.jpg""]","stimuli/HF10_FO.jpg","stimuli/WF06_HE.jpg","stimuli/HM02_SUR.jpg","stimuli/BM03_SC.jpg","pos4","stimuli/BM03_SC.jpg","SC","BM03","3","3","6","8","stimuli/stars_6.png","300.5","[""FO"",""HE"",""SUR"",""SC""]","[""HF10"",""WF06"",""HM02"",""BM03""]","[6,3,5,6]","[4,2,6,8]","","",""
"show-reward","192","671763","0.0-192.0","p902712","A2NXMRPHG86N2T","3FVBZG9CLKK1M1GPZWGJX51HFG80HB","37C0GNLMHH9IBGVW5RIB45RZJ2U6DR","emotion","mismatch","uniform","","","","","","","","675236.400000006","677267","","","","","","","","","","","","6","","stimuli/stars_6.png","300.5","","","","","stimuli/BM03_SC.jpg","",""
"explore-choice","193","673639","0.0-193.0","p902712","A2NXMRPHG86N2T","3FVBZG9CLKK1M1GPZWGJX51HFG80HB","37C0GNLMHH9IBGVW5RIB45RZJ2U6DR","emotion","mismatch","uniform","","","","","","","1349.2000000029802","677276","678625.200000003","[""stimuli/HF10_SC.jpg"",""stimuli/WF06_FO.jpg"",""stimuli/BM03_SUR.jpg"",""stimuli/HM02_HE.jpg""]","stimuli/HF10_SC.jpg","stimuli/WF06_FO.jpg","stimuli/BM03_SUR.jpg","stimuli/HM02_HE.jpg","pos3","stimuli/BM03_SUR.jpg","SUR","BM03","2","3.5","7","8","stimuli/stars_7.png","304","[""SC"",""FO"",""SUR"",""HE""]","[""HF10"",""WF06"",""BM03"",""HM02""]","[6,4,7,7]","[4,2,8,6]","","",""
"show-reward","194","675666","0.0-194.0","p902712","A2NXMRPHG86N2T","3FVBZG9CLKK1M1GPZWGJX51HFG80HB","37C0GNLMHH9IBGVW5RIB45RZJ2U6DR","emotion","mismatch","uniform","","","","","","","","679151.900000006","681171.900000006","","","","","","","","","","","","7","","stimuli/stars_7.png","304","","","","","stimuli/BM03_SUR.jpg","",""
"explore-choice","195","677192","0.0-195.0","p902712","A2NXMRPHG86N2T","3FVBZG9CLKK1M1GPZWGJX51HFG80HB","37C0GNLMHH9IBGVW5RIB45RZJ2U6DR","emotion","mismatch","uniform","","","","","","","1009.7999999970198","681175.1000000089","682184.900000006","[""stimuli/WF06_HE.jpg"",""stimuli/HF10_SC.jpg"",""stimuli/BM03_FO.jpg"",""stimuli/HM02_SUR.jpg""]","stimuli/WF06_HE.jpg","stimuli/HF10_SC.jpg","stimuli/BM03_FO.jpg","stimuli/HM02_SUR.jpg","pos3","stimuli/BM03_FO.jpg","FO","BM03","2","3.5","7","8","stimuli/stars_7.png","307.5","[""HE"",""SC"",""FO"",""SUR""]","[""WF06"",""HF10"",""BM03"",""HM02""]","[0,5,7,7]","[2,4,8,6]","","",""
"show-reward","196","679216","0.0-196.0","p902712","A2NXMRPHG86N2T","3FVBZG9CLKK1M1GPZWGJX51HFG80HB","37C0GNLMHH9IBGVW5RIB45RZJ2U6DR","emotion","mismatch","uniform","","","","","","","","682701.6000000089","684722.3000000119","","","","","","","","","","","","7","","stimuli/stars_7.png","307.5","","","","","stimuli/BM03_FO.jpg","",""
"explore-choice","197","681046","0.0-197.0","p902712","A2NXMRPHG86N2T","3FVBZG9CLKK1M1GPZWGJX51HFG80HB","37C0GNLMHH9IBGVW5RIB45RZJ2U6DR","emotion","mismatch","uniform","","","","","","","1323.2999999970198","684726.6000000089","686049.900000006","[""stimuli/HM02_SUR.jpg"",""stimuli/HF10_SC.jpg"",""stimuli/WF06_FO.jpg"",""stimuli/BM03_HE.jpg""]","stimuli/HM02_SUR.jpg","stimuli/HF10_SC.jpg","stimuli/WF06_FO.jpg","stimuli/BM03_HE.jpg","pos4","stimuli/BM03_HE.jpg","HE","BM03","3","4.5","9","8","stimuli/stars_9.png","312","[""SUR"",""SC"",""FO"",""HE""]","[""HM02"",""HF10"",""WF06"",""BM03""]","[5,4,3,9]","[6,4,2,8]","","",""
"show-reward","198","683076","0.0-198.0","p902712","A2NXMRPHG86N2T","3FVBZG9CLKK1M1GPZWGJX51HFG80HB","37C0GNLMHH9IBGVW5RIB45RZJ2U6DR","emotion","mismatch","uniform","","","","","","","","686555.900000006","688582.3000000119","","","","","","","","","","","","9","","stimuli/stars_9.png","312","","","","","stimuli/BM03_HE.jpg","",""
"instructions","199","687343","0.0-199.0","p902712","A2NXMRPHG86N2T","3FVBZG9CLKK1M1GPZWGJX51HFG80HB","37C0GNLMHH9IBGVW5RIB45RZJ2U6DR","emotion","mismatch","uniform","","","","","","[{""page_index"":0,""viewing_time"":4263.20000000298}]","4264.5","","","","","","","","","","","","","","","","","","","","","","","",""
"survey-text","200","691824","0.0-200.0-0.0","p902712","A2NXMRPHG86N2T","3FVBZG9CLKK1M1GPZWGJX51HFG80HB","37C0GNLMHH9IBGVW5RIB45RZJ2U6DR","emotion","mismatch","uniform","","","","","","","4449.9000000059605","","","","","","","","","","","","","","","","","","","","","","","{""age"":""48""}",""
"survey-text","201","696780","0.0-200.0-1.0","p902712","A2NXMRPHG86N2T","3FVBZG9CLKK1M1GPZWGJX51HFG80HB","37C0GNLMHH9IBGVW5RIB45RZJ2U6DR","emotion","mismatch","uniform","","","","","","","4936.899999991059","","","","","","","","","","","","","","","","","","","","","","","{""gender"":""male""}",""
"survey-text","202","701821","0.0-200.0-2.0","p902712","A2NXMRPHG86N2T","3FVBZG9CLKK1M1GPZWGJX51HFG80HB","37C0GNLMHH9IBGVW5RIB45RZJ2U6DR","emotion","mismatch","uniform","","","","","","","5008.600000008941","","","","","","","","","","","","","","","","","","","","","","","{""country"":""usa""}",""
"survey-text","203","708959","0.0-200.0-3.0","p902712","A2NXMRPHG86N2T","3FVBZG9CLKK1M1GPZWGJX51HFG80HB","37C0GNLMHH9IBGVW5RIB45RZJ2U6DR","emotion","mismatch","uniform","","","","","","","7104","","","","","","","","","","","","","","","","","","","","","","","{""language"":""english"",""other_languages"":""""}",""
"survey-multi-select","204","711762","0.0-201.0","p902712","A2NXMRPHG86N2T","3FVBZG9CLKK1M1GPZWGJX51HFG80HB","37C0GNLMHH9IBGVW5RIB45RZJ2U6DR","emotion","mismatch","uniform","","","","","","","2770.2000000029802","","","","","","","","","","","","","","","","","","","","","","","{""race"":[""White""]}","[0]"
"survey-multi-choice","205","714307","0.0-202.0","p902712","A2NXMRPHG86N2T","3FVBZG9CLKK1M1GPZWGJX51HFG80HB","37C0GNLMHH9IBGVW5RIB45RZJ2U6DR","emotion","mismatch","uniform","","","","","","","2512.1000000089407","","","","","","","","","","","","","","","","","","","","","","","{""education"":""Some college/ university""}","[0]"
"survey-text","206","756055","0.0-203.0","p902712","A2NXMRPHG86N2T","3FVBZG9CLKK1M1GPZWGJX51HFG80HB","37C0GNLMHH9IBGVW5RIB45RZJ2U6DR","emotion","mismatch","uniform","","","","","","","41606.10000000894","","","","","","","","","","","","","","","","","","","","","","","{""patterns"":""no"",""strategy"":""the firsst trials i picked the people that weere smiling, the second i picked the black guy most of the time"",""comments"":""""}",""
