"trial_type","trial_index","time_elapsed","internal_node_id","subject","workerId","hitId","assignmentId","structure_condition","match_condition","noise_type","success","timeout","failed_images","failed_audio","failed_video","view_history","rt","start_time","end_time","stimuli","image1","image2","image3","image4","choiceLocation","choiceImage","choiceEmotion","choiceModel","choice_index","reward_score","reward","reward_score_unadjusted","reward_image","score_after_trial","emotions","models","rewards","rewards_unadjusted","stimulus","response","question_order"
"pavlovia","0","34","0.0-0.0","p442350","AH7Z2M3KSQ4DW","3087LXLJ6NMH85PJ46SJUKP4Z1V0FD","3H0W84IWBM8GP57GTAWTLI0GF18RE2","emotion","mismatch","uniform","","","","","","","","","","","","","","","","","","","","","","","","","","","","","","",""
"preload","1","7578","0.0-1.0","p442350","AH7Z2M3KSQ4DW","3087LXLJ6NMH85PJ46SJUKP4Z1V0FD","3H0W84IWBM8GP57GTAWTLI0GF18RE2","emotion","mismatch","uniform","true","false","[]","[]","[]","","","","","","","","","","","","","","","","","","","","","","","","","",""
"fullscreen","2","12112","0.0-2.0","p442350","AH7Z2M3KSQ4DW","3087LXLJ6NMH85PJ46SJUKP4Z1V0FD","3H0W84IWBM8GP57GTAWTLI0GF18RE2","emotion","mismatch","uniform","true","","","","","","","","","","","","","","","","","","","","","","","","","","","","","",""
"instructions","3","18160","0.0-3.0","p442350","AH7Z2M3KSQ4DW","3087LXLJ6NMH85PJ46SJUKP4Z1V0FD","3H0W84IWBM8GP57GTAWTLI0GF18RE2","emotion","mismatch","uniform","","","","","","[{""page_index"":0,""viewing_time"":6042.799999999814}]","6044.5","","","","","","","","","","","","","","","","","","","","","","","",""
"explore-choice","4","21574","0.0-4.0","p442350","AH7Z2M3KSQ4DW","3087LXLJ6NMH85PJ46SJUKP4Z1V0FD","3H0W84IWBM8GP57GTAWTLI0GF18RE2","emotion","mismatch","uniform","","","","","","","2901.2999999998137","20277.300000000745","23178.60000000056","[""stimuli/sheep.jpg"",""stimuli/hammer.jpg"",""stimuli/basketball.jpg"",""stimuli/horse.jpg""]","stimuli/sheep.jpg","stimuli/hammer.jpg","stimuli/basketball.jpg","stimuli/horse.jpg","pos4","stimuli/horse.jpg","","","3","64","64","64","stimuli/stars_8.png","65","","","","","","",""
"explore-choice","5","23956","0.0-5.0","p442350","AH7Z2M3KSQ4DW","3087LXLJ6NMH85PJ46SJUKP4Z1V0FD","3H0W84IWBM8GP57GTAWTLI0GF18RE2","emotion","mismatch","uniform","","","","","","","1868.8999999994412","23690.300000000745","25559.200000000186","[""stimuli/hammer.jpg"",""stimuli/basketball.jpg"",""stimuli/horse.jpg"",""stimuli/sheep.jpg""]","stimuli/hammer.jpg","stimuli/basketball.jpg","stimuli/horse.jpg","stimuli/sheep.jpg","pos1","stimuli/hammer.jpg","","","0","8","8","8","stimuli/stars_2.png","9","","","","","","",""
"instructions","6","156252","0.0-6.0","p442350","AH7Z2M3KSQ4DW","3087LXLJ6NMH85PJ46SJUKP4Z1V0FD","3H0W84IWBM8GP57GTAWTLI0GF18RE2","emotion","mismatch","uniform","","","","","","[{""page_index"":0,""viewing_time"":132293.89999999944}]","132294.5","","","","","","","","","","","","","","","","","","","","","","","",""
"explore-choice","7","158856","0.0-7.0","p442350","AH7Z2M3KSQ4DW","3087LXLJ6NMH85PJ46SJUKP4Z1V0FD","3H0W84IWBM8GP57GTAWTLI0GF18RE2","emotion","mismatch","uniform","","","","","","","2089.4000000003725","158369.7000000002","160459.10000000056","[""stimuli/HM10_SC.jpg"",""stimuli/WF04_CC.jpg"",""stimuli/BF04_AO.jpg"",""stimuli/AF02_DO.jpg""]","stimuli/HM10_SC.jpg","stimuli/WF04_CC.jpg","stimuli/BF04_AO.jpg","stimuli/AF02_DO.jpg","pos3","stimuli/BF04_AO.jpg","AO","BF04","2","3","6","6","stimuli/stars_6.png","4","[""SC"",""CC"",""AO"",""DO""]","[""HM10"",""WF04"",""BF04"",""AF02""]","[9,5,6,0]","[8,4,6,2]","","",""
"show-reward","8","160874","0.0-8.0","p442350","AH7Z2M3KSQ4DW","3087LXLJ6NMH85PJ46SJUKP4Z1V0FD","3H0W84IWBM8GP57GTAWTLI0GF18RE2","emotion","mismatch","uniform","","","","","","","","160974","162987.7000000002","","","","","","","","","","","","6","","stimuli/stars_6.png","4","","","","","stimuli/BF04_AO.jpg","",""
"explore-choice","9","163384","0.0-9.0","p442350","AH7Z2M3KSQ4DW","3087LXLJ6NMH85PJ46SJUKP4Z1V0FD","3H0W84IWBM8GP57GTAWTLI0GF18RE2","emotion","mismatch","uniform","","","","","","","1991.0999999996275","162990.90000000037","164982","[""stimuli/BF04_DO.jpg"",""stimuli/WF04_CC.jpg"",""stimuli/AF02_AO.jpg"",""stimuli/HM10_SC.jpg""]","stimuli/BF04_DO.jpg","stimuli/WF04_CC.jpg","stimuli/AF02_AO.jpg","stimuli/HM10_SC.jpg","pos1","stimuli/BF04_DO.jpg","DO","BF04","0","0","0","2","stimuli/stars_0.png","4","[""DO"",""CC"",""AO"",""SC""]","[""BF04"",""WF04"",""AF02"",""HM10""]","[0,2,7,7]","[2,4,6,8]","","",""
"show-reward","10","165402","0.0-10.0","p442350","AH7Z2M3KSQ4DW","3087LXLJ6NMH85PJ46SJUKP4Z1V0FD","3H0W84IWBM8GP57GTAWTLI0GF18RE2","emotion","mismatch","uniform","","","","","","","","165500.2000000002","167515.60000000056","","","","","","","","","","","","0","","stimuli/stars_0.png","4","","","","","stimuli/BF04_DO.jpg","",""
"explore-choice","11","167813","0.0-11.0","p442350","AH7Z2M3KSQ4DW","3087LXLJ6NMH85PJ46SJUKP4Z1V0FD","3H0W84IWBM8GP57GTAWTLI0GF18RE2","emotion","mismatch","uniform","","","","","","","1898.5999999996275","167517.90000000037","169416.5","[""stimuli/BF04_SC.jpg"",""stimuli/AF02_DO.jpg"",""stimuli/HM10_CC.jpg"",""stimuli/WF04_AO.jpg""]","stimuli/BF04_SC.jpg","stimuli/AF02_DO.jpg","stimuli/HM10_CC.jpg","stimuli/WF04_AO.jpg","pos4","stimuli/WF04_AO.jpg","AO","WF04","3","2.5","5","6","stimuli/stars_5.png","6.5","[""SC"",""DO"",""CC"",""AO""]","[""BF04"",""AF02"",""HM10"",""WF04""]","[7,2,4,5]","[8,2,4,6]","","",""
"show-reward","12","169832","0.0-12.0","p442350","AH7Z2M3KSQ4DW","3087LXLJ6NMH85PJ46SJUKP4Z1V0FD","3H0W84IWBM8GP57GTAWTLI0GF18RE2","emotion","mismatch","uniform","","","","","","","","169928.60000000056","171945.80000000075","","","","","","","","","","","","5","","stimuli/stars_5.png","6.5","","","","","stimuli/WF04_AO.jpg","",""
"explore-choice","13","174907","0.0-13.0","p442350","AH7Z2M3KSQ4DW","3087LXLJ6NMH85PJ46SJUKP4Z1V0FD","3H0W84IWBM8GP57GTAWTLI0GF18RE2","emotion","mismatch","uniform","","","","","","","4566.9000000003725","171951","176517.90000000037","[""stimuli/BF04_DO.jpg"",""stimuli/WF04_AO.jpg"",""stimuli/HM10_CC.jpg"",""stimuli/AF02_SC.jpg""]","stimuli/BF04_DO.jpg","stimuli/WF04_AO.jpg","stimuli/HM10_CC.jpg","stimuli/AF02_SC.jpg","pos2","stimuli/WF04_AO.jpg","AO","WF04","1","2","4","6","stimuli/stars_4.png","8.5","[""DO"",""AO"",""CC"",""SC""]","[""BF04"",""WF04"",""HM10"",""AF02""]","[2,4,4,6]","[2,6,4,8]","","",""
"show-reward","14","176924","0.0-14.0","p442350","AH7Z2M3KSQ4DW","3087LXLJ6NMH85PJ46SJUKP4Z1V0FD","3H0W84IWBM8GP57GTAWTLI0GF18RE2","emotion","mismatch","uniform","","","","","","","","177023.5","179038","","","","","","","","","","","","4","","stimuli/stars_4.png","8.5","","","","","stimuli/WF04_AO.jpg","",""
"explore-choice","15","179835","0.0-15.0","p442350","AH7Z2M3KSQ4DW","3087LXLJ6NMH85PJ46SJUKP4Z1V0FD","3H0W84IWBM8GP57GTAWTLI0GF18RE2","emotion","mismatch","uniform","","","","","","","2397.100000000559","179040.5","181437.60000000056","[""stimuli/WF04_AO.jpg"",""stimuli/HM10_SC.jpg"",""stimuli/AF02_CC.jpg"",""stimuli/BF04_DO.jpg""]","stimuli/WF04_AO.jpg","stimuli/HM10_SC.jpg","stimuli/AF02_CC.jpg","stimuli/BF04_DO.jpg","pos1","stimuli/WF04_AO.jpg","AO","WF04","0","3","6","6","stimuli/stars_6.png","11.5","[""AO"",""SC"",""CC"",""DO""]","[""WF04"",""HM10"",""AF02"",""BF04""]","[6,10,4,1]","[6,8,4,2]","","",""
"show-reward","16","181847","0.0-16.0","p442350","AH7Z2M3KSQ4DW","3087LXLJ6NMH85PJ46SJUKP4Z1V0FD","3H0W84IWBM8GP57GTAWTLI0GF18RE2","emotion","mismatch","uniform","","","","","","","","181951.80000000075","183960.90000000037","","","","","","","","","","","","6","","stimuli/stars_6.png","11.5","","","","","stimuli/WF04_AO.jpg","",""
"explore-choice","17","189558","0.0-17.0","p442350","AH7Z2M3KSQ4DW","3087LXLJ6NMH85PJ46SJUKP4Z1V0FD","3H0W84IWBM8GP57GTAWTLI0GF18RE2","emotion","mismatch","uniform","","","","","","","7198.100000000559","183963.5","191161.60000000056","[""stimuli/WF04_DO.jpg"",""stimuli/AF02_SC.jpg"",""stimuli/BF04_AO.jpg"",""stimuli/HM10_CC.jpg""]","stimuli/WF04_DO.jpg","stimuli/AF02_SC.jpg","stimuli/BF04_AO.jpg","stimuli/HM10_CC.jpg","pos3","stimuli/BF04_AO.jpg","AO","BF04","2","2","4","6","stimuli/stars_4.png","13.5","[""DO"",""SC"",""AO"",""CC""]","[""WF04"",""AF02"",""BF04"",""HM10""]","[4,6,4,4]","[2,8,6,4]","","",""
"show-reward","18","191574","0.0-18.0","p442350","AH7Z2M3KSQ4DW","3087LXLJ6NMH85PJ46SJUKP4Z1V0FD","3H0W84IWBM8GP57GTAWTLI0GF18RE2","emotion","mismatch","uniform","","","","","","","","191674.10000000056","193687.90000000037","","","","","","","","","","","","4","","stimuli/stars_4.png","13.5","","","","","stimuli/BF04_AO.jpg","",""
"explore-choice","19","200032","0.0-19.0","p442350","AH7Z2M3KSQ4DW","3087LXLJ6NMH85PJ46SJUKP4Z1V0FD","3H0W84IWBM8GP57GTAWTLI0GF18RE2","emotion","mismatch","uniform","","","","","","","7942.300000000745","193690.5","201632.80000000075","[""stimuli/WF04_CC.jpg"",""stimuli/HM10_AO.jpg"",""stimuli/BF04_DO.jpg"",""stimuli/AF02_SC.jpg""]","stimuli/WF04_CC.jpg","stimuli/HM10_AO.jpg","stimuli/BF04_DO.jpg","stimuli/AF02_SC.jpg","pos2","stimuli/HM10_AO.jpg","AO","HM10","1","3","6","6","stimuli/stars_6.png","16.5","[""CC"",""AO"",""DO"",""SC""]","[""WF04"",""HM10"",""BF04"",""AF02""]","[3,6,3,6]","[4,6,2,8]","","",""
"show-reward","20","202047","0.0-20.0","p442350","AH7Z2M3KSQ4DW","3087LXLJ6NMH85PJ46SJUKP4Z1V0FD","3H0W84IWBM8GP57GTAWTLI0GF18RE2","emotion","mismatch","uniform","","","","","","","","202148","204161","","","","","","","","","","","","6","","stimuli/stars_6.png","16.5","","","","","stimuli/HM10_AO.jpg","",""
"explore-choice","21","205310","0.0-21.0","p442350","AH7Z2M3KSQ4DW","3087LXLJ6NMH85PJ46SJUKP4Z1V0FD","3H0W84IWBM8GP57GTAWTLI0GF18RE2","emotion","mismatch","uniform","","","","","","","2747.9000000003725","204163.40000000037","206911.30000000075","[""stimuli/BF04_SC.jpg"",""stimuli/HM10_DO.jpg"",""stimuli/WF04_CC.jpg"",""stimuli/AF02_AO.jpg""]","stimuli/BF04_SC.jpg","stimuli/HM10_DO.jpg","stimuli/WF04_CC.jpg","stimuli/AF02_AO.jpg","pos4","stimuli/AF02_AO.jpg","AO","AF02","3","3.5","7","6","stimuli/stars_7.png","20","[""SC"",""DO"",""CC"",""AO""]","[""BF04"",""HM10"",""WF04"",""AF02""]","[6,0,2,7]","[8,2,4,6]","","",""
"show-reward","22","207315","0.0-22.0","p442350","AH7Z2M3KSQ4DW","3087LXLJ6NMH85PJ46SJUKP4Z1V0FD","3H0W84IWBM8GP57GTAWTLI0GF18RE2","emotion","mismatch","uniform","","","","","","","","207426.30000000075","209428.60000000056","","","","","","","","","","","","7","","stimuli/stars_7.png","20","","","","","stimuli/AF02_AO.jpg","",""
"explore-choice","23","209971","0.0-23.0","p442350","AH7Z2M3KSQ4DW","3087LXLJ6NMH85PJ46SJUKP4Z1V0FD","3H0W84IWBM8GP57GTAWTLI0GF18RE2","emotion","mismatch","uniform","","","","","","","2145.2000000001863","209431.2000000002","211576.40000000037","[""stimuli/HM10_SC.jpg"",""stimuli/WF04_DO.jpg"",""stimuli/AF02_AO.jpg"",""stimuli/BF04_CC.jpg""]","stimuli/HM10_SC.jpg","stimuli/WF04_DO.jpg","stimuli/AF02_AO.jpg","stimuli/BF04_CC.jpg","pos3","stimuli/AF02_AO.jpg","AO","AF02","2","4","8","6","stimuli/stars_8.png","24","[""SC"",""DO"",""AO"",""CC""]","[""HM10"",""WF04"",""AF02"",""BF04""]","[6,3,8,2]","[8,2,6,4]","","",""
"show-reward","24","211990","0.0-24.0","p442350","AH7Z2M3KSQ4DW","3087LXLJ6NMH85PJ46SJUKP4Z1V0FD","3H0W84IWBM8GP57GTAWTLI0GF18RE2","emotion","mismatch","uniform","","","","","","","","212087","214104.2000000002","","","","","","","","","","","","8","","stimuli/stars_8.png","24","","","","","stimuli/AF02_AO.jpg","",""
"explore-choice","25","214186","0.0-25.0","p442350","AH7Z2M3KSQ4DW","3087LXLJ6NMH85PJ46SJUKP4Z1V0FD","3H0W84IWBM8GP57GTAWTLI0GF18RE2","emotion","mismatch","uniform","","","","","","","1690.7000000001863","214106.60000000056","215797.30000000075","[""stimuli/HM10_DO.jpg"",""stimuli/BF04_CC.jpg"",""stimuli/WF04_AO.jpg"",""stimuli/AF02_SC.jpg""]","stimuli/HM10_DO.jpg","stimuli/BF04_CC.jpg","stimuli/WF04_AO.jpg","stimuli/AF02_SC.jpg","pos3","stimuli/WF04_AO.jpg","AO","WF04","2","2.5","5","6","stimuli/stars_5.png","26.5","[""DO"",""CC"",""AO"",""SC""]","[""HM10"",""BF04"",""WF04"",""AF02""]","[4,3,5,6]","[2,4,6,8]","","",""
"show-reward","26","216202","0.0-26.0","p442350","AH7Z2M3KSQ4DW","3087LXLJ6NMH85PJ46SJUKP4Z1V0FD","3H0W84IWBM8GP57GTAWTLI0GF18RE2","emotion","mismatch","uniform","","","","","","","","216301.7000000002","218315.2000000002","","","","","","","","","","","","5","","stimuli/stars_5.png","26.5","","","","","stimuli/WF04_AO.jpg","",""
"explore-choice","27","224363","0.0-27.0","p442350","AH7Z2M3KSQ4DW","3087LXLJ6NMH85PJ46SJUKP4Z1V0FD","3H0W84IWBM8GP57GTAWTLI0GF18RE2","emotion","mismatch","uniform","","","","","","","7642.799999999814","218317.7000000002","225960.5","[""stimuli/BF04_CC.jpg"",""stimuli/AF02_SC.jpg"",""stimuli/HM10_AO.jpg"",""stimuli/WF04_DO.jpg""]","stimuli/BF04_CC.jpg","stimuli/AF02_SC.jpg","stimuli/HM10_AO.jpg","stimuli/WF04_DO.jpg","pos4","stimuli/WF04_DO.jpg","DO","WF04","3","0","0","2","stimuli/stars_0.png","26.5","[""CC"",""SC"",""AO"",""DO""]","[""BF04"",""AF02"",""HM10"",""WF04""]","[6,10,8,0]","[4,8,6,2]","","",""
"show-reward","28","226377","0.0-28.0","p442350","AH7Z2M3KSQ4DW","3087LXLJ6NMH85PJ46SJUKP4Z1V0FD","3H0W84IWBM8GP57GTAWTLI0GF18RE2","emotion","mismatch","uniform","","","","","","","","226479.80000000075","228490","","","","","","","","","","","","0","","stimuli/stars_0.png","26.5","","","","","stimuli/WF04_DO.jpg","",""
"explore-choice","29","230518","0.0-29.0","p442350","AH7Z2M3KSQ4DW","3087LXLJ6NMH85PJ46SJUKP4Z1V0FD","3H0W84IWBM8GP57GTAWTLI0GF18RE2","emotion","mismatch","uniform","","","","","","","3624.100000000559","228493","232117.10000000056","[""stimuli/BF04_DO.jpg"",""stimuli/WF04_SC.jpg"",""stimuli/AF02_AO.jpg"",""stimuli/HM10_CC.jpg""]","stimuli/BF04_DO.jpg","stimuli/WF04_SC.jpg","stimuli/AF02_AO.jpg","stimuli/HM10_CC.jpg","pos3","stimuli/AF02_AO.jpg","AO","AF02","2","3.5","7","6","stimuli/stars_7.png","30","[""DO"",""SC"",""AO"",""CC""]","[""BF04"",""WF04"",""AF02"",""HM10""]","[3,9,7,2]","[2,8,6,4]","","",""
"show-reward","30","232536","0.0-30.0","p442350","AH7Z2M3KSQ4DW","3087LXLJ6NMH85PJ46SJUKP4Z1V0FD","3H0W84IWBM8GP57GTAWTLI0GF18RE2","emotion","mismatch","uniform","","","","","","","","232634","234647.30000000075","","","","","","","","","","","","7","","stimuli/stars_7.png","30","","","","","stimuli/AF02_AO.jpg","",""
"explore-choice","31","269331","0.0-31.0","p442350","AH7Z2M3KSQ4DW","3087LXLJ6NMH85PJ46SJUKP4Z1V0FD","3H0W84IWBM8GP57GTAWTLI0GF18RE2","emotion","mismatch","uniform","","","","","","","36277.39999999944","234653.60000000056","270931","[""stimuli/HM10_SC.jpg"",""stimuli/AF02_CC.jpg"",""stimuli/WF04_DO.jpg"",""stimuli/BF04_AO.jpg""]","stimuli/HM10_SC.jpg","stimuli/AF02_CC.jpg","stimuli/WF04_DO.jpg","stimuli/BF04_AO.jpg","pos3","stimuli/WF04_DO.jpg","DO","WF04","2","0.5","1","2","stimuli/stars_1.png","30.5","[""SC"",""CC"",""DO"",""AO""]","[""HM10"",""AF02"",""WF04"",""BF04""]","[7,5,1,6]","[8,4,2,6]","","",""
"show-reward","32","271350","0.0-32.0","p442350","AH7Z2M3KSQ4DW","3087LXLJ6NMH85PJ46SJUKP4Z1V0FD","3H0W84IWBM8GP57GTAWTLI0GF18RE2","emotion","mismatch","uniform","","","","","","","","271447.5","273464","","","","","","","","","","","","1","","stimuli/stars_1.png","30.5","","","","","stimuli/WF04_DO.jpg","",""
"explore-choice","33","280206","0.0-33.0","p442350","AH7Z2M3KSQ4DW","3087LXLJ6NMH85PJ46SJUKP4Z1V0FD","3H0W84IWBM8GP57GTAWTLI0GF18RE2","emotion","mismatch","uniform","","","","","","","8342","273465.9000000004","281807.9000000004","[""stimuli/AF02_CC.jpg"",""stimuli/WF04_AO.jpg"",""stimuli/HM10_DO.jpg"",""stimuli/BF04_SC.jpg""]","stimuli/AF02_CC.jpg","stimuli/WF04_AO.jpg","stimuli/HM10_DO.jpg","stimuli/BF04_SC.jpg","pos2","stimuli/WF04_AO.jpg","AO","WF04","1","3","6","6","stimuli/stars_6.png","33.5","[""CC"",""AO"",""DO"",""SC""]","[""AF02"",""WF04"",""HM10"",""BF04""]","[6,6,1,6]","[4,6,2,8]","","",""
"show-reward","34","282218","0.0-34.0","p442350","AH7Z2M3KSQ4DW","3087LXLJ6NMH85PJ46SJUKP4Z1V0FD","3H0W84IWBM8GP57GTAWTLI0GF18RE2","emotion","mismatch","uniform","","","","","","","","282321.60000000056","284331.2000000002","","","","","","","","","","","","6","","stimuli/stars_6.png","33.5","","","","","stimuli/WF04_AO.jpg","",""
"explore-choice","35","288628","0.0-35.0","p442350","AH7Z2M3KSQ4DW","3087LXLJ6NMH85PJ46SJUKP4Z1V0FD","3H0W84IWBM8GP57GTAWTLI0GF18RE2","emotion","mismatch","uniform","","","","","","","5894.5","284333.7000000002","290228.2000000002","[""stimuli/WF04_SC.jpg"",""stimuli/AF02_DO.jpg"",""stimuli/HM10_AO.jpg"",""stimuli/BF04_CC.jpg""]","stimuli/WF04_SC.jpg","stimuli/AF02_DO.jpg","stimuli/HM10_AO.jpg","stimuli/BF04_CC.jpg","pos3","stimuli/HM10_AO.jpg","AO","HM10","2","3.5","7","6","stimuli/stars_7.png","37","[""SC"",""DO"",""AO"",""CC""]","[""WF04"",""AF02"",""HM10"",""BF04""]","[9,3,7,3]","[8,2,6,4]","","",""
"show-reward","36","290644","0.0-36.0","p442350","AH7Z2M3KSQ4DW","3087LXLJ6NMH85PJ46SJUKP4Z1V0FD","3H0W84IWBM8GP57GTAWTLI0GF18RE2","emotion","mismatch","uniform","","","","","","","","290744.9000000004","292759.2000000002","","","","","","","","","","","","7","","stimuli/stars_7.png","37","","","","","stimuli/HM10_AO.jpg","",""
"explore-choice","37","293640","0.0-37.0","p442350","AH7Z2M3KSQ4DW","3087LXLJ6NMH85PJ46SJUKP4Z1V0FD","3H0W84IWBM8GP57GTAWTLI0GF18RE2","emotion","mismatch","uniform","","","","","","","2489.600000000559","292761.2000000002","295250.80000000075","[""stimuli/BF04_AO.jpg"",""stimuli/HM10_DO.jpg"",""stimuli/WF04_CC.jpg"",""stimuli/AF02_SC.jpg""]","stimuli/BF04_AO.jpg","stimuli/HM10_DO.jpg","stimuli/WF04_CC.jpg","stimuli/AF02_SC.jpg","pos1","stimuli/BF04_AO.jpg","AO","BF04","0","2","4","6","stimuli/stars_4.png","39","[""AO"",""DO"",""CC"",""SC""]","[""BF04"",""HM10"",""WF04"",""AF02""]","[4,0,4,8]","[6,2,4,8]","","",""
"show-reward","38","295654","0.0-38.0","p442350","AH7Z2M3KSQ4DW","3087LXLJ6NMH85PJ46SJUKP4Z1V0FD","3H0W84IWBM8GP57GTAWTLI0GF18RE2","emotion","mismatch","uniform","","","","","","","","295756.7000000002","297768.80000000075","","","","","","","","","","","","4","","stimuli/stars_4.png","39","","","","","stimuli/BF04_AO.jpg","",""
"explore-choice","39","304011","0.0-39.0","p442350","AH7Z2M3KSQ4DW","3087LXLJ6NMH85PJ46SJUKP4Z1V0FD","3H0W84IWBM8GP57GTAWTLI0GF18RE2","emotion","mismatch","uniform","","","","","","","7844.9000000003725","297770.9000000004","305615.80000000075","[""stimuli/AF02_DO.jpg"",""stimuli/HM10_AO.jpg"",""stimuli/WF04_CC.jpg"",""stimuli/BF04_SC.jpg""]","stimuli/AF02_DO.jpg","stimuli/HM10_AO.jpg","stimuli/WF04_CC.jpg","stimuli/BF04_SC.jpg","pos3","stimuli/WF04_CC.jpg","CC","WF04","2","3","6","4","stimuli/stars_6.png","42","[""DO"",""AO"",""CC"",""SC""]","[""AF02"",""HM10"",""WF04"",""BF04""]","[0,5,6,6]","[2,6,4,8]","","",""
"show-reward","40","306028","0.0-40.0","p442350","AH7Z2M3KSQ4DW","3087LXLJ6NMH85PJ46SJUKP4Z1V0FD","3H0W84IWBM8GP57GTAWTLI0GF18RE2","emotion","mismatch","uniform","","","","","","","","306128.4000000004","308142.7000000002","","","","","","","","","","","","6","","stimuli/stars_6.png","42","","","","","stimuli/WF04_CC.jpg","",""
"explore-choice","41","307959","0.0-41.0","p442350","AH7Z2M3KSQ4DW","3087LXLJ6NMH85PJ46SJUKP4Z1V0FD","3H0W84IWBM8GP57GTAWTLI0GF18RE2","emotion","mismatch","uniform","","","","","","","1414.1000000005588","308145","309559.10000000056","[""stimuli/BF04_SC.jpg"",""stimuli/AF02_AO.jpg"",""stimuli/HM10_CC.jpg"",""stimuli/WF04_DO.jpg""]","stimuli/BF04_SC.jpg","stimuli/AF02_AO.jpg","stimuli/HM10_CC.jpg","stimuli/WF04_DO.jpg","pos2","stimuli/AF02_AO.jpg","AO","AF02","1","2.5","5","6","stimuli/stars_5.png","44.5","[""SC"",""AO"",""CC"",""DO""]","[""BF04"",""AF02"",""HM10"",""WF04""]","[6,5,4,1]","[8,6,4,2]","","",""
"show-reward","42","309975","0.0-42.0","p442350","AH7Z2M3KSQ4DW","3087LXLJ6NMH85PJ46SJUKP4Z1V0FD","3H0W84IWBM8GP57GTAWTLI0GF18RE2","emotion","mismatch","uniform","","","","","","","","310076.10000000056","312089.7000000002","","","","","","","","","","","","5","","stimuli/stars_5.png","44.5","","","","","stimuli/AF02_AO.jpg","",""
"explore-choice","43","320163","0.0-43.0","p442350","AH7Z2M3KSQ4DW","3087LXLJ6NMH85PJ46SJUKP4Z1V0FD","3H0W84IWBM8GP57GTAWTLI0GF18RE2","emotion","mismatch","uniform","","","","","","","9672.099999999627","312092.4000000004","321764.5","[""stimuli/HM10_AO.jpg"",""stimuli/BF04_SC.jpg"",""stimuli/WF04_DO.jpg"",""stimuli/AF02_CC.jpg""]","stimuli/HM10_AO.jpg","stimuli/BF04_SC.jpg","stimuli/WF04_DO.jpg","stimuli/AF02_CC.jpg","pos3","stimuli/WF04_DO.jpg","DO","WF04","2","1","2","2","stimuli/stars_2.png","45.5","[""AO"",""SC"",""DO"",""CC""]","[""HM10"",""BF04"",""WF04"",""AF02""]","[7,8,2,5]","[6,8,2,4]","","",""
"show-reward","44","322180","0.0-44.0","p442350","AH7Z2M3KSQ4DW","3087LXLJ6NMH85PJ46SJUKP4Z1V0FD","3H0W84IWBM8GP57GTAWTLI0GF18RE2","emotion","mismatch","uniform","","","","","","","","322280.5","324294.9000000004","","","","","","","","","","","","2","","stimuli/stars_2.png","45.5","","","","","stimuli/WF04_DO.jpg","",""
"explore-choice","45","336071","0.0-45.0","p442350","AH7Z2M3KSQ4DW","3087LXLJ6NMH85PJ46SJUKP4Z1V0FD","3H0W84IWBM8GP57GTAWTLI0GF18RE2","emotion","mismatch","uniform","","","","","","","13379.699999999255","324297.30000000075","337677","[""stimuli/AF02_DO.jpg"",""stimuli/BF04_AO.jpg"",""stimuli/HM10_CC.jpg"",""stimuli/WF04_SC.jpg""]","stimuli/AF02_DO.jpg","stimuli/BF04_AO.jpg","stimuli/HM10_CC.jpg","stimuli/WF04_SC.jpg","pos2","stimuli/BF04_AO.jpg","AO","BF04","1","3","6","6","stimuli/stars_6.png","48.5","[""DO"",""AO"",""CC"",""SC""]","[""AF02"",""BF04"",""HM10"",""WF04""]","[0,6,3,7]","[2,6,4,8]","","",""
"show-reward","46","338103","0.0-46.0","p442350","AH7Z2M3KSQ4DW","3087LXLJ6NMH85PJ46SJUKP4Z1V0FD","3H0W84IWBM8GP57GTAWTLI0GF18RE2","emotion","mismatch","uniform","","","","","","","","338188","340218.30000000075","","","","","","","","","","","","6","","stimuli/stars_6.png","48.5","","","","","stimuli/BF04_AO.jpg","",""
"explore-choice","47","347302","0.0-47.0","p442350","AH7Z2M3KSQ4DW","3087LXLJ6NMH85PJ46SJUKP4Z1V0FD","3H0W84IWBM8GP57GTAWTLI0GF18RE2","emotion","mismatch","uniform","","","","","","","8681.5","340220.5","348902","[""stimuli/HM10_DO.jpg"",""stimuli/WF04_SC.jpg"",""stimuli/AF02_CC.jpg"",""stimuli/BF04_AO.jpg""]","stimuli/HM10_DO.jpg","stimuli/WF04_SC.jpg","stimuli/AF02_CC.jpg","stimuli/BF04_AO.jpg","pos4","stimuli/BF04_AO.jpg","AO","BF04","3","2","4","6","stimuli/stars_4.png","50.5","[""DO"",""SC"",""CC"",""AO""]","[""HM10"",""WF04"",""AF02"",""BF04""]","[3,9,2,4]","[2,8,4,6]","","",""
"show-reward","48","349314","0.0-48.0","p442350","AH7Z2M3KSQ4DW","3087LXLJ6NMH85PJ46SJUKP4Z1V0FD","3H0W84IWBM8GP57GTAWTLI0GF18RE2","emotion","mismatch","uniform","","","","","","","","349419.2000000011","351428.9000000004","","","","","","","","","","","","4","","stimuli/stars_4.png","50.5","","","","","stimuli/BF04_AO.jpg","",""
"explore-choice","49","361608","0.0-49.0","p442350","AH7Z2M3KSQ4DW","3087LXLJ6NMH85PJ46SJUKP4Z1V0FD","3H0W84IWBM8GP57GTAWTLI0GF18RE2","emotion","mismatch","uniform","","","","","","","11779","351431.5","363210.5","[""stimuli/WF04_AO.jpg"",""stimuli/AF02_DO.jpg"",""stimuli/HM10_SC.jpg"",""stimuli/BF04_CC.jpg""]","stimuli/WF04_AO.jpg","stimuli/AF02_DO.jpg","stimuli/HM10_SC.jpg","stimuli/BF04_CC.jpg","pos1","stimuli/WF04_AO.jpg","AO","WF04","0","2","4","6","stimuli/stars_4.png","52.5","[""AO"",""DO"",""SC"",""CC""]","[""WF04"",""AF02"",""HM10"",""BF04""]","[4,1,10,6]","[6,2,8,4]","","",""
"show-reward","50","363621","0.0-50.0","p442350","AH7Z2M3KSQ4DW","3087LXLJ6NMH85PJ46SJUKP4Z1V0FD","3H0W84IWBM8GP57GTAWTLI0GF18RE2","emotion","mismatch","uniform","","","","","","","","363724.9000000004","365735.9000000004","","","","","","","","","","","","4","","stimuli/stars_4.png","52.5","","","","","stimuli/WF04_AO.jpg","",""
"explore-choice","51","370595","0.0-51.0","p442350","AH7Z2M3KSQ4DW","3087LXLJ6NMH85PJ46SJUKP4Z1V0FD","3H0W84IWBM8GP57GTAWTLI0GF18RE2","emotion","mismatch","uniform","","","","","","","6460.5999999996275","365738.2000000011","372198.80000000075","[""stimuli/BF04_DO.jpg"",""stimuli/WF04_SC.jpg"",""stimuli/AF02_CC.jpg"",""stimuli/HM10_AO.jpg""]","stimuli/BF04_DO.jpg","stimuli/WF04_SC.jpg","stimuli/AF02_CC.jpg","stimuli/HM10_AO.jpg","pos4","stimuli/HM10_AO.jpg","AO","HM10","3","3.5","7","6","stimuli/stars_7.png","56","[""DO"",""SC"",""CC"",""AO""]","[""BF04"",""WF04"",""AF02"",""HM10""]","[0,9,4,7]","[2,8,4,6]","","",""
"show-reward","52","372623","0.0-52.0","p442350","AH7Z2M3KSQ4DW","3087LXLJ6NMH85PJ46SJUKP4Z1V0FD","3H0W84IWBM8GP57GTAWTLI0GF18RE2","emotion","mismatch","uniform","","","","","","","","372712.2000000011","374738.0999999996","","","","","","","","","","","","7","","stimuli/stars_7.png","56","","","","","stimuli/HM10_AO.jpg","",""
"explore-choice","53","382035","0.0-53.0","p442350","AH7Z2M3KSQ4DW","3087LXLJ6NMH85PJ46SJUKP4Z1V0FD","3H0W84IWBM8GP57GTAWTLI0GF18RE2","emotion","mismatch","uniform","","","","","","","8893.599999999627","374740.30000000075","383633.9000000004","[""stimuli/BF04_CC.jpg"",""stimuli/HM10_DO.jpg"",""stimuli/WF04_SC.jpg"",""stimuli/AF02_AO.jpg""]","stimuli/BF04_CC.jpg","stimuli/HM10_DO.jpg","stimuli/WF04_SC.jpg","stimuli/AF02_AO.jpg","pos4","stimuli/AF02_AO.jpg","AO","AF02","3","2.5","5","6","stimuli/stars_5.png","58.5","[""CC"",""DO"",""SC"",""AO""]","[""BF04"",""HM10"",""WF04"",""AF02""]","[6,0,6,5]","[4,2,8,6]","","",""
"show-reward","54","384051","0.0-54.0","p442350","AH7Z2M3KSQ4DW","3087LXLJ6NMH85PJ46SJUKP4Z1V0FD","3H0W84IWBM8GP57GTAWTLI0GF18RE2","emotion","mismatch","uniform","","","","","","","","384151.9000000004","386165.9000000004","","","","","","","","","","","","5","","stimuli/stars_5.png","58.5","","","","","stimuli/AF02_AO.jpg","",""
"explore-choice","55","388450","0.0-55.0","p442350","AH7Z2M3KSQ4DW","3087LXLJ6NMH85PJ46SJUKP4Z1V0FD","3H0W84IWBM8GP57GTAWTLI0GF18RE2","emotion","mismatch","uniform","","","","","","","3881.7999999988824","386168.30000000075","390050.0999999996","[""stimuli/AF02_DO.jpg"",""stimuli/WF04_CC.jpg"",""stimuli/BF04_SC.jpg"",""stimuli/HM10_AO.jpg""]","stimuli/AF02_DO.jpg","stimuli/WF04_CC.jpg","stimuli/BF04_SC.jpg","stimuli/HM10_AO.jpg","pos1","stimuli/AF02_DO.jpg","DO","AF02","0","0","0","2","stimuli/stars_0.png","58.5","[""DO"",""CC"",""SC"",""AO""]","[""AF02"",""WF04"",""BF04"",""HM10""]","[0,6,6,5]","[2,4,8,6]","","",""
"show-reward","56","390461","0.0-56.0","p442350","AH7Z2M3KSQ4DW","3087LXLJ6NMH85PJ46SJUKP4Z1V0FD","3H0W84IWBM8GP57GTAWTLI0GF18RE2","emotion","mismatch","uniform","","","","","","","","390566.4000000004","392575.4000000004","","","","","","","","","","","","0","","stimuli/stars_0.png","58.5","","","","","stimuli/AF02_DO.jpg","",""
"explore-choice","57","397322","0.0-57.0","p442350","AH7Z2M3KSQ4DW","3087LXLJ6NMH85PJ46SJUKP4Z1V0FD","3H0W84IWBM8GP57GTAWTLI0GF18RE2","emotion","mismatch","uniform","","","","","","","6344.800000000745","392577.5","398922.30000000075","[""stimuli/WF04_AO.jpg"",""stimuli/AF02_DO.jpg"",""stimuli/HM10_SC.jpg"",""stimuli/BF04_CC.jpg""]","stimuli/WF04_AO.jpg","stimuli/AF02_DO.jpg","stimuli/HM10_SC.jpg","stimuli/BF04_CC.jpg","pos2","stimuli/AF02_DO.jpg","DO","AF02","1","0.5","1","2","stimuli/stars_1.png","59","[""AO"",""DO"",""SC"",""CC""]","[""WF04"",""AF02"",""HM10"",""BF04""]","[4,1,10,6]","[6,2,8,4]","","",""
"show-reward","58","399341","0.0-58.0","p442350","AH7Z2M3KSQ4DW","3087LXLJ6NMH85PJ46SJUKP4Z1V0FD","3H0W84IWBM8GP57GTAWTLI0GF18RE2","emotion","mismatch","uniform","","","","","","","","399438.9000000004","401455.30000000075","","","","","","","","","","","","1","","stimuli/stars_1.png","59","","","","","stimuli/AF02_DO.jpg","",""
"explore-choice","59","403705","0.0-59.0","p442350","AH7Z2M3KSQ4DW","3087LXLJ6NMH85PJ46SJUKP4Z1V0FD","3H0W84IWBM8GP57GTAWTLI0GF18RE2","emotion","mismatch","uniform","","","","","","","3852","401457.5999999996","405309.5999999996","[""stimuli/HM10_DO.jpg"",""stimuli/BF04_CC.jpg"",""stimuli/AF02_AO.jpg"",""stimuli/WF04_SC.jpg""]","stimuli/HM10_DO.jpg","stimuli/BF04_CC.jpg","stimuli/AF02_AO.jpg","stimuli/WF04_SC.jpg","pos3","stimuli/AF02_AO.jpg","AO","AF02","2","2.5","5","6","stimuli/stars_5.png","61.5","[""DO"",""CC"",""AO"",""SC""]","[""HM10"",""BF04"",""AF02"",""WF04""]","[0,6,5,6]","[2,4,6,8]","","",""
"show-reward","60","405725","0.0-60.0","p442350","AH7Z2M3KSQ4DW","3087LXLJ6NMH85PJ46SJUKP4Z1V0FD","3H0W84IWBM8GP57GTAWTLI0GF18RE2","emotion","mismatch","uniform","","","","","","","","405821.4000000004","407839.30000000075","","","","","","","","","","","","5","","stimuli/stars_5.png","61.5","","","","","stimuli/AF02_AO.jpg","",""
"explore-choice","61","407637","0.0-61.0","p442350","AH7Z2M3KSQ4DW","3087LXLJ6NMH85PJ46SJUKP4Z1V0FD","3H0W84IWBM8GP57GTAWTLI0GF18RE2","emotion","mismatch","uniform","","","","","","","1401.2999999988824","407841.7000000011","409243","[""stimuli/BF04_AO.jpg"",""stimuli/WF04_DO.jpg"",""stimuli/AF02_CC.jpg"",""stimuli/HM10_SC.jpg""]","stimuli/BF04_AO.jpg","stimuli/WF04_DO.jpg","stimuli/AF02_CC.jpg","stimuli/HM10_SC.jpg","pos2","stimuli/WF04_DO.jpg","DO","WF04","1","0.5","1","2","stimuli/stars_1.png","62","[""AO"",""DO"",""CC"",""SC""]","[""BF04"",""WF04"",""AF02"",""HM10""]","[6,1,5,7]","[6,2,4,8]","","",""
"show-reward","62","409644","0.0-62.0","p442350","AH7Z2M3KSQ4DW","3087LXLJ6NMH85PJ46SJUKP4Z1V0FD","3H0W84IWBM8GP57GTAWTLI0GF18RE2","emotion","mismatch","uniform","","","","","","","","409754.2000000011","411757.7000000011","","","","","","","","","","","","1","","stimuli/stars_1.png","62","","","","","stimuli/WF04_DO.jpg","",""
"explore-choice","63","411292","0.0-63.0","p442350","AH7Z2M3KSQ4DW","3087LXLJ6NMH85PJ46SJUKP4Z1V0FD","3H0W84IWBM8GP57GTAWTLI0GF18RE2","emotion","mismatch","uniform","","","","","","","1142.4000000003725","411759.9000000004","412902.30000000075","[""stimuli/AF02_DO.jpg"",""stimuli/HM10_SC.jpg"",""stimuli/BF04_AO.jpg"",""stimuli/WF04_CC.jpg""]","stimuli/AF02_DO.jpg","stimuli/HM10_SC.jpg","stimuli/BF04_AO.jpg","stimuli/WF04_CC.jpg","pos3","stimuli/BF04_AO.jpg","AO","BF04","2","3","6","6","stimuli/stars_6.png","65","[""DO"",""SC"",""AO"",""CC""]","[""AF02"",""HM10"",""BF04"",""WF04""]","[0,9,6,5]","[2,8,6,4]","","",""
"show-reward","64","413305","0.0-64.0","p442350","AH7Z2M3KSQ4DW","3087LXLJ6NMH85PJ46SJUKP4Z1V0FD","3H0W84IWBM8GP57GTAWTLI0GF18RE2","emotion","mismatch","uniform","","","","","","","","413408.0999999996","415419","","","","","","","","","","","","6","","stimuli/stars_6.png","65","","","","","stimuli/BF04_AO.jpg","",""
"explore-choice","65","415824","0.0-65.0","p442350","AH7Z2M3KSQ4DW","3087LXLJ6NMH85PJ46SJUKP4Z1V0FD","3H0W84IWBM8GP57GTAWTLI0GF18RE2","emotion","mismatch","uniform","","","","","","","2006.5999999996275","415421.4000000004","417428","[""stimuli/WF04_DO.jpg"",""stimuli/AF02_SC.jpg"",""stimuli/BF04_AO.jpg"",""stimuli/HM10_CC.jpg""]","stimuli/WF04_DO.jpg","stimuli/AF02_SC.jpg","stimuli/BF04_AO.jpg","stimuli/HM10_CC.jpg","pos3","stimuli/BF04_AO.jpg","AO","BF04","2","2","4","6","stimuli/stars_4.png","67","[""DO"",""SC"",""AO"",""CC""]","[""WF04"",""AF02"",""BF04"",""HM10""]","[4,6,4,4]","[2,8,6,4]","","",""
"show-reward","66","417834","0.0-66.0","p442350","AH7Z2M3KSQ4DW","3087LXLJ6NMH85PJ46SJUKP4Z1V0FD","3H0W84IWBM8GP57GTAWTLI0GF18RE2","emotion","mismatch","uniform","","","","","","","","417939.80000000075","419947.9000000004","","","","","","","","","","","","4","","stimuli/stars_4.png","67","","","","","stimuli/BF04_AO.jpg","",""
"explore-choice","67","421031","0.0-67.0","p442350","AH7Z2M3KSQ4DW","3087LXLJ6NMH85PJ46SJUKP4Z1V0FD","3H0W84IWBM8GP57GTAWTLI0GF18RE2","emotion","mismatch","uniform","","","","","","","2679","419950.2000000011","422629.2000000011","[""stimuli/AF02_SC.jpg"",""stimuli/BF04_DO.jpg"",""stimuli/WF04_AO.jpg"",""stimuli/HM10_CC.jpg""]","stimuli/AF02_SC.jpg","stimuli/BF04_DO.jpg","stimuli/WF04_AO.jpg","stimuli/HM10_CC.jpg","pos1","stimuli/AF02_SC.jpg","SC","AF02","0","3","6","8","stimuli/stars_6.png","70","[""SC"",""DO"",""AO"",""CC""]","[""AF02"",""BF04"",""WF04"",""HM10""]","[6,2,4,4]","[8,2,6,4]","","",""
"show-reward","68","423045","0.0-68.0","p442350","AH7Z2M3KSQ4DW","3087LXLJ6NMH85PJ46SJUKP4Z1V0FD","3H0W84IWBM8GP57GTAWTLI0GF18RE2","emotion","mismatch","uniform","","","","","","","","423146.7000000011","425159","","","","","","","","","","","","6","","stimuli/stars_6.png","70","","","","","stimuli/AF02_SC.jpg","",""
"explore-choice","69","427426","0.0-69.0","p442350","AH7Z2M3KSQ4DW","3087LXLJ6NMH85PJ46SJUKP4Z1V0FD","3H0W84IWBM8GP57GTAWTLI0GF18RE2","emotion","mismatch","uniform","","","","","","","3877","425161.30000000075","429038.30000000075","[""stimuli/HM10_AO.jpg"",""stimuli/WF04_DO.jpg"",""stimuli/AF02_SC.jpg"",""stimuli/BF04_CC.jpg""]","stimuli/HM10_AO.jpg","stimuli/WF04_DO.jpg","stimuli/AF02_SC.jpg","stimuli/BF04_CC.jpg","pos1","stimuli/HM10_AO.jpg","AO","HM10","0","4","8","6","stimuli/stars_8.png","74","[""AO"",""DO"",""SC"",""CC""]","[""HM10"",""WF04"",""AF02"",""BF04""]","[8,0,10,6]","[6,2,8,4]","","",""
"show-reward","70","429441","0.0-70.0","p442350","AH7Z2M3KSQ4DW","3087LXLJ6NMH85PJ46SJUKP4Z1V0FD","3H0W84IWBM8GP57GTAWTLI0GF18RE2","emotion","mismatch","uniform","","","","","","","","429541.80000000075","431553.7000000011","","","","","","","","","","","","8","","stimuli/stars_8.png","74","","","","","stimuli/HM10_AO.jpg","",""
"explore-choice","71","432045","0.0-71.0","p442350","AH7Z2M3KSQ4DW","3087LXLJ6NMH85PJ46SJUKP4Z1V0FD","3H0W84IWBM8GP57GTAWTLI0GF18RE2","emotion","mismatch","uniform","","","","","","","2101.0999999996275","431556.9000000004","433658","[""stimuli/WF04_CC.jpg"",""stimuli/HM10_SC.jpg"",""stimuli/AF02_AO.jpg"",""stimuli/BF04_DO.jpg""]","stimuli/WF04_CC.jpg","stimuli/HM10_SC.jpg","stimuli/AF02_AO.jpg","stimuli/BF04_DO.jpg","pos2","stimuli/HM10_SC.jpg","SC","HM10","1","3.5","7","8","stimuli/stars_7.png","77.5","[""CC"",""SC"",""AO"",""DO""]","[""WF04"",""HM10"",""AF02"",""BF04""]","[2,7,7,0]","[4,8,6,2]","","",""
"show-reward","72","434054","0.0-72.0","p442350","AH7Z2M3KSQ4DW","3087LXLJ6NMH85PJ46SJUKP4Z1V0FD","3H0W84IWBM8GP57GTAWTLI0GF18RE2","emotion","mismatch","uniform","","","","","","","","434161.2000000011","436167.5","","","","","","","","","","","","7","","stimuli/stars_7.png","77.5","","","","","stimuli/HM10_SC.jpg","",""
"explore-choice","73","437303","0.0-73.0","p442350","AH7Z2M3KSQ4DW","3087LXLJ6NMH85PJ46SJUKP4Z1V0FD","3H0W84IWBM8GP57GTAWTLI0GF18RE2","emotion","mismatch","uniform","","","","","","","2736.9000000003725","436169.80000000075","438906.7000000011","[""stimuli/AF02_CC.jpg"",""stimuli/WF04_AO.jpg"",""stimuli/HM10_SC.jpg"",""stimuli/BF04_DO.jpg""]","stimuli/AF02_CC.jpg","stimuli/WF04_AO.jpg","stimuli/HM10_SC.jpg","stimuli/BF04_DO.jpg","pos2","stimuli/WF04_AO.jpg","AO","WF04","1","3","6","6","stimuli/stars_6.png","80.5","[""CC"",""AO"",""SC"",""DO""]","[""AF02"",""WF04"",""HM10"",""BF04""]","[4,6,10,1]","[4,6,8,2]","","",""
"show-reward","74","439315","0.0-74.0","p442350","AH7Z2M3KSQ4DW","3087LXLJ6NMH85PJ46SJUKP4Z1V0FD","3H0W84IWBM8GP57GTAWTLI0GF18RE2","emotion","mismatch","uniform","","","","","","","","439418.80000000075","441428.80000000075","","","","","","","","","","","","6","","stimuli/stars_6.png","80.5","","","","","stimuli/WF04_AO.jpg","",""
"explore-choice","75","446989","0.0-75.0","p442350","AH7Z2M3KSQ4DW","3087LXLJ6NMH85PJ46SJUKP4Z1V0FD","3H0W84IWBM8GP57GTAWTLI0GF18RE2","emotion","mismatch","uniform","","","","","","","7158.299999998882","441430.80000000075","448589.0999999996","[""stimuli/BF04_AO.jpg"",""stimuli/WF04_CC.jpg"",""stimuli/AF02_SC.jpg"",""stimuli/HM10_DO.jpg""]","stimuli/BF04_AO.jpg","stimuli/WF04_CC.jpg","stimuli/AF02_SC.jpg","stimuli/HM10_DO.jpg","pos2","stimuli/WF04_CC.jpg","CC","WF04","1","2","4","4","stimuli/stars_4.png","82.5","[""AO"",""CC"",""SC"",""DO""]","[""BF04"",""WF04"",""AF02"",""HM10""]","[4,4,8,0]","[6,4,8,2]","","",""
"show-reward","76","449004","0.0-76.0","p442350","AH7Z2M3KSQ4DW","3087LXLJ6NMH85PJ46SJUKP4Z1V0FD","3H0W84IWBM8GP57GTAWTLI0GF18RE2","emotion","mismatch","uniform","","","","","","","","449105.4000000004","451117.0999999996","","","","","","","","","","","","4","","stimuli/stars_4.png","82.5","","","","","stimuli/WF04_CC.jpg","",""
"explore-choice","77","467769","0.0-77.0","p442350","AH7Z2M3KSQ4DW","3087LXLJ6NMH85PJ46SJUKP4Z1V0FD","3H0W84IWBM8GP57GTAWTLI0GF18RE2","emotion","mismatch","uniform","","","","","","","18260.700000001118","451119.5999999996","469380.30000000075","[""stimuli/WF04_SC.jpg"",""stimuli/HM10_CC.jpg"",""stimuli/AF02_DO.jpg"",""stimuli/BF04_AO.jpg""]","stimuli/WF04_SC.jpg","stimuli/HM10_CC.jpg","stimuli/AF02_DO.jpg","stimuli/BF04_AO.jpg","pos1","stimuli/WF04_SC.jpg","SC","WF04","0","3.5","7","8","stimuli/stars_7.png","86","[""SC"",""CC"",""DO"",""AO""]","[""WF04"",""HM10"",""AF02"",""BF04""]","[7,3,0,6]","[8,4,2,6]","","",""
"show-reward","78","469778","0.0-78.0","p442350","AH7Z2M3KSQ4DW","3087LXLJ6NMH85PJ46SJUKP4Z1V0FD","3H0W84IWBM8GP57GTAWTLI0GF18RE2","emotion","mismatch","uniform","","","","","","","","469885.5","471891","","","","","","","","","","","","7","","stimuli/stars_7.png","86","","","","","stimuli/WF04_SC.jpg","",""
"explore-choice","79","475608","0.0-79.0","p442350","AH7Z2M3KSQ4DW","3087LXLJ6NMH85PJ46SJUKP4Z1V0FD","3H0W84IWBM8GP57GTAWTLI0GF18RE2","emotion","mismatch","uniform","","","","","","","5317.4000000003725","471894.9000000004","477212.30000000075","[""stimuli/HM10_DO.jpg"",""stimuli/BF04_SC.jpg"",""stimuli/WF04_AO.jpg"",""stimuli/AF02_CC.jpg""]","stimuli/HM10_DO.jpg","stimuli/BF04_SC.jpg","stimuli/WF04_AO.jpg","stimuli/AF02_CC.jpg","pos3","stimuli/WF04_AO.jpg","AO","WF04","2","3","6","6","stimuli/stars_6.png","89","[""DO"",""SC"",""AO"",""CC""]","[""HM10"",""BF04"",""WF04"",""AF02""]","[1,6,6,6]","[2,8,6,4]","","",""
"show-reward","80","477626","0.0-80.0","p442350","AH7Z2M3KSQ4DW","3087LXLJ6NMH85PJ46SJUKP4Z1V0FD","3H0W84IWBM8GP57GTAWTLI0GF18RE2","emotion","mismatch","uniform","","","","","","","","477726","479740.30000000075","","","","","","","","","","","","6","","stimuli/stars_6.png","89","","","","","stimuli/WF04_AO.jpg","",""
"explore-choice","81","488715","0.0-81.0","p442350","AH7Z2M3KSQ4DW","3087LXLJ6NMH85PJ46SJUKP4Z1V0FD","3H0W84IWBM8GP57GTAWTLI0GF18RE2","emotion","mismatch","uniform","","","","","","","10583.300000000745","479742.5","490325.80000000075","[""stimuli/HM10_DO.jpg"",""stimuli/WF04_CC.jpg"",""stimuli/BF04_SC.jpg"",""stimuli/AF02_AO.jpg""]","stimuli/HM10_DO.jpg","stimuli/WF04_CC.jpg","stimuli/BF04_SC.jpg","stimuli/AF02_AO.jpg","pos2","stimuli/WF04_CC.jpg","CC","WF04","1","1","2","4","stimuli/stars_2.png","90","[""DO"",""CC"",""SC"",""AO""]","[""HM10"",""WF04"",""BF04"",""AF02""]","[0,2,6,7]","[2,4,8,6]","","",""
"show-reward","82","490729","0.0-82.0","p442350","AH7Z2M3KSQ4DW","3087LXLJ6NMH85PJ46SJUKP4Z1V0FD","3H0W84IWBM8GP57GTAWTLI0GF18RE2","emotion","mismatch","uniform","","","","","","","","490832","492843.0999999996","","","","","","","","","","","","2","","stimuli/stars_2.png","90","","","","","stimuli/WF04_CC.jpg","",""
"explore-choice","83","495123","0.0-83.0","p442350","AH7Z2M3KSQ4DW","3087LXLJ6NMH85PJ46SJUKP4Z1V0FD","3H0W84IWBM8GP57GTAWTLI0GF18RE2","emotion","mismatch","uniform","","","","","","","3888.4000000003725","492845.5","496733.9000000004","[""stimuli/HM10_CC.jpg"",""stimuli/BF04_SC.jpg"",""stimuli/WF04_DO.jpg"",""stimuli/AF02_AO.jpg""]","stimuli/HM10_CC.jpg","stimuli/BF04_SC.jpg","stimuli/WF04_DO.jpg","stimuli/AF02_AO.jpg","pos3","stimuli/WF04_DO.jpg","DO","WF04","2","0.5","1","2","stimuli/stars_1.png","90.5","[""CC"",""SC"",""DO"",""AO""]","[""HM10"",""BF04"",""WF04"",""AF02""]","[4,6,1,5]","[4,8,2,6]","","",""
"show-reward","84","497143","0.0-84.0","p442350","AH7Z2M3KSQ4DW","3087LXLJ6NMH85PJ46SJUKP4Z1V0FD","3H0W84IWBM8GP57GTAWTLI0GF18RE2","emotion","mismatch","uniform","","","","","","","","497240.0999999996","499257","","","","","","","","","","","","1","","stimuli/stars_1.png","90.5","","","","","stimuli/WF04_DO.jpg","",""
"explore-choice","85","499386","0.0-85.0","p442350","AH7Z2M3KSQ4DW","3087LXLJ6NMH85PJ46SJUKP4Z1V0FD","3H0W84IWBM8GP57GTAWTLI0GF18RE2","emotion","mismatch","uniform","","","","","","","1725.800000000745","499259.4000000004","500985.2000000011","[""stimuli/HM10_AO.jpg"",""stimuli/AF02_DO.jpg"",""stimuli/BF04_CC.jpg"",""stimuli/WF04_SC.jpg""]","stimuli/HM10_AO.jpg","stimuli/AF02_DO.jpg","stimuli/BF04_CC.jpg","stimuli/WF04_SC.jpg","pos4","stimuli/WF04_SC.jpg","SC","WF04","3","4.5","9","8","stimuli/stars_9.png","95","[""AO"",""DO"",""CC"",""SC""]","[""HM10"",""AF02"",""BF04"",""WF04""]","[7,3,3,9]","[6,2,4,8]","","",""
"show-reward","86","501401","0.0-86.0","p442350","AH7Z2M3KSQ4DW","3087LXLJ6NMH85PJ46SJUKP4Z1V0FD","3H0W84IWBM8GP57GTAWTLI0GF18RE2","emotion","mismatch","uniform","","","","","","","","501502.5","503515.2000000011","","","","","","","","","","","","9","","stimuli/stars_9.png","95","","","","","stimuli/WF04_SC.jpg","",""
"explore-choice","87","506723","0.0-87.0","p442350","AH7Z2M3KSQ4DW","3087LXLJ6NMH85PJ46SJUKP4Z1V0FD","3H0W84IWBM8GP57GTAWTLI0GF18RE2","emotion","mismatch","uniform","","","","","","","4804.699999999255","503517.4000000004","508322.0999999996","[""stimuli/AF02_AO.jpg"",""stimuli/BF04_DO.jpg"",""stimuli/WF04_SC.jpg"",""stimuli/HM10_CC.jpg""]","stimuli/AF02_AO.jpg","stimuli/BF04_DO.jpg","stimuli/WF04_SC.jpg","stimuli/HM10_CC.jpg","pos3","stimuli/WF04_SC.jpg","SC","WF04","2","4.5","9","8","stimuli/stars_9.png","99.5","[""AO"",""DO"",""SC"",""CC""]","[""AF02"",""BF04"",""WF04"",""HM10""]","[7,3,9,2]","[6,2,8,4]","","",""
"show-reward","88","508746","0.0-88.0","p442350","AH7Z2M3KSQ4DW","3087LXLJ6NMH85PJ46SJUKP4Z1V0FD","3H0W84IWBM8GP57GTAWTLI0GF18RE2","emotion","mismatch","uniform","","","","","","","","508842.0999999996","510859.5","","","","","","","","","","","","9","","stimuli/stars_9.png","99.5","","","","","stimuli/WF04_SC.jpg","",""
"explore-choice","89","511531","0.0-89.0","p442350","AH7Z2M3KSQ4DW","3087LXLJ6NMH85PJ46SJUKP4Z1V0FD","3H0W84IWBM8GP57GTAWTLI0GF18RE2","emotion","mismatch","uniform","","","","","","","2260.0999999996275","510862.30000000075","513122.4000000004","[""stimuli/WF04_SC.jpg"",""stimuli/AF02_CC.jpg"",""stimuli/HM10_AO.jpg"",""stimuli/BF04_DO.jpg""]","stimuli/WF04_SC.jpg","stimuli/AF02_CC.jpg","stimuli/HM10_AO.jpg","stimuli/BF04_DO.jpg","pos1","stimuli/WF04_SC.jpg","SC","WF04","0","4.5","9","8","stimuli/stars_9.png","104","[""SC"",""CC"",""AO"",""DO""]","[""WF04"",""AF02"",""HM10"",""BF04""]","[9,4,7,0]","[8,4,6,2]","","",""
"show-reward","90","513542","0.0-90.0","p442350","AH7Z2M3KSQ4DW","3087LXLJ6NMH85PJ46SJUKP4Z1V0FD","3H0W84IWBM8GP57GTAWTLI0GF18RE2","emotion","mismatch","uniform","","","","","","","","513649.30000000075","515656","","","","","","","","","","","","9","","stimuli/stars_9.png","104","","","","","stimuli/WF04_SC.jpg","",""
"explore-choice","91","517103","0.0-91.0","p442350","AH7Z2M3KSQ4DW","3087LXLJ6NMH85PJ46SJUKP4Z1V0FD","3H0W84IWBM8GP57GTAWTLI0GF18RE2","emotion","mismatch","uniform","","","","","","","3058.9000000003725","515658.0999999996","518717","[""stimuli/HM10_DO.jpg"",""stimuli/BF04_AO.jpg"",""stimuli/AF02_CC.jpg"",""stimuli/WF04_SC.jpg""]","stimuli/HM10_DO.jpg","stimuli/BF04_AO.jpg","stimuli/AF02_CC.jpg","stimuli/WF04_SC.jpg","pos3","stimuli/AF02_CC.jpg","CC","AF02","2","1","2","4","stimuli/stars_2.png","105","[""DO"",""AO"",""CC"",""SC""]","[""HM10"",""BF04"",""AF02"",""WF04""]","[3,4,2,9]","[2,6,4,8]","","",""
"show-reward","92","519117","0.0-92.0","p442350","AH7Z2M3KSQ4DW","3087LXLJ6NMH85PJ46SJUKP4Z1V0FD","3H0W84IWBM8GP57GTAWTLI0GF18RE2","emotion","mismatch","uniform","","","","","","","","519219.30000000075","521231.30000000075","","","","","","","","","","","","2","","stimuli/stars_2.png","105","","","","","stimuli/AF02_CC.jpg","",""
"explore-choice","93","522330","0.0-93.0","p442350","AH7Z2M3KSQ4DW","3087LXLJ6NMH85PJ46SJUKP4Z1V0FD","3H0W84IWBM8GP57GTAWTLI0GF18RE2","emotion","mismatch","uniform","","","","","","","2699.39999999851","521233.2000000011","523932.5999999996","[""stimuli/BF04_SC.jpg"",""stimuli/AF02_DO.jpg"",""stimuli/WF04_AO.jpg"",""stimuli/HM10_CC.jpg""]","stimuli/BF04_SC.jpg","stimuli/AF02_DO.jpg","stimuli/WF04_AO.jpg","stimuli/HM10_CC.jpg","pos3","stimuli/WF04_AO.jpg","AO","WF04","2","2.5","5","6","stimuli/stars_5.png","107.5","[""SC"",""DO"",""AO"",""CC""]","[""BF04"",""AF02"",""WF04"",""HM10""]","[7,2,5,4]","[8,2,6,4]","","",""
"show-reward","94","524346","0.0-94.0","p442350","AH7Z2M3KSQ4DW","3087LXLJ6NMH85PJ46SJUKP4Z1V0FD","3H0W84IWBM8GP57GTAWTLI0GF18RE2","emotion","mismatch","uniform","","","","","","","","524446.4000000004","526460.4000000004","","","","","","","","","","","","5","","stimuli/stars_5.png","107.5","","","","","stimuli/WF04_AO.jpg","",""
"explore-choice","95","527309","0.0-95.0","p442350","AH7Z2M3KSQ4DW","3087LXLJ6NMH85PJ46SJUKP4Z1V0FD","3H0W84IWBM8GP57GTAWTLI0GF18RE2","emotion","mismatch","uniform","","","","","","","2445.5","526462.5999999996","528908.0999999996","[""stimuli/AF02_SC.jpg"",""stimuli/BF04_DO.jpg"",""stimuli/WF04_CC.jpg"",""stimuli/HM10_AO.jpg""]","stimuli/AF02_SC.jpg","stimuli/BF04_DO.jpg","stimuli/WF04_CC.jpg","stimuli/HM10_AO.jpg","pos3","stimuli/WF04_CC.jpg","CC","WF04","2","1.5","3","4","stimuli/stars_3.png","109","[""SC"",""DO"",""CC"",""AO""]","[""AF02"",""BF04"",""WF04"",""HM10""]","[6,3,3,6]","[8,2,4,6]","","",""
"show-reward","96","529329","0.0-96.0","p442350","AH7Z2M3KSQ4DW","3087LXLJ6NMH85PJ46SJUKP4Z1V0FD","3H0W84IWBM8GP57GTAWTLI0GF18RE2","emotion","mismatch","uniform","","","","","","","","529425.7000000011","531442.9000000004","","","","","","","","","","","","3","","stimuli/stars_3.png","109","","","","","stimuli/WF04_CC.jpg","",""
"explore-choice","97","535970","0.0-97.0","p442350","AH7Z2M3KSQ4DW","3087LXLJ6NMH85PJ46SJUKP4Z1V0FD","3H0W84IWBM8GP57GTAWTLI0GF18RE2","emotion","mismatch","uniform","","","","","","","6132.9000000003725","531445.3000000007","537578.2000000011","[""stimuli/WF04_DO.jpg"",""stimuli/HM10_AO.jpg"",""stimuli/BF04_SC.jpg"",""stimuli/AF02_CC.jpg""]","stimuli/WF04_DO.jpg","stimuli/HM10_AO.jpg","stimuli/BF04_SC.jpg","stimuli/AF02_CC.jpg","pos1","stimuli/WF04_DO.jpg","DO","WF04","0","1","2","2","stimuli/stars_2.png","110","[""DO"",""AO"",""SC"",""CC""]","[""WF04"",""HM10"",""BF04"",""AF02""]","[2,7,8,5]","[2,6,8,4]","","",""
"show-reward","98","537983","0.0-98.0","p442350","AH7Z2M3KSQ4DW","3087LXLJ6NMH85PJ46SJUKP4Z1V0FD","3H0W84IWBM8GP57GTAWTLI0GF18RE2","emotion","mismatch","uniform","","","","","","","","538086.0999999996","540096.5","","","","","","","","","","","","2","","stimuli/stars_2.png","110","","","","","stimuli/WF04_DO.jpg","",""
"explore-choice","99","540978","0.0-99.0","p442350","AH7Z2M3KSQ4DW","3087LXLJ6NMH85PJ46SJUKP4Z1V0FD","3H0W84IWBM8GP57GTAWTLI0GF18RE2","emotion","mismatch","uniform","","","","","","","2479.4000000003725","540098.4000000004","542577.8000000007","[""stimuli/AF02_SC.jpg"",""stimuli/HM10_DO.jpg"",""stimuli/BF04_CC.jpg"",""stimuli/WF04_AO.jpg""]","stimuli/AF02_SC.jpg","stimuli/HM10_DO.jpg","stimuli/BF04_CC.jpg","stimuli/WF04_AO.jpg","pos4","stimuli/WF04_AO.jpg","AO","WF04","3","2.5","5","6","stimuli/stars_5.png","112.5","[""SC"",""DO"",""CC"",""AO""]","[""AF02"",""HM10"",""BF04"",""WF04""]","[6,4,3,5]","[8,2,4,6]","","",""
"show-reward","100","542994","0.0-100.0","p442350","AH7Z2M3KSQ4DW","3087LXLJ6NMH85PJ46SJUKP4Z1V0FD","3H0W84IWBM8GP57GTAWTLI0GF18RE2","emotion","mismatch","uniform","","","","","","","","543094","545108.3000000007","","","","","","","","","","","","5","","stimuli/stars_5.png","112.5","","","","","stimuli/WF04_AO.jpg","",""
"explore-choice","101","545624","0.0-101.0","p442350","AH7Z2M3KSQ4DW","3087LXLJ6NMH85PJ46SJUKP4Z1V0FD","3H0W84IWBM8GP57GTAWTLI0GF18RE2","emotion","mismatch","uniform","","","","","","","2119.5","545110.5999999996","547230.0999999996","[""stimuli/AF02_AO.jpg"",""stimuli/BF04_CC.jpg"",""stimuli/HM10_SC.jpg"",""stimuli/WF04_DO.jpg""]","stimuli/AF02_AO.jpg","stimuli/BF04_CC.jpg","stimuli/HM10_SC.jpg","stimuli/WF04_DO.jpg","pos4","stimuli/WF04_DO.jpg","DO","WF04","3","1.5","3","2","stimuli/stars_3.png","114","[""AO"",""CC"",""SC"",""DO""]","[""AF02"",""BF04"",""HM10"",""WF04""]","[8,2,6,3]","[6,4,8,2]","","",""
"show-reward","102","547639","0.0-102.0","p442350","AH7Z2M3KSQ4DW","3087LXLJ6NMH85PJ46SJUKP4Z1V0FD","3H0W84IWBM8GP57GTAWTLI0GF18RE2","emotion","mismatch","uniform","","","","","","","","547739.8000000007","549753.3000000007","","","","","","","","","","","","3","","stimuli/stars_3.png","114","","","","","stimuli/WF04_DO.jpg","",""
"explore-choice","103","550120","0.0-103.0","p442350","AH7Z2M3KSQ4DW","3087LXLJ6NMH85PJ46SJUKP4Z1V0FD","3H0W84IWBM8GP57GTAWTLI0GF18RE2","emotion","mismatch","uniform","","","","","","","1967.4000000003725","549755.3000000007","551722.7000000011","[""stimuli/BF06_HE.jpg"",""stimuli/WF11_FO.jpg"",""stimuli/AF10_SUR.jpg"",""stimuli/HM09_HO.jpg""]","stimuli/BF06_HE.jpg","stimuli/WF11_FO.jpg","stimuli/AF10_SUR.jpg","stimuli/HM09_HO.jpg","pos1","stimuli/BF06_HE.jpg","HE","BF06","0","2","4","6","stimuli/stars_4.png","116","[""HE"",""FO"",""SUR"",""HO""]","[""BF06"",""WF11"",""AF10"",""HM09""]","[4,8,4,3]","[6,8,4,2]","","",""
"show-reward","104","552136","0.0-104.0","p442350","AH7Z2M3KSQ4DW","3087LXLJ6NMH85PJ46SJUKP4Z1V0FD","3H0W84IWBM8GP57GTAWTLI0GF18RE2","emotion","mismatch","uniform","","","","","","","","552235.8000000007","554249.3000000007","","","","","","","","","","","","4","","stimuli/stars_4.png","116","","","","","stimuli/BF06_HE.jpg","",""
"explore-choice","105","557862","0.0-105.0","p442350","AH7Z2M3KSQ4DW","3087LXLJ6NMH85PJ46SJUKP4Z1V0FD","3H0W84IWBM8GP57GTAWTLI0GF18RE2","emotion","mismatch","uniform","","","","","","","5211.4000000003725","554251.8000000007","559463.2000000011","[""stimuli/BF06_FO.jpg"",""stimuli/WF11_HO.jpg"",""stimuli/HM09_HE.jpg"",""stimuli/AF10_SUR.jpg""]","stimuli/BF06_FO.jpg","stimuli/WF11_HO.jpg","stimuli/HM09_HE.jpg","stimuli/AF10_SUR.jpg","pos1","stimuli/BF06_FO.jpg","FO","BF06","0","4","8","6","stimuli/stars_8.png","120","[""FO"",""HO"",""HE"",""SUR""]","[""BF06"",""WF11"",""HM09"",""AF10""]","[8,8,3,6]","[6,8,2,4]","","",""
"show-reward","106","559877","0.0-106.0","p442350","AH7Z2M3KSQ4DW","3087LXLJ6NMH85PJ46SJUKP4Z1V0FD","3H0W84IWBM8GP57GTAWTLI0GF18RE2","emotion","mismatch","uniform","","","","","","","","559977.7000000011","561991","","","","","","","","","","","","8","","stimuli/stars_8.png","120","","","","","stimuli/BF06_FO.jpg","",""
"explore-choice","107","563074","0.0-107.0","p442350","AH7Z2M3KSQ4DW","3087LXLJ6NMH85PJ46SJUKP4Z1V0FD","3H0W84IWBM8GP57GTAWTLI0GF18RE2","emotion","mismatch","uniform","","","","","","","2683.0999999996275","561993.4000000004","564676.5","[""stimuli/AF10_HO.jpg"",""stimuli/HM09_SUR.jpg"",""stimuli/WF11_HE.jpg"",""stimuli/BF06_FO.jpg""]","stimuli/AF10_HO.jpg","stimuli/HM09_SUR.jpg","stimuli/WF11_HE.jpg","stimuli/BF06_FO.jpg","pos1","stimuli/AF10_HO.jpg","HO","AF10","0","2.5","5","4","stimuli/stars_5.png","122.5","[""HO"",""SUR"",""HE"",""FO""]","[""AF10"",""HM09"",""WF11"",""BF06""]","[5,3,8,6]","[4,2,8,6]","","",""
"show-reward","108","565092","0.0-108.0","p442350","AH7Z2M3KSQ4DW","3087LXLJ6NMH85PJ46SJUKP4Z1V0FD","3H0W84IWBM8GP57GTAWTLI0GF18RE2","emotion","mismatch","uniform","","","","","","","","565189.7000000011","567206.0999999996","","","","","","","","","","","","5","","stimuli/stars_5.png","122.5","","","","","stimuli/AF10_HO.jpg","",""
"explore-choice","109","567503","0.0-109.0","p442350","AH7Z2M3KSQ4DW","3087LXLJ6NMH85PJ46SJUKP4Z1V0FD","3H0W84IWBM8GP57GTAWTLI0GF18RE2","emotion","mismatch","uniform","","","","","","","1900.699999999255","567208.7000000011","569109.4000000004","[""stimuli/AF10_HO.jpg"",""stimuli/WF11_FO.jpg"",""stimuli/BF06_HE.jpg"",""stimuli/HM09_SUR.jpg""]","stimuli/AF10_HO.jpg","stimuli/WF11_FO.jpg","stimuli/BF06_HE.jpg","stimuli/HM09_SUR.jpg","pos3","stimuli/BF06_HE.jpg","HE","BF06","2","4","8","6","stimuli/stars_8.png","126.5","[""HO"",""FO"",""HE"",""SUR""]","[""AF10"",""WF11"",""BF06"",""HM09""]","[3,8,8,1]","[4,8,6,2]","","",""
"show-reward","110","569519","0.0-110.0","p442350","AH7Z2M3KSQ4DW","3087LXLJ6NMH85PJ46SJUKP4Z1V0FD","3H0W84IWBM8GP57GTAWTLI0GF18RE2","emotion","mismatch","uniform","","","","","","","","569619.5","571632.3000000007","","","","","","","","","","","","8","","stimuli/stars_8.png","126.5","","","","","stimuli/BF06_HE.jpg","",""
"explore-choice","111","572699","0.0-111.0","p442350","AH7Z2M3KSQ4DW","3087LXLJ6NMH85PJ46SJUKP4Z1V0FD","3H0W84IWBM8GP57GTAWTLI0GF18RE2","emotion","mismatch","uniform","","","","","","","2660","571638.5","574298.5","[""stimuli/BF06_HE.jpg"",""stimuli/AF10_HO.jpg"",""stimuli/HM09_FO.jpg"",""stimuli/WF11_SUR.jpg""]","stimuli/BF06_HE.jpg","stimuli/AF10_HO.jpg","stimuli/HM09_FO.jpg","stimuli/WF11_SUR.jpg","pos1","stimuli/BF06_HE.jpg","HE","BF06","0","2.5","5","6","stimuli/stars_5.png","129","[""HE"",""HO"",""FO"",""SUR""]","[""BF06"",""AF10"",""HM09"",""WF11""]","[5,4,3,8]","[6,4,2,8]","","",""
"show-reward","112","574713","0.0-112.0","p442350","AH7Z2M3KSQ4DW","3087LXLJ6NMH85PJ46SJUKP4Z1V0FD","3H0W84IWBM8GP57GTAWTLI0GF18RE2","emotion","mismatch","uniform","","","","","","","","574815","576826.7000000011","","","","","","","","","","","","5","","stimuli/stars_5.png","129","","","","","stimuli/BF06_HE.jpg","",""
"explore-choice","113","583791","0.0-113.0","p442350","AH7Z2M3KSQ4DW","3087LXLJ6NMH85PJ46SJUKP4Z1V0FD","3H0W84IWBM8GP57GTAWTLI0GF18RE2","emotion","mismatch","uniform","","","","","","","8560.699999999255","576829.2000000011","585389.9000000004","[""stimuli/WF11_HO.jpg"",""stimuli/HM09_SUR.jpg"",""stimuli/BF06_HE.jpg"",""stimuli/AF10_FO.jpg""]","stimuli/WF11_HO.jpg","stimuli/HM09_SUR.jpg","stimuli/BF06_HE.jpg","stimuli/AF10_FO.jpg","pos1","stimuli/WF11_HO.jpg","HO","WF11","0","4.5","9","8","stimuli/stars_9.png","133.5","[""HO"",""SUR"",""HE"",""FO""]","[""WF11"",""HM09"",""BF06"",""AF10""]","[9,0,5,6]","[8,2,6,4]","","",""
"show-reward","114","585804","0.0-114.0","p442350","AH7Z2M3KSQ4DW","3087LXLJ6NMH85PJ46SJUKP4Z1V0FD","3H0W84IWBM8GP57GTAWTLI0GF18RE2","emotion","mismatch","uniform","","","","","","","","585907","587917.3000000007","","","","","","","","","","","","9","","stimuli/stars_9.png","133.5","","","","","stimuli/WF11_HO.jpg","",""
"explore-choice","115","588182","0.0-115.0","p442350","AH7Z2M3KSQ4DW","3087LXLJ6NMH85PJ46SJUKP4Z1V0FD","3H0W84IWBM8GP57GTAWTLI0GF18RE2","emotion","mismatch","uniform","","","","","","","1868.7999999988824","587919.8000000007","589788.5999999996","[""stimuli/HM09_FO.jpg"",""stimuli/WF11_HE.jpg"",""stimuli/BF06_SUR.jpg"",""stimuli/AF10_HO.jpg""]","stimuli/HM09_FO.jpg","stimuli/WF11_HE.jpg","stimuli/BF06_SUR.jpg","stimuli/AF10_HO.jpg","pos3","stimuli/BF06_SUR.jpg","SUR","BF06","2","3","6","6","stimuli/stars_6.png","136.5","[""FO"",""HE"",""SUR"",""HO""]","[""HM09"",""WF11"",""BF06"",""AF10""]","[1,9,6,2]","[2,8,6,4]","","",""
"show-reward","116","590197","0.0-116.0","p442350","AH7Z2M3KSQ4DW","3087LXLJ6NMH85PJ46SJUKP4Z1V0FD","3H0W84IWBM8GP57GTAWTLI0GF18RE2","emotion","mismatch","uniform","","","","","","","","590297.7000000011","592311.3000000007","","","","","","","","","","","","6","","stimuli/stars_6.png","136.5","","","","","stimuli/BF06_SUR.jpg","",""
"explore-choice","117","594875","0.0-117.0","p442350","AH7Z2M3KSQ4DW","3087LXLJ6NMH85PJ46SJUKP4Z1V0FD","3H0W84IWBM8GP57GTAWTLI0GF18RE2","emotion","mismatch","uniform","","","","","","","4167.89999999851","592313.7000000011","596481.5999999996","[""stimuli/AF10_SUR.jpg"",""stimuli/BF06_FO.jpg"",""stimuli/WF11_HE.jpg"",""stimuli/HM09_HO.jpg""]","stimuli/AF10_SUR.jpg","stimuli/BF06_FO.jpg","stimuli/WF11_HE.jpg","stimuli/HM09_HO.jpg","pos4","stimuli/HM09_HO.jpg","HO","HM09","3","1.5","3","2","stimuli/stars_3.png","138","[""SUR"",""FO"",""HE"",""HO""]","[""AF10"",""BF06"",""WF11"",""HM09""]","[6,6,7,3]","[4,6,8,2]","","",""
"show-reward","118","596891","0.0-118.0","p442350","AH7Z2M3KSQ4DW","3087LXLJ6NMH85PJ46SJUKP4Z1V0FD","3H0W84IWBM8GP57GTAWTLI0GF18RE2","emotion","mismatch","uniform","","","","","","","","596991.5999999996","599004.8000000007","","","","","","","","","","","","3","","stimuli/stars_3.png","138","","","","","stimuli/HM09_HO.jpg","",""
"explore-choice","119","601136","0.0-119.0","p442350","AH7Z2M3KSQ4DW","3087LXLJ6NMH85PJ46SJUKP4Z1V0FD","3H0W84IWBM8GP57GTAWTLI0GF18RE2","emotion","mismatch","uniform","","","","","","","3734.5","599007.2000000011","602741.7000000011","[""stimuli/HM09_HO.jpg"",""stimuli/BF06_FO.jpg"",""stimuli/AF10_HE.jpg"",""stimuli/WF11_SUR.jpg""]","stimuli/HM09_HO.jpg","stimuli/BF06_FO.jpg","stimuli/AF10_HE.jpg","stimuli/WF11_SUR.jpg","pos3","stimuli/AF10_HE.jpg","HE","AF10","2","2.5","5","4","stimuli/stars_5.png","140.5","[""HO"",""FO"",""HE"",""SUR""]","[""HM09"",""BF06"",""AF10"",""WF11""]","[2,6,5,10]","[2,6,4,8]","","",""
"show-reward","120","603144","0.0-120.0","p442350","AH7Z2M3KSQ4DW","3087LXLJ6NMH85PJ46SJUKP4Z1V0FD","3H0W84IWBM8GP57GTAWTLI0GF18RE2","emotion","mismatch","uniform","","","","","","","","603252.3000000007","605257.9000000004","","","","","","","","","","","","5","","stimuli/stars_5.png","140.5","","","","","stimuli/AF10_HE.jpg","",""
"explore-choice","121","605365","0.0-121.0","p442350","AH7Z2M3KSQ4DW","3087LXLJ6NMH85PJ46SJUKP4Z1V0FD","3H0W84IWBM8GP57GTAWTLI0GF18RE2","emotion","mismatch","uniform","","","","","","","1704.199999999255","605259.9000000004","606964.0999999996","[""stimuli/HM09_HE.jpg"",""stimuli/WF11_FO.jpg"",""stimuli/AF10_SUR.jpg"",""stimuli/BF06_HO.jpg""]","stimuli/HM09_HE.jpg","stimuli/WF11_FO.jpg","stimuli/AF10_SUR.jpg","stimuli/BF06_HO.jpg","pos4","stimuli/BF06_HO.jpg","HO","BF06","3","2.5","5","6","stimuli/stars_5.png","143","[""HE"",""FO"",""SUR"",""HO""]","[""HM09"",""WF11"",""AF10"",""BF06""]","[0,7,6,5]","[2,8,4,6]","","",""
"show-reward","122","607381","0.0-122.0","p442350","AH7Z2M3KSQ4DW","3087LXLJ6NMH85PJ46SJUKP4Z1V0FD","3H0W84IWBM8GP57GTAWTLI0GF18RE2","emotion","mismatch","uniform","","","","","","","","607480.8000000007","609495","","","","","","","","","","","","5","","stimuli/stars_5.png","143","","","","","stimuli/BF06_HO.jpg","",""
"explore-choice","123","609366","0.0-123.0","p442350","AH7Z2M3KSQ4DW","3087LXLJ6NMH85PJ46SJUKP4Z1V0FD","3H0W84IWBM8GP57GTAWTLI0GF18RE2","emotion","mismatch","uniform","","","","","","","1469.5","609497","610966.5","[""stimuli/AF10_HO.jpg"",""stimuli/BF06_FO.jpg"",""stimuli/HM09_HE.jpg"",""stimuli/WF11_SUR.jpg""]","stimuli/AF10_HO.jpg","stimuli/BF06_FO.jpg","stimuli/HM09_HE.jpg","stimuli/WF11_SUR.jpg","pos2","stimuli/BF06_FO.jpg","FO","BF06","1","2","4","6","stimuli/stars_4.png","145","[""HO"",""FO"",""HE"",""SUR""]","[""AF10"",""BF06"",""HM09"",""WF11""]","[4,4,2,6]","[4,6,2,8]","","",""
"show-reward","124","611378","0.0-124.0","p442350","AH7Z2M3KSQ4DW","3087LXLJ6NMH85PJ46SJUKP4Z1V0FD","3H0W84IWBM8GP57GTAWTLI0GF18RE2","emotion","mismatch","uniform","","","","","","","","611482.2000000011","613492.3000000007","","","","","","","","","","","","4","","stimuli/stars_4.png","145","","","","","stimuli/BF06_FO.jpg","",""
"explore-choice","125","613241","0.0-125.0","p442350","AH7Z2M3KSQ4DW","3087LXLJ6NMH85PJ46SJUKP4Z1V0FD","3H0W84IWBM8GP57GTAWTLI0GF18RE2","emotion","mismatch","uniform","","","","","","","1353.5999999996275","613494.2000000011","614847.8000000007","[""stimuli/HM09_FO.jpg"",""stimuli/BF06_SUR.jpg"",""stimuli/AF10_HE.jpg"",""stimuli/WF11_HO.jpg""]","stimuli/HM09_FO.jpg","stimuli/BF06_SUR.jpg","stimuli/AF10_HE.jpg","stimuli/WF11_HO.jpg","pos3","stimuli/AF10_HE.jpg","HE","AF10","2","1.5","3","4","stimuli/stars_3.png","146.5","[""FO"",""SUR"",""HE"",""HO""]","[""HM09"",""BF06"",""AF10"",""WF11""]","[4,8,3,6]","[2,6,4,8]","","",""
"show-reward","126","615257","0.0-126.0","p442350","AH7Z2M3KSQ4DW","3087LXLJ6NMH85PJ46SJUKP4Z1V0FD","3H0W84IWBM8GP57GTAWTLI0GF18RE2","emotion","mismatch","uniform","","","","","","","","615356.8000000007","617370.2000000011","","","","","","","","","","","","3","","stimuli/stars_3.png","146.5","","","","","stimuli/AF10_HE.jpg","",""
"explore-choice","127","616838","0.0-127.0","p442350","AH7Z2M3KSQ4DW","3087LXLJ6NMH85PJ46SJUKP4Z1V0FD","3H0W84IWBM8GP57GTAWTLI0GF18RE2","emotion","mismatch","uniform","","","","","","","1068.800000000745","617372.5999999996","618441.4000000004","[""stimuli/WF11_HO.jpg"",""stimuli/HM09_SUR.jpg"",""stimuli/AF10_HE.jpg"",""stimuli/BF06_FO.jpg""]","stimuli/WF11_HO.jpg","stimuli/HM09_SUR.jpg","stimuli/AF10_HE.jpg","stimuli/BF06_FO.jpg","pos1","stimuli/WF11_HO.jpg","HO","WF11","0","4","8","8","stimuli/stars_8.png","150.5","[""HO"",""SUR"",""HE"",""FO""]","[""WF11"",""HM09"",""AF10"",""BF06""]","[8,1,5,6]","[8,2,4,6]","","",""
"show-reward","128","618855","0.0-128.0","p442350","AH7Z2M3KSQ4DW","3087LXLJ6NMH85PJ46SJUKP4Z1V0FD","3H0W84IWBM8GP57GTAWTLI0GF18RE2","emotion","mismatch","uniform","","","","","","","","618954.0999999996","620968","","","","","","","","","","","","8","","stimuli/stars_8.png","150.5","","","","","stimuli/WF11_HO.jpg","",""
"explore-choice","129","620983","0.0-129.0","p442350","AH7Z2M3KSQ4DW","3087LXLJ6NMH85PJ46SJUKP4Z1V0FD","3H0W84IWBM8GP57GTAWTLI0GF18RE2","emotion","mismatch","uniform","","","","","","","1614.300000000745","620970.5999999996","622584.9000000004","[""stimuli/HM09_HE.jpg"",""stimuli/WF11_HO.jpg"",""stimuli/AF10_FO.jpg"",""stimuli/BF06_SUR.jpg""]","stimuli/HM09_HE.jpg","stimuli/WF11_HO.jpg","stimuli/AF10_FO.jpg","stimuli/BF06_SUR.jpg","pos1","stimuli/HM09_HE.jpg","HE","HM09","0","1.5","3","2","stimuli/stars_3.png","152","[""HE"",""HO"",""FO"",""SUR""]","[""HM09"",""WF11"",""AF10"",""BF06""]","[3,6,4,7]","[2,8,4,6]","","",""
"show-reward","130","622999","0.0-130.0","p442350","AH7Z2M3KSQ4DW","3087LXLJ6NMH85PJ46SJUKP4Z1V0FD","3H0W84IWBM8GP57GTAWTLI0GF18RE2","emotion","mismatch","uniform","","","","","","","","623099.0999999996","625112.5999999996","","","","","","","","","","","","3","","stimuli/stars_3.png","152","","","","","stimuli/HM09_HE.jpg","",""
"explore-choice","131","624301","0.0-131.0","p442350","AH7Z2M3KSQ4DW","3087LXLJ6NMH85PJ46SJUKP4Z1V0FD","3H0W84IWBM8GP57GTAWTLI0GF18RE2","emotion","mismatch","uniform","","","","","","","790.9000000003725","625115","625905.9000000004","[""stimuli/AF10_FO.jpg"",""stimuli/BF06_SUR.jpg"",""stimuli/WF11_HE.jpg"",""stimuli/HM09_HO.jpg""]","stimuli/AF10_FO.jpg","stimuli/BF06_SUR.jpg","stimuli/WF11_HE.jpg","stimuli/HM09_HO.jpg","pos4","stimuli/HM09_HO.jpg","HO","HM09","3","1","2","2","stimuli/stars_2.png","153","[""FO"",""SUR"",""HE"",""HO""]","[""AF10"",""BF06"",""WF11"",""HM09""]","[5,8,6,2]","[4,6,8,2]","","",""
"show-reward","132","626314","0.0-132.0","p442350","AH7Z2M3KSQ4DW","3087LXLJ6NMH85PJ46SJUKP4Z1V0FD","3H0W84IWBM8GP57GTAWTLI0GF18RE2","emotion","mismatch","uniform","","","","","","","","626417.5999999996","628427.7000000011","","","","","","","","","","","","2","","stimuli/stars_2.png","153","","","","","stimuli/HM09_HO.jpg","",""
"explore-choice","133","628046","0.0-133.0","p442350","AH7Z2M3KSQ4DW","3087LXLJ6NMH85PJ46SJUKP4Z1V0FD","3H0W84IWBM8GP57GTAWTLI0GF18RE2","emotion","mismatch","uniform","","","","","","","1228","628430.3000000007","629658.3000000007","[""stimuli/HM09_SUR.jpg"",""stimuli/BF06_HO.jpg"",""stimuli/AF10_FO.jpg"",""stimuli/WF11_HE.jpg""]","stimuli/HM09_SUR.jpg","stimuli/BF06_HO.jpg","stimuli/AF10_FO.jpg","stimuli/WF11_HE.jpg","pos2","stimuli/BF06_HO.jpg","HO","BF06","1","3.5","7","6","stimuli/stars_7.png","156.5","[""SUR"",""HO"",""FO"",""HE""]","[""HM09"",""BF06"",""AF10"",""WF11""]","[1,7,5,10]","[2,6,4,8]","","",""
"show-reward","134","630059","0.0-134.0","p442350","AH7Z2M3KSQ4DW","3087LXLJ6NMH85PJ46SJUKP4Z1V0FD","3H0W84IWBM8GP57GTAWTLI0GF18RE2","emotion","mismatch","uniform","","","","","","","","630161.7000000011","632172.0999999996","","","","","","","","","","","","7","","stimuli/stars_7.png","156.5","","","","","stimuli/BF06_HO.jpg","",""
"explore-choice","135","634438","0.0-135.0","p442350","AH7Z2M3KSQ4DW","3087LXLJ6NMH85PJ46SJUKP4Z1V0FD","3H0W84IWBM8GP57GTAWTLI0GF18RE2","emotion","mismatch","uniform","","","","","","","3861","632174.5","636035.5","[""stimuli/AF10_SUR.jpg"",""stimuli/WF11_HO.jpg"",""stimuli/BF06_HE.jpg"",""stimuli/HM09_FO.jpg""]","stimuli/AF10_SUR.jpg","stimuli/WF11_HO.jpg","stimuli/BF06_HE.jpg","stimuli/HM09_FO.jpg","pos3","stimuli/BF06_HE.jpg","HE","BF06","2","3","6","6","stimuli/stars_6.png","159.5","[""SUR"",""HO"",""HE"",""FO""]","[""AF10"",""WF11"",""BF06"",""HM09""]","[4,10,6,4]","[4,8,6,2]","","",""
"show-reward","136","636453","0.0-136.0","p442350","AH7Z2M3KSQ4DW","3087LXLJ6NMH85PJ46SJUKP4Z1V0FD","3H0W84IWBM8GP57GTAWTLI0GF18RE2","emotion","mismatch","uniform","","","","","","","","636553.9000000004","638566.0999999996","","","","","","","","","","","","6","","stimuli/stars_6.png","159.5","","","","","stimuli/BF06_HE.jpg","",""
"explore-choice","137","641420","0.0-137.0","p442350","AH7Z2M3KSQ4DW","3087LXLJ6NMH85PJ46SJUKP4Z1V0FD","3H0W84IWBM8GP57GTAWTLI0GF18RE2","emotion","mismatch","uniform","","","","","","","4454","638570","643024","[""stimuli/BF06_SUR.jpg"",""stimuli/HM09_HO.jpg"",""stimuli/AF10_HE.jpg"",""stimuli/WF11_FO.jpg""]","stimuli/BF06_SUR.jpg","stimuli/HM09_HO.jpg","stimuli/AF10_HE.jpg","stimuli/WF11_FO.jpg","pos2","stimuli/HM09_HO.jpg","HO","HM09","1","1","2","2","stimuli/stars_2.png","160.5","[""SUR"",""HO"",""HE"",""FO""]","[""BF06"",""HM09"",""AF10"",""WF11""]","[6,2,5,10]","[6,2,4,8]","","",""
"show-reward","138","643430","0.0-138.0","p442350","AH7Z2M3KSQ4DW","3087LXLJ6NMH85PJ46SJUKP4Z1V0FD","3H0W84IWBM8GP57GTAWTLI0GF18RE2","emotion","mismatch","uniform","","","","","","","","643535.3000000007","645543.4000000004","","","","","","","","","","","","2","","stimuli/stars_2.png","160.5","","","","","stimuli/HM09_HO.jpg","",""
"explore-choice","139","647990","0.0-139.0","p442350","AH7Z2M3KSQ4DW","3087LXLJ6NMH85PJ46SJUKP4Z1V0FD","3H0W84IWBM8GP57GTAWTLI0GF18RE2","emotion","mismatch","uniform","","","","","","","4043.699999999255","645545.8000000007","649589.5","[""stimuli/WF11_SUR.jpg"",""stimuli/HM09_FO.jpg"",""stimuli/AF10_HE.jpg"",""stimuli/BF06_HO.jpg""]","stimuli/WF11_SUR.jpg","stimuli/HM09_FO.jpg","stimuli/AF10_HE.jpg","stimuli/BF06_HO.jpg","pos4","stimuli/BF06_HO.jpg","HO","BF06","3","4","8","6","stimuli/stars_8.png","164.5","[""SUR"",""FO"",""HE"",""HO""]","[""WF11"",""HM09"",""AF10"",""BF06""]","[10,0,3,8]","[8,2,4,6]","","",""
"show-reward","140","650006","0.0-140.0","p442350","AH7Z2M3KSQ4DW","3087LXLJ6NMH85PJ46SJUKP4Z1V0FD","3H0W84IWBM8GP57GTAWTLI0GF18RE2","emotion","mismatch","uniform","","","","","","","","650106.0999999996","652119.4000000004","","","","","","","","","","","","8","","stimuli/stars_8.png","164.5","","","","","stimuli/BF06_HO.jpg","",""
"explore-choice","141","653319","0.0-141.0","p442350","AH7Z2M3KSQ4DW","3087LXLJ6NMH85PJ46SJUKP4Z1V0FD","3H0W84IWBM8GP57GTAWTLI0GF18RE2","emotion","mismatch","uniform","","","","","","","2796.7999999988824","652121.8000000007","654918.5999999996","[""stimuli/WF11_SUR.jpg"",""stimuli/HM09_HE.jpg"",""stimuli/BF06_HO.jpg"",""stimuli/AF10_FO.jpg""]","stimuli/WF11_SUR.jpg","stimuli/HM09_HE.jpg","stimuli/BF06_HO.jpg","stimuli/AF10_FO.jpg","pos3","stimuli/BF06_HO.jpg","HO","BF06","2","2","4","6","stimuli/stars_4.png","166.5","[""SUR"",""HE"",""HO"",""FO""]","[""WF11"",""HM09"",""BF06"",""AF10""]","[9,3,4,5]","[8,2,6,4]","","",""
"show-reward","142","655334","0.0-142.0","p442350","AH7Z2M3KSQ4DW","3087LXLJ6NMH85PJ46SJUKP4Z1V0FD","3H0W84IWBM8GP57GTAWTLI0GF18RE2","emotion","mismatch","uniform","","","","","","","","655442.3000000007","657448.0999999996","","","","","","","","","","","","4","","stimuli/stars_4.png","166.5","","","","","stimuli/BF06_HO.jpg","",""
"explore-choice","143","660514","0.0-143.0","p442350","AH7Z2M3KSQ4DW","3087LXLJ6NMH85PJ46SJUKP4Z1V0FD","3H0W84IWBM8GP57GTAWTLI0GF18RE2","emotion","mismatch","uniform","","","","","","","4668","657450.4000000004","662118.4000000004","[""stimuli/BF06_HO.jpg"",""stimuli/HM09_SUR.jpg"",""stimuli/AF10_HE.jpg"",""stimuli/WF11_FO.jpg""]","stimuli/BF06_HO.jpg","stimuli/HM09_SUR.jpg","stimuli/AF10_HE.jpg","stimuli/WF11_FO.jpg","pos1","stimuli/BF06_HO.jpg","HO","BF06","0","4","8","6","stimuli/stars_8.png","170.5","[""HO"",""SUR"",""HE"",""FO""]","[""BF06"",""HM09"",""AF10"",""WF11""]","[8,1,6,9]","[6,2,4,8]","","",""
"show-reward","144","662531","0.0-144.0","p442350","AH7Z2M3KSQ4DW","3087LXLJ6NMH85PJ46SJUKP4Z1V0FD","3H0W84IWBM8GP57GTAWTLI0GF18RE2","emotion","mismatch","uniform","","","","","","","","662632.0999999996","664645.2000000011","","","","","","","","","","","","8","","stimuli/stars_8.png","170.5","","","","","stimuli/BF06_HO.jpg","",""
"explore-choice","145","669109","0.0-145.0","p442350","AH7Z2M3KSQ4DW","3087LXLJ6NMH85PJ46SJUKP4Z1V0FD","3H0W84IWBM8GP57GTAWTLI0GF18RE2","emotion","mismatch","uniform","","","","","","","6066.699999999255","664647.2000000011","670713.9000000004","[""stimuli/AF10_FO.jpg"",""stimuli/HM09_HO.jpg"",""stimuli/WF11_SUR.jpg"",""stimuli/BF06_HE.jpg""]","stimuli/AF10_FO.jpg","stimuli/HM09_HO.jpg","stimuli/WF11_SUR.jpg","stimuli/BF06_HE.jpg","pos4","stimuli/BF06_HE.jpg","HE","BF06","3","3","6","6","stimuli/stars_6.png","173.5","[""FO"",""HO"",""SUR"",""HE""]","[""AF10"",""HM09"",""WF11"",""BF06""]","[2,4,7,6]","[4,2,8,6]","","",""
"show-reward","146","671119","0.0-146.0","p442350","AH7Z2M3KSQ4DW","3087LXLJ6NMH85PJ46SJUKP4Z1V0FD","3H0W84IWBM8GP57GTAWTLI0GF18RE2","emotion","mismatch","uniform","","","","","","","","671225.0999999996","673233","","","","","","","","","","","","6","","stimuli/stars_6.png","173.5","","","","","stimuli/BF06_HE.jpg","",""
"explore-choice","147","674310","0.0-147.0","p442350","AH7Z2M3KSQ4DW","3087LXLJ6NMH85PJ46SJUKP4Z1V0FD","3H0W84IWBM8GP57GTAWTLI0GF18RE2","emotion","mismatch","uniform","","","","","","","2678.5","673236.0999999996","675914.5999999996","[""stimuli/BF06_SUR.jpg"",""stimuli/HM09_HE.jpg"",""stimuli/WF11_FO.jpg"",""stimuli/AF10_HO.jpg""]","stimuli/BF06_SUR.jpg","stimuli/HM09_HE.jpg","stimuli/WF11_FO.jpg","stimuli/AF10_HO.jpg","pos2","stimuli/HM09_HE.jpg","HE","HM09","1","1","2","2","stimuli/stars_2.png","174.5","[""SUR"",""HE"",""FO"",""HO""]","[""BF06"",""HM09"",""WF11"",""AF10""]","[8,2,8,5]","[6,2,8,4]","","",""
"show-reward","148","676315","0.0-148.0","p442350","AH7Z2M3KSQ4DW","3087LXLJ6NMH85PJ46SJUKP4Z1V0FD","3H0W84IWBM8GP57GTAWTLI0GF18RE2","emotion","mismatch","uniform","","","","","","","","676426.0999999996","678428.5999999996","","","","","","","","","","","","2","","stimuli/stars_2.png","174.5","","","","","stimuli/HM09_HE.jpg","",""
"explore-choice","149","686137","0.0-149.0","p442350","AH7Z2M3KSQ4DW","3087LXLJ6NMH85PJ46SJUKP4Z1V0FD","3H0W84IWBM8GP57GTAWTLI0GF18RE2","emotion","mismatch","uniform","","","","","","","9315.5","678431","687746.5","[""stimuli/WF11_HE.jpg"",""stimuli/BF06_HO.jpg"",""stimuli/HM09_FO.jpg"",""stimuli/AF10_SUR.jpg""]","stimuli/WF11_HE.jpg","stimuli/BF06_HO.jpg","stimuli/HM09_FO.jpg","stimuli/AF10_SUR.jpg","pos2","stimuli/BF06_HO.jpg","HO","BF06","1","3.5","7","6","stimuli/stars_7.png","178","[""HE"",""HO"",""FO"",""SUR""]","[""WF11"",""BF06"",""HM09"",""AF10""]","[6,7,1,3]","[8,6,2,4]","","",""
"show-reward","150","688151","0.0-150.0","p442350","AH7Z2M3KSQ4DW","3087LXLJ6NMH85PJ46SJUKP4Z1V0FD","3H0W84IWBM8GP57GTAWTLI0GF18RE2","emotion","mismatch","uniform","","","","","","","","688253.3000000007","690264.9000000004","","","","","","","","","","","","7","","stimuli/stars_7.png","178","","","","","stimuli/BF06_HO.jpg","",""
"explore-choice","151","690397","0.0-151.0","p442350","AH7Z2M3KSQ4DW","3087LXLJ6NMH85PJ46SJUKP4Z1V0FD","3H0W84IWBM8GP57GTAWTLI0GF18RE2","emotion","mismatch","uniform","","","","","","","1739.699999999255","690266.9000000004","692006.5999999996","[""stimuli/HM09_FO.jpg"",""stimuli/WF11_HE.jpg"",""stimuli/BF06_HO.jpg"",""stimuli/AF10_SUR.jpg""]","stimuli/HM09_FO.jpg","stimuli/WF11_HE.jpg","stimuli/BF06_HO.jpg","stimuli/AF10_SUR.jpg","pos3","stimuli/BF06_HO.jpg","HO","BF06","2","3.5","7","6","stimuli/stars_7.png","181.5","[""FO"",""HE"",""HO"",""SUR""]","[""HM09"",""WF11"",""BF06"",""AF10""]","[1,6,7,3]","[2,8,6,4]","","",""
"show-reward","152","692410","0.0-152.0","p442350","AH7Z2M3KSQ4DW","3087LXLJ6NMH85PJ46SJUKP4Z1V0FD","3H0W84IWBM8GP57GTAWTLI0GF18RE2","emotion","mismatch","uniform","","","","","","","","692513.4000000004","694523.7000000011","","","","","","","","","","","","7","","stimuli/stars_7.png","181.5","","","","","stimuli/BF06_HO.jpg","",""
"explore-choice","153","694246","0.0-153.0","p442350","AH7Z2M3KSQ4DW","3087LXLJ6NMH85PJ46SJUKP4Z1V0FD","3H0W84IWBM8GP57GTAWTLI0GF18RE2","emotion","mismatch","uniform","","","","","","","1326.5","694527.3000000007","695853.8000000007","[""stimuli/BF06_SUR.jpg"",""stimuli/HM09_HE.jpg"",""stimuli/WF11_HO.jpg"",""stimuli/AF10_FO.jpg""]","stimuli/BF06_SUR.jpg","stimuli/HM09_HE.jpg","stimuli/WF11_HO.jpg","stimuli/AF10_FO.jpg","pos3","stimuli/WF11_HO.jpg","HO","WF11","2","3","6","8","stimuli/stars_6.png","184.5","[""SUR"",""HE"",""HO"",""FO""]","[""BF06"",""HM09"",""WF11"",""AF10""]","[7,3,6,4]","[6,2,8,4]","","",""
"show-reward","154","696260","0.0-154.0","p442350","AH7Z2M3KSQ4DW","3087LXLJ6NMH85PJ46SJUKP4Z1V0FD","3H0W84IWBM8GP57GTAWTLI0GF18RE2","emotion","mismatch","uniform","","","","","","","","696361.5999999996","698373.7000000011","","","","","","","","","","","","6","","stimuli/stars_6.png","184.5","","","","","stimuli/WF11_HO.jpg","",""
"explore-choice","155","697832","0.0-155.0","p442350","AH7Z2M3KSQ4DW","3087LXLJ6NMH85PJ46SJUKP4Z1V0FD","3H0W84IWBM8GP57GTAWTLI0GF18RE2","emotion","mismatch","uniform","","","","","","","1062.5","698376.3000000007","699438.8000000007","[""stimuli/AF10_SUR.jpg"",""stimuli/BF06_FO.jpg"",""stimuli/WF11_HO.jpg"",""stimuli/HM09_HE.jpg""]","stimuli/AF10_SUR.jpg","stimuli/BF06_FO.jpg","stimuli/WF11_HO.jpg","stimuli/HM09_HE.jpg","pos3","stimuli/WF11_HO.jpg","HO","WF11","2","4","8","8","stimuli/stars_8.png","188.5","[""SUR"",""FO"",""HO"",""HE""]","[""AF10"",""BF06"",""WF11"",""HM09""]","[6,8,8,3]","[4,6,8,2]","","",""
"show-reward","156","699841","0.0-156.0","p442350","AH7Z2M3KSQ4DW","3087LXLJ6NMH85PJ46SJUKP4Z1V0FD","3H0W84IWBM8GP57GTAWTLI0GF18RE2","emotion","mismatch","uniform","","","","","","","","699948.0999999996","701954.9000000004","","","","","","","","","","","","8","","stimuli/stars_8.png","188.5","","","","","stimuli/WF11_HO.jpg","",""
"explore-choice","157","702670","0.0-157.0","p442350","AH7Z2M3KSQ4DW","3087LXLJ6NMH85PJ46SJUKP4Z1V0FD","3H0W84IWBM8GP57GTAWTLI0GF18RE2","emotion","mismatch","uniform","","","","","","","2321.9000000003725","701957.5","704279.4000000004","[""stimuli/BF06_HO.jpg"",""stimuli/HM09_HE.jpg"",""stimuli/WF11_SUR.jpg"",""stimuli/AF10_FO.jpg""]","stimuli/BF06_HO.jpg","stimuli/HM09_HE.jpg","stimuli/WF11_SUR.jpg","stimuli/AF10_FO.jpg","pos1","stimuli/BF06_HO.jpg","HO","BF06","0","2","4","6","stimuli/stars_4.png","190.5","[""HO"",""HE"",""SUR"",""FO""]","[""BF06"",""HM09"",""WF11"",""AF10""]","[4,3,9,5]","[6,2,8,4]","","",""
"show-reward","158","704685","0.0-158.0","p442350","AH7Z2M3KSQ4DW","3087LXLJ6NMH85PJ46SJUKP4Z1V0FD","3H0W84IWBM8GP57GTAWTLI0GF18RE2","emotion","mismatch","uniform","","","","","","","","704786.4000000004","706798.5","","","","","","","","","","","","4","","stimuli/stars_4.png","190.5","","","","","stimuli/BF06_HO.jpg","",""
"explore-choice","159","706768","0.0-159.0","p442350","AH7Z2M3KSQ4DW","3087LXLJ6NMH85PJ46SJUKP4Z1V0FD","3H0W84IWBM8GP57GTAWTLI0GF18RE2","emotion","mismatch","uniform","","","","","","","1568.5999999996275","706801.4000000004","708370","[""stimuli/BF06_HE.jpg"",""stimuli/HM09_HO.jpg"",""stimuli/WF11_SUR.jpg"",""stimuli/AF10_FO.jpg""]","stimuli/BF06_HE.jpg","stimuli/HM09_HO.jpg","stimuli/WF11_SUR.jpg","stimuli/AF10_FO.jpg","pos2","stimuli/HM09_HO.jpg","HO","HM09","1","2","4","2","stimuli/stars_4.png","192.5","[""HE"",""HO"",""SUR"",""FO""]","[""BF06"",""HM09"",""WF11"",""AF10""]","[6,4,7,2]","[6,2,8,4]","","",""
"show-reward","160","708782","0.0-160.0","p442350","AH7Z2M3KSQ4DW","3087LXLJ6NMH85PJ46SJUKP4Z1V0FD","3H0W84IWBM8GP57GTAWTLI0GF18RE2","emotion","mismatch","uniform","","","","","","","","708884.8000000007","710894.7000000011","","","","","","","","","","","","4","","stimuli/stars_4.png","192.5","","","","","stimuli/HM09_HO.jpg","",""
"explore-choice","161","715492","0.0-161.0","p442350","AH7Z2M3KSQ4DW","3087LXLJ6NMH85PJ46SJUKP4Z1V0FD","3H0W84IWBM8GP57GTAWTLI0GF18RE2","emotion","mismatch","uniform","","","","","","","6193","710899.2000000011","717092.2000000011","[""stimuli/AF10_HE.jpg"",""stimuli/HM09_FO.jpg"",""stimuli/WF11_SUR.jpg"",""stimuli/BF06_HO.jpg""]","stimuli/AF10_HE.jpg","stimuli/HM09_FO.jpg","stimuli/WF11_SUR.jpg","stimuli/BF06_HO.jpg","pos1","stimuli/AF10_HE.jpg","HE","AF10","0","1.5","3","4","stimuli/stars_3.png","194","[""HE"",""FO"",""SUR"",""HO""]","[""AF10"",""HM09"",""WF11"",""BF06""]","[3,0,10,8]","[4,2,8,6]","","",""
"show-reward","162","717515","0.0-162.0","p442350","AH7Z2M3KSQ4DW","3087LXLJ6NMH85PJ46SJUKP4Z1V0FD","3H0W84IWBM8GP57GTAWTLI0GF18RE2","emotion","mismatch","uniform","","","","","","","","717608.0999999996","719628.0999999996","","","","","","","","","","","","3","","stimuli/stars_3.png","194","","","","","stimuli/AF10_HE.jpg","",""
"explore-choice","163","720019","0.0-163.0","p442350","AH7Z2M3KSQ4DW","3087LXLJ6NMH85PJ46SJUKP4Z1V0FD","3H0W84IWBM8GP57GTAWTLI0GF18RE2","emotion","mismatch","uniform","","","","","","","1985.5999999996275","719632.4000000004","721618","[""stimuli/WF11_FO.jpg"",""stimuli/BF06_HE.jpg"",""stimuli/AF10_SUR.jpg"",""stimuli/HM09_HO.jpg""]","stimuli/WF11_FO.jpg","stimuli/BF06_HE.jpg","stimuli/AF10_SUR.jpg","stimuli/HM09_HO.jpg","pos4","stimuli/HM09_HO.jpg","HO","HM09","3","1.5","3","2","stimuli/stars_3.png","195.5","[""FO"",""HE"",""SUR"",""HO""]","[""WF11"",""BF06"",""AF10"",""HM09""]","[8,4,4,3]","[8,6,4,2]","","",""
"show-reward","164","722036","0.0-164.0","p442350","AH7Z2M3KSQ4DW","3087LXLJ6NMH85PJ46SJUKP4Z1V0FD","3H0W84IWBM8GP57GTAWTLI0GF18RE2","emotion","mismatch","uniform","","","","","","","","722134.8000000007","724149.3000000007","","","","","","","","","","","","3","","stimuli/stars_3.png","195.5","","","","","stimuli/HM09_HO.jpg","",""
"explore-choice","165","723866","0.0-165.0","p442350","AH7Z2M3KSQ4DW","3087LXLJ6NMH85PJ46SJUKP4Z1V0FD","3H0W84IWBM8GP57GTAWTLI0GF18RE2","emotion","mismatch","uniform","","","","","","","1324.4000000003725","724151.8000000007","725476.2000000011","[""stimuli/WF11_HO.jpg"",""stimuli/HM09_SUR.jpg"",""stimuli/AF10_HE.jpg"",""stimuli/BF06_FO.jpg""]","stimuli/WF11_HO.jpg","stimuli/HM09_SUR.jpg","stimuli/AF10_HE.jpg","stimuli/BF06_FO.jpg","pos1","stimuli/WF11_HO.jpg","HO","WF11","0","4","8","8","stimuli/stars_8.png","199.5","[""HO"",""SUR"",""HE"",""FO""]","[""WF11"",""HM09"",""AF10"",""BF06""]","[8,1,5,6]","[8,2,4,6]","","",""
"show-reward","166","725881","0.0-166.0","p442350","AH7Z2M3KSQ4DW","3087LXLJ6NMH85PJ46SJUKP4Z1V0FD","3H0W84IWBM8GP57GTAWTLI0GF18RE2","emotion","mismatch","uniform","","","","","","","","725981.9000000004","727994.3000000007","","","","","","","","","","","","8","","stimuli/stars_8.png","199.5","","","","","stimuli/WF11_HO.jpg","",""
"explore-choice","167","728294","0.0-167.0","p442350","AH7Z2M3KSQ4DW","3087LXLJ6NMH85PJ46SJUKP4Z1V0FD","3H0W84IWBM8GP57GTAWTLI0GF18RE2","emotion","mismatch","uniform","","","","","","","1899.2999999988824","727997.2000000011","729896.5","[""stimuli/WF11_HE.jpg"",""stimuli/HM09_HO.jpg"",""stimuli/AF10_SUR.jpg"",""stimuli/BF06_FO.jpg""]","stimuli/WF11_HE.jpg","stimuli/HM09_HO.jpg","stimuli/AF10_SUR.jpg","stimuli/BF06_FO.jpg","pos1","stimuli/WF11_HE.jpg","HE","WF11","0","3.5","7","8","stimuli/stars_7.png","203","[""HE"",""HO"",""SUR"",""FO""]","[""WF11"",""HM09"",""AF10"",""BF06""]","[7,3,6,6]","[8,2,4,6]","","",""
"show-reward","168","730311","0.0-168.0","p442350","AH7Z2M3KSQ4DW","3087LXLJ6NMH85PJ46SJUKP4Z1V0FD","3H0W84IWBM8GP57GTAWTLI0GF18RE2","emotion","mismatch","uniform","","","","","","","","730410.3000000007","732424.5999999996","","","","","","","","","","","","7","","stimuli/stars_7.png","203","","","","","stimuli/WF11_HE.jpg","",""
"explore-choice","169","748093","0.0-169.0","p442350","AH7Z2M3KSQ4DW","3087LXLJ6NMH85PJ46SJUKP4Z1V0FD","3H0W84IWBM8GP57GTAWTLI0GF18RE2","emotion","mismatch","uniform","","","","","","","17271.900000000373","732426.9000000004","749698.8000000007","[""stimuli/HM09_FO.jpg"",""stimuli/AF10_SUR.jpg"",""stimuli/WF11_HO.jpg"",""stimuli/BF06_HE.jpg""]","stimuli/HM09_FO.jpg","stimuli/AF10_SUR.jpg","stimuli/WF11_HO.jpg","stimuli/BF06_HE.jpg","pos4","stimuli/BF06_HE.jpg","HE","BF06","3","3","6","6","stimuli/stars_6.png","206","[""FO"",""SUR"",""HO"",""HE""]","[""HM09"",""AF10"",""WF11"",""BF06""]","[4,4,10,6]","[2,4,8,6]","","",""
"show-reward","170","750109","0.0-170.0","p442350","AH7Z2M3KSQ4DW","3087LXLJ6NMH85PJ46SJUKP4Z1V0FD","3H0W84IWBM8GP57GTAWTLI0GF18RE2","emotion","mismatch","uniform","","","","","","","","750208.7000000011","752222.4000000004","","","","","","","","","","","","6","","stimuli/stars_6.png","206","","","","","stimuli/BF06_HE.jpg","",""
"explore-choice","171","758450","0.0-171.0","p442350","AH7Z2M3KSQ4DW","3087LXLJ6NMH85PJ46SJUKP4Z1V0FD","3H0W84IWBM8GP57GTAWTLI0GF18RE2","emotion","mismatch","uniform","","","","","","","7837.699999999255","752224.9000000004","760062.5999999996","[""stimuli/AF10_HO.jpg"",""stimuli/HM09_SUR.jpg"",""stimuli/BF06_HE.jpg"",""stimuli/WF11_FO.jpg""]","stimuli/AF10_HO.jpg","stimuli/HM09_SUR.jpg","stimuli/BF06_HE.jpg","stimuli/WF11_FO.jpg","pos3","stimuli/BF06_HE.jpg","HE","BF06","2","4","8","6","stimuli/stars_8.png","210","[""HO"",""SUR"",""HE"",""FO""]","[""AF10"",""HM09"",""BF06"",""WF11""]","[3,1,8,8]","[4,2,6,8]","","",""
"show-reward","172","760464","0.0-172.0","p442350","AH7Z2M3KSQ4DW","3087LXLJ6NMH85PJ46SJUKP4Z1V0FD","3H0W84IWBM8GP57GTAWTLI0GF18RE2","emotion","mismatch","uniform","","","","","","","","760565.9000000004","762577.5","","","","","","","","","","","","8","","stimuli/stars_8.png","210","","","","","stimuli/BF06_HE.jpg","",""
"explore-choice","173","771105","0.0-173.0","p442350","AH7Z2M3KSQ4DW","3087LXLJ6NMH85PJ46SJUKP4Z1V0FD","3H0W84IWBM8GP57GTAWTLI0GF18RE2","emotion","mismatch","uniform","","","","","","","10128.300000000745","762579.4000000004","772707.7000000011","[""stimuli/BF06_SUR.jpg"",""stimuli/HM09_HE.jpg"",""stimuli/AF10_HO.jpg"",""stimuli/WF11_FO.jpg""]","stimuli/BF06_SUR.jpg","stimuli/HM09_HE.jpg","stimuli/AF10_HO.jpg","stimuli/WF11_FO.jpg","pos3","stimuli/AF10_HO.jpg","HO","AF10","2","2.5","5","4","stimuli/stars_5.png","212.5","[""SUR"",""HE"",""HO"",""FO""]","[""BF06"",""HM09"",""AF10"",""WF11""]","[8,2,5,8]","[6,2,4,8]","","",""
"show-reward","174","773125","0.0-174.0","p442350","AH7Z2M3KSQ4DW","3087LXLJ6NMH85PJ46SJUKP4Z1V0FD","3H0W84IWBM8GP57GTAWTLI0GF18RE2","emotion","mismatch","uniform","","","","","","","","773220.9000000004","775238.4000000004","","","","","","","","","","","","5","","stimuli/stars_5.png","212.5","","","","","stimuli/AF10_HO.jpg","",""
"explore-choice","175","774998","0.0-175.0","p442350","AH7Z2M3KSQ4DW","3087LXLJ6NMH85PJ46SJUKP4Z1V0FD","3H0W84IWBM8GP57GTAWTLI0GF18RE2","emotion","mismatch","uniform","","","","","","","1357.300000000745","775240.9000000004","776598.2000000011","[""stimuli/WF11_HE.jpg"",""stimuli/HM09_SUR.jpg"",""stimuli/BF06_HO.jpg"",""stimuli/AF10_FO.jpg""]","stimuli/WF11_HE.jpg","stimuli/HM09_SUR.jpg","stimuli/BF06_HO.jpg","stimuli/AF10_FO.jpg","pos1","stimuli/WF11_HE.jpg","HE","WF11","0","5","10","8","stimuli/stars_10.png","217.5","[""HE"",""SUR"",""HO"",""FO""]","[""WF11"",""HM09"",""BF06"",""AF10""]","[10,1,7,5]","[8,2,6,4]","","",""
"show-reward","176","777016","0.0-176.0","p442350","AH7Z2M3KSQ4DW","3087LXLJ6NMH85PJ46SJUKP4Z1V0FD","3H0W84IWBM8GP57GTAWTLI0GF18RE2","emotion","mismatch","uniform","","","","","","","","777114.5","779129.5999999996","","","","","","","","","","","","10","","stimuli/stars_10.png","217.5","","","","","stimuli/WF11_HE.jpg","",""
"explore-choice","177","786204","0.0-177.0","p442350","AH7Z2M3KSQ4DW","3087LXLJ6NMH85PJ46SJUKP4Z1V0FD","3H0W84IWBM8GP57GTAWTLI0GF18RE2","emotion","mismatch","uniform","","","","","","","8684.5","779132.0999999996","787816.5999999996","[""stimuli/BF06_FO.jpg"",""stimuli/HM09_HE.jpg"",""stimuli/WF11_SUR.jpg"",""stimuli/AF10_HO.jpg""]","stimuli/BF06_FO.jpg","stimuli/HM09_HE.jpg","stimuli/WF11_SUR.jpg","stimuli/AF10_HO.jpg","pos2","stimuli/HM09_HE.jpg","HE","HM09","1","1","2","2","stimuli/stars_2.png","218.5","[""FO"",""HE"",""SUR"",""HO""]","[""BF06"",""HM09"",""WF11"",""AF10""]","[4,2,6,4]","[6,2,8,4]","","",""
"show-reward","178","788219","0.0-178.0","p442350","AH7Z2M3KSQ4DW","3087LXLJ6NMH85PJ46SJUKP4Z1V0FD","3H0W84IWBM8GP57GTAWTLI0GF18RE2","emotion","mismatch","uniform","","","","","","","","788321","790332.8000000007","","","","","","","","","","","","2","","stimuli/stars_2.png","218.5","","","","","stimuli/HM09_HE.jpg","",""
"explore-choice","179","790585","0.0-179.0","p442350","AH7Z2M3KSQ4DW","3087LXLJ6NMH85PJ46SJUKP4Z1V0FD","3H0W84IWBM8GP57GTAWTLI0GF18RE2","emotion","mismatch","uniform","","","","","","","1861.2999999988824","790335.2000000011","792196.5","[""stimuli/BF06_SUR.jpg"",""stimuli/AF10_FO.jpg"",""stimuli/HM09_HO.jpg"",""stimuli/WF11_HE.jpg""]","stimuli/BF06_SUR.jpg","stimuli/AF10_FO.jpg","stimuli/HM09_HO.jpg","stimuli/WF11_HE.jpg","pos1","stimuli/BF06_SUR.jpg","SUR","BF06","0","4","8","6","stimuli/stars_8.png","222.5","[""SUR"",""FO"",""HO"",""HE""]","[""BF06"",""AF10"",""HM09"",""WF11""]","[8,5,2,6]","[6,4,2,8]","","",""
"show-reward","180","792598","0.0-180.0","p442350","AH7Z2M3KSQ4DW","3087LXLJ6NMH85PJ46SJUKP4Z1V0FD","3H0W84IWBM8GP57GTAWTLI0GF18RE2","emotion","mismatch","uniform","","","","","","","","792701.4000000004","794711.9000000004","","","","","","","","","","","","8","","stimuli/stars_8.png","222.5","","","","","stimuli/BF06_SUR.jpg","",""
"explore-choice","181","794545","0.0-181.0","p442350","AH7Z2M3KSQ4DW","3087LXLJ6NMH85PJ46SJUKP4Z1V0FD","3H0W84IWBM8GP57GTAWTLI0GF18RE2","emotion","mismatch","uniform","","","","","","","1433.300000000745","794713.9000000004","796147.2000000011","[""stimuli/HM09_HO.jpg"",""stimuli/WF11_FO.jpg"",""stimuli/AF10_HE.jpg"",""stimuli/BF06_SUR.jpg""]","stimuli/HM09_HO.jpg","stimuli/WF11_FO.jpg","stimuli/AF10_HE.jpg","stimuli/BF06_SUR.jpg","pos3","stimuli/AF10_HE.jpg","HE","AF10","2","2.5","5","4","stimuli/stars_5.png","225","[""HO"",""FO"",""HE"",""SUR""]","[""HM09"",""WF11"",""AF10"",""BF06""]","[2,10,5,6]","[2,8,4,6]","","",""
"show-reward","182","796562","0.0-182.0","p442350","AH7Z2M3KSQ4DW","3087LXLJ6NMH85PJ46SJUKP4Z1V0FD","3H0W84IWBM8GP57GTAWTLI0GF18RE2","emotion","mismatch","uniform","","","","","","","","796661.4000000004","798675.5","","","","","","","","","","","","5","","stimuli/stars_5.png","225","","","","","stimuli/AF10_HE.jpg","",""
"explore-choice","183","798350","0.0-183.0","p442350","AH7Z2M3KSQ4DW","3087LXLJ6NMH85PJ46SJUKP4Z1V0FD","3H0W84IWBM8GP57GTAWTLI0GF18RE2","emotion","mismatch","uniform","","","","","","","1276.4000000003725","798678","799954.4000000004","[""stimuli/HM09_FO.jpg"",""stimuli/AF10_HO.jpg"",""stimuli/WF11_HE.jpg"",""stimuli/BF06_SUR.jpg""]","stimuli/HM09_FO.jpg","stimuli/AF10_HO.jpg","stimuli/WF11_HE.jpg","stimuli/BF06_SUR.jpg","pos4","stimuli/BF06_SUR.jpg","SUR","BF06","3","3","6","6","stimuli/stars_6.png","228","[""FO"",""HO"",""HE"",""SUR""]","[""HM09"",""AF10"",""WF11"",""BF06""]","[1,2,9,6]","[2,4,8,6]","","",""
"show-reward","184","800359","0.0-184.0","p442350","AH7Z2M3KSQ4DW","3087LXLJ6NMH85PJ46SJUKP4Z1V0FD","3H0W84IWBM8GP57GTAWTLI0GF18RE2","emotion","mismatch","uniform","","","","","","","","800466.2000000011","802473.2000000011","","","","","","","","","","","","6","","stimuli/stars_6.png","228","","","","","stimuli/BF06_SUR.jpg","",""
"explore-choice","185","802821","0.0-185.0","p442350","AH7Z2M3KSQ4DW","3087LXLJ6NMH85PJ46SJUKP4Z1V0FD","3H0W84IWBM8GP57GTAWTLI0GF18RE2","emotion","mismatch","uniform","","","","","","","1949.9000000003725","802475.5999999996","804425.5","[""stimuli/HM09_SUR.jpg"",""stimuli/BF06_HO.jpg"",""stimuli/AF10_HE.jpg"",""stimuli/WF11_FO.jpg""]","stimuli/HM09_SUR.jpg","stimuli/BF06_HO.jpg","stimuli/AF10_HE.jpg","stimuli/WF11_FO.jpg","pos3","stimuli/AF10_HE.jpg","HE","AF10","2","3","6","4","stimuli/stars_6.png","231","[""SUR"",""HO"",""HE"",""FO""]","[""HM09"",""BF06"",""AF10"",""WF11""]","[1,8,6,9]","[2,6,4,8]","","",""
"show-reward","186","804836","0.0-186.0","p442350","AH7Z2M3KSQ4DW","3087LXLJ6NMH85PJ46SJUKP4Z1V0FD","3H0W84IWBM8GP57GTAWTLI0GF18RE2","emotion","mismatch","uniform","","","","","","","","804937","806950","","","","","","","","","","","","6","","stimuli/stars_6.png","231","","","","","stimuli/AF10_HE.jpg","",""
"explore-choice","187","806633","0.0-187.0","p442350","AH7Z2M3KSQ4DW","3087LXLJ6NMH85PJ46SJUKP4Z1V0FD","3H0W84IWBM8GP57GTAWTLI0GF18RE2","emotion","mismatch","uniform","","","","","","","1279.800000000745","806952.5","808232.3000000007","[""stimuli/HM09_FO.jpg"",""stimuli/BF06_HE.jpg"",""stimuli/WF11_SUR.jpg"",""stimuli/AF10_HO.jpg""]","stimuli/HM09_FO.jpg","stimuli/BF06_HE.jpg","stimuli/WF11_SUR.jpg","stimuli/AF10_HO.jpg","pos2","stimuli/BF06_HE.jpg","HE","BF06","1","2.5","5","6","stimuli/stars_5.png","233.5","[""FO"",""HE"",""SUR"",""HO""]","[""HM09"",""BF06"",""WF11"",""AF10""]","[3,5,8,4]","[2,6,8,4]","","",""
"show-reward","188","808649","0.0-188.0","p442350","AH7Z2M3KSQ4DW","3087LXLJ6NMH85PJ46SJUKP4Z1V0FD","3H0W84IWBM8GP57GTAWTLI0GF18RE2","emotion","mismatch","uniform","","","","","","","","808749.5999999996","810762.8000000007","","","","","","","","","","","","5","","stimuli/stars_5.png","233.5","","","","","stimuli/BF06_HE.jpg","",""
"explore-choice","189","810550","0.0-189.0","p442350","AH7Z2M3KSQ4DW","3087LXLJ6NMH85PJ46SJUKP4Z1V0FD","3H0W84IWBM8GP57GTAWTLI0GF18RE2","emotion","mismatch","uniform","","","","","","","1380.699999999255","810764.8000000007","812145.5","[""stimuli/BF06_HE.jpg"",""stimuli/HM09_SUR.jpg"",""stimuli/WF11_HO.jpg"",""stimuli/AF10_FO.jpg""]","stimuli/BF06_HE.jpg","stimuli/HM09_SUR.jpg","stimuli/WF11_HO.jpg","stimuli/AF10_FO.jpg","pos1","stimuli/BF06_HE.jpg","HE","BF06","0","2.5","5","6","stimuli/stars_5.png","236","[""HE"",""SUR"",""HO"",""FO""]","[""BF06"",""HM09"",""WF11"",""AF10""]","[5,0,9,6]","[6,2,8,4]","","",""
"show-reward","190","812564","0.0-190.0","p442350","AH7Z2M3KSQ4DW","3087LXLJ6NMH85PJ46SJUKP4Z1V0FD","3H0W84IWBM8GP57GTAWTLI0GF18RE2","emotion","mismatch","uniform","","","","","","","","812666.2000000011","814678.4000000004","","","","","","","","","","","","5","","stimuli/stars_5.png","236","","","","","stimuli/BF06_HE.jpg","",""
"explore-choice","191","816880","0.0-191.0","p442350","AH7Z2M3KSQ4DW","3087LXLJ6NMH85PJ46SJUKP4Z1V0FD","3H0W84IWBM8GP57GTAWTLI0GF18RE2","emotion","mismatch","uniform","","","","","","","3805.60000000149","814680.5999999996","818486.2000000011","[""stimuli/BF06_FO.jpg"",""stimuli/WF11_SUR.jpg"",""stimuli/AF10_HE.jpg"",""stimuli/HM09_HO.jpg""]","stimuli/BF06_FO.jpg","stimuli/WF11_SUR.jpg","stimuli/AF10_HE.jpg","stimuli/HM09_HO.jpg","pos4","stimuli/HM09_HO.jpg","HO","HM09","3","1","2","2","stimuli/stars_2.png","237","[""FO"",""SUR"",""HE"",""HO""]","[""BF06"",""WF11"",""AF10"",""HM09""]","[6,10,5,2]","[6,8,4,2]","","",""
"show-reward","192","818891","0.0-192.0","p442350","AH7Z2M3KSQ4DW","3087LXLJ6NMH85PJ46SJUKP4Z1V0FD","3H0W84IWBM8GP57GTAWTLI0GF18RE2","emotion","mismatch","uniform","","","","","","","","818996.8000000007","821004.8000000007","","","","","","","","","","","","2","","stimuli/stars_2.png","237","","","","","stimuli/HM09_HO.jpg","",""
"explore-choice","193","820120","0.0-193.0","p442350","AH7Z2M3KSQ4DW","3087LXLJ6NMH85PJ46SJUKP4Z1V0FD","3H0W84IWBM8GP57GTAWTLI0GF18RE2","emotion","mismatch","uniform","","","","","","","712.1999999992549","821008.3000000007","821720.5","[""stimuli/AF10_HO.jpg"",""stimuli/HM09_SUR.jpg"",""stimuli/BF06_FO.jpg"",""stimuli/WF11_HE.jpg""]","stimuli/AF10_HO.jpg","stimuli/HM09_SUR.jpg","stimuli/BF06_FO.jpg","stimuli/WF11_HE.jpg","pos3","stimuli/BF06_FO.jpg","FO","BF06","2","3","6","6","stimuli/stars_6.png","240","[""HO"",""SUR"",""FO"",""HE""]","[""AF10"",""HM09"",""BF06"",""WF11""]","[5,3,6,8]","[4,2,6,8]","","",""
"show-reward","194","822136","0.0-194.0","p442350","AH7Z2M3KSQ4DW","3087LXLJ6NMH85PJ46SJUKP4Z1V0FD","3H0W84IWBM8GP57GTAWTLI0GF18RE2","emotion","mismatch","uniform","","","","","","","","822236.4000000004","824249.8000000007","","","","","","","","","","","","6","","stimuli/stars_6.png","240","","","","","stimuli/BF06_FO.jpg","",""
"explore-choice","195","823935","0.0-195.0","p442350","AH7Z2M3KSQ4DW","3087LXLJ6NMH85PJ46SJUKP4Z1V0FD","3H0W84IWBM8GP57GTAWTLI0GF18RE2","emotion","mismatch","uniform","","","","","","","1285.5","824252.5","825538","[""stimuli/AF10_HE.jpg"",""stimuli/BF06_SUR.jpg"",""stimuli/WF11_HO.jpg"",""stimuli/HM09_FO.jpg""]","stimuli/AF10_HE.jpg","stimuli/BF06_SUR.jpg","stimuli/WF11_HO.jpg","stimuli/HM09_FO.jpg","pos1","stimuli/AF10_HE.jpg","HE","AF10","0","1.5","3","4","stimuli/stars_3.png","241.5","[""HE"",""SUR"",""HO"",""FO""]","[""AF10"",""BF06"",""WF11"",""HM09""]","[3,8,6,4]","[4,6,8,2]","","",""
"show-reward","196","825950","0.0-196.0","p442350","AH7Z2M3KSQ4DW","3087LXLJ6NMH85PJ46SJUKP4Z1V0FD","3H0W84IWBM8GP57GTAWTLI0GF18RE2","emotion","mismatch","uniform","","","","","","","","826051.0999999996","828064.3000000007","","","","","","","","","","","","3","","stimuli/stars_3.png","241.5","","","","","stimuli/AF10_HE.jpg","",""
"explore-choice","197","830431","0.0-197.0","p442350","AH7Z2M3KSQ4DW","3087LXLJ6NMH85PJ46SJUKP4Z1V0FD","3H0W84IWBM8GP57GTAWTLI0GF18RE2","emotion","mismatch","uniform","","","","","","","3964.4000000003725","828066.5","832030.9000000004","[""stimuli/BF06_HO.jpg"",""stimuli/WF11_FO.jpg"",""stimuli/HM09_HE.jpg"",""stimuli/AF10_SUR.jpg""]","stimuli/BF06_HO.jpg","stimuli/WF11_FO.jpg","stimuli/HM09_HE.jpg","stimuli/AF10_SUR.jpg","pos1","stimuli/BF06_HO.jpg","HO","BF06","0","2.5","5","6","stimuli/stars_5.png","244","[""HO"",""FO"",""HE"",""SUR""]","[""BF06"",""WF11"",""HM09"",""AF10""]","[5,7,0,6]","[6,8,2,4]","","",""
"show-reward","198","832443","0.0-198.0","p442350","AH7Z2M3KSQ4DW","3087LXLJ6NMH85PJ46SJUKP4Z1V0FD","3H0W84IWBM8GP57GTAWTLI0GF18RE2","emotion","mismatch","uniform","","","","","","","","832547.3000000007","834557.5","","","","","","","","","","","","5","","stimuli/stars_5.png","244","","","","","stimuli/BF06_HO.jpg","",""
"instructions","199","836526","0.0-199.0","p442350","AH7Z2M3KSQ4DW","3087LXLJ6NMH85PJ46SJUKP4Z1V0FD","3H0W84IWBM8GP57GTAWTLI0GF18RE2","emotion","mismatch","uniform","","","","","","[{""page_index"":0,""viewing_time"":4080.5}]","4081.300000000745","","","","","","","","","","","","","","","","","","","","","","","",""
"survey-text","200","843772","0.0-200.0-0.0","p442350","AH7Z2M3KSQ4DW","3087LXLJ6NMH85PJ46SJUKP4Z1V0FD","3H0W84IWBM8GP57GTAWTLI0GF18RE2","emotion","mismatch","uniform","","","","","","","7221.800000000745","","","","","","","","","","","","","","","","","","","","","","","{""age"":""35""}",""
"survey-text","201","848711","0.0-200.0-1.0","p442350","AH7Z2M3KSQ4DW","3087LXLJ6NMH85PJ46SJUKP4Z1V0FD","3H0W84IWBM8GP57GTAWTLI0GF18RE2","emotion","mismatch","uniform","","","","","","","4923.199999999255","","","","","","","","","","","","","","","","","","","","","","","{""gender"":""Female""}",""
"survey-text","202","856875","0.0-200.0-2.0","p442350","AH7Z2M3KSQ4DW","3087LXLJ6NMH85PJ46SJUKP4Z1V0FD","3H0W84IWBM8GP57GTAWTLI0GF18RE2","emotion","mismatch","uniform","","","","","","","8147.5","","","","","","","","","","","","","","","","","","","","","","","{""country"":""United States""}",""
"survey-text","203","872411","0.0-200.0-3.0","p442350","AH7Z2M3KSQ4DW","3087LXLJ6NMH85PJ46SJUKP4Z1V0FD","3H0W84IWBM8GP57GTAWTLI0GF18RE2","emotion","mismatch","uniform","","","","","","","15515.299999998882","","","","","","","","","","","","","","","","","","","","","","","{""language"":""English"",""other_languages"":""English, Spanish""}",""
"survey-multi-select","204","897628","0.0-201.0","p442350","AH7Z2M3KSQ4DW","3087LXLJ6NMH85PJ46SJUKP4Z1V0FD","3H0W84IWBM8GP57GTAWTLI0GF18RE2","emotion","mismatch","uniform","","","","","","","25203.700000001118","","","","","","","","","","","","","","","","","","","","","","","{""race"":[""Black or African American""]}","[0]"
"survey-multi-choice","205","900375","0.0-202.0","p442350","AH7Z2M3KSQ4DW","3087LXLJ6NMH85PJ46SJUKP4Z1V0FD","3H0W84IWBM8GP57GTAWTLI0GF18RE2","emotion","mismatch","uniform","","","","","","","2742.2999999988824","","","","","","","","","","","","","","","","","","","","","","","{""education"":""Bachelor's degree""}","[0]"
"survey-text","206","1150798","0.0-203.0","p442350","AH7Z2M3KSQ4DW","3087LXLJ6NMH85PJ46SJUKP4Z1V0FD","3H0W84IWBM8GP57GTAWTLI0GF18RE2","emotion","mismatch","uniform","","","","","","","250402.8999999985","","","","","","","","","","","","","","","","","","","","","","","{""patterns"":""No"",""strategy"":""I tried to choose the same people that gave me the most stars."",""comments"":""N/A""}",""
