"trial_type","trial_index","time_elapsed","internal_node_id","subject","workerId","hitId","assignmentId","structure_condition","match_condition","noise_type","success","timeout","failed_images","failed_audio","failed_video","view_history","rt","start_time","end_time","stimuli","image1","image2","image3","image4","choiceLocation","choiceImage","choiceEmotion","choiceModel","choice_index","reward_score","reward","reward_score_unadjusted","reward_image","score_after_trial","emotions","models","rewards","rewards_unadjusted","stimulus","response","question_order"
"pavlovia","0","17","0.0-0.0","p494369","A1EH9BPKYXFBS5","3OWZNK3RYMVDNXPNEIRWZ8JM6MU2UY","3ZDAD0O1T3J2BKBPS4RG9MM5JSGXTU","model","match","uniform","","","","","","","","","","","","","","","","","","","","","","","","","","","","","","",""
"preload","1","5378","0.0-1.0","p494369","A1EH9BPKYXFBS5","3OWZNK3RYMVDNXPNEIRWZ8JM6MU2UY","3ZDAD0O1T3J2BKBPS4RG9MM5JSGXTU","model","match","uniform","true","false","[]","[]","[]","","","","","","","","","","","","","","","","","","","","","","","","","",""
"fullscreen","2","8582","0.0-2.0","p494369","A1EH9BPKYXFBS5","3OWZNK3RYMVDNXPNEIRWZ8JM6MU2UY","3ZDAD0O1T3J2BKBPS4RG9MM5JSGXTU","model","match","uniform","true","","","","","","","","","","","","","","","","","","","","","","","","","","","","","",""
"instructions","3","15077","0.0-3.0","p494369","A1EH9BPKYXFBS5","3OWZNK3RYMVDNXPNEIRWZ8JM6MU2UY","3ZDAD0O1T3J2BKBPS4RG9MM5JSGXTU","model","match","uniform","","","","","","[{""page_index"":0,""viewing_time"":6490.399999976158}]","6490.899999976158","","","","","","","","","","","","","","","","","","","","","","","",""
"explore-choice","4","18206","0.0-4.0","p494369","A1EH9BPKYXFBS5","3OWZNK3RYMVDNXPNEIRWZ8JM6MU2UY","3ZDAD0O1T3J2BKBPS4RG9MM5JSGXTU","model","match","uniform","","","","","","","2624.600000023842","17355.600000023842","19980.200000047684","[""stimuli/sheep.jpg"",""stimuli/hammer.jpg"",""stimuli/basketball.jpg"",""stimuli/horse.jpg""]","stimuli/sheep.jpg","stimuli/hammer.jpg","stimuli/basketball.jpg","stimuli/horse.jpg","pos4","stimuli/horse.jpg","","","3","64","64","64","stimuli/stars_8.png","65","","","","","","",""
"explore-choice","5","20041","0.0-5.0","p494369","A1EH9BPKYXFBS5","3OWZNK3RYMVDNXPNEIRWZ8JM6MU2UY","3ZDAD0O1T3J2BKBPS4RG9MM5JSGXTU","model","match","uniform","","","","","","","1325.5","20487.700000047684","21813.200000047684","[""stimuli/hammer.jpg"",""stimuli/basketball.jpg"",""stimuli/horse.jpg"",""stimuli/sheep.jpg""]","stimuli/hammer.jpg","stimuli/basketball.jpg","stimuli/horse.jpg","stimuli/sheep.jpg","pos1","stimuli/hammer.jpg","","","0","8","8","8","stimuli/stars_2.png","9","","","","","","",""
"instructions","6","37314","0.0-6.0","p494369","A1EH9BPKYXFBS5","3OWZNK3RYMVDNXPNEIRWZ8JM6MU2UY","3ZDAD0O1T3J2BKBPS4RG9MM5JSGXTU","model","match","uniform","","","","","","[{""page_index"":0,""viewing_time"":17270.399999976158}]","17270.799999952316","","","","","","","","","","","","","","","","","","","","","","","",""
"explore-choice","7","39125","0.0-7.0","p494369","A1EH9BPKYXFBS5","3OWZNK3RYMVDNXPNEIRWZ8JM6MU2UY","3ZDAD0O1T3J2BKBPS4RG9MM5JSGXTU","model","match","uniform","","","","","","","1303.8999999761581","39594.300000071526","40898.200000047684","[""stimuli/WF11_HO.jpg"",""stimuli/AF10_FO.jpg"",""stimuli/AF09_SC.jpg"",""stimuli/AM06_HE.jpg""]","stimuli/WF11_HO.jpg","stimuli/AF10_FO.jpg","stimuli/AF09_SC.jpg","stimuli/AM06_HE.jpg","pos2","stimuli/AF10_FO.jpg","FO","AF10","1","3","6","8","stimuli/stars_6.png","4","[""HO"",""FO"",""SC"",""HE""]","[""WF11"",""AF10"",""AF09"",""AM06""]","[7,6,6,2]","[6,8,4,2]","","",""
"show-reward","8","41146","0.0-8.0","p494369","A1EH9BPKYXFBS5","3OWZNK3RYMVDNXPNEIRWZ8JM6MU2UY","3ZDAD0O1T3J2BKBPS4RG9MM5JSGXTU","model","match","uniform","","","","","","","","41409.5","43422.10000002384","","","","","","","","","","","","6","","stimuli/stars_6.png","4","","","","","stimuli/AF10_FO.jpg","",""
"explore-choice","9","43381","0.0-9.0","p494369","A1EH9BPKYXFBS5","3OWZNK3RYMVDNXPNEIRWZ8JM6MU2UY","3ZDAD0O1T3J2BKBPS4RG9MM5JSGXTU","model","match","uniform","","","","","","","1726.2999999523163","43427.800000071526","45154.10000002384","[""stimuli/AF09_SC.jpg"",""stimuli/AF10_HE.jpg"",""stimuli/WF11_FO.jpg"",""stimuli/AM06_HO.jpg""]","stimuli/AF09_SC.jpg","stimuli/AF10_HE.jpg","stimuli/WF11_FO.jpg","stimuli/AM06_HO.jpg","pos1","stimuli/AF09_SC.jpg","SC","AF09","0","2","4","4","stimuli/stars_4.png","6","[""SC"",""HE"",""FO"",""HO""]","[""AF09"",""AF10"",""WF11"",""AM06""]","[4,8,4,3]","[4,8,6,2]","","",""
"show-reward","10","45395","0.0-10.0","p494369","A1EH9BPKYXFBS5","3OWZNK3RYMVDNXPNEIRWZ8JM6MU2UY","3ZDAD0O1T3J2BKBPS4RG9MM5JSGXTU","model","match","uniform","","","","","","","","45660.40000009537","47673.5","","","","","","","","","","","","4","","stimuli/stars_4.png","6","","","","","stimuli/AF09_SC.jpg","",""
"explore-choice","11","47711","0.0-11.0","p494369","A1EH9BPKYXFBS5","3OWZNK3RYMVDNXPNEIRWZ8JM6MU2UY","3ZDAD0O1T3J2BKBPS4RG9MM5JSGXTU","model","match","uniform","","","","","","","1802.8000000715256","47674.60000002384","49477.40000009537","[""stimuli/AF09_FO.jpg"",""stimuli/AM06_HO.jpg"",""stimuli/AF10_HE.jpg"",""stimuli/WF11_SC.jpg""]","stimuli/AF09_FO.jpg","stimuli/AM06_HO.jpg","stimuli/AF10_HE.jpg","stimuli/WF11_SC.jpg","pos3","stimuli/AF10_HE.jpg","HE","AF10","2","3","6","8","stimuli/stars_6.png","9","[""FO"",""HO"",""HE"",""SC""]","[""AF09"",""AM06"",""AF10"",""WF11""]","[6,1,6,4]","[4,2,8,6]","","",""
"show-reward","12","49730","0.0-12.0","p494369","A1EH9BPKYXFBS5","3OWZNK3RYMVDNXPNEIRWZ8JM6MU2UY","3ZDAD0O1T3J2BKBPS4RG9MM5JSGXTU","model","match","uniform","","","","","","","","49989.40000009537","52004","","","","","","","","","","","","6","","stimuli/stars_6.png","9","","","","","stimuli/AF10_HE.jpg","",""
"explore-choice","13","52230","0.0-13.0","p494369","A1EH9BPKYXFBS5","3OWZNK3RYMVDNXPNEIRWZ8JM6MU2UY","3ZDAD0O1T3J2BKBPS4RG9MM5JSGXTU","model","match","uniform","","","","","","","1993.6999999284744","52007.300000071526","54001","[""stimuli/AF10_SC.jpg"",""stimuli/WF11_HO.jpg"",""stimuli/AM06_FO.jpg"",""stimuli/AF09_HE.jpg""]","stimuli/AF10_SC.jpg","stimuli/WF11_HO.jpg","stimuli/AM06_FO.jpg","stimuli/AF09_HE.jpg","pos2","stimuli/WF11_HO.jpg","HO","WF11","1","2","4","6","stimuli/stars_4.png","11","[""SC"",""HO"",""FO"",""HE""]","[""AF10"",""WF11"",""AM06"",""AF09""]","[6,4,0,4]","[8,6,2,4]","","",""
"show-reward","14","54244","0.0-14.0","p494369","A1EH9BPKYXFBS5","3OWZNK3RYMVDNXPNEIRWZ8JM6MU2UY","3ZDAD0O1T3J2BKBPS4RG9MM5JSGXTU","model","match","uniform","","","","","","","","54508.800000071526","56517.90000009537","","","","","","","","","","","","4","","stimuli/stars_4.png","11","","","","","stimuli/WF11_HO.jpg","",""
"explore-choice","15","56281","0.0-15.0","p494369","A1EH9BPKYXFBS5","3OWZNK3RYMVDNXPNEIRWZ8JM6MU2UY","3ZDAD0O1T3J2BKBPS4RG9MM5JSGXTU","model","match","uniform","","","","","","","1531.3000000715256","56523.5","58054.800000071526","[""stimuli/AF10_HO.jpg"",""stimuli/AF09_SC.jpg"",""stimuli/AM06_FO.jpg"",""stimuli/WF11_HE.jpg""]","stimuli/AF10_HO.jpg","stimuli/AF09_SC.jpg","stimuli/AM06_FO.jpg","stimuli/WF11_HE.jpg","pos3","stimuli/AM06_FO.jpg","FO","AM06","2","2","4","2","stimuli/stars_4.png","13","[""HO"",""SC"",""FO"",""HE""]","[""AF10"",""AF09"",""AM06"",""WF11""]","[10,2,4,4]","[8,4,2,6]","","",""
"show-reward","16","58295","0.0-16.0","p494369","A1EH9BPKYXFBS5","3OWZNK3RYMVDNXPNEIRWZ8JM6MU2UY","3ZDAD0O1T3J2BKBPS4RG9MM5JSGXTU","model","match","uniform","","","","","","","","58558.300000071526","60568.90000009537","","","","","","","","","","","","4","","stimuli/stars_4.png","13","","","","","stimuli/AM06_FO.jpg","",""
"explore-choice","17","61281","0.0-17.0","p494369","A1EH9BPKYXFBS5","3OWZNK3RYMVDNXPNEIRWZ8JM6MU2UY","3ZDAD0O1T3J2BKBPS4RG9MM5JSGXTU","model","match","uniform","","","","","","","2468.7000000476837","60573","63041.700000047684","[""stimuli/AM06_HE.jpg"",""stimuli/WF11_HO.jpg"",""stimuli/AF10_SC.jpg"",""stimuli/AF09_FO.jpg""]","stimuli/AM06_HE.jpg","stimuli/WF11_HO.jpg","stimuli/AF10_SC.jpg","stimuli/AF09_FO.jpg","pos4","stimuli/AF09_FO.jpg","FO","AF09","3","2","4","4","stimuli/stars_4.png","15","[""HE"",""HO"",""SC"",""FO""]","[""AM06"",""WF11"",""AF10"",""AF09""]","[0,5,6,4]","[2,6,8,4]","","",""
"show-reward","18","63295","0.0-18.0","p494369","A1EH9BPKYXFBS5","3OWZNK3RYMVDNXPNEIRWZ8JM6MU2UY","3ZDAD0O1T3J2BKBPS4RG9MM5JSGXTU","model","match","uniform","","","","","","","","63558.60000002384","65568.60000002384","","","","","","","","","","","","4","","stimuli/stars_4.png","15","","","","","stimuli/AF09_FO.jpg","",""
"explore-choice","19","65619","0.0-19.0","p494369","A1EH9BPKYXFBS5","3OWZNK3RYMVDNXPNEIRWZ8JM6MU2UY","3ZDAD0O1T3J2BKBPS4RG9MM5JSGXTU","model","match","uniform","","","","","","","1815.6999999284744","65573.30000007153","67389","[""stimuli/WF11_FO.jpg"",""stimuli/AF10_SC.jpg"",""stimuli/AF09_HO.jpg"",""stimuli/AM06_HE.jpg""]","stimuli/WF11_FO.jpg","stimuli/AF10_SC.jpg","stimuli/AF09_HO.jpg","stimuli/AM06_HE.jpg","pos4","stimuli/AM06_HE.jpg","HE","AM06","3","0","0","2","stimuli/stars_0.png","15","[""FO"",""SC"",""HO"",""HE""]","[""WF11"",""AF10"",""AF09"",""AM06""]","[8,10,6,0]","[6,8,4,2]","","",""
"show-reward","20","67638","0.0-20.0","p494369","A1EH9BPKYXFBS5","3OWZNK3RYMVDNXPNEIRWZ8JM6MU2UY","3ZDAD0O1T3J2BKBPS4RG9MM5JSGXTU","model","match","uniform","","","","","","","","67897.30000007153","69913.30000007153","","","","","","","","","","","","0","","stimuli/stars_0.png","15","","","","","stimuli/AM06_HE.jpg","",""
"explore-choice","21","69587","0.0-21.0","p494369","A1EH9BPKYXFBS5","3OWZNK3RYMVDNXPNEIRWZ8JM6MU2UY","3ZDAD0O1T3J2BKBPS4RG9MM5JSGXTU","model","match","uniform","","","","","","","1442.0999999046326","69914.40000009537","71356.5","[""stimuli/AF10_HO.jpg"",""stimuli/AF09_FO.jpg"",""stimuli/WF11_HE.jpg"",""stimuli/AM06_SC.jpg""]","stimuli/AF10_HO.jpg","stimuli/AF09_FO.jpg","stimuli/WF11_HE.jpg","stimuli/AM06_SC.jpg","pos2","stimuli/AF09_FO.jpg","FO","AF09","1","3","6","4","stimuli/stars_6.png","18","[""HO"",""FO"",""HE"",""SC""]","[""AF10"",""AF09"",""WF11"",""AM06""]","[9,6,7,3]","[8,4,6,2]","","",""
"show-reward","22","71610","0.0-22.0","p494369","A1EH9BPKYXFBS5","3OWZNK3RYMVDNXPNEIRWZ8JM6MU2UY","3ZDAD0O1T3J2BKBPS4RG9MM5JSGXTU","model","match","uniform","","","","","","","","71864.90000009537","73883.60000002384","","","","","","","","","","","","6","","stimuli/stars_6.png","18","","","","","stimuli/AF09_FO.jpg","",""
"explore-choice","23","74156","0.0-23.0","p494369","A1EH9BPKYXFBS5","3OWZNK3RYMVDNXPNEIRWZ8JM6MU2UY","3ZDAD0O1T3J2BKBPS4RG9MM5JSGXTU","model","match","uniform","","","","","","","2037.1999999284744","73888.40000009537","75925.60000002384","[""stimuli/AF10_HE.jpg"",""stimuli/AM06_SC.jpg"",""stimuli/AF09_HO.jpg"",""stimuli/WF11_FO.jpg""]","stimuli/AF10_HE.jpg","stimuli/AM06_SC.jpg","stimuli/AF09_HO.jpg","stimuli/WF11_FO.jpg","pos3","stimuli/AF09_HO.jpg","HO","AF09","2","1.5","3","4","stimuli/stars_3.png","19.5","[""HE"",""SC"",""HO"",""FO""]","[""AF10"",""AM06"",""AF09"",""WF11""]","[8,4,3,4]","[8,2,4,6]","","",""
"show-reward","24","76182","0.0-24.0","p494369","A1EH9BPKYXFBS5","3OWZNK3RYMVDNXPNEIRWZ8JM6MU2UY","3ZDAD0O1T3J2BKBPS4RG9MM5JSGXTU","model","match","uniform","","","","","","","","76434.30000007153","78454.10000002384","","","","","","","","","","","","3","","stimuli/stars_3.png","19.5","","","","","stimuli/AF09_HO.jpg","",""
"explore-choice","25","78905","0.0-25.0","p494369","A1EH9BPKYXFBS5","3OWZNK3RYMVDNXPNEIRWZ8JM6MU2UY","3ZDAD0O1T3J2BKBPS4RG9MM5JSGXTU","model","match","uniform","","","","","","","2211.399999976158","78461.20000004768","80672.60000002384","[""stimuli/AF09_HO.jpg"",""stimuli/AF10_FO.jpg"",""stimuli/WF11_HE.jpg"",""stimuli/AM06_SC.jpg""]","stimuli/AF09_HO.jpg","stimuli/AF10_FO.jpg","stimuli/WF11_HE.jpg","stimuli/AM06_SC.jpg","pos2","stimuli/AF10_FO.jpg","FO","AF10","1","3.5","7","8","stimuli/stars_7.png","23","[""HO"",""FO"",""HE"",""SC""]","[""AF09"",""AF10"",""WF11"",""AM06""]","[3,7,4,1]","[4,8,6,2]","","",""
"show-reward","26","80915","0.0-26.0","p494369","A1EH9BPKYXFBS5","3OWZNK3RYMVDNXPNEIRWZ8JM6MU2UY","3ZDAD0O1T3J2BKBPS4RG9MM5JSGXTU","model","match","uniform","","","","","","","","81182.80000007153","83188.40000009537","","","","","","","","","","","","7","","stimuli/stars_7.png","23","","","","","stimuli/AF10_FO.jpg","",""
"explore-choice","27","84165","0.0-27.0","p494369","A1EH9BPKYXFBS5","3OWZNK3RYMVDNXPNEIRWZ8JM6MU2UY","3ZDAD0O1T3J2BKBPS4RG9MM5JSGXTU","model","match","uniform","","","","","","","2740.600000023842","83192.60000002384","85933.20000004768","[""stimuli/AF10_HE.jpg"",""stimuli/AF09_SC.jpg"",""stimuli/WF11_HO.jpg"",""stimuli/AM06_FO.jpg""]","stimuli/AF10_HE.jpg","stimuli/AF09_SC.jpg","stimuli/WF11_HO.jpg","stimuli/AM06_FO.jpg","pos4","stimuli/AM06_FO.jpg","FO","AM06","3","0","0","2","stimuli/stars_0.png","23","[""HE"",""SC"",""HO"",""FO""]","[""AF10"",""AF09"",""WF11"",""AM06""]","[10,2,6,0]","[8,4,6,2]","","",""
"show-reward","28","86187","0.0-28.0","p494369","A1EH9BPKYXFBS5","3OWZNK3RYMVDNXPNEIRWZ8JM6MU2UY","3ZDAD0O1T3J2BKBPS4RG9MM5JSGXTU","model","match","uniform","","","","","","","","86444.60000002384","88461.40000009537","","","","","","","","","","","","0","","stimuli/stars_0.png","23","","","","","stimuli/AM06_FO.jpg","",""
"explore-choice","29","87885","0.0-29.0","p494369","A1EH9BPKYXFBS5","3OWZNK3RYMVDNXPNEIRWZ8JM6MU2UY","3ZDAD0O1T3J2BKBPS4RG9MM5JSGXTU","model","match","uniform","","","","","","","1187","88463.60000002384","89650.60000002384","[""stimuli/AF09_HE.jpg"",""stimuli/AF10_HO.jpg"",""stimuli/WF11_FO.jpg"",""stimuli/AM06_SC.jpg""]","stimuli/AF09_HE.jpg","stimuli/AF10_HO.jpg","stimuli/WF11_FO.jpg","stimuli/AM06_SC.jpg","pos2","stimuli/AF10_HO.jpg","HO","AF10","1","3","6","8","stimuli/stars_6.png","26","[""HE"",""HO"",""FO"",""SC""]","[""AF09"",""AF10"",""WF11"",""AM06""]","[2,6,5,3]","[4,8,6,2]","","",""
"show-reward","30","89894","0.0-30.0","p494369","A1EH9BPKYXFBS5","3OWZNK3RYMVDNXPNEIRWZ8JM6MU2UY","3ZDAD0O1T3J2BKBPS4RG9MM5JSGXTU","model","match","uniform","","","","","","","","90163.40000009537","92168","","","","","","","","","","","","6","","stimuli/stars_6.png","26","","","","","stimuli/AF10_HO.jpg","",""
"explore-choice","31","92120","0.0-31.0","p494369","A1EH9BPKYXFBS5","3OWZNK3RYMVDNXPNEIRWZ8JM6MU2UY","3ZDAD0O1T3J2BKBPS4RG9MM5JSGXTU","model","match","uniform","","","","","","","1717.8999999761581","92171.60000002384","93889.5","[""stimuli/WF11_HO.jpg"",""stimuli/AM06_SC.jpg"",""stimuli/AF09_FO.jpg"",""stimuli/AF10_HE.jpg""]","stimuli/WF11_HO.jpg","stimuli/AM06_SC.jpg","stimuli/AF09_FO.jpg","stimuli/AF10_HE.jpg","pos3","stimuli/AF09_FO.jpg","FO","AF09","2","2.5","5","4","stimuli/stars_5.png","28.5","[""HO"",""SC"",""FO"",""HE""]","[""WF11"",""AM06"",""AF09"",""AF10""]","[8,4,5,7]","[6,2,4,8]","","",""
"show-reward","32","94135","0.0-32.0","p494369","A1EH9BPKYXFBS5","3OWZNK3RYMVDNXPNEIRWZ8JM6MU2UY","3ZDAD0O1T3J2BKBPS4RG9MM5JSGXTU","model","match","uniform","","","","","","","","94398.40000009537","96409.5","","","","","","","","","","","","5","","stimuli/stars_5.png","28.5","","","","","stimuli/AF09_FO.jpg","",""
"explore-choice","33","95965","0.0-33.0","p494369","A1EH9BPKYXFBS5","3OWZNK3RYMVDNXPNEIRWZ8JM6MU2UY","3ZDAD0O1T3J2BKBPS4RG9MM5JSGXTU","model","match","uniform","","","","","","","1320.1999999284744","96413.80000007153","97734","[""stimuli/AM06_HO.jpg"",""stimuli/AF10_FO.jpg"",""stimuli/AF09_HE.jpg"",""stimuli/WF11_SC.jpg""]","stimuli/AM06_HO.jpg","stimuli/AF10_FO.jpg","stimuli/AF09_HE.jpg","stimuli/WF11_SC.jpg","pos3","stimuli/AF09_HE.jpg","HE","AF09","2","2","4","4","stimuli/stars_4.png","30.5","[""HO"",""FO"",""HE"",""SC""]","[""AM06"",""AF10"",""AF09"",""WF11""]","[2,9,4,8]","[2,8,4,6]","","",""
"show-reward","34","97980","0.0-34.0","p494369","A1EH9BPKYXFBS5","3OWZNK3RYMVDNXPNEIRWZ8JM6MU2UY","3ZDAD0O1T3J2BKBPS4RG9MM5JSGXTU","model","match","uniform","","","","","","","","98243.60000002384","100255","","","","","","","","","","","","4","","stimuli/stars_4.png","30.5","","","","","stimuli/AF09_HE.jpg","",""
"explore-choice","35","100356","0.0-35.0","p494369","A1EH9BPKYXFBS5","3OWZNK3RYMVDNXPNEIRWZ8JM6MU2UY","3ZDAD0O1T3J2BKBPS4RG9MM5JSGXTU","model","match","uniform","","","","","","","1866.4000000953674","100258","102124.40000009537","[""stimuli/AF09_HO.jpg"",""stimuli/AF10_FO.jpg"",""stimuli/AM06_HE.jpg"",""stimuli/WF11_SC.jpg""]","stimuli/AF09_HO.jpg","stimuli/AF10_FO.jpg","stimuli/AM06_HE.jpg","stimuli/WF11_SC.jpg","pos2","stimuli/AF10_FO.jpg","FO","AF10","1","3","6","8","stimuli/stars_6.png","33.5","[""HO"",""FO"",""HE"",""SC""]","[""AF09"",""AF10"",""AM06"",""WF11""]","[6,6,4,6]","[4,8,2,6]","","",""
"show-reward","36","102375","0.0-36.0","p494369","A1EH9BPKYXFBS5","3OWZNK3RYMVDNXPNEIRWZ8JM6MU2UY","3ZDAD0O1T3J2BKBPS4RG9MM5JSGXTU","model","match","uniform","","","","","","","","102636.5","104649","","","","","","","","","","","","6","","stimuli/stars_6.png","33.5","","","","","stimuli/AF10_FO.jpg","",""
"explore-choice","37","104238","0.0-37.0","p494369","A1EH9BPKYXFBS5","3OWZNK3RYMVDNXPNEIRWZ8JM6MU2UY","3ZDAD0O1T3J2BKBPS4RG9MM5JSGXTU","model","match","uniform","","","","","","","1350.2000000476837","104653.70000004768","106003.90000009537","[""stimuli/AM06_HE.jpg"",""stimuli/AF09_FO.jpg"",""stimuli/AF10_HO.jpg"",""stimuli/WF11_SC.jpg""]","stimuli/AM06_HE.jpg","stimuli/AF09_FO.jpg","stimuli/AF10_HO.jpg","stimuli/WF11_SC.jpg","pos2","stimuli/AF09_FO.jpg","FO","AF09","1","1.5","3","4","stimuli/stars_3.png","35","[""HE"",""FO"",""HO"",""SC""]","[""AM06"",""AF09"",""AF10"",""WF11""]","[1,3,6,7]","[2,4,8,6]","","",""
"show-reward","38","106259","0.0-38.0","p494369","A1EH9BPKYXFBS5","3OWZNK3RYMVDNXPNEIRWZ8JM6MU2UY","3ZDAD0O1T3J2BKBPS4RG9MM5JSGXTU","model","match","uniform","","","","","","","","106515.20000004768","108532.80000007153","","","","","","","","","","","","3","","stimuli/stars_3.png","35","","","","","stimuli/AF09_FO.jpg","",""
"explore-choice","39","107975","0.0-39.0","p494369","A1EH9BPKYXFBS5","3OWZNK3RYMVDNXPNEIRWZ8JM6MU2UY","3ZDAD0O1T3J2BKBPS4RG9MM5JSGXTU","model","match","uniform","","","","","","","1205.5","108539.60000002384","109745.10000002384","[""stimuli/WF11_HE.jpg"",""stimuli/AF09_HO.jpg"",""stimuli/AM06_FO.jpg"",""stimuli/AF10_SC.jpg""]","stimuli/WF11_HE.jpg","stimuli/AF09_HO.jpg","stimuli/AM06_FO.jpg","stimuli/AF10_SC.jpg","pos3","stimuli/AM06_FO.jpg","FO","AM06","2","0.5","1","2","stimuli/stars_1.png","35.5","[""HE"",""HO"",""FO"",""SC""]","[""WF11"",""AF09"",""AM06"",""AF10""]","[6,6,1,8]","[6,4,2,8]","","",""
"show-reward","40","109996","0.0-40.0","p494369","A1EH9BPKYXFBS5","3OWZNK3RYMVDNXPNEIRWZ8JM6MU2UY","3ZDAD0O1T3J2BKBPS4RG9MM5JSGXTU","model","match","uniform","","","","","","","","110253.5","112269.5","","","","","","","","","","","","1","","stimuli/stars_1.png","35.5","","","","","stimuli/AM06_FO.jpg","",""
"explore-choice","41","112163","0.0-41.0","p494369","A1EH9BPKYXFBS5","3OWZNK3RYMVDNXPNEIRWZ8JM6MU2UY","3ZDAD0O1T3J2BKBPS4RG9MM5JSGXTU","model","match","uniform","","","","","","","1658.8999999761581","112273.70000004768","113932.60000002384","[""stimuli/AM06_FO.jpg"",""stimuli/AF10_HE.jpg"",""stimuli/WF11_SC.jpg"",""stimuli/AF09_HO.jpg""]","stimuli/AM06_FO.jpg","stimuli/AF10_HE.jpg","stimuli/WF11_SC.jpg","stimuli/AF09_HO.jpg","pos3","stimuli/WF11_SC.jpg","SC","WF11","2","2.5","5","6","stimuli/stars_5.png","38","[""FO"",""HE"",""SC"",""HO""]","[""AM06"",""AF10"",""WF11"",""AF09""]","[4,7,5,4]","[2,8,6,4]","","",""
"show-reward","42","114191","0.0-42.0","p494369","A1EH9BPKYXFBS5","3OWZNK3RYMVDNXPNEIRWZ8JM6MU2UY","3ZDAD0O1T3J2BKBPS4RG9MM5JSGXTU","model","match","uniform","","","","","","","","114441.40000009537","116463.10000002384","","","","","","","","","","","","5","","stimuli/stars_5.png","38","","","","","stimuli/WF11_SC.jpg","",""
"explore-choice","43","116571","0.0-43.0","p494369","A1EH9BPKYXFBS5","3OWZNK3RYMVDNXPNEIRWZ8JM6MU2UY","3ZDAD0O1T3J2BKBPS4RG9MM5JSGXTU","model","match","uniform","","","","","","","1867","116471.5","118338.5","[""stimuli/AM06_SC.jpg"",""stimuli/WF11_HO.jpg"",""stimuli/AF10_FO.jpg"",""stimuli/AF09_HE.jpg""]","stimuli/AM06_SC.jpg","stimuli/WF11_HO.jpg","stimuli/AF10_FO.jpg","stimuli/AF09_HE.jpg","pos4","stimuli/AF09_HE.jpg","HE","AF09","3","2","4","4","stimuli/stars_4.png","40","[""SC"",""HO"",""FO"",""HE""]","[""AM06"",""WF11"",""AF10"",""AF09""]","[1,6,8,4]","[2,6,8,4]","","",""
"show-reward","44","118584","0.0-44.0","p494369","A1EH9BPKYXFBS5","3OWZNK3RYMVDNXPNEIRWZ8JM6MU2UY","3ZDAD0O1T3J2BKBPS4RG9MM5JSGXTU","model","match","uniform","","","","","","","","118850.10000002384","120858.80000007153","","","","","","","","","","","","4","","stimuli/stars_4.png","40","","","","","stimuli/AF09_HE.jpg","",""
"explore-choice","45","120475","0.0-45.0","p494369","A1EH9BPKYXFBS5","3OWZNK3RYMVDNXPNEIRWZ8JM6MU2UY","3ZDAD0O1T3J2BKBPS4RG9MM5JSGXTU","model","match","uniform","","","","","","","1379.7999999523163","120862.30000007153","122242.10000002384","[""stimuli/AF09_FO.jpg"",""stimuli/AF10_SC.jpg"",""stimuli/AM06_HO.jpg"",""stimuli/WF11_HE.jpg""]","stimuli/AF09_FO.jpg","stimuli/AF10_SC.jpg","stimuli/AM06_HO.jpg","stimuli/WF11_HE.jpg","pos2","stimuli/AF10_SC.jpg","SC","AF10","1","3.5","7","8","stimuli/stars_7.png","43.5","[""FO"",""SC"",""HO"",""HE""]","[""AF09"",""AF10"",""AM06"",""WF11""]","[4,7,3,8]","[4,8,2,6]","","",""
"show-reward","46","122508","0.0-46.0","p494369","A1EH9BPKYXFBS5","3OWZNK3RYMVDNXPNEIRWZ8JM6MU2UY","3ZDAD0O1T3J2BKBPS4RG9MM5JSGXTU","model","match","uniform","","","","","","","","122753","124780.40000009537","","","","","","","","","","","","7","","stimuli/stars_7.png","43.5","","","","","stimuli/AF10_SC.jpg","",""
"explore-choice","47","124624","0.0-47.0","p494369","A1EH9BPKYXFBS5","3OWZNK3RYMVDNXPNEIRWZ8JM6MU2UY","3ZDAD0O1T3J2BKBPS4RG9MM5JSGXTU","model","match","uniform","","","","","","","1605.6999999284744","124786.80000007153","126392.5","[""stimuli/AF09_SC.jpg"",""stimuli/AF10_HO.jpg"",""stimuli/AM06_HE.jpg"",""stimuli/WF11_FO.jpg""]","stimuli/AF09_SC.jpg","stimuli/AF10_HO.jpg","stimuli/AM06_HE.jpg","stimuli/WF11_FO.jpg","pos2","stimuli/AF10_HO.jpg","HO","AF10","1","4.5","9","8","stimuli/stars_9.png","48","[""SC"",""HO"",""HE"",""FO""]","[""AF09"",""AF10"",""AM06"",""WF11""]","[5,9,0,4]","[4,8,2,6]","","",""
"show-reward","48","126639","0.0-48.0","p494369","A1EH9BPKYXFBS5","3OWZNK3RYMVDNXPNEIRWZ8JM6MU2UY","3ZDAD0O1T3J2BKBPS4RG9MM5JSGXTU","model","match","uniform","","","","","","","","126901.80000007153","128913.10000002384","","","","","","","","","","","","9","","stimuli/stars_9.png","48","","","","","stimuli/AF10_HO.jpg","",""
"explore-choice","49","128297","0.0-49.0","p494369","A1EH9BPKYXFBS5","3OWZNK3RYMVDNXPNEIRWZ8JM6MU2UY","3ZDAD0O1T3J2BKBPS4RG9MM5JSGXTU","model","match","uniform","","","","","","","1151.1000000238419","128917.10000002384","130068.20000004768","[""stimuli/AF09_HE.jpg"",""stimuli/AF10_HO.jpg"",""stimuli/WF11_SC.jpg"",""stimuli/AM06_FO.jpg""]","stimuli/AF09_HE.jpg","stimuli/AF10_HO.jpg","stimuli/WF11_SC.jpg","stimuli/AM06_FO.jpg","pos2","stimuli/AF10_HO.jpg","HO","AF10","1","4","8","8","stimuli/stars_8.png","52","[""HE"",""HO"",""SC"",""FO""]","[""AF09"",""AF10"",""WF11"",""AM06""]","[4,8,6,2]","[4,8,6,2]","","",""
"show-reward","50","130309","0.0-50.0","p494369","A1EH9BPKYXFBS5","3OWZNK3RYMVDNXPNEIRWZ8JM6MU2UY","3ZDAD0O1T3J2BKBPS4RG9MM5JSGXTU","model","match","uniform","","","","","","","","130576.70000004768","132584.70000004768","","","","","","","","","","","","8","","stimuli/stars_8.png","52","","","","","stimuli/AF10_HO.jpg","",""
"explore-choice","51","134053","0.0-51.0","p494369","A1EH9BPKYXFBS5","3OWZNK3RYMVDNXPNEIRWZ8JM6MU2UY","3ZDAD0O1T3J2BKBPS4RG9MM5JSGXTU","model","match","uniform","","","","","","","3232.1999999284744","132585.90000009537","135818.10000002384","[""stimuli/AF10_SC.jpg"",""stimuli/WF11_FO.jpg"",""stimuli/AM06_HO.jpg"",""stimuli/AF09_HE.jpg""]","stimuli/AF10_SC.jpg","stimuli/WF11_FO.jpg","stimuli/AM06_HO.jpg","stimuli/AF09_HE.jpg","pos2","stimuli/WF11_FO.jpg","FO","WF11","1","3","6","6","stimuli/stars_6.png","55","[""SC"",""FO"",""HO"",""HE""]","[""AF10"",""WF11"",""AM06"",""AF09""]","[7,6,0,3]","[8,6,2,4]","","",""
"show-reward","52","136063","0.0-52.0","p494369","A1EH9BPKYXFBS5","3OWZNK3RYMVDNXPNEIRWZ8JM6MU2UY","3ZDAD0O1T3J2BKBPS4RG9MM5JSGXTU","model","match","uniform","","","","","","","","136331","138338.5","","","","","","","","","","","","6","","stimuli/stars_6.png","55","","","","","stimuli/WF11_FO.jpg","",""
"explore-choice","53","138343","0.0-53.0","p494369","A1EH9BPKYXFBS5","3OWZNK3RYMVDNXPNEIRWZ8JM6MU2UY","3ZDAD0O1T3J2BKBPS4RG9MM5JSGXTU","model","match","uniform","","","","","","","1773.2999999523163","138341.20000004768","140114.5","[""stimuli/AF10_FO.jpg"",""stimuli/AF09_SC.jpg"",""stimuli/AM06_HO.jpg"",""stimuli/WF11_HE.jpg""]","stimuli/AF10_FO.jpg","stimuli/AF09_SC.jpg","stimuli/AM06_HO.jpg","stimuli/WF11_HE.jpg","pos1","stimuli/AF10_FO.jpg","FO","AF10","0","3.5","7","8","stimuli/stars_7.png","58.5","[""FO"",""SC"",""HO"",""HE""]","[""AF10"",""AF09"",""AM06"",""WF11""]","[7,4,4,5]","[8,4,2,6]","","",""
"show-reward","54","140352","0.0-54.0","p494369","A1EH9BPKYXFBS5","3OWZNK3RYMVDNXPNEIRWZ8JM6MU2UY","3ZDAD0O1T3J2BKBPS4RG9MM5JSGXTU","model","match","uniform","","","","","","","","140621.5","142627.40000009537","","","","","","","","","","","","7","","stimuli/stars_7.png","58.5","","","","","stimuli/AF10_FO.jpg","",""
"explore-choice","55","143723","0.0-55.0","p494369","A1EH9BPKYXFBS5","3OWZNK3RYMVDNXPNEIRWZ8JM6MU2UY","3ZDAD0O1T3J2BKBPS4RG9MM5JSGXTU","model","match","uniform","","","","","","","2856.1999999284744","142629.30000007153","145485.5","[""stimuli/AF10_HO.jpg"",""stimuli/AF09_HE.jpg"",""stimuli/WF11_SC.jpg"",""stimuli/AM06_FO.jpg""]","stimuli/AF10_HO.jpg","stimuli/AF09_HE.jpg","stimuli/WF11_SC.jpg","stimuli/AM06_FO.jpg","pos3","stimuli/WF11_SC.jpg","SC","WF11","2","3","6","6","stimuli/stars_6.png","61.5","[""HO"",""HE"",""SC"",""FO""]","[""AF10"",""AF09"",""WF11"",""AM06""]","[8,4,6,2]","[8,4,6,2]","","",""
"show-reward","56","145734","0.0-56.0","p494369","A1EH9BPKYXFBS5","3OWZNK3RYMVDNXPNEIRWZ8JM6MU2UY","3ZDAD0O1T3J2BKBPS4RG9MM5JSGXTU","model","match","uniform","","","","","","","","146000.5","148008.20000004768","","","","","","","","","","","","6","","stimuli/stars_6.png","61.5","","","","","stimuli/WF11_SC.jpg","",""
"explore-choice","57","148501","0.0-57.0","p494369","A1EH9BPKYXFBS5","3OWZNK3RYMVDNXPNEIRWZ8JM6MU2UY","3ZDAD0O1T3J2BKBPS4RG9MM5JSGXTU","model","match","uniform","","","","","","","2251.899999976158","148015.90000009537","150267.80000007153","[""stimuli/WF11_HO.jpg"",""stimuli/AF09_FO.jpg"",""stimuli/AM06_SC.jpg"",""stimuli/AF10_HE.jpg""]","stimuli/WF11_HO.jpg","stimuli/AF09_FO.jpg","stimuli/AM06_SC.jpg","stimuli/AF10_HE.jpg","pos2","stimuli/AF09_FO.jpg","FO","AF09","1","2.5","5","4","stimuli/stars_5.png","64","[""HO"",""FO"",""SC"",""HE""]","[""WF11"",""AF09"",""AM06"",""AF10""]","[8,5,4,7]","[6,4,2,8]","","",""
"show-reward","58","150516","0.0-58.0","p494369","A1EH9BPKYXFBS5","3OWZNK3RYMVDNXPNEIRWZ8JM6MU2UY","3ZDAD0O1T3J2BKBPS4RG9MM5JSGXTU","model","match","uniform","","","","","","","","150780.80000007153","152790.5","","","","","","","","","","","","5","","stimuli/stars_5.png","64","","","","","stimuli/AF09_FO.jpg","",""
"explore-choice","59","152395","0.0-59.0","p494369","A1EH9BPKYXFBS5","3OWZNK3RYMVDNXPNEIRWZ8JM6MU2UY","3ZDAD0O1T3J2BKBPS4RG9MM5JSGXTU","model","match","uniform","","","","","","","1367.6000000238419","152795.5","154163.10000002384","[""stimuli/AM06_FO.jpg"",""stimuli/AF09_SC.jpg"",""stimuli/WF11_HE.jpg"",""stimuli/AF10_HO.jpg""]","stimuli/AM06_FO.jpg","stimuli/AF09_SC.jpg","stimuli/WF11_HE.jpg","stimuli/AF10_HO.jpg","pos2","stimuli/AF09_SC.jpg","SC","AF09","1","1","2","4","stimuli/stars_2.png","65","[""FO"",""SC"",""HE"",""HO""]","[""AM06"",""AF09"",""WF11"",""AF10""]","[4,2,4,10]","[2,4,6,8]","","",""
"show-reward","60","154413","0.0-60.0","p494369","A1EH9BPKYXFBS5","3OWZNK3RYMVDNXPNEIRWZ8JM6MU2UY","3ZDAD0O1T3J2BKBPS4RG9MM5JSGXTU","model","match","uniform","","","","","","","","154675.30000007153","156687.80000007153","","","","","","","","","","","","2","","stimuli/stars_2.png","65","","","","","stimuli/AF09_SC.jpg","",""
"explore-choice","61","156903","0.0-61.0","p494369","A1EH9BPKYXFBS5","3OWZNK3RYMVDNXPNEIRWZ8JM6MU2UY","3ZDAD0O1T3J2BKBPS4RG9MM5JSGXTU","model","match","uniform","","","","","","","1980.7999999523163","156691.20000004768","158672","[""stimuli/WF11_HO.jpg"",""stimuli/AM06_HE.jpg"",""stimuli/AF09_SC.jpg"",""stimuli/AF10_FO.jpg""]","stimuli/WF11_HO.jpg","stimuli/AM06_HE.jpg","stimuli/AF09_SC.jpg","stimuli/AF10_FO.jpg","pos4","stimuli/AF10_FO.jpg","FO","AF10","3","3","6","8","stimuli/stars_6.png","68","[""HO"",""HE"",""SC"",""FO""]","[""WF11"",""AM06"",""AF09"",""AF10""]","[7,2,6,6]","[6,2,4,8]","","",""
"show-reward","62","158915","0.0-62.0","p494369","A1EH9BPKYXFBS5","3OWZNK3RYMVDNXPNEIRWZ8JM6MU2UY","3ZDAD0O1T3J2BKBPS4RG9MM5JSGXTU","model","match","uniform","","","","","","","","159182","161189.90000009537","","","","","","","","","","","","6","","stimuli/stars_6.png","68","","","","","stimuli/AF10_FO.jpg","",""
"explore-choice","63","161386","0.0-63.0","p494369","A1EH9BPKYXFBS5","3OWZNK3RYMVDNXPNEIRWZ8JM6MU2UY","3ZDAD0O1T3J2BKBPS4RG9MM5JSGXTU","model","match","uniform","","","","","","","1958","161195.40000009537","163153.40000009537","[""stimuli/AF10_SC.jpg"",""stimuli/AF09_HO.jpg"",""stimuli/WF11_HE.jpg"",""stimuli/AM06_FO.jpg""]","stimuli/AF10_SC.jpg","stimuli/AF09_HO.jpg","stimuli/WF11_HE.jpg","stimuli/AM06_FO.jpg","pos1","stimuli/AF10_SC.jpg","SC","AF10","0","4","8","8","stimuli/stars_8.png","72","[""SC"",""HO"",""HE"",""FO""]","[""AF10"",""AF09"",""WF11"",""AM06""]","[8,6,6,1]","[8,4,6,2]","","",""
"show-reward","64","163397","0.0-64.0","p494369","A1EH9BPKYXFBS5","3OWZNK3RYMVDNXPNEIRWZ8JM6MU2UY","3ZDAD0O1T3J2BKBPS4RG9MM5JSGXTU","model","match","uniform","","","","","","","","163662.5","165672.20000004768","","","","","","","","","","","","8","","stimuli/stars_8.png","72","","","","","stimuli/AF10_SC.jpg","",""
"explore-choice","65","165176","0.0-65.0","p494369","A1EH9BPKYXFBS5","3OWZNK3RYMVDNXPNEIRWZ8JM6MU2UY","3ZDAD0O1T3J2BKBPS4RG9MM5JSGXTU","model","match","uniform","","","","","","","1276.2000000476837","165673.20000004768","166949.40000009537","[""stimuli/AM06_FO.jpg"",""stimuli/WF11_SC.jpg"",""stimuli/AF09_HO.jpg"",""stimuli/AF10_HE.jpg""]","stimuli/AM06_FO.jpg","stimuli/WF11_SC.jpg","stimuli/AF09_HO.jpg","stimuli/AF10_HE.jpg","pos4","stimuli/AF10_HE.jpg","HE","AF10","3","3.5","7","8","stimuli/stars_7.png","75.5","[""FO"",""SC"",""HO"",""HE""]","[""AM06"",""WF11"",""AF09"",""AF10""]","[4,5,4,7]","[2,6,4,8]","","",""
"show-reward","66","167186","0.0-66.0","p494369","A1EH9BPKYXFBS5","3OWZNK3RYMVDNXPNEIRWZ8JM6MU2UY","3ZDAD0O1T3J2BKBPS4RG9MM5JSGXTU","model","match","uniform","","","","","","","","167453.80000007153","169460.20000004768","","","","","","","","","","","","7","","stimuli/stars_7.png","75.5","","","","","stimuli/AF10_HE.jpg","",""
"explore-choice","67","169147","0.0-67.0","p494369","A1EH9BPKYXFBS5","3OWZNK3RYMVDNXPNEIRWZ8JM6MU2UY","3ZDAD0O1T3J2BKBPS4RG9MM5JSGXTU","model","match","uniform","","","","","","","1454.5999999046326","169463.40000009537","170918","[""stimuli/AF09_HO.jpg"",""stimuli/AF10_FO.jpg"",""stimuli/AM06_HE.jpg"",""stimuli/WF11_SC.jpg""]","stimuli/AF09_HO.jpg","stimuli/AF10_FO.jpg","stimuli/AM06_HE.jpg","stimuli/WF11_SC.jpg","pos2","stimuli/AF10_FO.jpg","FO","AF10","1","3","6","8","stimuli/stars_6.png","78.5","[""HO"",""FO"",""HE"",""SC""]","[""AF09"",""AF10"",""AM06"",""WF11""]","[6,6,4,6]","[4,8,2,6]","","",""
"show-reward","68","171162","0.0-68.0","p494369","A1EH9BPKYXFBS5","3OWZNK3RYMVDNXPNEIRWZ8JM6MU2UY","3ZDAD0O1T3J2BKBPS4RG9MM5JSGXTU","model","match","uniform","","","","","","","","171426.30000007153","173437.20000004768","","","","","","","","","","","","6","","stimuli/stars_6.png","78.5","","","","","stimuli/AF10_FO.jpg","",""
"explore-choice","69","172931","0.0-69.0","p494369","A1EH9BPKYXFBS5","3OWZNK3RYMVDNXPNEIRWZ8JM6MU2UY","3ZDAD0O1T3J2BKBPS4RG9MM5JSGXTU","model","match","uniform","","","","","","","1262.1000000238419","173443.70000004768","174705.80000007153","[""stimuli/AF10_SC.jpg"",""stimuli/AF09_FO.jpg"",""stimuli/AM06_HO.jpg"",""stimuli/WF11_HE.jpg""]","stimuli/AF10_SC.jpg","stimuli/AF09_FO.jpg","stimuli/AM06_HO.jpg","stimuli/WF11_HE.jpg","pos2","stimuli/AF09_FO.jpg","FO","AF09","1","2","4","4","stimuli/stars_4.png","80.5","[""SC"",""FO"",""HO"",""HE""]","[""AF10"",""AF09"",""AM06"",""WF11""]","[7,4,3,8]","[8,4,2,6]","","",""
"show-reward","70","174953","0.0-70.0","p494369","A1EH9BPKYXFBS5","3OWZNK3RYMVDNXPNEIRWZ8JM6MU2UY","3ZDAD0O1T3J2BKBPS4RG9MM5JSGXTU","model","match","uniform","","","","","","","","175212.60000002384","177229.20000004768","","","","","","","","","","","","4","","stimuli/stars_4.png","80.5","","","","","stimuli/AF09_FO.jpg","",""
"explore-choice","71","176391","0.0-71.0","p494369","A1EH9BPKYXFBS5","3OWZNK3RYMVDNXPNEIRWZ8JM6MU2UY","3ZDAD0O1T3J2BKBPS4RG9MM5JSGXTU","model","match","uniform","","","","","","","925.3000000715256","177232.5","178157.80000007153","[""stimuli/AF09_FO.jpg"",""stimuli/AF10_HE.jpg"",""stimuli/AM06_HO.jpg"",""stimuli/WF11_SC.jpg""]","stimuli/AF09_FO.jpg","stimuli/AF10_HE.jpg","stimuli/AM06_HO.jpg","stimuli/WF11_SC.jpg","pos2","stimuli/AF10_HE.jpg","HE","AF10","1","3","6","8","stimuli/stars_6.png","83.5","[""FO"",""HE"",""HO"",""SC""]","[""AF09"",""AF10"",""AM06"",""WF11""]","[6,6,1,4]","[4,8,2,6]","","",""
"show-reward","72","178401","0.0-72.0","p494369","A1EH9BPKYXFBS5","3OWZNK3RYMVDNXPNEIRWZ8JM6MU2UY","3ZDAD0O1T3J2BKBPS4RG9MM5JSGXTU","model","match","uniform","","","","","","","","178672.30000007153","180678.20000004768","","","","","","","","","","","","6","","stimuli/stars_6.png","83.5","","","","","stimuli/AF10_HE.jpg","",""
"explore-choice","73","180592","0.0-73.0","p494369","A1EH9BPKYXFBS5","3OWZNK3RYMVDNXPNEIRWZ8JM6MU2UY","3ZDAD0O1T3J2BKBPS4RG9MM5JSGXTU","model","match","uniform","","","","","","","1685.7000000476837","180680","182365.70000004768","[""stimuli/AF09_SC.jpg"",""stimuli/WF11_FO.jpg"",""stimuli/AF10_HE.jpg"",""stimuli/AM06_HO.jpg""]","stimuli/AF09_SC.jpg","stimuli/WF11_FO.jpg","stimuli/AF10_HE.jpg","stimuli/AM06_HO.jpg","pos3","stimuli/AF10_HE.jpg","HE","AF10","2","4","8","8","stimuli/stars_8.png","87.5","[""SC"",""FO"",""HE"",""HO""]","[""AF09"",""WF11"",""AF10"",""AM06""]","[4,4,8,3]","[4,6,8,2]","","",""
"show-reward","74","182601","0.0-74.0","p494369","A1EH9BPKYXFBS5","3OWZNK3RYMVDNXPNEIRWZ8JM6MU2UY","3ZDAD0O1T3J2BKBPS4RG9MM5JSGXTU","model","match","uniform","","","","","","","","182869.90000009537","184877.60000002384","","","","","","","","","","","","8","","stimuli/stars_8.png","87.5","","","","","stimuli/AF10_HE.jpg","",""
"explore-choice","75","184326","0.0-75.0","p494369","A1EH9BPKYXFBS5","3OWZNK3RYMVDNXPNEIRWZ8JM6MU2UY","3ZDAD0O1T3J2BKBPS4RG9MM5JSGXTU","model","match","uniform","","","","","","","1218.2000000476837","184880.70000004768","186098.90000009537","[""stimuli/AF09_HE.jpg"",""stimuli/AM06_FO.jpg"",""stimuli/AF10_SC.jpg"",""stimuli/WF11_HO.jpg""]","stimuli/AF09_HE.jpg","stimuli/AM06_FO.jpg","stimuli/AF10_SC.jpg","stimuli/WF11_HO.jpg","pos3","stimuli/AF10_SC.jpg","SC","AF10","2","3","6","8","stimuli/stars_6.png","90.5","[""HE"",""FO"",""SC"",""HO""]","[""AF09"",""AM06"",""AF10"",""WF11""]","[4,0,6,4]","[4,2,8,6]","","",""
"show-reward","76","186344","0.0-76.0","p494369","A1EH9BPKYXFBS5","3OWZNK3RYMVDNXPNEIRWZ8JM6MU2UY","3ZDAD0O1T3J2BKBPS4RG9MM5JSGXTU","model","match","uniform","","","","","","","","186606.5","188620.20000004768","","","","","","","","","","","","6","","stimuli/stars_6.png","90.5","","","","","stimuli/AF10_SC.jpg","",""
"explore-choice","77","189184","0.0-77.0","p494369","A1EH9BPKYXFBS5","3OWZNK3RYMVDNXPNEIRWZ8JM6MU2UY","3ZDAD0O1T3J2BKBPS4RG9MM5JSGXTU","model","match","uniform","","","","","","","2314.8000000715256","188625","190939.80000007153","[""stimuli/AF09_HO.jpg"",""stimuli/AM06_SC.jpg"",""stimuli/WF11_FO.jpg"",""stimuli/AF10_HE.jpg""]","stimuli/AF09_HO.jpg","stimuli/AM06_SC.jpg","stimuli/WF11_FO.jpg","stimuli/AF10_HE.jpg","pos4","stimuli/AF10_HE.jpg","HE","AF10","3","4","8","8","stimuli/stars_8.png","94.5","[""HO"",""SC"",""FO"",""HE""]","[""AF09"",""AM06"",""WF11"",""AF10""]","[3,4,4,8]","[4,2,6,8]","","",""
"show-reward","78","191201","0.0-78.0","p494369","A1EH9BPKYXFBS5","3OWZNK3RYMVDNXPNEIRWZ8JM6MU2UY","3ZDAD0O1T3J2BKBPS4RG9MM5JSGXTU","model","match","uniform","","","","","","","","191463.10000002384","193477.10000002384","","","","","","","","","","","","8","","stimuli/stars_8.png","94.5","","","","","stimuli/AF10_HE.jpg","",""
"explore-choice","79","193424","0.0-79.0","p494369","A1EH9BPKYXFBS5","3OWZNK3RYMVDNXPNEIRWZ8JM6MU2UY","3ZDAD0O1T3J2BKBPS4RG9MM5JSGXTU","model","match","uniform","","","","","","","1718.3999999761581","193481.30000007153","195199.70000004768","[""stimuli/AF09_HE.jpg"",""stimuli/WF11_FO.jpg"",""stimuli/AM06_HO.jpg"",""stimuli/AF10_SC.jpg""]","stimuli/AF09_HE.jpg","stimuli/WF11_FO.jpg","stimuli/AM06_HO.jpg","stimuli/AF10_SC.jpg","pos4","stimuli/AF10_SC.jpg","SC","AF10","3","3.5","7","8","stimuli/stars_7.png","98","[""HE"",""FO"",""HO"",""SC""]","[""AF09"",""WF11"",""AM06"",""AF10""]","[3,6,0,7]","[4,6,2,8]","","",""
"show-reward","80","195446","0.0-80.0","p494369","A1EH9BPKYXFBS5","3OWZNK3RYMVDNXPNEIRWZ8JM6MU2UY","3ZDAD0O1T3J2BKBPS4RG9MM5JSGXTU","model","match","uniform","","","","","","","","195704","197721.80000007153","","","","","","","","","","","","7","","stimuli/stars_7.png","98","","","","","stimuli/AF10_SC.jpg","",""
"explore-choice","81","198308","0.0-81.0","p494369","A1EH9BPKYXFBS5","3OWZNK3RYMVDNXPNEIRWZ8JM6MU2UY","3ZDAD0O1T3J2BKBPS4RG9MM5JSGXTU","model","match","uniform","","","","","","","2340.5","197726.10000002384","200066.60000002384","[""stimuli/AF10_FO.jpg"",""stimuli/WF11_HE.jpg"",""stimuli/AM06_HO.jpg"",""stimuli/AF09_SC.jpg""]","stimuli/AF10_FO.jpg","stimuli/WF11_HE.jpg","stimuli/AM06_HO.jpg","stimuli/AF09_SC.jpg","pos1","stimuli/AF10_FO.jpg","FO","AF10","0","3.5","7","8","stimuli/stars_7.png","101.5","[""FO"",""HE"",""HO"",""SC""]","[""AF10"",""WF11"",""AM06"",""AF09""]","[7,5,4,4]","[8,6,2,4]","","",""
"show-reward","82","200326","0.0-82.0","p494369","A1EH9BPKYXFBS5","3OWZNK3RYMVDNXPNEIRWZ8JM6MU2UY","3ZDAD0O1T3J2BKBPS4RG9MM5JSGXTU","model","match","uniform","","","","","","","","200588.5","202602.10000002384","","","","","","","","","","","","7","","stimuli/stars_7.png","101.5","","","","","stimuli/AF10_FO.jpg","",""
"explore-choice","83","202218","0.0-83.0","p494369","A1EH9BPKYXFBS5","3OWZNK3RYMVDNXPNEIRWZ8JM6MU2UY","3ZDAD0O1T3J2BKBPS4RG9MM5JSGXTU","model","match","uniform","","","","","","","1367.7000000476837","202605.70000004768","203973.40000009537","[""stimuli/AF10_HO.jpg"",""stimuli/WF11_SC.jpg"",""stimuli/AF09_FO.jpg"",""stimuli/AM06_HE.jpg""]","stimuli/AF10_HO.jpg","stimuli/WF11_SC.jpg","stimuli/AF09_FO.jpg","stimuli/AM06_HE.jpg","pos1","stimuli/AF10_HO.jpg","HO","AF10","0","3","6","8","stimuli/stars_6.png","104.5","[""HO"",""SC"",""FO"",""HE""]","[""AF10"",""WF11"",""AF09"",""AM06""]","[6,7,3,1]","[8,6,4,2]","","",""
"show-reward","84","204236","0.0-84.0","p494369","A1EH9BPKYXFBS5","3OWZNK3RYMVDNXPNEIRWZ8JM6MU2UY","3ZDAD0O1T3J2BKBPS4RG9MM5JSGXTU","model","match","uniform","","","","","","","","204498.5","206511","","","","","","","","","","","","6","","stimuli/stars_6.png","104.5","","","","","stimuli/AF10_HO.jpg","",""
"explore-choice","85","205629","0.0-85.0","p494369","A1EH9BPKYXFBS5","3OWZNK3RYMVDNXPNEIRWZ8JM6MU2UY","3ZDAD0O1T3J2BKBPS4RG9MM5JSGXTU","model","match","uniform","","","","","","","883.6000000238419","206517.20000004768","207400.80000007153","[""stimuli/AF10_HO.jpg"",""stimuli/AF09_SC.jpg"",""stimuli/AM06_HE.jpg"",""stimuli/WF11_FO.jpg""]","stimuli/AF10_HO.jpg","stimuli/AF09_SC.jpg","stimuli/AM06_HE.jpg","stimuli/WF11_FO.jpg","pos1","stimuli/AF10_HO.jpg","HO","AF10","0","4.5","9","8","stimuli/stars_9.png","109","[""HO"",""SC"",""HE"",""FO""]","[""AF10"",""AF09"",""AM06"",""WF11""]","[9,5,0,4]","[8,4,2,6]","","",""
"show-reward","86","207643","0.0-86.0","p494369","A1EH9BPKYXFBS5","3OWZNK3RYMVDNXPNEIRWZ8JM6MU2UY","3ZDAD0O1T3J2BKBPS4RG9MM5JSGXTU","model","match","uniform","","","","","","","","207908.10000002384","209918.60000002384","","","","","","","","","","","","9","","stimuli/stars_9.png","109","","","","","stimuli/AF10_HO.jpg","",""
"explore-choice","87","209560","0.0-87.0","p494369","A1EH9BPKYXFBS5","3OWZNK3RYMVDNXPNEIRWZ8JM6MU2UY","3ZDAD0O1T3J2BKBPS4RG9MM5JSGXTU","model","match","uniform","","","","","","","1407.5","209924.10000002384","211331.60000002384","[""stimuli/WF11_HO.jpg"",""stimuli/AM06_FO.jpg"",""stimuli/AF10_HE.jpg"",""stimuli/AF09_SC.jpg""]","stimuli/WF11_HO.jpg","stimuli/AM06_FO.jpg","stimuli/AF10_HE.jpg","stimuli/AF09_SC.jpg","pos3","stimuli/AF10_HE.jpg","HE","AF10","2","5","10","8","stimuli/stars_10.png","114","[""HO"",""FO"",""HE"",""SC""]","[""WF11"",""AM06"",""AF10"",""AF09""]","[6,0,10,2]","[6,2,8,4]","","",""
"show-reward","88","211572","0.0-88.0","p494369","A1EH9BPKYXFBS5","3OWZNK3RYMVDNXPNEIRWZ8JM6MU2UY","3ZDAD0O1T3J2BKBPS4RG9MM5JSGXTU","model","match","uniform","","","","","","","","211838.10000002384","213847.90000009537","","","","","","","","","","","","10","","stimuli/stars_10.png","114","","","","","stimuli/AF10_HE.jpg","",""
"explore-choice","89","214017","0.0-89.0","p494369","A1EH9BPKYXFBS5","3OWZNK3RYMVDNXPNEIRWZ8JM6MU2UY","3ZDAD0O1T3J2BKBPS4RG9MM5JSGXTU","model","match","uniform","","","","","","","1936.8999999761581","213853.70000004768","215790.60000002384","[""stimuli/AM06_HE.jpg"",""stimuli/AF09_HO.jpg"",""stimuli/WF11_FO.jpg"",""stimuli/AF10_SC.jpg""]","stimuli/AM06_HE.jpg","stimuli/AF09_HO.jpg","stimuli/WF11_FO.jpg","stimuli/AF10_SC.jpg","pos4","stimuli/AF10_SC.jpg","SC","AF10","3","5","10","8","stimuli/stars_10.png","119","[""HE"",""HO"",""FO"",""SC""]","[""AM06"",""AF09"",""WF11"",""AF10""]","[0,6,8,10]","[2,4,6,8]","","",""
"show-reward","90","216040","0.0-90.0","p494369","A1EH9BPKYXFBS5","3OWZNK3RYMVDNXPNEIRWZ8JM6MU2UY","3ZDAD0O1T3J2BKBPS4RG9MM5JSGXTU","model","match","uniform","","","","","","","","216296.70000004768","218312.40000009537","","","","","","","","","","","","10","","stimuli/stars_10.png","119","","","","","stimuli/AF10_SC.jpg","",""
"explore-choice","91","218074","0.0-91.0","p494369","A1EH9BPKYXFBS5","3OWZNK3RYMVDNXPNEIRWZ8JM6MU2UY","3ZDAD0O1T3J2BKBPS4RG9MM5JSGXTU","model","match","uniform","","","","","","","1523.1000000238419","218321.60000002384","219844.70000004768","[""stimuli/WF11_HO.jpg"",""stimuli/AM06_SC.jpg"",""stimuli/AF10_FO.jpg"",""stimuli/AF09_HE.jpg""]","stimuli/WF11_HO.jpg","stimuli/AM06_SC.jpg","stimuli/AF10_FO.jpg","stimuli/AF09_HE.jpg","pos3","stimuli/AF10_FO.jpg","FO","AF10","2","4","8","8","stimuli/stars_8.png","123","[""HO"",""SC"",""FO"",""HE""]","[""WF11"",""AM06"",""AF10"",""AF09""]","[6,1,8,4]","[6,2,8,4]","","",""
"show-reward","92","220104","0.0-92.0","p494369","A1EH9BPKYXFBS5","3OWZNK3RYMVDNXPNEIRWZ8JM6MU2UY","3ZDAD0O1T3J2BKBPS4RG9MM5JSGXTU","model","match","uniform","","","","","","","","220354.80000007153","222380","","","","","","","","","","","","8","","stimuli/stars_8.png","123","","","","","stimuli/AF10_FO.jpg","",""
"explore-choice","93","221625","0.0-93.0","p494369","A1EH9BPKYXFBS5","3OWZNK3RYMVDNXPNEIRWZ8JM6MU2UY","3ZDAD0O1T3J2BKBPS4RG9MM5JSGXTU","model","match","uniform","","","","","","","990.3999999761581","222407.80000007153","223398.20000004768","[""stimuli/WF11_SC.jpg"",""stimuli/AM06_HO.jpg"",""stimuli/AF10_FO.jpg"",""stimuli/AF09_HE.jpg""]","stimuli/WF11_SC.jpg","stimuli/AM06_HO.jpg","stimuli/AF10_FO.jpg","stimuli/AF09_HE.jpg","pos3","stimuli/AF10_FO.jpg","FO","AF10","2","4.5","9","8","stimuli/stars_9.png","127.5","[""SC"",""HO"",""FO"",""HE""]","[""WF11"",""AM06"",""AF10"",""AF09""]","[8,2,9,4]","[6,2,8,4]","","",""
"show-reward","94","223633","0.0-94.0","p494369","A1EH9BPKYXFBS5","3OWZNK3RYMVDNXPNEIRWZ8JM6MU2UY","3ZDAD0O1T3J2BKBPS4RG9MM5JSGXTU","model","match","uniform","","","","","","","","223903.90000009537","225910.20000004768","","","","","","","","","","","","9","","stimuli/stars_9.png","127.5","","","","","stimuli/AF10_FO.jpg","",""
"explore-choice","95","225628","0.0-95.0","p494369","A1EH9BPKYXFBS5","3OWZNK3RYMVDNXPNEIRWZ8JM6MU2UY","3ZDAD0O1T3J2BKBPS4RG9MM5JSGXTU","model","match","uniform","","","","","","","1478.8000000715256","225911.5","227390.30000007153","[""stimuli/AF10_HO.jpg"",""stimuli/AF09_FO.jpg"",""stimuli/WF11_HE.jpg"",""stimuli/AM06_SC.jpg""]","stimuli/AF10_HO.jpg","stimuli/AF09_FO.jpg","stimuli/WF11_HE.jpg","stimuli/AM06_SC.jpg","pos1","stimuli/AF10_HO.jpg","HO","AF10","0","4.5","9","8","stimuli/stars_9.png","132","[""HO"",""FO"",""HE"",""SC""]","[""AF10"",""AF09"",""WF11"",""AM06""]","[9,6,7,3]","[8,4,6,2]","","",""
"show-reward","96","227638","0.0-96.0","p494369","A1EH9BPKYXFBS5","3OWZNK3RYMVDNXPNEIRWZ8JM6MU2UY","3ZDAD0O1T3J2BKBPS4RG9MM5JSGXTU","model","match","uniform","","","","","","","","227906.10000002384","229915","","","","","","","","","","","","9","","stimuli/stars_9.png","132","","","","","stimuli/AF10_HO.jpg","",""
"explore-choice","97","229924","0.0-97.0","p494369","A1EH9BPKYXFBS5","3OWZNK3RYMVDNXPNEIRWZ8JM6MU2UY","3ZDAD0O1T3J2BKBPS4RG9MM5JSGXTU","model","match","uniform","","","","","","","1784.6999999284744","229916.80000007153","231701.5","[""stimuli/AM06_HE.jpg"",""stimuli/WF11_HO.jpg"",""stimuli/AF09_FO.jpg"",""stimuli/AF10_SC.jpg""]","stimuli/AM06_HE.jpg","stimuli/WF11_HO.jpg","stimuli/AF09_FO.jpg","stimuli/AF10_SC.jpg","pos4","stimuli/AF10_SC.jpg","SC","AF10","3","3","6","8","stimuli/stars_6.png","135","[""HE"",""HO"",""FO"",""SC""]","[""AM06"",""WF11"",""AF09"",""AF10""]","[0,5,4,6]","[2,6,4,8]","","",""
"show-reward","98","231937","0.0-98.0","p494369","A1EH9BPKYXFBS5","3OWZNK3RYMVDNXPNEIRWZ8JM6MU2UY","3ZDAD0O1T3J2BKBPS4RG9MM5JSGXTU","model","match","uniform","","","","","","","","232207.80000007153","234217.20000004768","","","","","","","","","","","","6","","stimuli/stars_6.png","135","","","","","stimuli/AF10_SC.jpg","",""
"explore-choice","99","233631","0.0-99.0","p494369","A1EH9BPKYXFBS5","3OWZNK3RYMVDNXPNEIRWZ8JM6MU2UY","3ZDAD0O1T3J2BKBPS4RG9MM5JSGXTU","model","match","uniform","","","","","","","1179.8000000715256","234221","235400.80000007153","[""stimuli/AF09_HO.jpg"",""stimuli/AM06_SC.jpg"",""stimuli/AF10_FO.jpg"",""stimuli/WF11_HE.jpg""]","stimuli/AF09_HO.jpg","stimuli/AM06_SC.jpg","stimuli/AF10_FO.jpg","stimuli/WF11_HE.jpg","pos2","stimuli/AM06_SC.jpg","SC","AM06","1","0.5","1","2","stimuli/stars_1.png","135.5","[""HO"",""SC"",""FO"",""HE""]","[""AF09"",""AM06"",""AF10"",""WF11""]","[3,1,7,4]","[4,2,8,6]","","",""
"show-reward","100","235646","0.0-100.0","p494369","A1EH9BPKYXFBS5","3OWZNK3RYMVDNXPNEIRWZ8JM6MU2UY","3ZDAD0O1T3J2BKBPS4RG9MM5JSGXTU","model","match","uniform","","","","","","","","235915.60000002384","237927","","","","","","","","","","","","1","","stimuli/stars_1.png","135.5","","","","","stimuli/AM06_SC.jpg","",""
"explore-choice","101","236984","0.0-101.0","p494369","A1EH9BPKYXFBS5","3OWZNK3RYMVDNXPNEIRWZ8JM6MU2UY","3ZDAD0O1T3J2BKBPS4RG9MM5JSGXTU","model","match","uniform","","","","","","","819","237928.20000004768","238747.20000004768","[""stimuli/WF11_FO.jpg"",""stimuli/AF10_HO.jpg"",""stimuli/AM06_SC.jpg"",""stimuli/AF09_HE.jpg""]","stimuli/WF11_FO.jpg","stimuli/AF10_HO.jpg","stimuli/AM06_SC.jpg","stimuli/AF09_HE.jpg","pos1","stimuli/WF11_FO.jpg","FO","WF11","0","2.5","5","6","stimuli/stars_5.png","138","[""FO"",""HO"",""SC"",""HE""]","[""WF11"",""AF10"",""AM06"",""AF09""]","[5,6,3,2]","[6,8,2,4]","","",""
"show-reward","102","239000","0.0-102.0","p494369","A1EH9BPKYXFBS5","3OWZNK3RYMVDNXPNEIRWZ8JM6MU2UY","3ZDAD0O1T3J2BKBPS4RG9MM5JSGXTU","model","match","uniform","","","","","","","","239268","241279.90000009537","","","","","","","","","","","","5","","stimuli/stars_5.png","138","","","","","stimuli/WF11_FO.jpg","",""
"explore-choice","103","240900","0.0-103.0","p494369","A1EH9BPKYXFBS5","3OWZNK3RYMVDNXPNEIRWZ8JM6MU2UY","3ZDAD0O1T3J2BKBPS4RG9MM5JSGXTU","model","match","uniform","","","","","","","1390.0999999046326","241284.40000009537","242674.5","[""stimuli/AM03_SUR.jpg"",""stimuli/WM13_DO.jpg"",""stimuli/WM07_CC.jpg"",""stimuli/HF04_AO.jpg""]","stimuli/AM03_SUR.jpg","stimuli/WM13_DO.jpg","stimuli/WM07_CC.jpg","stimuli/HF04_AO.jpg","pos3","stimuli/WM07_CC.jpg","CC","WM07","2","3","6","4","stimuli/stars_6.png","141","[""SUR"",""DO"",""CC"",""AO""]","[""AM03"",""WM13"",""WM07"",""HF04""]","[7,2,6,6]","[6,2,4,8]","","",""
"show-reward","104","242910","0.0-104.0","p494369","A1EH9BPKYXFBS5","3OWZNK3RYMVDNXPNEIRWZ8JM6MU2UY","3ZDAD0O1T3J2BKBPS4RG9MM5JSGXTU","model","match","uniform","","","","","","","","243184.60000002384","245188.80000007153","","","","","","","","","","","","6","","stimuli/stars_6.png","141","","","","","stimuli/WM07_CC.jpg","",""
"explore-choice","105","245958","0.0-105.0","p494369","A1EH9BPKYXFBS5","3OWZNK3RYMVDNXPNEIRWZ8JM6MU2UY","3ZDAD0O1T3J2BKBPS4RG9MM5JSGXTU","model","match","uniform","","","","","","","2539.899999976158","245192.80000007153","247732.70000004768","[""stimuli/HF04_CC.jpg"",""stimuli/WM13_AO.jpg"",""stimuli/WM07_DO.jpg"",""stimuli/AM03_SUR.jpg""]","stimuli/HF04_CC.jpg","stimuli/WM13_AO.jpg","stimuli/WM07_DO.jpg","stimuli/AM03_SUR.jpg","pos4","stimuli/AM03_SUR.jpg","SUR","AM03","3","3.5","7","6","stimuli/stars_7.png","144.5","[""CC"",""AO"",""DO"",""SUR""]","[""HF04"",""WM13"",""WM07"",""AM03""]","[9,1,6,7]","[8,2,4,6]","","",""
"show-reward","106","247970","0.0-106.0","p494369","A1EH9BPKYXFBS5","3OWZNK3RYMVDNXPNEIRWZ8JM6MU2UY","3ZDAD0O1T3J2BKBPS4RG9MM5JSGXTU","model","match","uniform","","","","","","","","248240.40000009537","250249.40000009537","","","","","","","","","","","","7","","stimuli/stars_7.png","144.5","","","","","stimuli/AM03_SUR.jpg","",""
"explore-choice","107","250496","0.0-107.0","p494369","A1EH9BPKYXFBS5","3OWZNK3RYMVDNXPNEIRWZ8JM6MU2UY","3ZDAD0O1T3J2BKBPS4RG9MM5JSGXTU","model","match","uniform","","","","","","","2014.6000000238419","250254.80000007153","252269.40000009537","[""stimuli/HF04_SUR.jpg"",""stimuli/AM03_CC.jpg"",""stimuli/WM07_AO.jpg"",""stimuli/WM13_DO.jpg""]","stimuli/HF04_SUR.jpg","stimuli/AM03_CC.jpg","stimuli/WM07_AO.jpg","stimuli/WM13_DO.jpg","pos2","stimuli/AM03_CC.jpg","CC","AM03","1","3","6","6","stimuli/stars_6.png","147.5","[""SUR"",""CC"",""AO"",""DO""]","[""HF04"",""AM03"",""WM07"",""WM13""]","[8,6,5,2]","[8,6,4,2]","","",""
"show-reward","108","252511","0.0-108.0","p494369","A1EH9BPKYXFBS5","3OWZNK3RYMVDNXPNEIRWZ8JM6MU2UY","3ZDAD0O1T3J2BKBPS4RG9MM5JSGXTU","model","match","uniform","","","","","","","","252779.60000002384","254790","","","","","","","","","","","","6","","stimuli/stars_6.png","147.5","","","","","stimuli/AM03_CC.jpg","",""
"explore-choice","109","255214","0.0-109.0","p494369","A1EH9BPKYXFBS5","3OWZNK3RYMVDNXPNEIRWZ8JM6MU2UY","3ZDAD0O1T3J2BKBPS4RG9MM5JSGXTU","model","match","uniform","","","","","","","2191.600000023842","254795.10000002384","256986.70000004768","[""stimuli/AM03_AO.jpg"",""stimuli/WM07_SUR.jpg"",""stimuli/WM13_CC.jpg"",""stimuli/HF04_DO.jpg""]","stimuli/AM03_AO.jpg","stimuli/WM07_SUR.jpg","stimuli/WM13_CC.jpg","stimuli/HF04_DO.jpg","pos1","stimuli/AM03_AO.jpg","AO","AM03","0","3","6","6","stimuli/stars_6.png","150.5","[""AO"",""SUR"",""CC"",""DO""]","[""AM03"",""WM07"",""WM13"",""HF04""]","[6,3,2,7]","[6,4,2,8]","","",""
"show-reward","110","257222","0.0-110.0","p494369","A1EH9BPKYXFBS5","3OWZNK3RYMVDNXPNEIRWZ8JM6MU2UY","3ZDAD0O1T3J2BKBPS4RG9MM5JSGXTU","model","match","uniform","","","","","","","","257496.40000009537","259500.60000002384","","","","","","","","","","","","6","","stimuli/stars_6.png","150.5","","","","","stimuli/AM03_AO.jpg","",""
"explore-choice","111","259354","0.0-111.0","p494369","A1EH9BPKYXFBS5","3OWZNK3RYMVDNXPNEIRWZ8JM6MU2UY","3ZDAD0O1T3J2BKBPS4RG9MM5JSGXTU","model","match","uniform","","","","","","","1626.8999999761581","259505.30000007153","261132.20000004768","[""stimuli/AM03_AO.jpg"",""stimuli/WM07_CC.jpg"",""stimuli/WM13_SUR.jpg"",""stimuli/HF04_DO.jpg""]","stimuli/AM03_AO.jpg","stimuli/WM07_CC.jpg","stimuli/WM13_SUR.jpg","stimuli/HF04_DO.jpg","pos2","stimuli/WM07_CC.jpg","CC","WM07","1","1","2","4","stimuli/stars_2.png","151.5","[""AO"",""CC"",""SUR"",""DO""]","[""AM03"",""WM07"",""WM13"",""HF04""]","[5,2,3,8]","[6,4,2,8]","","",""
"show-reward","112","261366","0.0-112.0","p494369","A1EH9BPKYXFBS5","3OWZNK3RYMVDNXPNEIRWZ8JM6MU2UY","3ZDAD0O1T3J2BKBPS4RG9MM5JSGXTU","model","match","uniform","","","","","","","","261636.70000004768","263645.7000000477","","","","","","","","","","","","2","","stimuli/stars_2.png","151.5","","","","","stimuli/WM07_CC.jpg","",""
"explore-choice","113","263727","0.0-113.0","p494369","A1EH9BPKYXFBS5","3OWZNK3RYMVDNXPNEIRWZ8JM6MU2UY","3ZDAD0O1T3J2BKBPS4RG9MM5JSGXTU","model","match","uniform","","","","","","","1841.8999999761581","263648.3000000715","265490.2000000477","[""stimuli/HF04_AO.jpg"",""stimuli/AM03_SUR.jpg"",""stimuli/WM13_CC.jpg"",""stimuli/WM07_DO.jpg""]","stimuli/HF04_AO.jpg","stimuli/AM03_SUR.jpg","stimuli/WM13_CC.jpg","stimuli/WM07_DO.jpg","pos2","stimuli/AM03_SUR.jpg","SUR","AM03","1","2.5","5","6","stimuli/stars_5.png","154","[""AO"",""SUR"",""CC"",""DO""]","[""HF04"",""AM03"",""WM13"",""WM07""]","[8,5,0,2]","[8,6,2,4]","","",""
"show-reward","114","265738","0.0-114.0","p494369","A1EH9BPKYXFBS5","3OWZNK3RYMVDNXPNEIRWZ8JM6MU2UY","3ZDAD0O1T3J2BKBPS4RG9MM5JSGXTU","model","match","uniform","","","","","","","","266011.60000002384","268017.60000002384","","","","","","","","","","","","5","","stimuli/stars_5.png","154","","","","","stimuli/AM03_SUR.jpg","",""
"explore-choice","115","267898","0.0-115.0","p494369","A1EH9BPKYXFBS5","3OWZNK3RYMVDNXPNEIRWZ8JM6MU2UY","3ZDAD0O1T3J2BKBPS4RG9MM5JSGXTU","model","match","uniform","","","","","","","1655.6000000238419","268021.10000002384","269676.7000000477","[""stimuli/WM13_DO.jpg"",""stimuli/AM03_SUR.jpg"",""stimuli/WM07_AO.jpg"",""stimuli/HF04_CC.jpg""]","stimuli/WM13_DO.jpg","stimuli/AM03_SUR.jpg","stimuli/WM07_AO.jpg","stimuli/HF04_CC.jpg","pos1","stimuli/WM13_DO.jpg","DO","WM13","0","0","0","2","stimuli/stars_0.png","154","[""DO"",""SUR"",""AO"",""CC""]","[""WM13"",""AM03"",""WM07"",""HF04""]","[0,5,4,10]","[2,6,4,8]","","",""
"show-reward","116","269921","0.0-116.0","p494369","A1EH9BPKYXFBS5","3OWZNK3RYMVDNXPNEIRWZ8JM6MU2UY","3ZDAD0O1T3J2BKBPS4RG9MM5JSGXTU","model","match","uniform","","","","","","","","270181.60000002384","272200.3000000715","","","","","","","","","","","","0","","stimuli/stars_0.png","154","","","","","stimuli/WM13_DO.jpg","",""
"explore-choice","117","271592","0.0-117.0","p494369","A1EH9BPKYXFBS5","3OWZNK3RYMVDNXPNEIRWZ8JM6MU2UY","3ZDAD0O1T3J2BKBPS4RG9MM5JSGXTU","model","match","uniform","","","","","","","1160.3000000715256","272203.5","273363.8000000715","[""stimuli/WM07_SUR.jpg"",""stimuli/AM03_DO.jpg"",""stimuli/WM13_AO.jpg"",""stimuli/HF04_CC.jpg""]","stimuli/WM07_SUR.jpg","stimuli/AM03_DO.jpg","stimuli/WM13_AO.jpg","stimuli/HF04_CC.jpg","pos4","stimuli/HF04_CC.jpg","CC","HF04","3","3","6","8","stimuli/stars_6.png","157","[""SUR"",""DO"",""AO"",""CC""]","[""WM07"",""AM03"",""WM13"",""HF04""]","[5,6,3,6]","[4,6,2,8]","","",""
"show-reward","118","273612","0.0-118.0","p494369","A1EH9BPKYXFBS5","3OWZNK3RYMVDNXPNEIRWZ8JM6MU2UY","3ZDAD0O1T3J2BKBPS4RG9MM5JSGXTU","model","match","uniform","","","","","","","","273876.10000002384","275892","","","","","","","","","","","","6","","stimuli/stars_6.png","157","","","","","stimuli/HF04_CC.jpg","",""
"explore-choice","119","276339","0.0-119.0","p494369","A1EH9BPKYXFBS5","3OWZNK3RYMVDNXPNEIRWZ8JM6MU2UY","3ZDAD0O1T3J2BKBPS4RG9MM5JSGXTU","model","match","uniform","","","","","","","2216.899999976158","275894.8000000715","278111.7000000477","[""stimuli/HF04_SUR.jpg"",""stimuli/AM03_AO.jpg"",""stimuli/WM07_DO.jpg"",""stimuli/WM13_CC.jpg""]","stimuli/HF04_SUR.jpg","stimuli/AM03_AO.jpg","stimuli/WM07_DO.jpg","stimuli/WM13_CC.jpg","pos1","stimuli/HF04_SUR.jpg","SUR","HF04","0","4.5","9","8","stimuli/stars_9.png","161.5","[""SUR"",""AO"",""DO"",""CC""]","[""HF04"",""AM03"",""WM07"",""WM13""]","[9,6,2,2]","[8,6,4,2]","","",""
"show-reward","120","278349","0.0-120.0","p494369","A1EH9BPKYXFBS5","3OWZNK3RYMVDNXPNEIRWZ8JM6MU2UY","3ZDAD0O1T3J2BKBPS4RG9MM5JSGXTU","model","match","uniform","","","","","","","","278622.60000002384","280628.7000000477","","","","","","","","","","","","9","","stimuli/stars_9.png","161.5","","","","","stimuli/HF04_SUR.jpg","",""
"explore-choice","121","280374","0.0-121.0","p494369","A1EH9BPKYXFBS5","3OWZNK3RYMVDNXPNEIRWZ8JM6MU2UY","3ZDAD0O1T3J2BKBPS4RG9MM5JSGXTU","model","match","uniform","","","","","","","1515.8000000715256","280632.5","282148.3000000715","[""stimuli/AM03_AO.jpg"",""stimuli/WM07_SUR.jpg"",""stimuli/WM13_DO.jpg"",""stimuli/HF04_CC.jpg""]","stimuli/AM03_AO.jpg","stimuli/WM07_SUR.jpg","stimuli/WM13_DO.jpg","stimuli/HF04_CC.jpg","pos4","stimuli/HF04_CC.jpg","CC","HF04","3","3.5","7","8","stimuli/stars_7.png","165","[""AO"",""SUR"",""DO"",""CC""]","[""AM03"",""WM07"",""WM13"",""HF04""]","[4,5,0,7]","[6,4,2,8]","","",""
"show-reward","122","282391","0.0-122.0","p494369","A1EH9BPKYXFBS5","3OWZNK3RYMVDNXPNEIRWZ8JM6MU2UY","3ZDAD0O1T3J2BKBPS4RG9MM5JSGXTU","model","match","uniform","","","","","","","","282656.90000009537","284668.90000009537","","","","","","","","","","","","7","","stimuli/stars_7.png","165","","","","","stimuli/HF04_CC.jpg","",""
"explore-choice","123","284462","0.0-123.0","p494369","A1EH9BPKYXFBS5","3OWZNK3RYMVDNXPNEIRWZ8JM6MU2UY","3ZDAD0O1T3J2BKBPS4RG9MM5JSGXTU","model","match","uniform","","","","","","","1557","284673.8000000715","286230.8000000715","[""stimuli/WM13_SUR.jpg"",""stimuli/HF04_CC.jpg"",""stimuli/AM03_AO.jpg"",""stimuli/WM07_DO.jpg""]","stimuli/WM13_SUR.jpg","stimuli/HF04_CC.jpg","stimuli/AM03_AO.jpg","stimuli/WM07_DO.jpg","pos2","stimuli/HF04_CC.jpg","CC","HF04","1","3.5","7","8","stimuli/stars_7.png","168.5","[""SUR"",""CC"",""AO"",""DO""]","[""WM13"",""HF04"",""AM03"",""WM07""]","[2,7,6,4]","[2,8,6,4]","","",""
"show-reward","124","286476","0.0-124.0","p494369","A1EH9BPKYXFBS5","3OWZNK3RYMVDNXPNEIRWZ8JM6MU2UY","3ZDAD0O1T3J2BKBPS4RG9MM5JSGXTU","model","match","uniform","","","","","","","","286745.2000000477","288756.60000002384","","","","","","","","","","","","7","","stimuli/stars_7.png","168.5","","","","","stimuli/HF04_CC.jpg","",""
"explore-choice","125","288321","0.0-125.0","p494369","A1EH9BPKYXFBS5","3OWZNK3RYMVDNXPNEIRWZ8JM6MU2UY","3ZDAD0O1T3J2BKBPS4RG9MM5JSGXTU","model","match","uniform","","","","","","","1340.8999999761581","288757.8000000715","290098.7000000477","[""stimuli/WM13_AO.jpg"",""stimuli/HF04_DO.jpg"",""stimuli/WM07_CC.jpg"",""stimuli/AM03_SUR.jpg""]","stimuli/WM13_AO.jpg","stimuli/HF04_DO.jpg","stimuli/WM07_CC.jpg","stimuli/AM03_SUR.jpg","pos2","stimuli/HF04_DO.jpg","DO","HF04","1","5","10","8","stimuli/stars_10.png","173.5","[""AO"",""DO"",""CC"",""SUR""]","[""WM13"",""HF04"",""WM07"",""AM03""]","[2,10,6,5]","[2,8,4,6]","","",""
"show-reward","126","290331","0.0-126.0","p494369","A1EH9BPKYXFBS5","3OWZNK3RYMVDNXPNEIRWZ8JM6MU2UY","3ZDAD0O1T3J2BKBPS4RG9MM5JSGXTU","model","match","uniform","","","","","","","","290602.40000009537","292606.60000002384","","","","","","","","","","","","10","","stimuli/stars_10.png","173.5","","","","","stimuli/HF04_DO.jpg","",""
"explore-choice","127","293411","0.0-127.0","p494369","A1EH9BPKYXFBS5","3OWZNK3RYMVDNXPNEIRWZ8JM6MU2UY","3ZDAD0O1T3J2BKBPS4RG9MM5JSGXTU","model","match","uniform","","","","","","","2569.899999976158","292608.40000009537","295178.3000000715","[""stimuli/WM13_AO.jpg"",""stimuli/WM07_CC.jpg"",""stimuli/HF04_SUR.jpg"",""stimuli/AM03_DO.jpg""]","stimuli/WM13_AO.jpg","stimuli/WM07_CC.jpg","stimuli/HF04_SUR.jpg","stimuli/AM03_DO.jpg","pos3","stimuli/HF04_SUR.jpg","SUR","HF04","2","4","8","8","stimuli/stars_8.png","177.5","[""AO"",""CC"",""SUR"",""DO""]","[""WM13"",""WM07"",""HF04"",""AM03""]","[2,2,8,4]","[2,4,8,6]","","",""
"show-reward","128","295423","0.0-128.0","p494369","A1EH9BPKYXFBS5","3OWZNK3RYMVDNXPNEIRWZ8JM6MU2UY","3ZDAD0O1T3J2BKBPS4RG9MM5JSGXTU","model","match","uniform","","","","","","","","295687.60000002384","297698.40000009537","","","","","","","","","","","","8","","stimuli/stars_8.png","177.5","","","","","stimuli/HF04_SUR.jpg","",""
"explore-choice","129","297547","0.0-129.0","p494369","A1EH9BPKYXFBS5","3OWZNK3RYMVDNXPNEIRWZ8JM6MU2UY","3ZDAD0O1T3J2BKBPS4RG9MM5JSGXTU","model","match","uniform","","","","","","","1608.7000000476837","297699.60000002384","299308.3000000715","[""stimuli/HF04_AO.jpg"",""stimuli/WM07_CC.jpg"",""stimuli/AM03_DO.jpg"",""stimuli/WM13_SUR.jpg""]","stimuli/HF04_AO.jpg","stimuli/WM07_CC.jpg","stimuli/AM03_DO.jpg","stimuli/WM13_SUR.jpg","pos3","stimuli/AM03_DO.jpg","DO","AM03","2","3.5","7","6","stimuli/stars_7.png","181","[""AO"",""CC"",""DO"",""SUR""]","[""HF04"",""WM07"",""AM03"",""WM13""]","[8,6,7,4]","[8,4,6,2]","","",""
"show-reward","130","299551","0.0-130.0","p494369","A1EH9BPKYXFBS5","3OWZNK3RYMVDNXPNEIRWZ8JM6MU2UY","3ZDAD0O1T3J2BKBPS4RG9MM5JSGXTU","model","match","uniform","","","","","","","","299823.40000009537","301826.10000002384","","","","","","","","","","","","7","","stimuli/stars_7.png","181","","","","","stimuli/AM03_DO.jpg","",""
"explore-choice","131","301300","0.0-131.0","p494369","A1EH9BPKYXFBS5","3OWZNK3RYMVDNXPNEIRWZ8JM6MU2UY","3ZDAD0O1T3J2BKBPS4RG9MM5JSGXTU","model","match","uniform","","","","","","","1244","301827.60000002384","303071.60000002384","[""stimuli/WM07_DO.jpg"",""stimuli/AM03_CC.jpg"",""stimuli/WM13_AO.jpg"",""stimuli/HF04_SUR.jpg""]","stimuli/WM07_DO.jpg","stimuli/AM03_CC.jpg","stimuli/WM13_AO.jpg","stimuli/HF04_SUR.jpg","pos4","stimuli/HF04_SUR.jpg","SUR","HF04","3","4.5","9","8","stimuli/stars_9.png","185.5","[""DO"",""CC"",""AO"",""SUR""]","[""WM07"",""AM03"",""WM13"",""HF04""]","[2,7,4,9]","[4,6,2,8]","","",""
"show-reward","132","303315","0.0-132.0","p494369","A1EH9BPKYXFBS5","3OWZNK3RYMVDNXPNEIRWZ8JM6MU2UY","3ZDAD0O1T3J2BKBPS4RG9MM5JSGXTU","model","match","uniform","","","","","","","","303576.10000002384","305590.3000000715","","","","","","","","","","","","9","","stimuli/stars_9.png","185.5","","","","","stimuli/HF04_SUR.jpg","",""
"explore-choice","133","305822","0.0-133.0","p494369","A1EH9BPKYXFBS5","3OWZNK3RYMVDNXPNEIRWZ8JM6MU2UY","3ZDAD0O1T3J2BKBPS4RG9MM5JSGXTU","model","match","uniform","","","","","","","2003.6000000238419","305591.5","307595.10000002384","[""stimuli/HF04_DO.jpg"",""stimuli/WM13_AO.jpg"",""stimuli/WM07_SUR.jpg"",""stimuli/AM03_CC.jpg""]","stimuli/HF04_DO.jpg","stimuli/WM13_AO.jpg","stimuli/WM07_SUR.jpg","stimuli/AM03_CC.jpg","pos1","stimuli/HF04_DO.jpg","DO","HF04","0","4","8","8","stimuli/stars_8.png","189.5","[""DO"",""AO"",""SUR"",""CC""]","[""HF04"",""WM13"",""WM07"",""AM03""]","[8,1,2,5]","[8,2,4,6]","","",""
"show-reward","134","307830","0.0-134.0","p494369","A1EH9BPKYXFBS5","3OWZNK3RYMVDNXPNEIRWZ8JM6MU2UY","3ZDAD0O1T3J2BKBPS4RG9MM5JSGXTU","model","match","uniform","","","","","","","","308098.60000002384","310105.2000000477","","","","","","","","","","","","8","","stimuli/stars_8.png","189.5","","","","","stimuli/HF04_DO.jpg","",""
"explore-choice","135","310636","0.0-135.0","p494369","A1EH9BPKYXFBS5","3OWZNK3RYMVDNXPNEIRWZ8JM6MU2UY","3ZDAD0O1T3J2BKBPS4RG9MM5JSGXTU","model","match","uniform","","","","","","","2298.100000023842","310106.3000000715","312404.40000009537","[""stimuli/WM13_CC.jpg"",""stimuli/WM07_SUR.jpg"",""stimuli/HF04_AO.jpg"",""stimuli/AM03_DO.jpg""]","stimuli/WM13_CC.jpg","stimuli/WM07_SUR.jpg","stimuli/HF04_AO.jpg","stimuli/AM03_DO.jpg","pos3","stimuli/HF04_AO.jpg","AO","HF04","2","3","6","8","stimuli/stars_6.png","192.5","[""CC"",""SUR"",""AO"",""DO""]","[""WM13"",""WM07"",""HF04"",""AM03""]","[1,2,6,5]","[2,4,8,6]","","",""
"show-reward","136","312644","0.0-136.0","p494369","A1EH9BPKYXFBS5","3OWZNK3RYMVDNXPNEIRWZ8JM6MU2UY","3ZDAD0O1T3J2BKBPS4RG9MM5JSGXTU","model","match","uniform","","","","","","","","312912.90000009537","314919.5","","","","","","","","","","","","6","","stimuli/stars_6.png","192.5","","","","","stimuli/HF04_AO.jpg","",""
"explore-choice","137","314235","0.0-137.0","p494369","A1EH9BPKYXFBS5","3OWZNK3RYMVDNXPNEIRWZ8JM6MU2UY","3ZDAD0O1T3J2BKBPS4RG9MM5JSGXTU","model","match","uniform","","","","","","","1085.2999999523163","314920.7000000477","316006","[""stimuli/WM13_SUR.jpg"",""stimuli/AM03_CC.jpg"",""stimuli/HF04_DO.jpg"",""stimuli/WM07_AO.jpg""]","stimuli/WM13_SUR.jpg","stimuli/AM03_CC.jpg","stimuli/HF04_DO.jpg","stimuli/WM07_AO.jpg","pos3","stimuli/HF04_DO.jpg","DO","HF04","2","3.5","7","8","stimuli/stars_7.png","196","[""SUR"",""CC"",""DO"",""AO""]","[""WM13"",""AM03"",""HF04"",""WM07""]","[1,5,7,5]","[2,6,8,4]","","",""
"show-reward","138","316241","0.0-138.0","p494369","A1EH9BPKYXFBS5","3OWZNK3RYMVDNXPNEIRWZ8JM6MU2UY","3ZDAD0O1T3J2BKBPS4RG9MM5JSGXTU","model","match","uniform","","","","","","","","316511.10000002384","318516.2000000477","","","","","","","","","","","","7","","stimuli/stars_7.png","196","","","","","stimuli/HF04_DO.jpg","",""
"explore-choice","139","318151","0.0-139.0","p494369","A1EH9BPKYXFBS5","3OWZNK3RYMVDNXPNEIRWZ8JM6MU2UY","3ZDAD0O1T3J2BKBPS4RG9MM5JSGXTU","model","match","uniform","","","","","","","1408.6000000238419","318517.2000000477","319925.8000000715","[""stimuli/AM03_AO.jpg"",""stimuli/WM07_CC.jpg"",""stimuli/HF04_SUR.jpg"",""stimuli/WM13_DO.jpg""]","stimuli/AM03_AO.jpg","stimuli/WM07_CC.jpg","stimuli/HF04_SUR.jpg","stimuli/WM13_DO.jpg","pos3","stimuli/HF04_SUR.jpg","SUR","HF04","2","3.5","7","8","stimuli/stars_7.png","199.5","[""AO"",""CC"",""SUR"",""DO""]","[""AM03"",""WM07"",""HF04"",""WM13""]","[5,5,7,4]","[6,4,8,2]","","",""
"show-reward","140","320159","0.0-140.0","p494369","A1EH9BPKYXFBS5","3OWZNK3RYMVDNXPNEIRWZ8JM6MU2UY","3ZDAD0O1T3J2BKBPS4RG9MM5JSGXTU","model","match","uniform","","","","","","","","320427.60000002384","322434.40000009537","","","","","","","","","","","","7","","stimuli/stars_7.png","199.5","","","","","stimuli/HF04_SUR.jpg","",""
"explore-choice","141","323050","0.0-141.0","p494369","A1EH9BPKYXFBS5","3OWZNK3RYMVDNXPNEIRWZ8JM6MU2UY","3ZDAD0O1T3J2BKBPS4RG9MM5JSGXTU","model","match","uniform","","","","","","","2377.600000023842","322435.5","324813.10000002384","[""stimuli/WM07_DO.jpg"",""stimuli/AM03_CC.jpg"",""stimuli/HF04_AO.jpg"",""stimuli/WM13_SUR.jpg""]","stimuli/WM07_DO.jpg","stimuli/AM03_CC.jpg","stimuli/HF04_AO.jpg","stimuli/WM13_SUR.jpg","pos3","stimuli/HF04_AO.jpg","AO","HF04","2","4.5","9","8","stimuli/stars_9.png","204","[""DO"",""CC"",""AO"",""SUR""]","[""WM07"",""AM03"",""HF04"",""WM13""]","[5,4,9,3]","[4,6,8,2]","","",""
"show-reward","142","325069","0.0-142.0","p494369","A1EH9BPKYXFBS5","3OWZNK3RYMVDNXPNEIRWZ8JM6MU2UY","3ZDAD0O1T3J2BKBPS4RG9MM5JSGXTU","model","match","uniform","","","","","","","","325326.90000009537","327344","","","","","","","","","","","","9","","stimuli/stars_9.png","204","","","","","stimuli/HF04_AO.jpg","",""
"explore-choice","143","327463","0.0-143.0","p494369","A1EH9BPKYXFBS5","3OWZNK3RYMVDNXPNEIRWZ8JM6MU2UY","3ZDAD0O1T3J2BKBPS4RG9MM5JSGXTU","model","match","uniform","","","","","","","1887.7999999523163","327345.2000000477","329233","[""stimuli/WM13_DO.jpg"",""stimuli/HF04_AO.jpg"",""stimuli/WM07_SUR.jpg"",""stimuli/AM03_CC.jpg""]","stimuli/WM13_DO.jpg","stimuli/HF04_AO.jpg","stimuli/WM07_SUR.jpg","stimuli/AM03_CC.jpg","pos2","stimuli/HF04_AO.jpg","AO","HF04","1","3.5","7","8","stimuli/stars_7.png","207.5","[""DO"",""AO"",""SUR"",""CC""]","[""WM13"",""HF04"",""WM07"",""AM03""]","[1,7,2,5]","[2,8,4,6]","","",""
"show-reward","144","329479","0.0-144.0","p494369","A1EH9BPKYXFBS5","3OWZNK3RYMVDNXPNEIRWZ8JM6MU2UY","3ZDAD0O1T3J2BKBPS4RG9MM5JSGXTU","model","match","uniform","","","","","","","","329739.10000002384","331754.7000000477","","","","","","","","","","","","7","","stimuli/stars_7.png","207.5","","","","","stimuli/HF04_AO.jpg","",""
"explore-choice","145","332665","0.0-145.0","p494369","A1EH9BPKYXFBS5","3OWZNK3RYMVDNXPNEIRWZ8JM6MU2UY","3ZDAD0O1T3J2BKBPS4RG9MM5JSGXTU","model","match","uniform","","","","","","","2683.1999999284744","331755.8000000715","334439","[""stimuli/HF04_DO.jpg"",""stimuli/AM03_SUR.jpg"",""stimuli/WM13_CC.jpg"",""stimuli/WM07_AO.jpg""]","stimuli/HF04_DO.jpg","stimuli/AM03_SUR.jpg","stimuli/WM13_CC.jpg","stimuli/WM07_AO.jpg","pos1","stimuli/HF04_DO.jpg","DO","HF04","0","3.5","7","8","stimuli/stars_7.png","211","[""DO"",""SUR"",""CC"",""AO""]","[""HF04"",""AM03"",""WM13"",""WM07""]","[7,8,3,2]","[8,6,2,4]","","",""
"show-reward","146","334676","0.0-146.0","p494369","A1EH9BPKYXFBS5","3OWZNK3RYMVDNXPNEIRWZ8JM6MU2UY","3ZDAD0O1T3J2BKBPS4RG9MM5JSGXTU","model","match","uniform","","","","","","","","334941.40000009537","336951.5","","","","","","","","","","","","7","","stimuli/stars_7.png","211","","","","","stimuli/HF04_DO.jpg","",""
"explore-choice","147","336316","0.0-147.0","p494369","A1EH9BPKYXFBS5","3OWZNK3RYMVDNXPNEIRWZ8JM6MU2UY","3ZDAD0O1T3J2BKBPS4RG9MM5JSGXTU","model","match","uniform","","","","","","","1138.1000000238419","336952.7000000477","338090.8000000715","[""stimuli/WM07_AO.jpg"",""stimuli/HF04_CC.jpg"",""stimuli/AM03_DO.jpg"",""stimuli/WM13_SUR.jpg""]","stimuli/WM07_AO.jpg","stimuli/HF04_CC.jpg","stimuli/AM03_DO.jpg","stimuli/WM13_SUR.jpg","pos2","stimuli/HF04_CC.jpg","CC","HF04","1","5","10","8","stimuli/stars_10.png","216","[""AO"",""CC"",""DO"",""SUR""]","[""WM07"",""HF04"",""AM03"",""WM13""]","[2,10,4,0]","[4,8,6,2]","","",""
"show-reward","148","338320","0.0-148.0","p494369","A1EH9BPKYXFBS5","3OWZNK3RYMVDNXPNEIRWZ8JM6MU2UY","3ZDAD0O1T3J2BKBPS4RG9MM5JSGXTU","model","match","uniform","","","","","","","","338592.90000009537","340595.60000002384","","","","","","","","","","","","10","","stimuli/stars_10.png","216","","","","","stimuli/HF04_CC.jpg","",""
"explore-choice","149","340583","0.0-149.0","p494369","A1EH9BPKYXFBS5","3OWZNK3RYMVDNXPNEIRWZ8JM6MU2UY","3ZDAD0O1T3J2BKBPS4RG9MM5JSGXTU","model","match","uniform","","","","","","","1754.3000000715256","340596.60000002384","342350.90000009537","[""stimuli/WM13_CC.jpg"",""stimuli/AM03_DO.jpg"",""stimuli/WM07_AO.jpg"",""stimuli/HF04_SUR.jpg""]","stimuli/WM13_CC.jpg","stimuli/AM03_DO.jpg","stimuli/WM07_AO.jpg","stimuli/HF04_SUR.jpg","pos4","stimuli/HF04_SUR.jpg","SUR","HF04","3","3.5","7","8","stimuli/stars_7.png","219.5","[""CC"",""DO"",""AO"",""SUR""]","[""WM13"",""AM03"",""WM07"",""HF04""]","[0,5,5,7]","[2,6,4,8]","","",""
"show-reward","150","342588","0.0-150.0","p494369","A1EH9BPKYXFBS5","3OWZNK3RYMVDNXPNEIRWZ8JM6MU2UY","3ZDAD0O1T3J2BKBPS4RG9MM5JSGXTU","model","match","uniform","","","","","","","","342859.3000000715","344863.7000000477","","","","","","","","","","","","7","","stimuli/stars_7.png","219.5","","","","","stimuli/HF04_SUR.jpg","",""
"explore-choice","151","344582","0.0-151.0","p494369","A1EH9BPKYXFBS5","3OWZNK3RYMVDNXPNEIRWZ8JM6MU2UY","3ZDAD0O1T3J2BKBPS4RG9MM5JSGXTU","model","match","uniform","","","","","","","1489.3999999761581","344864.90000009537","346354.3000000715","[""stimuli/WM07_SUR.jpg"",""stimuli/WM13_CC.jpg"",""stimuli/HF04_AO.jpg"",""stimuli/AM03_DO.jpg""]","stimuli/WM07_SUR.jpg","stimuli/WM13_CC.jpg","stimuli/HF04_AO.jpg","stimuli/AM03_DO.jpg","pos3","stimuli/HF04_AO.jpg","AO","HF04","2","3","6","8","stimuli/stars_6.png","222.5","[""SUR"",""CC"",""AO"",""DO""]","[""WM07"",""WM13"",""HF04"",""AM03""]","[2,1,6,5]","[4,2,8,6]","","",""
"show-reward","152","346596","0.0-152.0","p494369","A1EH9BPKYXFBS5","3OWZNK3RYMVDNXPNEIRWZ8JM6MU2UY","3ZDAD0O1T3J2BKBPS4RG9MM5JSGXTU","model","match","uniform","","","","","","","","346858.2000000477","348871.3000000715","","","","","","","","","","","","6","","stimuli/stars_6.png","222.5","","","","","stimuli/HF04_AO.jpg","",""
"explore-choice","153","348436","0.0-153.0","p494369","A1EH9BPKYXFBS5","3OWZNK3RYMVDNXPNEIRWZ8JM6MU2UY","3ZDAD0O1T3J2BKBPS4RG9MM5JSGXTU","model","match","uniform","","","","","","","1332.6000000238419","348872.2000000477","350204.8000000715","[""stimuli/WM07_AO.jpg"",""stimuli/HF04_SUR.jpg"",""stimuli/AM03_DO.jpg"",""stimuli/WM13_CC.jpg""]","stimuli/WM07_AO.jpg","stimuli/HF04_SUR.jpg","stimuli/AM03_DO.jpg","stimuli/WM13_CC.jpg","pos2","stimuli/HF04_SUR.jpg","SUR","HF04","1","3.5","7","8","stimuli/stars_7.png","226","[""AO"",""SUR"",""DO"",""CC""]","[""WM07"",""HF04"",""AM03"",""WM13""]","[5,7,5,0]","[4,8,6,2]","","",""
"show-reward","154","350440","0.0-154.0","p494369","A1EH9BPKYXFBS5","3OWZNK3RYMVDNXPNEIRWZ8JM6MU2UY","3ZDAD0O1T3J2BKBPS4RG9MM5JSGXTU","model","match","uniform","","","","","","","","350713","352715.2000000477","","","","","","","","","","","","7","","stimuli/stars_7.png","226","","","","","stimuli/HF04_SUR.jpg","",""
"explore-choice","155","352417","0.0-155.0","p494369","A1EH9BPKYXFBS5","3OWZNK3RYMVDNXPNEIRWZ8JM6MU2UY","3ZDAD0O1T3J2BKBPS4RG9MM5JSGXTU","model","match","uniform","","","","","","","1471.3999999761581","352716.2000000477","354187.60000002384","[""stimuli/WM13_AO.jpg"",""stimuli/WM07_DO.jpg"",""stimuli/AM03_CC.jpg"",""stimuli/HF04_SUR.jpg""]","stimuli/WM13_AO.jpg","stimuli/WM07_DO.jpg","stimuli/AM03_CC.jpg","stimuli/HF04_SUR.jpg","pos4","stimuli/HF04_SUR.jpg","SUR","HF04","3","4.5","9","8","stimuli/stars_9.png","230.5","[""AO"",""DO"",""CC"",""SUR""]","[""WM13"",""WM07"",""AM03"",""HF04""]","[4,2,7,9]","[2,4,6,8]","","",""
"show-reward","156","354432","0.0-156.0","p494369","A1EH9BPKYXFBS5","3OWZNK3RYMVDNXPNEIRWZ8JM6MU2UY","3ZDAD0O1T3J2BKBPS4RG9MM5JSGXTU","model","match","uniform","","","","","","","","354693.60000002384","356706.90000009537","","","","","","","","","","","","9","","stimuli/stars_9.png","230.5","","","","","stimuli/HF04_SUR.jpg","",""
"explore-choice","157","355986","0.0-157.0","p494369","A1EH9BPKYXFBS5","3OWZNK3RYMVDNXPNEIRWZ8JM6MU2UY","3ZDAD0O1T3J2BKBPS4RG9MM5JSGXTU","model","match","uniform","","","","","","","1046.8000000715256","356708","357754.8000000715","[""stimuli/AM03_DO.jpg"",""stimuli/WM07_CC.jpg"",""stimuli/WM13_AO.jpg"",""stimuli/HF04_SUR.jpg""]","stimuli/AM03_DO.jpg","stimuli/WM07_CC.jpg","stimuli/WM13_AO.jpg","stimuli/HF04_SUR.jpg","pos4","stimuli/HF04_SUR.jpg","SUR","HF04","3","4","8","8","stimuli/stars_8.png","234.5","[""DO"",""CC"",""AO"",""SUR""]","[""AM03"",""WM07"",""WM13"",""HF04""]","[4,2,2,8]","[6,4,2,8]","","",""
"show-reward","158","357993","0.0-158.0","p494369","A1EH9BPKYXFBS5","3OWZNK3RYMVDNXPNEIRWZ8JM6MU2UY","3ZDAD0O1T3J2BKBPS4RG9MM5JSGXTU","model","match","uniform","","","","","","","","358262.10000002384","360268.40000009537","","","","","","","","","","","","8","","stimuli/stars_8.png","234.5","","","","","stimuli/HF04_SUR.jpg","",""
"explore-choice","159","360063","0.0-159.0","p494369","A1EH9BPKYXFBS5","3OWZNK3RYMVDNXPNEIRWZ8JM6MU2UY","3ZDAD0O1T3J2BKBPS4RG9MM5JSGXTU","model","match","uniform","","","","","","","1566.1999999284744","360269.3000000715","361835.5","[""stimuli/WM13_DO.jpg"",""stimuli/HF04_CC.jpg"",""stimuli/WM07_AO.jpg"",""stimuli/AM03_SUR.jpg""]","stimuli/WM13_DO.jpg","stimuli/HF04_CC.jpg","stimuli/WM07_AO.jpg","stimuli/AM03_SUR.jpg","pos2","stimuli/HF04_CC.jpg","CC","HF04","1","5","10","8","stimuli/stars_10.png","239.5","[""DO"",""CC"",""AO"",""SUR""]","[""WM13"",""HF04"",""WM07"",""AM03""]","[0,10,4,5]","[2,8,4,6]","","",""
"show-reward","160","362072","0.0-160.0","p494369","A1EH9BPKYXFBS5","3OWZNK3RYMVDNXPNEIRWZ8JM6MU2UY","3ZDAD0O1T3J2BKBPS4RG9MM5JSGXTU","model","match","uniform","","","","","","","","362339.3000000715","364347.8000000715","","","","","","","","","","","","10","","stimuli/stars_10.png","239.5","","","","","stimuli/HF04_CC.jpg","",""
"explore-choice","161","364958","0.0-161.0","p494369","A1EH9BPKYXFBS5","3OWZNK3RYMVDNXPNEIRWZ8JM6MU2UY","3ZDAD0O1T3J2BKBPS4RG9MM5JSGXTU","model","match","uniform","","","","","","","2378.6999999284744","364348.8000000715","366727.5","[""stimuli/HF04_DO.jpg"",""stimuli/WM13_SUR.jpg"",""stimuli/WM07_CC.jpg"",""stimuli/AM03_AO.jpg""]","stimuli/HF04_DO.jpg","stimuli/WM13_SUR.jpg","stimuli/WM07_CC.jpg","stimuli/AM03_AO.jpg","pos1","stimuli/HF04_DO.jpg","DO","HF04","0","4","8","8","stimuli/stars_8.png","243.5","[""DO"",""SUR"",""CC"",""AO""]","[""HF04"",""WM13"",""WM07"",""AM03""]","[8,3,2,5]","[8,2,4,6]","","",""
"show-reward","162","366967","0.0-162.0","p494369","A1EH9BPKYXFBS5","3OWZNK3RYMVDNXPNEIRWZ8JM6MU2UY","3ZDAD0O1T3J2BKBPS4RG9MM5JSGXTU","model","match","uniform","","","","","","","","367234.3000000715","369242","","","","","","","","","","","","8","","stimuli/stars_8.png","243.5","","","","","stimuli/HF04_DO.jpg","",""
"explore-choice","163","369090","0.0-163.0","p494369","A1EH9BPKYXFBS5","3OWZNK3RYMVDNXPNEIRWZ8JM6MU2UY","3ZDAD0O1T3J2BKBPS4RG9MM5JSGXTU","model","match","uniform","","","","","","","1615.6000000238419","369243.5","370859.10000002384","[""stimuli/WM13_AO.jpg"",""stimuli/AM03_DO.jpg"",""stimuli/WM07_SUR.jpg"",""stimuli/HF04_CC.jpg""]","stimuli/WM13_AO.jpg","stimuli/AM03_DO.jpg","stimuli/WM07_SUR.jpg","stimuli/HF04_CC.jpg","pos4","stimuli/HF04_CC.jpg","CC","HF04","3","3","6","8","stimuli/stars_6.png","246.5","[""AO"",""DO"",""SUR"",""CC""]","[""WM13"",""AM03"",""WM07"",""HF04""]","[3,6,5,6]","[2,6,4,8]","","",""
"show-reward","164","371107","0.0-164.0","p494369","A1EH9BPKYXFBS5","3OWZNK3RYMVDNXPNEIRWZ8JM6MU2UY","3ZDAD0O1T3J2BKBPS4RG9MM5JSGXTU","model","match","uniform","","","","","","","","371366.10000002384","373381.90000009537","","","","","","","","","","","","6","","stimuli/stars_6.png","246.5","","","","","stimuli/HF04_CC.jpg","",""
"explore-choice","165","372614","0.0-165.0","p494369","A1EH9BPKYXFBS5","3OWZNK3RYMVDNXPNEIRWZ8JM6MU2UY","3ZDAD0O1T3J2BKBPS4RG9MM5JSGXTU","model","match","uniform","","","","","","","998.2999999523163","373382.90000009537","374381.2000000477","[""stimuli/WM13_DO.jpg"",""stimuli/HF04_SUR.jpg"",""stimuli/WM07_AO.jpg"",""stimuli/AM03_CC.jpg""]","stimuli/WM13_DO.jpg","stimuli/HF04_SUR.jpg","stimuli/WM07_AO.jpg","stimuli/AM03_CC.jpg","pos2","stimuli/HF04_SUR.jpg","SUR","HF04","1","4","8","8","stimuli/stars_8.png","250.5","[""DO"",""SUR"",""AO"",""CC""]","[""WM13"",""HF04"",""WM07"",""AM03""]","[2,8,5,6]","[2,8,4,6]","","",""
"show-reward","166","374625","0.0-166.0","p494369","A1EH9BPKYXFBS5","3OWZNK3RYMVDNXPNEIRWZ8JM6MU2UY","3ZDAD0O1T3J2BKBPS4RG9MM5JSGXTU","model","match","uniform","","","","","","","","374890.3000000715","376900.60000002384","","","","","","","","","","","","8","","stimuli/stars_8.png","250.5","","","","","stimuli/HF04_SUR.jpg","",""
"explore-choice","167","376149","0.0-167.0","p494369","A1EH9BPKYXFBS5","3OWZNK3RYMVDNXPNEIRWZ8JM6MU2UY","3ZDAD0O1T3J2BKBPS4RG9MM5JSGXTU","model","match","uniform","","","","","","","1017.7999999523163","376901.7000000477","377919.5","[""stimuli/WM07_SUR.jpg"",""stimuli/AM03_AO.jpg"",""stimuli/WM13_DO.jpg"",""stimuli/HF04_CC.jpg""]","stimuli/WM07_SUR.jpg","stimuli/AM03_AO.jpg","stimuli/WM13_DO.jpg","stimuli/HF04_CC.jpg","pos4","stimuli/HF04_CC.jpg","CC","HF04","3","3.5","7","8","stimuli/stars_7.png","254","[""SUR"",""AO"",""DO"",""CC""]","[""WM07"",""AM03"",""WM13"",""HF04""]","[5,4,0,7]","[4,6,2,8]","","",""
"show-reward","168","378159","0.0-168.0","p494369","A1EH9BPKYXFBS5","3OWZNK3RYMVDNXPNEIRWZ8JM6MU2UY","3ZDAD0O1T3J2BKBPS4RG9MM5JSGXTU","model","match","uniform","","","","","","","","378425.5","380433.90000009537","","","","","","","","","","","","7","","stimuli/stars_7.png","254","","","","","stimuli/HF04_CC.jpg","",""
"explore-choice","169","380255","0.0-169.0","p494369","A1EH9BPKYXFBS5","3OWZNK3RYMVDNXPNEIRWZ8JM6MU2UY","3ZDAD0O1T3J2BKBPS4RG9MM5JSGXTU","model","match","uniform","","","","","","","1592","380435.2000000477","382027.2000000477","[""stimuli/WM07_CC.jpg"",""stimuli/WM13_DO.jpg"",""stimuli/HF04_SUR.jpg"",""stimuli/AM03_AO.jpg""]","stimuli/WM07_CC.jpg","stimuli/WM13_DO.jpg","stimuli/HF04_SUR.jpg","stimuli/AM03_AO.jpg","pos3","stimuli/HF04_SUR.jpg","SUR","HF04","2","3.5","7","8","stimuli/stars_7.png","257.5","[""CC"",""DO"",""SUR"",""AO""]","[""WM07"",""WM13"",""HF04"",""AM03""]","[5,4,7,5]","[4,2,8,6]","","",""
"show-reward","170","382274","0.0-170.0","p494369","A1EH9BPKYXFBS5","3OWZNK3RYMVDNXPNEIRWZ8JM6MU2UY","3ZDAD0O1T3J2BKBPS4RG9MM5JSGXTU","model","match","uniform","","","","","","","","382532.40000009537","384549.10000002384","","","","","","","","","","","","7","","stimuli/stars_7.png","257.5","","","","","stimuli/HF04_SUR.jpg","",""
"explore-choice","171","383724","0.0-171.0","p494369","A1EH9BPKYXFBS5","3OWZNK3RYMVDNXPNEIRWZ8JM6MU2UY","3ZDAD0O1T3J2BKBPS4RG9MM5JSGXTU","model","match","uniform","","","","","","","944.7000000476837","384550.2000000477","385494.90000009537","[""stimuli/WM13_SUR.jpg"",""stimuli/HF04_AO.jpg"",""stimuli/WM07_CC.jpg"",""stimuli/AM03_DO.jpg""]","stimuli/WM13_SUR.jpg","stimuli/HF04_AO.jpg","stimuli/WM07_CC.jpg","stimuli/AM03_DO.jpg","pos4","stimuli/AM03_DO.jpg","DO","AM03","3","3.5","7","6","stimuli/stars_7.png","261","[""SUR"",""AO"",""CC"",""DO""]","[""WM13"",""HF04"",""WM07"",""AM03""]","[4,8,6,7]","[2,8,4,6]","","",""
"show-reward","172","385738","0.0-172.0","p494369","A1EH9BPKYXFBS5","3OWZNK3RYMVDNXPNEIRWZ8JM6MU2UY","3ZDAD0O1T3J2BKBPS4RG9MM5JSGXTU","model","match","uniform","","","","","","","","386000.2000000477","388013","","","","","","","","","","","","7","","stimuli/stars_7.png","261","","","","","stimuli/AM03_DO.jpg","",""
"explore-choice","173","387475","0.0-173.0","p494369","A1EH9BPKYXFBS5","3OWZNK3RYMVDNXPNEIRWZ8JM6MU2UY","3ZDAD0O1T3J2BKBPS4RG9MM5JSGXTU","model","match","uniform","","","","","","","1235.3999999761581","388014.10000002384","389249.5","[""stimuli/HF04_CC.jpg"",""stimuli/AM03_DO.jpg"",""stimuli/WM07_AO.jpg"",""stimuli/WM13_SUR.jpg""]","stimuli/HF04_CC.jpg","stimuli/AM03_DO.jpg","stimuli/WM07_AO.jpg","stimuli/WM13_SUR.jpg","pos2","stimuli/AM03_DO.jpg","DO","AM03","1","2","4","6","stimuli/stars_4.png","263","[""CC"",""DO"",""AO"",""SUR""]","[""HF04"",""AM03"",""WM07"",""WM13""]","[10,4,2,0]","[8,6,4,2]","","",""
"show-reward","174","389484","0.0-174.0","p494369","A1EH9BPKYXFBS5","3OWZNK3RYMVDNXPNEIRWZ8JM6MU2UY","3ZDAD0O1T3J2BKBPS4RG9MM5JSGXTU","model","match","uniform","","","","","","","","389752.10000002384","391759.10000002384","","","","","","","","","","","","4","","stimuli/stars_4.png","263","","","","","stimuli/AM03_DO.jpg","",""
"explore-choice","175","391359","0.0-175.0","p494369","A1EH9BPKYXFBS5","3OWZNK3RYMVDNXPNEIRWZ8JM6MU2UY","3ZDAD0O1T3J2BKBPS4RG9MM5JSGXTU","model","match","uniform","","","","","","","1372.3000000715256","391760.10000002384","393132.40000009537","[""stimuli/HF04_DO.jpg"",""stimuli/AM03_SUR.jpg"",""stimuli/WM13_CC.jpg"",""stimuli/WM07_AO.jpg""]","stimuli/HF04_DO.jpg","stimuli/AM03_SUR.jpg","stimuli/WM13_CC.jpg","stimuli/WM07_AO.jpg","pos1","stimuli/HF04_DO.jpg","DO","HF04","0","3.5","7","8","stimuli/stars_7.png","266.5","[""DO"",""SUR"",""CC"",""AO""]","[""HF04"",""AM03"",""WM13"",""WM07""]","[7,8,3,2]","[8,6,2,4]","","",""
"show-reward","176","393364","0.0-176.0","p494369","A1EH9BPKYXFBS5","3OWZNK3RYMVDNXPNEIRWZ8JM6MU2UY","3ZDAD0O1T3J2BKBPS4RG9MM5JSGXTU","model","match","uniform","","","","","","","","393635.7000000477","395639.60000002384","","","","","","","","","","","","7","","stimuli/stars_7.png","266.5","","","","","stimuli/HF04_DO.jpg","",""
"explore-choice","177","396332","0.0-177.0","p494369","A1EH9BPKYXFBS5","3OWZNK3RYMVDNXPNEIRWZ8JM6MU2UY","3ZDAD0O1T3J2BKBPS4RG9MM5JSGXTU","model","match","uniform","","","","","","","2463.2000000476837","395641.10000002384","398104.3000000715","[""stimuli/WM07_DO.jpg"",""stimuli/HF04_CC.jpg"",""stimuli/AM03_SUR.jpg"",""stimuli/WM13_AO.jpg""]","stimuli/WM07_DO.jpg","stimuli/HF04_CC.jpg","stimuli/AM03_SUR.jpg","stimuli/WM13_AO.jpg","pos2","stimuli/HF04_CC.jpg","CC","HF04","1","4.5","9","8","stimuli/stars_9.png","271","[""DO"",""CC"",""SUR"",""AO""]","[""WM07"",""HF04"",""AM03"",""WM13""]","[6,9,7,1]","[4,8,6,2]","","",""
"show-reward","178","398350","0.0-178.0","p494369","A1EH9BPKYXFBS5","3OWZNK3RYMVDNXPNEIRWZ8JM6MU2UY","3ZDAD0O1T3J2BKBPS4RG9MM5JSGXTU","model","match","uniform","","","","","","","","398608.5","400625.7000000477","","","","","","","","","","","","9","","stimuli/stars_9.png","271","","","","","stimuli/HF04_CC.jpg","",""
"explore-choice","179","401485","0.0-179.0","p494369","A1EH9BPKYXFBS5","3OWZNK3RYMVDNXPNEIRWZ8JM6MU2UY","3ZDAD0O1T3J2BKBPS4RG9MM5JSGXTU","model","match","uniform","","","","","","","2630.600000023842","400627.2000000477","403257.8000000715","[""stimuli/AM03_CC.jpg"",""stimuli/WM13_SUR.jpg"",""stimuli/HF04_AO.jpg"",""stimuli/WM07_DO.jpg""]","stimuli/AM03_CC.jpg","stimuli/WM13_SUR.jpg","stimuli/HF04_AO.jpg","stimuli/WM07_DO.jpg","pos3","stimuli/HF04_AO.jpg","AO","HF04","2","4.5","9","8","stimuli/stars_9.png","275.5","[""CC"",""SUR"",""AO"",""DO""]","[""AM03"",""WM13"",""HF04"",""WM07""]","[4,3,9,5]","[6,2,8,4]","","",""
"show-reward","180","403519","0.0-180.0","p494369","A1EH9BPKYXFBS5","3OWZNK3RYMVDNXPNEIRWZ8JM6MU2UY","3ZDAD0O1T3J2BKBPS4RG9MM5JSGXTU","model","match","uniform","","","","","","","","403761.60000002384","405794.5","","","","","","","","","","","","9","","stimuli/stars_9.png","275.5","","","","","stimuli/HF04_AO.jpg","",""
"explore-choice","181","405053","0.0-181.0","p494369","A1EH9BPKYXFBS5","3OWZNK3RYMVDNXPNEIRWZ8JM6MU2UY","3ZDAD0O1T3J2BKBPS4RG9MM5JSGXTU","model","match","uniform","","","","","","","1001.4000000953674","405822","406823.40000009537","[""stimuli/WM07_SUR.jpg"",""stimuli/WM13_AO.jpg"",""stimuli/HF04_DO.jpg"",""stimuli/AM03_CC.jpg""]","stimuli/WM07_SUR.jpg","stimuli/WM13_AO.jpg","stimuli/HF04_DO.jpg","stimuli/AM03_CC.jpg","pos3","stimuli/HF04_DO.jpg","DO","HF04","2","4","8","8","stimuli/stars_8.png","279.5","[""SUR"",""AO"",""DO"",""CC""]","[""WM07"",""WM13"",""HF04"",""AM03""]","[2,1,8,5]","[4,2,8,6]","","",""
"show-reward","182","407070","0.0-182.0","p494369","A1EH9BPKYXFBS5","3OWZNK3RYMVDNXPNEIRWZ8JM6MU2UY","3ZDAD0O1T3J2BKBPS4RG9MM5JSGXTU","model","match","uniform","","","","","","","","407329.8000000715","409344","","","","","","","","","","","","8","","stimuli/stars_8.png","279.5","","","","","stimuli/HF04_DO.jpg","",""
"explore-choice","183","408488","0.0-183.0","p494369","A1EH9BPKYXFBS5","3OWZNK3RYMVDNXPNEIRWZ8JM6MU2UY","3ZDAD0O1T3J2BKBPS4RG9MM5JSGXTU","model","match","uniform","","","","","","","908.8000000715256","409346.60000002384","410255.40000009537","[""stimuli/WM13_SUR.jpg"",""stimuli/AM03_CC.jpg"",""stimuli/HF04_DO.jpg"",""stimuli/WM07_AO.jpg""]","stimuli/WM13_SUR.jpg","stimuli/AM03_CC.jpg","stimuli/HF04_DO.jpg","stimuli/WM07_AO.jpg","pos3","stimuli/HF04_DO.jpg","DO","HF04","2","3.5","7","8","stimuli/stars_7.png","283","[""SUR"",""CC"",""DO"",""AO""]","[""WM13"",""AM03"",""HF04"",""WM07""]","[1,5,7,5]","[2,6,8,4]","","",""
"show-reward","184","410502","0.0-184.0","p494369","A1EH9BPKYXFBS5","3OWZNK3RYMVDNXPNEIRWZ8JM6MU2UY","3ZDAD0O1T3J2BKBPS4RG9MM5JSGXTU","model","match","uniform","","","","","","","","410765","412777.8000000715","","","","","","","","","","","","7","","stimuli/stars_7.png","283","","","","","stimuli/HF04_DO.jpg","",""
"explore-choice","185","412351","0.0-185.0","p494369","A1EH9BPKYXFBS5","3OWZNK3RYMVDNXPNEIRWZ8JM6MU2UY","3ZDAD0O1T3J2BKBPS4RG9MM5JSGXTU","model","match","uniform","","","","","","","1346.7999999523163","412778.8000000715","414125.60000002384","[""stimuli/AM03_AO.jpg"",""stimuli/HF04_DO.jpg"",""stimuli/WM13_CC.jpg"",""stimuli/WM07_SUR.jpg""]","stimuli/AM03_AO.jpg","stimuli/HF04_DO.jpg","stimuli/WM13_CC.jpg","stimuli/WM07_SUR.jpg","pos2","stimuli/HF04_DO.jpg","DO","HF04","1","3.5","7","8","stimuli/stars_7.png","286.5","[""AO"",""DO"",""CC"",""SUR""]","[""AM03"",""HF04"",""WM13"",""WM07""]","[6,7,2,3]","[6,8,2,4]","","",""
"show-reward","186","414360","0.0-186.0","p494369","A1EH9BPKYXFBS5","3OWZNK3RYMVDNXPNEIRWZ8JM6MU2UY","3ZDAD0O1T3J2BKBPS4RG9MM5JSGXTU","model","match","uniform","","","","","","","","414627.40000009537","416635.60000002384","","","","","","","","","","","","7","","stimuli/stars_7.png","286.5","","","","","stimuli/HF04_DO.jpg","",""
"explore-choice","187","416667","0.0-187.0","p494369","A1EH9BPKYXFBS5","3OWZNK3RYMVDNXPNEIRWZ8JM6MU2UY","3ZDAD0O1T3J2BKBPS4RG9MM5JSGXTU","model","match","uniform","","","","","","","1795.8999999761581","416636.7000000477","418432.60000002384","[""stimuli/WM13_CC.jpg"",""stimuli/AM03_SUR.jpg"",""stimuli/WM07_DO.jpg"",""stimuli/HF04_AO.jpg""]","stimuli/WM13_CC.jpg","stimuli/AM03_SUR.jpg","stimuli/WM07_DO.jpg","stimuli/HF04_AO.jpg","pos4","stimuli/HF04_AO.jpg","AO","HF04","3","4","8","8","stimuli/stars_8.png","290.5","[""CC"",""SUR"",""DO"",""AO""]","[""WM13"",""AM03"",""WM07"",""HF04""]","[0,5,2,8]","[2,6,4,8]","","",""
"show-reward","188","418682","0.0-188.0","p494369","A1EH9BPKYXFBS5","3OWZNK3RYMVDNXPNEIRWZ8JM6MU2UY","3ZDAD0O1T3J2BKBPS4RG9MM5JSGXTU","model","match","uniform","","","","","","","","418944.40000009537","420956.7000000477","","","","","","","","","","","","8","","stimuli/stars_8.png","290.5","","","","","stimuli/HF04_AO.jpg","",""
"explore-choice","189","420555","0.0-189.0","p494369","A1EH9BPKYXFBS5","3OWZNK3RYMVDNXPNEIRWZ8JM6MU2UY","3ZDAD0O1T3J2BKBPS4RG9MM5JSGXTU","model","match","uniform","","","","","","","1368.1000000238419","420959.8000000715","422327.90000009537","[""stimuli/HF04_AO.jpg"",""stimuli/WM13_DO.jpg"",""stimuli/AM03_CC.jpg"",""stimuli/WM07_SUR.jpg""]","stimuli/HF04_AO.jpg","stimuli/WM13_DO.jpg","stimuli/AM03_CC.jpg","stimuli/WM07_SUR.jpg","pos1","stimuli/HF04_AO.jpg","AO","HF04","0","3.5","7","8","stimuli/stars_7.png","294","[""AO"",""DO"",""CC"",""SUR""]","[""HF04"",""WM13"",""AM03"",""WM07""]","[7,1,5,2]","[8,2,6,4]","","",""
"show-reward","190","422578","0.0-190.0","p494369","A1EH9BPKYXFBS5","3OWZNK3RYMVDNXPNEIRWZ8JM6MU2UY","3ZDAD0O1T3J2BKBPS4RG9MM5JSGXTU","model","match","uniform","","","","","","","","422832.90000009537","424852.2000000477","","","","","","","","","","","","7","","stimuli/stars_7.png","294","","","","","stimuli/HF04_AO.jpg","",""
"explore-choice","191","424437","0.0-191.0","p494369","A1EH9BPKYXFBS5","3OWZNK3RYMVDNXPNEIRWZ8JM6MU2UY","3ZDAD0O1T3J2BKBPS4RG9MM5JSGXTU","model","match","uniform","","","","","","","1350.7999999523163","424856.40000009537","426207.2000000477","[""stimuli/AM03_SUR.jpg"",""stimuli/WM13_DO.jpg"",""stimuli/HF04_AO.jpg"",""stimuli/WM07_CC.jpg""]","stimuli/AM03_SUR.jpg","stimuli/WM13_DO.jpg","stimuli/HF04_AO.jpg","stimuli/WM07_CC.jpg","pos3","stimuli/HF04_AO.jpg","AO","HF04","2","3","6","8","stimuli/stars_6.png","297","[""SUR"",""DO"",""AO"",""CC""]","[""AM03"",""WM13"",""HF04"",""WM07""]","[7,2,6,6]","[6,2,8,4]","","",""
"show-reward","192","426440","0.0-192.0","p494369","A1EH9BPKYXFBS5","3OWZNK3RYMVDNXPNEIRWZ8JM6MU2UY","3ZDAD0O1T3J2BKBPS4RG9MM5JSGXTU","model","match","uniform","","","","","","","","426713.40000009537","428715.8000000715","","","","","","","","","","","","6","","stimuli/stars_6.png","297","","","","","stimuli/HF04_AO.jpg","",""
"explore-choice","193","427859","0.0-193.0","p494369","A1EH9BPKYXFBS5","3OWZNK3RYMVDNXPNEIRWZ8JM6MU2UY","3ZDAD0O1T3J2BKBPS4RG9MM5JSGXTU","model","match","uniform","","","","","","","910.7999999523163","428716.8000000715","429627.60000002384","[""stimuli/AM03_AO.jpg"",""stimuli/WM13_SUR.jpg"",""stimuli/HF04_CC.jpg"",""stimuli/WM07_DO.jpg""]","stimuli/AM03_AO.jpg","stimuli/WM13_SUR.jpg","stimuli/HF04_CC.jpg","stimuli/WM07_DO.jpg","pos3","stimuli/HF04_CC.jpg","CC","HF04","2","3.5","7","8","stimuli/stars_7.png","300.5","[""AO"",""SUR"",""CC"",""DO""]","[""AM03"",""WM13"",""HF04"",""WM07""]","[6,2,7,4]","[6,2,8,4]","","",""
"show-reward","194","429873","0.0-194.0","p494369","A1EH9BPKYXFBS5","3OWZNK3RYMVDNXPNEIRWZ8JM6MU2UY","3ZDAD0O1T3J2BKBPS4RG9MM5JSGXTU","model","match","uniform","","","","","","","","430136.90000009537","432148","","","","","","","","","","","","7","","stimuli/stars_7.png","300.5","","","","","stimuli/HF04_CC.jpg","",""
"explore-choice","195","431901","0.0-195.0","p494369","A1EH9BPKYXFBS5","3OWZNK3RYMVDNXPNEIRWZ8JM6MU2UY","3ZDAD0O1T3J2BKBPS4RG9MM5JSGXTU","model","match","uniform","","","","","","","1516.3999999761581","432149.8000000715","433666.2000000477","[""stimuli/WM13_CC.jpg"",""stimuli/WM07_DO.jpg"",""stimuli/AM03_AO.jpg"",""stimuli/HF04_SUR.jpg""]","stimuli/WM13_CC.jpg","stimuli/WM07_DO.jpg","stimuli/AM03_AO.jpg","stimuli/HF04_SUR.jpg","pos4","stimuli/HF04_SUR.jpg","SUR","HF04","3","4.5","9","8","stimuli/stars_9.png","305","[""CC"",""DO"",""AO"",""SUR""]","[""WM13"",""WM07"",""AM03"",""HF04""]","[2,2,6,9]","[2,4,6,8]","","",""
"show-reward","196","433917","0.0-196.0","p494369","A1EH9BPKYXFBS5","3OWZNK3RYMVDNXPNEIRWZ8JM6MU2UY","3ZDAD0O1T3J2BKBPS4RG9MM5JSGXTU","model","match","uniform","","","","","","","","434180.10000002384","436190.5","","","","","","","","","","","","9","","stimuli/stars_9.png","305","","","","","stimuli/HF04_SUR.jpg","",""
"explore-choice","197","436636","0.0-197.0","p494369","A1EH9BPKYXFBS5","3OWZNK3RYMVDNXPNEIRWZ8JM6MU2UY","3ZDAD0O1T3J2BKBPS4RG9MM5JSGXTU","model","match","uniform","","","","","","","2206.899999976158","436194.8000000715","438401.7000000477","[""stimuli/WM07_CC.jpg"",""stimuli/AM03_SUR.jpg"",""stimuli/WM13_AO.jpg"",""stimuli/HF04_DO.jpg""]","stimuli/WM07_CC.jpg","stimuli/AM03_SUR.jpg","stimuli/WM13_AO.jpg","stimuli/HF04_DO.jpg","pos4","stimuli/HF04_DO.jpg","DO","HF04","3","5","10","8","stimuli/stars_10.png","310","[""CC"",""SUR"",""AO"",""DO""]","[""WM07"",""AM03"",""WM13"",""HF04""]","[6,5,2,10]","[4,6,2,8]","","",""
"show-reward","198","438646","0.0-198.0","p494369","A1EH9BPKYXFBS5","3OWZNK3RYMVDNXPNEIRWZ8JM6MU2UY","3ZDAD0O1T3J2BKBPS4RG9MM5JSGXTU","model","match","uniform","","","","","","","","438914.10000002384","440919.90000009537","","","","","","","","","","","","10","","stimuli/stars_10.png","310","","","","","stimuli/HF04_DO.jpg","",""
"instructions","199","444157","0.0-199.0","p494369","A1EH9BPKYXFBS5","3OWZNK3RYMVDNXPNEIRWZ8JM6MU2UY","3ZDAD0O1T3J2BKBPS4RG9MM5JSGXTU","model","match","uniform","","","","","","[{""page_index"":0,""viewing_time"":5508.699999928474}]","5509.699999928474","","","","","","","","","","","","","","","","","","","","","","","",""
"survey-text","200","449952","0.0-200.0-0.0","p494369","A1EH9BPKYXFBS5","3OWZNK3RYMVDNXPNEIRWZ8JM6MU2UY","3ZDAD0O1T3J2BKBPS4RG9MM5JSGXTU","model","match","uniform","","","","","","","5787.600000023842","","","","","","","","","","","","","","","","","","","","","","","{""age"":""54""}",""
"survey-text","201","454488","0.0-200.0-1.0","p494369","A1EH9BPKYXFBS5","3OWZNK3RYMVDNXPNEIRWZ8JM6MU2UY","3ZDAD0O1T3J2BKBPS4RG9MM5JSGXTU","model","match","uniform","","","","","","","4532.199999928474","","","","","","","","","","","","","","","","","","","","","","","{""gender"":""f""}",""
"survey-text","202","458891","0.0-200.0-2.0","p494369","A1EH9BPKYXFBS5","3OWZNK3RYMVDNXPNEIRWZ8JM6MU2UY","3ZDAD0O1T3J2BKBPS4RG9MM5JSGXTU","model","match","uniform","","","","","","","4398.800000071526","","","","","","","","","","","","","","","","","","","","","","","{""country"":""usa""}",""
"survey-text","203","467504","0.0-200.0-3.0","p494369","A1EH9BPKYXFBS5","3OWZNK3RYMVDNXPNEIRWZ8JM6MU2UY","3ZDAD0O1T3J2BKBPS4RG9MM5JSGXTU","model","match","uniform","","","","","","","8604.399999976158","","","","","","","","","","","","","","","","","","","","","","","{""language"":""english"",""other_languages"":""""}",""
"survey-multi-select","204","471983","0.0-201.0","p494369","A1EH9BPKYXFBS5","3OWZNK3RYMVDNXPNEIRWZ8JM6MU2UY","3ZDAD0O1T3J2BKBPS4RG9MM5JSGXTU","model","match","uniform","","","","","","","4477.5","","","","","","","","","","","","","","","","","","","","","","","{""race"":[""White""]}","[0]"
"survey-multi-choice","205","476182","0.0-202.0","p494369","A1EH9BPKYXFBS5","3OWZNK3RYMVDNXPNEIRWZ8JM6MU2UY","3ZDAD0O1T3J2BKBPS4RG9MM5JSGXTU","model","match","uniform","","","","","","","4194","","","","","","","","","","","","","","","","","","","","","","","{""education"":""Master's degree""}","[0]"
"survey-text","206","533576","0.0-203.0","p494369","A1EH9BPKYXFBS5","3OWZNK3RYMVDNXPNEIRWZ8JM6MU2UY","3ZDAD0O1T3J2BKBPS4RG9MM5JSGXTU","model","match","uniform","","","","","","","57386.700000047684","","","","","","","","","","","","","","","","","","","","","","","{""patterns"":""women tended to give more stars than men.  facial expression did not matter"",""strategy"":""followed the same person who gave a good star payoff.  every so often I would check the other people to see if they gave me more, but they never did."",""comments"":""""}",""
