"trial_type","trial_index","time_elapsed","internal_node_id","subject","workerId","hitId","assignmentId","structure_condition","match_condition","noise_type","success","timeout","failed_images","failed_audio","failed_video","view_history","rt","start_time","end_time","stimuli","image1","image2","image3","image4","choiceLocation","choiceImage","choiceEmotion","choiceModel","choice_index","reward_score","reward","reward_score_unadjusted","reward_image","score_after_trial","emotions","models","rewards","rewards_unadjusted","stimulus","response","question_order"
"pavlovia","0","30","0.0-0.0","p508360","ABBP9JASL9AGK","3OWZNK3RYMVDNXPNEIRWZ8JM6MU2UY","32SVAV9L3HFLGQ522FTB7179O8V3AG","emotion","mismatch","uniform","","","","","","","","","","","","","","","","","","","","","","","","","","","","","","",""
"preload","1","16043","0.0-1.0","p508360","ABBP9JASL9AGK","3OWZNK3RYMVDNXPNEIRWZ8JM6MU2UY","32SVAV9L3HFLGQ522FTB7179O8V3AG","emotion","mismatch","uniform","true","false","[]","[]","[]","","","","","","","","","","","","","","","","","","","","","","","","","",""
"fullscreen","2","18513","0.0-2.0","p508360","ABBP9JASL9AGK","3OWZNK3RYMVDNXPNEIRWZ8JM6MU2UY","32SVAV9L3HFLGQ522FTB7179O8V3AG","emotion","mismatch","uniform","true","","","","","","","","","","","","","","","","","","","","","","","","","","","","","",""
"instructions","3","29780","0.0-3.0","p508360","ABBP9JASL9AGK","3OWZNK3RYMVDNXPNEIRWZ8JM6MU2UY","32SVAV9L3HFLGQ522FTB7179O8V3AG","emotion","mismatch","uniform","","","","","","[{""page_index"":0,""viewing_time"":11263.899999976158}]","11265.799999982119","","","","","","","","","","","","","","","","","","","","","","","",""
"explore-choice","4","32447","0.0-4.0","p508360","ABBP9JASL9AGK","3OWZNK3RYMVDNXPNEIRWZ8JM6MU2UY","32SVAV9L3HFLGQ522FTB7179O8V3AG","emotion","mismatch","uniform","","","","","","","2164","31826.30000001192","33990.30000001192","[""stimuli/sheep.jpg"",""stimuli/hammer.jpg"",""stimuli/basketball.jpg"",""stimuli/horse.jpg""]","stimuli/sheep.jpg","stimuli/hammer.jpg","stimuli/basketball.jpg","stimuli/horse.jpg","pos4","stimuli/horse.jpg","","","3","64","64","64","stimuli/stars_8.png","65","","","","","","",""
"explore-choice","5","34146","0.0-5.0","p508360","ABBP9JASL9AGK","3OWZNK3RYMVDNXPNEIRWZ8JM6MU2UY","32SVAV9L3HFLGQ522FTB7179O8V3AG","emotion","mismatch","uniform","","","","","","","1197.699999988079","34492.30000001192","35690","[""stimuli/hammer.jpg"",""stimuli/basketball.jpg"",""stimuli/horse.jpg"",""stimuli/sheep.jpg""]","stimuli/hammer.jpg","stimuli/basketball.jpg","stimuli/horse.jpg","stimuli/sheep.jpg","pos1","stimuli/hammer.jpg","","","0","8","8","8","stimuli/stars_2.png","9","","","","","","",""
"instructions","6","49981","0.0-6.0","p508360","ABBP9JASL9AGK","3OWZNK3RYMVDNXPNEIRWZ8JM6MU2UY","32SVAV9L3HFLGQ522FTB7179O8V3AG","emotion","mismatch","uniform","","","","","","[{""page_index"":0,""viewing_time"":15833.199999988079}]","15834","","","","","","","","","","","","","","","","","","","","","","","",""
"explore-choice","7","55301","0.0-7.0","p508360","ABBP9JASL9AGK","3OWZNK3RYMVDNXPNEIRWZ8JM6MU2UY","32SVAV9L3HFLGQ522FTB7179O8V3AG","emotion","mismatch","uniform","","","","","","","4814","52027.59999999404","56841.59999999404","[""stimuli/BM16_SUR.jpg"",""stimuli/HM07_AO.jpg"",""stimuli/BF04_CC.jpg"",""stimuli/HF09_DO.jpg""]","stimuli/BM16_SUR.jpg","stimuli/HM07_AO.jpg","stimuli/BF04_CC.jpg","stimuli/HF09_DO.jpg","pos3","stimuli/BF04_CC.jpg","CC","BF04","2","3.5","7","8","stimuli/stars_7.png","4.5","[""SUR"",""AO"",""CC"",""DO""]","[""BM16"",""HM07"",""BF04"",""HF09""]","[1,2,7,5]","[2,4,8,6]","","",""
"show-reward","8","57308","0.0-8.0","p508360","ABBP9JASL9AGK","3OWZNK3RYMVDNXPNEIRWZ8JM6MU2UY","32SVAV9L3HFLGQ522FTB7179O8V3AG","emotion","mismatch","uniform","","","","","","","","57347.5","59350.90000000596","","","","","","","","","","","","7","","stimuli/stars_7.png","4.5","","","","","stimuli/BF04_CC.jpg","",""
"explore-choice","9","59317","0.0-9.0","p508360","ABBP9JASL9AGK","3OWZNK3RYMVDNXPNEIRWZ8JM6MU2UY","32SVAV9L3HFLGQ522FTB7179O8V3AG","emotion","mismatch","uniform","","","","","","","1506","59352.80000001192","60858.80000001192","[""stimuli/HM07_SUR.jpg"",""stimuli/BF04_CC.jpg"",""stimuli/HF09_AO.jpg"",""stimuli/BM16_DO.jpg""]","stimuli/HM07_SUR.jpg","stimuli/BF04_CC.jpg","stimuli/HF09_AO.jpg","stimuli/BM16_DO.jpg","pos2","stimuli/BF04_CC.jpg","CC","BF04","1","3","6","8","stimuli/stars_6.png","7.5","[""SUR"",""CC"",""AO"",""DO""]","[""HM07"",""BF04"",""HF09"",""BM16""]","[2,6,6,5]","[2,8,4,6]","","",""
"show-reward","10","61321","0.0-10.0","p508360","ABBP9JASL9AGK","3OWZNK3RYMVDNXPNEIRWZ8JM6MU2UY","32SVAV9L3HFLGQ522FTB7179O8V3AG","emotion","mismatch","uniform","","","","","","","","61361.90000000596","63364.5","","","","","","","","","","","","6","","stimuli/stars_6.png","7.5","","","","","stimuli/BF04_CC.jpg","",""
"explore-choice","11","64502","0.0-11.0","p508360","ABBP9JASL9AGK","3OWZNK3RYMVDNXPNEIRWZ8JM6MU2UY","32SVAV9L3HFLGQ522FTB7179O8V3AG","emotion","mismatch","uniform","","","","","","","2675.4000000059605","63365.59999999404","66041","[""stimuli/BF04_AO.jpg"",""stimuli/HM07_CC.jpg"",""stimuli/BM16_SUR.jpg"",""stimuli/HF09_DO.jpg""]","stimuli/BF04_AO.jpg","stimuli/HM07_CC.jpg","stimuli/BM16_SUR.jpg","stimuli/HF09_DO.jpg","pos2","stimuli/HM07_CC.jpg","CC","HM07","1","5","10","8","stimuli/stars_10.png","12.5","[""AO"",""CC"",""SUR"",""DO""]","[""BF04"",""HM07"",""BM16"",""HF09""]","[3,10,0,6]","[4,8,2,6]","","",""
"show-reward","12","66511","0.0-12.0","p508360","ABBP9JASL9AGK","3OWZNK3RYMVDNXPNEIRWZ8JM6MU2UY","32SVAV9L3HFLGQ522FTB7179O8V3AG","emotion","mismatch","uniform","","","","","","","","66546.90000000596","68554","","","","","","","","","","","","10","","stimuli/stars_10.png","12.5","","","","","stimuli/HM07_CC.jpg","",""
"explore-choice","13","69087","0.0-13.0","p508360","ABBP9JASL9AGK","3OWZNK3RYMVDNXPNEIRWZ8JM6MU2UY","32SVAV9L3HFLGQ522FTB7179O8V3AG","emotion","mismatch","uniform","","","","","","","2070.300000011921","68555.09999999404","70625.40000000596","[""stimuli/BF04_CC.jpg"",""stimuli/BM16_DO.jpg"",""stimuli/HM07_AO.jpg"",""stimuli/HF09_SUR.jpg""]","stimuli/BF04_CC.jpg","stimuli/BM16_DO.jpg","stimuli/HM07_AO.jpg","stimuli/HF09_SUR.jpg","pos1","stimuli/BF04_CC.jpg","CC","BF04","0","4.5","9","8","stimuli/stars_9.png","17","[""CC"",""DO"",""AO"",""SUR""]","[""BF04"",""BM16"",""HM07"",""HF09""]","[9,8,3,2]","[8,6,4,2]","","",""
"show-reward","14","71096","0.0-14.0","p508360","ABBP9JASL9AGK","3OWZNK3RYMVDNXPNEIRWZ8JM6MU2UY","32SVAV9L3HFLGQ522FTB7179O8V3AG","emotion","mismatch","uniform","","","","","","","","71130.90000000596","73138.80000001192","","","","","","","","","","","","9","","stimuli/stars_9.png","17","","","","","stimuli/BF04_CC.jpg","",""
"explore-choice","15","73567","0.0-15.0","p508360","ABBP9JASL9AGK","3OWZNK3RYMVDNXPNEIRWZ8JM6MU2UY","32SVAV9L3HFLGQ522FTB7179O8V3AG","emotion","mismatch","uniform","","","","","","","1969.5","73140","75109.5","[""stimuli/BF04_SUR.jpg"",""stimuli/HF09_AO.jpg"",""stimuli/HM07_CC.jpg"",""stimuli/BM16_DO.jpg""]","stimuli/BF04_SUR.jpg","stimuli/HF09_AO.jpg","stimuli/HM07_CC.jpg","stimuli/BM16_DO.jpg","pos1","stimuli/BF04_SUR.jpg","SUR","BF04","0","0","0","2","stimuli/stars_0.png","17","[""SUR"",""AO"",""CC"",""DO""]","[""BF04"",""HF09"",""HM07"",""BM16""]","[0,5,7,5]","[2,4,8,6]","","",""
"show-reward","16","75572","0.0-16.0","p508360","ABBP9JASL9AGK","3OWZNK3RYMVDNXPNEIRWZ8JM6MU2UY","32SVAV9L3HFLGQ522FTB7179O8V3AG","emotion","mismatch","uniform","","","","","","","","75611.09999999404","77615.40000000596","","","","","","","","","","","","0","","stimuli/stars_0.png","17","","","","","stimuli/BF04_SUR.jpg","",""
"explore-choice","17","78283","0.0-17.0","p508360","ABBP9JASL9AGK","3OWZNK3RYMVDNXPNEIRWZ8JM6MU2UY","32SVAV9L3HFLGQ522FTB7179O8V3AG","emotion","mismatch","uniform","","","","","","","2208.9000000059605","77616","79824.90000000596","[""stimuli/HF09_DO.jpg"",""stimuli/BM16_AO.jpg"",""stimuli/HM07_SUR.jpg"",""stimuli/BF04_CC.jpg""]","stimuli/HF09_DO.jpg","stimuli/BM16_AO.jpg","stimuli/HM07_SUR.jpg","stimuli/BF04_CC.jpg","pos4","stimuli/BF04_CC.jpg","CC","BF04","3","3.5","7","8","stimuli/stars_7.png","20.5","[""DO"",""AO"",""SUR"",""CC""]","[""HF09"",""BM16"",""HM07"",""BF04""]","[7,5,2,7]","[6,4,2,8]","","",""
"show-reward","18","80288","0.0-18.0","p508360","ABBP9JASL9AGK","3OWZNK3RYMVDNXPNEIRWZ8JM6MU2UY","32SVAV9L3HFLGQ522FTB7179O8V3AG","emotion","mismatch","uniform","","","","","","","","80326.30000001192","82331.19999998808","","","","","","","","","","","","7","","stimuli/stars_7.png","20.5","","","","","stimuli/BF04_CC.jpg","",""
"explore-choice","19","84183","0.0-19.0","p508360","ABBP9JASL9AGK","3OWZNK3RYMVDNXPNEIRWZ8JM6MU2UY","32SVAV9L3HFLGQ522FTB7179O8V3AG","emotion","mismatch","uniform","","","","","","","3393.4000000059605","82332.19999998808","85725.59999999404","[""stimuli/BF04_DO.jpg"",""stimuli/HF09_AO.jpg"",""stimuli/BM16_CC.jpg"",""stimuli/HM07_SUR.jpg""]","stimuli/BF04_DO.jpg","stimuli/HF09_AO.jpg","stimuli/BM16_CC.jpg","stimuli/HM07_SUR.jpg","pos3","stimuli/BM16_CC.jpg","CC","BM16","2","3.5","7","8","stimuli/stars_7.png","24","[""DO"",""AO"",""CC"",""SUR""]","[""BF04"",""HF09"",""BM16"",""HM07""]","[5,4,7,3]","[6,4,8,2]","","",""
"show-reward","20","86190","0.0-20.0","p508360","ABBP9JASL9AGK","3OWZNK3RYMVDNXPNEIRWZ8JM6MU2UY","32SVAV9L3HFLGQ522FTB7179O8V3AG","emotion","mismatch","uniform","","","","","","","","86227.30000001192","88232.90000000596","","","","","","","","","","","","7","","stimuli/stars_7.png","24","","","","","stimuli/BM16_CC.jpg","",""
"explore-choice","21","88638","0.0-21.0","p508360","ABBP9JASL9AGK","3OWZNK3RYMVDNXPNEIRWZ8JM6MU2UY","32SVAV9L3HFLGQ522FTB7179O8V3AG","emotion","mismatch","uniform","","","","","","","1943.5","88234","90177.5","[""stimuli/BF04_CC.jpg"",""stimuli/HM07_DO.jpg"",""stimuli/HF09_SUR.jpg"",""stimuli/BM16_AO.jpg""]","stimuli/BF04_CC.jpg","stimuli/HM07_DO.jpg","stimuli/HF09_SUR.jpg","stimuli/BM16_AO.jpg","pos1","stimuli/BF04_CC.jpg","CC","BF04","0","5","10","8","stimuli/stars_10.png","29","[""CC"",""DO"",""SUR"",""AO""]","[""BF04"",""HM07"",""HF09"",""BM16""]","[10,8,2,5]","[8,6,2,4]","","",""
"show-reward","22","90642","0.0-22.0","p508360","ABBP9JASL9AGK","3OWZNK3RYMVDNXPNEIRWZ8JM6MU2UY","32SVAV9L3HFLGQ522FTB7179O8V3AG","emotion","mismatch","uniform","","","","","","","","90681.59999999404","92684.90000000596","","","","","","","","","","","","10","","stimuli/stars_10.png","29","","","","","stimuli/BF04_CC.jpg","",""
"explore-choice","23","93037","0.0-23.0","p508360","ABBP9JASL9AGK","3OWZNK3RYMVDNXPNEIRWZ8JM6MU2UY","32SVAV9L3HFLGQ522FTB7179O8V3AG","emotion","mismatch","uniform","","","","","","","1891.5","92686","94577.5","[""stimuli/HM07_AO.jpg"",""stimuli/HF09_SUR.jpg"",""stimuli/BF04_DO.jpg"",""stimuli/BM16_CC.jpg""]","stimuli/HM07_AO.jpg","stimuli/HF09_SUR.jpg","stimuli/BF04_DO.jpg","stimuli/BM16_CC.jpg","pos4","stimuli/BM16_CC.jpg","CC","BM16","3","4.5","9","8","stimuli/stars_9.png","33.5","[""AO"",""SUR"",""DO"",""CC""]","[""HM07"",""HF09"",""BF04"",""BM16""]","[4,2,6,9]","[4,2,6,8]","","",""
"show-reward","24","95042","0.0-24.0","p508360","ABBP9JASL9AGK","3OWZNK3RYMVDNXPNEIRWZ8JM6MU2UY","32SVAV9L3HFLGQ522FTB7179O8V3AG","emotion","mismatch","uniform","","","","","","","","95080.5","97084.09999999404","","","","","","","","","","","","9","","stimuli/stars_9.png","33.5","","","","","stimuli/BM16_CC.jpg","",""
"explore-choice","25","97372","0.0-25.0","p508360","ABBP9JASL9AGK","3OWZNK3RYMVDNXPNEIRWZ8JM6MU2UY","32SVAV9L3HFLGQ522FTB7179O8V3AG","emotion","mismatch","uniform","","","","","","","1825.800000011921","97085.19999998808","98911","[""stimuli/BM16_DO.jpg"",""stimuli/HF09_CC.jpg"",""stimuli/HM07_SUR.jpg"",""stimuli/BF04_AO.jpg""]","stimuli/BM16_DO.jpg","stimuli/HF09_CC.jpg","stimuli/HM07_SUR.jpg","stimuli/BF04_AO.jpg","pos2","stimuli/HF09_CC.jpg","CC","HF09","1","3.5","7","8","stimuli/stars_7.png","37","[""DO"",""CC"",""SUR"",""AO""]","[""BM16"",""HF09"",""HM07"",""BF04""]","[6,7,3,2]","[6,8,2,4]","","",""
"show-reward","26","99380","0.0-26.0","p508360","ABBP9JASL9AGK","3OWZNK3RYMVDNXPNEIRWZ8JM6MU2UY","32SVAV9L3HFLGQ522FTB7179O8V3AG","emotion","mismatch","uniform","","","","","","","","99415","101422.19999998808","","","","","","","","","","","","7","","stimuli/stars_7.png","37","","","","","stimuli/HF09_CC.jpg","",""
"explore-choice","27","101521","0.0-27.0","p508360","ABBP9JASL9AGK","3OWZNK3RYMVDNXPNEIRWZ8JM6MU2UY","32SVAV9L3HFLGQ522FTB7179O8V3AG","emotion","mismatch","uniform","","","","","","","1638.4000000059605","101423.19999998808","103061.59999999404","[""stimuli/BF04_AO.jpg"",""stimuli/HF09_DO.jpg"",""stimuli/BM16_CC.jpg"",""stimuli/HM07_SUR.jpg""]","stimuli/BF04_AO.jpg","stimuli/HF09_DO.jpg","stimuli/BM16_CC.jpg","stimuli/HM07_SUR.jpg","pos3","stimuli/BM16_CC.jpg","CC","BM16","2","4","8","8","stimuli/stars_8.png","41","[""AO"",""DO"",""CC"",""SUR""]","[""BF04"",""HF09"",""BM16"",""HM07""]","[3,4,8,3]","[4,6,8,2]","","",""
"show-reward","28","103531","0.0-28.0","p508360","ABBP9JASL9AGK","3OWZNK3RYMVDNXPNEIRWZ8JM6MU2UY","32SVAV9L3HFLGQ522FTB7179O8V3AG","emotion","mismatch","uniform","","","","","","","","103565.40000000596","105573.59999999404","","","","","","","","","","","","8","","stimuli/stars_8.png","41","","","","","stimuli/BM16_CC.jpg","",""
"explore-choice","29","105356","0.0-29.0","p508360","ABBP9JASL9AGK","3OWZNK3RYMVDNXPNEIRWZ8JM6MU2UY","32SVAV9L3HFLGQ522FTB7179O8V3AG","emotion","mismatch","uniform","","","","","","","1320.5999999940395","105574.59999999404","106895.19999998808","[""stimuli/BM16_DO.jpg"",""stimuli/HM07_CC.jpg"",""stimuli/BF04_AO.jpg"",""stimuli/HF09_SUR.jpg""]","stimuli/BM16_DO.jpg","stimuli/HM07_CC.jpg","stimuli/BF04_AO.jpg","stimuli/HF09_SUR.jpg","pos2","stimuli/HM07_CC.jpg","CC","HM07","1","4.5","9","8","stimuli/stars_9.png","45.5","[""DO"",""CC"",""AO"",""SUR""]","[""BM16"",""HM07"",""BF04"",""HF09""]","[7,9,3,2]","[6,8,4,2]","","",""
"show-reward","30","107363","0.0-30.0","p508360","ABBP9JASL9AGK","3OWZNK3RYMVDNXPNEIRWZ8JM6MU2UY","32SVAV9L3HFLGQ522FTB7179O8V3AG","emotion","mismatch","uniform","","","","","","","","107399.19999998808","109405.19999998808","","","","","","","","","","","","9","","stimuli/stars_9.png","45.5","","","","","stimuli/HM07_CC.jpg","",""
"explore-choice","31","110787","0.0-31.0","p508360","ABBP9JASL9AGK","3OWZNK3RYMVDNXPNEIRWZ8JM6MU2UY","32SVAV9L3HFLGQ522FTB7179O8V3AG","emotion","mismatch","uniform","","","","","","","2922.600000023842","109406.19999998808","112328.80000001192","[""stimuli/BM16_SUR.jpg"",""stimuli/BF04_DO.jpg"",""stimuli/HF09_CC.jpg"",""stimuli/HM07_AO.jpg""]","stimuli/BM16_SUR.jpg","stimuli/BF04_DO.jpg","stimuli/HF09_CC.jpg","stimuli/HM07_AO.jpg","pos3","stimuli/HF09_CC.jpg","CC","HF09","2","4","8","8","stimuli/stars_8.png","49.5","[""SUR"",""DO"",""CC"",""AO""]","[""BM16"",""BF04"",""HF09"",""HM07""]","[0,5,8,5]","[2,6,8,4]","","",""
"show-reward","32","112790","0.0-32.0","p508360","ABBP9JASL9AGK","3OWZNK3RYMVDNXPNEIRWZ8JM6MU2UY","32SVAV9L3HFLGQ522FTB7179O8V3AG","emotion","mismatch","uniform","","","","","","","","112829.69999998808","114832.19999998808","","","","","","","","","","","","8","","stimuli/stars_8.png","49.5","","","","","stimuli/HF09_CC.jpg","",""
"explore-choice","33","115253","0.0-33.0","p508360","ABBP9JASL9AGK","3OWZNK3RYMVDNXPNEIRWZ8JM6MU2UY","32SVAV9L3HFLGQ522FTB7179O8V3AG","emotion","mismatch","uniform","","","","","","","1961","114833.19999998808","116794.19999998808","[""stimuli/HF09_SUR.jpg"",""stimuli/HM07_DO.jpg"",""stimuli/BM16_CC.jpg"",""stimuli/BF04_AO.jpg""]","stimuli/HF09_SUR.jpg","stimuli/HM07_DO.jpg","stimuli/BM16_CC.jpg","stimuli/BF04_AO.jpg","pos3","stimuli/BM16_CC.jpg","CC","BM16","2","4.5","9","8","stimuli/stars_9.png","54","[""SUR"",""DO"",""CC"",""AO""]","[""HF09"",""HM07"",""BM16"",""BF04""]","[1,7,9,5]","[2,6,8,4]","","",""
"show-reward","34","117258","0.0-34.0","p508360","ABBP9JASL9AGK","3OWZNK3RYMVDNXPNEIRWZ8JM6MU2UY","32SVAV9L3HFLGQ522FTB7179O8V3AG","emotion","mismatch","uniform","","","","","","","","117296.19999998808","119299.59999999404","","","","","","","","","","","","9","","stimuli/stars_9.png","54","","","","","stimuli/BM16_CC.jpg","",""
"explore-choice","35","119907","0.0-35.0","p508360","ABBP9JASL9AGK","3OWZNK3RYMVDNXPNEIRWZ8JM6MU2UY","32SVAV9L3HFLGQ522FTB7179O8V3AG","emotion","mismatch","uniform","","","","","","","2145.5999999940395","119300.59999999404","121446.19999998808","[""stimuli/HF09_DO.jpg"",""stimuli/BM16_CC.jpg"",""stimuli/BF04_SUR.jpg"",""stimuli/HM07_AO.jpg""]","stimuli/HF09_DO.jpg","stimuli/BM16_CC.jpg","stimuli/BF04_SUR.jpg","stimuli/HM07_AO.jpg","pos2","stimuli/BM16_CC.jpg","CC","BM16","1","4.5","9","8","stimuli/stars_9.png","58.5","[""DO"",""CC"",""SUR"",""AO""]","[""HF09"",""BM16"",""BF04"",""HM07""]","[5,9,0,5]","[6,8,2,4]","","",""
"show-reward","36","121915","0.0-36.0","p508360","ABBP9JASL9AGK","3OWZNK3RYMVDNXPNEIRWZ8JM6MU2UY","32SVAV9L3HFLGQ522FTB7179O8V3AG","emotion","mismatch","uniform","","","","","","","","121949.5","123956.90000000596","","","","","","","","","","","","9","","stimuli/stars_9.png","58.5","","","","","stimuli/BM16_CC.jpg","",""
"explore-choice","37","123822","0.0-37.0","p508360","ABBP9JASL9AGK","3OWZNK3RYMVDNXPNEIRWZ8JM6MU2UY","32SVAV9L3HFLGQ522FTB7179O8V3AG","emotion","mismatch","uniform","","","","","","","1404.9000000059605","123957.90000000596","125362.80000001192","[""stimuli/BF04_SUR.jpg"",""stimuli/HM07_AO.jpg"",""stimuli/BM16_DO.jpg"",""stimuli/HF09_CC.jpg""]","stimuli/BF04_SUR.jpg","stimuli/HM07_AO.jpg","stimuli/BM16_DO.jpg","stimuli/HF09_CC.jpg","pos2","stimuli/HM07_AO.jpg","AO","HM07","1","3","6","4","stimuli/stars_6.png","61.5","[""SUR"",""AO"",""DO"",""CC""]","[""BF04"",""HM07"",""BM16"",""HF09""]","[2,6,5,7]","[2,4,6,8]","","",""
"show-reward","38","125827","0.0-38.0","p508360","ABBP9JASL9AGK","3OWZNK3RYMVDNXPNEIRWZ8JM6MU2UY","32SVAV9L3HFLGQ522FTB7179O8V3AG","emotion","mismatch","uniform","","","","","","","","125864.5","127868.40000000596","","","","","","","","","","","","6","","stimuli/stars_6.png","61.5","","","","","stimuli/HM07_AO.jpg","",""
"explore-choice","39","127593","0.0-39.0","p508360","ABBP9JASL9AGK","3OWZNK3RYMVDNXPNEIRWZ8JM6MU2UY","32SVAV9L3HFLGQ522FTB7179O8V3AG","emotion","mismatch","uniform","","","","","","","1260.2999999821186","127869.30000001192","129129.59999999404","[""stimuli/BF04_SUR.jpg"",""stimuli/HM07_CC.jpg"",""stimuli/BM16_AO.jpg"",""stimuli/HF09_DO.jpg""]","stimuli/BF04_SUR.jpg","stimuli/HM07_CC.jpg","stimuli/BM16_AO.jpg","stimuli/HF09_DO.jpg","pos4","stimuli/HF09_DO.jpg","DO","HF09","3","3","6","6","stimuli/stars_6.png","64.5","[""SUR"",""CC"",""AO"",""DO""]","[""BF04"",""HM07"",""BM16"",""HF09""]","[0,9,4,6]","[2,8,4,6]","","",""
"show-reward","40","129601","0.0-40.0","p508360","ABBP9JASL9AGK","3OWZNK3RYMVDNXPNEIRWZ8JM6MU2UY","32SVAV9L3HFLGQ522FTB7179O8V3AG","emotion","mismatch","uniform","","","","","","","","129635.40000000596","131642.59999999404","","","","","","","","","","","","6","","stimuli/stars_6.png","64.5","","","","","stimuli/HF09_DO.jpg","",""
"explore-choice","41","132389","0.0-41.0","p508360","ABBP9JASL9AGK","3OWZNK3RYMVDNXPNEIRWZ8JM6MU2UY","32SVAV9L3HFLGQ522FTB7179O8V3AG","emotion","mismatch","uniform","","","","","","","2286.5","131643.59999999404","133930.09999999404","[""stimuli/BF04_AO.jpg"",""stimuli/HM07_DO.jpg"",""stimuli/BM16_SUR.jpg"",""stimuli/HF09_CC.jpg""]","stimuli/BF04_AO.jpg","stimuli/HM07_DO.jpg","stimuli/BM16_SUR.jpg","stimuli/HF09_CC.jpg","pos4","stimuli/HF09_CC.jpg","CC","HF09","3","5","10","8","stimuli/stars_10.png","69.5","[""AO"",""DO"",""SUR"",""CC""]","[""BF04"",""HM07"",""BM16"",""HF09""]","[3,6,4,10]","[4,6,2,8]","","",""
"show-reward","42","134397","0.0-42.0","p508360","ABBP9JASL9AGK","3OWZNK3RYMVDNXPNEIRWZ8JM6MU2UY","32SVAV9L3HFLGQ522FTB7179O8V3AG","emotion","mismatch","uniform","","","","","","","","134431.5","136437.80000001192","","","","","","","","","","","","10","","stimuli/stars_10.png","69.5","","","","","stimuli/HF09_CC.jpg","",""
"explore-choice","43","136406","0.0-43.0","p508360","ABBP9JASL9AGK","3OWZNK3RYMVDNXPNEIRWZ8JM6MU2UY","32SVAV9L3HFLGQ522FTB7179O8V3AG","emotion","mismatch","uniform","","","","","","","1507.7999999821186","136438.80000001192","137946.59999999404","[""stimuli/BF04_DO.jpg"",""stimuli/BM16_AO.jpg"",""stimuli/HF09_CC.jpg"",""stimuli/HM07_SUR.jpg""]","stimuli/BF04_DO.jpg","stimuli/BM16_AO.jpg","stimuli/HF09_CC.jpg","stimuli/HM07_SUR.jpg","pos3","stimuli/HF09_CC.jpg","CC","HF09","2","3","6","8","stimuli/stars_6.png","72.5","[""DO"",""AO"",""CC"",""SUR""]","[""BF04"",""BM16"",""HF09"",""HM07""]","[7,6,6,1]","[6,4,8,2]","","",""
"show-reward","44","138410","0.0-44.0","p508360","ABBP9JASL9AGK","3OWZNK3RYMVDNXPNEIRWZ8JM6MU2UY","32SVAV9L3HFLGQ522FTB7179O8V3AG","emotion","mismatch","uniform","","","","","","","","138447.90000000596","140450.59999999404","","","","","","","","","","","","6","","stimuli/stars_6.png","72.5","","","","","stimuli/HF09_CC.jpg","",""
"explore-choice","45","140275","0.0-45.0","p508360","ABBP9JASL9AGK","3OWZNK3RYMVDNXPNEIRWZ8JM6MU2UY","32SVAV9L3HFLGQ522FTB7179O8V3AG","emotion","mismatch","uniform","","","","","","","1362","140451.90000000596","141813.90000000596","[""stimuli/BF04_CC.jpg"",""stimuli/HM07_DO.jpg"",""stimuli/HF09_AO.jpg"",""stimuli/BM16_SUR.jpg""]","stimuli/BF04_CC.jpg","stimuli/HM07_DO.jpg","stimuli/HF09_AO.jpg","stimuli/BM16_SUR.jpg","pos1","stimuli/BF04_CC.jpg","CC","BF04","0","3","6","8","stimuli/stars_6.png","75.5","[""CC"",""DO"",""AO"",""SUR""]","[""BF04"",""HM07"",""HF09"",""BM16""]","[6,4,5,3]","[8,6,4,2]","","",""
"show-reward","46","142280","0.0-46.0","p508360","ABBP9JASL9AGK","3OWZNK3RYMVDNXPNEIRWZ8JM6MU2UY","32SVAV9L3HFLGQ522FTB7179O8V3AG","emotion","mismatch","uniform","","","","","","","","142317.40000000596","144320.69999998808","","","","","","","","","","","","6","","stimuli/stars_6.png","75.5","","","","","stimuli/BF04_CC.jpg","",""
"explore-choice","47","144035","0.0-47.0","p508360","ABBP9JASL9AGK","3OWZNK3RYMVDNXPNEIRWZ8JM6MU2UY","32SVAV9L3HFLGQ522FTB7179O8V3AG","emotion","mismatch","uniform","","","","","","","1240.8999999761581","144321.80000001192","145562.69999998808","[""stimuli/HF09_CC.jpg"",""stimuli/HM07_DO.jpg"",""stimuli/BM16_AO.jpg"",""stimuli/BF04_SUR.jpg""]","stimuli/HF09_CC.jpg","stimuli/HM07_DO.jpg","stimuli/BM16_AO.jpg","stimuli/BF04_SUR.jpg","pos1","stimuli/HF09_CC.jpg","CC","HF09","0","3.5","7","8","stimuli/stars_7.png","79","[""CC"",""DO"",""AO"",""SUR""]","[""HF09"",""HM07"",""BM16"",""BF04""]","[7,4,6,2]","[8,6,4,2]","","",""
"show-reward","48","146051","0.0-48.0","p508360","ABBP9JASL9AGK","3OWZNK3RYMVDNXPNEIRWZ8JM6MU2UY","32SVAV9L3HFLGQ522FTB7179O8V3AG","emotion","mismatch","uniform","","","","","","","","146079","148091.59999999404","","","","","","","","","","","","7","","stimuli/stars_7.png","79","","","","","stimuli/HF09_CC.jpg","",""
"explore-choice","49","148095","0.0-49.0","p508360","ABBP9JASL9AGK","3OWZNK3RYMVDNXPNEIRWZ8JM6MU2UY","32SVAV9L3HFLGQ522FTB7179O8V3AG","emotion","mismatch","uniform","","","","","","","1539.4000000059605","148092.5","149631.90000000596","[""stimuli/BM16_SUR.jpg"",""stimuli/HF09_AO.jpg"",""stimuli/HM07_CC.jpg"",""stimuli/BF04_DO.jpg""]","stimuli/BM16_SUR.jpg","stimuli/HF09_AO.jpg","stimuli/HM07_CC.jpg","stimuli/BF04_DO.jpg","pos3","stimuli/HM07_CC.jpg","CC","HM07","2","5","10","8","stimuli/stars_10.png","84","[""SUR"",""AO"",""CC"",""DO""]","[""BM16"",""HF09"",""HM07"",""BF04""]","[2,2,10,6]","[2,4,8,6]","","",""
"show-reward","50","150101","0.0-50.0","p508360","ABBP9JASL9AGK","3OWZNK3RYMVDNXPNEIRWZ8JM6MU2UY","32SVAV9L3HFLGQ522FTB7179O8V3AG","emotion","mismatch","uniform","","","","","","","","150136.90000000596","152141.30000001192","","","","","","","","","","","","10","","stimuli/stars_10.png","84","","","","","stimuli/HM07_CC.jpg","",""
"explore-choice","51","151545","0.0-51.0","p508360","ABBP9JASL9AGK","3OWZNK3RYMVDNXPNEIRWZ8JM6MU2UY","32SVAV9L3HFLGQ522FTB7179O8V3AG","emotion","mismatch","uniform","","","","","","","937.6999999880791","152142.90000000596","153080.59999999404","[""stimuli/BM16_CC.jpg"",""stimuli/BF04_SUR.jpg"",""stimuli/HM07_DO.jpg"",""stimuli/HF09_AO.jpg""]","stimuli/BM16_CC.jpg","stimuli/BF04_SUR.jpg","stimuli/HM07_DO.jpg","stimuli/HF09_AO.jpg","pos3","stimuli/HM07_DO.jpg","DO","HM07","2","3","6","6","stimuli/stars_6.png","87","[""CC"",""SUR"",""DO"",""AO""]","[""BM16"",""BF04"",""HM07"",""HF09""]","[8,2,6,6]","[8,2,6,4]","","",""
"show-reward","52","153553","0.0-52.0","p508360","ABBP9JASL9AGK","3OWZNK3RYMVDNXPNEIRWZ8JM6MU2UY","32SVAV9L3HFLGQ522FTB7179O8V3AG","emotion","mismatch","uniform","","","","","","","","153586.69999998808","155594","","","","","","","","","","","","6","","stimuli/stars_6.png","87","","","","","stimuli/HM07_DO.jpg","",""
"explore-choice","53","155086","0.0-53.0","p508360","ABBP9JASL9AGK","3OWZNK3RYMVDNXPNEIRWZ8JM6MU2UY","32SVAV9L3HFLGQ522FTB7179O8V3AG","emotion","mismatch","uniform","","","","","","","1027.5999999940395","155595","156622.59999999404","[""stimuli/HM07_CC.jpg"",""stimuli/BM16_AO.jpg"",""stimuli/BF04_DO.jpg"",""stimuli/HF09_SUR.jpg""]","stimuli/HM07_CC.jpg","stimuli/BM16_AO.jpg","stimuli/BF04_DO.jpg","stimuli/HF09_SUR.jpg","pos1","stimuli/HM07_CC.jpg","CC","HM07","0","5","10","8","stimuli/stars_10.png","92","[""CC"",""AO"",""DO"",""SUR""]","[""HM07"",""BM16"",""BF04"",""HF09""]","[10,5,8,1]","[8,4,6,2]","","",""
"show-reward","54","157092","0.0-54.0","p508360","ABBP9JASL9AGK","3OWZNK3RYMVDNXPNEIRWZ8JM6MU2UY","32SVAV9L3HFLGQ522FTB7179O8V3AG","emotion","mismatch","uniform","","","","","","","","157127.69999998808","159132.80000001192","","","","","","","","","","","","10","","stimuli/stars_10.png","92","","","","","stimuli/HM07_CC.jpg","",""
"explore-choice","55","159908","0.0-55.0","p508360","ABBP9JASL9AGK","3OWZNK3RYMVDNXPNEIRWZ8JM6MU2UY","32SVAV9L3HFLGQ522FTB7179O8V3AG","emotion","mismatch","uniform","","","","","","","2314.5999999940395","159133.80000001192","161448.40000000596","[""stimuli/BM16_CC.jpg"",""stimuli/BF04_SUR.jpg"",""stimuli/HF09_DO.jpg"",""stimuli/HM07_AO.jpg""]","stimuli/BM16_CC.jpg","stimuli/BF04_SUR.jpg","stimuli/HF09_DO.jpg","stimuli/HM07_AO.jpg","pos1","stimuli/BM16_CC.jpg","CC","BM16","0","4.5","9","8","stimuli/stars_9.png","96.5","[""CC"",""SUR"",""DO"",""AO""]","[""BM16"",""BF04"",""HF09"",""HM07""]","[9,0,5,5]","[8,2,6,4]","","",""
"show-reward","56","161913","0.0-56.0","p508360","ABBP9JASL9AGK","3OWZNK3RYMVDNXPNEIRWZ8JM6MU2UY","32SVAV9L3HFLGQ522FTB7179O8V3AG","emotion","mismatch","uniform","","","","","","","","161949.80000001192","163953.30000001192","","","","","","","","","","","","9","","stimuli/stars_9.png","96.5","","","","","stimuli/BM16_CC.jpg","",""
"explore-choice","57","163992","0.0-57.0","p508360","ABBP9JASL9AGK","3OWZNK3RYMVDNXPNEIRWZ8JM6MU2UY","32SVAV9L3HFLGQ522FTB7179O8V3AG","emotion","mismatch","uniform","","","","","","","1577.7999999821186","163954.30000001192","165532.09999999404","[""stimuli/BF04_CC.jpg"",""stimuli/HM07_DO.jpg"",""stimuli/HF09_SUR.jpg"",""stimuli/BM16_AO.jpg""]","stimuli/BF04_CC.jpg","stimuli/HM07_DO.jpg","stimuli/HF09_SUR.jpg","stimuli/BM16_AO.jpg","pos1","stimuli/BF04_CC.jpg","CC","BF04","0","5","10","8","stimuli/stars_10.png","101.5","[""CC"",""DO"",""SUR"",""AO""]","[""BF04"",""HM07"",""HF09"",""BM16""]","[10,8,2,5]","[8,6,2,4]","","",""
"show-reward","58","165997","0.0-58.0","p508360","ABBP9JASL9AGK","3OWZNK3RYMVDNXPNEIRWZ8JM6MU2UY","32SVAV9L3HFLGQ522FTB7179O8V3AG","emotion","mismatch","uniform","","","","","","","","166033.90000000596","168037.40000000596","","","","","","","","","","","","10","","stimuli/stars_10.png","101.5","","","","","stimuli/BF04_CC.jpg","",""
"explore-choice","59","167475","0.0-59.0","p508360","ABBP9JASL9AGK","3OWZNK3RYMVDNXPNEIRWZ8JM6MU2UY","32SVAV9L3HFLGQ522FTB7179O8V3AG","emotion","mismatch","uniform","","","","","","","976.5999999940395","168038.40000000596","169015","[""stimuli/BF04_CC.jpg"",""stimuli/HM07_SUR.jpg"",""stimuli/BM16_AO.jpg"",""stimuli/HF09_DO.jpg""]","stimuli/BF04_CC.jpg","stimuli/HM07_SUR.jpg","stimuli/BM16_AO.jpg","stimuli/HF09_DO.jpg","pos1","stimuli/BF04_CC.jpg","CC","BF04","0","3.5","7","8","stimuli/stars_7.png","105","[""CC"",""SUR"",""AO"",""DO""]","[""BF04"",""HM07"",""BM16"",""HF09""]","[7,2,5,7]","[8,2,4,6]","","",""
"show-reward","60","169483","0.0-60.0","p508360","ABBP9JASL9AGK","3OWZNK3RYMVDNXPNEIRWZ8JM6MU2UY","32SVAV9L3HFLGQ522FTB7179O8V3AG","emotion","mismatch","uniform","","","","","","","","169516.19999998808","171522.90000000596","","","","","","","","","","","","7","","stimuli/stars_7.png","105","","","","","stimuli/BF04_CC.jpg","",""
"explore-choice","61","171643","0.0-61.0","p508360","ABBP9JASL9AGK","3OWZNK3RYMVDNXPNEIRWZ8JM6MU2UY","32SVAV9L3HFLGQ522FTB7179O8V3AG","emotion","mismatch","uniform","","","","","","","1658.7999999821186","171523.90000000596","173182.69999998808","[""stimuli/HF09_SUR.jpg"",""stimuli/BM16_CC.jpg"",""stimuli/HM07_DO.jpg"",""stimuli/BF04_AO.jpg""]","stimuli/HF09_SUR.jpg","stimuli/BM16_CC.jpg","stimuli/HM07_DO.jpg","stimuli/BF04_AO.jpg","pos2","stimuli/BM16_CC.jpg","CC","BM16","1","4.5","9","8","stimuli/stars_9.png","109.5","[""SUR"",""CC"",""DO"",""AO""]","[""HF09"",""BM16"",""HM07"",""BF04""]","[1,9,7,5]","[2,8,6,4]","","",""
"show-reward","62","173651","0.0-62.0","p508360","ABBP9JASL9AGK","3OWZNK3RYMVDNXPNEIRWZ8JM6MU2UY","32SVAV9L3HFLGQ522FTB7179O8V3AG","emotion","mismatch","uniform","","","","","","","","173684","175690.90000000596","","","","","","","","","","","","9","","stimuli/stars_9.png","109.5","","","","","stimuli/BM16_CC.jpg","",""
"explore-choice","63","175880","0.0-63.0","p508360","ABBP9JASL9AGK","3OWZNK3RYMVDNXPNEIRWZ8JM6MU2UY","32SVAV9L3HFLGQ522FTB7179O8V3AG","emotion","mismatch","uniform","","","","","","","1724.9000000059605","175691.90000000596","177416.80000001192","[""stimuli/BF04_DO.jpg"",""stimuli/BM16_AO.jpg"",""stimuli/HM07_SUR.jpg"",""stimuli/HF09_CC.jpg""]","stimuli/BF04_DO.jpg","stimuli/BM16_AO.jpg","stimuli/HM07_SUR.jpg","stimuli/HF09_CC.jpg","pos4","stimuli/HF09_CC.jpg","CC","HF09","3","3","6","8","stimuli/stars_6.png","112.5","[""DO"",""AO"",""SUR"",""CC""]","[""BF04"",""BM16"",""HM07"",""HF09""]","[7,6,1,6]","[6,4,2,8]","","",""
"show-reward","64","177889","0.0-64.0","p508360","ABBP9JASL9AGK","3OWZNK3RYMVDNXPNEIRWZ8JM6MU2UY","32SVAV9L3HFLGQ522FTB7179O8V3AG","emotion","mismatch","uniform","","","","","","","","177921.80000001192","179928.5","","","","","","","","","","","","6","","stimuli/stars_6.png","112.5","","","","","stimuli/HF09_CC.jpg","",""
"explore-choice","65","180347","0.0-65.0","p508360","ABBP9JASL9AGK","3OWZNK3RYMVDNXPNEIRWZ8JM6MU2UY","32SVAV9L3HFLGQ522FTB7179O8V3AG","emotion","mismatch","uniform","","","","","","","1953.9000000059605","179929.90000000596","181883.80000001192","[""stimuli/BM16_AO.jpg"",""stimuli/BF04_SUR.jpg"",""stimuli/HM07_DO.jpg"",""stimuli/HF09_CC.jpg""]","stimuli/BM16_AO.jpg","stimuli/BF04_SUR.jpg","stimuli/HM07_DO.jpg","stimuli/HF09_CC.jpg","pos4","stimuli/HF09_CC.jpg","CC","HF09","3","3.5","7","8","stimuli/stars_7.png","116","[""AO"",""SUR"",""DO"",""CC""]","[""BM16"",""BF04"",""HM07"",""HF09""]","[6,2,4,7]","[4,2,6,8]","","",""
"show-reward","66","182352","0.0-66.0","p508360","ABBP9JASL9AGK","3OWZNK3RYMVDNXPNEIRWZ8JM6MU2UY","32SVAV9L3HFLGQ522FTB7179O8V3AG","emotion","mismatch","uniform","","","","","","","","182388.80000001192","184392.30000001192","","","","","","","","","","","","7","","stimuli/stars_7.png","116","","","","","stimuli/HF09_CC.jpg","",""
"explore-choice","67","184782","0.0-67.0","p508360","ABBP9JASL9AGK","3OWZNK3RYMVDNXPNEIRWZ8JM6MU2UY","32SVAV9L3HFLGQ522FTB7179O8V3AG","emotion","mismatch","uniform","","","","","","","1923.7000000178814","184393.59999999404","186317.30000001192","[""stimuli/HF09_DO.jpg"",""stimuli/HM07_SUR.jpg"",""stimuli/BM16_CC.jpg"",""stimuli/BF04_AO.jpg""]","stimuli/HF09_DO.jpg","stimuli/HM07_SUR.jpg","stimuli/BM16_CC.jpg","stimuli/BF04_AO.jpg","pos3","stimuli/BM16_CC.jpg","CC","BM16","2","4","8","8","stimuli/stars_8.png","120","[""DO"",""SUR"",""CC"",""AO""]","[""HF09"",""HM07"",""BM16"",""BF04""]","[4,3,8,3]","[6,2,8,4]","","",""
"show-reward","68","186786","0.0-68.0","p508360","ABBP9JASL9AGK","3OWZNK3RYMVDNXPNEIRWZ8JM6MU2UY","32SVAV9L3HFLGQ522FTB7179O8V3AG","emotion","mismatch","uniform","","","","","","","","186822.5","188825.30000001192","","","","","","","","","","","","8","","stimuli/stars_8.png","120","","","","","stimuli/BM16_CC.jpg","",""
"explore-choice","69","189628","0.0-69.0","p508360","ABBP9JASL9AGK","3OWZNK3RYMVDNXPNEIRWZ8JM6MU2UY","32SVAV9L3HFLGQ522FTB7179O8V3AG","emotion","mismatch","uniform","","","","","","","2340.4000000059605","188826.90000000596","191167.30000001192","[""stimuli/BF04_CC.jpg"",""stimuli/HM07_AO.jpg"",""stimuli/BM16_SUR.jpg"",""stimuli/HF09_DO.jpg""]","stimuli/BF04_CC.jpg","stimuli/HM07_AO.jpg","stimuli/BM16_SUR.jpg","stimuli/HF09_DO.jpg","pos1","stimuli/BF04_CC.jpg","CC","BF04","0","3.5","7","8","stimuli/stars_7.png","123.5","[""CC"",""AO"",""SUR"",""DO""]","[""BF04"",""HM07"",""BM16"",""HF09""]","[7,2,1,5]","[8,4,2,6]","","",""
"show-reward","70","191635","0.0-70.0","p508360","ABBP9JASL9AGK","3OWZNK3RYMVDNXPNEIRWZ8JM6MU2UY","32SVAV9L3HFLGQ522FTB7179O8V3AG","emotion","mismatch","uniform","","","","","","","","191668.80000001192","193675.09999999404","","","","","","","","","","","","7","","stimuli/stars_7.png","123.5","","","","","stimuli/BF04_CC.jpg","",""
"explore-choice","71","194945","0.0-71.0","p508360","ABBP9JASL9AGK","3OWZNK3RYMVDNXPNEIRWZ8JM6MU2UY","32SVAV9L3HFLGQ522FTB7179O8V3AG","emotion","mismatch","uniform","","","","","","","2808.0999999940395","193676.09999999404","196484.19999998808","[""stimuli/HM07_DO.jpg"",""stimuli/BF04_AO.jpg"",""stimuli/BM16_SUR.jpg"",""stimuli/HF09_CC.jpg""]","stimuli/HM07_DO.jpg","stimuli/BF04_AO.jpg","stimuli/BM16_SUR.jpg","stimuli/HF09_CC.jpg","pos4","stimuli/HF09_CC.jpg","CC","HF09","3","5","10","8","stimuli/stars_10.png","128.5","[""DO"",""AO"",""SUR"",""CC""]","[""HM07"",""BF04"",""BM16"",""HF09""]","[6,3,4,10]","[6,4,2,8]","","",""
"show-reward","72","196953","0.0-72.0","p508360","ABBP9JASL9AGK","3OWZNK3RYMVDNXPNEIRWZ8JM6MU2UY","32SVAV9L3HFLGQ522FTB7179O8V3AG","emotion","mismatch","uniform","","","","","","","","196986.09999999404","198992.59999999404","","","","","","","","","","","","10","","stimuli/stars_10.png","128.5","","","","","stimuli/HF09_CC.jpg","",""
"explore-choice","73","199479","0.0-73.0","p508360","ABBP9JASL9AGK","3OWZNK3RYMVDNXPNEIRWZ8JM6MU2UY","32SVAV9L3HFLGQ522FTB7179O8V3AG","emotion","mismatch","uniform","","","","","","","2023.5","198993.5","201017","[""stimuli/BF04_DO.jpg"",""stimuli/HM07_CC.jpg"",""stimuli/HF09_SUR.jpg"",""stimuli/BM16_AO.jpg""]","stimuli/BF04_DO.jpg","stimuli/HM07_CC.jpg","stimuli/HF09_SUR.jpg","stimuli/BM16_AO.jpg","pos2","stimuli/HM07_CC.jpg","CC","HM07","1","5","10","8","stimuli/stars_10.png","133.5","[""DO"",""CC"",""SUR"",""AO""]","[""BF04"",""HM07"",""HF09"",""BM16""]","[8,10,1,5]","[6,8,2,4]","","",""
"show-reward","74","201488","0.0-74.0","p508360","ABBP9JASL9AGK","3OWZNK3RYMVDNXPNEIRWZ8JM6MU2UY","32SVAV9L3HFLGQ522FTB7179O8V3AG","emotion","mismatch","uniform","","","","","","","","201519.5","203527.30000001192","","","","","","","","","","","","10","","stimuli/stars_10.png","133.5","","","","","stimuli/HM07_CC.jpg","",""
"explore-choice","75","203646","0.0-75.0","p508360","ABBP9JASL9AGK","3OWZNK3RYMVDNXPNEIRWZ8JM6MU2UY","32SVAV9L3HFLGQ522FTB7179O8V3AG","emotion","mismatch","uniform","","","","","","","1656.5","203528.09999999404","205184.59999999404","[""stimuli/HM07_CC.jpg"",""stimuli/HF09_AO.jpg"",""stimuli/BF04_DO.jpg"",""stimuli/BM16_SUR.jpg""]","stimuli/HM07_CC.jpg","stimuli/HF09_AO.jpg","stimuli/BF04_DO.jpg","stimuli/BM16_SUR.jpg","pos1","stimuli/HM07_CC.jpg","CC","HM07","0","5","10","8","stimuli/stars_10.png","138.5","[""CC"",""AO"",""DO"",""SUR""]","[""HM07"",""HF09"",""BF04"",""BM16""]","[10,2,6,2]","[8,4,6,2]","","",""
"show-reward","76","205650","0.0-76.0","p508360","ABBP9JASL9AGK","3OWZNK3RYMVDNXPNEIRWZ8JM6MU2UY","32SVAV9L3HFLGQ522FTB7179O8V3AG","emotion","mismatch","uniform","","","","","","","","205686.40000000596","207689","","","","","","","","","","","","10","","stimuli/stars_10.png","138.5","","","","","stimuli/HM07_CC.jpg","",""
"explore-choice","77","208963","0.0-77.0","p508360","ABBP9JASL9AGK","3OWZNK3RYMVDNXPNEIRWZ8JM6MU2UY","32SVAV9L3HFLGQ522FTB7179O8V3AG","emotion","mismatch","uniform","","","","","","","2811.0999999940395","207690","210501.09999999404","[""stimuli/BM16_DO.jpg"",""stimuli/BF04_SUR.jpg"",""stimuli/HM07_CC.jpg"",""stimuli/HF09_AO.jpg""]","stimuli/BM16_DO.jpg","stimuli/BF04_SUR.jpg","stimuli/HM07_CC.jpg","stimuli/HF09_AO.jpg","pos3","stimuli/HM07_CC.jpg","CC","HM07","2","3.5","7","8","stimuli/stars_7.png","142","[""DO"",""SUR"",""CC"",""AO""]","[""BM16"",""BF04"",""HM07"",""HF09""]","[5,0,7,5]","[6,2,8,4]","","",""
"show-reward","78","210969","0.0-78.0","p508360","ABBP9JASL9AGK","3OWZNK3RYMVDNXPNEIRWZ8JM6MU2UY","32SVAV9L3HFLGQ522FTB7179O8V3AG","emotion","mismatch","uniform","","","","","","","","211003.30000001192","213008.30000001192","","","","","","","","","","","","7","","stimuli/stars_7.png","142","","","","","stimuli/HM07_CC.jpg","",""
"explore-choice","79","213647","0.0-79.0","p508360","ABBP9JASL9AGK","3OWZNK3RYMVDNXPNEIRWZ8JM6MU2UY","32SVAV9L3HFLGQ522FTB7179O8V3AG","emotion","mismatch","uniform","","","","","","","2176.300000011921","213009.19999998808","215185.5","[""stimuli/HF09_SUR.jpg"",""stimuli/BF04_CC.jpg"",""stimuli/HM07_AO.jpg"",""stimuli/BM16_DO.jpg""]","stimuli/HF09_SUR.jpg","stimuli/BF04_CC.jpg","stimuli/HM07_AO.jpg","stimuli/BM16_DO.jpg","pos2","stimuli/BF04_CC.jpg","CC","BF04","1","4.5","9","8","stimuli/stars_9.png","146.5","[""SUR"",""CC"",""AO"",""DO""]","[""HF09"",""BF04"",""HM07"",""BM16""]","[2,9,3,8]","[2,8,4,6]","","",""
"show-reward","80","215656","0.0-80.0","p508360","ABBP9JASL9AGK","3OWZNK3RYMVDNXPNEIRWZ8JM6MU2UY","32SVAV9L3HFLGQ522FTB7179O8V3AG","emotion","mismatch","uniform","","","","","","","","215687.09999999404","217694.40000000596","","","","","","","","","","","","9","","stimuli/stars_9.png","146.5","","","","","stimuli/BF04_CC.jpg","",""
"explore-choice","81","217530","0.0-81.0","p508360","ABBP9JASL9AGK","3OWZNK3RYMVDNXPNEIRWZ8JM6MU2UY","32SVAV9L3HFLGQ522FTB7179O8V3AG","emotion","mismatch","uniform","","","","","","","1357","217695.5","219052.5","[""stimuli/BM16_CC.jpg"",""stimuli/HF09_AO.jpg"",""stimuli/BF04_SUR.jpg"",""stimuli/HM07_DO.jpg""]","stimuli/BM16_CC.jpg","stimuli/HF09_AO.jpg","stimuli/BF04_SUR.jpg","stimuli/HM07_DO.jpg","pos1","stimuli/BM16_CC.jpg","CC","BM16","0","4","8","8","stimuli/stars_8.png","150.5","[""CC"",""AO"",""SUR"",""DO""]","[""BM16"",""HF09"",""BF04"",""HM07""]","[8,6,2,6]","[8,4,2,6]","","",""
"show-reward","82","219535","0.0-82.0","p508360","ABBP9JASL9AGK","3OWZNK3RYMVDNXPNEIRWZ8JM6MU2UY","32SVAV9L3HFLGQ522FTB7179O8V3AG","emotion","mismatch","uniform","","","","","","","","219569","221573.90000000596","","","","","","","","","","","","8","","stimuli/stars_8.png","150.5","","","","","stimuli/BM16_CC.jpg","",""
"explore-choice","83","222898","0.0-83.0","p508360","ABBP9JASL9AGK","3OWZNK3RYMVDNXPNEIRWZ8JM6MU2UY","32SVAV9L3HFLGQ522FTB7179O8V3AG","emotion","mismatch","uniform","","","","","","","2861.399999976158","221574.80000001192","224436.19999998808","[""stimuli/HM07_SUR.jpg"",""stimuli/BF04_AO.jpg"",""stimuli/HF09_CC.jpg"",""stimuli/BM16_DO.jpg""]","stimuli/HM07_SUR.jpg","stimuli/BF04_AO.jpg","stimuli/HF09_CC.jpg","stimuli/BM16_DO.jpg","pos3","stimuli/HF09_CC.jpg","CC","HF09","2","3.5","7","8","stimuli/stars_7.png","154","[""SUR"",""AO"",""CC"",""DO""]","[""HM07"",""BF04"",""HF09"",""BM16""]","[3,2,7,6]","[2,4,8,6]","","",""
"show-reward","84","224908","0.0-84.0","p508360","ABBP9JASL9AGK","3OWZNK3RYMVDNXPNEIRWZ8JM6MU2UY","32SVAV9L3HFLGQ522FTB7179O8V3AG","emotion","mismatch","uniform","","","","","","","","224937.19999998808","226946.30000001192","","","","","","","","","","","","7","","stimuli/stars_7.png","154","","","","","stimuli/HF09_CC.jpg","",""
"explore-choice","85","227782","0.0-85.0","p508360","ABBP9JASL9AGK","3OWZNK3RYMVDNXPNEIRWZ8JM6MU2UY","32SVAV9L3HFLGQ522FTB7179O8V3AG","emotion","mismatch","uniform","","","","","","","2373","226947","229320","[""stimuli/HM07_AO.jpg"",""stimuli/BF04_DO.jpg"",""stimuli/BM16_SUR.jpg"",""stimuli/HF09_CC.jpg""]","stimuli/HM07_AO.jpg","stimuli/BF04_DO.jpg","stimuli/BM16_SUR.jpg","stimuli/HF09_CC.jpg","pos4","stimuli/HF09_CC.jpg","CC","HF09","3","4","8","8","stimuli/stars_8.png","158","[""AO"",""DO"",""SUR"",""CC""]","[""HM07"",""BF04"",""BM16"",""HF09""]","[5,5,0,8]","[4,6,2,8]","","",""
"show-reward","86","229787","0.0-86.0","p508360","ABBP9JASL9AGK","3OWZNK3RYMVDNXPNEIRWZ8JM6MU2UY","32SVAV9L3HFLGQ522FTB7179O8V3AG","emotion","mismatch","uniform","","","","","","","","229821.5","231825.69999998808","","","","","","","","","","","","8","","stimuli/stars_8.png","158","","","","","stimuli/HF09_CC.jpg","",""
"explore-choice","87","232432","0.0-87.0","p508360","ABBP9JASL9AGK","3OWZNK3RYMVDNXPNEIRWZ8JM6MU2UY","32SVAV9L3HFLGQ522FTB7179O8V3AG","emotion","mismatch","uniform","","","","","","","2143.600000023842","231826.69999998808","233970.30000001192","[""stimuli/BF04_AO.jpg"",""stimuli/HF09_DO.jpg"",""stimuli/HM07_CC.jpg"",""stimuli/BM16_SUR.jpg""]","stimuli/BF04_AO.jpg","stimuli/HF09_DO.jpg","stimuli/HM07_CC.jpg","stimuli/BM16_SUR.jpg","pos3","stimuli/HM07_CC.jpg","CC","HM07","2","5","10","8","stimuli/stars_10.png","163","[""AO"",""DO"",""CC"",""SUR""]","[""BF04"",""HF09"",""HM07"",""BM16""]","[3,6,10,0]","[4,6,8,2]","","",""
"show-reward","88","234437","0.0-88.0","p508360","ABBP9JASL9AGK","3OWZNK3RYMVDNXPNEIRWZ8JM6MU2UY","32SVAV9L3HFLGQ522FTB7179O8V3AG","emotion","mismatch","uniform","","","","","","","","234472","236474.90000000596","","","","","","","","","","","","10","","stimuli/stars_10.png","163","","","","","stimuli/HM07_CC.jpg","",""
"explore-choice","89","236516","0.0-89.0","p508360","ABBP9JASL9AGK","3OWZNK3RYMVDNXPNEIRWZ8JM6MU2UY","32SVAV9L3HFLGQ522FTB7179O8V3AG","emotion","mismatch","uniform","","","","","","","1578","236476.19999998808","238054.19999998808","[""stimuli/BF04_CC.jpg"",""stimuli/HF09_AO.jpg"",""stimuli/BM16_DO.jpg"",""stimuli/HM07_SUR.jpg""]","stimuli/BF04_CC.jpg","stimuli/HF09_AO.jpg","stimuli/BM16_DO.jpg","stimuli/HM07_SUR.jpg","pos1","stimuli/BF04_CC.jpg","CC","BF04","0","3","6","8","stimuli/stars_6.png","166","[""CC"",""AO"",""DO"",""SUR""]","[""BF04"",""HF09"",""BM16"",""HM07""]","[6,6,5,2]","[8,4,6,2]","","",""
"show-reward","90","238522","0.0-90.0","p508360","ABBP9JASL9AGK","3OWZNK3RYMVDNXPNEIRWZ8JM6MU2UY","32SVAV9L3HFLGQ522FTB7179O8V3AG","emotion","mismatch","uniform","","","","","","","","238555.40000000596","240560.69999998808","","","","","","","","","","","","6","","stimuli/stars_6.png","166","","","","","stimuli/BF04_CC.jpg","",""
"explore-choice","91","240800","0.0-91.0","p508360","ABBP9JASL9AGK","3OWZNK3RYMVDNXPNEIRWZ8JM6MU2UY","32SVAV9L3HFLGQ522FTB7179O8V3AG","emotion","mismatch","uniform","","","","","","","1776.199999988079","240561.40000000596","242337.59999999404","[""stimuli/BM16_CC.jpg"",""stimuli/BF04_DO.jpg"",""stimuli/HF09_AO.jpg"",""stimuli/HM07_SUR.jpg""]","stimuli/BM16_CC.jpg","stimuli/BF04_DO.jpg","stimuli/HF09_AO.jpg","stimuli/HM07_SUR.jpg","pos1","stimuli/BM16_CC.jpg","CC","BM16","0","3.5","7","8","stimuli/stars_7.png","169.5","[""CC"",""DO"",""AO"",""SUR""]","[""BM16"",""BF04"",""HF09"",""HM07""]","[7,5,4,3]","[8,6,4,2]","","",""
"show-reward","92","242803","0.0-92.0","p508360","ABBP9JASL9AGK","3OWZNK3RYMVDNXPNEIRWZ8JM6MU2UY","32SVAV9L3HFLGQ522FTB7179O8V3AG","emotion","mismatch","uniform","","","","","","","","242838.69999998808","244840.59999999404","","","","","","","","","","","","7","","stimuli/stars_7.png","169.5","","","","","stimuli/BM16_CC.jpg","",""
"explore-choice","93","245400","0.0-93.0","p508360","ABBP9JASL9AGK","3OWZNK3RYMVDNXPNEIRWZ8JM6MU2UY","32SVAV9L3HFLGQ522FTB7179O8V3AG","emotion","mismatch","uniform","","","","","","","2095.4000000059605","244841.5","246936.90000000596","[""stimuli/BM16_DO.jpg"",""stimuli/BF04_AO.jpg"",""stimuli/HM07_CC.jpg"",""stimuli/HF09_SUR.jpg""]","stimuli/BM16_DO.jpg","stimuli/BF04_AO.jpg","stimuli/HM07_CC.jpg","stimuli/HF09_SUR.jpg","pos3","stimuli/HM07_CC.jpg","CC","HM07","2","4.5","9","8","stimuli/stars_9.png","174","[""DO"",""AO"",""CC"",""SUR""]","[""BM16"",""BF04"",""HM07"",""HF09""]","[7,3,9,2]","[6,4,8,2]","","",""
"show-reward","94","247406","0.0-94.0","p508360","ABBP9JASL9AGK","3OWZNK3RYMVDNXPNEIRWZ8JM6MU2UY","32SVAV9L3HFLGQ522FTB7179O8V3AG","emotion","mismatch","uniform","","","","","","","","247439.19999998808","249444","","","","","","","","","","","","9","","stimuli/stars_9.png","174","","","","","stimuli/HM07_CC.jpg","",""
"explore-choice","95","250618","0.0-95.0","p508360","ABBP9JASL9AGK","3OWZNK3RYMVDNXPNEIRWZ8JM6MU2UY","32SVAV9L3HFLGQ522FTB7179O8V3AG","emotion","mismatch","uniform","","","","","","","2710.199999988079","249445","252155.19999998808","[""stimuli/BM16_DO.jpg"",""stimuli/HM07_AO.jpg"",""stimuli/BF04_SUR.jpg"",""stimuli/HF09_CC.jpg""]","stimuli/BM16_DO.jpg","stimuli/HM07_AO.jpg","stimuli/BF04_SUR.jpg","stimuli/HF09_CC.jpg","pos4","stimuli/HF09_CC.jpg","CC","HF09","3","3.5","7","8","stimuli/stars_7.png","177.5","[""DO"",""AO"",""SUR"",""CC""]","[""BM16"",""HM07"",""BF04"",""HF09""]","[5,6,2,7]","[6,4,2,8]","","",""
"show-reward","96","252626","0.0-96.0","p508360","ABBP9JASL9AGK","3OWZNK3RYMVDNXPNEIRWZ8JM6MU2UY","32SVAV9L3HFLGQ522FTB7179O8V3AG","emotion","mismatch","uniform","","","","","","","","252656.19999998808","254663.40000000596","","","","","","","","","","","","7","","stimuli/stars_7.png","177.5","","","","","stimuli/HF09_CC.jpg","",""
"explore-choice","97","255469","0.0-97.0","p508360","ABBP9JASL9AGK","3OWZNK3RYMVDNXPNEIRWZ8JM6MU2UY","32SVAV9L3HFLGQ522FTB7179O8V3AG","emotion","mismatch","uniform","","","","","","","2341.5999999940395","254663.90000000596","257005.5","[""stimuli/HF09_DO.jpg"",""stimuli/BF04_SUR.jpg"",""stimuli/BM16_AO.jpg"",""stimuli/HM07_CC.jpg""]","stimuli/HF09_DO.jpg","stimuli/BF04_SUR.jpg","stimuli/BM16_AO.jpg","stimuli/HM07_CC.jpg","pos4","stimuli/HM07_CC.jpg","CC","HM07","3","4.5","9","8","stimuli/stars_9.png","182","[""DO"",""SUR"",""AO"",""CC""]","[""HF09"",""BF04"",""BM16"",""HM07""]","[6,0,4,9]","[6,2,4,8]","","",""
"show-reward","98","257476","0.0-98.0","p508360","ABBP9JASL9AGK","3OWZNK3RYMVDNXPNEIRWZ8JM6MU2UY","32SVAV9L3HFLGQ522FTB7179O8V3AG","emotion","mismatch","uniform","","","","","","","","257507.40000000596","259513.69999998808","","","","","","","","","","","","9","","stimuli/stars_9.png","182","","","","","stimuli/HM07_CC.jpg","",""
"explore-choice","99","259002","0.0-99.0","p508360","ABBP9JASL9AGK","3OWZNK3RYMVDNXPNEIRWZ8JM6MU2UY","32SVAV9L3HFLGQ522FTB7179O8V3AG","emotion","mismatch","uniform","","","","","","","1024.7000000178814","259514.69999998808","260539.40000000596","[""stimuli/BF04_CC.jpg"",""stimuli/HF09_AO.jpg"",""stimuli/BM16_SUR.jpg"",""stimuli/HM07_DO.jpg""]","stimuli/BF04_CC.jpg","stimuli/HF09_AO.jpg","stimuli/BM16_SUR.jpg","stimuli/HM07_DO.jpg","pos1","stimuli/BF04_CC.jpg","CC","BF04","0","3","6","8","stimuli/stars_6.png","185","[""CC"",""AO"",""SUR"",""DO""]","[""BF04"",""HF09"",""BM16"",""HM07""]","[6,5,3,4]","[8,4,2,6]","","",""
"show-reward","100","261007","0.0-100.0","p508360","ABBP9JASL9AGK","3OWZNK3RYMVDNXPNEIRWZ8JM6MU2UY","32SVAV9L3HFLGQ522FTB7179O8V3AG","emotion","mismatch","uniform","","","","","","","","261041.40000000596","263045","","","","","","","","","","","","6","","stimuli/stars_6.png","185","","","","","stimuli/BF04_CC.jpg","",""
"explore-choice","101","264435","0.0-101.0","p508360","ABBP9JASL9AGK","3OWZNK3RYMVDNXPNEIRWZ8JM6MU2UY","32SVAV9L3HFLGQ522FTB7179O8V3AG","emotion","mismatch","uniform","","","","","","","2926.5999999940395","263045.90000000596","265972.5","[""stimuli/BF04_DO.jpg"",""stimuli/HF09_SUR.jpg"",""stimuli/HM07_AO.jpg"",""stimuli/BM16_CC.jpg""]","stimuli/BF04_DO.jpg","stimuli/HF09_SUR.jpg","stimuli/HM07_AO.jpg","stimuli/BM16_CC.jpg","pos4","stimuli/BM16_CC.jpg","CC","BM16","3","4.5","9","8","stimuli/stars_9.png","189.5","[""DO"",""SUR"",""AO"",""CC""]","[""BF04"",""HF09"",""HM07"",""BM16""]","[6,2,4,9]","[6,2,4,8]","","",""
"show-reward","102","266441","0.0-102.0","p508360","ABBP9JASL9AGK","3OWZNK3RYMVDNXPNEIRWZ8JM6MU2UY","32SVAV9L3HFLGQ522FTB7179O8V3AG","emotion","mismatch","uniform","","","","","","","","266474.59999999404","268478.59999999404","","","","","","","","","","","","9","","stimuli/stars_9.png","189.5","","","","","stimuli/BM16_CC.jpg","",""
"explore-choice","103","270470","0.0-103.0","p508360","ABBP9JASL9AGK","3OWZNK3RYMVDNXPNEIRWZ8JM6MU2UY","32SVAV9L3HFLGQ522FTB7179O8V3AG","emotion","mismatch","uniform","","","","","","","3525.2000000178814","268479.59999999404","272004.8000000119","[""stimuli/AM06_SC.jpg"",""stimuli/AF02_HE.jpg"",""stimuli/AM05_HO.jpg"",""stimuli/BM03_FO.jpg""]","stimuli/AM06_SC.jpg","stimuli/AF02_HE.jpg","stimuli/AM05_HO.jpg","stimuli/BM03_FO.jpg","pos3","stimuli/AM05_HO.jpg","HO","AM05","2","4","8","8","stimuli/stars_8.png","193.5","[""SC"",""HE"",""HO"",""FO""]","[""AM06"",""AF02"",""AM05"",""BM03""]","[6,5,8,2]","[6,4,8,2]","","",""
"show-reward","104","272478","0.0-104.0","p508360","ABBP9JASL9AGK","3OWZNK3RYMVDNXPNEIRWZ8JM6MU2UY","32SVAV9L3HFLGQ522FTB7179O8V3AG","emotion","mismatch","uniform","","","","","","","","272508.40000000596","274515.3000000119","","","","","","","","","","","","8","","stimuli/stars_8.png","193.5","","","","","stimuli/AM05_HO.jpg","",""
"explore-choice","105","275987","0.0-105.0","p508360","ABBP9JASL9AGK","3OWZNK3RYMVDNXPNEIRWZ8JM6MU2UY","32SVAV9L3HFLGQ522FTB7179O8V3AG","emotion","mismatch","uniform","","","","","","","3007","274516.3000000119","277523.3000000119","[""stimuli/BM03_HO.jpg"",""stimuli/AF02_FO.jpg"",""stimuli/AM06_HE.jpg"",""stimuli/AM05_SC.jpg""]","stimuli/BM03_HO.jpg","stimuli/AF02_FO.jpg","stimuli/AM06_HE.jpg","stimuli/AM05_SC.jpg","pos1","stimuli/BM03_HO.jpg","HO","BM03","0","1","2","2","stimuli/stars_2.png","194.5","[""HO"",""FO"",""HE"",""SC""]","[""BM03"",""AF02"",""AM06"",""AM05""]","[2,3,5,7]","[2,4,6,8]","","",""
"show-reward","106","277993","0.0-106.0","p508360","ABBP9JASL9AGK","3OWZNK3RYMVDNXPNEIRWZ8JM6MU2UY","32SVAV9L3HFLGQ522FTB7179O8V3AG","emotion","mismatch","uniform","","","","","","","","278025.09999999404","280029.90000000596","","","","","","","","","","","","2","","stimuli/stars_2.png","194.5","","","","","stimuli/BM03_HO.jpg","",""
"explore-choice","107","280420","0.0-107.0","p508360","ABBP9JASL9AGK","3OWZNK3RYMVDNXPNEIRWZ8JM6MU2UY","32SVAV9L3HFLGQ522FTB7179O8V3AG","emotion","mismatch","uniform","","","","","","","1924.800000011921","280031","281955.8000000119","[""stimuli/AM06_FO.jpg"",""stimuli/AM05_HO.jpg"",""stimuli/AF02_HE.jpg"",""stimuli/BM03_SC.jpg""]","stimuli/AM06_FO.jpg","stimuli/AM05_HO.jpg","stimuli/AF02_HE.jpg","stimuli/BM03_SC.jpg","pos3","stimuli/AF02_HE.jpg","HE","AF02","2","3","6","4","stimuli/stars_6.png","197.5","[""FO"",""HO"",""HE"",""SC""]","[""AM06"",""AM05"",""AF02"",""BM03""]","[8,6,6,0]","[6,8,4,2]","","",""
"show-reward","108","282429","0.0-108.0","p508360","ABBP9JASL9AGK","3OWZNK3RYMVDNXPNEIRWZ8JM6MU2UY","32SVAV9L3HFLGQ522FTB7179O8V3AG","emotion","mismatch","uniform","","","","","","","","282458.59999999404","284465.40000000596","","","","","","","","","","","","6","","stimuli/stars_6.png","197.5","","","","","stimuli/AF02_HE.jpg","",""
"explore-choice","109","292471","0.0-109.0","p508360","ABBP9JASL9AGK","3OWZNK3RYMVDNXPNEIRWZ8JM6MU2UY","32SVAV9L3HFLGQ522FTB7179O8V3AG","emotion","mismatch","uniform","","","","","","","9541.399999976158","284466.3000000119","294007.6999999881","[""stimuli/AF02_FO.jpg"",""stimuli/BM03_HE.jpg"",""stimuli/AM06_SC.jpg"",""stimuli/AM05_HO.jpg""]","stimuli/AF02_FO.jpg","stimuli/BM03_HE.jpg","stimuli/AM06_SC.jpg","stimuli/AM05_HO.jpg","pos4","stimuli/AM05_HO.jpg","HO","AM05","3","5","10","8","stimuli/stars_10.png","202.5","[""FO"",""HE"",""SC"",""HO""]","[""AF02"",""BM03"",""AM06"",""AM05""]","[3,2,4,10]","[4,2,6,8]","","",""
"show-reward","110","294477","0.0-110.0","p508360","ABBP9JASL9AGK","3OWZNK3RYMVDNXPNEIRWZ8JM6MU2UY","32SVAV9L3HFLGQ522FTB7179O8V3AG","emotion","mismatch","uniform","","","","","","","","294509","296513.59999999404","","","","","","","","","","","","10","","stimuli/stars_10.png","202.5","","","","","stimuli/AM05_HO.jpg","",""
"explore-choice","111","296372","0.0-111.0","p508360","ABBP9JASL9AGK","3OWZNK3RYMVDNXPNEIRWZ8JM6MU2UY","32SVAV9L3HFLGQ522FTB7179O8V3AG","emotion","mismatch","uniform","","","","","","","1393.4000000059605","296514.59999999404","297908","[""stimuli/AF02_SC.jpg"",""stimuli/BM03_HO.jpg"",""stimuli/AM06_FO.jpg"",""stimuli/AM05_HE.jpg""]","stimuli/AF02_SC.jpg","stimuli/BM03_HO.jpg","stimuli/AM06_FO.jpg","stimuli/AM05_HE.jpg","pos4","stimuli/AM05_HE.jpg","HE","AM05","3","3.5","7","8","stimuli/stars_7.png","206","[""SC"",""HO"",""FO"",""HE""]","[""AF02"",""BM03"",""AM06"",""AM05""]","[6,4,6,7]","[4,2,6,8]","","",""
"show-reward","112","298378","0.0-112.0","p508360","ABBP9JASL9AGK","3OWZNK3RYMVDNXPNEIRWZ8JM6MU2UY","32SVAV9L3HFLGQ522FTB7179O8V3AG","emotion","mismatch","uniform","","","","","","","","298408.90000000596","300413.90000000596","","","","","","","","","","","","7","","stimuli/stars_7.png","206","","","","","stimuli/AM05_HE.jpg","",""
"explore-choice","113","301524","0.0-113.0","p508360","ABBP9JASL9AGK","3OWZNK3RYMVDNXPNEIRWZ8JM6MU2UY","32SVAV9L3HFLGQ522FTB7179O8V3AG","emotion","mismatch","uniform","","","","","","","2643.5","300414.8000000119","303058.3000000119","[""stimuli/BM03_FO.jpg"",""stimuli/AM05_SC.jpg"",""stimuli/AF02_HO.jpg"",""stimuli/AM06_HE.jpg""]","stimuli/BM03_FO.jpg","stimuli/AM05_SC.jpg","stimuli/AF02_HO.jpg","stimuli/AM06_HE.jpg","pos3","stimuli/AF02_HO.jpg","HO","AF02","2","1.5","3","4","stimuli/stars_3.png","207.5","[""FO"",""SC"",""HO"",""HE""]","[""BM03"",""AM05"",""AF02"",""AM06""]","[3,8,3,8]","[2,8,4,6]","","",""
"show-reward","114","303528","0.0-114.0","p508360","ABBP9JASL9AGK","3OWZNK3RYMVDNXPNEIRWZ8JM6MU2UY","32SVAV9L3HFLGQ522FTB7179O8V3AG","emotion","mismatch","uniform","","","","","","","","303561","305563.8000000119","","","","","","","","","","","","3","","stimuli/stars_3.png","207.5","","","","","stimuli/AF02_HO.jpg","",""
"explore-choice","115","305074","0.0-115.0","p508360","ABBP9JASL9AGK","3OWZNK3RYMVDNXPNEIRWZ8JM6MU2UY","32SVAV9L3HFLGQ522FTB7179O8V3AG","emotion","mismatch","uniform","","","","","","","1043.3999999761581","305564.8000000119","306608.1999999881","[""stimuli/BM03_FO.jpg"",""stimuli/AM05_HO.jpg"",""stimuli/AF02_SC.jpg"",""stimuli/AM06_HE.jpg""]","stimuli/BM03_FO.jpg","stimuli/AM05_HO.jpg","stimuli/AF02_SC.jpg","stimuli/AM06_HE.jpg","pos4","stimuli/AM06_HE.jpg","HE","AM06","3","4","8","6","stimuli/stars_8.png","211.5","[""FO"",""HO"",""SC"",""HE""]","[""BM03"",""AM05"",""AF02"",""AM06""]","[3,9,4,8]","[2,8,4,6]","","",""
"show-reward","116","307077","0.0-116.0","p508360","ABBP9JASL9AGK","3OWZNK3RYMVDNXPNEIRWZ8JM6MU2UY","32SVAV9L3HFLGQ522FTB7179O8V3AG","emotion","mismatch","uniform","","","","","","","","307110.6999999881","309113.09999999404","","","","","","","","","","","","8","","stimuli/stars_8.png","211.5","","","","","stimuli/AM06_HE.jpg","",""
"explore-choice","117","308992","0.0-117.0","p508360","ABBP9JASL9AGK","3OWZNK3RYMVDNXPNEIRWZ8JM6MU2UY","32SVAV9L3HFLGQ522FTB7179O8V3AG","emotion","mismatch","uniform","","","","","","","1411.199999988079","309114","310525.1999999881","[""stimuli/AM05_SC.jpg"",""stimuli/AM06_HO.jpg"",""stimuli/AF02_HE.jpg"",""stimuli/BM03_FO.jpg""]","stimuli/AM05_SC.jpg","stimuli/AM06_HO.jpg","stimuli/AF02_HE.jpg","stimuli/BM03_FO.jpg","pos2","stimuli/AM06_HO.jpg","HO","AM06","1","2.5","5","6","stimuli/stars_5.png","214","[""SC"",""HO"",""HE"",""FO""]","[""AM05"",""AM06"",""AF02"",""BM03""]","[9,5,3,4]","[8,6,4,2]","","",""
"show-reward","118","310997","0.0-118.0","p508360","ABBP9JASL9AGK","3OWZNK3RYMVDNXPNEIRWZ8JM6MU2UY","32SVAV9L3HFLGQ522FTB7179O8V3AG","emotion","mismatch","uniform","","","","","","","","311029.40000000596","313032.59999999404","","","","","","","","","","","","5","","stimuli/stars_5.png","214","","","","","stimuli/AM06_HO.jpg","",""
"explore-choice","119","312708","0.0-119.0","p508360","ABBP9JASL9AGK","3OWZNK3RYMVDNXPNEIRWZ8JM6MU2UY","32SVAV9L3HFLGQ522FTB7179O8V3AG","emotion","mismatch","uniform","","","","","","","1209.199999988079","313033.5","314242.6999999881","[""stimuli/BM03_FO.jpg"",""stimuli/AM05_HE.jpg"",""stimuli/AF02_SC.jpg"",""stimuli/AM06_HO.jpg""]","stimuli/BM03_FO.jpg","stimuli/AM05_HE.jpg","stimuli/AF02_SC.jpg","stimuli/AM06_HO.jpg","pos2","stimuli/AM05_HE.jpg","HE","AM05","1","4","8","8","stimuli/stars_8.png","218","[""FO"",""HE"",""SC"",""HO""]","[""BM03"",""AM05"",""AF02"",""AM06""]","[0,8,5,6]","[2,8,4,6]","","",""
"show-reward","120","314716","0.0-120.0","p508360","ABBP9JASL9AGK","3OWZNK3RYMVDNXPNEIRWZ8JM6MU2UY","32SVAV9L3HFLGQ522FTB7179O8V3AG","emotion","mismatch","uniform","","","","","","","","314744.6999999881","316751.90000000596","","","","","","","","","","","","8","","stimuli/stars_8.png","218","","","","","stimuli/AM05_HE.jpg","",""
"explore-choice","121","317143","0.0-121.0","p508360","ABBP9JASL9AGK","3OWZNK3RYMVDNXPNEIRWZ8JM6MU2UY","32SVAV9L3HFLGQ522FTB7179O8V3AG","emotion","mismatch","uniform","","","","","","","1921.9000000059605","316753.40000000596","318675.3000000119","[""stimuli/AM05_SC.jpg"",""stimuli/AF02_FO.jpg"",""stimuli/AM06_HO.jpg"",""stimuli/BM03_HE.jpg""]","stimuli/AM05_SC.jpg","stimuli/AF02_FO.jpg","stimuli/AM06_HO.jpg","stimuli/BM03_HE.jpg","pos3","stimuli/AM06_HO.jpg","HO","AM06","2","2","4","6","stimuli/stars_4.png","220","[""SC"",""FO"",""HO"",""HE""]","[""AM05"",""AF02"",""AM06"",""BM03""]","[6,4,4,3]","[8,4,6,2]","","",""
"show-reward","122","319151","0.0-122.0","p508360","ABBP9JASL9AGK","3OWZNK3RYMVDNXPNEIRWZ8JM6MU2UY","32SVAV9L3HFLGQ522FTB7179O8V3AG","emotion","mismatch","uniform","","","","","","","","319179.90000000596","321187.1999999881","","","","","","","","","","","","4","","stimuli/stars_4.png","220","","","","","stimuli/AM06_HO.jpg","",""
"explore-choice","123","322124","0.0-123.0","p508360","ABBP9JASL9AGK","3OWZNK3RYMVDNXPNEIRWZ8JM6MU2UY","32SVAV9L3HFLGQ522FTB7179O8V3AG","emotion","mismatch","uniform","","","","","","","2470.5999999940395","321188.09999999404","323658.6999999881","[""stimuli/BM03_SC.jpg"",""stimuli/AM06_HO.jpg"",""stimuli/AF02_HE.jpg"",""stimuli/AM05_FO.jpg""]","stimuli/BM03_SC.jpg","stimuli/AM06_HO.jpg","stimuli/AF02_HE.jpg","stimuli/AM05_FO.jpg","pos2","stimuli/AM06_HO.jpg","HO","AM06","1","2.5","5","6","stimuli/stars_5.png","222.5","[""SC"",""HO"",""HE"",""FO""]","[""BM03"",""AM06"",""AF02"",""AM05""]","[4,5,6,10]","[2,6,4,8]","","",""
"show-reward","124","324132","0.0-124.0","p508360","ABBP9JASL9AGK","3OWZNK3RYMVDNXPNEIRWZ8JM6MU2UY","32SVAV9L3HFLGQ522FTB7179O8V3AG","emotion","mismatch","uniform","","","","","","","","324160.6999999881","326167.59999999404","","","","","","","","","","","","5","","stimuli/stars_5.png","222.5","","","","","stimuli/AM06_HO.jpg","",""
"explore-choice","125","328099","0.0-125.0","p508360","ABBP9JASL9AGK","3OWZNK3RYMVDNXPNEIRWZ8JM6MU2UY","32SVAV9L3HFLGQ522FTB7179O8V3AG","emotion","mismatch","uniform","","","","","","","3461.0999999940395","326168.59999999404","329629.6999999881","[""stimuli/AM06_SC.jpg"",""stimuli/AM05_FO.jpg"",""stimuli/BM03_HO.jpg"",""stimuli/AF02_HE.jpg""]","stimuli/AM06_SC.jpg","stimuli/AM05_FO.jpg","stimuli/BM03_HO.jpg","stimuli/AF02_HE.jpg","pos4","stimuli/AF02_HE.jpg","HE","AF02","3","3","6","4","stimuli/stars_6.png","225.5","[""SC"",""FO"",""HO"",""HE""]","[""AM06"",""AM05"",""BM03"",""AF02""]","[7,7,2,6]","[6,8,2,4]","","",""
"show-reward","126","330103","0.0-126.0","p508360","ABBP9JASL9AGK","3OWZNK3RYMVDNXPNEIRWZ8JM6MU2UY","32SVAV9L3HFLGQ522FTB7179O8V3AG","emotion","mismatch","uniform","","","","","","","","330135.3000000119","332138.1999999881","","","","","","","","","","","","6","","stimuli/stars_6.png","225.5","","","","","stimuli/AF02_HE.jpg","",""
"explore-choice","127","333725","0.0-127.0","p508360","ABBP9JASL9AGK","3OWZNK3RYMVDNXPNEIRWZ8JM6MU2UY","32SVAV9L3HFLGQ522FTB7179O8V3AG","emotion","mismatch","uniform","","","","","","","3121.300000011921","332139.1999999881","335260.5","[""stimuli/AM06_HO.jpg"",""stimuli/BM03_HE.jpg"",""stimuli/AM05_FO.jpg"",""stimuli/AF02_SC.jpg""]","stimuli/AM06_HO.jpg","stimuli/BM03_HE.jpg","stimuli/AM05_FO.jpg","stimuli/AF02_SC.jpg","pos2","stimuli/BM03_HE.jpg","HE","BM03","1","0","0","2","stimuli/stars_0.png","225.5","[""HO"",""HE"",""FO"",""SC""]","[""AM06"",""BM03"",""AM05"",""AF02""]","[4,0,7,6]","[6,2,8,4]","","",""
"show-reward","128","335730","0.0-128.0","p508360","ABBP9JASL9AGK","3OWZNK3RYMVDNXPNEIRWZ8JM6MU2UY","32SVAV9L3HFLGQ522FTB7179O8V3AG","emotion","mismatch","uniform","","","","","","","","335761.5","337765.40000000596","","","","","","","","","","","","0","","stimuli/stars_0.png","225.5","","","","","stimuli/BM03_HE.jpg","",""
"explore-choice","129","337797","0.0-129.0","p508360","ABBP9JASL9AGK","3OWZNK3RYMVDNXPNEIRWZ8JM6MU2UY","32SVAV9L3HFLGQ522FTB7179O8V3AG","emotion","mismatch","uniform","","","","","","","1561.5","337766","339327.5","[""stimuli/AF02_HO.jpg"",""stimuli/BM03_SC.jpg"",""stimuli/AM05_FO.jpg"",""stimuli/AM06_HE.jpg""]","stimuli/AF02_HO.jpg","stimuli/BM03_SC.jpg","stimuli/AM05_FO.jpg","stimuli/AM06_HE.jpg","pos4","stimuli/AM06_HE.jpg","HE","AM06","3","4","8","6","stimuli/stars_8.png","229.5","[""HO"",""SC"",""FO"",""HE""]","[""AF02"",""BM03"",""AM05"",""AM06""]","[4,2,8,8]","[4,2,8,6]","","",""
"show-reward","130","339800","0.0-130.0","p508360","ABBP9JASL9AGK","3OWZNK3RYMVDNXPNEIRWZ8JM6MU2UY","32SVAV9L3HFLGQ522FTB7179O8V3AG","emotion","mismatch","uniform","","","","","","","","339832.90000000596","341835.1999999881","","","","","","","","","","","","8","","stimuli/stars_8.png","229.5","","","","","stimuli/AM06_HE.jpg","",""
"explore-choice","131","342464","0.0-131.0","p508360","ABBP9JASL9AGK","3OWZNK3RYMVDNXPNEIRWZ8JM6MU2UY","32SVAV9L3HFLGQ522FTB7179O8V3AG","emotion","mismatch","uniform","","","","","","","2157.5","341836.3000000119","343993.8000000119","[""stimuli/BM03_SC.jpg"",""stimuli/AM06_HO.jpg"",""stimuli/AM05_HE.jpg"",""stimuli/AF02_FO.jpg""]","stimuli/BM03_SC.jpg","stimuli/AM06_HO.jpg","stimuli/AM05_HE.jpg","stimuli/AF02_FO.jpg","pos2","stimuli/AM06_HO.jpg","HO","AM06","1","2.5","5","6","stimuli/stars_5.png","232","[""SC"",""HO"",""HE"",""FO""]","[""BM03"",""AM06"",""AM05"",""AF02""]","[3,5,10,3]","[2,6,8,4]","","",""
"show-reward","132","344471","0.0-132.0","p508360","ABBP9JASL9AGK","3OWZNK3RYMVDNXPNEIRWZ8JM6MU2UY","32SVAV9L3HFLGQ522FTB7179O8V3AG","emotion","mismatch","uniform","","","","","","","","344499.59999999404","346506.5","","","","","","","","","","","","5","","stimuli/stars_5.png","232","","","","","stimuli/AM06_HO.jpg","",""
"explore-choice","133","346514","0.0-133.0","p508360","ABBP9JASL9AGK","3OWZNK3RYMVDNXPNEIRWZ8JM6MU2UY","32SVAV9L3HFLGQ522FTB7179O8V3AG","emotion","mismatch","uniform","","","","","","","1536.199999988079","346507.5","348043.6999999881","[""stimuli/BM03_HE.jpg"",""stimuli/AF02_SC.jpg"",""stimuli/AM05_HO.jpg"",""stimuli/AM06_FO.jpg""]","stimuli/BM03_HE.jpg","stimuli/AF02_SC.jpg","stimuli/AM05_HO.jpg","stimuli/AM06_FO.jpg","pos3","stimuli/AM05_HO.jpg","HO","AM05","2","4","8","8","stimuli/stars_8.png","236","[""HE"",""SC"",""HO"",""FO""]","[""BM03"",""AF02"",""AM05"",""AM06""]","[4,3,8,8]","[2,4,8,6]","","",""
"show-reward","134","348522","0.0-134.0","p508360","ABBP9JASL9AGK","3OWZNK3RYMVDNXPNEIRWZ8JM6MU2UY","32SVAV9L3HFLGQ522FTB7179O8V3AG","emotion","mismatch","uniform","","","","","","","","348549.90000000596","350557.09999999404","","","","","","","","","","","","8","","stimuli/stars_8.png","236","","","","","stimuli/AM05_HO.jpg","",""
"explore-choice","135","350012","0.0-135.0","p508360","ABBP9JASL9AGK","3OWZNK3RYMVDNXPNEIRWZ8JM6MU2UY","32SVAV9L3HFLGQ522FTB7179O8V3AG","emotion","mismatch","uniform","","","","","","","987.3000000119209","350558.09999999404","351545.40000000596","[""stimuli/AM05_HE.jpg"",""stimuli/AF02_HO.jpg"",""stimuli/AM06_FO.jpg"",""stimuli/BM03_SC.jpg""]","stimuli/AM05_HE.jpg","stimuli/AF02_HO.jpg","stimuli/AM06_FO.jpg","stimuli/BM03_SC.jpg","pos1","stimuli/AM05_HE.jpg","HE","AM05","0","5","10","8","stimuli/stars_10.png","241","[""HE"",""HO"",""FO"",""SC""]","[""AM05"",""AF02"",""AM06"",""BM03""]","[10,2,4,1]","[8,4,6,2]","","",""
"show-reward","136","352015","0.0-136.0","p508360","ABBP9JASL9AGK","3OWZNK3RYMVDNXPNEIRWZ8JM6MU2UY","32SVAV9L3HFLGQ522FTB7179O8V3AG","emotion","mismatch","uniform","","","","","","","","352047.40000000596","354050.1999999881","","","","","","","","","","","","10","","stimuli/stars_10.png","241","","","","","stimuli/AM05_HE.jpg","",""
"explore-choice","137","354679","0.0-137.0","p508360","ABBP9JASL9AGK","3OWZNK3RYMVDNXPNEIRWZ8JM6MU2UY","32SVAV9L3HFLGQ522FTB7179O8V3AG","emotion","mismatch","uniform","","","","","","","2161.100000023842","354050.6999999881","356211.8000000119","[""stimuli/BM03_HO.jpg"",""stimuli/AM05_SC.jpg"",""stimuli/AF02_HE.jpg"",""stimuli/AM06_FO.jpg""]","stimuli/BM03_HO.jpg","stimuli/AM05_SC.jpg","stimuli/AF02_HE.jpg","stimuli/AM06_FO.jpg","pos3","stimuli/AF02_HE.jpg","HE","AF02","2","2","4","4","stimuli/stars_4.png","243","[""HO"",""SC"",""HE"",""FO""]","[""BM03"",""AM05"",""AF02"",""AM06""]","[4,9,4,4]","[2,8,4,6]","","",""
"show-reward","138","356687","0.0-138.0","p508360","ABBP9JASL9AGK","3OWZNK3RYMVDNXPNEIRWZ8JM6MU2UY","32SVAV9L3HFLGQ522FTB7179O8V3AG","emotion","mismatch","uniform","","","","","","","","356714.6999999881","358721.8000000119","","","","","","","","","","","","4","","stimuli/stars_4.png","243","","","","","stimuli/AF02_HE.jpg","",""
"explore-choice","139","368696","0.0-139.0","p508360","ABBP9JASL9AGK","3OWZNK3RYMVDNXPNEIRWZ8JM6MU2UY","32SVAV9L3HFLGQ522FTB7179O8V3AG","emotion","mismatch","uniform","","","","","","","11506.5","358723","370229.5","[""stimuli/AM05_HE.jpg"",""stimuli/AF02_HO.jpg"",""stimuli/AM06_SC.jpg"",""stimuli/BM03_FO.jpg""]","stimuli/AM05_HE.jpg","stimuli/AF02_HO.jpg","stimuli/AM06_SC.jpg","stimuli/BM03_FO.jpg","pos1","stimuli/AM05_HE.jpg","HE","AM05","0","3","6","8","stimuli/stars_6.png","246","[""HE"",""HO"",""SC"",""FO""]","[""AM05"",""AF02"",""AM06"",""BM03""]","[6,6,4,1]","[8,4,6,2]","","",""
"show-reward","140","370701","0.0-140.0","p508360","ABBP9JASL9AGK","3OWZNK3RYMVDNXPNEIRWZ8JM6MU2UY","32SVAV9L3HFLGQ522FTB7179O8V3AG","emotion","mismatch","uniform","","","","","","","","370731.40000000596","372735.40000000596","","","","","","","","","","","","6","","stimuli/stars_6.png","246","","","","","stimuli/AM05_HE.jpg","",""
"explore-choice","141","372815","0.0-141.0","p508360","ABBP9JASL9AGK","3OWZNK3RYMVDNXPNEIRWZ8JM6MU2UY","32SVAV9L3HFLGQ522FTB7179O8V3AG","emotion","mismatch","uniform","","","","","","","1610.5999999940395","372736.5","374347.09999999404","[""stimuli/AM06_HE.jpg"",""stimuli/AM05_HO.jpg"",""stimuli/BM03_SC.jpg"",""stimuli/AF02_FO.jpg""]","stimuli/AM06_HE.jpg","stimuli/AM05_HO.jpg","stimuli/BM03_SC.jpg","stimuli/AF02_FO.jpg","pos2","stimuli/AM05_HO.jpg","HO","AM05","1","3.5","7","8","stimuli/stars_7.png","249.5","[""HE"",""HO"",""SC"",""FO""]","[""AM06"",""AM05"",""BM03"",""AF02""]","[6,7,2,3]","[6,8,2,4]","","",""
"show-reward","142","374823","0.0-142.0","p508360","ABBP9JASL9AGK","3OWZNK3RYMVDNXPNEIRWZ8JM6MU2UY","32SVAV9L3HFLGQ522FTB7179O8V3AG","emotion","mismatch","uniform","","","","","","","","374849.59999999404","376856.90000000596","","","","","","","","","","","","7","","stimuli/stars_7.png","249.5","","","","","stimuli/AM05_HO.jpg","",""
"explore-choice","143","378399","0.0-143.0","p508360","ABBP9JASL9AGK","3OWZNK3RYMVDNXPNEIRWZ8JM6MU2UY","32SVAV9L3HFLGQ522FTB7179O8V3AG","emotion","mismatch","uniform","","","","","","","3072.199999988079","376858","379930.1999999881","[""stimuli/AM06_HE.jpg"",""stimuli/AF02_SC.jpg"",""stimuli/AM05_FO.jpg"",""stimuli/BM03_HO.jpg""]","stimuli/AM06_HE.jpg","stimuli/AF02_SC.jpg","stimuli/AM05_FO.jpg","stimuli/BM03_HO.jpg","pos1","stimuli/AM06_HE.jpg","HE","AM06","0","4","8","6","stimuli/stars_8.png","253.5","[""HE"",""SC"",""FO"",""HO""]","[""AM06"",""AF02"",""AM05"",""BM03""]","[8,4,9,2]","[6,4,8,2]","","",""
"show-reward","144","380407","0.0-144.0","p508360","ABBP9JASL9AGK","3OWZNK3RYMVDNXPNEIRWZ8JM6MU2UY","32SVAV9L3HFLGQ522FTB7179O8V3AG","emotion","mismatch","uniform","","","","","","","","380433.90000000596","382441.09999999404","","","","","","","","","","","","8","","stimuli/stars_8.png","253.5","","","","","stimuli/AM06_HE.jpg","",""
"explore-choice","145","383430","0.0-145.0","p508360","ABBP9JASL9AGK","3OWZNK3RYMVDNXPNEIRWZ8JM6MU2UY","32SVAV9L3HFLGQ522FTB7179O8V3AG","emotion","mismatch","uniform","","","","","","","2521.5999999940395","382442.09999999404","384963.6999999881","[""stimuli/AF02_HO.jpg"",""stimuli/BM03_HE.jpg"",""stimuli/AM05_SC.jpg"",""stimuli/AM06_FO.jpg""]","stimuli/AF02_HO.jpg","stimuli/BM03_HE.jpg","stimuli/AM05_SC.jpg","stimuli/AM06_FO.jpg","pos1","stimuli/AF02_HO.jpg","HO","AF02","0","1","2","4","stimuli/stars_2.png","254.5","[""HO"",""HE"",""SC"",""FO""]","[""AF02"",""BM03"",""AM05"",""AM06""]","[2,2,10,4]","[4,2,8,6]","","",""
"show-reward","146","385443","0.0-146.0","p508360","ABBP9JASL9AGK","3OWZNK3RYMVDNXPNEIRWZ8JM6MU2UY","32SVAV9L3HFLGQ522FTB7179O8V3AG","emotion","mismatch","uniform","","","","","","","","385464.59999999404","387476.6999999881","","","","","","","","","","","","2","","stimuli/stars_2.png","254.5","","","","","stimuli/AF02_HO.jpg","",""
"explore-choice","147","390567","0.0-147.0","p508360","ABBP9JASL9AGK","3OWZNK3RYMVDNXPNEIRWZ8JM6MU2UY","32SVAV9L3HFLGQ522FTB7179O8V3AG","emotion","mismatch","uniform","","","","","","","4620.700000017881","387477.1999999881","392097.90000000596","[""stimuli/AF02_FO.jpg"",""stimuli/AM06_SC.jpg"",""stimuli/BM03_HO.jpg"",""stimuli/AM05_HE.jpg""]","stimuli/AF02_FO.jpg","stimuli/AM06_SC.jpg","stimuli/BM03_HO.jpg","stimuli/AM05_HE.jpg","pos4","stimuli/AM05_HE.jpg","HE","AM05","3","5","10","8","stimuli/stars_10.png","259.5","[""FO"",""SC"",""HO"",""HE""]","[""AF02"",""AM06"",""BM03"",""AM05""]","[2,7,4,10]","[4,6,2,8]","","",""
"show-reward","148","392575","0.0-148.0","p508360","ABBP9JASL9AGK","3OWZNK3RYMVDNXPNEIRWZ8JM6MU2UY","32SVAV9L3HFLGQ522FTB7179O8V3AG","emotion","mismatch","uniform","","","","","","","","392601.3000000119","394608.59999999404","","","","","","","","","","","","10","","stimuli/stars_10.png","259.5","","","","","stimuli/AM05_HE.jpg","",""
"explore-choice","149","394966","0.0-149.0","p508360","ABBP9JASL9AGK","3OWZNK3RYMVDNXPNEIRWZ8JM6MU2UY","32SVAV9L3HFLGQ522FTB7179O8V3AG","emotion","mismatch","uniform","","","","","","","1888.300000011921","394609.6999999881","396498","[""stimuli/BM03_HE.jpg"",""stimuli/AF02_HO.jpg"",""stimuli/AM05_FO.jpg"",""stimuli/AM06_SC.jpg""]","stimuli/BM03_HE.jpg","stimuli/AF02_HO.jpg","stimuli/AM05_FO.jpg","stimuli/AM06_SC.jpg","pos2","stimuli/AF02_HO.jpg","HO","AF02","1","3","6","4","stimuli/stars_6.png","262.5","[""HE"",""HO"",""FO"",""SC""]","[""BM03"",""AF02"",""AM05"",""AM06""]","[4,6,7,7]","[2,4,8,6]","","",""
"show-reward","150","396971","0.0-150.0","p508360","ABBP9JASL9AGK","3OWZNK3RYMVDNXPNEIRWZ8JM6MU2UY","32SVAV9L3HFLGQ522FTB7179O8V3AG","emotion","mismatch","uniform","","","","","","","","397000.3000000119","399004.3000000119","","","","","","","","","","","","6","","stimuli/stars_6.png","262.5","","","","","stimuli/AF02_HO.jpg","",""
"explore-choice","151","399402","0.0-151.0","p508360","ABBP9JASL9AGK","3OWZNK3RYMVDNXPNEIRWZ8JM6MU2UY","32SVAV9L3HFLGQ522FTB7179O8V3AG","emotion","mismatch","uniform","","","","","","","1926.3999999761581","399005.3000000119","400931.6999999881","[""stimuli/AM05_FO.jpg"",""stimuli/AF02_HO.jpg"",""stimuli/AM06_SC.jpg"",""stimuli/BM03_HE.jpg""]","stimuli/AM05_FO.jpg","stimuli/AF02_HO.jpg","stimuli/AM06_SC.jpg","stimuli/BM03_HE.jpg","pos2","stimuli/AF02_HO.jpg","HO","AF02","1","3","6","4","stimuli/stars_6.png","265.5","[""FO"",""HO"",""SC"",""HE""]","[""AM05"",""AF02"",""AM06"",""BM03""]","[7,6,7,4]","[8,4,6,2]","","",""
"show-reward","152","401406","0.0-152.0","p508360","ABBP9JASL9AGK","3OWZNK3RYMVDNXPNEIRWZ8JM6MU2UY","32SVAV9L3HFLGQ522FTB7179O8V3AG","emotion","mismatch","uniform","","","","","","","","401436.40000000596","403438.8000000119","","","","","","","","","","","","6","","stimuli/stars_6.png","265.5","","","","","stimuli/AF02_HO.jpg","",""
"explore-choice","153","405068","0.0-153.0","p508360","ABBP9JASL9AGK","3OWZNK3RYMVDNXPNEIRWZ8JM6MU2UY","32SVAV9L3HFLGQ522FTB7179O8V3AG","emotion","mismatch","uniform","","","","","","","3159.0999999940395","403439.8000000119","406598.90000000596","[""stimuli/AM06_HE.jpg"",""stimuli/AF02_HO.jpg"",""stimuli/AM05_FO.jpg"",""stimuli/BM03_SC.jpg""]","stimuli/AM06_HE.jpg","stimuli/AF02_HO.jpg","stimuli/AM05_FO.jpg","stimuli/BM03_SC.jpg","pos2","stimuli/AF02_HO.jpg","HO","AF02","1","2","4","4","stimuli/stars_4.png","267.5","[""HE"",""HO"",""FO"",""SC""]","[""AM06"",""AF02"",""AM05"",""BM03""]","[8,4,8,2]","[6,4,8,2]","","",""
"show-reward","154","407077","0.0-154.0","p508360","ABBP9JASL9AGK","3OWZNK3RYMVDNXPNEIRWZ8JM6MU2UY","32SVAV9L3HFLGQ522FTB7179O8V3AG","emotion","mismatch","uniform","","","","","","","","407102.3000000119","409109.5","","","","","","","","","","","","4","","stimuli/stars_4.png","267.5","","","","","stimuli/AF02_HO.jpg","",""
"explore-choice","155","409500","0.0-155.0","p508360","ABBP9JASL9AGK","3OWZNK3RYMVDNXPNEIRWZ8JM6MU2UY","32SVAV9L3HFLGQ522FTB7179O8V3AG","emotion","mismatch","uniform","","","","","","","1921.7000000178814","409110.59999999404","411032.3000000119","[""stimuli/AM06_FO.jpg"",""stimuli/BM03_HE.jpg"",""stimuli/AF02_HO.jpg"",""stimuli/AM05_SC.jpg""]","stimuli/AM06_FO.jpg","stimuli/BM03_HE.jpg","stimuli/AF02_HO.jpg","stimuli/AM05_SC.jpg","pos3","stimuli/AF02_HO.jpg","HO","AF02","2","1","2","4","stimuli/stars_2.png","268.5","[""FO"",""HE"",""HO"",""SC""]","[""AM06"",""BM03"",""AF02"",""AM05""]","[4,2,2,10]","[6,2,4,8]","","",""
"show-reward","156","411509","0.0-156.0","p508360","ABBP9JASL9AGK","3OWZNK3RYMVDNXPNEIRWZ8JM6MU2UY","32SVAV9L3HFLGQ522FTB7179O8V3AG","emotion","mismatch","uniform","","","","","","","","411534.40000000596","413541.8000000119","","","","","","","","","","","","2","","stimuli/stars_2.png","268.5","","","","","stimuli/AF02_HO.jpg","",""
"explore-choice","157","414237","0.0-157.0","p508360","ABBP9JASL9AGK","3OWZNK3RYMVDNXPNEIRWZ8JM6MU2UY","32SVAV9L3HFLGQ522FTB7179O8V3AG","emotion","mismatch","uniform","","","","","","","2221.699999988079","413542.90000000596","415764.59999999404","[""stimuli/AF02_FO.jpg"",""stimuli/BM03_HE.jpg"",""stimuli/AM05_SC.jpg"",""stimuli/AM06_HO.jpg""]","stimuli/AF02_FO.jpg","stimuli/BM03_HE.jpg","stimuli/AM05_SC.jpg","stimuli/AM06_HO.jpg","pos4","stimuli/AM06_HO.jpg","HO","AM06","3","2","4","6","stimuli/stars_4.png","270.5","[""FO"",""HE"",""SC"",""HO""]","[""AF02"",""BM03"",""AM05"",""AM06""]","[4,3,6,4]","[4,2,8,6]","","",""
"show-reward","158","416245","0.0-158.0","p508360","ABBP9JASL9AGK","3OWZNK3RYMVDNXPNEIRWZ8JM6MU2UY","32SVAV9L3HFLGQ522FTB7179O8V3AG","emotion","mismatch","uniform","","","","","","","","416270.59999999404","418277.8000000119","","","","","","","","","","","","4","","stimuli/stars_4.png","270.5","","","","","stimuli/AM06_HO.jpg","",""
"explore-choice","159","418221","0.0-159.0","p508360","ABBP9JASL9AGK","3OWZNK3RYMVDNXPNEIRWZ8JM6MU2UY","32SVAV9L3HFLGQ522FTB7179O8V3AG","emotion","mismatch","uniform","","","","","","","1469.5","418278.8000000119","419748.3000000119","[""stimuli/AF02_SC.jpg"",""stimuli/BM03_FO.jpg"",""stimuli/AM05_HE.jpg"",""stimuli/AM06_HO.jpg""]","stimuli/AF02_SC.jpg","stimuli/BM03_FO.jpg","stimuli/AM05_HE.jpg","stimuli/AM06_HO.jpg","pos3","stimuli/AM05_HE.jpg","HE","AM05","2","4","8","8","stimuli/stars_8.png","274.5","[""SC"",""FO"",""HE"",""HO""]","[""AF02"",""BM03"",""AM05"",""AM06""]","[5,0,8,6]","[4,2,8,6]","","",""
"show-reward","160","420227","0.0-160.0","p508360","ABBP9JASL9AGK","3OWZNK3RYMVDNXPNEIRWZ8JM6MU2UY","32SVAV9L3HFLGQ522FTB7179O8V3AG","emotion","mismatch","uniform","","","","","","","","420254.5","422259.5","","","","","","","","","","","","8","","stimuli/stars_8.png","274.5","","","","","stimuli/AM05_HE.jpg","",""
"explore-choice","161","422217","0.0-161.0","p508360","ABBP9JASL9AGK","3OWZNK3RYMVDNXPNEIRWZ8JM6MU2UY","32SVAV9L3HFLGQ522FTB7179O8V3AG","emotion","mismatch","uniform","","","","","","","1488.2000000178814","422260.59999999404","423748.8000000119","[""stimuli/BM03_SC.jpg"",""stimuli/AM06_FO.jpg"",""stimuli/AF02_HE.jpg"",""stimuli/AM05_HO.jpg""]","stimuli/BM03_SC.jpg","stimuli/AM06_FO.jpg","stimuli/AF02_HE.jpg","stimuli/AM05_HO.jpg","pos4","stimuli/AM05_HO.jpg","HO","AM05","3","3","6","8","stimuli/stars_6.png","277.5","[""SC"",""FO"",""HE"",""HO""]","[""BM03"",""AM06"",""AF02"",""AM05""]","[0,8,6,6]","[2,6,4,8]","","",""
"show-reward","162","424225","0.0-162.0","p508360","ABBP9JASL9AGK","3OWZNK3RYMVDNXPNEIRWZ8JM6MU2UY","32SVAV9L3HFLGQ522FTB7179O8V3AG","emotion","mismatch","uniform","","","","","","","","424251.6999999881","426257.59999999404","","","","","","","","","","","","6","","stimuli/stars_6.png","277.5","","","","","stimuli/AM05_HO.jpg","",""
"explore-choice","163","431887","0.0-163.0","p508360","ABBP9JASL9AGK","3OWZNK3RYMVDNXPNEIRWZ8JM6MU2UY","32SVAV9L3HFLGQ522FTB7179O8V3AG","emotion","mismatch","uniform","","","","","","","7158.300000011921","426258.59999999404","433416.90000000596","[""stimuli/AM05_SC.jpg"",""stimuli/AM06_HE.jpg"",""stimuli/AF02_HO.jpg"",""stimuli/BM03_FO.jpg""]","stimuli/AM05_SC.jpg","stimuli/AM06_HE.jpg","stimuli/AF02_HO.jpg","stimuli/BM03_FO.jpg","pos2","stimuli/AM06_HE.jpg","HE","AM06","1","4","8","6","stimuli/stars_8.png","281.5","[""SC"",""HE"",""HO"",""FO""]","[""AM05"",""AM06"",""AF02"",""BM03""]","[8,8,3,3]","[8,6,4,2]","","",""
"show-reward","164","433892","0.0-164.0","p508360","ABBP9JASL9AGK","3OWZNK3RYMVDNXPNEIRWZ8JM6MU2UY","32SVAV9L3HFLGQ522FTB7179O8V3AG","emotion","mismatch","uniform","","","","","","","","433920.59999999404","435924","","","","","","","","","","","","8","","stimuli/stars_8.png","281.5","","","","","stimuli/AM06_HE.jpg","",""
"explore-choice","165","435707","0.0-165.0","p508360","ABBP9JASL9AGK","3OWZNK3RYMVDNXPNEIRWZ8JM6MU2UY","32SVAV9L3HFLGQ522FTB7179O8V3AG","emotion","mismatch","uniform","","","","","","","1309.5999999940395","435924.90000000596","437234.5","[""stimuli/BM03_HO.jpg"",""stimuli/AM05_HE.jpg"",""stimuli/AM06_SC.jpg"",""stimuli/AF02_FO.jpg""]","stimuli/BM03_HO.jpg","stimuli/AM05_HE.jpg","stimuli/AM06_SC.jpg","stimuli/AF02_FO.jpg","pos2","stimuli/AM05_HE.jpg","HE","AM05","1","5","10","8","stimuli/stars_10.png","286.5","[""HO"",""HE"",""SC"",""FO""]","[""BM03"",""AM05"",""AM06"",""AF02""]","[4,10,7,2]","[2,8,6,4]","","",""
"show-reward","166","437716","0.0-166.0","p508360","ABBP9JASL9AGK","3OWZNK3RYMVDNXPNEIRWZ8JM6MU2UY","32SVAV9L3HFLGQ522FTB7179O8V3AG","emotion","mismatch","uniform","","","","","","","","437740.40000000596","439747.8000000119","","","","","","","","","","","","10","","stimuli/stars_10.png","286.5","","","","","stimuli/AM05_HE.jpg","",""
"explore-choice","167","444341","0.0-167.0","p508360","ABBP9JASL9AGK","3OWZNK3RYMVDNXPNEIRWZ8JM6MU2UY","32SVAV9L3HFLGQ522FTB7179O8V3AG","emotion","mismatch","uniform","","","","","","","6119.4000000059605","439748.90000000596","445868.3000000119","[""stimuli/AM06_FO.jpg"",""stimuli/BM03_HO.jpg"",""stimuli/AM05_SC.jpg"",""stimuli/AF02_HE.jpg""]","stimuli/AM06_FO.jpg","stimuli/BM03_HO.jpg","stimuli/AM05_SC.jpg","stimuli/AF02_HE.jpg","pos1","stimuli/AM06_FO.jpg","FO","AM06","0","2","4","6","stimuli/stars_4.png","288.5","[""FO"",""HO"",""SC"",""HE""]","[""AM06"",""BM03"",""AM05"",""AF02""]","[4,4,9,4]","[6,2,8,4]","","",""
"show-reward","168","446347","0.0-168.0","p508360","ABBP9JASL9AGK","3OWZNK3RYMVDNXPNEIRWZ8JM6MU2UY","32SVAV9L3HFLGQ522FTB7179O8V3AG","emotion","mismatch","uniform","","","","","","","","446374.6999999881","448378.90000000596","","","","","","","","","","","","4","","stimuli/stars_4.png","288.5","","","","","stimuli/AM06_FO.jpg","",""
"explore-choice","169","451057","0.0-169.0","p508360","ABBP9JASL9AGK","3OWZNK3RYMVDNXPNEIRWZ8JM6MU2UY","32SVAV9L3HFLGQ522FTB7179O8V3AG","emotion","mismatch","uniform","","","","","","","4204.9000000059605","448381","452585.90000000596","[""stimuli/AF02_SC.jpg"",""stimuli/AM05_HO.jpg"",""stimuli/BM03_HE.jpg"",""stimuli/AM06_FO.jpg""]","stimuli/AF02_SC.jpg","stimuli/AM05_HO.jpg","stimuli/BM03_HE.jpg","stimuli/AM06_FO.jpg","pos2","stimuli/AM05_HO.jpg","HO","AM05","1","4","8","8","stimuli/stars_8.png","292.5","[""SC"",""HO"",""HE"",""FO""]","[""AF02"",""AM05"",""BM03"",""AM06""]","[3,8,4,8]","[4,8,2,6]","","",""
"show-reward","170","453065","0.0-170.0","p508360","ABBP9JASL9AGK","3OWZNK3RYMVDNXPNEIRWZ8JM6MU2UY","32SVAV9L3HFLGQ522FTB7179O8V3AG","emotion","mismatch","uniform","","","","","","","","453089.59999999404","455096.90000000596","","","","","","","","","","","","8","","stimuli/stars_8.png","292.5","","","","","stimuli/AM05_HO.jpg","",""
"explore-choice","171","457393","0.0-171.0","p508360","ABBP9JASL9AGK","3OWZNK3RYMVDNXPNEIRWZ8JM6MU2UY","32SVAV9L3HFLGQ522FTB7179O8V3AG","emotion","mismatch","uniform","","","","","","","3821.899999976158","455097.8000000119","458919.6999999881","[""stimuli/AM05_SC.jpg"",""stimuli/AF02_HE.jpg"",""stimuli/AM06_HO.jpg"",""stimuli/BM03_FO.jpg""]","stimuli/AM05_SC.jpg","stimuli/AF02_HE.jpg","stimuli/AM06_HO.jpg","stimuli/BM03_FO.jpg","pos3","stimuli/AM06_HO.jpg","HO","AM06","2","2.5","5","6","stimuli/stars_5.png","295","[""SC"",""HE"",""HO"",""FO""]","[""AM05"",""AF02"",""AM06"",""BM03""]","[9,3,5,4]","[8,4,6,2]","","",""
"show-reward","172","459397","0.0-172.0","p508360","ABBP9JASL9AGK","3OWZNK3RYMVDNXPNEIRWZ8JM6MU2UY","32SVAV9L3HFLGQ522FTB7179O8V3AG","emotion","mismatch","uniform","","","","","","","","459425.8000000119","461428.59999999404","","","","","","","","","","","","5","","stimuli/stars_5.png","295","","","","","stimuli/AM06_HO.jpg","",""
"explore-choice","173","461374","0.0-173.0","p508360","ABBP9JASL9AGK","3OWZNK3RYMVDNXPNEIRWZ8JM6MU2UY","32SVAV9L3HFLGQ522FTB7179O8V3AG","emotion","mismatch","uniform","","","","","","","1472.7999999821186","461429.8000000119","462902.59999999404","[""stimuli/AF02_HE.jpg"",""stimuli/AM05_FO.jpg"",""stimuli/BM03_HO.jpg"",""stimuli/AM06_SC.jpg""]","stimuli/AF02_HE.jpg","stimuli/AM05_FO.jpg","stimuli/BM03_HO.jpg","stimuli/AM06_SC.jpg","pos1","stimuli/AF02_HE.jpg","HE","AF02","0","3","6","4","stimuli/stars_6.png","298","[""HE"",""FO"",""HO"",""SC""]","[""AF02"",""AM05"",""BM03"",""AM06""]","[6,7,2,7]","[4,8,2,6]","","",""
"show-reward","174","463383","0.0-174.0","p508360","ABBP9JASL9AGK","3OWZNK3RYMVDNXPNEIRWZ8JM6MU2UY","32SVAV9L3HFLGQ522FTB7179O8V3AG","emotion","mismatch","uniform","","","","","","","","463406.6999999881","465414.09999999404","","","","","","","","","","","","6","","stimuli/stars_6.png","298","","","","","stimuli/AF02_HE.jpg","",""
"explore-choice","175","466189","0.0-175.0","p508360","ABBP9JASL9AGK","3OWZNK3RYMVDNXPNEIRWZ8JM6MU2UY","32SVAV9L3HFLGQ522FTB7179O8V3AG","emotion","mismatch","uniform","","","","","","","2303.7000000178814","465415.09999999404","467718.8000000119","[""stimuli/AF02_FO.jpg"",""stimuli/AM06_HE.jpg"",""stimuli/AM05_HO.jpg"",""stimuli/BM03_SC.jpg""]","stimuli/AF02_FO.jpg","stimuli/AM06_HE.jpg","stimuli/AM05_HO.jpg","stimuli/BM03_SC.jpg","pos3","stimuli/AM05_HO.jpg","HO","AM05","2","3.5","7","8","stimuli/stars_7.png","301.5","[""FO"",""HE"",""HO"",""SC""]","[""AF02"",""AM06"",""AM05"",""BM03""]","[3,6,7,2]","[4,6,8,2]","","",""
"show-reward","176","468193","0.0-176.0","p508360","ABBP9JASL9AGK","3OWZNK3RYMVDNXPNEIRWZ8JM6MU2UY","32SVAV9L3HFLGQ522FTB7179O8V3AG","emotion","mismatch","uniform","","","","","","","","468221.59999999404","470224.40000000596","","","","","","","","","","","","7","","stimuli/stars_7.png","301.5","","","","","stimuli/AM05_HO.jpg","",""
"explore-choice","177","470393","0.0-177.0","p508360","ABBP9JASL9AGK","3OWZNK3RYMVDNXPNEIRWZ8JM6MU2UY","32SVAV9L3HFLGQ522FTB7179O8V3AG","emotion","mismatch","uniform","","","","","","","1694.800000011921","470225.5","471920.3000000119","[""stimuli/AM06_SC.jpg"",""stimuli/AF02_HO.jpg"",""stimuli/AM05_HE.jpg"",""stimuli/BM03_FO.jpg""]","stimuli/AM06_SC.jpg","stimuli/AF02_HO.jpg","stimuli/AM05_HE.jpg","stimuli/BM03_FO.jpg","pos3","stimuli/AM05_HE.jpg","HE","AM05","2","3","6","8","stimuli/stars_6.png","304.5","[""SC"",""HO"",""HE"",""FO""]","[""AM06"",""AF02"",""AM05"",""BM03""]","[4,6,6,1]","[6,4,8,2]","","",""
"show-reward","178","472404","0.0-178.0","p508360","ABBP9JASL9AGK","3OWZNK3RYMVDNXPNEIRWZ8JM6MU2UY","32SVAV9L3HFLGQ522FTB7179O8V3AG","emotion","mismatch","uniform","","","","","","","","472425.59999999404","474435.09999999404","","","","","","","","","","","","6","","stimuli/stars_6.png","304.5","","","","","stimuli/AM05_HE.jpg","",""
"explore-choice","179","475723","0.0-179.0","p508360","ABBP9JASL9AGK","3OWZNK3RYMVDNXPNEIRWZ8JM6MU2UY","32SVAV9L3HFLGQ522FTB7179O8V3AG","emotion","mismatch","uniform","","","","","","","2817.4000000059605","474436.09999999404","477253.5","[""stimuli/BM03_SC.jpg"",""stimuli/AM05_HE.jpg"",""stimuli/AF02_HO.jpg"",""stimuli/AM06_FO.jpg""]","stimuli/BM03_SC.jpg","stimuli/AM05_HE.jpg","stimuli/AF02_HO.jpg","stimuli/AM06_FO.jpg","pos2","stimuli/AM05_HE.jpg","HE","AM05","1","5","10","8","stimuli/stars_10.png","309.5","[""SC"",""HE"",""HO"",""FO""]","[""BM03"",""AM05"",""AF02"",""AM06""]","[1,10,2,4]","[2,8,4,6]","","",""
"show-reward","180","477726","0.0-180.0","p508360","ABBP9JASL9AGK","3OWZNK3RYMVDNXPNEIRWZ8JM6MU2UY","32SVAV9L3HFLGQ522FTB7179O8V3AG","emotion","mismatch","uniform","","","","","","","","477755.09999999404","479756.59999999404","","","","","","","","","","","","10","","stimuli/stars_10.png","309.5","","","","","stimuli/AM05_HE.jpg","",""
"explore-choice","181","481092","0.0-181.0","p508360","ABBP9JASL9AGK","3OWZNK3RYMVDNXPNEIRWZ8JM6MU2UY","32SVAV9L3HFLGQ522FTB7179O8V3AG","emotion","mismatch","uniform","","","","","","","2861.4000000059605","479757.1999999881","482618.59999999404","[""stimuli/AF02_SC.jpg"",""stimuli/BM03_HE.jpg"",""stimuli/AM06_HO.jpg"",""stimuli/AM05_FO.jpg""]","stimuli/AF02_SC.jpg","stimuli/BM03_HE.jpg","stimuli/AM06_HO.jpg","stimuli/AM05_FO.jpg","pos3","stimuli/AM06_HO.jpg","HO","AM06","2","2","4","6","stimuli/stars_4.png","311.5","[""SC"",""HE"",""HO"",""FO""]","[""AF02"",""BM03"",""AM06"",""AM05""]","[6,0,4,7]","[4,2,6,8]","","",""
"show-reward","182","483101","0.0-182.0","p508360","ABBP9JASL9AGK","3OWZNK3RYMVDNXPNEIRWZ8JM6MU2UY","32SVAV9L3HFLGQ522FTB7179O8V3AG","emotion","mismatch","uniform","","","","","","","","483124.40000000596","485131.5","","","","","","","","","","","","4","","stimuli/stars_4.png","311.5","","","","","stimuli/AM06_HO.jpg","",""
"explore-choice","183","486401","0.0-183.0","p508360","ABBP9JASL9AGK","3OWZNK3RYMVDNXPNEIRWZ8JM6MU2UY","32SVAV9L3HFLGQ522FTB7179O8V3AG","emotion","mismatch","uniform","","","","","","","2799","485132.59999999404","487931.59999999404","[""stimuli/AM06_HO.jpg"",""stimuli/AF02_HE.jpg"",""stimuli/BM03_SC.jpg"",""stimuli/AM05_FO.jpg""]","stimuli/AM06_HO.jpg","stimuli/AF02_HE.jpg","stimuli/BM03_SC.jpg","stimuli/AM05_FO.jpg","pos2","stimuli/AF02_HE.jpg","HE","AF02","1","3","6","4","stimuli/stars_6.png","314.5","[""HO"",""HE"",""SC"",""FO""]","[""AM06"",""AF02"",""BM03"",""AM05""]","[5,6,4,10]","[6,4,2,8]","","",""
"show-reward","184","488404","0.0-184.0","p508360","ABBP9JASL9AGK","3OWZNK3RYMVDNXPNEIRWZ8JM6MU2UY","32SVAV9L3HFLGQ522FTB7179O8V3AG","emotion","mismatch","uniform","","","","","","","","488432.5","490434.59999999404","","","","","","","","","","","","6","","stimuli/stars_6.png","314.5","","","","","stimuli/AF02_HE.jpg","",""
"explore-choice","185","490624","0.0-185.0","p508360","ABBP9JASL9AGK","3OWZNK3RYMVDNXPNEIRWZ8JM6MU2UY","32SVAV9L3HFLGQ522FTB7179O8V3AG","emotion","mismatch","uniform","","","","","","","1718.9000000059605","490435.5","492154.40000000596","[""stimuli/AM05_SC.jpg"",""stimuli/BM03_HO.jpg"",""stimuli/AM06_HE.jpg"",""stimuli/AF02_FO.jpg""]","stimuli/AM05_SC.jpg","stimuli/BM03_HO.jpg","stimuli/AM06_HE.jpg","stimuli/AF02_FO.jpg","pos3","stimuli/AM06_HE.jpg","HE","AM06","2","2.5","5","6","stimuli/stars_5.png","317","[""SC"",""HO"",""HE"",""FO""]","[""AM05"",""BM03"",""AM06"",""AF02""]","[7,2,5,3]","[8,2,6,4]","","",""
"show-reward","186","492633","0.0-186.0","p508360","ABBP9JASL9AGK","3OWZNK3RYMVDNXPNEIRWZ8JM6MU2UY","32SVAV9L3HFLGQ522FTB7179O8V3AG","emotion","mismatch","uniform","","","","","","","","492656","494663.1999999881","","","","","","","","","","","","5","","stimuli/stars_5.png","317","","","","","stimuli/AM06_HE.jpg","",""
"explore-choice","187","494962","0.0-187.0","p508360","ABBP9JASL9AGK","3OWZNK3RYMVDNXPNEIRWZ8JM6MU2UY","32SVAV9L3HFLGQ522FTB7179O8V3AG","emotion","mismatch","uniform","","","","","","","1824.4000000059605","494664.1999999881","496488.59999999404","[""stimuli/BM03_HO.jpg"",""stimuli/AM05_HE.jpg"",""stimuli/AF02_SC.jpg"",""stimuli/AM06_FO.jpg""]","stimuli/BM03_HO.jpg","stimuli/AM05_HE.jpg","stimuli/AF02_SC.jpg","stimuli/AM06_FO.jpg","pos2","stimuli/AM05_HE.jpg","HE","AM05","1","3.5","7","8","stimuli/stars_7.png","320.5","[""HO"",""HE"",""SC"",""FO""]","[""BM03"",""AM05"",""AF02"",""AM06""]","[4,7,6,6]","[2,8,4,6]","","",""
"show-reward","188","496971","0.0-188.0","p508360","ABBP9JASL9AGK","3OWZNK3RYMVDNXPNEIRWZ8JM6MU2UY","32SVAV9L3HFLGQ522FTB7179O8V3AG","emotion","mismatch","uniform","","","","","","","","496994","499001.1999999881","","","","","","","","","","","","7","","stimuli/stars_7.png","320.5","","","","","stimuli/AM05_HE.jpg","",""
"explore-choice","189","500203","0.0-189.0","p508360","ABBP9JASL9AGK","3OWZNK3RYMVDNXPNEIRWZ8JM6MU2UY","32SVAV9L3HFLGQ522FTB7179O8V3AG","emotion","mismatch","uniform","","","","","","","2731.4000000059605","499002.09999999404","501733.5","[""stimuli/AM05_FO.jpg"",""stimuli/BM03_HO.jpg"",""stimuli/AM06_HE.jpg"",""stimuli/AF02_SC.jpg""]","stimuli/AM05_FO.jpg","stimuli/BM03_HO.jpg","stimuli/AM06_HE.jpg","stimuli/AF02_SC.jpg","pos3","stimuli/AM06_HE.jpg","HE","AM06","2","4","8","6","stimuli/stars_8.png","324.5","[""FO"",""HO"",""HE"",""SC""]","[""AM05"",""BM03"",""AM06"",""AF02""]","[9,2,8,4]","[8,2,6,4]","","",""
"show-reward","190","502211","0.0-190.0","p508360","ABBP9JASL9AGK","3OWZNK3RYMVDNXPNEIRWZ8JM6MU2UY","32SVAV9L3HFLGQ522FTB7179O8V3AG","emotion","mismatch","uniform","","","","","","","","502234.59999999404","504241.6999999881","","","","","","","","","","","","8","","stimuli/stars_8.png","324.5","","","","","stimuli/AM06_HE.jpg","",""
"explore-choice","191","504179","0.0-191.0","p508360","ABBP9JASL9AGK","3OWZNK3RYMVDNXPNEIRWZ8JM6MU2UY","32SVAV9L3HFLGQ522FTB7179O8V3AG","emotion","mismatch","uniform","","","","","","","1464.300000011921","504242.6999999881","505707","[""stimuli/AF02_FO.jpg"",""stimuli/AM06_SC.jpg"",""stimuli/BM03_HE.jpg"",""stimuli/AM05_HO.jpg""]","stimuli/AF02_FO.jpg","stimuli/AM06_SC.jpg","stimuli/BM03_HE.jpg","stimuli/AM05_HO.jpg","pos4","stimuli/AM05_HO.jpg","HO","AM05","3","5","10","8","stimuli/stars_10.png","329.5","[""FO"",""SC"",""HE"",""HO""]","[""AF02"",""AM06"",""BM03"",""AM05""]","[3,4,2,10]","[4,6,2,8]","","",""
"show-reward","192","506183","0.0-192.0","p508360","ABBP9JASL9AGK","3OWZNK3RYMVDNXPNEIRWZ8JM6MU2UY","32SVAV9L3HFLGQ522FTB7179O8V3AG","emotion","mismatch","uniform","","","","","","","","506210.5","508212.90000000596","","","","","","","","","","","","10","","stimuli/stars_10.png","329.5","","","","","stimuli/AM05_HO.jpg","",""
"explore-choice","193","507961","0.0-193.0","p508360","ABBP9JASL9AGK","3OWZNK3RYMVDNXPNEIRWZ8JM6MU2UY","32SVAV9L3HFLGQ522FTB7179O8V3AG","emotion","mismatch","uniform","","","","","","","1276.6000000238419","508213.6999999881","509490.3000000119","[""stimuli/AM06_HO.jpg"",""stimuli/BM03_SC.jpg"",""stimuli/AM05_HE.jpg"",""stimuli/AF02_FO.jpg""]","stimuli/AM06_HO.jpg","stimuli/BM03_SC.jpg","stimuli/AM05_HE.jpg","stimuli/AF02_FO.jpg","pos3","stimuli/AM05_HE.jpg","HE","AM05","2","5","10","8","stimuli/stars_10.png","334.5","[""HO"",""SC"",""HE"",""FO""]","[""AM06"",""BM03"",""AM05"",""AF02""]","[5,3,10,3]","[6,2,8,4]","","",""
"show-reward","194","509978","0.0-194.0","p508360","ABBP9JASL9AGK","3OWZNK3RYMVDNXPNEIRWZ8JM6MU2UY","32SVAV9L3HFLGQ522FTB7179O8V3AG","emotion","mismatch","uniform","","","","","","","","509991.5","512008.40000000596","","","","","","","","","","","","10","","stimuli/stars_10.png","334.5","","","","","stimuli/AM05_HE.jpg","",""
"explore-choice","195","530079","0.0-195.0","p508360","ABBP9JASL9AGK","3OWZNK3RYMVDNXPNEIRWZ8JM6MU2UY","32SVAV9L3HFLGQ522FTB7179O8V3AG","emotion","mismatch","uniform","","","","","","","19598.5","512009.09999999404","531607.599999994","[""stimuli/AF02_HE.jpg"",""stimuli/AM06_SC.jpg"",""stimuli/BM03_FO.jpg"",""stimuli/AM05_HO.jpg""]","stimuli/AF02_HE.jpg","stimuli/AM06_SC.jpg","stimuli/BM03_FO.jpg","stimuli/AM05_HO.jpg","pos4","stimuli/AM05_HO.jpg","HO","AM05","3","4","8","8","stimuli/stars_8.png","338.5","[""HE"",""SC"",""FO"",""HO""]","[""AF02"",""AM06"",""BM03"",""AM05""]","[5,6,2,8]","[4,6,2,8]","","",""
"show-reward","196","532085","0.0-196.0","p508360","ABBP9JASL9AGK","3OWZNK3RYMVDNXPNEIRWZ8JM6MU2UY","32SVAV9L3HFLGQ522FTB7179O8V3AG","emotion","mismatch","uniform","","","","","","","","532112.599999994","534114.5","","","","","","","","","","","","8","","stimuli/stars_8.png","338.5","","","","","stimuli/AM05_HO.jpg","",""
"explore-choice","197","533999","0.0-197.0","p508360","ABBP9JASL9AGK","3OWZNK3RYMVDNXPNEIRWZ8JM6MU2UY","32SVAV9L3HFLGQ522FTB7179O8V3AG","emotion","mismatch","uniform","","","","","","","1408.5","534115.599999994","535524.099999994","[""stimuli/AF02_SC.jpg"",""stimuli/BM03_FO.jpg"",""stimuli/AM06_HE.jpg"",""stimuli/AM05_HO.jpg""]","stimuli/AF02_SC.jpg","stimuli/BM03_FO.jpg","stimuli/AM06_HE.jpg","stimuli/AM05_HO.jpg","pos4","stimuli/AM05_HO.jpg","HO","AM05","3","4.5","9","8","stimuli/stars_9.png","343","[""SC"",""FO"",""HE"",""HO""]","[""AF02"",""BM03"",""AM06"",""AM05""]","[4,3,8,9]","[4,2,6,8]","","",""
"show-reward","198","536006","0.0-198.0","p508360","ABBP9JASL9AGK","3OWZNK3RYMVDNXPNEIRWZ8JM6MU2UY","32SVAV9L3HFLGQ522FTB7179O8V3AG","emotion","mismatch","uniform","","","","","","","","536029.5","538035.099999994","","","","","","","","","","","","9","","stimuli/stars_9.png","343","","","","","stimuli/AM05_HO.jpg","",""
"instructions","199","541413","0.0-199.0","p508360","ABBP9JASL9AGK","3OWZNK3RYMVDNXPNEIRWZ8JM6MU2UY","32SVAV9L3HFLGQ522FTB7179O8V3AG","emotion","mismatch","uniform","","","","","","[{""page_index"":0,""viewing_time"":5405.5999999940395}]","5406.5","","","","","","","","","","","","","","","","","","","","","","","",""
"survey-text","200","545664","0.0-200.0-0.0","p508360","ABBP9JASL9AGK","3OWZNK3RYMVDNXPNEIRWZ8JM6MU2UY","32SVAV9L3HFLGQ522FTB7179O8V3AG","emotion","mismatch","uniform","","","","","","","4245.5","","","","","","","","","","","","","","","","","","","","","","","{""age"":""31""}",""
"survey-text","201","550671","0.0-200.0-1.0","p508360","ABBP9JASL9AGK","3OWZNK3RYMVDNXPNEIRWZ8JM6MU2UY","32SVAV9L3HFLGQ522FTB7179O8V3AG","emotion","mismatch","uniform","","","","","","","5003.199999988079","","","","","","","","","","","","","","","","","","","","","","","{""gender"":""female""}",""
"survey-text","202","556932","0.0-200.0-2.0","p508360","ABBP9JASL9AGK","3OWZNK3RYMVDNXPNEIRWZ8JM6MU2UY","32SVAV9L3HFLGQ522FTB7179O8V3AG","emotion","mismatch","uniform","","","","","","","6257.9000000059605","","","","","","","","","","","","","","","","","","","","","","","{""country"":""united states""}",""
"survey-text","203","563216","0.0-200.0-3.0","p508360","ABBP9JASL9AGK","3OWZNK3RYMVDNXPNEIRWZ8JM6MU2UY","32SVAV9L3HFLGQ522FTB7179O8V3AG","emotion","mismatch","uniform","","","","","","","6280.600000023842","","","","","","","","","","","","","","","","","","","","","","","{""language"":""english"",""other_languages"":""""}",""
"survey-multi-select","204","565682","0.0-201.0","p508360","ABBP9JASL9AGK","3OWZNK3RYMVDNXPNEIRWZ8JM6MU2UY","32SVAV9L3HFLGQ522FTB7179O8V3AG","emotion","mismatch","uniform","","","","","","","2456.4000000059605","","","","","","","","","","","","","","","","","","","","","","","{""race"":[""White""]}","[0]"
"survey-multi-choice","205","568713","0.0-202.0","p508360","ABBP9JASL9AGK","3OWZNK3RYMVDNXPNEIRWZ8JM6MU2UY","32SVAV9L3HFLGQ522FTB7179O8V3AG","emotion","mismatch","uniform","","","","","","","3023","","","","","","","","","","","","","","","","","","","","","","","{""education"":""Bachelor's degree""}","[0]"
"survey-text","206","587051","0.0-203.0","p508360","ABBP9JASL9AGK","3OWZNK3RYMVDNXPNEIRWZ8JM6MU2UY","32SVAV9L3HFLGQ522FTB7179O8V3AG","emotion","mismatch","uniform","","","","","","","18330.5","","","","","","","","","","","","","","","","","","","","","","","{""patterns"":""I think the happier looking people earned more stars"",""strategy"":""select the happy faces"",""comments"":""""}",""
