"trial_type","trial_index","time_elapsed","internal_node_id","subject","workerId","hitId","assignmentId","structure_condition","match_condition","noise_type","success","timeout","failed_images","failed_audio","failed_video","view_history","rt","start_time","end_time","stimuli","image1","image2","image3","image4","choiceLocation","choiceImage","choiceEmotion","choiceModel","choice_index","reward_score","reward","reward_score_unadjusted","reward_image","score_after_trial","emotions","models","rewards","rewards_unadjusted","stimulus","response","question_order"
"pavlovia","0","8","0.0-0.0","p356240","A207IHY6GERCFO","336OE47KI3QZCSCUXSQ8J11UOZXVWV","3DY4FPOOA3UXRGT2O0L3LMO2FWBRV8","emotion","match","uniform","","","","","","","","","","","","","","","","","","","","","","","","","","","","","","",""
"preload","1","31378","0.0-1.0","p356240","A207IHY6GERCFO","336OE47KI3QZCSCUXSQ8J11UOZXVWV","3DY4FPOOA3UXRGT2O0L3LMO2FWBRV8","emotion","match","uniform","true","false","[]","[]","[]","","","","","","","","","","","","","","","","","","","","","","","","","",""
"fullscreen","2","573268","0.0-2.0","p356240","A207IHY6GERCFO","336OE47KI3QZCSCUXSQ8J11UOZXVWV","3DY4FPOOA3UXRGT2O0L3LMO2FWBRV8","emotion","match","uniform","true","","","","","","","","","","","","","","","","","","","","","","","","","","","","","",""
"instructions","3","576738","0.0-3.0","p356240","A207IHY6GERCFO","336OE47KI3QZCSCUXSQ8J11UOZXVWV","3DY4FPOOA3UXRGT2O0L3LMO2FWBRV8","emotion","match","uniform","","","","","","[{""page_index"":0,""viewing_time"":3467.4000000003725}]","3468","","","","","","","","","","","","","","","","","","","","","","","",""
"explore-choice","4","578708","0.0-4.0","p356240","A207IHY6GERCFO","336OE47KI3QZCSCUXSQ8J11UOZXVWV","3DY4FPOOA3UXRGT2O0L3LMO2FWBRV8","emotion","match","uniform","","","","","","","1463.2000000011176","579335.6999999993","580798.9000000004","[""stimuli/sheep.jpg"",""stimuli/hammer.jpg"",""stimuli/basketball.jpg"",""stimuli/horse.jpg""]","stimuli/sheep.jpg","stimuli/hammer.jpg","stimuli/basketball.jpg","stimuli/horse.jpg","pos4","stimuli/horse.jpg","","","3","64","64","64","stimuli/stars_8.png","65","","","","","","",""
"explore-choice","5","580285","0.0-5.0","p356240","A207IHY6GERCFO","336OE47KI3QZCSCUXSQ8J11UOZXVWV","3DY4FPOOA3UXRGT2O0L3LMO2FWBRV8","emotion","match","uniform","","","","","","","1068.9000000003725","581305.7999999989","582374.6999999993","[""stimuli/hammer.jpg"",""stimuli/basketball.jpg"",""stimuli/horse.jpg"",""stimuli/sheep.jpg""]","stimuli/hammer.jpg","stimuli/basketball.jpg","stimuli/horse.jpg","stimuli/sheep.jpg","pos1","stimuli/hammer.jpg","","","0","8","8","8","stimuli/stars_2.png","9","","","","","","",""
"instructions","6","595081","0.0-6.0","p356240","A207IHY6GERCFO","336OE47KI3QZCSCUXSQ8J11UOZXVWV","3DY4FPOOA3UXRGT2O0L3LMO2FWBRV8","emotion","match","uniform","","","","","","[{""page_index"":0,""viewing_time"":14794.400000000373}]","14794.60000000149","","","","","","","","","","","","","","","","","","","","","","","",""
"explore-choice","7","597598","0.0-7.0","p356240","A207IHY6GERCFO","336OE47KI3QZCSCUXSQ8J11UOZXVWV","3DY4FPOOA3UXRGT2O0L3LMO2FWBRV8","emotion","match","uniform","","","","","","","2015.199999999255","597679.5","599694.6999999993","[""stimuli/WM07_AO.jpg"",""stimuli/AF09_DO.jpg"",""stimuli/WF04_CC.jpg"",""stimuli/BM03_HE.jpg""]","stimuli/WM07_AO.jpg","stimuli/AF09_DO.jpg","stimuli/WF04_CC.jpg","stimuli/BM03_HE.jpg","pos3","stimuli/WF04_CC.jpg","CC","WF04","2","2.5","5","4","stimuli/stars_5.png","3.5","[""AO"",""DO"",""CC"",""HE""]","[""WM07"",""AF09"",""WF04"",""BM03""]","[3,8,5,7]","[2,6,4,8]","","",""
"show-reward","8","599610","0.0-8.0","p356240","A207IHY6GERCFO","336OE47KI3QZCSCUXSQ8J11UOZXVWV","3DY4FPOOA3UXRGT2O0L3LMO2FWBRV8","emotion","match","uniform","","","","","","","","600197.7999999989","602207.7999999989","","","","","","","","","","","","5","","stimuli/stars_5.png","3.5","","","","","stimuli/WF04_CC.jpg","",""
"explore-choice","9","602806","0.0-9.0","p356240","A207IHY6GERCFO","336OE47KI3QZCSCUXSQ8J11UOZXVWV","3DY4FPOOA3UXRGT2O0L3LMO2FWBRV8","emotion","match","uniform","","","","","","","2685.199999999255","602209.4000000004","604894.5999999996","[""stimuli/BM03_CC.jpg"",""stimuli/WM07_DO.jpg"",""stimuli/WF04_AO.jpg"",""stimuli/AF09_HE.jpg""]","stimuli/BM03_CC.jpg","stimuli/WM07_DO.jpg","stimuli/WF04_AO.jpg","stimuli/AF09_HE.jpg","pos1","stimuli/BM03_CC.jpg","CC","BM03","0","1.5","3","4","stimuli/stars_3.png","5","[""CC"",""DO"",""AO"",""HE""]","[""BM03"",""WM07"",""WF04"",""AF09""]","[3,8,0,7]","[4,6,2,8]","","",""
"show-reward","10","604825","0.0-10.0","p356240","A207IHY6GERCFO","336OE47KI3QZCSCUXSQ8J11UOZXVWV","3DY4FPOOA3UXRGT2O0L3LMO2FWBRV8","emotion","match","uniform","","","","","","","","605404.5999999996","607422","","","","","","","","","","","","3","","stimuli/stars_3.png","5","","","","","stimuli/BM03_CC.jpg","",""
"explore-choice","11","607158","0.0-11.0","p356240","A207IHY6GERCFO","336OE47KI3QZCSCUXSQ8J11UOZXVWV","3DY4FPOOA3UXRGT2O0L3LMO2FWBRV8","emotion","match","uniform","","","","","","","1822.5999999996275","607423.9000000004","609246.5","[""stimuli/AF09_CC.jpg"",""stimuli/WM07_AO.jpg"",""stimuli/BM03_HE.jpg"",""stimuli/WF04_DO.jpg""]","stimuli/AF09_CC.jpg","stimuli/WM07_AO.jpg","stimuli/BM03_HE.jpg","stimuli/WF04_DO.jpg","pos3","stimuli/BM03_HE.jpg","HE","BM03","2","3.5","7","8","stimuli/stars_7.png","8.5","[""CC"",""AO"",""HE"",""DO""]","[""AF09"",""WM07"",""BM03"",""WF04""]","[2,3,7,8]","[4,2,8,6]","","",""
"show-reward","12","609169","0.0-12.0","p356240","A207IHY6GERCFO","336OE47KI3QZCSCUXSQ8J11UOZXVWV","3DY4FPOOA3UXRGT2O0L3LMO2FWBRV8","emotion","match","uniform","","","","","","","","609757.2999999989","611766.5999999996","","","","","","","","","","","","7","","stimuli/stars_7.png","8.5","","","","","stimuli/BM03_HE.jpg","",""
"explore-choice","13","611350","0.0-13.0","p356240","A207IHY6GERCFO","336OE47KI3QZCSCUXSQ8J11UOZXVWV","3DY4FPOOA3UXRGT2O0L3LMO2FWBRV8","emotion","match","uniform","","","","","","","1677.9000000003725","611768.5","613446.4000000004","[""stimuli/WM07_DO.jpg"",""stimuli/WF04_HE.jpg"",""stimuli/AF09_AO.jpg"",""stimuli/BM03_CC.jpg""]","stimuli/WM07_DO.jpg","stimuli/WF04_HE.jpg","stimuli/AF09_AO.jpg","stimuli/BM03_CC.jpg","pos2","stimuli/WF04_HE.jpg","HE","WF04","1","4.5","9","8","stimuli/stars_9.png","13","[""DO"",""HE"",""AO"",""CC""]","[""WM07"",""WF04"",""AF09"",""BM03""]","[4,9,3,5]","[6,8,2,4]","","",""
"show-reward","14","613356","0.0-14.0","p356240","A207IHY6GERCFO","336OE47KI3QZCSCUXSQ8J11UOZXVWV","3DY4FPOOA3UXRGT2O0L3LMO2FWBRV8","emotion","match","uniform","","","","","","","","613949.4000000004","615953.7999999989","","","","","","","","","","","","9","","stimuli/stars_9.png","13","","","","","stimuli/WF04_HE.jpg","",""
"explore-choice","15","615206","0.0-15.0","p356240","A207IHY6GERCFO","336OE47KI3QZCSCUXSQ8J11UOZXVWV","3DY4FPOOA3UXRGT2O0L3LMO2FWBRV8","emotion","match","uniform","","","","","","","1346.300000000745","615956.1999999993","617302.5","[""stimuli/WF04_CC.jpg"",""stimuli/WM07_DO.jpg"",""stimuli/AF09_AO.jpg"",""stimuli/BM03_HE.jpg""]","stimuli/WF04_CC.jpg","stimuli/WM07_DO.jpg","stimuli/AF09_AO.jpg","stimuli/BM03_HE.jpg","pos4","stimuli/BM03_HE.jpg","HE","BM03","3","3.5","7","8","stimuli/stars_7.png","16.5","[""CC"",""DO"",""AO"",""HE""]","[""WF04"",""WM07"",""AF09"",""BM03""]","[3,4,2,7]","[4,6,2,8]","","",""
"show-reward","16","617212","0.0-16.0","p356240","A207IHY6GERCFO","336OE47KI3QZCSCUXSQ8J11UOZXVWV","3DY4FPOOA3UXRGT2O0L3LMO2FWBRV8","emotion","match","uniform","","","","","","","","617805.5","619809.7999999989","","","","","","","","","","","","7","","stimuli/stars_7.png","16.5","","","","","stimuli/BM03_HE.jpg","",""
"explore-choice","17","620008","0.0-17.0","p356240","A207IHY6GERCFO","336OE47KI3QZCSCUXSQ8J11UOZXVWV","3DY4FPOOA3UXRGT2O0L3LMO2FWBRV8","emotion","match","uniform","","","","","","","2283.9000000003725","619810.7999999989","622094.6999999993","[""stimuli/AF09_DO.jpg"",""stimuli/WF04_HE.jpg"",""stimuli/BM03_AO.jpg"",""stimuli/WM07_CC.jpg""]","stimuli/AF09_DO.jpg","stimuli/WF04_HE.jpg","stimuli/BM03_AO.jpg","stimuli/WM07_CC.jpg","pos2","stimuli/WF04_HE.jpg","HE","WF04","1","3","6","8","stimuli/stars_6.png","19.5","[""DO"",""HE"",""AO"",""CC""]","[""AF09"",""WF04"",""BM03"",""WM07""]","[5,6,2,4]","[6,8,2,4]","","",""
"show-reward","18","622024","0.0-18.0","p356240","A207IHY6GERCFO","336OE47KI3QZCSCUXSQ8J11UOZXVWV","3DY4FPOOA3UXRGT2O0L3LMO2FWBRV8","emotion","match","uniform","","","","","","","","622607.0999999996","624620.6999999993","","","","","","","","","","","","6","","stimuli/stars_6.png","19.5","","","","","stimuli/WF04_HE.jpg","",""
"explore-choice","19","623701","0.0-19.0","p356240","A207IHY6GERCFO","336OE47KI3QZCSCUXSQ8J11UOZXVWV","3DY4FPOOA3UXRGT2O0L3LMO2FWBRV8","emotion","match","uniform","","","","","","","1175.5","624623","625798.5","[""stimuli/AF09_DO.jpg"",""stimuli/WM07_AO.jpg"",""stimuli/BM03_CC.jpg"",""stimuli/WF04_HE.jpg""]","stimuli/AF09_DO.jpg","stimuli/WM07_AO.jpg","stimuli/BM03_CC.jpg","stimuli/WF04_HE.jpg","pos4","stimuli/WF04_HE.jpg","HE","WF04","3","4","8","8","stimuli/stars_8.png","23.5","[""DO"",""AO"",""CC"",""HE""]","[""AF09"",""WM07"",""BM03"",""WF04""]","[4,3,6,8]","[6,2,4,8]","","",""
"show-reward","20","625704","0.0-20.0","p356240","A207IHY6GERCFO","336OE47KI3QZCSCUXSQ8J11UOZXVWV","3DY4FPOOA3UXRGT2O0L3LMO2FWBRV8","emotion","match","uniform","","","","","","","","626299.4000000004","628301.5999999996","","","","","","","","","","","","8","","stimuli/stars_8.png","23.5","","","","","stimuli/WF04_HE.jpg","",""
"explore-choice","21","629229","0.0-21.0","p356240","A207IHY6GERCFO","336OE47KI3QZCSCUXSQ8J11UOZXVWV","3DY4FPOOA3UXRGT2O0L3LMO2FWBRV8","emotion","match","uniform","","","","","","","3022.199999999255","628304","631326.1999999993","[""stimuli/AF09_HE.jpg"",""stimuli/BM03_DO.jpg"",""stimuli/WF04_CC.jpg"",""stimuli/WM07_AO.jpg""]","stimuli/AF09_HE.jpg","stimuli/BM03_DO.jpg","stimuli/WF04_CC.jpg","stimuli/WM07_AO.jpg","pos1","stimuli/AF09_HE.jpg","HE","AF09","0","4.5","9","8","stimuli/stars_9.png","28","[""HE"",""DO"",""CC"",""AO""]","[""AF09"",""BM03"",""WF04"",""WM07""]","[9,8,6,1]","[8,6,4,2]","","",""
"show-reward","22","631250","0.0-22.0","p356240","A207IHY6GERCFO","336OE47KI3QZCSCUXSQ8J11UOZXVWV","3DY4FPOOA3UXRGT2O0L3LMO2FWBRV8","emotion","match","uniform","","","","","","","","631828.5","633847.9000000004","","","","","","","","","","","","9","","stimuli/stars_9.png","28","","","","","stimuli/AF09_HE.jpg","",""
"explore-choice","23","633641","0.0-23.0","p356240","A207IHY6GERCFO","336OE47KI3QZCSCUXSQ8J11UOZXVWV","3DY4FPOOA3UXRGT2O0L3LMO2FWBRV8","emotion","match","uniform","","","","","","","1884.6000000014901","633849.7999999989","635734.4000000004","[""stimuli/AF09_AO.jpg"",""stimuli/BM03_HE.jpg"",""stimuli/WM07_CC.jpg"",""stimuli/WF04_DO.jpg""]","stimuli/AF09_AO.jpg","stimuli/BM03_HE.jpg","stimuli/WM07_CC.jpg","stimuli/WF04_DO.jpg","pos2","stimuli/BM03_HE.jpg","HE","BM03","1","4","8","8","stimuli/stars_8.png","32","[""AO"",""HE"",""CC"",""DO""]","[""AF09"",""BM03"",""WM07"",""WF04""]","[0,8,4,7]","[2,8,4,6]","","",""
"show-reward","24","635649","0.0-24.0","p356240","A207IHY6GERCFO","336OE47KI3QZCSCUXSQ8J11UOZXVWV","3DY4FPOOA3UXRGT2O0L3LMO2FWBRV8","emotion","match","uniform","","","","","","","","636239.9000000004","638247.1999999993","","","","","","","","","","","","8","","stimuli/stars_8.png","32","","","","","stimuli/BM03_HE.jpg","",""
"explore-choice","25","637472","0.0-25.0","p356240","A207IHY6GERCFO","336OE47KI3QZCSCUXSQ8J11UOZXVWV","3DY4FPOOA3UXRGT2O0L3LMO2FWBRV8","emotion","match","uniform","","","","","","","1310.0999999996275","638248.1999999993","639558.2999999989","[""stimuli/WM07_CC.jpg"",""stimuli/BM03_AO.jpg"",""stimuli/AF09_HE.jpg"",""stimuli/WF04_DO.jpg""]","stimuli/WM07_CC.jpg","stimuli/BM03_AO.jpg","stimuli/AF09_HE.jpg","stimuli/WF04_DO.jpg","pos3","stimuli/AF09_HE.jpg","HE","AF09","2","4.5","9","8","stimuli/stars_9.png","36.5","[""CC"",""AO"",""HE"",""DO""]","[""WM07"",""BM03"",""AF09"",""WF04""]","[4,2,9,8]","[4,2,8,6]","","",""
"show-reward","26","639480","0.0-26.0","p356240","A207IHY6GERCFO","336OE47KI3QZCSCUXSQ8J11UOZXVWV","3DY4FPOOA3UXRGT2O0L3LMO2FWBRV8","emotion","match","uniform","","","","","","","","640071.7999999989","642077","","","","","","","","","","","","9","","stimuli/stars_9.png","36.5","","","","","stimuli/AF09_HE.jpg","",""
"explore-choice","27","642669","0.0-27.0","p356240","A207IHY6GERCFO","336OE47KI3QZCSCUXSQ8J11UOZXVWV","3DY4FPOOA3UXRGT2O0L3LMO2FWBRV8","emotion","match","uniform","","","","","","","2679.5","642079","644758.5","[""stimuli/AF09_AO.jpg"",""stimuli/BM03_DO.jpg"",""stimuli/WM07_HE.jpg"",""stimuli/WF04_CC.jpg""]","stimuli/AF09_AO.jpg","stimuli/BM03_DO.jpg","stimuli/WM07_HE.jpg","stimuli/WF04_CC.jpg","pos3","stimuli/WM07_HE.jpg","HE","WM07","2","3","6","8","stimuli/stars_6.png","39.5","[""AO"",""DO"",""HE"",""CC""]","[""AF09"",""BM03"",""WM07"",""WF04""]","[2,8,6,3]","[2,6,8,4]","","",""
"show-reward","28","644677","0.0-28.0","p356240","A207IHY6GERCFO","336OE47KI3QZCSCUXSQ8J11UOZXVWV","3DY4FPOOA3UXRGT2O0L3LMO2FWBRV8","emotion","match","uniform","","","","","","","","645267.7999999989","647274.0999999996","","","","","","","","","","","","6","","stimuli/stars_6.png","39.5","","","","","stimuli/WM07_HE.jpg","",""
"explore-choice","29","646960","0.0-29.0","p356240","A207IHY6GERCFO","336OE47KI3QZCSCUXSQ8J11UOZXVWV","3DY4FPOOA3UXRGT2O0L3LMO2FWBRV8","emotion","match","uniform","","","","","","","1770.7000000011176","647275.6999999993","649046.4000000004","[""stimuli/BM03_CC.jpg"",""stimuli/WF04_DO.jpg"",""stimuli/AF09_AO.jpg"",""stimuli/WM07_HE.jpg""]","stimuli/BM03_CC.jpg","stimuli/WF04_DO.jpg","stimuli/AF09_AO.jpg","stimuli/WM07_HE.jpg","pos4","stimuli/WM07_HE.jpg","HE","WM07","3","4","8","8","stimuli/stars_8.png","43.5","[""CC"",""DO"",""AO"",""HE""]","[""BM03"",""WF04"",""AF09"",""WM07""]","[6,6,2,8]","[4,6,2,8]","","",""
"show-reward","30","648965","0.0-30.0","p356240","A207IHY6GERCFO","336OE47KI3QZCSCUXSQ8J11UOZXVWV","3DY4FPOOA3UXRGT2O0L3LMO2FWBRV8","emotion","match","uniform","","","","","","","","649559.4000000004","651562.2999999989","","","","","","","","","","","","8","","stimuli/stars_8.png","43.5","","","","","stimuli/WM07_HE.jpg","",""
"explore-choice","31","651308","0.0-31.0","p356240","A207IHY6GERCFO","336OE47KI3QZCSCUXSQ8J11UOZXVWV","3DY4FPOOA3UXRGT2O0L3LMO2FWBRV8","emotion","match","uniform","","","","","","","1825.9000000003725","651564.2999999989","653390.1999999993","[""stimuli/WM07_CC.jpg"",""stimuli/BM03_DO.jpg"",""stimuli/WF04_HE.jpg"",""stimuli/AF09_AO.jpg""]","stimuli/WM07_CC.jpg","stimuli/BM03_DO.jpg","stimuli/WF04_HE.jpg","stimuli/AF09_AO.jpg","pos3","stimuli/WF04_HE.jpg","HE","WF04","2","4","8","8","stimuli/stars_8.png","47.5","[""CC"",""DO"",""HE"",""AO""]","[""WM07"",""BM03"",""WF04"",""AF09""]","[3,8,8,3]","[4,6,8,2]","","",""
"show-reward","32","653318","0.0-32.0","p356240","A207IHY6GERCFO","336OE47KI3QZCSCUXSQ8J11UOZXVWV","3DY4FPOOA3UXRGT2O0L3LMO2FWBRV8","emotion","match","uniform","","","","","","","","653906.5999999996","655915.5999999996","","","","","","","","","","","","8","","stimuli/stars_8.png","47.5","","","","","stimuli/WF04_HE.jpg","",""
"explore-choice","33","656133","0.0-33.0","p356240","A207IHY6GERCFO","336OE47KI3QZCSCUXSQ8J11UOZXVWV","3DY4FPOOA3UXRGT2O0L3LMO2FWBRV8","emotion","match","uniform","","","","","","","2313.0999999996275","655917","658230.0999999996","[""stimuli/WF04_AO.jpg"",""stimuli/BM03_HE.jpg"",""stimuli/AF09_DO.jpg"",""stimuli/WM07_CC.jpg""]","stimuli/WF04_AO.jpg","stimuli/BM03_HE.jpg","stimuli/AF09_DO.jpg","stimuli/WM07_CC.jpg","pos2","stimuli/BM03_HE.jpg","HE","BM03","1","5","10","8","stimuli/stars_10.png","52.5","[""AO"",""HE"",""DO"",""CC""]","[""WF04"",""BM03"",""AF09"",""WM07""]","[3,10,6,4]","[2,8,6,4]","","",""
"show-reward","34","658139","0.0-34.0","p356240","A207IHY6GERCFO","336OE47KI3QZCSCUXSQ8J11UOZXVWV","3DY4FPOOA3UXRGT2O0L3LMO2FWBRV8","emotion","match","uniform","","","","","","","","658732.6999999993","660736.2999999989","","","","","","","","","","","","10","","stimuli/stars_10.png","52.5","","","","","stimuli/BM03_HE.jpg","",""
"explore-choice","35","660014","0.0-35.0","p356240","A207IHY6GERCFO","336OE47KI3QZCSCUXSQ8J11UOZXVWV","3DY4FPOOA3UXRGT2O0L3LMO2FWBRV8","emotion","match","uniform","","","","","","","1364.0999999996275","660738.0999999996","662102.1999999993","[""stimuli/WM07_AO.jpg"",""stimuli/BM03_DO.jpg"",""stimuli/AF09_CC.jpg"",""stimuli/WF04_HE.jpg""]","stimuli/WM07_AO.jpg","stimuli/BM03_DO.jpg","stimuli/AF09_CC.jpg","stimuli/WF04_HE.jpg","pos4","stimuli/WF04_HE.jpg","HE","WF04","3","5","10","8","stimuli/stars_10.png","57.5","[""AO"",""DO"",""CC"",""HE""]","[""WM07"",""BM03"",""AF09"",""WF04""]","[2,7,5,10]","[2,6,4,8]","","",""
"show-reward","36","662033","0.0-36.0","p356240","A207IHY6GERCFO","336OE47KI3QZCSCUXSQ8J11UOZXVWV","3DY4FPOOA3UXRGT2O0L3LMO2FWBRV8","emotion","match","uniform","","","","","","","","662613.4000000004","664630.1999999993","","","","","","","","","","","","10","","stimuli/stars_10.png","57.5","","","","","stimuli/WF04_HE.jpg","",""
"explore-choice","37","664819","0.0-37.0","p356240","A207IHY6GERCFO","336OE47KI3QZCSCUXSQ8J11UOZXVWV","3DY4FPOOA3UXRGT2O0L3LMO2FWBRV8","emotion","match","uniform","","","","","","","2270","664632.4000000004","666902.4000000004","[""stimuli/WM07_HE.jpg"",""stimuli/WF04_CC.jpg"",""stimuli/BM03_AO.jpg"",""stimuli/AF09_DO.jpg""]","stimuli/WM07_HE.jpg","stimuli/WF04_CC.jpg","stimuli/BM03_AO.jpg","stimuli/AF09_DO.jpg","pos1","stimuli/WM07_HE.jpg","HE","WM07","0","5","10","8","stimuli/stars_10.png","62.5","[""HE"",""CC"",""AO"",""DO""]","[""WM07"",""WF04"",""BM03"",""AF09""]","[10,5,1,4]","[8,4,2,6]","","",""
"show-reward","38","666838","0.0-38.0","p356240","A207IHY6GERCFO","336OE47KI3QZCSCUXSQ8J11UOZXVWV","3DY4FPOOA3UXRGT2O0L3LMO2FWBRV8","emotion","match","uniform","","","","","","","","667418","669435","","","","","","","","","","","","10","","stimuli/stars_10.png","62.5","","","","","stimuli/WM07_HE.jpg","",""
"explore-choice","39","669093","0.0-39.0","p356240","A207IHY6GERCFO","336OE47KI3QZCSCUXSQ8J11UOZXVWV","3DY4FPOOA3UXRGT2O0L3LMO2FWBRV8","emotion","match","uniform","","","","","","","1752.7999999988824","669437.4000000004","671190.1999999993","[""stimuli/BM03_AO.jpg"",""stimuli/WF04_DO.jpg"",""stimuli/WM07_HE.jpg"",""stimuli/AF09_CC.jpg""]","stimuli/BM03_AO.jpg","stimuli/WF04_DO.jpg","stimuli/WM07_HE.jpg","stimuli/AF09_CC.jpg","pos3","stimuli/WM07_HE.jpg","HE","WM07","2","4","8","8","stimuli/stars_8.png","66.5","[""AO"",""DO"",""HE"",""CC""]","[""BM03"",""WF04"",""WM07"",""AF09""]","[4,4,8,4]","[2,6,8,4]","","",""
"show-reward","40","671100","0.0-40.0","p356240","A207IHY6GERCFO","336OE47KI3QZCSCUXSQ8J11UOZXVWV","3DY4FPOOA3UXRGT2O0L3LMO2FWBRV8","emotion","match","uniform","","","","","","","","671692.7999999989","673697.5999999996","","","","","","","","","","","","8","","stimuli/stars_8.png","66.5","","","","","stimuli/WM07_HE.jpg","",""
"explore-choice","41","673572","0.0-41.0","p356240","A207IHY6GERCFO","336OE47KI3QZCSCUXSQ8J11UOZXVWV","3DY4FPOOA3UXRGT2O0L3LMO2FWBRV8","emotion","match","uniform","","","","","","","1970.5999999996275","673699.4000000004","675670","[""stimuli/BM03_AO.jpg"",""stimuli/WF04_CC.jpg"",""stimuli/AF09_HE.jpg"",""stimuli/WM07_DO.jpg""]","stimuli/BM03_AO.jpg","stimuli/WF04_CC.jpg","stimuli/AF09_HE.jpg","stimuli/WM07_DO.jpg","pos3","stimuli/AF09_HE.jpg","HE","AF09","2","3","6","8","stimuli/stars_6.png","69.5","[""AO"",""CC"",""HE"",""DO""]","[""BM03"",""WF04"",""AF09"",""WM07""]","[4,2,6,8]","[2,4,8,6]","","",""
"show-reward","42","675589","0.0-42.0","p356240","A207IHY6GERCFO","336OE47KI3QZCSCUXSQ8J11UOZXVWV","3DY4FPOOA3UXRGT2O0L3LMO2FWBRV8","emotion","match","uniform","","","","","","","","676172.2999999989","678186.5999999996","","","","","","","","","","","","6","","stimuli/stars_6.png","69.5","","","","","stimuli/AF09_HE.jpg","",""
"explore-choice","43","678078","0.0-43.0","p356240","A207IHY6GERCFO","336OE47KI3QZCSCUXSQ8J11UOZXVWV","3DY4FPOOA3UXRGT2O0L3LMO2FWBRV8","emotion","match","uniform","","","","","","","1984.7000000011176","678189.2999999989","680174","[""stimuli/AF09_HE.jpg"",""stimuli/WM07_AO.jpg"",""stimuli/BM03_CC.jpg"",""stimuli/WF04_DO.jpg""]","stimuli/AF09_HE.jpg","stimuli/WM07_AO.jpg","stimuli/BM03_CC.jpg","stimuli/WF04_DO.jpg","pos1","stimuli/AF09_HE.jpg","HE","AF09","0","4.5","9","8","stimuli/stars_9.png","74","[""HE"",""AO"",""CC"",""DO""]","[""AF09"",""WM07"",""BM03"",""WF04""]","[9,0,6,6]","[8,2,4,6]","","",""
"show-reward","44","680084","0.0-44.0","p356240","A207IHY6GERCFO","336OE47KI3QZCSCUXSQ8J11UOZXVWV","3DY4FPOOA3UXRGT2O0L3LMO2FWBRV8","emotion","match","uniform","","","","","","","","680677.4000000004","682681.4000000004","","","","","","","","","","","","9","","stimuli/stars_9.png","74","","","","","stimuli/AF09_HE.jpg","",""
"explore-choice","45","683198","0.0-45.0","p356240","A207IHY6GERCFO","336OE47KI3QZCSCUXSQ8J11UOZXVWV","3DY4FPOOA3UXRGT2O0L3LMO2FWBRV8","emotion","match","uniform","","","","","","","2602.9000000003725","682683.1999999993","685286.0999999996","[""stimuli/AF09_CC.jpg"",""stimuli/BM03_DO.jpg"",""stimuli/WM07_HE.jpg"",""stimuli/WF04_AO.jpg""]","stimuli/AF09_CC.jpg","stimuli/BM03_DO.jpg","stimuli/WM07_HE.jpg","stimuli/WF04_AO.jpg","pos3","stimuli/WM07_HE.jpg","HE","WM07","2","4","8","8","stimuli/stars_8.png","78","[""CC"",""DO"",""HE"",""AO""]","[""AF09"",""BM03"",""WM07"",""WF04""]","[6,8,8,0]","[4,6,8,2]","","",""
"show-reward","46","685203","0.0-46.0","p356240","A207IHY6GERCFO","336OE47KI3QZCSCUXSQ8J11UOZXVWV","3DY4FPOOA3UXRGT2O0L3LMO2FWBRV8","emotion","match","uniform","","","","","","","","685797.6999999993","687801.1999999993","","","","","","","","","","","","8","","stimuli/stars_8.png","78","","","","","stimuli/WM07_HE.jpg","",""
"explore-choice","47","687133","0.0-47.0","p356240","A207IHY6GERCFO","336OE47KI3QZCSCUXSQ8J11UOZXVWV","3DY4FPOOA3UXRGT2O0L3LMO2FWBRV8","emotion","match","uniform","","","","","","","1427.699999999255","687802.4000000004","689230.0999999996","[""stimuli/AF09_CC.jpg"",""stimuli/BM03_AO.jpg"",""stimuli/WF04_HE.jpg"",""stimuli/WM07_DO.jpg""]","stimuli/AF09_CC.jpg","stimuli/BM03_AO.jpg","stimuli/WF04_HE.jpg","stimuli/WM07_DO.jpg","pos3","stimuli/WF04_HE.jpg","HE","WF04","2","5","10","8","stimuli/stars_10.png","83","[""CC"",""AO"",""HE"",""DO""]","[""AF09"",""BM03"",""WF04"",""WM07""]","[5,3,10,6]","[4,2,8,6]","","",""
"show-reward","48","689151","0.0-48.0","p356240","A207IHY6GERCFO","336OE47KI3QZCSCUXSQ8J11UOZXVWV","3DY4FPOOA3UXRGT2O0L3LMO2FWBRV8","emotion","match","uniform","","","","","","","","689732.5999999996","691748.5","","","","","","","","","","","","10","","stimuli/stars_10.png","83","","","","","stimuli/WF04_HE.jpg","",""
"explore-choice","49","692109","0.0-49.0","p356240","A207IHY6GERCFO","336OE47KI3QZCSCUXSQ8J11UOZXVWV","3DY4FPOOA3UXRGT2O0L3LMO2FWBRV8","emotion","match","uniform","","","","","","","2455.2999999988824","691751","694206.2999999989","[""stimuli/WF04_AO.jpg"",""stimuli/AF09_HE.jpg"",""stimuli/WM07_CC.jpg"",""stimuli/BM03_DO.jpg""]","stimuli/WF04_AO.jpg","stimuli/AF09_HE.jpg","stimuli/WM07_CC.jpg","stimuli/BM03_DO.jpg","pos2","stimuli/AF09_HE.jpg","HE","AF09","1","4","8","8","stimuli/stars_8.png","87","[""AO"",""HE"",""CC"",""DO""]","[""WF04"",""AF09"",""WM07"",""BM03""]","[1,8,4,4]","[2,8,4,6]","","",""
"show-reward","50","694119","0.0-50.0","p356240","A207IHY6GERCFO","336OE47KI3QZCSCUXSQ8J11UOZXVWV","3DY4FPOOA3UXRGT2O0L3LMO2FWBRV8","emotion","match","uniform","","","","","","","","694708.7999999989","696717.1999999993","","","","","","","","","","","","8","","stimuli/stars_8.png","87","","","","","stimuli/AF09_HE.jpg","",""
"explore-choice","51","696850","0.0-51.0","p356240","A207IHY6GERCFO","336OE47KI3QZCSCUXSQ8J11UOZXVWV","3DY4FPOOA3UXRGT2O0L3LMO2FWBRV8","emotion","match","uniform","","","","","","","2215.0999999996275","696719.0999999996","698934.1999999993","[""stimuli/AF09_CC.jpg"",""stimuli/WF04_AO.jpg"",""stimuli/WM07_DO.jpg"",""stimuli/BM03_HE.jpg""]","stimuli/AF09_CC.jpg","stimuli/WF04_AO.jpg","stimuli/WM07_DO.jpg","stimuli/BM03_HE.jpg","pos4","stimuli/BM03_HE.jpg","HE","BM03","3","3.5","7","8","stimuli/stars_7.png","90.5","[""CC"",""AO"",""DO"",""HE""]","[""AF09"",""WF04"",""WM07"",""BM03""]","[5,0,8,7]","[4,2,6,8]","","",""
"show-reward","52","698856","0.0-52.0","p356240","A207IHY6GERCFO","336OE47KI3QZCSCUXSQ8J11UOZXVWV","3DY4FPOOA3UXRGT2O0L3LMO2FWBRV8","emotion","match","uniform","","","","","","","","699449.1999999993","701453.2999999989","","","","","","","","","","","","7","","stimuli/stars_7.png","90.5","","","","","stimuli/BM03_HE.jpg","",""
"explore-choice","53","700709","0.0-53.0","p356240","A207IHY6GERCFO","336OE47KI3QZCSCUXSQ8J11UOZXVWV","3DY4FPOOA3UXRGT2O0L3LMO2FWBRV8","emotion","match","uniform","","","","","","","1350.5999999996275","701455.5","702806.0999999996","[""stimuli/AF09_DO.jpg"",""stimuli/WF04_AO.jpg"",""stimuli/BM03_CC.jpg"",""stimuli/WM07_HE.jpg""]","stimuli/AF09_DO.jpg","stimuli/WF04_AO.jpg","stimuli/BM03_CC.jpg","stimuli/WM07_HE.jpg","pos4","stimuli/WM07_HE.jpg","HE","WM07","3","4","8","8","stimuli/stars_8.png","94.5","[""DO"",""AO"",""CC"",""HE""]","[""AF09"",""WF04"",""BM03"",""WM07""]","[4,1,2,8]","[6,2,4,8]","","",""
"show-reward","54","702722","0.0-54.0","p356240","A207IHY6GERCFO","336OE47KI3QZCSCUXSQ8J11UOZXVWV","3DY4FPOOA3UXRGT2O0L3LMO2FWBRV8","emotion","match","uniform","","","","","","","","703308.1999999993","705319.5999999996","","","","","","","","","","","","8","","stimuli/stars_8.png","94.5","","","","","stimuli/WM07_HE.jpg","",""
"explore-choice","55","705666","0.0-55.0","p356240","A207IHY6GERCFO","336OE47KI3QZCSCUXSQ8J11UOZXVWV","3DY4FPOOA3UXRGT2O0L3LMO2FWBRV8","emotion","match","uniform","","","","","","","2436.0999999996275","705321.5999999996","707757.6999999993","[""stimuli/WM07_CC.jpg"",""stimuli/BM03_DO.jpg"",""stimuli/WF04_AO.jpg"",""stimuli/AF09_HE.jpg""]","stimuli/WM07_CC.jpg","stimuli/BM03_DO.jpg","stimuli/WF04_AO.jpg","stimuli/AF09_HE.jpg","pos4","stimuli/AF09_HE.jpg","HE","AF09","3","4","8","8","stimuli/stars_8.png","98.5","[""CC"",""DO"",""AO"",""HE""]","[""WM07"",""BM03"",""WF04"",""AF09""]","[4,4,1,8]","[4,6,2,8]","","",""
"show-reward","56","707669","0.0-56.0","p356240","A207IHY6GERCFO","336OE47KI3QZCSCUXSQ8J11UOZXVWV","3DY4FPOOA3UXRGT2O0L3LMO2FWBRV8","emotion","match","uniform","","","","","","","","708264.9000000004","710267.0999999996","","","","","","","","","","","","8","","stimuli/stars_8.png","98.5","","","","","stimuli/AF09_HE.jpg","",""
"explore-choice","57","710237","0.0-57.0","p356240","A207IHY6GERCFO","336OE47KI3QZCSCUXSQ8J11UOZXVWV","3DY4FPOOA3UXRGT2O0L3LMO2FWBRV8","emotion","match","uniform","","","","","","","2066.199999999255","710267.9000000004","712334.0999999996","[""stimuli/AF09_HE.jpg"",""stimuli/WM07_AO.jpg"",""stimuli/WF04_DO.jpg"",""stimuli/BM03_CC.jpg""]","stimuli/AF09_HE.jpg","stimuli/WM07_AO.jpg","stimuli/WF04_DO.jpg","stimuli/BM03_CC.jpg","pos1","stimuli/AF09_HE.jpg","HE","AF09","0","4.5","9","8","stimuli/stars_9.png","103","[""HE"",""AO"",""DO"",""CC""]","[""AF09"",""WM07"",""WF04"",""BM03""]","[9,0,6,6]","[8,2,6,4]","","",""
"show-reward","58","712243","0.0-58.0","p356240","A207IHY6GERCFO","336OE47KI3QZCSCUXSQ8J11UOZXVWV","3DY4FPOOA3UXRGT2O0L3LMO2FWBRV8","emotion","match","uniform","","","","","","","","712836.5999999996","714840.7999999989","","","","","","","","","","","","9","","stimuli/stars_9.png","103","","","","","stimuli/AF09_HE.jpg","",""
"explore-choice","59","714151","0.0-59.0","p356240","A207IHY6GERCFO","336OE47KI3QZCSCUXSQ8J11UOZXVWV","3DY4FPOOA3UXRGT2O0L3LMO2FWBRV8","emotion","match","uniform","","","","","","","1403.5","714842.5","716246","[""stimuli/WF04_DO.jpg"",""stimuli/BM03_CC.jpg"",""stimuli/WM07_HE.jpg"",""stimuli/AF09_AO.jpg""]","stimuli/WF04_DO.jpg","stimuli/BM03_CC.jpg","stimuli/WM07_HE.jpg","stimuli/AF09_AO.jpg","pos3","stimuli/WM07_HE.jpg","HE","WM07","2","4","8","8","stimuli/stars_8.png","107","[""DO"",""CC"",""HE"",""AO""]","[""WF04"",""BM03"",""WM07"",""AF09""]","[6,6,8,2]","[6,4,8,2]","","",""
"show-reward","60","716168","0.0-60.0","p356240","A207IHY6GERCFO","336OE47KI3QZCSCUXSQ8J11UOZXVWV","3DY4FPOOA3UXRGT2O0L3LMO2FWBRV8","emotion","match","uniform","","","","","","","","716749.5999999996","718765","","","","","","","","","","","","8","","stimuli/stars_8.png","107","","","","","stimuli/WM07_HE.jpg","",""
"explore-choice","61","719774","0.0-61.0","p356240","A207IHY6GERCFO","336OE47KI3QZCSCUXSQ8J11UOZXVWV","3DY4FPOOA3UXRGT2O0L3LMO2FWBRV8","emotion","match","uniform","","","","","","","3102.4000000003725","718767.5","721869.9000000004","[""stimuli/WM07_CC.jpg"",""stimuli/BM03_HE.jpg"",""stimuli/AF09_DO.jpg"",""stimuli/WF04_AO.jpg""]","stimuli/WM07_CC.jpg","stimuli/BM03_HE.jpg","stimuli/AF09_DO.jpg","stimuli/WF04_AO.jpg","pos2","stimuli/BM03_HE.jpg","HE","BM03","1","5","10","8","stimuli/stars_10.png","112","[""CC"",""HE"",""DO"",""AO""]","[""WM07"",""BM03"",""AF09"",""WF04""]","[4,10,6,3]","[4,8,6,2]","","",""
"show-reward","62","721786","0.0-62.0","p356240","A207IHY6GERCFO","336OE47KI3QZCSCUXSQ8J11UOZXVWV","3DY4FPOOA3UXRGT2O0L3LMO2FWBRV8","emotion","match","uniform","","","","","","","","722373.9000000004","724383.0999999996","","","","","","","","","","","","10","","stimuli/stars_10.png","112","","","","","stimuli/BM03_HE.jpg","",""
"explore-choice","63","724064","0.0-63.0","p356240","A207IHY6GERCFO","336OE47KI3QZCSCUXSQ8J11UOZXVWV","3DY4FPOOA3UXRGT2O0L3LMO2FWBRV8","emotion","match","uniform","","","","","","","1772.7000000011176","724385.2999999989","726158","[""stimuli/WM07_DO.jpg"",""stimuli/WF04_CC.jpg"",""stimuli/BM03_AO.jpg"",""stimuli/AF09_HE.jpg""]","stimuli/WM07_DO.jpg","stimuli/WF04_CC.jpg","stimuli/BM03_AO.jpg","stimuli/AF09_HE.jpg","pos4","stimuli/AF09_HE.jpg","HE","AF09","3","3","6","8","stimuli/stars_6.png","115","[""DO"",""CC"",""AO"",""HE""]","[""WM07"",""WF04"",""BM03"",""AF09""]","[8,2,4,6]","[6,4,2,8]","","",""
"show-reward","64","726083","0.0-64.0","p356240","A207IHY6GERCFO","336OE47KI3QZCSCUXSQ8J11UOZXVWV","3DY4FPOOA3UXRGT2O0L3LMO2FWBRV8","emotion","match","uniform","","","","","","","","726663.2999999989","728680.7999999989","","","","","","","","","","","","6","","stimuli/stars_6.png","115","","","","","stimuli/AF09_HE.jpg","",""
"explore-choice","65","727878","0.0-65.0","p356240","A207IHY6GERCFO","336OE47KI3QZCSCUXSQ8J11UOZXVWV","3DY4FPOOA3UXRGT2O0L3LMO2FWBRV8","emotion","match","uniform","","","","","","","1291.4000000003725","728682.7999999989","729974.1999999993","[""stimuli/BM03_DO.jpg"",""stimuli/AF09_HE.jpg"",""stimuli/WF04_CC.jpg"",""stimuli/WM07_AO.jpg""]","stimuli/BM03_DO.jpg","stimuli/AF09_HE.jpg","stimuli/WF04_CC.jpg","stimuli/WM07_AO.jpg","pos2","stimuli/AF09_HE.jpg","HE","AF09","1","4.5","9","8","stimuli/stars_9.png","119.5","[""DO"",""HE"",""CC"",""AO""]","[""BM03"",""AF09"",""WF04"",""WM07""]","[8,9,6,1]","[6,8,4,2]","","",""
"show-reward","66","729889","0.0-66.0","p356240","A207IHY6GERCFO","336OE47KI3QZCSCUXSQ8J11UOZXVWV","3DY4FPOOA3UXRGT2O0L3LMO2FWBRV8","emotion","match","uniform","","","","","","","","730477.2999999989","732486","","","","","","","","","","","","9","","stimuli/stars_9.png","119.5","","","","","stimuli/AF09_HE.jpg","",""
"explore-choice","67","732197","0.0-67.0","p356240","A207IHY6GERCFO","336OE47KI3QZCSCUXSQ8J11UOZXVWV","3DY4FPOOA3UXRGT2O0L3LMO2FWBRV8","emotion","match","uniform","","","","","","","1806.0999999996275","732487.6999999993","734293.7999999989","[""stimuli/WM07_HE.jpg"",""stimuli/BM03_AO.jpg"",""stimuli/AF09_DO.jpg"",""stimuli/WF04_CC.jpg""]","stimuli/WM07_HE.jpg","stimuli/BM03_AO.jpg","stimuli/AF09_DO.jpg","stimuli/WF04_CC.jpg","pos1","stimuli/WM07_HE.jpg","HE","WM07","0","5","10","8","stimuli/stars_10.png","124.5","[""HE"",""AO"",""DO"",""CC""]","[""WM07"",""BM03"",""AF09"",""WF04""]","[10,1,4,5]","[8,2,6,4]","","",""
"show-reward","68","734214","0.0-68.0","p356240","A207IHY6GERCFO","336OE47KI3QZCSCUXSQ8J11UOZXVWV","3DY4FPOOA3UXRGT2O0L3LMO2FWBRV8","emotion","match","uniform","","","","","","","","734795.9000000004","736811.5","","","","","","","","","","","","10","","stimuli/stars_10.png","124.5","","","","","stimuli/WM07_HE.jpg","",""
"explore-choice","69","736382","0.0-69.0","p356240","A207IHY6GERCFO","336OE47KI3QZCSCUXSQ8J11UOZXVWV","3DY4FPOOA3UXRGT2O0L3LMO2FWBRV8","emotion","match","uniform","","","","","","","1664.5999999996275","736813.4000000004","738478","[""stimuli/AF09_HE.jpg"",""stimuli/WM07_DO.jpg"",""stimuli/WF04_AO.jpg"",""stimuli/BM03_CC.jpg""]","stimuli/AF09_HE.jpg","stimuli/WM07_DO.jpg","stimuli/WF04_AO.jpg","stimuli/BM03_CC.jpg","pos1","stimuli/AF09_HE.jpg","HE","AF09","0","3.5","7","8","stimuli/stars_7.png","128","[""HE"",""DO"",""AO"",""CC""]","[""AF09"",""WM07"",""WF04"",""BM03""]","[7,8,0,3]","[8,6,2,4]","","",""
"show-reward","70","738398","0.0-70.0","p356240","A207IHY6GERCFO","336OE47KI3QZCSCUXSQ8J11UOZXVWV","3DY4FPOOA3UXRGT2O0L3LMO2FWBRV8","emotion","match","uniform","","","","","","","","738981.2999999989","740995.4000000004","","","","","","","","","","","","7","","stimuli/stars_7.png","128","","","","","stimuli/AF09_HE.jpg","",""
"explore-choice","71","741229","0.0-71.0","p356240","A207IHY6GERCFO","336OE47KI3QZCSCUXSQ8J11UOZXVWV","3DY4FPOOA3UXRGT2O0L3LMO2FWBRV8","emotion","match","uniform","","","","","","","2328.699999999255","740997.0999999996","743325.7999999989","[""stimuli/WF04_CC.jpg"",""stimuli/AF09_DO.jpg"",""stimuli/WM07_AO.jpg"",""stimuli/BM03_HE.jpg""]","stimuli/WF04_CC.jpg","stimuli/AF09_DO.jpg","stimuli/WM07_AO.jpg","stimuli/BM03_HE.jpg","pos4","stimuli/BM03_HE.jpg","HE","BM03","3","3.5","7","8","stimuli/stars_7.png","131.5","[""CC"",""DO"",""AO"",""HE""]","[""WF04"",""AF09"",""WM07"",""BM03""]","[5,8,3,7]","[4,6,2,8]","","",""
"show-reward","72","743235","0.0-72.0","p356240","A207IHY6GERCFO","336OE47KI3QZCSCUXSQ8J11UOZXVWV","3DY4FPOOA3UXRGT2O0L3LMO2FWBRV8","emotion","match","uniform","","","","","","","","743827.7999999989","745832.6999999993","","","","","","","","","","","","7","","stimuli/stars_7.png","131.5","","","","","stimuli/BM03_HE.jpg","",""
"explore-choice","73","745238","0.0-73.0","p356240","A207IHY6GERCFO","336OE47KI3QZCSCUXSQ8J11UOZXVWV","3DY4FPOOA3UXRGT2O0L3LMO2FWBRV8","emotion","match","uniform","","","","","","","1499.3999999985099","745834.4000000004","747333.7999999989","[""stimuli/WF04_AO.jpg"",""stimuli/AF09_DO.jpg"",""stimuli/WM07_HE.jpg"",""stimuli/BM03_CC.jpg""]","stimuli/WF04_AO.jpg","stimuli/AF09_DO.jpg","stimuli/WM07_HE.jpg","stimuli/BM03_CC.jpg","pos3","stimuli/WM07_HE.jpg","HE","WM07","2","4","8","8","stimuli/stars_8.png","135.5","[""AO"",""DO"",""HE"",""CC""]","[""WF04"",""AF09"",""WM07"",""BM03""]","[1,4,8,2]","[2,6,8,4]","","",""
"show-reward","74","747249","0.0-74.0","p356240","A207IHY6GERCFO","336OE47KI3QZCSCUXSQ8J11UOZXVWV","3DY4FPOOA3UXRGT2O0L3LMO2FWBRV8","emotion","match","uniform","","","","","","","","747836.9000000004","749846.6999999993","","","","","","","","","","","","8","","stimuli/stars_8.png","135.5","","","","","stimuli/WM07_HE.jpg","",""
"explore-choice","75","749501","0.0-75.0","p356240","A207IHY6GERCFO","336OE47KI3QZCSCUXSQ8J11UOZXVWV","3DY4FPOOA3UXRGT2O0L3LMO2FWBRV8","emotion","match","uniform","","","","","","","1749.2999999988824","749848.5","751597.7999999989","[""stimuli/AF09_DO.jpg"",""stimuli/WF04_HE.jpg"",""stimuli/BM03_CC.jpg"",""stimuli/WM07_AO.jpg""]","stimuli/AF09_DO.jpg","stimuli/WF04_HE.jpg","stimuli/BM03_CC.jpg","stimuli/WM07_AO.jpg","pos2","stimuli/WF04_HE.jpg","HE","WF04","1","4","8","8","stimuli/stars_8.png","139.5","[""DO"",""HE"",""CC"",""AO""]","[""AF09"",""WF04"",""BM03"",""WM07""]","[4,8,6,3]","[6,8,4,2]","","",""
"show-reward","76","751507","0.0-76.0","p356240","A207IHY6GERCFO","336OE47KI3QZCSCUXSQ8J11UOZXVWV","3DY4FPOOA3UXRGT2O0L3LMO2FWBRV8","emotion","match","uniform","","","","","","","","752100.4000000004","754104.1999999993","","","","","","","","","","","","8","","stimuli/stars_8.png","139.5","","","","","stimuli/WF04_HE.jpg","",""
"explore-choice","77","753348","0.0-77.0","p356240","A207IHY6GERCFO","336OE47KI3QZCSCUXSQ8J11UOZXVWV","3DY4FPOOA3UXRGT2O0L3LMO2FWBRV8","emotion","match","uniform","","","","","","","1339.699999999255","754106","755445.6999999993","[""stimuli/WM07_DO.jpg"",""stimuli/WF04_AO.jpg"",""stimuli/AF09_CC.jpg"",""stimuli/BM03_HE.jpg""]","stimuli/WM07_DO.jpg","stimuli/WF04_AO.jpg","stimuli/AF09_CC.jpg","stimuli/BM03_HE.jpg","pos4","stimuli/BM03_HE.jpg","HE","BM03","3","3.5","7","8","stimuli/stars_7.png","143","[""DO"",""AO"",""CC"",""HE""]","[""WM07"",""WF04"",""AF09"",""BM03""]","[8,0,5,7]","[6,2,4,8]","","",""
"show-reward","78","755353","0.0-78.0","p356240","A207IHY6GERCFO","336OE47KI3QZCSCUXSQ8J11UOZXVWV","3DY4FPOOA3UXRGT2O0L3LMO2FWBRV8","emotion","match","uniform","","","","","","","","755947.1999999993","757950.1999999993","","","","","","","","","","","","7","","stimuli/stars_7.png","143","","","","","stimuli/BM03_HE.jpg","",""
"explore-choice","79","757237","0.0-79.0","p356240","A207IHY6GERCFO","336OE47KI3QZCSCUXSQ8J11UOZXVWV","3DY4FPOOA3UXRGT2O0L3LMO2FWBRV8","emotion","match","uniform","","","","","","","1381.5999999996275","757952.1999999993","759333.7999999989","[""stimuli/WF04_CC.jpg"",""stimuli/AF09_AO.jpg"",""stimuli/BM03_DO.jpg"",""stimuli/WM07_HE.jpg""]","stimuli/WF04_CC.jpg","stimuli/AF09_AO.jpg","stimuli/BM03_DO.jpg","stimuli/WM07_HE.jpg","pos4","stimuli/WM07_HE.jpg","HE","WM07","3","3","6","8","stimuli/stars_6.png","146","[""CC"",""AO"",""DO"",""HE""]","[""WF04"",""AF09"",""BM03"",""WM07""]","[3,2,8,6]","[4,2,6,8]","","",""
"show-reward","80","759254","0.0-80.0","p356240","A207IHY6GERCFO","336OE47KI3QZCSCUXSQ8J11UOZXVWV","3DY4FPOOA3UXRGT2O0L3LMO2FWBRV8","emotion","match","uniform","","","","","","","","759836.4000000004","761851.7999999989","","","","","","","","","","","","6","","stimuli/stars_6.png","146","","","","","stimuli/WM07_HE.jpg","",""
"explore-choice","81","760693","0.0-81.0","p356240","A207IHY6GERCFO","336OE47KI3QZCSCUXSQ8J11UOZXVWV","3DY4FPOOA3UXRGT2O0L3LMO2FWBRV8","emotion","match","uniform","","","","","","","936.0999999996275","761853.5999999996","762789.6999999993","[""stimuli/WF04_HE.jpg"",""stimuli/BM03_AO.jpg"",""stimuli/WM07_DO.jpg"",""stimuli/AF09_CC.jpg""]","stimuli/WF04_HE.jpg","stimuli/BM03_AO.jpg","stimuli/WM07_DO.jpg","stimuli/AF09_CC.jpg","pos1","stimuli/WF04_HE.jpg","HE","WF04","0","5","10","8","stimuli/stars_10.png","151","[""HE"",""AO"",""DO"",""CC""]","[""WF04"",""BM03"",""WM07"",""AF09""]","[10,3,6,5]","[8,2,6,4]","","",""
"show-reward","82","762700","0.0-82.0","p356240","A207IHY6GERCFO","336OE47KI3QZCSCUXSQ8J11UOZXVWV","3DY4FPOOA3UXRGT2O0L3LMO2FWBRV8","emotion","match","uniform","","","","","","","","763292.2999999989","765297.0999999996","","","","","","","","","","","","10","","stimuli/stars_10.png","151","","","","","stimuli/WF04_HE.jpg","",""
"explore-choice","83","764265","0.0-83.0","p356240","A207IHY6GERCFO","336OE47KI3QZCSCUXSQ8J11UOZXVWV","3DY4FPOOA3UXRGT2O0L3LMO2FWBRV8","emotion","match","uniform","","","","","","","1050.7999999988824","765298.9000000004","766349.6999999993","[""stimuli/WM07_HE.jpg"",""stimuli/AF09_CC.jpg"",""stimuli/BM03_DO.jpg"",""stimuli/WF04_AO.jpg""]","stimuli/WM07_HE.jpg","stimuli/AF09_CC.jpg","stimuli/BM03_DO.jpg","stimuli/WF04_AO.jpg","pos1","stimuli/WM07_HE.jpg","HE","WM07","0","4","8","8","stimuli/stars_8.png","155","[""HE"",""CC"",""DO"",""AO""]","[""WM07"",""AF09"",""BM03"",""WF04""]","[8,6,8,0]","[8,4,6,2]","","",""
"show-reward","84","766274","0.0-84.0","p356240","A207IHY6GERCFO","336OE47KI3QZCSCUXSQ8J11UOZXVWV","3DY4FPOOA3UXRGT2O0L3LMO2FWBRV8","emotion","match","uniform","","","","","","","","766864.5999999996","768871.4000000004","","","","","","","","","","","","8","","stimuli/stars_8.png","155","","","","","stimuli/WM07_HE.jpg","",""
"explore-choice","85","768106","0.0-85.0","p356240","A207IHY6GERCFO","336OE47KI3QZCSCUXSQ8J11UOZXVWV","3DY4FPOOA3UXRGT2O0L3LMO2FWBRV8","emotion","match","uniform","","","","","","","1316.300000000745","768873.2999999989","770189.5999999996","[""stimuli/BM03_DO.jpg"",""stimuli/WM07_AO.jpg"",""stimuli/WF04_HE.jpg"",""stimuli/AF09_CC.jpg""]","stimuli/BM03_DO.jpg","stimuli/WM07_AO.jpg","stimuli/WF04_HE.jpg","stimuli/AF09_CC.jpg","pos3","stimuli/WF04_HE.jpg","HE","WF04","2","5","10","8","stimuli/stars_10.png","160","[""DO"",""AO"",""HE"",""CC""]","[""BM03"",""WM07"",""WF04"",""AF09""]","[7,2,10,5]","[6,2,8,4]","","",""
"show-reward","86","770112","0.0-86.0","p356240","A207IHY6GERCFO","336OE47KI3QZCSCUXSQ8J11UOZXVWV","3DY4FPOOA3UXRGT2O0L3LMO2FWBRV8","emotion","match","uniform","","","","","","","","770705.1999999993","772709.6999999993","","","","","","","","","","","","10","","stimuli/stars_10.png","160","","","","","stimuli/WF04_HE.jpg","",""
"explore-choice","87","772067","0.0-87.0","p356240","A207IHY6GERCFO","336OE47KI3QZCSCUXSQ8J11UOZXVWV","3DY4FPOOA3UXRGT2O0L3LMO2FWBRV8","emotion","match","uniform","","","","","","","1438","772711.6999999993","774149.6999999993","[""stimuli/WF04_CC.jpg"",""stimuli/WM07_DO.jpg"",""stimuli/AF09_AO.jpg"",""stimuli/BM03_HE.jpg""]","stimuli/WF04_CC.jpg","stimuli/WM07_DO.jpg","stimuli/AF09_AO.jpg","stimuli/BM03_HE.jpg","pos4","stimuli/BM03_HE.jpg","HE","BM03","3","3.5","7","8","stimuli/stars_7.png","163.5","[""CC"",""DO"",""AO"",""HE""]","[""WF04"",""WM07"",""AF09"",""BM03""]","[3,4,2,7]","[4,6,2,8]","","",""
"show-reward","88","774072","0.0-88.0","p356240","A207IHY6GERCFO","336OE47KI3QZCSCUXSQ8J11UOZXVWV","3DY4FPOOA3UXRGT2O0L3LMO2FWBRV8","emotion","match","uniform","","","","","","","","774666.0999999996","776670","","","","","","","","","","","","7","","stimuli/stars_7.png","163.5","","","","","stimuli/BM03_HE.jpg","",""
"explore-choice","89","775969","0.0-89.0","p356240","A207IHY6GERCFO","336OE47KI3QZCSCUXSQ8J11UOZXVWV","3DY4FPOOA3UXRGT2O0L3LMO2FWBRV8","emotion","match","uniform","","","","","","","1389.4000000003725","776672","778061.4000000004","[""stimuli/WM07_CC.jpg"",""stimuli/AF09_DO.jpg"",""stimuli/WF04_HE.jpg"",""stimuli/BM03_AO.jpg""]","stimuli/WM07_CC.jpg","stimuli/AF09_DO.jpg","stimuli/WF04_HE.jpg","stimuli/BM03_AO.jpg","pos3","stimuli/WF04_HE.jpg","HE","WF04","2","3","6","8","stimuli/stars_6.png","166.5","[""CC"",""DO"",""HE"",""AO""]","[""WM07"",""AF09"",""WF04"",""BM03""]","[4,5,6,2]","[4,6,8,2]","","",""
"show-reward","90","777981","0.0-90.0","p356240","A207IHY6GERCFO","336OE47KI3QZCSCUXSQ8J11UOZXVWV","3DY4FPOOA3UXRGT2O0L3LMO2FWBRV8","emotion","match","uniform","","","","","","","","778568.5","780578.2999999989","","","","","","","","","","","","6","","stimuli/stars_6.png","166.5","","","","","stimuli/WF04_HE.jpg","",""
"explore-choice","91","780069","0.0-91.0","p356240","A207IHY6GERCFO","336OE47KI3QZCSCUXSQ8J11UOZXVWV","3DY4FPOOA3UXRGT2O0L3LMO2FWBRV8","emotion","match","uniform","","","","","","","1585.0999999996275","780580.5","782165.5999999996","[""stimuli/BM03_CC.jpg"",""stimuli/AF09_AO.jpg"",""stimuli/WM07_DO.jpg"",""stimuli/WF04_HE.jpg""]","stimuli/BM03_CC.jpg","stimuli/AF09_AO.jpg","stimuli/WM07_DO.jpg","stimuli/WF04_HE.jpg","pos4","stimuli/WF04_HE.jpg","HE","WF04","3","4.5","9","8","stimuli/stars_9.png","171","[""CC"",""AO"",""DO"",""HE""]","[""BM03"",""AF09"",""WM07"",""WF04""]","[5,3,4,9]","[4,2,6,8]","","",""
"show-reward","92","782080","0.0-92.0","p356240","A207IHY6GERCFO","336OE47KI3QZCSCUXSQ8J11UOZXVWV","3DY4FPOOA3UXRGT2O0L3LMO2FWBRV8","emotion","match","uniform","","","","","","","","782668.5","784677.6999999993","","","","","","","","","","","","9","","stimuli/stars_9.png","171","","","","","stimuli/WF04_HE.jpg","",""
"explore-choice","93","784886","0.0-93.0","p356240","A207IHY6GERCFO","336OE47KI3QZCSCUXSQ8J11UOZXVWV","3DY4FPOOA3UXRGT2O0L3LMO2FWBRV8","emotion","match","uniform","","","","","","","2294.9000000003725","784678.6999999993","786973.5999999996","[""stimuli/BM03_HE.jpg"",""stimuli/WF04_DO.jpg"",""stimuli/AF09_AO.jpg"",""stimuli/WM07_CC.jpg""]","stimuli/BM03_HE.jpg","stimuli/WF04_DO.jpg","stimuli/AF09_AO.jpg","stimuli/WM07_CC.jpg","pos1","stimuli/BM03_HE.jpg","HE","BM03","0","4","8","8","stimuli/stars_8.png","175","[""HE"",""DO"",""AO"",""CC""]","[""BM03"",""WF04"",""AF09"",""WM07""]","[8,7,0,4]","[8,6,2,4]","","",""
"show-reward","94","786900","0.0-94.0","p356240","A207IHY6GERCFO","336OE47KI3QZCSCUXSQ8J11UOZXVWV","3DY4FPOOA3UXRGT2O0L3LMO2FWBRV8","emotion","match","uniform","","","","","","","","787485.2999999989","789497.7999999989","","","","","","","","","","","","8","","stimuli/stars_8.png","175","","","","","stimuli/BM03_HE.jpg","",""
"explore-choice","95","788949","0.0-95.0","p356240","A207IHY6GERCFO","336OE47KI3QZCSCUXSQ8J11UOZXVWV","3DY4FPOOA3UXRGT2O0L3LMO2FWBRV8","emotion","match","uniform","","","","","","","1545.7999999988824","789499.9000000004","791045.6999999993","[""stimuli/BM03_AO.jpg"",""stimuli/WM07_CC.jpg"",""stimuli/WF04_DO.jpg"",""stimuli/AF09_HE.jpg""]","stimuli/BM03_AO.jpg","stimuli/WM07_CC.jpg","stimuli/WF04_DO.jpg","stimuli/AF09_HE.jpg","pos4","stimuli/AF09_HE.jpg","HE","AF09","3","4.5","9","8","stimuli/stars_9.png","179.5","[""AO"",""CC"",""DO"",""HE""]","[""BM03"",""WM07"",""WF04"",""AF09""]","[2,4,8,9]","[2,4,6,8]","","",""
"show-reward","96","790964","0.0-96.0","p356240","A207IHY6GERCFO","336OE47KI3QZCSCUXSQ8J11UOZXVWV","3DY4FPOOA3UXRGT2O0L3LMO2FWBRV8","emotion","match","uniform","","","","","","","","791548.4000000004","793562","","","","","","","","","","","","9","","stimuli/stars_9.png","179.5","","","","","stimuli/AF09_HE.jpg","",""
"explore-choice","97","792636","0.0-97.0","p356240","A207IHY6GERCFO","336OE47KI3QZCSCUXSQ8J11UOZXVWV","3DY4FPOOA3UXRGT2O0L3LMO2FWBRV8","emotion","match","uniform","","","","","","","1169.800000000745","793563.7999999989","794733.5999999996","[""stimuli/BM03_HE.jpg"",""stimuli/WM07_AO.jpg"",""stimuli/WF04_DO.jpg"",""stimuli/AF09_CC.jpg""]","stimuli/BM03_HE.jpg","stimuli/WM07_AO.jpg","stimuli/WF04_DO.jpg","stimuli/AF09_CC.jpg","pos1","stimuli/BM03_HE.jpg","HE","BM03","0","3.5","7","8","stimuli/stars_7.png","183","[""HE"",""AO"",""DO"",""CC""]","[""BM03"",""WM07"",""WF04"",""AF09""]","[7,3,8,2]","[8,2,6,4]","","",""
"show-reward","98","794638","0.0-98.0","p356240","A207IHY6GERCFO","336OE47KI3QZCSCUXSQ8J11UOZXVWV","3DY4FPOOA3UXRGT2O0L3LMO2FWBRV8","emotion","match","uniform","","","","","","","","795234.6999999993","797235.7999999989","","","","","","","","","","","","7","","stimuli/stars_7.png","183","","","","","stimuli/BM03_HE.jpg","",""
"explore-choice","99","796148","0.0-99.0","p356240","A207IHY6GERCFO","336OE47KI3QZCSCUXSQ8J11UOZXVWV","3DY4FPOOA3UXRGT2O0L3LMO2FWBRV8","emotion","match","uniform","","","","","","","1008.8000000007451","797236.6999999993","798245.5","[""stimuli/WF04_HE.jpg"",""stimuli/WM07_CC.jpg"",""stimuli/BM03_DO.jpg"",""stimuli/AF09_AO.jpg""]","stimuli/WF04_HE.jpg","stimuli/WM07_CC.jpg","stimuli/BM03_DO.jpg","stimuli/AF09_AO.jpg","pos1","stimuli/WF04_HE.jpg","HE","WF04","0","4","8","8","stimuli/stars_8.png","187","[""HE"",""CC"",""DO"",""AO""]","[""WF04"",""WM07"",""BM03"",""AF09""]","[8,3,8,3]","[8,4,6,2]","","",""
"show-reward","100","798162","0.0-100.0","p356240","A207IHY6GERCFO","336OE47KI3QZCSCUXSQ8J11UOZXVWV","3DY4FPOOA3UXRGT2O0L3LMO2FWBRV8","emotion","match","uniform","","","","","","","","798747.6999999993","800759.1999999993","","","","","","","","","","","","8","","stimuli/stars_8.png","187","","","","","stimuli/WF04_HE.jpg","",""
"explore-choice","101","800229","0.0-101.0","p356240","A207IHY6GERCFO","336OE47KI3QZCSCUXSQ8J11UOZXVWV","3DY4FPOOA3UXRGT2O0L3LMO2FWBRV8","emotion","match","uniform","","","","","","","1564.4000000003725","800761.0999999996","802325.5","[""stimuli/BM03_AO.jpg"",""stimuli/WF04_DO.jpg"",""stimuli/AF09_CC.jpg"",""stimuli/WM07_HE.jpg""]","stimuli/BM03_AO.jpg","stimuli/WF04_DO.jpg","stimuli/AF09_CC.jpg","stimuli/WM07_HE.jpg","pos4","stimuli/WM07_HE.jpg","HE","WM07","3","4","8","8","stimuli/stars_8.png","191","[""AO"",""DO"",""CC"",""HE""]","[""BM03"",""WF04"",""AF09"",""WM07""]","[4,4,4,8]","[2,6,4,8]","","",""
"show-reward","102","802235","0.0-102.0","p356240","A207IHY6GERCFO","336OE47KI3QZCSCUXSQ8J11UOZXVWV","3DY4FPOOA3UXRGT2O0L3LMO2FWBRV8","emotion","match","uniform","","","","","","","","802828.1999999993","804832.5999999996","","","","","","","","","","","","8","","stimuli/stars_8.png","191","","","","","stimuli/WM07_HE.jpg","",""
"explore-choice","103","804944","0.0-103.0","p356240","A207IHY6GERCFO","336OE47KI3QZCSCUXSQ8J11UOZXVWV","3DY4FPOOA3UXRGT2O0L3LMO2FWBRV8","emotion","match","uniform","","","","","","","2194.699999999255","804834.9000000004","807029.5999999996","[""stimuli/WF14_HO.jpg"",""stimuli/HF10_SUR.jpg"",""stimuli/BF04_FO.jpg"",""stimuli/AM03_SC.jpg""]","stimuli/WF14_HO.jpg","stimuli/HF10_SUR.jpg","stimuli/BF04_FO.jpg","stimuli/AM03_SC.jpg","pos1","stimuli/WF14_HO.jpg","HO","WF14","0","5","10","8","stimuli/stars_10.png","196","[""HO"",""SUR"",""FO"",""SC""]","[""WF14"",""HF10"",""BF04"",""AM03""]","[10,6,7,2]","[8,4,6,2]","","",""
"show-reward","104","806949","0.0-104.0","p356240","A207IHY6GERCFO","336OE47KI3QZCSCUXSQ8J11UOZXVWV","3DY4FPOOA3UXRGT2O0L3LMO2FWBRV8","emotion","match","uniform","","","","","","","","807543.0999999996","809546.7999999989","","","","","","","","","","","","10","","stimuli/stars_10.png","196","","","","","stimuli/WF14_HO.jpg","",""
"explore-choice","105","809350","0.0-105.0","p356240","A207IHY6GERCFO","336OE47KI3QZCSCUXSQ8J11UOZXVWV","3DY4FPOOA3UXRGT2O0L3LMO2FWBRV8","emotion","match","uniform","","","","","","","1896.800000000745","809548.6999999993","811445.5","[""stimuli/WF14_SUR.jpg"",""stimuli/AM03_HO.jpg"",""stimuli/BF04_FO.jpg"",""stimuli/HF10_SC.jpg""]","stimuli/WF14_SUR.jpg","stimuli/AM03_HO.jpg","stimuli/BF04_FO.jpg","stimuli/HF10_SC.jpg","pos2","stimuli/AM03_HO.jpg","HO","AM03","1","4","8","8","stimuli/stars_8.png","200","[""SUR"",""HO"",""FO"",""SC""]","[""WF14"",""AM03"",""BF04"",""HF10""]","[6,8,7,4]","[4,8,6,2]","","",""
"show-reward","106","811368","0.0-106.0","p356240","A207IHY6GERCFO","336OE47KI3QZCSCUXSQ8J11UOZXVWV","3DY4FPOOA3UXRGT2O0L3LMO2FWBRV8","emotion","match","uniform","","","","","","","","811949.5","813965.5999999996","","","","","","","","","","","","8","","stimuli/stars_8.png","200","","","","","stimuli/AM03_HO.jpg","",""
"explore-choice","107","813269","0.0-107.0","p356240","A207IHY6GERCFO","336OE47KI3QZCSCUXSQ8J11UOZXVWV","3DY4FPOOA3UXRGT2O0L3LMO2FWBRV8","emotion","match","uniform","","","","","","","1397.800000000745","813967.7999999989","815365.5999999996","[""stimuli/AM03_HO.jpg"",""stimuli/HF10_FO.jpg"",""stimuli/WF14_SUR.jpg"",""stimuli/BF04_SC.jpg""]","stimuli/AM03_HO.jpg","stimuli/HF10_FO.jpg","stimuli/WF14_SUR.jpg","stimuli/BF04_SC.jpg","pos1","stimuli/AM03_HO.jpg","HO","AM03","0","4","8","8","stimuli/stars_8.png","204","[""HO"",""FO"",""SUR"",""SC""]","[""AM03"",""HF10"",""WF14"",""BF04""]","[8,8,5,1]","[8,6,4,2]","","",""
"show-reward","108","815276","0.0-108.0","p356240","A207IHY6GERCFO","336OE47KI3QZCSCUXSQ8J11UOZXVWV","3DY4FPOOA3UXRGT2O0L3LMO2FWBRV8","emotion","match","uniform","","","","","","","","815868.9000000004","817873.9000000004","","","","","","","","","","","","8","","stimuli/stars_8.png","204","","","","","stimuli/AM03_HO.jpg","",""
"explore-choice","109","817606","0.0-109.0","p356240","A207IHY6GERCFO","336OE47KI3QZCSCUXSQ8J11UOZXVWV","3DY4FPOOA3UXRGT2O0L3LMO2FWBRV8","emotion","match","uniform","","","","","","","1825.9000000003725","817875.6999999993","819701.5999999996","[""stimuli/HF10_SC.jpg"",""stimuli/WF14_HO.jpg"",""stimuli/AM03_SUR.jpg"",""stimuli/BF04_FO.jpg""]","stimuli/HF10_SC.jpg","stimuli/WF14_HO.jpg","stimuli/AM03_SUR.jpg","stimuli/BF04_FO.jpg","pos2","stimuli/WF14_HO.jpg","HO","WF14","1","4.5","9","8","stimuli/stars_9.png","208.5","[""SC"",""HO"",""SUR"",""FO""]","[""HF10"",""WF14"",""AM03"",""BF04""]","[0,9,4,7]","[2,8,4,6]","","",""
"show-reward","110","819624","0.0-110.0","p356240","A207IHY6GERCFO","336OE47KI3QZCSCUXSQ8J11UOZXVWV","3DY4FPOOA3UXRGT2O0L3LMO2FWBRV8","emotion","match","uniform","","","","","","","","820205.6999999993","822221.4000000004","","","","","","","","","","","","9","","stimuli/stars_9.png","208.5","","","","","stimuli/WF14_HO.jpg","",""
"explore-choice","111","821895","0.0-111.0","p356240","A207IHY6GERCFO","336OE47KI3QZCSCUXSQ8J11UOZXVWV","3DY4FPOOA3UXRGT2O0L3LMO2FWBRV8","emotion","match","uniform","","","","","","","1767","822222.4000000004","823989.4000000004","[""stimuli/BF04_FO.jpg"",""stimuli/HF10_HO.jpg"",""stimuli/AM03_SUR.jpg"",""stimuli/WF14_SC.jpg""]","stimuli/BF04_FO.jpg","stimuli/HF10_HO.jpg","stimuli/AM03_SUR.jpg","stimuli/WF14_SC.jpg","pos2","stimuli/HF10_HO.jpg","HO","HF10","1","5","10","8","stimuli/stars_10.png","213.5","[""FO"",""HO"",""SUR"",""SC""]","[""BF04"",""HF10"",""AM03"",""WF14""]","[8,10,6,0]","[6,8,4,2]","","",""
"show-reward","112","823911","0.0-112.0","p356240","A207IHY6GERCFO","336OE47KI3QZCSCUXSQ8J11UOZXVWV","3DY4FPOOA3UXRGT2O0L3LMO2FWBRV8","emotion","match","uniform","","","","","","","","824494.1999999993","826508.6999999993","","","","","","","","","","","","10","","stimuli/stars_10.png","213.5","","","","","stimuli/HF10_HO.jpg","",""
"explore-choice","113","826018","0.0-113.0","p356240","A207IHY6GERCFO","336OE47KI3QZCSCUXSQ8J11UOZXVWV","3DY4FPOOA3UXRGT2O0L3LMO2FWBRV8","emotion","match","uniform","","","","","","","1591","826510.4000000004","828101.4000000004","[""stimuli/HF10_SC.jpg"",""stimuli/AM03_SUR.jpg"",""stimuli/WF14_FO.jpg"",""stimuli/BF04_HO.jpg""]","stimuli/HF10_SC.jpg","stimuli/AM03_SUR.jpg","stimuli/WF14_FO.jpg","stimuli/BF04_HO.jpg","pos4","stimuli/BF04_HO.jpg","HO","BF04","3","3","6","8","stimuli/stars_6.png","216.5","[""SC"",""SUR"",""FO"",""HO""]","[""HF10"",""AM03"",""WF14"",""BF04""]","[1,4,6,6]","[2,4,6,8]","","",""
"show-reward","114","828031","0.0-114.0","p356240","A207IHY6GERCFO","336OE47KI3QZCSCUXSQ8J11UOZXVWV","3DY4FPOOA3UXRGT2O0L3LMO2FWBRV8","emotion","match","uniform","","","","","","","","828617","830628.4000000004","","","","","","","","","","","","6","","stimuli/stars_6.png","216.5","","","","","stimuli/BF04_HO.jpg","",""
"explore-choice","115","829657","0.0-115.0","p356240","A207IHY6GERCFO","336OE47KI3QZCSCUXSQ8J11UOZXVWV","3DY4FPOOA3UXRGT2O0L3LMO2FWBRV8","emotion","match","uniform","","","","","","","1118.9000000003725","830630.1999999993","831749.0999999996","[""stimuli/AM03_SUR.jpg"",""stimuli/BF04_SC.jpg"",""stimuli/WF14_FO.jpg"",""stimuli/HF10_HO.jpg""]","stimuli/AM03_SUR.jpg","stimuli/BF04_SC.jpg","stimuli/WF14_FO.jpg","stimuli/HF10_HO.jpg","pos4","stimuli/HF10_HO.jpg","HO","HF10","3","3.5","7","8","stimuli/stars_7.png","220","[""SUR"",""SC"",""FO"",""HO""]","[""AM03"",""BF04"",""WF14"",""HF10""]","[4,2,5,7]","[4,2,6,8]","","",""
"show-reward","116","831667","0.0-116.0","p356240","A207IHY6GERCFO","336OE47KI3QZCSCUXSQ8J11UOZXVWV","3DY4FPOOA3UXRGT2O0L3LMO2FWBRV8","emotion","match","uniform","","","","","","","","832256.5999999996","834264.5999999996","","","","","","","","","","","","7","","stimuli/stars_7.png","220","","","","","stimuli/HF10_HO.jpg","",""
"explore-choice","117","833853","0.0-117.0","p356240","A207IHY6GERCFO","336OE47KI3QZCSCUXSQ8J11UOZXVWV","3DY4FPOOA3UXRGT2O0L3LMO2FWBRV8","emotion","match","uniform","","","","","","","1676","834265.5","835941.5","[""stimuli/BF04_SC.jpg"",""stimuli/HF10_SUR.jpg"",""stimuli/AM03_FO.jpg"",""stimuli/WF14_HO.jpg""]","stimuli/BF04_SC.jpg","stimuli/HF10_SUR.jpg","stimuli/AM03_FO.jpg","stimuli/WF14_HO.jpg","pos4","stimuli/WF14_HO.jpg","HO","WF14","3","3","6","8","stimuli/stars_6.png","223","[""SC"",""SUR"",""FO"",""HO""]","[""BF04"",""HF10"",""AM03"",""WF14""]","[2,2,5,6]","[2,4,6,8]","","",""
"show-reward","118","835866","0.0-118.0","p356240","A207IHY6GERCFO","336OE47KI3QZCSCUXSQ8J11UOZXVWV","3DY4FPOOA3UXRGT2O0L3LMO2FWBRV8","emotion","match","uniform","","","","","","","","836452.1999999993","838463.6999999993","","","","","","","","","","","","6","","stimuli/stars_6.png","223","","","","","stimuli/WF14_HO.jpg","",""
"explore-choice","119","838346","0.0-119.0","p356240","A207IHY6GERCFO","336OE47KI3QZCSCUXSQ8J11UOZXVWV","3DY4FPOOA3UXRGT2O0L3LMO2FWBRV8","emotion","match","uniform","","","","","","","1971.9000000003725","838465.5","840437.4000000004","[""stimuli/HF10_SUR.jpg"",""stimuli/BF04_HO.jpg"",""stimuli/AM03_SC.jpg"",""stimuli/WF14_FO.jpg""]","stimuli/HF10_SUR.jpg","stimuli/BF04_HO.jpg","stimuli/AM03_SC.jpg","stimuli/WF14_FO.jpg","pos2","stimuli/BF04_HO.jpg","HO","BF04","1","4.5","9","8","stimuli/stars_9.png","227.5","[""SUR"",""HO"",""SC"",""FO""]","[""HF10"",""BF04"",""AM03"",""WF14""]","[2,9,2,8]","[4,8,2,6]","","",""
"show-reward","120","840365","0.0-120.0","p356240","A207IHY6GERCFO","336OE47KI3QZCSCUXSQ8J11UOZXVWV","3DY4FPOOA3UXRGT2O0L3LMO2FWBRV8","emotion","match","uniform","","","","","","","","840945.1999999993","842962.5999999996","","","","","","","","","","","","9","","stimuli/stars_9.png","227.5","","","","","stimuli/BF04_HO.jpg","",""
"explore-choice","121","843285","0.0-121.0","p356240","A207IHY6GERCFO","336OE47KI3QZCSCUXSQ8J11UOZXVWV","3DY4FPOOA3UXRGT2O0L3LMO2FWBRV8","emotion","match","uniform","","","","","","","2417","842964.4000000004","845381.4000000004","[""stimuli/AM03_HO.jpg"",""stimuli/HF10_SC.jpg"",""stimuli/BF04_SUR.jpg"",""stimuli/WF14_FO.jpg""]","stimuli/AM03_HO.jpg","stimuli/HF10_SC.jpg","stimuli/BF04_SUR.jpg","stimuli/WF14_FO.jpg","pos1","stimuli/AM03_HO.jpg","HO","AM03","0","3","6","8","stimuli/stars_6.png","230.5","[""HO"",""SC"",""SUR"",""FO""]","[""AM03"",""HF10"",""BF04"",""WF14""]","[6,3,3,5]","[8,2,4,6]","","",""
"show-reward","122","845299","0.0-122.0","p356240","A207IHY6GERCFO","336OE47KI3QZCSCUXSQ8J11UOZXVWV","3DY4FPOOA3UXRGT2O0L3LMO2FWBRV8","emotion","match","uniform","","","","","","","","845885","847896.5999999996","","","","","","","","","","","","6","","stimuli/stars_6.png","230.5","","","","","stimuli/AM03_HO.jpg","",""
"explore-choice","123","847822","0.0-123.0","p356240","A207IHY6GERCFO","336OE47KI3QZCSCUXSQ8J11UOZXVWV","3DY4FPOOA3UXRGT2O0L3LMO2FWBRV8","emotion","match","uniform","","","","","","","2010.699999999255","847898.5999999996","849909.2999999989","[""stimuli/HF10_SC.jpg"",""stimuli/BF04_SUR.jpg"",""stimuli/AM03_FO.jpg"",""stimuli/WF14_HO.jpg""]","stimuli/HF10_SC.jpg","stimuli/BF04_SUR.jpg","stimuli/AM03_FO.jpg","stimuli/WF14_HO.jpg","pos4","stimuli/WF14_HO.jpg","HO","WF14","3","5","10","8","stimuli/stars_10.png","235.5","[""SC"",""SUR"",""FO"",""HO""]","[""HF10"",""BF04"",""AM03"",""WF14""]","[3,4,6,10]","[2,4,6,8]","","",""
"show-reward","124","849837","0.0-124.0","p356240","A207IHY6GERCFO","336OE47KI3QZCSCUXSQ8J11UOZXVWV","3DY4FPOOA3UXRGT2O0L3LMO2FWBRV8","emotion","match","uniform","","","","","","","","850421.4000000004","852434.5","","","","","","","","","","","","10","","stimuli/stars_10.png","235.5","","","","","stimuli/WF14_HO.jpg","",""
"explore-choice","125","852605","0.0-125.0","p356240","A207IHY6GERCFO","336OE47KI3QZCSCUXSQ8J11UOZXVWV","3DY4FPOOA3UXRGT2O0L3LMO2FWBRV8","emotion","match","uniform","","","","","","","2264.4000000003725","852436.7999999989","854701.1999999993","[""stimuli/AM03_HO.jpg"",""stimuli/WF14_FO.jpg"",""stimuli/BF04_SC.jpg"",""stimuli/HF10_SUR.jpg""]","stimuli/AM03_HO.jpg","stimuli/WF14_FO.jpg","stimuli/BF04_SC.jpg","stimuli/HF10_SUR.jpg","pos1","stimuli/AM03_HO.jpg","HO","AM03","0","3","6","8","stimuli/stars_6.png","238.5","[""HO"",""FO"",""SC"",""SUR""]","[""AM03"",""WF14"",""BF04"",""HF10""]","[6,7,1,6]","[8,6,2,4]","","",""
"show-reward","126","854608","0.0-126.0","p356240","A207IHY6GERCFO","336OE47KI3QZCSCUXSQ8J11UOZXVWV","3DY4FPOOA3UXRGT2O0L3LMO2FWBRV8","emotion","match","uniform","","","","","","","","855203.5999999996","857205.5999999996","","","","","","","","","","","","6","","stimuli/stars_6.png","238.5","","","","","stimuli/AM03_HO.jpg","",""
"explore-choice","127","857118","0.0-127.0","p356240","A207IHY6GERCFO","336OE47KI3QZCSCUXSQ8J11UOZXVWV","3DY4FPOOA3UXRGT2O0L3LMO2FWBRV8","emotion","match","uniform","","","","","","","2006.7999999988824","857206.9000000004","859213.6999999993","[""stimuli/WF14_SUR.jpg"",""stimuli/HF10_FO.jpg"",""stimuli/AM03_SC.jpg"",""stimuli/BF04_HO.jpg""]","stimuli/WF14_SUR.jpg","stimuli/HF10_FO.jpg","stimuli/AM03_SC.jpg","stimuli/BF04_HO.jpg","pos4","stimuli/BF04_HO.jpg","HO","BF04","3","4.5","9","8","stimuli/stars_9.png","243","[""SUR"",""FO"",""SC"",""HO""]","[""WF14"",""HF10"",""AM03"",""BF04""]","[2,6,1,9]","[4,6,2,8]","","",""
"show-reward","128","859124","0.0-128.0","p356240","A207IHY6GERCFO","336OE47KI3QZCSCUXSQ8J11UOZXVWV","3DY4FPOOA3UXRGT2O0L3LMO2FWBRV8","emotion","match","uniform","","","","","","","","859718","861721.5","","","","","","","","","","","","9","","stimuli/stars_9.png","243","","","","","stimuli/BF04_HO.jpg","",""
"explore-choice","129","861549","0.0-129.0","p356240","A207IHY6GERCFO","336OE47KI3QZCSCUXSQ8J11UOZXVWV","3DY4FPOOA3UXRGT2O0L3LMO2FWBRV8","emotion","match","uniform","","","","","","","1922.699999999255","861722.5999999996","863645.2999999989","[""stimuli/BF04_SC.jpg"",""stimuli/AM03_SUR.jpg"",""stimuli/WF14_HO.jpg"",""stimuli/HF10_FO.jpg""]","stimuli/BF04_SC.jpg","stimuli/AM03_SUR.jpg","stimuli/WF14_HO.jpg","stimuli/HF10_FO.jpg","pos3","stimuli/WF14_HO.jpg","HO","WF14","2","4.5","9","8","stimuli/stars_9.png","247.5","[""SC"",""SUR"",""HO"",""FO""]","[""BF04"",""AM03"",""WF14"",""HF10""]","[3,5,9,8]","[2,4,8,6]","","",""
"show-reward","130","863556","0.0-130.0","p356240","A207IHY6GERCFO","336OE47KI3QZCSCUXSQ8J11UOZXVWV","3DY4FPOOA3UXRGT2O0L3LMO2FWBRV8","emotion","match","uniform","","","","","","","","864149.0999999996","866154","","","","","","","","","","","","9","","stimuli/stars_9.png","247.5","","","","","stimuli/WF14_HO.jpg","",""
"explore-choice","131","865077","0.0-131.0","p356240","A207IHY6GERCFO","336OE47KI3QZCSCUXSQ8J11UOZXVWV","3DY4FPOOA3UXRGT2O0L3LMO2FWBRV8","emotion","match","uniform","","","","","","","1017.8000000007451","866155.6999999993","867173.5","[""stimuli/HF10_HO.jpg"",""stimuli/WF14_FO.jpg"",""stimuli/BF04_SUR.jpg"",""stimuli/AM03_SC.jpg""]","stimuli/HF10_HO.jpg","stimuli/WF14_FO.jpg","stimuli/BF04_SUR.jpg","stimuli/AM03_SC.jpg","pos1","stimuli/HF10_HO.jpg","HO","HF10","0","4","8","8","stimuli/stars_8.png","251.5","[""HO"",""FO"",""SUR"",""SC""]","[""HF10"",""WF14"",""BF04"",""AM03""]","[8,8,6,3]","[8,6,4,2]","","",""
"show-reward","132","867085","0.0-132.0","p356240","A207IHY6GERCFO","336OE47KI3QZCSCUXSQ8J11UOZXVWV","3DY4FPOOA3UXRGT2O0L3LMO2FWBRV8","emotion","match","uniform","","","","","","","","867677.4000000004","869682.5999999996","","","","","","","","","","","","8","","stimuli/stars_8.png","251.5","","","","","stimuli/HF10_HO.jpg","",""
"explore-choice","133","868556","0.0-133.0","p356240","A207IHY6GERCFO","336OE47KI3QZCSCUXSQ8J11UOZXVWV","3DY4FPOOA3UXRGT2O0L3LMO2FWBRV8","emotion","match","uniform","","","","","","","969.5","869683.6999999993","870653.1999999993","[""stimuli/WF14_HO.jpg"",""stimuli/BF04_SUR.jpg"",""stimuli/AM03_SC.jpg"",""stimuli/HF10_FO.jpg""]","stimuli/WF14_HO.jpg","stimuli/BF04_SUR.jpg","stimuli/AM03_SC.jpg","stimuli/HF10_FO.jpg","pos1","stimuli/WF14_HO.jpg","HO","WF14","0","5","10","8","stimuli/stars_10.png","256.5","[""HO"",""SUR"",""SC"",""FO""]","[""WF14"",""BF04"",""AM03"",""HF10""]","[10,6,1,4]","[8,4,2,6]","","",""
"show-reward","134","870577","0.0-134.0","p356240","A207IHY6GERCFO","336OE47KI3QZCSCUXSQ8J11UOZXVWV","3DY4FPOOA3UXRGT2O0L3LMO2FWBRV8","emotion","match","uniform","","","","","","","","871155.5","873174.1999999993","","","","","","","","","","","","10","","stimuli/stars_10.png","256.5","","","","","stimuli/WF14_HO.jpg","",""
"explore-choice","135","872848","0.0-135.0","p356240","A207IHY6GERCFO","336OE47KI3QZCSCUXSQ8J11UOZXVWV","3DY4FPOOA3UXRGT2O0L3LMO2FWBRV8","emotion","match","uniform","","","","","","","1764.0999999996275","873177.0999999996","874941.1999999993","[""stimuli/HF10_SUR.jpg"",""stimuli/WF14_SC.jpg"",""stimuli/AM03_HO.jpg"",""stimuli/BF04_FO.jpg""]","stimuli/HF10_SUR.jpg","stimuli/WF14_SC.jpg","stimuli/AM03_HO.jpg","stimuli/BF04_FO.jpg","pos3","stimuli/AM03_HO.jpg","HO","AM03","2","5","10","8","stimuli/stars_10.png","261.5","[""SUR"",""SC"",""HO"",""FO""]","[""HF10"",""WF14"",""AM03"",""BF04""]","[2,4,10,6]","[4,2,8,6]","","",""
"show-reward","136","874867","0.0-136.0","p356240","A207IHY6GERCFO","336OE47KI3QZCSCUXSQ8J11UOZXVWV","3DY4FPOOA3UXRGT2O0L3LMO2FWBRV8","emotion","match","uniform","","","","","","","","875447.5","877464.5","","","","","","","","","","","","10","","stimuli/stars_10.png","261.5","","","","","stimuli/AM03_HO.jpg","",""
"explore-choice","137","877604","0.0-137.0","p356240","A207IHY6GERCFO","336OE47KI3QZCSCUXSQ8J11UOZXVWV","3DY4FPOOA3UXRGT2O0L3LMO2FWBRV8","emotion","match","uniform","","","","","","","2234.7999999988824","877466.5","879701.2999999989","[""stimuli/AM03_FO.jpg"",""stimuli/HF10_HO.jpg"",""stimuli/WF14_SUR.jpg"",""stimuli/BF04_SC.jpg""]","stimuli/AM03_FO.jpg","stimuli/HF10_HO.jpg","stimuli/WF14_SUR.jpg","stimuli/BF04_SC.jpg","pos2","stimuli/HF10_HO.jpg","HO","HF10","1","5","10","8","stimuli/stars_10.png","266.5","[""FO"",""HO"",""SUR"",""SC""]","[""AM03"",""HF10"",""WF14"",""BF04""]","[7,10,5,0]","[6,8,4,2]","","",""
"show-reward","138","879619","0.0-138.0","p356240","A207IHY6GERCFO","336OE47KI3QZCSCUXSQ8J11UOZXVWV","3DY4FPOOA3UXRGT2O0L3LMO2FWBRV8","emotion","match","uniform","","","","","","","","880203.4000000004","882217.1999999993","","","","","","","","","","","","10","","stimuli/stars_10.png","266.5","","","","","stimuli/HF10_HO.jpg","",""
"explore-choice","139","881740","0.0-139.0","p356240","A207IHY6GERCFO","336OE47KI3QZCSCUXSQ8J11UOZXVWV","3DY4FPOOA3UXRGT2O0L3LMO2FWBRV8","emotion","match","uniform","","","","","","","1619.199999999255","882218.0999999996","883837.2999999989","[""stimuli/WF14_SUR.jpg"",""stimuli/AM03_SC.jpg"",""stimuli/BF04_FO.jpg"",""stimuli/HF10_HO.jpg""]","stimuli/WF14_SUR.jpg","stimuli/AM03_SC.jpg","stimuli/BF04_FO.jpg","stimuli/HF10_HO.jpg","pos4","stimuli/HF10_HO.jpg","HO","HF10","3","3","6","8","stimuli/stars_6.png","269.5","[""SUR"",""SC"",""FO"",""HO""]","[""WF14"",""AM03"",""BF04"",""HF10""]","[5,2,5,6]","[4,2,6,8]","","",""
"show-reward","140","883754","0.0-140.0","p356240","A207IHY6GERCFO","336OE47KI3QZCSCUXSQ8J11UOZXVWV","3DY4FPOOA3UXRGT2O0L3LMO2FWBRV8","emotion","match","uniform","","","","","","","","884340.2999999989","886352.2999999989","","","","","","","","","","","","6","","stimuli/stars_6.png","269.5","","","","","stimuli/HF10_HO.jpg","",""
"explore-choice","141","885727","0.0-141.0","p356240","A207IHY6GERCFO","336OE47KI3QZCSCUXSQ8J11UOZXVWV","3DY4FPOOA3UXRGT2O0L3LMO2FWBRV8","emotion","match","uniform","","","","","","","1467","886354.1999999993","887821.1999999993","[""stimuli/AM03_SUR.jpg"",""stimuli/BF04_HO.jpg"",""stimuli/WF14_SC.jpg"",""stimuli/HF10_FO.jpg""]","stimuli/AM03_SUR.jpg","stimuli/BF04_HO.jpg","stimuli/WF14_SC.jpg","stimuli/HF10_FO.jpg","pos2","stimuli/BF04_HO.jpg","HO","BF04","1","4","8","8","stimuli/stars_8.png","273.5","[""SUR"",""HO"",""SC"",""FO""]","[""AM03"",""BF04"",""WF14"",""HF10""]","[3,8,3,8]","[4,8,2,6]","","",""
"show-reward","142","887733","0.0-142.0","p356240","A207IHY6GERCFO","336OE47KI3QZCSCUXSQ8J11UOZXVWV","3DY4FPOOA3UXRGT2O0L3LMO2FWBRV8","emotion","match","uniform","","","","","","","","888325.2999999989","890330.4000000004","","","","","","","","","","","","8","","stimuli/stars_8.png","273.5","","","","","stimuli/BF04_HO.jpg","",""
"explore-choice","143","889857","0.0-143.0","p356240","A207IHY6GERCFO","336OE47KI3QZCSCUXSQ8J11UOZXVWV","3DY4FPOOA3UXRGT2O0L3LMO2FWBRV8","emotion","match","uniform","","","","","","","1615","890334.0999999996","891949.0999999996","[""stimuli/AM03_FO.jpg"",""stimuli/WF14_SC.jpg"",""stimuli/HF10_HO.jpg"",""stimuli/BF04_SUR.jpg""]","stimuli/AM03_FO.jpg","stimuli/WF14_SC.jpg","stimuli/HF10_HO.jpg","stimuli/BF04_SUR.jpg","pos3","stimuli/HF10_HO.jpg","HO","HF10","2","4.5","9","8","stimuli/stars_9.png","278","[""FO"",""SC"",""HO"",""SUR""]","[""AM03"",""WF14"",""HF10"",""BF04""]","[7,0,9,5]","[6,2,8,4]","","",""
"show-reward","144","891864","0.0-144.0","p356240","A207IHY6GERCFO","336OE47KI3QZCSCUXSQ8J11UOZXVWV","3DY4FPOOA3UXRGT2O0L3LMO2FWBRV8","emotion","match","uniform","","","","","","","","892456.4000000004","894462.1999999993","","","","","","","","","","","","9","","stimuli/stars_9.png","278","","","","","stimuli/HF10_HO.jpg","",""
"explore-choice","145","893756","0.0-145.0","p356240","A207IHY6GERCFO","336OE47KI3QZCSCUXSQ8J11UOZXVWV","3DY4FPOOA3UXRGT2O0L3LMO2FWBRV8","emotion","match","uniform","","","","","","","1389.5999999996275","894463.4000000004","895853","[""stimuli/BF04_HO.jpg"",""stimuli/HF10_SUR.jpg"",""stimuli/AM03_FO.jpg"",""stimuli/WF14_SC.jpg""]","stimuli/BF04_HO.jpg","stimuli/HF10_SUR.jpg","stimuli/AM03_FO.jpg","stimuli/WF14_SC.jpg","pos1","stimuli/BF04_HO.jpg","HO","BF04","0","3.5","7","8","stimuli/stars_7.png","281.5","[""HO"",""SUR"",""FO"",""SC""]","[""BF04"",""HF10"",""AM03"",""WF14""]","[7,5,5,3]","[8,4,6,2]","","",""
"show-reward","146","895771","0.0-146.0","p356240","A207IHY6GERCFO","336OE47KI3QZCSCUXSQ8J11UOZXVWV","3DY4FPOOA3UXRGT2O0L3LMO2FWBRV8","emotion","match","uniform","","","","","","","","896355.4000000004","898368.5","","","","","","","","","","","","7","","stimuli/stars_7.png","281.5","","","","","stimuli/BF04_HO.jpg","",""
"explore-choice","147","897475","0.0-147.0","p356240","A207IHY6GERCFO","336OE47KI3QZCSCUXSQ8J11UOZXVWV","3DY4FPOOA3UXRGT2O0L3LMO2FWBRV8","emotion","match","uniform","","","","","","","1195.300000000745","898369.7999999989","899565.0999999996","[""stimuli/HF10_SC.jpg"",""stimuli/AM03_FO.jpg"",""stimuli/BF04_HO.jpg"",""stimuli/WF14_SUR.jpg""]","stimuli/HF10_SC.jpg","stimuli/AM03_FO.jpg","stimuli/BF04_HO.jpg","stimuli/WF14_SUR.jpg","pos3","stimuli/BF04_HO.jpg","HO","BF04","2","5","10","8","stimuli/stars_10.png","286.5","[""SC"",""FO"",""HO"",""SUR""]","[""HF10"",""AM03"",""BF04"",""WF14""]","[1,7,10,3]","[2,6,8,4]","","",""
"show-reward","148","899484","0.0-148.0","p356240","A207IHY6GERCFO","336OE47KI3QZCSCUXSQ8J11UOZXVWV","3DY4FPOOA3UXRGT2O0L3LMO2FWBRV8","emotion","match","uniform","","","","","","","","900074","902081.6999999993","","","","","","","","","","","","10","","stimuli/stars_10.png","286.5","","","","","stimuli/BF04_HO.jpg","",""
"explore-choice","149","901399","0.0-149.0","p356240","A207IHY6GERCFO","336OE47KI3QZCSCUXSQ8J11UOZXVWV","3DY4FPOOA3UXRGT2O0L3LMO2FWBRV8","emotion","match","uniform","","","","","","","1409.199999999255","902083.9000000004","903493.0999999996","[""stimuli/HF10_FO.jpg"",""stimuli/BF04_SUR.jpg"",""stimuli/WF14_SC.jpg"",""stimuli/AM03_HO.jpg""]","stimuli/HF10_FO.jpg","stimuli/BF04_SUR.jpg","stimuli/WF14_SC.jpg","stimuli/AM03_HO.jpg","pos4","stimuli/AM03_HO.jpg","HO","AM03","3","4","8","8","stimuli/stars_8.png","290.5","[""FO"",""SUR"",""SC"",""HO""]","[""HF10"",""BF04"",""WF14"",""AM03""]","[4,4,1,8]","[6,4,2,8]","","",""
"show-reward","150","903420","0.0-150.0","p356240","A207IHY6GERCFO","336OE47KI3QZCSCUXSQ8J11UOZXVWV","3DY4FPOOA3UXRGT2O0L3LMO2FWBRV8","emotion","match","uniform","","","","","","","","903998.1999999993","906017.5999999996","","","","","","","","","","","","8","","stimuli/stars_8.png","290.5","","","","","stimuli/AM03_HO.jpg","",""
"explore-choice","151","905312","0.0-151.0","p356240","A207IHY6GERCFO","336OE47KI3QZCSCUXSQ8J11UOZXVWV","3DY4FPOOA3UXRGT2O0L3LMO2FWBRV8","emotion","match","uniform","","","","","","","1377.699999999255","906019.5","907397.1999999993","[""stimuli/AM03_SC.jpg"",""stimuli/BF04_SUR.jpg"",""stimuli/HF10_FO.jpg"",""stimuli/WF14_HO.jpg""]","stimuli/AM03_SC.jpg","stimuli/BF04_SUR.jpg","stimuli/HF10_FO.jpg","stimuli/WF14_HO.jpg","pos4","stimuli/WF14_HO.jpg","HO","WF14","3","5","10","8","stimuli/stars_10.png","295.5","[""SC"",""SUR"",""FO"",""HO""]","[""AM03"",""BF04"",""HF10"",""WF14""]","[1,6,4,10]","[2,4,6,8]","","",""
"show-reward","152","907333","0.0-152.0","p356240","A207IHY6GERCFO","336OE47KI3QZCSCUXSQ8J11UOZXVWV","3DY4FPOOA3UXRGT2O0L3LMO2FWBRV8","emotion","match","uniform","","","","","","","","907911.4000000004","909931","","","","","","","","","","","","10","","stimuli/stars_10.png","295.5","","","","","stimuli/WF14_HO.jpg","",""
"explore-choice","153","909020","0.0-153.0","p356240","A207IHY6GERCFO","336OE47KI3QZCSCUXSQ8J11UOZXVWV","3DY4FPOOA3UXRGT2O0L3LMO2FWBRV8","emotion","match","uniform","","","","","","","1184.199999999255","909932.9000000004","911117.0999999996","[""stimuli/BF04_SUR.jpg"",""stimuli/HF10_HO.jpg"",""stimuli/WF14_FO.jpg"",""stimuli/AM03_SC.jpg""]","stimuli/BF04_SUR.jpg","stimuli/HF10_HO.jpg","stimuli/WF14_FO.jpg","stimuli/AM03_SC.jpg","pos2","stimuli/HF10_HO.jpg","HO","HF10","1","4","8","8","stimuli/stars_8.png","299.5","[""SUR"",""HO"",""FO"",""SC""]","[""BF04"",""HF10"",""WF14"",""AM03""]","[6,8,8,3]","[4,8,6,2]","","",""
"show-reward","154","911038","0.0-154.0","p356240","A207IHY6GERCFO","336OE47KI3QZCSCUXSQ8J11UOZXVWV","3DY4FPOOA3UXRGT2O0L3LMO2FWBRV8","emotion","match","uniform","","","","","","","","911619.1999999993","913635.6999999993","","","","","","","","","","","","8","","stimuli/stars_8.png","299.5","","","","","stimuli/HF10_HO.jpg","",""
"explore-choice","155","912744","0.0-155.0","p356240","A207IHY6GERCFO","336OE47KI3QZCSCUXSQ8J11UOZXVWV","3DY4FPOOA3UXRGT2O0L3LMO2FWBRV8","emotion","match","uniform","","","","","","","1199.800000000745","913637.1999999993","914837","[""stimuli/WF14_HO.jpg"",""stimuli/BF04_SUR.jpg"",""stimuli/HF10_SC.jpg"",""stimuli/AM03_FO.jpg""]","stimuli/WF14_HO.jpg","stimuli/BF04_SUR.jpg","stimuli/HF10_SC.jpg","stimuli/AM03_FO.jpg","pos1","stimuli/WF14_HO.jpg","HO","WF14","0","5","10","8","stimuli/stars_10.png","304.5","[""HO"",""SUR"",""SC"",""FO""]","[""WF14"",""BF04"",""HF10"",""AM03""]","[10,4,3,6]","[8,4,2,6]","","",""
"show-reward","156","914756","0.0-156.0","p356240","A207IHY6GERCFO","336OE47KI3QZCSCUXSQ8J11UOZXVWV","3DY4FPOOA3UXRGT2O0L3LMO2FWBRV8","emotion","match","uniform","","","","","","","","915342.2999999989","917353.7999999989","","","","","","","","","","","","10","","stimuli/stars_10.png","304.5","","","","","stimuli/WF14_HO.jpg","",""
"explore-choice","157","917188","0.0-157.0","p356240","A207IHY6GERCFO","336OE47KI3QZCSCUXSQ8J11UOZXVWV","3DY4FPOOA3UXRGT2O0L3LMO2FWBRV8","emotion","match","uniform","","","","","","","1921.9000000003725","917355","919276.9000000004","[""stimuli/HF10_FO.jpg"",""stimuli/WF14_SC.jpg"",""stimuli/AM03_SUR.jpg"",""stimuli/BF04_HO.jpg""]","stimuli/HF10_FO.jpg","stimuli/WF14_SC.jpg","stimuli/AM03_SUR.jpg","stimuli/BF04_HO.jpg","pos4","stimuli/BF04_HO.jpg","HO","BF04","3","4","8","8","stimuli/stars_8.png","308.5","[""FO"",""SC"",""SUR"",""HO""]","[""HF10"",""WF14"",""AM03"",""BF04""]","[8,3,3,8]","[6,2,4,8]","","",""
"show-reward","158","919198","0.0-158.0","p356240","A207IHY6GERCFO","336OE47KI3QZCSCUXSQ8J11UOZXVWV","3DY4FPOOA3UXRGT2O0L3LMO2FWBRV8","emotion","match","uniform","","","","","","","","919787.5","921794.7999999989","","","","","","","","","","","","8","","stimuli/stars_8.png","308.5","","","","","stimuli/BF04_HO.jpg","",""
"explore-choice","159","920924","0.0-159.0","p356240","A207IHY6GERCFO","336OE47KI3QZCSCUXSQ8J11UOZXVWV","3DY4FPOOA3UXRGT2O0L3LMO2FWBRV8","emotion","match","uniform","","","","","","","1223.800000000745","921797.1999999993","923021","[""stimuli/WF14_SUR.jpg"",""stimuli/BF04_HO.jpg"",""stimuli/AM03_SC.jpg"",""stimuli/HF10_FO.jpg""]","stimuli/WF14_SUR.jpg","stimuli/BF04_HO.jpg","stimuli/AM03_SC.jpg","stimuli/HF10_FO.jpg","pos2","stimuli/BF04_HO.jpg","HO","BF04","1","4.5","9","8","stimuli/stars_9.png","313","[""SUR"",""HO"",""SC"",""FO""]","[""WF14"",""BF04"",""AM03"",""HF10""]","[2,9,1,6]","[4,8,2,6]","","",""
"show-reward","160","922928","0.0-160.0","p356240","A207IHY6GERCFO","336OE47KI3QZCSCUXSQ8J11UOZXVWV","3DY4FPOOA3UXRGT2O0L3LMO2FWBRV8","emotion","match","uniform","","","","","","","","923522.6999999993","925525.1999999993","","","","","","","","","","","","9","","stimuli/stars_9.png","313","","","","","stimuli/BF04_HO.jpg","",""
"explore-choice","161","925292","0.0-161.0","p356240","A207IHY6GERCFO","336OE47KI3QZCSCUXSQ8J11UOZXVWV","3DY4FPOOA3UXRGT2O0L3LMO2FWBRV8","emotion","match","uniform","","","","","","","1861.5999999996275","925527.4000000004","927389","[""stimuli/WF14_HO.jpg"",""stimuli/BF04_FO.jpg"",""stimuli/HF10_SC.jpg"",""stimuli/AM03_SUR.jpg""]","stimuli/WF14_HO.jpg","stimuli/BF04_FO.jpg","stimuli/HF10_SC.jpg","stimuli/AM03_SUR.jpg","pos1","stimuli/WF14_HO.jpg","HO","WF14","0","4.5","9","8","stimuli/stars_9.png","317.5","[""HO"",""FO"",""SC"",""SUR""]","[""WF14"",""BF04"",""HF10"",""AM03""]","[9,7,0,4]","[8,6,2,4]","","",""
"show-reward","162","927302","0.0-162.0","p356240","A207IHY6GERCFO","336OE47KI3QZCSCUXSQ8J11UOZXVWV","3DY4FPOOA3UXRGT2O0L3LMO2FWBRV8","emotion","match","uniform","","","","","","","","927891.2999999989","929899.1999999993","","","","","","","","","","","","9","","stimuli/stars_9.png","317.5","","","","","stimuli/WF14_HO.jpg","",""
"explore-choice","163","929301","0.0-163.0","p356240","A207IHY6GERCFO","336OE47KI3QZCSCUXSQ8J11UOZXVWV","3DY4FPOOA3UXRGT2O0L3LMO2FWBRV8","emotion","match","uniform","","","","","","","1495.3999999985099","929901.4000000004","931396.7999999989","[""stimuli/AM03_SUR.jpg"",""stimuli/HF10_FO.jpg"",""stimuli/BF04_SC.jpg"",""stimuli/WF14_HO.jpg""]","stimuli/AM03_SUR.jpg","stimuli/HF10_FO.jpg","stimuli/BF04_SC.jpg","stimuli/WF14_HO.jpg","pos4","stimuli/WF14_HO.jpg","HO","WF14","3","4.5","9","8","stimuli/stars_9.png","322","[""SUR"",""FO"",""SC"",""HO""]","[""AM03"",""HF10"",""BF04"",""WF14""]","[5,8,3,9]","[4,6,2,8]","","",""
"show-reward","164","931317","0.0-164.0","p356240","A207IHY6GERCFO","336OE47KI3QZCSCUXSQ8J11UOZXVWV","3DY4FPOOA3UXRGT2O0L3LMO2FWBRV8","emotion","match","uniform","","","","","","","","931900.7999999989","933914.0999999996","","","","","","","","","","","","9","","stimuli/stars_9.png","322","","","","","stimuli/WF14_HO.jpg","",""
"explore-choice","165","934045","0.0-165.0","p356240","A207IHY6GERCFO","336OE47KI3QZCSCUXSQ8J11UOZXVWV","3DY4FPOOA3UXRGT2O0L3LMO2FWBRV8","emotion","match","uniform","","","","","","","2216.9000000003725","933916.0999999996","936133","[""stimuli/WF14_SUR.jpg"",""stimuli/BF04_FO.jpg"",""stimuli/AM03_HO.jpg"",""stimuli/HF10_SC.jpg""]","stimuli/WF14_SUR.jpg","stimuli/BF04_FO.jpg","stimuli/AM03_HO.jpg","stimuli/HF10_SC.jpg","pos3","stimuli/AM03_HO.jpg","HO","AM03","2","4","8","8","stimuli/stars_8.png","326","[""SUR"",""FO"",""HO"",""SC""]","[""WF14"",""BF04"",""AM03"",""HF10""]","[6,7,8,4]","[4,6,8,2]","","",""
"show-reward","166","936051","0.0-166.0","p356240","A207IHY6GERCFO","336OE47KI3QZCSCUXSQ8J11UOZXVWV","3DY4FPOOA3UXRGT2O0L3LMO2FWBRV8","emotion","match","uniform","","","","","","","","936644.5999999996","938648.9000000004","","","","","","","","","","","","8","","stimuli/stars_8.png","326","","","","","stimuli/AM03_HO.jpg","",""
"explore-choice","167","938722","0.0-167.0","p356240","A207IHY6GERCFO","336OE47KI3QZCSCUXSQ8J11UOZXVWV","3DY4FPOOA3UXRGT2O0L3LMO2FWBRV8","emotion","match","uniform","","","","","","","2162.4000000003725","938650.5","940812.9000000004","[""stimuli/WF14_SC.jpg"",""stimuli/BF04_FO.jpg"",""stimuli/AM03_HO.jpg"",""stimuli/HF10_SUR.jpg""]","stimuli/WF14_SC.jpg","stimuli/BF04_FO.jpg","stimuli/AM03_HO.jpg","stimuli/HF10_SUR.jpg","pos3","stimuli/AM03_HO.jpg","HO","AM03","2","5","10","8","stimuli/stars_10.png","331","[""SC"",""FO"",""HO"",""SUR""]","[""WF14"",""BF04"",""AM03"",""HF10""]","[4,6,10,2]","[2,6,8,4]","","",""
"show-reward","168","940729","0.0-168.0","p356240","A207IHY6GERCFO","336OE47KI3QZCSCUXSQ8J11UOZXVWV","3DY4FPOOA3UXRGT2O0L3LMO2FWBRV8","emotion","match","uniform","","","","","","","","941321.4000000004","943326.5","","","","","","","","","","","","10","","stimuli/stars_10.png","331","","","","","stimuli/AM03_HO.jpg","",""
"explore-choice","169","942500","0.0-169.0","p356240","A207IHY6GERCFO","336OE47KI3QZCSCUXSQ8J11UOZXVWV","3DY4FPOOA3UXRGT2O0L3LMO2FWBRV8","emotion","match","uniform","","","","","","","1268.7000000011176","943328.1999999993","944596.9000000004","[""stimuli/BF04_SUR.jpg"",""stimuli/AM03_HO.jpg"",""stimuli/WF14_SC.jpg"",""stimuli/HF10_FO.jpg""]","stimuli/BF04_SUR.jpg","stimuli/AM03_HO.jpg","stimuli/WF14_SC.jpg","stimuli/HF10_FO.jpg","pos2","stimuli/AM03_HO.jpg","HO","AM03","1","4","8","8","stimuli/stars_8.png","335","[""SUR"",""HO"",""SC"",""FO""]","[""BF04"",""AM03"",""WF14"",""HF10""]","[4,8,1,4]","[4,8,2,6]","","",""
"show-reward","170","944515","0.0-170.0","p356240","A207IHY6GERCFO","336OE47KI3QZCSCUXSQ8J11UOZXVWV","3DY4FPOOA3UXRGT2O0L3LMO2FWBRV8","emotion","match","uniform","","","","","","","","945099.0999999996","947113.1999999993","","","","","","","","","","","","8","","stimuli/stars_8.png","335","","","","","stimuli/AM03_HO.jpg","",""
"explore-choice","171","946222","0.0-171.0","p356240","A207IHY6GERCFO","336OE47KI3QZCSCUXSQ8J11UOZXVWV","3DY4FPOOA3UXRGT2O0L3LMO2FWBRV8","emotion","match","uniform","","","","","","","1193.9000000003725","947115","948308.9000000004","[""stimuli/BF04_FO.jpg"",""stimuli/HF10_HO.jpg"",""stimuli/WF14_SUR.jpg"",""stimuli/AM03_SC.jpg""]","stimuli/BF04_FO.jpg","stimuli/HF10_HO.jpg","stimuli/WF14_SUR.jpg","stimuli/AM03_SC.jpg","pos2","stimuli/HF10_HO.jpg","HO","HF10","1","3","6","8","stimuli/stars_6.png","338","[""FO"",""HO"",""SUR"",""SC""]","[""BF04"",""HF10"",""WF14"",""AM03""]","[5,6,5,2]","[6,8,4,2]","","",""
"show-reward","172","948233","0.0-172.0","p356240","A207IHY6GERCFO","336OE47KI3QZCSCUXSQ8J11UOZXVWV","3DY4FPOOA3UXRGT2O0L3LMO2FWBRV8","emotion","match","uniform","","","","","","","","948821.1999999993","950830.2999999989","","","","","","","","","","","","6","","stimuli/stars_6.png","338","","","","","stimuli/HF10_HO.jpg","",""
"explore-choice","173","950884","0.0-173.0","p356240","A207IHY6GERCFO","336OE47KI3QZCSCUXSQ8J11UOZXVWV","3DY4FPOOA3UXRGT2O0L3LMO2FWBRV8","emotion","match","uniform","","","","","","","2148.39999999851","950832.4000000004","952980.7999999989","[""stimuli/BF04_HO.jpg"",""stimuli/HF10_SC.jpg"",""stimuli/AM03_FO.jpg"",""stimuli/WF14_SUR.jpg""]","stimuli/BF04_HO.jpg","stimuli/HF10_SC.jpg","stimuli/AM03_FO.jpg","stimuli/WF14_SUR.jpg","pos1","stimuli/BF04_HO.jpg","HO","BF04","0","5","10","8","stimuli/stars_10.png","343","[""HO"",""SC"",""FO"",""SUR""]","[""BF04"",""HF10"",""AM03"",""WF14""]","[10,1,7,3]","[8,2,6,4]","","",""
"show-reward","174","952890","0.0-174.0","p356240","A207IHY6GERCFO","336OE47KI3QZCSCUXSQ8J11UOZXVWV","3DY4FPOOA3UXRGT2O0L3LMO2FWBRV8","emotion","match","uniform","","","","","","","","953482.9000000004","955487.5","","","","","","","","","","","","10","","stimuli/stars_10.png","343","","","","","stimuli/BF04_HO.jpg","",""
"explore-choice","175","955346","0.0-175.0","p356240","A207IHY6GERCFO","336OE47KI3QZCSCUXSQ8J11UOZXVWV","3DY4FPOOA3UXRGT2O0L3LMO2FWBRV8","emotion","match","uniform","","","","","","","1947.4000000003725","955489.6999999993","957437.0999999996","[""stimuli/HF10_SUR.jpg"",""stimuli/AM03_SC.jpg"",""stimuli/BF04_FO.jpg"",""stimuli/WF14_HO.jpg""]","stimuli/HF10_SUR.jpg","stimuli/AM03_SC.jpg","stimuli/BF04_FO.jpg","stimuli/WF14_HO.jpg","pos4","stimuli/WF14_HO.jpg","HO","WF14","3","5","10","8","stimuli/stars_10.png","348","[""SUR"",""SC"",""FO"",""HO""]","[""HF10"",""AM03"",""BF04"",""WF14""]","[6,2,7,10]","[4,2,6,8]","","",""
"show-reward","176","957351","0.0-176.0","p356240","A207IHY6GERCFO","336OE47KI3QZCSCUXSQ8J11UOZXVWV","3DY4FPOOA3UXRGT2O0L3LMO2FWBRV8","emotion","match","uniform","","","","","","","","957945.5999999996","959948.7999999989","","","","","","","","","","","","10","","stimuli/stars_10.png","348","","","","","stimuli/WF14_HO.jpg","",""
"explore-choice","177","959227","0.0-177.0","p356240","A207IHY6GERCFO","336OE47KI3QZCSCUXSQ8J11UOZXVWV","3DY4FPOOA3UXRGT2O0L3LMO2FWBRV8","emotion","match","uniform","","","","","","","1366.5","959950.5","961317","[""stimuli/AM03_SUR.jpg"",""stimuli/BF04_SC.jpg"",""stimuli/HF10_HO.jpg"",""stimuli/WF14_FO.jpg""]","stimuli/AM03_SUR.jpg","stimuli/BF04_SC.jpg","stimuli/HF10_HO.jpg","stimuli/WF14_FO.jpg","pos3","stimuli/HF10_HO.jpg","HO","HF10","2","3.5","7","8","stimuli/stars_7.png","351.5","[""SUR"",""SC"",""HO"",""FO""]","[""AM03"",""BF04"",""HF10"",""WF14""]","[4,2,7,5]","[4,2,8,6]","","",""
"show-reward","178","961245","0.0-178.0","p356240","A207IHY6GERCFO","336OE47KI3QZCSCUXSQ8J11UOZXVWV","3DY4FPOOA3UXRGT2O0L3LMO2FWBRV8","emotion","match","uniform","","","","","","","","961827","963843.2999999989","","","","","","","","","","","","7","","stimuli/stars_7.png","351.5","","","","","stimuli/HF10_HO.jpg","",""
"explore-choice","179","963178","0.0-179.0","p356240","A207IHY6GERCFO","336OE47KI3QZCSCUXSQ8J11UOZXVWV","3DY4FPOOA3UXRGT2O0L3LMO2FWBRV8","emotion","match","uniform","","","","","","","1423.6000000014901","963845.2999999989","965268.9000000004","[""stimuli/AM03_SUR.jpg"",""stimuli/WF14_SC.jpg"",""stimuli/BF04_FO.jpg"",""stimuli/HF10_HO.jpg""]","stimuli/AM03_SUR.jpg","stimuli/WF14_SC.jpg","stimuli/BF04_FO.jpg","stimuli/HF10_HO.jpg","pos4","stimuli/HF10_HO.jpg","HO","HF10","3","5","10","8","stimuli/stars_10.png","356.5","[""SUR"",""SC"",""FO"",""HO""]","[""AM03"",""WF14"",""BF04"",""HF10""]","[6,0,8,10]","[4,2,6,8]","","",""
"show-reward","180","965197","0.0-180.0","p356240","A207IHY6GERCFO","336OE47KI3QZCSCUXSQ8J11UOZXVWV","3DY4FPOOA3UXRGT2O0L3LMO2FWBRV8","emotion","match","uniform","","","","","","","","965777.6999999993","967794.7999999989","","","","","","","","","","","","10","","stimuli/stars_10.png","356.5","","","","","stimuli/HF10_HO.jpg","",""
"explore-choice","181","967121","0.0-181.0","p356240","A207IHY6GERCFO","336OE47KI3QZCSCUXSQ8J11UOZXVWV","3DY4FPOOA3UXRGT2O0L3LMO2FWBRV8","emotion","match","uniform","","","","","","","1408.199999999255","967796.5999999996","969204.7999999989","[""stimuli/HF10_SC.jpg"",""stimuli/WF14_FO.jpg"",""stimuli/BF04_HO.jpg"",""stimuli/AM03_SUR.jpg""]","stimuli/HF10_SC.jpg","stimuli/WF14_FO.jpg","stimuli/BF04_HO.jpg","stimuli/AM03_SUR.jpg","pos3","stimuli/BF04_HO.jpg","HO","BF04","2","3","6","8","stimuli/stars_6.png","359.5","[""SC"",""FO"",""HO"",""SUR""]","[""HF10"",""WF14"",""BF04"",""AM03""]","[1,6,6,4]","[2,6,8,4]","","",""
"show-reward","182","969136","0.0-182.0","p356240","A207IHY6GERCFO","336OE47KI3QZCSCUXSQ8J11UOZXVWV","3DY4FPOOA3UXRGT2O0L3LMO2FWBRV8","emotion","match","uniform","","","","","","","","969721.1999999993","971733.7999999989","","","","","","","","","","","","6","","stimuli/stars_6.png","359.5","","","","","stimuli/BF04_HO.jpg","",""
"explore-choice","183","970659","0.0-183.0","p356240","A207IHY6GERCFO","336OE47KI3QZCSCUXSQ8J11UOZXVWV","3DY4FPOOA3UXRGT2O0L3LMO2FWBRV8","emotion","match","uniform","","","","","","","1021.1999999992549","971735.5999999996","972756.7999999989","[""stimuli/HF10_SUR.jpg"",""stimuli/WF14_FO.jpg"",""stimuli/BF04_SC.jpg"",""stimuli/AM03_HO.jpg""]","stimuli/HF10_SUR.jpg","stimuli/WF14_FO.jpg","stimuli/BF04_SC.jpg","stimuli/AM03_HO.jpg","pos4","stimuli/AM03_HO.jpg","HO","AM03","3","3","6","8","stimuli/stars_6.png","362.5","[""SUR"",""FO"",""SC"",""HO""]","[""HF10"",""WF14"",""BF04"",""AM03""]","[6,7,1,6]","[4,6,2,8]","","",""
"show-reward","184","972669","0.0-184.0","p356240","A207IHY6GERCFO","336OE47KI3QZCSCUXSQ8J11UOZXVWV","3DY4FPOOA3UXRGT2O0L3LMO2FWBRV8","emotion","match","uniform","","","","","","","","973258","975266.7999999989","","","","","","","","","","","","6","","stimuli/stars_6.png","362.5","","","","","stimuli/AM03_HO.jpg","",""
"explore-choice","185","974562","0.0-185.0","p356240","A207IHY6GERCFO","336OE47KI3QZCSCUXSQ8J11UOZXVWV","3DY4FPOOA3UXRGT2O0L3LMO2FWBRV8","emotion","match","uniform","","","","","","","1385","975267.9000000004","976652.9000000004","[""stimuli/HF10_SUR.jpg"",""stimuli/AM03_SC.jpg"",""stimuli/BF04_HO.jpg"",""stimuli/WF14_FO.jpg""]","stimuli/HF10_SUR.jpg","stimuli/AM03_SC.jpg","stimuli/BF04_HO.jpg","stimuli/WF14_FO.jpg","pos3","stimuli/BF04_HO.jpg","HO","BF04","2","4.5","9","8","stimuli/stars_9.png","367","[""SUR"",""SC"",""HO"",""FO""]","[""HF10"",""AM03"",""BF04"",""WF14""]","[2,2,9,8]","[4,2,8,6]","","",""
"show-reward","186","976582","0.0-186.0","p356240","A207IHY6GERCFO","336OE47KI3QZCSCUXSQ8J11UOZXVWV","3DY4FPOOA3UXRGT2O0L3LMO2FWBRV8","emotion","match","uniform","","","","","","","","977161.2999999989","979179.1999999993","","","","","","","","","","","","9","","stimuli/stars_9.png","367","","","","","stimuli/BF04_HO.jpg","",""
"explore-choice","187","979035","0.0-187.0","p356240","A207IHY6GERCFO","336OE47KI3QZCSCUXSQ8J11UOZXVWV","3DY4FPOOA3UXRGT2O0L3LMO2FWBRV8","emotion","match","uniform","","","","","","","1951","979181.7999999989","981132.7999999989","[""stimuli/AM03_FO.jpg"",""stimuli/WF14_HO.jpg"",""stimuli/BF04_SC.jpg"",""stimuli/HF10_SUR.jpg""]","stimuli/AM03_FO.jpg","stimuli/WF14_HO.jpg","stimuli/BF04_SC.jpg","stimuli/HF10_SUR.jpg","pos2","stimuli/WF14_HO.jpg","HO","WF14","1","3","6","8","stimuli/stars_6.png","370","[""FO"",""HO"",""SC"",""SUR""]","[""AM03"",""WF14"",""BF04"",""HF10""]","[5,6,2,2]","[6,8,2,4]","","",""
"show-reward","188","981052","0.0-188.0","p356240","A207IHY6GERCFO","336OE47KI3QZCSCUXSQ8J11UOZXVWV","3DY4FPOOA3UXRGT2O0L3LMO2FWBRV8","emotion","match","uniform","","","","","","","","981634.1999999993","983649.9000000004","","","","","","","","","","","","6","","stimuli/stars_6.png","370","","","","","stimuli/WF14_HO.jpg","",""
"explore-choice","189","983708","0.0-189.0","p356240","A207IHY6GERCFO","336OE47KI3QZCSCUXSQ8J11UOZXVWV","3DY4FPOOA3UXRGT2O0L3LMO2FWBRV8","emotion","match","uniform","","","","","","","2153.5","983651.4000000004","985804.9000000004","[""stimuli/HF10_SUR.jpg"",""stimuli/WF14_SC.jpg"",""stimuli/BF04_HO.jpg"",""stimuli/AM03_FO.jpg""]","stimuli/HF10_SUR.jpg","stimuli/WF14_SC.jpg","stimuli/BF04_HO.jpg","stimuli/AM03_FO.jpg","pos3","stimuli/BF04_HO.jpg","HO","BF04","2","3.5","7","8","stimuli/stars_7.png","373.5","[""SUR"",""SC"",""HO"",""FO""]","[""HF10"",""WF14"",""BF04"",""AM03""]","[5,3,7,5]","[4,2,8,6]","","",""
"show-reward","190","985711","0.0-190.0","p356240","A207IHY6GERCFO","336OE47KI3QZCSCUXSQ8J11UOZXVWV","3DY4FPOOA3UXRGT2O0L3LMO2FWBRV8","emotion","match","uniform","","","","","","","","986307.1999999993","988309","","","","","","","","","","","","7","","stimuli/stars_7.png","373.5","","","","","stimuli/BF04_HO.jpg","",""
"explore-choice","191","987745","0.0-191.0","p356240","A207IHY6GERCFO","336OE47KI3QZCSCUXSQ8J11UOZXVWV","3DY4FPOOA3UXRGT2O0L3LMO2FWBRV8","emotion","match","uniform","","","","","","","1517.7999999988824","988310.9000000004","989828.6999999993","[""stimuli/AM03_FO.jpg"",""stimuli/BF04_SC.jpg"",""stimuli/HF10_HO.jpg"",""stimuli/WF14_SUR.jpg""]","stimuli/AM03_FO.jpg","stimuli/BF04_SC.jpg","stimuli/HF10_HO.jpg","stimuli/WF14_SUR.jpg","pos3","stimuli/HF10_HO.jpg","HO","HF10","2","5","10","8","stimuli/stars_10.png","378.5","[""FO"",""SC"",""HO"",""SUR""]","[""AM03"",""BF04"",""HF10"",""WF14""]","[7,0,10,5]","[6,2,8,4]","","",""
"show-reward","192","989752","0.0-192.0","p356240","A207IHY6GERCFO","336OE47KI3QZCSCUXSQ8J11UOZXVWV","3DY4FPOOA3UXRGT2O0L3LMO2FWBRV8","emotion","match","uniform","","","","","","","","990344.0999999996","992349.7999999989","","","","","","","","","","","","10","","stimuli/stars_10.png","378.5","","","","","stimuli/HF10_HO.jpg","",""
"explore-choice","193","992279","0.0-193.0","p356240","A207IHY6GERCFO","336OE47KI3QZCSCUXSQ8J11UOZXVWV","3DY4FPOOA3UXRGT2O0L3LMO2FWBRV8","emotion","match","uniform","","","","","","","2020.800000000745","992351.7999999989","994372.5999999996","[""stimuli/HF10_SC.jpg"",""stimuli/AM03_HO.jpg"",""stimuli/BF04_SUR.jpg"",""stimuli/WF14_FO.jpg""]","stimuli/HF10_SC.jpg","stimuli/AM03_HO.jpg","stimuli/BF04_SUR.jpg","stimuli/WF14_FO.jpg","pos2","stimuli/AM03_HO.jpg","HO","AM03","1","3","6","8","stimuli/stars_6.png","381.5","[""SC"",""HO"",""SUR"",""FO""]","[""HF10"",""AM03"",""BF04"",""WF14""]","[3,6,3,5]","[2,8,4,6]","","",""
"show-reward","194","994291","0.0-194.0","p356240","A207IHY6GERCFO","336OE47KI3QZCSCUXSQ8J11UOZXVWV","3DY4FPOOA3UXRGT2O0L3LMO2FWBRV8","emotion","match","uniform","","","","","","","","994879.5999999996","996889.4000000004","","","","","","","","","","","","6","","stimuli/stars_6.png","381.5","","","","","stimuli/AM03_HO.jpg","",""
"explore-choice","195","995900","0.0-195.0","p356240","A207IHY6GERCFO","336OE47KI3QZCSCUXSQ8J11UOZXVWV","3DY4FPOOA3UXRGT2O0L3LMO2FWBRV8","emotion","match","uniform","","","","","","","1097.5999999996275","996891.1999999993","997988.7999999989","[""stimuli/WF14_SUR.jpg"",""stimuli/AM03_HO.jpg"",""stimuli/HF10_FO.jpg"",""stimuli/BF04_SC.jpg""]","stimuli/WF14_SUR.jpg","stimuli/AM03_HO.jpg","stimuli/HF10_FO.jpg","stimuli/BF04_SC.jpg","pos2","stimuli/AM03_HO.jpg","HO","AM03","1","4","8","8","stimuli/stars_8.png","385.5","[""SUR"",""HO"",""FO"",""SC""]","[""WF14"",""AM03"",""HF10"",""BF04""]","[5,8,8,1]","[4,8,6,2]","","",""
"show-reward","196","997908","0.0-196.0","p356240","A207IHY6GERCFO","336OE47KI3QZCSCUXSQ8J11UOZXVWV","3DY4FPOOA3UXRGT2O0L3LMO2FWBRV8","emotion","match","uniform","","","","","","","","998500.2999999989","1000506","","","","","","","","","","","","8","","stimuli/stars_8.png","385.5","","","","","stimuli/AM03_HO.jpg","",""
"explore-choice","197","999663","0.0-197.0","p356240","A207IHY6GERCFO","336OE47KI3QZCSCUXSQ8J11UOZXVWV","3DY4FPOOA3UXRGT2O0L3LMO2FWBRV8","emotion","match","uniform","","","","","","","1248.7999999988824","1000508","1001756.7999999989","[""stimuli/HF10_HO.jpg"",""stimuli/AM03_FO.jpg"",""stimuli/WF14_SC.jpg"",""stimuli/BF04_SUR.jpg""]","stimuli/HF10_HO.jpg","stimuli/AM03_FO.jpg","stimuli/WF14_SC.jpg","stimuli/BF04_SUR.jpg","pos1","stimuli/HF10_HO.jpg","HO","HF10","0","4.5","9","8","stimuli/stars_9.png","390","[""HO"",""FO"",""SC"",""SUR""]","[""HF10"",""AM03"",""WF14"",""BF04""]","[9,7,0,5]","[8,6,2,4]","","",""
"show-reward","198","1001666","0.0-198.0","p356240","A207IHY6GERCFO","336OE47KI3QZCSCUXSQ8J11UOZXVWV","3DY4FPOOA3UXRGT2O0L3LMO2FWBRV8","emotion","match","uniform","","","","","","","","1002261.7999999989","1004263.7999999989","","","","","","","","","","","","9","","stimuli/stars_9.png","390","","","","","stimuli/HF10_HO.jpg","",""
"instructions","199","1007655","0.0-199.0","p356240","A207IHY6GERCFO","336OE47KI3QZCSCUXSQ8J11UOZXVWV","3DY4FPOOA3UXRGT2O0L3LMO2FWBRV8","emotion","match","uniform","","","","","","[{""page_index"":0,""viewing_time"":5986.300000000745}]","5987","","","","","","","","","","","","","","","","","","","","","","","",""
"survey-text","200","1010231","0.0-200.0-0.0","p356240","A207IHY6GERCFO","336OE47KI3QZCSCUXSQ8J11UOZXVWV","3DY4FPOOA3UXRGT2O0L3LMO2FWBRV8","emotion","match","uniform","","","","","","","2573","","","","","","","","","","","","","","","","","","","","","","","{""age"":""39""}",""
"survey-text","201","1012366","0.0-200.0-1.0","p356240","A207IHY6GERCFO","336OE47KI3QZCSCUXSQ8J11UOZXVWV","3DY4FPOOA3UXRGT2O0L3LMO2FWBRV8","emotion","match","uniform","","","","","","","2134","","","","","","","","","","","","","","","","","","","","","","","{""gender"":""m""}",""
"survey-text","202","1015319","0.0-200.0-2.0","p356240","A207IHY6GERCFO","336OE47KI3QZCSCUXSQ8J11UOZXVWV","3DY4FPOOA3UXRGT2O0L3LMO2FWBRV8","emotion","match","uniform","","","","","","","2950.0999999996275","","","","","","","","","","","","","","","","","","","","","","","{""country"":""United States""}",""
"survey-text","203","1020744","0.0-200.0-3.0","p356240","A207IHY6GERCFO","336OE47KI3QZCSCUXSQ8J11UOZXVWV","3DY4FPOOA3UXRGT2O0L3LMO2FWBRV8","emotion","match","uniform","","","","","","","5422","","","","","","","","","","","","","","","","","","","","","","","{""language"":""English"",""other_languages"":""""}",""
"survey-multi-select","204","1023040","0.0-201.0","p356240","A207IHY6GERCFO","336OE47KI3QZCSCUXSQ8J11UOZXVWV","3DY4FPOOA3UXRGT2O0L3LMO2FWBRV8","emotion","match","uniform","","","","","","","2292.5","","","","","","","","","","","","","","","","","","","","","","","{""race"":[""White""]}","[0]"
"survey-multi-choice","205","1025447","0.0-202.0","p356240","A207IHY6GERCFO","336OE47KI3QZCSCUXSQ8J11UOZXVWV","3DY4FPOOA3UXRGT2O0L3LMO2FWBRV8","emotion","match","uniform","","","","","","","2405.0999999996275","","","","","","","","","","","","","","","","","","","","","","","{""education"":""Bachelor's degree""}","[0]"
"survey-text","206","1039864","0.0-203.0","p356240","A207IHY6GERCFO","336OE47KI3QZCSCUXSQ8J11UOZXVWV","3DY4FPOOA3UXRGT2O0L3LMO2FWBRV8","emotion","match","uniform","","","","","","","14411.39999999851","","","","","","","","","","","","","","","","","","","","","","","{""patterns"":""no"",""strategy"":""smiles"",""comments"":""n""}",""
