"trial_type","trial_index","time_elapsed","internal_node_id","subject","workerId","hitId","assignmentId","structure_condition","match_condition","noise_type","success","timeout","failed_images","failed_audio","failed_video","view_history","rt","start_time","end_time","stimuli","image1","image2","image3","image4","choiceLocation","choiceImage","choiceEmotion","choiceModel","choice_index","reward_score","reward","reward_score_unadjusted","reward_image","score_after_trial","emotions","models","rewards","rewards_unadjusted","stimulus","response","question_order"
"pavlovia","0","8","0.0-0.0","p2219","AK8ONB60Q4RJ5","3OWZNK3RYMVDNXPNEIRWZ8JM6MU2UY","3WQQ9FUS6C0C0XG0KAO3TTZQMC8B8B","model","mismatch","uniform","","","","","","","","","","","","","","","","","","","","","","","","","","","","","","",""
"preload","1","2844","0.0-1.0","p2219","AK8ONB60Q4RJ5","3OWZNK3RYMVDNXPNEIRWZ8JM6MU2UY","3WQQ9FUS6C0C0XG0KAO3TTZQMC8B8B","model","mismatch","uniform","true","false","[]","[]","[]","","","","","","","","","","","","","","","","","","","","","","","","","",""
"fullscreen","2","67794","0.0-2.0","p2219","AK8ONB60Q4RJ5","3OWZNK3RYMVDNXPNEIRWZ8JM6MU2UY","3WQQ9FUS6C0C0XG0KAO3TTZQMC8B8B","model","mismatch","uniform","true","","","","","","","","","","","","","","","","","","","","","","","","","","","","","",""
"instructions","3","84953","0.0-3.0","p2219","AK8ONB60Q4RJ5","3OWZNK3RYMVDNXPNEIRWZ8JM6MU2UY","3WQQ9FUS6C0C0XG0KAO3TTZQMC8B8B","model","mismatch","uniform","","","","","","[{""page_index"":0,""viewing_time"":17158}]","17158","","","","","","","","","","","","","","","","","","","","","","","",""
"explore-choice","4","87564","0.0-4.0","p2219","AK8ONB60Q4RJ5","3OWZNK3RYMVDNXPNEIRWZ8JM6MU2UY","3WQQ9FUS6C0C0XG0KAO3TTZQMC8B8B","model","mismatch","uniform","","","","","","","2110","85774","87884","[""stimuli/sheep.jpg"",""stimuli/hammer.jpg"",""stimuli/basketball.jpg"",""stimuli/horse.jpg""]","stimuli/sheep.jpg","stimuli/hammer.jpg","stimuli/basketball.jpg","stimuli/horse.jpg","pos4","stimuli/horse.jpg","","","3","64","64","64","stimuli/stars_8.png","65","","","","","","",""
"explore-choice","5","89189","0.0-5.0","p2219","AK8ONB60Q4RJ5","3OWZNK3RYMVDNXPNEIRWZ8JM6MU2UY","3WQQ9FUS6C0C0XG0KAO3TTZQMC8B8B","model","mismatch","uniform","","","","","","","1124","88385","89509","[""stimuli/hammer.jpg"",""stimuli/basketball.jpg"",""stimuli/horse.jpg"",""stimuli/sheep.jpg""]","stimuli/hammer.jpg","stimuli/basketball.jpg","stimuli/horse.jpg","stimuli/sheep.jpg","pos1","stimuli/hammer.jpg","","","0","8","8","8","stimuli/stars_2.png","9","","","","","","",""
"instructions","6","105149","0.0-6.0","p2219","AK8ONB60Q4RJ5","3OWZNK3RYMVDNXPNEIRWZ8JM6MU2UY","3WQQ9FUS6C0C0XG0KAO3TTZQMC8B8B","model","mismatch","uniform","","","","","","[{""page_index"":0,""viewing_time"":15958}]","15958","","","","","","","","","","","","","","","","","","","","","","","",""
"explore-choice","7","109865","0.0-7.0","p2219","AK8ONB60Q4RJ5","3OWZNK3RYMVDNXPNEIRWZ8JM6MU2UY","3WQQ9FUS6C0C0XG0KAO3TTZQMC8B8B","model","mismatch","uniform","","","","","","","4213","105971","110184","[""stimuli/AF09_HO.jpg"",""stimuli/HM07_HE.jpg"",""stimuli/BF08_CC.jpg"",""stimuli/WM07_SUR.jpg""]","stimuli/AF09_HO.jpg","stimuli/HM07_HE.jpg","stimuli/BF08_CC.jpg","stimuli/WM07_SUR.jpg","pos3","stimuli/BF08_CC.jpg","CC","BF08","2","2","4","2","stimuli/stars_4.png","3","[""HO"",""HE"",""CC"",""SUR""]","[""AF09"",""HM07"",""BF08"",""WM07""]","[4,7,4,6]","[6,8,2,4]","","",""
"show-reward","8","111869","0.0-8.0","p2219","AK8ONB60Q4RJ5","3OWZNK3RYMVDNXPNEIRWZ8JM6MU2UY","3WQQ9FUS6C0C0XG0KAO3TTZQMC8B8B","model","mismatch","uniform","","","","","","","","110686","112689","","","","","","","","","","","","4","","stimuli/stars_4.png","3","","","","","stimuli/BF08_CC.jpg","",""
"explore-choice","9","142673","0.0-9.0","p2219","AK8ONB60Q4RJ5","3OWZNK3RYMVDNXPNEIRWZ8JM6MU2UY","3WQQ9FUS6C0C0XG0KAO3TTZQMC8B8B","model","mismatch","uniform","","","","","","","30302","112689","142991","[""stimuli/AF09_CC.jpg"",""stimuli/BF08_HO.jpg"",""stimuli/HM07_SUR.jpg"",""stimuli/WM07_HE.jpg""]","stimuli/AF09_CC.jpg","stimuli/BF08_HO.jpg","stimuli/HM07_SUR.jpg","stimuli/WM07_HE.jpg","pos2","stimuli/BF08_HO.jpg","HO","BF08","1","1.5","3","2","stimuli/stars_3.png","4.5","[""CC"",""HO"",""SUR"",""HE""]","[""AF09"",""BF08"",""HM07"",""WM07""]","[5,3,9,3]","[6,2,8,4]","","",""
"show-reward","10","144675","0.0-10.0","p2219","AK8ONB60Q4RJ5","3OWZNK3RYMVDNXPNEIRWZ8JM6MU2UY","3WQQ9FUS6C0C0XG0KAO3TTZQMC8B8B","model","mismatch","uniform","","","","","","","","143493","145495","","","","","","","","","","","","3","","stimuli/stars_3.png","4.5","","","","","stimuli/BF08_HO.jpg","",""
"explore-choice","11","146624","0.0-11.0","p2219","AK8ONB60Q4RJ5","3OWZNK3RYMVDNXPNEIRWZ8JM6MU2UY","3WQQ9FUS6C0C0XG0KAO3TTZQMC8B8B","model","mismatch","uniform","","","","","","","1447","145496","146943","[""stimuli/BF08_HO.jpg"",""stimuli/AF09_CC.jpg"",""stimuli/WM07_SUR.jpg"",""stimuli/HM07_HE.jpg""]","stimuli/BF08_HO.jpg","stimuli/AF09_CC.jpg","stimuli/WM07_SUR.jpg","stimuli/HM07_HE.jpg","pos4","stimuli/HM07_HE.jpg","HE","HM07","3","4.5","9","8","stimuli/stars_9.png","9","[""HO"",""CC"",""SUR"",""HE""]","[""BF08"",""AF09"",""WM07"",""HM07""]","[3,5,4,9]","[2,6,4,8]","","",""
"show-reward","12","148626","0.0-12.0","p2219","AK8ONB60Q4RJ5","3OWZNK3RYMVDNXPNEIRWZ8JM6MU2UY","3WQQ9FUS6C0C0XG0KAO3TTZQMC8B8B","model","mismatch","uniform","","","","","","","","147444","149445","","","","","","","","","","","","9","","stimuli/stars_9.png","9","","","","","stimuli/HM07_HE.jpg","",""
"explore-choice","13","150023","0.0-13.0","p2219","AK8ONB60Q4RJ5","3OWZNK3RYMVDNXPNEIRWZ8JM6MU2UY","3WQQ9FUS6C0C0XG0KAO3TTZQMC8B8B","model","mismatch","uniform","","","","","","","897","149446","150343","[""stimuli/AF09_SUR.jpg"",""stimuli/HM07_CC.jpg"",""stimuli/WM07_HO.jpg"",""stimuli/BF08_HE.jpg""]","stimuli/AF09_SUR.jpg","stimuli/HM07_CC.jpg","stimuli/WM07_HO.jpg","stimuli/BF08_HE.jpg","pos2","stimuli/HM07_CC.jpg","CC","HM07","1","4","8","8","stimuli/stars_8.png","13","[""SUR"",""CC"",""HO"",""HE""]","[""AF09"",""HM07"",""WM07"",""BF08""]","[7,8,2,3]","[6,8,4,2]","","",""
"show-reward","14","152025","0.0-14.0","p2219","AK8ONB60Q4RJ5","3OWZNK3RYMVDNXPNEIRWZ8JM6MU2UY","3WQQ9FUS6C0C0XG0KAO3TTZQMC8B8B","model","mismatch","uniform","","","","","","","","150843","152845","","","","","","","","","","","","8","","stimuli/stars_8.png","13","","","","","stimuli/HM07_CC.jpg","",""
"explore-choice","15","153559","0.0-15.0","p2219","AK8ONB60Q4RJ5","3OWZNK3RYMVDNXPNEIRWZ8JM6MU2UY","3WQQ9FUS6C0C0XG0KAO3TTZQMC8B8B","model","mismatch","uniform","","","","","","","1032","152846","153878","[""stimuli/BF08_SUR.jpg"",""stimuli/HM07_CC.jpg"",""stimuli/AF09_HE.jpg"",""stimuli/WM07_HO.jpg""]","stimuli/BF08_SUR.jpg","stimuli/HM07_CC.jpg","stimuli/AF09_HE.jpg","stimuli/WM07_HO.jpg","pos2","stimuli/HM07_CC.jpg","CC","HM07","1","5","10","8","stimuli/stars_10.png","18","[""SUR"",""CC"",""HE"",""HO""]","[""BF08"",""HM07"",""AF09"",""WM07""]","[3,10,8,2]","[2,8,6,4]","","",""
"show-reward","16","155562","0.0-16.0","p2219","AK8ONB60Q4RJ5","3OWZNK3RYMVDNXPNEIRWZ8JM6MU2UY","3WQQ9FUS6C0C0XG0KAO3TTZQMC8B8B","model","mismatch","uniform","","","","","","","","154379","156380","","","","","","","","","","","","10","","stimuli/stars_10.png","18","","","","","stimuli/HM07_CC.jpg","",""
"explore-choice","17","157246","0.0-17.0","p2219","AK8ONB60Q4RJ5","3OWZNK3RYMVDNXPNEIRWZ8JM6MU2UY","3WQQ9FUS6C0C0XG0KAO3TTZQMC8B8B","model","mismatch","uniform","","","","","","","1184","156381","157565","[""stimuli/AF09_HE.jpg"",""stimuli/WM07_HO.jpg"",""stimuli/HM07_SUR.jpg"",""stimuli/BF08_CC.jpg""]","stimuli/AF09_HE.jpg","stimuli/WM07_HO.jpg","stimuli/HM07_SUR.jpg","stimuli/BF08_CC.jpg","pos3","stimuli/HM07_SUR.jpg","SUR","HM07","2","4.5","9","8","stimuli/stars_9.png","22.5","[""HE"",""HO"",""SUR"",""CC""]","[""AF09"",""WM07"",""HM07"",""BF08""]","[5,5,9,0]","[6,4,8,2]","","",""
"show-reward","18","159249","0.0-18.0","p2219","AK8ONB60Q4RJ5","3OWZNK3RYMVDNXPNEIRWZ8JM6MU2UY","3WQQ9FUS6C0C0XG0KAO3TTZQMC8B8B","model","mismatch","uniform","","","","","","","","158066","160068","","","","","","","","","","","","9","","stimuli/stars_9.png","22.5","","","","","stimuli/HM07_SUR.jpg","",""
"explore-choice","19","160717","0.0-19.0","p2219","AK8ONB60Q4RJ5","3OWZNK3RYMVDNXPNEIRWZ8JM6MU2UY","3WQQ9FUS6C0C0XG0KAO3TTZQMC8B8B","model","mismatch","uniform","","","","","","","968","160069","161037","[""stimuli/BF08_HE.jpg"",""stimuli/HM07_CC.jpg"",""stimuli/AF09_HO.jpg"",""stimuli/WM07_SUR.jpg""]","stimuli/BF08_HE.jpg","stimuli/HM07_CC.jpg","stimuli/AF09_HO.jpg","stimuli/WM07_SUR.jpg","pos2","stimuli/HM07_CC.jpg","CC","HM07","1","3.5","7","8","stimuli/stars_7.png","26","[""HE"",""CC"",""HO"",""SUR""]","[""BF08"",""HM07"",""AF09"",""WM07""]","[0,7,6,5]","[2,8,6,4]","","",""
"show-reward","20","162719","0.0-20.0","p2219","AK8ONB60Q4RJ5","3OWZNK3RYMVDNXPNEIRWZ8JM6MU2UY","3WQQ9FUS6C0C0XG0KAO3TTZQMC8B8B","model","mismatch","uniform","","","","","","","","161537","163538","","","","","","","","","","","","7","","stimuli/stars_7.png","26","","","","","stimuli/HM07_CC.jpg","",""
"explore-choice","21","164413","0.0-21.0","p2219","AK8ONB60Q4RJ5","3OWZNK3RYMVDNXPNEIRWZ8JM6MU2UY","3WQQ9FUS6C0C0XG0KAO3TTZQMC8B8B","model","mismatch","uniform","","","","","","","1194","163539","164733","[""stimuli/BF08_CC.jpg"",""stimuli/AF09_SUR.jpg"",""stimuli/HM07_HE.jpg"",""stimuli/WM07_HO.jpg""]","stimuli/BF08_CC.jpg","stimuli/AF09_SUR.jpg","stimuli/HM07_HE.jpg","stimuli/WM07_HO.jpg","pos3","stimuli/HM07_HE.jpg","HE","HM07","2","4","8","8","stimuli/stars_8.png","30","[""CC"",""SUR"",""HE"",""HO""]","[""BF08"",""AF09"",""HM07"",""WM07""]","[1,7,8,6]","[2,6,8,4]","","",""
"show-reward","22","166415","0.0-22.0","p2219","AK8ONB60Q4RJ5","3OWZNK3RYMVDNXPNEIRWZ8JM6MU2UY","3WQQ9FUS6C0C0XG0KAO3TTZQMC8B8B","model","mismatch","uniform","","","","","","","","165234","167235","","","","","","","","","","","","8","","stimuli/stars_8.png","30","","","","","stimuli/HM07_HE.jpg","",""
"explore-choice","23","178391","0.0-23.0","p2219","AK8ONB60Q4RJ5","3OWZNK3RYMVDNXPNEIRWZ8JM6MU2UY","3WQQ9FUS6C0C0XG0KAO3TTZQMC8B8B","model","mismatch","uniform","","","","","","","11475","167235","178710","[""stimuli/BF08_HO.jpg"",""stimuli/AF09_SUR.jpg"",""stimuli/WM07_HE.jpg"",""stimuli/HM07_CC.jpg""]","stimuli/BF08_HO.jpg","stimuli/AF09_SUR.jpg","stimuli/WM07_HE.jpg","stimuli/HM07_CC.jpg","pos3","stimuli/WM07_HE.jpg","HE","WM07","2","1","2","4","stimuli/stars_2.png","31","[""HO"",""SUR"",""HE"",""CC""]","[""BF08"",""AF09"",""WM07"",""HM07""]","[4,8,2,9]","[2,6,4,8]","","",""
"show-reward","24","180393","0.0-24.0","p2219","AK8ONB60Q4RJ5","3OWZNK3RYMVDNXPNEIRWZ8JM6MU2UY","3WQQ9FUS6C0C0XG0KAO3TTZQMC8B8B","model","mismatch","uniform","","","","","","","","179211","181213","","","","","","","","","","","","2","","stimuli/stars_2.png","31","","","","","stimuli/WM07_HE.jpg","",""
"explore-choice","25","182050","0.0-25.0","p2219","AK8ONB60Q4RJ5","3OWZNK3RYMVDNXPNEIRWZ8JM6MU2UY","3WQQ9FUS6C0C0XG0KAO3TTZQMC8B8B","model","mismatch","uniform","","","","","","","1156","181214","182370","[""stimuli/WM07_HO.jpg"",""stimuli/AF09_CC.jpg"",""stimuli/HM07_SUR.jpg"",""stimuli/BF08_HE.jpg""]","stimuli/WM07_HO.jpg","stimuli/AF09_CC.jpg","stimuli/HM07_SUR.jpg","stimuli/BF08_HE.jpg","pos2","stimuli/AF09_CC.jpg","CC","AF09","1","4","8","6","stimuli/stars_8.png","35","[""HO"",""CC"",""SUR"",""HE""]","[""WM07"",""AF09"",""HM07"",""BF08""]","[3,8,9,0]","[4,6,8,2]","","",""
"show-reward","26","184053","0.0-26.0","p2219","AK8ONB60Q4RJ5","3OWZNK3RYMVDNXPNEIRWZ8JM6MU2UY","3WQQ9FUS6C0C0XG0KAO3TTZQMC8B8B","model","mismatch","uniform","","","","","","","","182871","184872","","","","","","","","","","","","8","","stimuli/stars_8.png","35","","","","","stimuli/AF09_CC.jpg","",""
"explore-choice","27","185962","0.0-27.0","p2219","AK8ONB60Q4RJ5","3OWZNK3RYMVDNXPNEIRWZ8JM6MU2UY","3WQQ9FUS6C0C0XG0KAO3TTZQMC8B8B","model","mismatch","uniform","","","","","","","1407","184874","186281","[""stimuli/HM07_SUR.jpg"",""stimuli/AF09_HE.jpg"",""stimuli/BF08_HO.jpg"",""stimuli/WM07_CC.jpg""]","stimuli/HM07_SUR.jpg","stimuli/AF09_HE.jpg","stimuli/BF08_HO.jpg","stimuli/WM07_CC.jpg","pos1","stimuli/HM07_SUR.jpg","SUR","HM07","0","3.5","7","8","stimuli/stars_7.png","38.5","[""SUR"",""HE"",""HO"",""CC""]","[""HM07"",""AF09"",""BF08"",""WM07""]","[7,8,3,5]","[8,6,2,4]","","",""
"show-reward","28","187964","0.0-28.0","p2219","AK8ONB60Q4RJ5","3OWZNK3RYMVDNXPNEIRWZ8JM6MU2UY","3WQQ9FUS6C0C0XG0KAO3TTZQMC8B8B","model","mismatch","uniform","","","","","","","","186782","188784","","","","","","","","","","","","7","","stimuli/stars_7.png","38.5","","","","","stimuli/HM07_SUR.jpg","",""
"explore-choice","29","191216","0.0-29.0","p2219","AK8ONB60Q4RJ5","3OWZNK3RYMVDNXPNEIRWZ8JM6MU2UY","3WQQ9FUS6C0C0XG0KAO3TTZQMC8B8B","model","mismatch","uniform","","","","","","","2751","188784","191535","[""stimuli/AF09_HO.jpg"",""stimuli/WM07_CC.jpg"",""stimuli/HM07_HE.jpg"",""stimuli/BF08_SUR.jpg""]","stimuli/AF09_HO.jpg","stimuli/WM07_CC.jpg","stimuli/HM07_HE.jpg","stimuli/BF08_SUR.jpg","pos1","stimuli/AF09_HO.jpg","HO","AF09","0","2","4","6","stimuli/stars_4.png","40.5","[""HO"",""CC"",""HE"",""SUR""]","[""AF09"",""WM07"",""HM07"",""BF08""]","[4,6,9,2]","[6,4,8,2]","","",""
"show-reward","30","193218","0.0-30.0","p2219","AK8ONB60Q4RJ5","3OWZNK3RYMVDNXPNEIRWZ8JM6MU2UY","3WQQ9FUS6C0C0XG0KAO3TTZQMC8B8B","model","mismatch","uniform","","","","","","","","192036","194038","","","","","","","","","","","","4","","stimuli/stars_4.png","40.5","","","","","stimuli/AF09_HO.jpg","",""
"explore-choice","31","194607","0.0-31.0","p2219","AK8ONB60Q4RJ5","3OWZNK3RYMVDNXPNEIRWZ8JM6MU2UY","3WQQ9FUS6C0C0XG0KAO3TTZQMC8B8B","model","mismatch","uniform","","","","","","","888","194038","194926","[""stimuli/WM07_HE.jpg"",""stimuli/AF09_HO.jpg"",""stimuli/BF08_CC.jpg"",""stimuli/HM07_SUR.jpg""]","stimuli/WM07_HE.jpg","stimuli/AF09_HO.jpg","stimuli/BF08_CC.jpg","stimuli/HM07_SUR.jpg","pos4","stimuli/HM07_SUR.jpg","SUR","HM07","3","4.5","9","8","stimuli/stars_9.png","45","[""HE"",""HO"",""CC"",""SUR""]","[""WM07"",""AF09"",""BF08"",""HM07""]","[2,7,1,9]","[4,6,2,8]","","",""
"show-reward","32","196608","0.0-32.0","p2219","AK8ONB60Q4RJ5","3OWZNK3RYMVDNXPNEIRWZ8JM6MU2UY","3WQQ9FUS6C0C0XG0KAO3TTZQMC8B8B","model","mismatch","uniform","","","","","","","","195427","197428","","","","","","","","","","","","9","","stimuli/stars_9.png","45","","","","","stimuli/HM07_SUR.jpg","",""
"explore-choice","33","198229","0.0-33.0","p2219","AK8ONB60Q4RJ5","3OWZNK3RYMVDNXPNEIRWZ8JM6MU2UY","3WQQ9FUS6C0C0XG0KAO3TTZQMC8B8B","model","mismatch","uniform","","","","","","","1119","197429","198548","[""stimuli/HM07_CC.jpg"",""stimuli/WM07_SUR.jpg"",""stimuli/AF09_HE.jpg"",""stimuli/BF08_HO.jpg""]","stimuli/HM07_CC.jpg","stimuli/WM07_SUR.jpg","stimuli/AF09_HE.jpg","stimuli/BF08_HO.jpg","pos1","stimuli/HM07_CC.jpg","CC","HM07","0","4.5","9","8","stimuli/stars_9.png","49.5","[""CC"",""SUR"",""HE"",""HO""]","[""HM07"",""WM07"",""AF09"",""BF08""]","[9,6,5,1]","[8,4,6,2]","","",""
"show-reward","34","200231","0.0-34.0","p2219","AK8ONB60Q4RJ5","3OWZNK3RYMVDNXPNEIRWZ8JM6MU2UY","3WQQ9FUS6C0C0XG0KAO3TTZQMC8B8B","model","mismatch","uniform","","","","","","","","199049","201050","","","","","","","","","","","","9","","stimuli/stars_9.png","49.5","","","","","stimuli/HM07_CC.jpg","",""
"explore-choice","35","201405","0.0-35.0","p2219","AK8ONB60Q4RJ5","3OWZNK3RYMVDNXPNEIRWZ8JM6MU2UY","3WQQ9FUS6C0C0XG0KAO3TTZQMC8B8B","model","mismatch","uniform","","","","","","","672","201051","201723","[""stimuli/HM07_HO.jpg"",""stimuli/BF08_HE.jpg"",""stimuli/WM07_SUR.jpg"",""stimuli/AF09_CC.jpg""]","stimuli/HM07_HO.jpg","stimuli/BF08_HE.jpg","stimuli/WM07_SUR.jpg","stimuli/AF09_CC.jpg","pos1","stimuli/HM07_HO.jpg","HO","HM07","0","4.5","9","8","stimuli/stars_9.png","54","[""HO"",""HE"",""SUR"",""CC""]","[""HM07"",""BF08"",""WM07"",""AF09""]","[9,1,5,8]","[8,2,4,6]","","",""
"show-reward","36","203406","0.0-36.0","p2219","AK8ONB60Q4RJ5","3OWZNK3RYMVDNXPNEIRWZ8JM6MU2UY","3WQQ9FUS6C0C0XG0KAO3TTZQMC8B8B","model","mismatch","uniform","","","","","","","","202224","204225","","","","","","","","","","","","9","","stimuli/stars_9.png","54","","","","","stimuli/HM07_HO.jpg","",""
"explore-choice","37","206073","0.0-37.0","p2219","AK8ONB60Q4RJ5","3OWZNK3RYMVDNXPNEIRWZ8JM6MU2UY","3WQQ9FUS6C0C0XG0KAO3TTZQMC8B8B","model","mismatch","uniform","","","","","","","2166","204226","206392","[""stimuli/WM07_CC.jpg"",""stimuli/BF08_HE.jpg"",""stimuli/AF09_HO.jpg"",""stimuli/HM07_SUR.jpg""]","stimuli/WM07_CC.jpg","stimuli/BF08_HE.jpg","stimuli/AF09_HO.jpg","stimuli/HM07_SUR.jpg","pos4","stimuli/HM07_SUR.jpg","SUR","HM07","3","4","8","8","stimuli/stars_8.png","58","[""CC"",""HE"",""HO"",""SUR""]","[""WM07"",""BF08"",""AF09"",""HM07""]","[3,2,4,8]","[4,2,6,8]","","",""
"show-reward","38","208076","0.0-38.0","p2219","AK8ONB60Q4RJ5","3OWZNK3RYMVDNXPNEIRWZ8JM6MU2UY","3WQQ9FUS6C0C0XG0KAO3TTZQMC8B8B","model","mismatch","uniform","","","","","","","","206894","208895","","","","","","","","","","","","8","","stimuli/stars_8.png","58","","","","","stimuli/HM07_SUR.jpg","",""
"explore-choice","39","209600","0.0-39.0","p2219","AK8ONB60Q4RJ5","3OWZNK3RYMVDNXPNEIRWZ8JM6MU2UY","3WQQ9FUS6C0C0XG0KAO3TTZQMC8B8B","model","mismatch","uniform","","","","","","","1025","208895","209920","[""stimuli/WM07_CC.jpg"",""stimuli/BF08_HO.jpg"",""stimuli/AF09_SUR.jpg"",""stimuli/HM07_HE.jpg""]","stimuli/WM07_CC.jpg","stimuli/BF08_HO.jpg","stimuli/AF09_SUR.jpg","stimuli/HM07_HE.jpg","pos4","stimuli/HM07_HE.jpg","HE","HM07","3","5","10","8","stimuli/stars_10.png","63","[""CC"",""HO"",""SUR"",""HE""]","[""WM07"",""BF08"",""AF09"",""HM07""]","[6,3,4,10]","[4,2,6,8]","","",""
"show-reward","40","211602","0.0-40.0","p2219","AK8ONB60Q4RJ5","3OWZNK3RYMVDNXPNEIRWZ8JM6MU2UY","3WQQ9FUS6C0C0XG0KAO3TTZQMC8B8B","model","mismatch","uniform","","","","","","","","210421","212421","","","","","","","","","","","","10","","stimuli/stars_10.png","63","","","","","stimuli/HM07_HE.jpg","",""
"explore-choice","41","213119","0.0-41.0","p2219","AK8ONB60Q4RJ5","3OWZNK3RYMVDNXPNEIRWZ8JM6MU2UY","3WQQ9FUS6C0C0XG0KAO3TTZQMC8B8B","model","mismatch","uniform","","","","","","","1015","212422","213437","[""stimuli/HM07_HE.jpg"",""stimuli/WM07_HO.jpg"",""stimuli/AF09_CC.jpg"",""stimuli/BF08_SUR.jpg""]","stimuli/HM07_HE.jpg","stimuli/WM07_HO.jpg","stimuli/AF09_CC.jpg","stimuli/BF08_SUR.jpg","pos1","stimuli/HM07_HE.jpg","HE","HM07","0","4","8","8","stimuli/stars_8.png","67","[""HE"",""HO"",""CC"",""SUR""]","[""HM07"",""WM07"",""AF09"",""BF08""]","[8,6,7,0]","[8,4,6,2]","","",""
"show-reward","42","215121","0.0-42.0","p2219","AK8ONB60Q4RJ5","3OWZNK3RYMVDNXPNEIRWZ8JM6MU2UY","3WQQ9FUS6C0C0XG0KAO3TTZQMC8B8B","model","mismatch","uniform","","","","","","","","213939","215940","","","","","","","","","","","","8","","stimuli/stars_8.png","67","","","","","stimuli/HM07_HE.jpg","",""
"explore-choice","43","217125","0.0-43.0","p2219","AK8ONB60Q4RJ5","3OWZNK3RYMVDNXPNEIRWZ8JM6MU2UY","3WQQ9FUS6C0C0XG0KAO3TTZQMC8B8B","model","mismatch","uniform","","","","","","","1504","215941","217445","[""stimuli/WM07_CC.jpg"",""stimuli/AF09_HE.jpg"",""stimuli/HM07_HO.jpg"",""stimuli/BF08_SUR.jpg""]","stimuli/WM07_CC.jpg","stimuli/AF09_HE.jpg","stimuli/HM07_HO.jpg","stimuli/BF08_SUR.jpg","pos3","stimuli/HM07_HO.jpg","HO","HM07","2","3","6","8","stimuli/stars_6.png","70","[""CC"",""HE"",""HO"",""SUR""]","[""WM07"",""AF09"",""HM07"",""BF08""]","[3,4,6,0]","[4,6,8,2]","","",""
"show-reward","44","219127","0.0-44.0","p2219","AK8ONB60Q4RJ5","3OWZNK3RYMVDNXPNEIRWZ8JM6MU2UY","3WQQ9FUS6C0C0XG0KAO3TTZQMC8B8B","model","mismatch","uniform","","","","","","","","217945","219947","","","","","","","","","","","","6","","stimuli/stars_6.png","70","","","","","stimuli/HM07_HO.jpg","",""
"explore-choice","45","231576","0.0-45.0","p2219","AK8ONB60Q4RJ5","3OWZNK3RYMVDNXPNEIRWZ8JM6MU2UY","3WQQ9FUS6C0C0XG0KAO3TTZQMC8B8B","model","mismatch","uniform","","","","","","","11949","219947","231896","[""stimuli/AF09_SUR.jpg"",""stimuli/BF08_HE.jpg"",""stimuli/WM07_CC.jpg"",""stimuli/HM07_HO.jpg""]","stimuli/AF09_SUR.jpg","stimuli/BF08_HE.jpg","stimuli/WM07_CC.jpg","stimuli/HM07_HO.jpg","pos4","stimuli/HM07_HO.jpg","HO","HM07","3","4","8","8","stimuli/stars_8.png","74","[""SUR"",""HE"",""CC"",""HO""]","[""AF09"",""BF08"",""WM07"",""HM07""]","[8,0,5,8]","[6,2,4,8]","","",""
"show-reward","46","233579","0.0-46.0","p2219","AK8ONB60Q4RJ5","3OWZNK3RYMVDNXPNEIRWZ8JM6MU2UY","3WQQ9FUS6C0C0XG0KAO3TTZQMC8B8B","model","mismatch","uniform","","","","","","","","232397","234397","","","","","","","","","","","","8","","stimuli/stars_8.png","74","","","","","stimuli/HM07_HO.jpg","",""
"explore-choice","47","235806","0.0-47.0","p2219","AK8ONB60Q4RJ5","3OWZNK3RYMVDNXPNEIRWZ8JM6MU2UY","3WQQ9FUS6C0C0XG0KAO3TTZQMC8B8B","model","mismatch","uniform","","","","","","","1727","234398","236125","[""stimuli/BF08_SUR.jpg"",""stimuli/AF09_CC.jpg"",""stimuli/WM07_HE.jpg"",""stimuli/HM07_HO.jpg""]","stimuli/BF08_SUR.jpg","stimuli/AF09_CC.jpg","stimuli/WM07_HE.jpg","stimuli/HM07_HO.jpg","pos4","stimuli/HM07_HO.jpg","HO","HM07","3","3","6","8","stimuli/stars_6.png","77","[""SUR"",""CC"",""HE"",""HO""]","[""BF08"",""AF09"",""WM07"",""HM07""]","[1,7,6,6]","[2,6,4,8]","","",""
"show-reward","48","237808","0.0-48.0","p2219","AK8ONB60Q4RJ5","3OWZNK3RYMVDNXPNEIRWZ8JM6MU2UY","3WQQ9FUS6C0C0XG0KAO3TTZQMC8B8B","model","mismatch","uniform","","","","","","","","236627","238627","","","","","","","","","","","","6","","stimuli/stars_6.png","77","","","","","stimuli/HM07_HO.jpg","",""
"explore-choice","49","239237","0.0-49.0","p2219","AK8ONB60Q4RJ5","3OWZNK3RYMVDNXPNEIRWZ8JM6MU2UY","3WQQ9FUS6C0C0XG0KAO3TTZQMC8B8B","model","mismatch","uniform","","","","","","","929","238628","239557","[""stimuli/BF08_CC.jpg"",""stimuli/HM07_HO.jpg"",""stimuli/WM07_HE.jpg"",""stimuli/AF09_SUR.jpg""]","stimuli/BF08_CC.jpg","stimuli/HM07_HO.jpg","stimuli/WM07_HE.jpg","stimuli/AF09_SUR.jpg","pos2","stimuli/HM07_HO.jpg","HO","HM07","1","3","6","8","stimuli/stars_6.png","80","[""CC"",""HO"",""HE"",""SUR""]","[""BF08"",""HM07"",""WM07"",""AF09""]","[0,6,3,8]","[2,8,4,6]","","",""
"show-reward","50","241239","0.0-50.0","p2219","AK8ONB60Q4RJ5","3OWZNK3RYMVDNXPNEIRWZ8JM6MU2UY","3WQQ9FUS6C0C0XG0KAO3TTZQMC8B8B","model","mismatch","uniform","","","","","","","","240057","242059","","","","","","","","","","","","6","","stimuli/stars_6.png","80","","","","","stimuli/HM07_HO.jpg","",""
"explore-choice","51","242661","0.0-51.0","p2219","AK8ONB60Q4RJ5","3OWZNK3RYMVDNXPNEIRWZ8JM6MU2UY","3WQQ9FUS6C0C0XG0KAO3TTZQMC8B8B","model","mismatch","uniform","","","","","","","921","242059","242980","[""stimuli/AF09_HE.jpg"",""stimuli/HM07_HO.jpg"",""stimuli/BF08_CC.jpg"",""stimuli/WM07_SUR.jpg""]","stimuli/AF09_HE.jpg","stimuli/HM07_HO.jpg","stimuli/BF08_CC.jpg","stimuli/WM07_SUR.jpg","pos1","stimuli/AF09_HE.jpg","HE","AF09","0","2.5","5","6","stimuli/stars_5.png","82.5","[""HE"",""HO"",""CC"",""SUR""]","[""AF09"",""HM07"",""BF08"",""WM07""]","[5,7,1,6]","[6,8,2,4]","","",""
"show-reward","52","244662","0.0-52.0","p2219","AK8ONB60Q4RJ5","3OWZNK3RYMVDNXPNEIRWZ8JM6MU2UY","3WQQ9FUS6C0C0XG0KAO3TTZQMC8B8B","model","mismatch","uniform","","","","","","","","243481","245481","","","","","","","","","","","","5","","stimuli/stars_5.png","82.5","","","","","stimuli/AF09_HE.jpg","",""
"explore-choice","53","246076","0.0-53.0","p2219","AK8ONB60Q4RJ5","3OWZNK3RYMVDNXPNEIRWZ8JM6MU2UY","3WQQ9FUS6C0C0XG0KAO3TTZQMC8B8B","model","mismatch","uniform","","","","","","","912","245482","246394","[""stimuli/HM07_CC.jpg"",""stimuli/BF08_SUR.jpg"",""stimuli/AF09_HO.jpg"",""stimuli/WM07_HE.jpg""]","stimuli/HM07_CC.jpg","stimuli/BF08_SUR.jpg","stimuli/AF09_HO.jpg","stimuli/WM07_HE.jpg","pos1","stimuli/HM07_CC.jpg","CC","HM07","0","3.5","7","8","stimuli/stars_7.png","86","[""CC"",""SUR"",""HO"",""HE""]","[""HM07"",""BF08"",""AF09"",""WM07""]","[7,0,6,4]","[8,2,6,4]","","",""
"show-reward","54","248077","0.0-54.0","p2219","AK8ONB60Q4RJ5","3OWZNK3RYMVDNXPNEIRWZ8JM6MU2UY","3WQQ9FUS6C0C0XG0KAO3TTZQMC8B8B","model","mismatch","uniform","","","","","","","","246895","248896","","","","","","","","","","","","7","","stimuli/stars_7.png","86","","","","","stimuli/HM07_CC.jpg","",""
"explore-choice","55","249547","0.0-55.0","p2219","AK8ONB60Q4RJ5","3OWZNK3RYMVDNXPNEIRWZ8JM6MU2UY","3WQQ9FUS6C0C0XG0KAO3TTZQMC8B8B","model","mismatch","uniform","","","","","","","968","248897","249865","[""stimuli/WM07_HO.jpg"",""stimuli/BF08_SUR.jpg"",""stimuli/AF09_HE.jpg"",""stimuli/HM07_CC.jpg""]","stimuli/WM07_HO.jpg","stimuli/BF08_SUR.jpg","stimuli/AF09_HE.jpg","stimuli/HM07_CC.jpg","pos4","stimuli/HM07_CC.jpg","CC","HM07","3","5","10","8","stimuli/stars_10.png","91","[""HO"",""SUR"",""HE"",""CC""]","[""WM07"",""BF08"",""AF09"",""HM07""]","[2,3,8,10]","[4,2,6,8]","","",""
"show-reward","56","251548","0.0-56.0","p2219","AK8ONB60Q4RJ5","3OWZNK3RYMVDNXPNEIRWZ8JM6MU2UY","3WQQ9FUS6C0C0XG0KAO3TTZQMC8B8B","model","mismatch","uniform","","","","","","","","250367","252367","","","","","","","","","","","","10","","stimuli/stars_10.png","91","","","","","stimuli/HM07_CC.jpg","",""
"explore-choice","57","252962","0.0-57.0","p2219","AK8ONB60Q4RJ5","3OWZNK3RYMVDNXPNEIRWZ8JM6MU2UY","3WQQ9FUS6C0C0XG0KAO3TTZQMC8B8B","model","mismatch","uniform","","","","","","","912","252368","253280","[""stimuli/HM07_HO.jpg"",""stimuli/BF08_SUR.jpg"",""stimuli/WM07_HE.jpg"",""stimuli/AF09_CC.jpg""]","stimuli/HM07_HO.jpg","stimuli/BF08_SUR.jpg","stimuli/WM07_HE.jpg","stimuli/AF09_CC.jpg","pos1","stimuli/HM07_HO.jpg","HO","HM07","0","3","6","8","stimuli/stars_6.png","94","[""HO"",""SUR"",""HE"",""CC""]","[""HM07"",""BF08"",""WM07"",""AF09""]","[6,1,6,7]","[8,2,4,6]","","",""
"show-reward","58","254963","0.0-58.0","p2219","AK8ONB60Q4RJ5","3OWZNK3RYMVDNXPNEIRWZ8JM6MU2UY","3WQQ9FUS6C0C0XG0KAO3TTZQMC8B8B","model","mismatch","uniform","","","","","","","","253782","255782","","","","","","","","","","","","6","","stimuli/stars_6.png","94","","","","","stimuli/HM07_HO.jpg","",""
"explore-choice","59","256544","0.0-59.0","p2219","AK8ONB60Q4RJ5","3OWZNK3RYMVDNXPNEIRWZ8JM6MU2UY","3WQQ9FUS6C0C0XG0KAO3TTZQMC8B8B","model","mismatch","uniform","","","","","","","1081","255783","256864","[""stimuli/WM07_HE.jpg"",""stimuli/AF09_CC.jpg"",""stimuli/BF08_HO.jpg"",""stimuli/HM07_SUR.jpg""]","stimuli/WM07_HE.jpg","stimuli/AF09_CC.jpg","stimuli/BF08_HO.jpg","stimuli/HM07_SUR.jpg","pos4","stimuli/HM07_SUR.jpg","SUR","HM07","3","4.5","9","8","stimuli/stars_9.png","98.5","[""HE"",""CC"",""HO"",""SUR""]","[""WM07"",""AF09"",""BF08"",""HM07""]","[3,5,3,9]","[4,6,2,8]","","",""
"show-reward","60","258546","0.0-60.0","p2219","AK8ONB60Q4RJ5","3OWZNK3RYMVDNXPNEIRWZ8JM6MU2UY","3WQQ9FUS6C0C0XG0KAO3TTZQMC8B8B","model","mismatch","uniform","","","","","","","","257364","259366","","","","","","","","","","","","9","","stimuli/stars_9.png","98.5","","","","","stimuli/HM07_SUR.jpg","",""
"explore-choice","61","259984","0.0-61.0","p2219","AK8ONB60Q4RJ5","3OWZNK3RYMVDNXPNEIRWZ8JM6MU2UY","3WQQ9FUS6C0C0XG0KAO3TTZQMC8B8B","model","mismatch","uniform","","","","","","","936","259366","260302","[""stimuli/BF08_HO.jpg"",""stimuli/WM07_CC.jpg"",""stimuli/HM07_SUR.jpg"",""stimuli/AF09_HE.jpg""]","stimuli/BF08_HO.jpg","stimuli/WM07_CC.jpg","stimuli/HM07_SUR.jpg","stimuli/AF09_HE.jpg","pos3","stimuli/HM07_SUR.jpg","SUR","HM07","2","3.5","7","8","stimuli/stars_7.png","102","[""HO"",""CC"",""SUR"",""HE""]","[""BF08"",""WM07"",""HM07"",""AF09""]","[3,5,7,8]","[2,4,8,6]","","",""
"show-reward","62","261985","0.0-62.0","p2219","AK8ONB60Q4RJ5","3OWZNK3RYMVDNXPNEIRWZ8JM6MU2UY","3WQQ9FUS6C0C0XG0KAO3TTZQMC8B8B","model","mismatch","uniform","","","","","","","","260803","262804","","","","","","","","","","","","7","","stimuli/stars_7.png","102","","","","","stimuli/HM07_SUR.jpg","",""
"explore-choice","63","263432","0.0-63.0","p2219","AK8ONB60Q4RJ5","3OWZNK3RYMVDNXPNEIRWZ8JM6MU2UY","3WQQ9FUS6C0C0XG0KAO3TTZQMC8B8B","model","mismatch","uniform","","","","","","","946","262805","263751","[""stimuli/WM07_HE.jpg"",""stimuli/AF09_SUR.jpg"",""stimuli/BF08_CC.jpg"",""stimuli/HM07_HO.jpg""]","stimuli/WM07_HE.jpg","stimuli/AF09_SUR.jpg","stimuli/BF08_CC.jpg","stimuli/HM07_HO.jpg","pos4","stimuli/HM07_HO.jpg","HO","HM07","3","3","6","8","stimuli/stars_6.png","105","[""HE"",""SUR"",""CC"",""HO""]","[""WM07"",""AF09"",""BF08"",""HM07""]","[3,8,0,6]","[4,6,2,8]","","",""
"show-reward","64","265434","0.0-64.0","p2219","AK8ONB60Q4RJ5","3OWZNK3RYMVDNXPNEIRWZ8JM6MU2UY","3WQQ9FUS6C0C0XG0KAO3TTZQMC8B8B","model","mismatch","uniform","","","","","","","","264252","266253","","","","","","","","","","","","6","","stimuli/stars_6.png","105","","","","","stimuli/HM07_HO.jpg","",""
"explore-choice","65","281159","0.0-65.0","p2219","AK8ONB60Q4RJ5","3OWZNK3RYMVDNXPNEIRWZ8JM6MU2UY","3WQQ9FUS6C0C0XG0KAO3TTZQMC8B8B","model","mismatch","uniform","","","","","","","15224","266254","281478","[""stimuli/AF09_CC.jpg"",""stimuli/WM07_HO.jpg"",""stimuli/HM07_SUR.jpg"",""stimuli/BF08_HE.jpg""]","stimuli/AF09_CC.jpg","stimuli/WM07_HO.jpg","stimuli/HM07_SUR.jpg","stimuli/BF08_HE.jpg","pos3","stimuli/HM07_SUR.jpg","SUR","HM07","2","4.5","9","8","stimuli/stars_9.png","109.5","[""CC"",""HO"",""SUR"",""HE""]","[""AF09"",""WM07"",""HM07"",""BF08""]","[8,3,9,0]","[6,4,8,2]","","",""
"show-reward","66","283161","0.0-66.0","p2219","AK8ONB60Q4RJ5","3OWZNK3RYMVDNXPNEIRWZ8JM6MU2UY","3WQQ9FUS6C0C0XG0KAO3TTZQMC8B8B","model","mismatch","uniform","","","","","","","","281979","283980","","","","","","","","","","","","9","","stimuli/stars_9.png","109.5","","","","","stimuli/HM07_SUR.jpg","",""
"explore-choice","67","284447","0.0-67.0","p2219","AK8ONB60Q4RJ5","3OWZNK3RYMVDNXPNEIRWZ8JM6MU2UY","3WQQ9FUS6C0C0XG0KAO3TTZQMC8B8B","model","mismatch","uniform","","","","","","","786","283980","284766","[""stimuli/AF09_HE.jpg"",""stimuli/WM07_SUR.jpg"",""stimuli/HM07_CC.jpg"",""stimuli/BF08_HO.jpg""]","stimuli/AF09_HE.jpg","stimuli/WM07_SUR.jpg","stimuli/HM07_CC.jpg","stimuli/BF08_HO.jpg","pos3","stimuli/HM07_CC.jpg","CC","HM07","2","4.5","9","8","stimuli/stars_9.png","114","[""HE"",""SUR"",""CC"",""HO""]","[""AF09"",""WM07"",""HM07"",""BF08""]","[5,6,9,1]","[6,4,8,2]","","",""
"show-reward","68","286448","0.0-68.0","p2219","AK8ONB60Q4RJ5","3OWZNK3RYMVDNXPNEIRWZ8JM6MU2UY","3WQQ9FUS6C0C0XG0KAO3TTZQMC8B8B","model","mismatch","uniform","","","","","","","","285267","287268","","","","","","","","","","","","9","","stimuli/stars_9.png","114","","","","","stimuli/HM07_CC.jpg","",""
"explore-choice","69","287613","0.0-69.0","p2219","AK8ONB60Q4RJ5","3OWZNK3RYMVDNXPNEIRWZ8JM6MU2UY","3WQQ9FUS6C0C0XG0KAO3TTZQMC8B8B","model","mismatch","uniform","","","","","","","665","287268","287933","[""stimuli/BF08_HO.jpg"",""stimuli/WM07_HE.jpg"",""stimuli/HM07_CC.jpg"",""stimuli/AF09_SUR.jpg""]","stimuli/BF08_HO.jpg","stimuli/WM07_HE.jpg","stimuli/HM07_CC.jpg","stimuli/AF09_SUR.jpg","pos3","stimuli/HM07_CC.jpg","CC","HM07","2","4.5","9","8","stimuli/stars_9.png","118.5","[""HO"",""HE"",""CC"",""SUR""]","[""BF08"",""WM07"",""HM07"",""AF09""]","[4,2,9,8]","[2,4,8,6]","","",""
"show-reward","70","289615","0.0-70.0","p2219","AK8ONB60Q4RJ5","3OWZNK3RYMVDNXPNEIRWZ8JM6MU2UY","3WQQ9FUS6C0C0XG0KAO3TTZQMC8B8B","model","mismatch","uniform","","","","","","","","288433","290434","","","","","","","","","","","","9","","stimuli/stars_9.png","118.5","","","","","stimuli/HM07_CC.jpg","",""
"explore-choice","71","291140","0.0-71.0","p2219","AK8ONB60Q4RJ5","3OWZNK3RYMVDNXPNEIRWZ8JM6MU2UY","3WQQ9FUS6C0C0XG0KAO3TTZQMC8B8B","model","mismatch","uniform","","","","","","","1024","290435","291459","[""stimuli/BF08_HE.jpg"",""stimuli/HM07_CC.jpg"",""stimuli/AF09_SUR.jpg"",""stimuli/WM07_HO.jpg""]","stimuli/BF08_HE.jpg","stimuli/HM07_CC.jpg","stimuli/AF09_SUR.jpg","stimuli/WM07_HO.jpg","pos2","stimuli/HM07_CC.jpg","CC","HM07","1","4","8","8","stimuli/stars_8.png","122.5","[""HE"",""CC"",""SUR"",""HO""]","[""BF08"",""HM07"",""AF09"",""WM07""]","[3,8,7,2]","[2,8,6,4]","","",""
"show-reward","72","293142","0.0-72.0","p2219","AK8ONB60Q4RJ5","3OWZNK3RYMVDNXPNEIRWZ8JM6MU2UY","3WQQ9FUS6C0C0XG0KAO3TTZQMC8B8B","model","mismatch","uniform","","","","","","","","291960","293962","","","","","","","","","","","","8","","stimuli/stars_8.png","122.5","","","","","stimuli/HM07_CC.jpg","",""
"explore-choice","73","294596","0.0-73.0","p2219","AK8ONB60Q4RJ5","3OWZNK3RYMVDNXPNEIRWZ8JM6MU2UY","3WQQ9FUS6C0C0XG0KAO3TTZQMC8B8B","model","mismatch","uniform","","","","","","","953","293962","294915","[""stimuli/BF08_SUR.jpg"",""stimuli/AF09_HE.jpg"",""stimuli/WM07_CC.jpg"",""stimuli/HM07_HO.jpg""]","stimuli/BF08_SUR.jpg","stimuli/AF09_HE.jpg","stimuli/WM07_CC.jpg","stimuli/HM07_HO.jpg","pos4","stimuli/HM07_HO.jpg","HO","HM07","3","3","6","8","stimuli/stars_6.png","125.5","[""SUR"",""HE"",""CC"",""HO""]","[""BF08"",""AF09"",""WM07"",""HM07""]","[0,4,3,6]","[2,6,4,8]","","",""
"show-reward","74","296597","0.0-74.0","p2219","AK8ONB60Q4RJ5","3OWZNK3RYMVDNXPNEIRWZ8JM6MU2UY","3WQQ9FUS6C0C0XG0KAO3TTZQMC8B8B","model","mismatch","uniform","","","","","","","","295416","297417","","","","","","","","","","","","6","","stimuli/stars_6.png","125.5","","","","","stimuli/HM07_HO.jpg","",""
"explore-choice","75","297922","0.0-75.0","p2219","AK8ONB60Q4RJ5","3OWZNK3RYMVDNXPNEIRWZ8JM6MU2UY","3WQQ9FUS6C0C0XG0KAO3TTZQMC8B8B","model","mismatch","uniform","","","","","","","824","297417","298241","[""stimuli/WM07_CC.jpg"",""stimuli/BF08_HE.jpg"",""stimuli/AF09_HO.jpg"",""stimuli/HM07_SUR.jpg""]","stimuli/WM07_CC.jpg","stimuli/BF08_HE.jpg","stimuli/AF09_HO.jpg","stimuli/HM07_SUR.jpg","pos4","stimuli/HM07_SUR.jpg","SUR","HM07","3","4","8","8","stimuli/stars_8.png","129.5","[""CC"",""HE"",""HO"",""SUR""]","[""WM07"",""BF08"",""AF09"",""HM07""]","[3,2,4,8]","[4,2,6,8]","","",""
"show-reward","76","299923","0.0-76.0","p2219","AK8ONB60Q4RJ5","3OWZNK3RYMVDNXPNEIRWZ8JM6MU2UY","3WQQ9FUS6C0C0XG0KAO3TTZQMC8B8B","model","mismatch","uniform","","","","","","","","298742","300742","","","","","","","","","","","","8","","stimuli/stars_8.png","129.5","","","","","stimuli/HM07_SUR.jpg","",""
"explore-choice","77","301297","0.0-77.0","p2219","AK8ONB60Q4RJ5","3OWZNK3RYMVDNXPNEIRWZ8JM6MU2UY","3WQQ9FUS6C0C0XG0KAO3TTZQMC8B8B","model","mismatch","uniform","","","","","","","873","300743","301616","[""stimuli/BF08_SUR.jpg"",""stimuli/WM07_HE.jpg"",""stimuli/AF09_HO.jpg"",""stimuli/HM07_CC.jpg""]","stimuli/BF08_SUR.jpg","stimuli/WM07_HE.jpg","stimuli/AF09_HO.jpg","stimuli/HM07_CC.jpg","pos4","stimuli/HM07_CC.jpg","CC","HM07","3","3.5","7","8","stimuli/stars_7.png","133","[""SUR"",""HE"",""HO"",""CC""]","[""BF08"",""WM07"",""AF09"",""HM07""]","[0,4,6,7]","[2,4,6,8]","","",""
"show-reward","78","303299","0.0-78.0","p2219","AK8ONB60Q4RJ5","3OWZNK3RYMVDNXPNEIRWZ8JM6MU2UY","3WQQ9FUS6C0C0XG0KAO3TTZQMC8B8B","model","mismatch","uniform","","","","","","","","302117","304118","","","","","","","","","","","","7","","stimuli/stars_7.png","133","","","","","stimuli/HM07_CC.jpg","",""
"explore-choice","79","304463","0.0-79.0","p2219","AK8ONB60Q4RJ5","3OWZNK3RYMVDNXPNEIRWZ8JM6MU2UY","3WQQ9FUS6C0C0XG0KAO3TTZQMC8B8B","model","mismatch","uniform","","","","","","","665","304118","304783","[""stimuli/AF09_HO.jpg"",""stimuli/WM07_CC.jpg"",""stimuli/BF08_SUR.jpg"",""stimuli/HM07_HE.jpg""]","stimuli/AF09_HO.jpg","stimuli/WM07_CC.jpg","stimuli/BF08_SUR.jpg","stimuli/HM07_HE.jpg","pos4","stimuli/HM07_HE.jpg","HE","HM07","3","4.5","9","8","stimuli/stars_9.png","137.5","[""HO"",""CC"",""SUR"",""HE""]","[""AF09"",""WM07"",""BF08"",""HM07""]","[4,6,2,9]","[6,4,2,8]","","",""
"show-reward","80","306465","0.0-80.0","p2219","AK8ONB60Q4RJ5","3OWZNK3RYMVDNXPNEIRWZ8JM6MU2UY","3WQQ9FUS6C0C0XG0KAO3TTZQMC8B8B","model","mismatch","uniform","","","","","","","","305284","307285","","","","","","","","","","","","9","","stimuli/stars_9.png","137.5","","","","","stimuli/HM07_HE.jpg","",""
"explore-choice","81","307792","0.0-81.0","p2219","AK8ONB60Q4RJ5","3OWZNK3RYMVDNXPNEIRWZ8JM6MU2UY","3WQQ9FUS6C0C0XG0KAO3TTZQMC8B8B","model","mismatch","uniform","","","","","","","826","307285","308111","[""stimuli/BF08_CC.jpg"",""stimuli/AF09_HO.jpg"",""stimuli/WM07_SUR.jpg"",""stimuli/HM07_HE.jpg""]","stimuli/BF08_CC.jpg","stimuli/AF09_HO.jpg","stimuli/WM07_SUR.jpg","stimuli/HM07_HE.jpg","pos4","stimuli/HM07_HE.jpg","HE","HM07","3","3.5","7","8","stimuli/stars_7.png","141","[""CC"",""HO"",""SUR"",""HE""]","[""BF08"",""AF09"",""WM07"",""HM07""]","[4,4,6,7]","[2,6,4,8]","","",""
"show-reward","82","309794","0.0-82.0","p2219","AK8ONB60Q4RJ5","3OWZNK3RYMVDNXPNEIRWZ8JM6MU2UY","3WQQ9FUS6C0C0XG0KAO3TTZQMC8B8B","model","mismatch","uniform","","","","","","","","308612","310613","","","","","","","","","","","","7","","stimuli/stars_7.png","141","","","","","stimuli/HM07_HE.jpg","",""
"explore-choice","83","310966","0.0-83.0","p2219","AK8ONB60Q4RJ5","3OWZNK3RYMVDNXPNEIRWZ8JM6MU2UY","3WQQ9FUS6C0C0XG0KAO3TTZQMC8B8B","model","mismatch","uniform","","","","","","","671","310614","311285","[""stimuli/AF09_HO.jpg"",""stimuli/WM07_SUR.jpg"",""stimuli/BF08_HE.jpg"",""stimuli/HM07_CC.jpg""]","stimuli/AF09_HO.jpg","stimuli/WM07_SUR.jpg","stimuli/BF08_HE.jpg","stimuli/HM07_CC.jpg","pos4","stimuli/HM07_CC.jpg","CC","HM07","3","3.5","7","8","stimuli/stars_7.png","144.5","[""HO"",""SUR"",""HE"",""CC""]","[""AF09"",""WM07"",""BF08"",""HM07""]","[6,5,0,7]","[6,4,2,8]","","",""
"show-reward","84","312968","0.0-84.0","p2219","AK8ONB60Q4RJ5","3OWZNK3RYMVDNXPNEIRWZ8JM6MU2UY","3WQQ9FUS6C0C0XG0KAO3TTZQMC8B8B","model","mismatch","uniform","","","","","","","","311786","313787","","","","","","","","","","","","7","","stimuli/stars_7.png","144.5","","","","","stimuli/HM07_CC.jpg","",""
"explore-choice","85","315334","0.0-85.0","p2219","AK8ONB60Q4RJ5","3OWZNK3RYMVDNXPNEIRWZ8JM6MU2UY","3WQQ9FUS6C0C0XG0KAO3TTZQMC8B8B","model","mismatch","uniform","","","","","","","1865","313788","315653","[""stimuli/WM07_SUR.jpg"",""stimuli/HM07_HE.jpg"",""stimuli/AF09_CC.jpg"",""stimuli/BF08_HO.jpg""]","stimuli/WM07_SUR.jpg","stimuli/HM07_HE.jpg","stimuli/AF09_CC.jpg","stimuli/BF08_HO.jpg","pos2","stimuli/HM07_HE.jpg","HE","HM07","1","4.5","9","8","stimuli/stars_9.png","149","[""SUR"",""HE"",""CC"",""HO""]","[""WM07"",""HM07"",""AF09"",""BF08""]","[4,9,5,3]","[4,8,6,2]","","",""
"show-reward","86","317335","0.0-86.0","p2219","AK8ONB60Q4RJ5","3OWZNK3RYMVDNXPNEIRWZ8JM6MU2UY","3WQQ9FUS6C0C0XG0KAO3TTZQMC8B8B","model","mismatch","uniform","","","","","","","","316153","318155","","","","","","","","","","","","9","","stimuli/stars_9.png","149","","","","","stimuli/HM07_HE.jpg","",""
"explore-choice","87","357061","0.0-87.0","p2219","AK8ONB60Q4RJ5","3OWZNK3RYMVDNXPNEIRWZ8JM6MU2UY","3WQQ9FUS6C0C0XG0KAO3TTZQMC8B8B","model","mismatch","uniform","","","","","","","39226","318155","357381","[""stimuli/BF08_SUR.jpg"",""stimuli/WM07_HO.jpg"",""stimuli/AF09_CC.jpg"",""stimuli/HM07_HE.jpg""]","stimuli/BF08_SUR.jpg","stimuli/WM07_HO.jpg","stimuli/AF09_CC.jpg","stimuli/HM07_HE.jpg","pos4","stimuli/HM07_HE.jpg","HE","HM07","3","4","8","8","stimuli/stars_8.png","153","[""SUR"",""HO"",""CC"",""HE""]","[""BF08"",""WM07"",""AF09"",""HM07""]","[0,6,7,8]","[2,4,6,8]","","",""
"show-reward","88","359063","0.0-88.0","p2219","AK8ONB60Q4RJ5","3OWZNK3RYMVDNXPNEIRWZ8JM6MU2UY","3WQQ9FUS6C0C0XG0KAO3TTZQMC8B8B","model","mismatch","uniform","","","","","","","","357881","359883","","","","","","","","","","","","8","","stimuli/stars_8.png","153","","","","","stimuli/HM07_HE.jpg","",""
"explore-choice","89","360443","0.0-89.0","p2219","AK8ONB60Q4RJ5","3OWZNK3RYMVDNXPNEIRWZ8JM6MU2UY","3WQQ9FUS6C0C0XG0KAO3TTZQMC8B8B","model","mismatch","uniform","","","","","","","879","359883","360762","[""stimuli/AF09_SUR.jpg"",""stimuli/BF08_HE.jpg"",""stimuli/WM07_CC.jpg"",""stimuli/HM07_HO.jpg""]","stimuli/AF09_SUR.jpg","stimuli/BF08_HE.jpg","stimuli/WM07_CC.jpg","stimuli/HM07_HO.jpg","pos4","stimuli/HM07_HO.jpg","HO","HM07","3","4","8","8","stimuli/stars_8.png","157","[""SUR"",""HE"",""CC"",""HO""]","[""AF09"",""BF08"",""WM07"",""HM07""]","[8,0,5,8]","[6,2,4,8]","","",""
"show-reward","90","362445","0.0-90.0","p2219","AK8ONB60Q4RJ5","3OWZNK3RYMVDNXPNEIRWZ8JM6MU2UY","3WQQ9FUS6C0C0XG0KAO3TTZQMC8B8B","model","mismatch","uniform","","","","","","","","361264","363264","","","","","","","","","","","","8","","stimuli/stars_8.png","157","","","","","stimuli/HM07_HO.jpg","",""
"explore-choice","91","364003","0.0-91.0","p2219","AK8ONB60Q4RJ5","3OWZNK3RYMVDNXPNEIRWZ8JM6MU2UY","3WQQ9FUS6C0C0XG0KAO3TTZQMC8B8B","model","mismatch","uniform","","","","","","","1057","363265","364322","[""stimuli/BF08_CC.jpg"",""stimuli/HM07_SUR.jpg"",""stimuli/WM07_HO.jpg"",""stimuli/AF09_HE.jpg""]","stimuli/BF08_CC.jpg","stimuli/HM07_SUR.jpg","stimuli/WM07_HO.jpg","stimuli/AF09_HE.jpg","pos2","stimuli/HM07_SUR.jpg","SUR","HM07","1","4.5","9","8","stimuli/stars_9.png","161.5","[""CC"",""SUR"",""HO"",""HE""]","[""BF08"",""HM07"",""WM07"",""AF09""]","[0,9,5,5]","[2,8,4,6]","","",""
"show-reward","92","366004","0.0-92.0","p2219","AK8ONB60Q4RJ5","3OWZNK3RYMVDNXPNEIRWZ8JM6MU2UY","3WQQ9FUS6C0C0XG0KAO3TTZQMC8B8B","model","mismatch","uniform","","","","","","","","364822","366824","","","","","","","","","","","","9","","stimuli/stars_9.png","161.5","","","","","stimuli/HM07_SUR.jpg","",""
"explore-choice","93","367481","0.0-93.0","p2219","AK8ONB60Q4RJ5","3OWZNK3RYMVDNXPNEIRWZ8JM6MU2UY","3WQQ9FUS6C0C0XG0KAO3TTZQMC8B8B","model","mismatch","uniform","","","","","","","976","366825","367801","[""stimuli/WM07_HO.jpg"",""stimuli/AF09_SUR.jpg"",""stimuli/BF08_CC.jpg"",""stimuli/HM07_HE.jpg""]","stimuli/WM07_HO.jpg","stimuli/AF09_SUR.jpg","stimuli/BF08_CC.jpg","stimuli/HM07_HE.jpg","pos4","stimuli/HM07_HE.jpg","HE","HM07","3","4","8","8","stimuli/stars_8.png","165.5","[""HO"",""SUR"",""CC"",""HE""]","[""WM07"",""AF09"",""BF08"",""HM07""]","[6,7,1,8]","[4,6,2,8]","","",""
"show-reward","94","369483","0.0-94.0","p2219","AK8ONB60Q4RJ5","3OWZNK3RYMVDNXPNEIRWZ8JM6MU2UY","3WQQ9FUS6C0C0XG0KAO3TTZQMC8B8B","model","mismatch","uniform","","","","","","","","368301","370303","","","","","","","","","","","","8","","stimuli/stars_8.png","165.5","","","","","stimuli/HM07_HE.jpg","",""
"explore-choice","95","389598","0.0-95.0","p2219","AK8ONB60Q4RJ5","3OWZNK3RYMVDNXPNEIRWZ8JM6MU2UY","3WQQ9FUS6C0C0XG0KAO3TTZQMC8B8B","model","mismatch","uniform","","","","","","","19614","370303","389917","[""stimuli/BF08_CC.jpg"",""stimuli/WM07_SUR.jpg"",""stimuli/HM07_HO.jpg"",""stimuli/AF09_HE.jpg""]","stimuli/BF08_CC.jpg","stimuli/WM07_SUR.jpg","stimuli/HM07_HO.jpg","stimuli/AF09_HE.jpg","pos3","stimuli/HM07_HO.jpg","HO","HM07","2","3.5","7","8","stimuli/stars_7.png","169","[""CC"",""SUR"",""HO"",""HE""]","[""BF08"",""WM07"",""HM07"",""AF09""]","[1,6,7,5]","[2,4,8,6]","","",""
"show-reward","96","391599","0.0-96.0","p2219","AK8ONB60Q4RJ5","3OWZNK3RYMVDNXPNEIRWZ8JM6MU2UY","3WQQ9FUS6C0C0XG0KAO3TTZQMC8B8B","model","mismatch","uniform","","","","","","","","390418","392419","","","","","","","","","","","","7","","stimuli/stars_7.png","169","","","","","stimuli/HM07_HO.jpg","",""
"explore-choice","97","393244","0.0-97.0","p2219","AK8ONB60Q4RJ5","3OWZNK3RYMVDNXPNEIRWZ8JM6MU2UY","3WQQ9FUS6C0C0XG0KAO3TTZQMC8B8B","model","mismatch","uniform","","","","","","","1144","392419","393563","[""stimuli/AF09_CC.jpg"",""stimuli/BF08_HE.jpg"",""stimuli/HM07_HO.jpg"",""stimuli/WM07_SUR.jpg""]","stimuli/AF09_CC.jpg","stimuli/BF08_HE.jpg","stimuli/HM07_HO.jpg","stimuli/WM07_SUR.jpg","pos3","stimuli/HM07_HO.jpg","HO","HM07","2","4.5","9","8","stimuli/stars_9.png","173.5","[""CC"",""HE"",""HO"",""SUR""]","[""AF09"",""BF08"",""HM07"",""WM07""]","[8,1,9,5]","[6,2,8,4]","","",""
"show-reward","98","395245","0.0-98.0","p2219","AK8ONB60Q4RJ5","3OWZNK3RYMVDNXPNEIRWZ8JM6MU2UY","3WQQ9FUS6C0C0XG0KAO3TTZQMC8B8B","model","mismatch","uniform","","","","","","","","394064","396065","","","","","","","","","","","","9","","stimuli/stars_9.png","173.5","","","","","stimuli/HM07_HO.jpg","",""
"explore-choice","99","398819","0.0-99.0","p2219","AK8ONB60Q4RJ5","3OWZNK3RYMVDNXPNEIRWZ8JM6MU2UY","3WQQ9FUS6C0C0XG0KAO3TTZQMC8B8B","model","mismatch","uniform","","","","","","","3072","396066","399138","[""stimuli/WM07_CC.jpg"",""stimuli/BF08_HO.jpg"",""stimuli/HM07_HE.jpg"",""stimuli/AF09_SUR.jpg""]","stimuli/WM07_CC.jpg","stimuli/BF08_HO.jpg","stimuli/HM07_HE.jpg","stimuli/AF09_SUR.jpg","pos3","stimuli/HM07_HE.jpg","HE","HM07","2","5","10","8","stimuli/stars_10.png","178.5","[""CC"",""HO"",""HE"",""SUR""]","[""WM07"",""BF08"",""HM07"",""AF09""]","[6,3,10,4]","[4,2,8,6]","","",""
"show-reward","100","400821","0.0-100.0","p2219","AK8ONB60Q4RJ5","3OWZNK3RYMVDNXPNEIRWZ8JM6MU2UY","3WQQ9FUS6C0C0XG0KAO3TTZQMC8B8B","model","mismatch","uniform","","","","","","","","399640","401640","","","","","","","","","","","","10","","stimuli/stars_10.png","178.5","","","","","stimuli/HM07_HE.jpg","",""
"explore-choice","101","402145","0.0-101.0","p2219","AK8ONB60Q4RJ5","3OWZNK3RYMVDNXPNEIRWZ8JM6MU2UY","3WQQ9FUS6C0C0XG0KAO3TTZQMC8B8B","model","mismatch","uniform","","","","","","","824","401641","402465","[""stimuli/BF08_CC.jpg"",""stimuli/AF09_HO.jpg"",""stimuli/HM07_SUR.jpg"",""stimuli/WM07_HE.jpg""]","stimuli/BF08_CC.jpg","stimuli/AF09_HO.jpg","stimuli/HM07_SUR.jpg","stimuli/WM07_HE.jpg","pos3","stimuli/HM07_SUR.jpg","SUR","HM07","2","4.5","9","8","stimuli/stars_9.png","183","[""CC"",""HO"",""SUR"",""HE""]","[""BF08"",""AF09"",""HM07"",""WM07""]","[1,7,9,2]","[2,6,8,4]","","",""
"show-reward","102","404147","0.0-102.0","p2219","AK8ONB60Q4RJ5","3OWZNK3RYMVDNXPNEIRWZ8JM6MU2UY","3WQQ9FUS6C0C0XG0KAO3TTZQMC8B8B","model","mismatch","uniform","","","","","","","","402966","404967","","","","","","","","","","","","9","","stimuli/stars_9.png","183","","","","","stimuli/HM07_SUR.jpg","",""
"explore-choice","103","407680","0.0-103.0","p2219","AK8ONB60Q4RJ5","3OWZNK3RYMVDNXPNEIRWZ8JM6MU2UY","3WQQ9FUS6C0C0XG0KAO3TTZQMC8B8B","model","mismatch","uniform","","","","","","","3032","404967","407999","[""stimuli/AF02_SC.jpg"",""stimuli/AF11_DO.jpg"",""stimuli/AM05_AO.jpg"",""stimuli/AM09_FO.jpg""]","stimuli/AF02_SC.jpg","stimuli/AF11_DO.jpg","stimuli/AM05_AO.jpg","stimuli/AM09_FO.jpg","pos4","stimuli/AM09_FO.jpg","FO","AM09","3","2.5","5","6","stimuli/stars_5.png","185.5","[""SC"",""DO"",""AO"",""FO""]","[""AF02"",""AF11"",""AM05"",""AM09""]","[0,8,2,5]","[2,8,4,6]","","",""
"show-reward","104","409682","0.0-104.0","p2219","AK8ONB60Q4RJ5","3OWZNK3RYMVDNXPNEIRWZ8JM6MU2UY","3WQQ9FUS6C0C0XG0KAO3TTZQMC8B8B","model","mismatch","uniform","","","","","","","","408500","410502","","","","","","","","","","","","5","","stimuli/stars_5.png","185.5","","","","","stimuli/AM09_FO.jpg","",""
"explore-choice","105","410841","0.0-105.0","p2219","AK8ONB60Q4RJ5","3OWZNK3RYMVDNXPNEIRWZ8JM6MU2UY","3WQQ9FUS6C0C0XG0KAO3TTZQMC8B8B","model","mismatch","uniform","","","","","","","657","410502","411159","[""stimuli/AM09_FO.jpg"",""stimuli/AM05_SC.jpg"",""stimuli/AF02_AO.jpg"",""stimuli/AF11_DO.jpg""]","stimuli/AM09_FO.jpg","stimuli/AM05_SC.jpg","stimuli/AF02_AO.jpg","stimuli/AF11_DO.jpg","pos3","stimuli/AF02_AO.jpg","AO","AF02","2","1.5","3","4","stimuli/stars_3.png","187","[""FO"",""SC"",""AO"",""DO""]","[""AM09"",""AM05"",""AF02"",""AF11""]","[5,0,3,10]","[6,2,4,8]","","",""
"show-reward","106","412842","0.0-106.0","p2219","AK8ONB60Q4RJ5","3OWZNK3RYMVDNXPNEIRWZ8JM6MU2UY","3WQQ9FUS6C0C0XG0KAO3TTZQMC8B8B","model","mismatch","uniform","","","","","","","","411660","413661","","","","","","","","","","","","3","","stimuli/stars_3.png","187","","","","","stimuli/AF02_AO.jpg","",""
"explore-choice","107","414312","0.0-107.0","p2219","AK8ONB60Q4RJ5","3OWZNK3RYMVDNXPNEIRWZ8JM6MU2UY","3WQQ9FUS6C0C0XG0KAO3TTZQMC8B8B","model","mismatch","uniform","","","","","","","970","413661","414631","[""stimuli/AF02_FO.jpg"",""stimuli/AF11_AO.jpg"",""stimuli/AM05_SC.jpg"",""stimuli/AM09_DO.jpg""]","stimuli/AF02_FO.jpg","stimuli/AF11_AO.jpg","stimuli/AM05_SC.jpg","stimuli/AM09_DO.jpg","pos1","stimuli/AF02_FO.jpg","FO","AF02","0","3.5","7","6","stimuli/stars_7.png","190.5","[""FO"",""AO"",""SC"",""DO""]","[""AF02"",""AF11"",""AM05"",""AM09""]","[7,4,0,10]","[6,4,2,8]","","",""
"show-reward","108","416313","0.0-108.0","p2219","AK8ONB60Q4RJ5","3OWZNK3RYMVDNXPNEIRWZ8JM6MU2UY","3WQQ9FUS6C0C0XG0KAO3TTZQMC8B8B","model","mismatch","uniform","","","","","","","","415131","417133","","","","","","","","","","","","7","","stimuli/stars_7.png","190.5","","","","","stimuli/AF02_FO.jpg","",""
"explore-choice","109","417664","0.0-109.0","p2219","AK8ONB60Q4RJ5","3OWZNK3RYMVDNXPNEIRWZ8JM6MU2UY","3WQQ9FUS6C0C0XG0KAO3TTZQMC8B8B","model","mismatch","uniform","","","","","","","850","417133","417983","[""stimuli/AF02_SC.jpg"",""stimuli/AM09_AO.jpg"",""stimuli/AM05_DO.jpg"",""stimuli/AF11_FO.jpg""]","stimuli/AF02_SC.jpg","stimuli/AM09_AO.jpg","stimuli/AM05_DO.jpg","stimuli/AF11_FO.jpg","pos1","stimuli/AF02_SC.jpg","SC","AF02","0","2","4","2","stimuli/stars_4.png","192.5","[""SC"",""AO"",""DO"",""FO""]","[""AF02"",""AM09"",""AM05"",""AF11""]","[4,3,8,6]","[2,4,8,6]","","",""
"show-reward","110","419666","0.0-110.0","p2219","AK8ONB60Q4RJ5","3OWZNK3RYMVDNXPNEIRWZ8JM6MU2UY","3WQQ9FUS6C0C0XG0KAO3TTZQMC8B8B","model","mismatch","uniform","","","","","","","","418484","420485","","","","","","","","","","","","4","","stimuli/stars_4.png","192.5","","","","","stimuli/AF02_SC.jpg","",""
"explore-choice","111","421992","0.0-111.0","p2219","AK8ONB60Q4RJ5","3OWZNK3RYMVDNXPNEIRWZ8JM6MU2UY","3WQQ9FUS6C0C0XG0KAO3TTZQMC8B8B","model","mismatch","uniform","","","","","","","1824","420486","422310","[""stimuli/AF02_DO.jpg"",""stimuli/AM05_SC.jpg"",""stimuli/AF11_AO.jpg"",""stimuli/AM09_FO.jpg""]","stimuli/AF02_DO.jpg","stimuli/AM05_SC.jpg","stimuli/AF11_AO.jpg","stimuli/AM09_FO.jpg","pos1","stimuli/AF02_DO.jpg","DO","AF02","0","4.5","9","8","stimuli/stars_9.png","197","[""DO"",""SC"",""AO"",""FO""]","[""AF02"",""AM05"",""AF11"",""AM09""]","[9,4,3,8]","[8,2,4,6]","","",""
"show-reward","112","423993","0.0-112.0","p2219","AK8ONB60Q4RJ5","3OWZNK3RYMVDNXPNEIRWZ8JM6MU2UY","3WQQ9FUS6C0C0XG0KAO3TTZQMC8B8B","model","mismatch","uniform","","","","","","","","422811","424812","","","","","","","","","","","","9","","stimuli/stars_9.png","197","","","","","stimuli/AF02_DO.jpg","",""
"explore-choice","113","427911","0.0-113.0","p2219","AK8ONB60Q4RJ5","3OWZNK3RYMVDNXPNEIRWZ8JM6MU2UY","3WQQ9FUS6C0C0XG0KAO3TTZQMC8B8B","model","mismatch","uniform","","","","","","","3417","424813","428230","[""stimuli/AM05_FO.jpg"",""stimuli/AM09_AO.jpg"",""stimuli/AF02_SC.jpg"",""stimuli/AF11_DO.jpg""]","stimuli/AM05_FO.jpg","stimuli/AM09_AO.jpg","stimuli/AF02_SC.jpg","stimuli/AF11_DO.jpg","pos3","stimuli/AF02_SC.jpg","SC","AF02","2","0","0","2","stimuli/stars_0.png","197","[""FO"",""AO"",""SC"",""DO""]","[""AM05"",""AM09"",""AF02"",""AF11""]","[6,3,0,6]","[6,4,2,8]","","",""
"show-reward","114","429912","0.0-114.0","p2219","AK8ONB60Q4RJ5","3OWZNK3RYMVDNXPNEIRWZ8JM6MU2UY","3WQQ9FUS6C0C0XG0KAO3TTZQMC8B8B","model","mismatch","uniform","","","","","","","","428731","430732","","","","","","","","","","","","0","","stimuli/stars_0.png","197","","","","","stimuli/AF02_SC.jpg","",""
"explore-choice","115","431727","0.0-115.0","p2219","AK8ONB60Q4RJ5","3OWZNK3RYMVDNXPNEIRWZ8JM6MU2UY","3WQQ9FUS6C0C0XG0KAO3TTZQMC8B8B","model","mismatch","uniform","","","","","","","1313","430733","432046","[""stimuli/AM05_AO.jpg"",""stimuli/AF11_FO.jpg"",""stimuli/AF02_SC.jpg"",""stimuli/AM09_DO.jpg""]","stimuli/AM05_AO.jpg","stimuli/AF11_FO.jpg","stimuli/AF02_SC.jpg","stimuli/AM09_DO.jpg","pos3","stimuli/AF02_SC.jpg","SC","AF02","2","2","4","2","stimuli/stars_4.png","199","[""AO"",""FO"",""SC"",""DO""]","[""AM05"",""AF11"",""AF02"",""AM09""]","[2,8,4,8]","[4,6,2,8]","","",""
"show-reward","116","433728","0.0-116.0","p2219","AK8ONB60Q4RJ5","3OWZNK3RYMVDNXPNEIRWZ8JM6MU2UY","3WQQ9FUS6C0C0XG0KAO3TTZQMC8B8B","model","mismatch","uniform","","","","","","","","432547","434548","","","","","","","","","","","","4","","stimuli/stars_4.png","199","","","","","stimuli/AF02_SC.jpg","",""
"explore-choice","117","436078","0.0-117.0","p2219","AK8ONB60Q4RJ5","3OWZNK3RYMVDNXPNEIRWZ8JM6MU2UY","3WQQ9FUS6C0C0XG0KAO3TTZQMC8B8B","model","mismatch","uniform","","","","","","","1849","434548","436397","[""stimuli/AF02_AO.jpg"",""stimuli/AM09_SC.jpg"",""stimuli/AM05_DO.jpg"",""stimuli/AF11_FO.jpg""]","stimuli/AF02_AO.jpg","stimuli/AM09_SC.jpg","stimuli/AM05_DO.jpg","stimuli/AF11_FO.jpg","pos3","stimuli/AM05_DO.jpg","DO","AM05","2","3.5","7","8","stimuli/stars_7.png","202.5","[""AO"",""SC"",""DO"",""FO""]","[""AF02"",""AM09"",""AM05"",""AF11""]","[5,0,7,6]","[4,2,8,6]","","",""
"show-reward","118","438080","0.0-118.0","p2219","AK8ONB60Q4RJ5","3OWZNK3RYMVDNXPNEIRWZ8JM6MU2UY","3WQQ9FUS6C0C0XG0KAO3TTZQMC8B8B","model","mismatch","uniform","","","","","","","","436898","438899","","","","","","","","","","","","7","","stimuli/stars_7.png","202.5","","","","","stimuli/AM05_DO.jpg","",""
"explore-choice","119","439405","0.0-119.0","p2219","AK8ONB60Q4RJ5","3OWZNK3RYMVDNXPNEIRWZ8JM6MU2UY","3WQQ9FUS6C0C0XG0KAO3TTZQMC8B8B","model","mismatch","uniform","","","","","","","825","438900","439725","[""stimuli/AM09_SC.jpg"",""stimuli/AF02_FO.jpg"",""stimuli/AF11_AO.jpg"",""stimuli/AM05_DO.jpg""]","stimuli/AM09_SC.jpg","stimuli/AF02_FO.jpg","stimuli/AF11_AO.jpg","stimuli/AM05_DO.jpg","pos4","stimuli/AM05_DO.jpg","DO","AM05","3","4.5","9","8","stimuli/stars_9.png","207","[""SC"",""FO"",""AO"",""DO""]","[""AM09"",""AF02"",""AF11"",""AM05""]","[0,4,4,9]","[2,6,4,8]","","",""
"show-reward","120","441407","0.0-120.0","p2219","AK8ONB60Q4RJ5","3OWZNK3RYMVDNXPNEIRWZ8JM6MU2UY","3WQQ9FUS6C0C0XG0KAO3TTZQMC8B8B","model","mismatch","uniform","","","","","","","","440225","442226","","","","","","","","","","","","9","","stimuli/stars_9.png","207","","","","","stimuli/AM05_DO.jpg","",""
"explore-choice","121","443707","0.0-121.0","p2219","AK8ONB60Q4RJ5","3OWZNK3RYMVDNXPNEIRWZ8JM6MU2UY","3WQQ9FUS6C0C0XG0KAO3TTZQMC8B8B","model","mismatch","uniform","","","","","","","1799","442227","444026","[""stimuli/AF02_FO.jpg"",""stimuli/AM05_SC.jpg"",""stimuli/AM09_AO.jpg"",""stimuli/AF11_DO.jpg""]","stimuli/AF02_FO.jpg","stimuli/AM05_SC.jpg","stimuli/AM09_AO.jpg","stimuli/AF11_DO.jpg","pos2","stimuli/AM05_SC.jpg","SC","AM05","1","0.5","1","2","stimuli/stars_1.png","207.5","[""FO"",""SC"",""AO"",""DO""]","[""AF02"",""AM05"",""AM09"",""AF11""]","[6,1,2,9]","[6,2,4,8]","","",""
"show-reward","122","445708","0.0-122.0","p2219","AK8ONB60Q4RJ5","3OWZNK3RYMVDNXPNEIRWZ8JM6MU2UY","3WQQ9FUS6C0C0XG0KAO3TTZQMC8B8B","model","mismatch","uniform","","","","","","","","444527","446529","","","","","","","","","","","","1","","stimuli/stars_1.png","207.5","","","","","stimuli/AM05_SC.jpg","",""
"explore-choice","123","464860","0.0-123.0","p2219","AK8ONB60Q4RJ5","3OWZNK3RYMVDNXPNEIRWZ8JM6MU2UY","3WQQ9FUS6C0C0XG0KAO3TTZQMC8B8B","model","mismatch","uniform","","","","","","","18650","446529","465179","[""stimuli/AM05_DO.jpg"",""stimuli/AM09_AO.jpg"",""stimuli/AF11_SC.jpg"",""stimuli/AF02_FO.jpg""]","stimuli/AM05_DO.jpg","stimuli/AM09_AO.jpg","stimuli/AF11_SC.jpg","stimuli/AF02_FO.jpg","pos1","stimuli/AM05_DO.jpg","DO","AM05","0","3","6","8","stimuli/stars_6.png","210.5","[""DO"",""AO"",""SC"",""FO""]","[""AM05"",""AM09"",""AF11"",""AF02""]","[6,4,4,7]","[8,4,2,6]","","",""
"show-reward","124","466862","0.0-124.0","p2219","AK8ONB60Q4RJ5","3OWZNK3RYMVDNXPNEIRWZ8JM6MU2UY","3WQQ9FUS6C0C0XG0KAO3TTZQMC8B8B","model","mismatch","uniform","","","","","","","","465681","467682","","","","","","","","","","","","6","","stimuli/stars_6.png","210.5","","","","","stimuli/AM05_DO.jpg","",""
"explore-choice","125","484627","0.0-125.0","p2219","AK8ONB60Q4RJ5","3OWZNK3RYMVDNXPNEIRWZ8JM6MU2UY","3WQQ9FUS6C0C0XG0KAO3TTZQMC8B8B","model","mismatch","uniform","","","","","","","17265","467682","484947","[""stimuli/AM05_AO.jpg"",""stimuli/AM09_SC.jpg"",""stimuli/AF02_DO.jpg"",""stimuli/AF11_FO.jpg""]","stimuli/AM05_AO.jpg","stimuli/AM09_SC.jpg","stimuli/AF02_DO.jpg","stimuli/AF11_FO.jpg","pos1","stimuli/AM05_AO.jpg","AO","AM05","0","3","6","4","stimuli/stars_6.png","213.5","[""AO"",""SC"",""DO"",""FO""]","[""AM05"",""AM09"",""AF02"",""AF11""]","[6,4,6,8]","[4,2,8,6]","","",""
"show-reward","126","486629","0.0-126.0","p2219","AK8ONB60Q4RJ5","3OWZNK3RYMVDNXPNEIRWZ8JM6MU2UY","3WQQ9FUS6C0C0XG0KAO3TTZQMC8B8B","model","mismatch","uniform","","","","","","","","485447","487448","","","","","","","","","","","","6","","stimuli/stars_6.png","213.5","","","","","stimuli/AM05_AO.jpg","",""
"explore-choice","127","488129","0.0-127.0","p2219","AK8ONB60Q4RJ5","3OWZNK3RYMVDNXPNEIRWZ8JM6MU2UY","3WQQ9FUS6C0C0XG0KAO3TTZQMC8B8B","model","mismatch","uniform","","","","","","","999","487449","488448","[""stimuli/AF11_AO.jpg"",""stimuli/AM05_DO.jpg"",""stimuli/AF02_SC.jpg"",""stimuli/AM09_FO.jpg""]","stimuli/AF11_AO.jpg","stimuli/AM05_DO.jpg","stimuli/AF02_SC.jpg","stimuli/AM09_FO.jpg","pos2","stimuli/AM05_DO.jpg","DO","AM05","1","4.5","9","8","stimuli/stars_9.png","218","[""AO"",""DO"",""SC"",""FO""]","[""AF11"",""AM05"",""AF02"",""AM09""]","[5,9,4,7]","[4,8,2,6]","","",""
"show-reward","128","490130","0.0-128.0","p2219","AK8ONB60Q4RJ5","3OWZNK3RYMVDNXPNEIRWZ8JM6MU2UY","3WQQ9FUS6C0C0XG0KAO3TTZQMC8B8B","model","mismatch","uniform","","","","","","","","488948","490950","","","","","","","","","","","","9","","stimuli/stars_9.png","218","","","","","stimuli/AM05_DO.jpg","",""
"explore-choice","129","491833","0.0-129.0","p2219","AK8ONB60Q4RJ5","3OWZNK3RYMVDNXPNEIRWZ8JM6MU2UY","3WQQ9FUS6C0C0XG0KAO3TTZQMC8B8B","model","mismatch","uniform","","","","","","","1202","490950","492152","[""stimuli/AM09_DO.jpg"",""stimuli/AF11_SC.jpg"",""stimuli/AF02_FO.jpg"",""stimuli/AM05_AO.jpg""]","stimuli/AM09_DO.jpg","stimuli/AF11_SC.jpg","stimuli/AF02_FO.jpg","stimuli/AM05_AO.jpg","pos4","stimuli/AM05_AO.jpg","AO","AM05","3","1","2","4","stimuli/stars_2.png","219","[""DO"",""SC"",""FO"",""AO""]","[""AM09"",""AF11"",""AF02"",""AM05""]","[10,0,4,2]","[8,2,6,4]","","",""
"show-reward","130","493834","0.0-130.0","p2219","AK8ONB60Q4RJ5","3OWZNK3RYMVDNXPNEIRWZ8JM6MU2UY","3WQQ9FUS6C0C0XG0KAO3TTZQMC8B8B","model","mismatch","uniform","","","","","","","","492652","494654","","","","","","","","","","","","2","","stimuli/stars_2.png","219","","","","","stimuli/AM05_AO.jpg","",""
"explore-choice","131","495279","0.0-131.0","p2219","AK8ONB60Q4RJ5","3OWZNK3RYMVDNXPNEIRWZ8JM6MU2UY","3WQQ9FUS6C0C0XG0KAO3TTZQMC8B8B","model","mismatch","uniform","","","","","","","944","494655","495599","[""stimuli/AF02_DO.jpg"",""stimuli/AM05_FO.jpg"",""stimuli/AF11_SC.jpg"",""stimuli/AM09_AO.jpg""]","stimuli/AF02_DO.jpg","stimuli/AM05_FO.jpg","stimuli/AF11_SC.jpg","stimuli/AM09_AO.jpg","pos2","stimuli/AM05_FO.jpg","FO","AM05","1","2","4","6","stimuli/stars_4.png","221","[""DO"",""FO"",""SC"",""AO""]","[""AF02"",""AM05"",""AF11"",""AM09""]","[9,4,1,2]","[8,6,2,4]","","",""
"show-reward","132","497282","0.0-132.0","p2219","AK8ONB60Q4RJ5","3OWZNK3RYMVDNXPNEIRWZ8JM6MU2UY","3WQQ9FUS6C0C0XG0KAO3TTZQMC8B8B","model","mismatch","uniform","","","","","","","","496100","498101","","","","","","","","","","","","4","","stimuli/stars_4.png","221","","","","","stimuli/AM05_FO.jpg","",""
"explore-choice","133","498990","0.0-133.0","p2219","AK8ONB60Q4RJ5","3OWZNK3RYMVDNXPNEIRWZ8JM6MU2UY","3WQQ9FUS6C0C0XG0KAO3TTZQMC8B8B","model","mismatch","uniform","","","","","","","1208","498101","499309","[""stimuli/AF11_DO.jpg"",""stimuli/AF02_AO.jpg"",""stimuli/AM05_FO.jpg"",""stimuli/AM09_SC.jpg""]","stimuli/AF11_DO.jpg","stimuli/AF02_AO.jpg","stimuli/AM05_FO.jpg","stimuli/AM09_SC.jpg","pos3","stimuli/AM05_FO.jpg","FO","AM05","2","3","6","6","stimuli/stars_6.png","224","[""DO"",""AO"",""FO"",""SC""]","[""AF11"",""AF02"",""AM05"",""AM09""]","[9,2,6,1]","[8,4,6,2]","","",""
"show-reward","134","500992","0.0-134.0","p2219","AK8ONB60Q4RJ5","3OWZNK3RYMVDNXPNEIRWZ8JM6MU2UY","3WQQ9FUS6C0C0XG0KAO3TTZQMC8B8B","model","mismatch","uniform","","","","","","","","499810","501812","","","","","","","","","","","","6","","stimuli/stars_6.png","224","","","","","stimuli/AM05_FO.jpg","",""
"explore-choice","135","502487","0.0-135.0","p2219","AK8ONB60Q4RJ5","3OWZNK3RYMVDNXPNEIRWZ8JM6MU2UY","3WQQ9FUS6C0C0XG0KAO3TTZQMC8B8B","model","mismatch","uniform","","","","","","","994","501812","502806","[""stimuli/AM05_AO.jpg"",""stimuli/AF11_DO.jpg"",""stimuli/AM09_SC.jpg"",""stimuli/AF02_FO.jpg""]","stimuli/AM05_AO.jpg","stimuli/AF11_DO.jpg","stimuli/AM09_SC.jpg","stimuli/AF02_FO.jpg","pos1","stimuli/AM05_AO.jpg","AO","AM05","0","1.5","3","4","stimuli/stars_3.png","225.5","[""AO"",""DO"",""SC"",""FO""]","[""AM05"",""AF11"",""AM09"",""AF02""]","[3,8,0,4]","[4,8,2,6]","","",""
"show-reward","136","504489","0.0-136.0","p2219","AK8ONB60Q4RJ5","3OWZNK3RYMVDNXPNEIRWZ8JM6MU2UY","3WQQ9FUS6C0C0XG0KAO3TTZQMC8B8B","model","mismatch","uniform","","","","","","","","503307","505308","","","","","","","","","","","","3","","stimuli/stars_3.png","225.5","","","","","stimuli/AM05_AO.jpg","",""
"explore-choice","137","506438","0.0-137.0","p2219","AK8ONB60Q4RJ5","3OWZNK3RYMVDNXPNEIRWZ8JM6MU2UY","3WQQ9FUS6C0C0XG0KAO3TTZQMC8B8B","model","mismatch","uniform","","","","","","","1449","505308","506757","[""stimuli/AF02_SC.jpg"",""stimuli/AM09_DO.jpg"",""stimuli/AF11_AO.jpg"",""stimuli/AM05_FO.jpg""]","stimuli/AF02_SC.jpg","stimuli/AM09_DO.jpg","stimuli/AF11_AO.jpg","stimuli/AM05_FO.jpg","pos1","stimuli/AF02_SC.jpg","SC","AF02","0","0.5","1","2","stimuli/stars_1.png","226","[""SC"",""DO"",""AO"",""FO""]","[""AF02"",""AM09"",""AF11"",""AM05""]","[1,9,4,7]","[2,8,4,6]","","",""
"show-reward","138","508440","0.0-138.0","p2219","AK8ONB60Q4RJ5","3OWZNK3RYMVDNXPNEIRWZ8JM6MU2UY","3WQQ9FUS6C0C0XG0KAO3TTZQMC8B8B","model","mismatch","uniform","","","","","","","","507259","509259","","","","","","","","","","","","1","","stimuli/stars_1.png","226","","","","","stimuli/AF02_SC.jpg","",""
"explore-choice","139","509981","0.0-139.0","p2219","AK8ONB60Q4RJ5","3OWZNK3RYMVDNXPNEIRWZ8JM6MU2UY","3WQQ9FUS6C0C0XG0KAO3TTZQMC8B8B","model","mismatch","uniform","","","","","","","1040","509260","510300","[""stimuli/AF02_AO.jpg"",""stimuli/AF11_SC.jpg"",""stimuli/AM05_DO.jpg"",""stimuli/AM09_FO.jpg""]","stimuli/AF02_AO.jpg","stimuli/AF11_SC.jpg","stimuli/AM05_DO.jpg","stimuli/AM09_FO.jpg","pos3","stimuli/AM05_DO.jpg","DO","AM05","2","3","6","8","stimuli/stars_6.png","229","[""AO"",""SC"",""DO"",""FO""]","[""AF02"",""AF11"",""AM05"",""AM09""]","[2,3,6,7]","[4,2,8,6]","","",""
"show-reward","140","511982","0.0-140.0","p2219","AK8ONB60Q4RJ5","3OWZNK3RYMVDNXPNEIRWZ8JM6MU2UY","3WQQ9FUS6C0C0XG0KAO3TTZQMC8B8B","model","mismatch","uniform","","","","","","","","510801","512802","","","","","","","","","","","","6","","stimuli/stars_6.png","229","","","","","stimuli/AM05_DO.jpg","",""
"explore-choice","141","513627","0.0-141.0","p2219","AK8ONB60Q4RJ5","3OWZNK3RYMVDNXPNEIRWZ8JM6MU2UY","3WQQ9FUS6C0C0XG0KAO3TTZQMC8B8B","model","mismatch","uniform","","","","","","","1144","512802","513946","[""stimuli/AM09_DO.jpg"",""stimuli/AM05_FO.jpg"",""stimuli/AF11_SC.jpg"",""stimuli/AF02_AO.jpg""]","stimuli/AM09_DO.jpg","stimuli/AM05_FO.jpg","stimuli/AF11_SC.jpg","stimuli/AF02_AO.jpg","pos2","stimuli/AM05_FO.jpg","FO","AM05","1","3.5","7","6","stimuli/stars_7.png","232.5","[""DO"",""FO"",""SC"",""AO""]","[""AM09"",""AM05"",""AF11"",""AF02""]","[7,7,4,2]","[8,6,2,4]","","",""
"show-reward","142","515629","0.0-142.0","p2219","AK8ONB60Q4RJ5","3OWZNK3RYMVDNXPNEIRWZ8JM6MU2UY","3WQQ9FUS6C0C0XG0KAO3TTZQMC8B8B","model","mismatch","uniform","","","","","","","","514447","516449","","","","","","","","","","","","7","","stimuli/stars_7.png","232.5","","","","","stimuli/AM05_FO.jpg","",""
"explore-choice","143","517138","0.0-143.0","p2219","AK8ONB60Q4RJ5","3OWZNK3RYMVDNXPNEIRWZ8JM6MU2UY","3WQQ9FUS6C0C0XG0KAO3TTZQMC8B8B","model","mismatch","uniform","","","","","","","1009","516449","517458","[""stimuli/AM09_SC.jpg"",""stimuli/AM05_FO.jpg"",""stimuli/AF02_DO.jpg"",""stimuli/AF11_AO.jpg""]","stimuli/AM09_SC.jpg","stimuli/AM05_FO.jpg","stimuli/AF02_DO.jpg","stimuli/AF11_AO.jpg","pos2","stimuli/AM05_FO.jpg","FO","AM05","1","2.5","5","6","stimuli/stars_5.png","235","[""SC"",""FO"",""DO"",""AO""]","[""AM09"",""AM05"",""AF02"",""AF11""]","[4,5,8,6]","[2,6,8,4]","","",""
"show-reward","144","519140","0.0-144.0","p2219","AK8ONB60Q4RJ5","3OWZNK3RYMVDNXPNEIRWZ8JM6MU2UY","3WQQ9FUS6C0C0XG0KAO3TTZQMC8B8B","model","mismatch","uniform","","","","","","","","517958","519959","","","","","","","","","","","","5","","stimuli/stars_5.png","235","","","","","stimuli/AM05_FO.jpg","",""
"explore-choice","145","521512","0.0-145.0","p2219","AK8ONB60Q4RJ5","3OWZNK3RYMVDNXPNEIRWZ8JM6MU2UY","3WQQ9FUS6C0C0XG0KAO3TTZQMC8B8B","model","mismatch","uniform","","","","","","","1872","519959","521831","[""stimuli/AM09_DO.jpg"",""stimuli/AM05_SC.jpg"",""stimuli/AF11_FO.jpg"",""stimuli/AF02_AO.jpg""]","stimuli/AM09_DO.jpg","stimuli/AM05_SC.jpg","stimuli/AF11_FO.jpg","stimuli/AF02_AO.jpg","pos2","stimuli/AM05_SC.jpg","SC","AM05","1","0","0","2","stimuli/stars_0.png","235","[""DO"",""SC"",""FO"",""AO""]","[""AM09"",""AM05"",""AF11"",""AF02""]","[10,0,6,5]","[8,2,6,4]","","",""
"show-reward","146","523515","0.0-146.0","p2219","AK8ONB60Q4RJ5","3OWZNK3RYMVDNXPNEIRWZ8JM6MU2UY","3WQQ9FUS6C0C0XG0KAO3TTZQMC8B8B","model","mismatch","uniform","","","","","","","","522332","524334","","","","","","","","","","","","0","","stimuli/stars_0.png","235","","","","","stimuli/AM05_SC.jpg","",""
"explore-choice","147","525206","0.0-147.0","p2219","AK8ONB60Q4RJ5","3OWZNK3RYMVDNXPNEIRWZ8JM6MU2UY","3WQQ9FUS6C0C0XG0KAO3TTZQMC8B8B","model","mismatch","uniform","","","","","","","1191","524335","525526","[""stimuli/AM05_SC.jpg"",""stimuli/AF02_DO.jpg"",""stimuli/AM09_AO.jpg"",""stimuli/AF11_FO.jpg""]","stimuli/AM05_SC.jpg","stimuli/AF02_DO.jpg","stimuli/AM09_AO.jpg","stimuli/AF11_FO.jpg","pos1","stimuli/AM05_SC.jpg","SC","AM05","0","2","4","2","stimuli/stars_4.png","237","[""SC"",""DO"",""AO"",""FO""]","[""AM05"",""AF02"",""AM09"",""AF11""]","[4,6,6,7]","[2,8,4,6]","","",""
"show-reward","148","527208","0.0-148.0","p2219","AK8ONB60Q4RJ5","3OWZNK3RYMVDNXPNEIRWZ8JM6MU2UY","3WQQ9FUS6C0C0XG0KAO3TTZQMC8B8B","model","mismatch","uniform","","","","","","","","526027","528028","","","","","","","","","","","","4","","stimuli/stars_4.png","237","","","","","stimuli/AM05_SC.jpg","",""
"explore-choice","149","528525","0.0-149.0","p2219","AK8ONB60Q4RJ5","3OWZNK3RYMVDNXPNEIRWZ8JM6MU2UY","3WQQ9FUS6C0C0XG0KAO3TTZQMC8B8B","model","mismatch","uniform","","","","","","","817","528028","528845","[""stimuli/AM09_FO.jpg"",""stimuli/AM05_AO.jpg"",""stimuli/AF02_DO.jpg"",""stimuli/AF11_SC.jpg""]","stimuli/AM09_FO.jpg","stimuli/AM05_AO.jpg","stimuli/AF02_DO.jpg","stimuli/AF11_SC.jpg","pos2","stimuli/AM05_AO.jpg","AO","AM05","1","1","2","4","stimuli/stars_2.png","238","[""FO"",""AO"",""DO"",""SC""]","[""AM09"",""AM05"",""AF02"",""AF11""]","[7,2,10,1]","[6,4,8,2]","","",""
"show-reward","150","530527","0.0-150.0","p2219","AK8ONB60Q4RJ5","3OWZNK3RYMVDNXPNEIRWZ8JM6MU2UY","3WQQ9FUS6C0C0XG0KAO3TTZQMC8B8B","model","mismatch","uniform","","","","","","","","529346","531347","","","","","","","","","","","","2","","stimuli/stars_2.png","238","","","","","stimuli/AM05_AO.jpg","",""
"explore-choice","151","532653","0.0-151.0","p2219","AK8ONB60Q4RJ5","3OWZNK3RYMVDNXPNEIRWZ8JM6MU2UY","3WQQ9FUS6C0C0XG0KAO3TTZQMC8B8B","model","mismatch","uniform","","","","","","","1625","531347","532972","[""stimuli/AF11_FO.jpg"",""stimuli/AM05_SC.jpg"",""stimuli/AF02_AO.jpg"",""stimuli/AM09_DO.jpg""]","stimuli/AF11_FO.jpg","stimuli/AM05_SC.jpg","stimuli/AF02_AO.jpg","stimuli/AM09_DO.jpg","pos1","stimuli/AF11_FO.jpg","FO","AF11","0","3","6","6","stimuli/stars_6.png","241","[""FO"",""SC"",""AO"",""DO""]","[""AF11"",""AM05"",""AF02"",""AM09""]","[6,0,5,10]","[6,2,4,8]","","",""
"show-reward","152","534655","0.0-152.0","p2219","AK8ONB60Q4RJ5","3OWZNK3RYMVDNXPNEIRWZ8JM6MU2UY","3WQQ9FUS6C0C0XG0KAO3TTZQMC8B8B","model","mismatch","uniform","","","","","","","","533473","535474","","","","","","","","","","","","6","","stimuli/stars_6.png","241","","","","","stimuli/AF11_FO.jpg","",""
"explore-choice","153","536627","0.0-153.0","p2219","AK8ONB60Q4RJ5","3OWZNK3RYMVDNXPNEIRWZ8JM6MU2UY","3WQQ9FUS6C0C0XG0KAO3TTZQMC8B8B","model","mismatch","uniform","","","","","","","1472","535475","536947","[""stimuli/AM09_FO.jpg"",""stimuli/AM05_AO.jpg"",""stimuli/AF02_SC.jpg"",""stimuli/AF11_DO.jpg""]","stimuli/AM09_FO.jpg","stimuli/AM05_AO.jpg","stimuli/AF02_SC.jpg","stimuli/AF11_DO.jpg","pos4","stimuli/AF11_DO.jpg","DO","AF11","3","4","8","8","stimuli/stars_8.png","245","[""FO"",""AO"",""SC"",""DO""]","[""AM09"",""AM05"",""AF02"",""AF11""]","[5,2,0,8]","[6,4,2,8]","","",""
"show-reward","154","538629","0.0-154.0","p2219","AK8ONB60Q4RJ5","3OWZNK3RYMVDNXPNEIRWZ8JM6MU2UY","3WQQ9FUS6C0C0XG0KAO3TTZQMC8B8B","model","mismatch","uniform","","","","","","","","537448","539448","","","","","","","","","","","","8","","stimuli/stars_8.png","245","","","","","stimuli/AF11_DO.jpg","",""
"explore-choice","155","540963","0.0-155.0","p2219","AK8ONB60Q4RJ5","3OWZNK3RYMVDNXPNEIRWZ8JM6MU2UY","3WQQ9FUS6C0C0XG0KAO3TTZQMC8B8B","model","mismatch","uniform","","","","","","","1834","539449","541283","[""stimuli/AF02_SC.jpg"",""stimuli/AF11_FO.jpg"",""stimuli/AM05_AO.jpg"",""stimuli/AM09_DO.jpg""]","stimuli/AF02_SC.jpg","stimuli/AF11_FO.jpg","stimuli/AM05_AO.jpg","stimuli/AM09_DO.jpg","pos2","stimuli/AF11_FO.jpg","FO","AF11","1","4","8","6","stimuli/stars_8.png","249","[""SC"",""FO"",""AO"",""DO""]","[""AF02"",""AF11"",""AM05"",""AM09""]","[4,8,2,8]","[2,6,4,8]","","",""
"show-reward","156","542966","0.0-156.0","p2219","AK8ONB60Q4RJ5","3OWZNK3RYMVDNXPNEIRWZ8JM6MU2UY","3WQQ9FUS6C0C0XG0KAO3TTZQMC8B8B","model","mismatch","uniform","","","","","","","","541784","543785","","","","","","","","","","","","8","","stimuli/stars_8.png","249","","","","","stimuli/AF11_FO.jpg","",""
"explore-choice","157","561298","0.0-157.0","p2219","AK8ONB60Q4RJ5","3OWZNK3RYMVDNXPNEIRWZ8JM6MU2UY","3WQQ9FUS6C0C0XG0KAO3TTZQMC8B8B","model","mismatch","uniform","","","","","","","17831","543786","561617","[""stimuli/AM05_DO.jpg"",""stimuli/AF02_AO.jpg"",""stimuli/AM09_FO.jpg"",""stimuli/AF11_SC.jpg""]","stimuli/AM05_DO.jpg","stimuli/AF02_AO.jpg","stimuli/AM09_FO.jpg","stimuli/AF11_SC.jpg","pos4","stimuli/AF11_SC.jpg","SC","AF11","3","1.5","3","2","stimuli/stars_3.png","250.5","[""DO"",""AO"",""FO"",""SC""]","[""AM05"",""AF02"",""AM09"",""AF11""]","[6,2,7,3]","[8,4,6,2]","","",""
"show-reward","158","563300","0.0-158.0","p2219","AK8ONB60Q4RJ5","3OWZNK3RYMVDNXPNEIRWZ8JM6MU2UY","3WQQ9FUS6C0C0XG0KAO3TTZQMC8B8B","model","mismatch","uniform","","","","","","","","562119","564119","","","","","","","","","","","","3","","stimuli/stars_3.png","250.5","","","","","stimuli/AF11_SC.jpg","",""
"explore-choice","159","564624","0.0-159.0","p2219","AK8ONB60Q4RJ5","3OWZNK3RYMVDNXPNEIRWZ8JM6MU2UY","3WQQ9FUS6C0C0XG0KAO3TTZQMC8B8B","model","mismatch","uniform","","","","","","","823","564120","564943","[""stimuli/AM05_DO.jpg"",""stimuli/AF02_FO.jpg"",""stimuli/AF11_SC.jpg"",""stimuli/AM09_AO.jpg""]","stimuli/AM05_DO.jpg","stimuli/AF02_FO.jpg","stimuli/AF11_SC.jpg","stimuli/AM09_AO.jpg","pos3","stimuli/AF11_SC.jpg","SC","AF11","2","2","4","2","stimuli/stars_4.png","252.5","[""DO"",""FO"",""SC"",""AO""]","[""AM05"",""AF02"",""AF11"",""AM09""]","[6,7,4,4]","[8,6,2,4]","","",""
"show-reward","160","566625","0.0-160.0","p2219","AK8ONB60Q4RJ5","3OWZNK3RYMVDNXPNEIRWZ8JM6MU2UY","3WQQ9FUS6C0C0XG0KAO3TTZQMC8B8B","model","mismatch","uniform","","","","","","","","565443","567445","","","","","","","","","","","","4","","stimuli/stars_4.png","252.5","","","","","stimuli/AF11_SC.jpg","",""
"explore-choice","161","572495","0.0-161.0","p2219","AK8ONB60Q4RJ5","3OWZNK3RYMVDNXPNEIRWZ8JM6MU2UY","3WQQ9FUS6C0C0XG0KAO3TTZQMC8B8B","model","mismatch","uniform","","","","","","","5369","567445","572814","[""stimuli/AF11_DO.jpg"",""stimuli/AF02_SC.jpg"",""stimuli/AM09_AO.jpg"",""stimuli/AM05_FO.jpg""]","stimuli/AF11_DO.jpg","stimuli/AF02_SC.jpg","stimuli/AM09_AO.jpg","stimuli/AM05_FO.jpg","pos1","stimuli/AF11_DO.jpg","DO","AF11","0","3","6","8","stimuli/stars_6.png","255.5","[""DO"",""SC"",""AO"",""FO""]","[""AF11"",""AF02"",""AM09"",""AM05""]","[6,0,3,6]","[8,2,4,6]","","",""
"show-reward","162","574497","0.0-162.0","p2219","AK8ONB60Q4RJ5","3OWZNK3RYMVDNXPNEIRWZ8JM6MU2UY","3WQQ9FUS6C0C0XG0KAO3TTZQMC8B8B","model","mismatch","uniform","","","","","","","","573314","575317","","","","","","","","","","","","6","","stimuli/stars_6.png","255.5","","","","","stimuli/AF11_DO.jpg","",""
"explore-choice","163","597669","0.0-163.0","p2219","AK8ONB60Q4RJ5","3OWZNK3RYMVDNXPNEIRWZ8JM6MU2UY","3WQQ9FUS6C0C0XG0KAO3TTZQMC8B8B","model","mismatch","uniform","","","","","","","22671","575317","597988","[""stimuli/AF11_FO.jpg"",""stimuli/AF02_SC.jpg"",""stimuli/AM09_AO.jpg"",""stimuli/AM05_DO.jpg""]","stimuli/AF11_FO.jpg","stimuli/AF02_SC.jpg","stimuli/AM09_AO.jpg","stimuli/AM05_DO.jpg","pos1","stimuli/AF11_FO.jpg","FO","AF11","0","3","6","6","stimuli/stars_6.png","258.5","[""FO"",""SC"",""AO"",""DO""]","[""AF11"",""AF02"",""AM09"",""AM05""]","[6,4,3,8]","[6,2,4,8]","","",""
"show-reward","164","599671","0.0-164.0","p2219","AK8ONB60Q4RJ5","3OWZNK3RYMVDNXPNEIRWZ8JM6MU2UY","3WQQ9FUS6C0C0XG0KAO3TTZQMC8B8B","model","mismatch","uniform","","","","","","","","598488","600491","","","","","","","","","","","","6","","stimuli/stars_6.png","258.5","","","","","stimuli/AF11_FO.jpg","",""
"explore-choice","165","601759","0.0-165.0","p2219","AK8ONB60Q4RJ5","3OWZNK3RYMVDNXPNEIRWZ8JM6MU2UY","3WQQ9FUS6C0C0XG0KAO3TTZQMC8B8B","model","mismatch","uniform","","","","","","","1587","600491","602078","[""stimuli/AM09_FO.jpg"",""stimuli/AF02_DO.jpg"",""stimuli/AF11_SC.jpg"",""stimuli/AM05_AO.jpg""]","stimuli/AM09_FO.jpg","stimuli/AF02_DO.jpg","stimuli/AF11_SC.jpg","stimuli/AM05_AO.jpg","pos3","stimuli/AF11_SC.jpg","SC","AF11","2","0.5","1","2","stimuli/stars_1.png","259","[""FO"",""DO"",""SC"",""AO""]","[""AM09"",""AF02"",""AF11"",""AM05""]","[7,10,1,2]","[6,8,2,4]","","",""
"show-reward","166","603761","0.0-166.0","p2219","AK8ONB60Q4RJ5","3OWZNK3RYMVDNXPNEIRWZ8JM6MU2UY","3WQQ9FUS6C0C0XG0KAO3TTZQMC8B8B","model","mismatch","uniform","","","","","","","","602579","604580","","","","","","","","","","","","1","","stimuli/stars_1.png","259","","","","","stimuli/AF11_SC.jpg","",""
"explore-choice","167","606853","0.0-167.0","p2219","AK8ONB60Q4RJ5","3OWZNK3RYMVDNXPNEIRWZ8JM6MU2UY","3WQQ9FUS6C0C0XG0KAO3TTZQMC8B8B","model","mismatch","uniform","","","","","","","2592","604581","607173","[""stimuli/AF02_DO.jpg"",""stimuli/AM05_FO.jpg"",""stimuli/AF11_SC.jpg"",""stimuli/AM09_AO.jpg""]","stimuli/AF02_DO.jpg","stimuli/AM05_FO.jpg","stimuli/AF11_SC.jpg","stimuli/AM09_AO.jpg","pos3","stimuli/AF11_SC.jpg","SC","AF11","2","0.5","1","2","stimuli/stars_1.png","259.5","[""DO"",""FO"",""SC"",""AO""]","[""AF02"",""AM05"",""AF11"",""AM09""]","[9,4,1,2]","[8,6,2,4]","","",""
"show-reward","168","608855","0.0-168.0","p2219","AK8ONB60Q4RJ5","3OWZNK3RYMVDNXPNEIRWZ8JM6MU2UY","3WQQ9FUS6C0C0XG0KAO3TTZQMC8B8B","model","mismatch","uniform","","","","","","","","607673","609675","","","","","","","","","","","","1","","stimuli/stars_1.png","259.5","","","","","stimuli/AF11_SC.jpg","",""
"explore-choice","169","610748","0.0-169.0","p2219","AK8ONB60Q4RJ5","3OWZNK3RYMVDNXPNEIRWZ8JM6MU2UY","3WQQ9FUS6C0C0XG0KAO3TTZQMC8B8B","model","mismatch","uniform","","","","","","","1393","609675","611068","[""stimuli/AM05_SC.jpg"",""stimuli/AM09_AO.jpg"",""stimuli/AF02_DO.jpg"",""stimuli/AF11_FO.jpg""]","stimuli/AM05_SC.jpg","stimuli/AM09_AO.jpg","stimuli/AF02_DO.jpg","stimuli/AF11_FO.jpg","pos4","stimuli/AF11_FO.jpg","FO","AF11","3","3.5","7","6","stimuli/stars_7.png","263","[""SC"",""AO"",""DO"",""FO""]","[""AM05"",""AM09"",""AF02"",""AF11""]","[4,6,6,7]","[2,4,8,6]","","",""
"show-reward","170","612750","0.0-170.0","p2219","AK8ONB60Q4RJ5","3OWZNK3RYMVDNXPNEIRWZ8JM6MU2UY","3WQQ9FUS6C0C0XG0KAO3TTZQMC8B8B","model","mismatch","uniform","","","","","","","","611568","613570","","","","","","","","","","","","7","","stimuli/stars_7.png","263","","","","","stimuli/AF11_FO.jpg","",""
"explore-choice","171","615371","0.0-171.0","p2219","AK8ONB60Q4RJ5","3OWZNK3RYMVDNXPNEIRWZ8JM6MU2UY","3WQQ9FUS6C0C0XG0KAO3TTZQMC8B8B","model","mismatch","uniform","","","","","","","2120","613570","615690","[""stimuli/AM09_SC.jpg"",""stimuli/AF02_DO.jpg"",""stimuli/AF11_AO.jpg"",""stimuli/AM05_FO.jpg""]","stimuli/AM09_SC.jpg","stimuli/AF02_DO.jpg","stimuli/AF11_AO.jpg","stimuli/AM05_FO.jpg","pos3","stimuli/AF11_AO.jpg","AO","AF11","2","3","6","4","stimuli/stars_6.png","266","[""SC"",""DO"",""AO"",""FO""]","[""AM09"",""AF02"",""AF11"",""AM05""]","[4,8,6,5]","[2,8,4,6]","","",""
"show-reward","172","617372","0.0-172.0","p2219","AK8ONB60Q4RJ5","3OWZNK3RYMVDNXPNEIRWZ8JM6MU2UY","3WQQ9FUS6C0C0XG0KAO3TTZQMC8B8B","model","mismatch","uniform","","","","","","","","616191","618192","","","","","","","","","","","","6","","stimuli/stars_6.png","266","","","","","stimuli/AF11_AO.jpg","",""
"explore-choice","173","618866","0.0-173.0","p2219","AK8ONB60Q4RJ5","3OWZNK3RYMVDNXPNEIRWZ8JM6MU2UY","3WQQ9FUS6C0C0XG0KAO3TTZQMC8B8B","model","mismatch","uniform","","","","","","","993","618192","619185","[""stimuli/AM09_SC.jpg"",""stimuli/AF02_AO.jpg"",""stimuli/AF11_DO.jpg"",""stimuli/AM05_FO.jpg""]","stimuli/AM09_SC.jpg","stimuli/AF02_AO.jpg","stimuli/AF11_DO.jpg","stimuli/AM05_FO.jpg","pos3","stimuli/AF11_DO.jpg","DO","AF11","2","4.5","9","8","stimuli/stars_9.png","270.5","[""SC"",""AO"",""DO"",""FO""]","[""AM09"",""AF02"",""AF11"",""AM05""]","[1,2,9,6]","[2,4,8,6]","","",""
"show-reward","174","620867","0.0-174.0","p2219","AK8ONB60Q4RJ5","3OWZNK3RYMVDNXPNEIRWZ8JM6MU2UY","3WQQ9FUS6C0C0XG0KAO3TTZQMC8B8B","model","mismatch","uniform","","","","","","","","619685","621687","","","","","","","","","","","","9","","stimuli/stars_9.png","270.5","","","","","stimuli/AF11_DO.jpg","",""
"explore-choice","175","641183","0.0-175.0","p2219","AK8ONB60Q4RJ5","3OWZNK3RYMVDNXPNEIRWZ8JM6MU2UY","3WQQ9FUS6C0C0XG0KAO3TTZQMC8B8B","model","mismatch","uniform","","","","","","","19815","621687","641502","[""stimuli/AM09_SC.jpg"",""stimuli/AF11_FO.jpg"",""stimuli/AF02_AO.jpg"",""stimuli/AM05_DO.jpg""]","stimuli/AM09_SC.jpg","stimuli/AF11_FO.jpg","stimuli/AF02_AO.jpg","stimuli/AM05_DO.jpg","pos2","stimuli/AF11_FO.jpg","FO","AF11","1","3","6","6","stimuli/stars_6.png","273.5","[""SC"",""FO"",""AO"",""DO""]","[""AM09"",""AF11"",""AF02"",""AM05""]","[0,6,5,7]","[2,6,4,8]","","",""
"show-reward","176","643184","0.0-176.0","p2219","AK8ONB60Q4RJ5","3OWZNK3RYMVDNXPNEIRWZ8JM6MU2UY","3WQQ9FUS6C0C0XG0KAO3TTZQMC8B8B","model","mismatch","uniform","","","","","","","","642003","644004","","","","","","","","","","","","6","","stimuli/stars_6.png","273.5","","","","","stimuli/AF11_FO.jpg","",""
"explore-choice","177","645531","0.0-177.0","p2219","AK8ONB60Q4RJ5","3OWZNK3RYMVDNXPNEIRWZ8JM6MU2UY","3WQQ9FUS6C0C0XG0KAO3TTZQMC8B8B","model","mismatch","uniform","","","","","","","1846","644005","645851","[""stimuli/AF02_FO.jpg"",""stimuli/AM05_SC.jpg"",""stimuli/AF11_AO.jpg"",""stimuli/AM09_DO.jpg""]","stimuli/AF02_FO.jpg","stimuli/AM05_SC.jpg","stimuli/AF11_AO.jpg","stimuli/AM09_DO.jpg","pos3","stimuli/AF11_AO.jpg","AO","AF11","2","2","4","4","stimuli/stars_4.png","275.5","[""FO"",""SC"",""AO"",""DO""]","[""AF02"",""AM05"",""AF11"",""AM09""]","[7,0,4,10]","[6,2,4,8]","","",""
"show-reward","178","647533","0.0-178.0","p2219","AK8ONB60Q4RJ5","3OWZNK3RYMVDNXPNEIRWZ8JM6MU2UY","3WQQ9FUS6C0C0XG0KAO3TTZQMC8B8B","model","mismatch","uniform","","","","","","","","646351","648353","","","","","","","","","","","","4","","stimuli/stars_4.png","275.5","","","","","stimuli/AF11_AO.jpg","",""
"explore-choice","179","649526","0.0-179.0","p2219","AK8ONB60Q4RJ5","3OWZNK3RYMVDNXPNEIRWZ8JM6MU2UY","3WQQ9FUS6C0C0XG0KAO3TTZQMC8B8B","model","mismatch","uniform","","","","","","","1491","648353","649844","[""stimuli/AF02_DO.jpg"",""stimuli/AF11_AO.jpg"",""stimuli/AM09_FO.jpg"",""stimuli/AM05_SC.jpg""]","stimuli/AF02_DO.jpg","stimuli/AF11_AO.jpg","stimuli/AM09_FO.jpg","stimuli/AM05_SC.jpg","pos2","stimuli/AF11_AO.jpg","AO","AF11","1","1.5","3","4","stimuli/stars_3.png","277","[""DO"",""AO"",""FO"",""SC""]","[""AF02"",""AF11"",""AM09"",""AM05""]","[9,3,8,4]","[8,4,6,2]","","",""
"show-reward","180","651527","0.0-180.0","p2219","AK8ONB60Q4RJ5","3OWZNK3RYMVDNXPNEIRWZ8JM6MU2UY","3WQQ9FUS6C0C0XG0KAO3TTZQMC8B8B","model","mismatch","uniform","","","","","","","","650346","652347","","","","","","","","","","","","3","","stimuli/stars_3.png","277","","","","","stimuli/AF11_AO.jpg","",""
"explore-choice","181","654365","0.0-181.0","p2219","AK8ONB60Q4RJ5","3OWZNK3RYMVDNXPNEIRWZ8JM6MU2UY","3WQQ9FUS6C0C0XG0KAO3TTZQMC8B8B","model","mismatch","uniform","","","","","","","2336","652348","654684","[""stimuli/AF02_AO.jpg"",""stimuli/AM05_FO.jpg"",""stimuli/AF11_SC.jpg"",""stimuli/AM09_DO.jpg""]","stimuli/AF02_AO.jpg","stimuli/AM05_FO.jpg","stimuli/AF11_SC.jpg","stimuli/AM09_DO.jpg","pos3","stimuli/AF11_SC.jpg","SC","AF11","2","2","4","2","stimuli/stars_4.png","279","[""AO"",""FO"",""SC"",""DO""]","[""AF02"",""AM05"",""AF11"",""AM09""]","[2,7,4,7]","[4,6,2,8]","","",""
"show-reward","182","656366","0.0-182.0","p2219","AK8ONB60Q4RJ5","3OWZNK3RYMVDNXPNEIRWZ8JM6MU2UY","3WQQ9FUS6C0C0XG0KAO3TTZQMC8B8B","model","mismatch","uniform","","","","","","","","655185","657186","","","","","","","","","","","","4","","stimuli/stars_4.png","279","","","","","stimuli/AF11_SC.jpg","",""
"explore-choice","183","659790","0.0-183.0","p2219","AK8ONB60Q4RJ5","3OWZNK3RYMVDNXPNEIRWZ8JM6MU2UY","3WQQ9FUS6C0C0XG0KAO3TTZQMC8B8B","model","mismatch","uniform","","","","","","","2924","657186","660110","[""stimuli/AM05_SC.jpg"",""stimuli/AM09_FO.jpg"",""stimuli/AF02_AO.jpg"",""stimuli/AF11_DO.jpg""]","stimuli/AM05_SC.jpg","stimuli/AM09_FO.jpg","stimuli/AF02_AO.jpg","stimuli/AF11_DO.jpg","pos4","stimuli/AF11_DO.jpg","DO","AF11","3","5","10","8","stimuli/stars_10.png","284","[""SC"",""FO"",""AO"",""DO""]","[""AM05"",""AM09"",""AF02"",""AF11""]","[0,5,3,10]","[2,6,4,8]","","",""
"show-reward","184","661792","0.0-184.0","p2219","AK8ONB60Q4RJ5","3OWZNK3RYMVDNXPNEIRWZ8JM6MU2UY","3WQQ9FUS6C0C0XG0KAO3TTZQMC8B8B","model","mismatch","uniform","","","","","","","","660610","662611","","","","","","","","","","","","10","","stimuli/stars_10.png","284","","","","","stimuli/AF11_DO.jpg","",""
"explore-choice","185","664302","0.0-185.0","p2219","AK8ONB60Q4RJ5","3OWZNK3RYMVDNXPNEIRWZ8JM6MU2UY","3WQQ9FUS6C0C0XG0KAO3TTZQMC8B8B","model","mismatch","uniform","","","","","","","2009","662612","664621","[""stimuli/AM05_FO.jpg"",""stimuli/AM09_DO.jpg"",""stimuli/AF11_AO.jpg"",""stimuli/AF02_SC.jpg""]","stimuli/AM05_FO.jpg","stimuli/AM09_DO.jpg","stimuli/AF11_AO.jpg","stimuli/AF02_SC.jpg","pos3","stimuli/AF11_AO.jpg","AO","AF11","2","2","4","4","stimuli/stars_4.png","286","[""FO"",""DO"",""AO"",""SC""]","[""AM05"",""AM09"",""AF11"",""AF02""]","[7,9,4,1]","[6,8,4,2]","","",""
"show-reward","186","666304","0.0-186.0","p2219","AK8ONB60Q4RJ5","3OWZNK3RYMVDNXPNEIRWZ8JM6MU2UY","3WQQ9FUS6C0C0XG0KAO3TTZQMC8B8B","model","mismatch","uniform","","","","","","","","665122","667123","","","","","","","","","","","","4","","stimuli/stars_4.png","286","","","","","stimuli/AF11_AO.jpg","",""
"explore-choice","187","680809","0.0-187.0","p2219","AK8ONB60Q4RJ5","3OWZNK3RYMVDNXPNEIRWZ8JM6MU2UY","3WQQ9FUS6C0C0XG0KAO3TTZQMC8B8B","model","mismatch","uniform","","","","","","","14005","667124","681129","[""stimuli/AM09_SC.jpg"",""stimuli/AF11_DO.jpg"",""stimuli/AF02_FO.jpg"",""stimuli/AM05_AO.jpg""]","stimuli/AM09_SC.jpg","stimuli/AF11_DO.jpg","stimuli/AF02_FO.jpg","stimuli/AM05_AO.jpg","pos2","stimuli/AF11_DO.jpg","DO","AF11","1","4","8","8","stimuli/stars_8.png","290","[""SC"",""DO"",""FO"",""AO""]","[""AM09"",""AF11"",""AF02"",""AM05""]","[0,8,4,3]","[2,8,6,4]","","",""
"show-reward","188","682811","0.0-188.0","p2219","AK8ONB60Q4RJ5","3OWZNK3RYMVDNXPNEIRWZ8JM6MU2UY","3WQQ9FUS6C0C0XG0KAO3TTZQMC8B8B","model","mismatch","uniform","","","","","","","","681629","683630","","","","","","","","","","","","8","","stimuli/stars_8.png","290","","","","","stimuli/AF11_DO.jpg","",""
"explore-choice","189","684670","0.0-189.0","p2219","AK8ONB60Q4RJ5","3OWZNK3RYMVDNXPNEIRWZ8JM6MU2UY","3WQQ9FUS6C0C0XG0KAO3TTZQMC8B8B","model","mismatch","uniform","","","","","","","1359","683630","684989","[""stimuli/AM09_SC.jpg"",""stimuli/AF02_DO.jpg"",""stimuli/AF11_FO.jpg"",""stimuli/AM05_AO.jpg""]","stimuli/AM09_SC.jpg","stimuli/AF02_DO.jpg","stimuli/AF11_FO.jpg","stimuli/AM05_AO.jpg","pos3","stimuli/AF11_FO.jpg","FO","AF11","2","4","8","6","stimuli/stars_8.png","294","[""SC"",""DO"",""FO"",""AO""]","[""AM09"",""AF02"",""AF11"",""AM05""]","[4,6,8,6]","[2,8,6,4]","","",""
"show-reward","190","686671","0.0-190.0","p2219","AK8ONB60Q4RJ5","3OWZNK3RYMVDNXPNEIRWZ8JM6MU2UY","3WQQ9FUS6C0C0XG0KAO3TTZQMC8B8B","model","mismatch","uniform","","","","","","","","685489","687491","","","","","","","","","","","","8","","stimuli/stars_8.png","294","","","","","stimuli/AF11_FO.jpg","",""
"explore-choice","191","688676","0.0-191.0","p2219","AK8ONB60Q4RJ5","3OWZNK3RYMVDNXPNEIRWZ8JM6MU2UY","3WQQ9FUS6C0C0XG0KAO3TTZQMC8B8B","model","mismatch","uniform","","","","","","","1504","687491","688995","[""stimuli/AF11_AO.jpg"",""stimuli/AM09_SC.jpg"",""stimuli/AM05_DO.jpg"",""stimuli/AF02_FO.jpg""]","stimuli/AF11_AO.jpg","stimuli/AM09_SC.jpg","stimuli/AM05_DO.jpg","stimuli/AF02_FO.jpg","pos1","stimuli/AF11_AO.jpg","AO","AF11","0","2","4","4","stimuli/stars_4.png","296","[""AO"",""SC"",""DO"",""FO""]","[""AF11"",""AM09"",""AM05"",""AF02""]","[4,0,9,4]","[4,2,8,6]","","",""
"show-reward","192","690678","0.0-192.0","p2219","AK8ONB60Q4RJ5","3OWZNK3RYMVDNXPNEIRWZ8JM6MU2UY","3WQQ9FUS6C0C0XG0KAO3TTZQMC8B8B","model","mismatch","uniform","","","","","","","","689497","691498","","","","","","","","","","","","4","","stimuli/stars_4.png","296","","","","","stimuli/AF11_AO.jpg","",""
"explore-choice","193","692492","0.0-193.0","p2219","AK8ONB60Q4RJ5","3OWZNK3RYMVDNXPNEIRWZ8JM6MU2UY","3WQQ9FUS6C0C0XG0KAO3TTZQMC8B8B","model","mismatch","uniform","","","","","","","1313","691498","692811","[""stimuli/AM05_SC.jpg"",""stimuli/AF02_FO.jpg"",""stimuli/AF11_DO.jpg"",""stimuli/AM09_AO.jpg""]","stimuli/AM05_SC.jpg","stimuli/AF02_FO.jpg","stimuli/AF11_DO.jpg","stimuli/AM09_AO.jpg","pos3","stimuli/AF11_DO.jpg","DO","AF11","2","4.5","9","8","stimuli/stars_9.png","300.5","[""SC"",""FO"",""DO"",""AO""]","[""AM05"",""AF02"",""AF11"",""AM09""]","[1,6,9,2]","[2,6,8,4]","","",""
"show-reward","194","694493","0.0-194.0","p2219","AK8ONB60Q4RJ5","3OWZNK3RYMVDNXPNEIRWZ8JM6MU2UY","3WQQ9FUS6C0C0XG0KAO3TTZQMC8B8B","model","mismatch","uniform","","","","","","","","693312","695313","","","","","","","","","","","","9","","stimuli/stars_9.png","300.5","","","","","stimuli/AF11_DO.jpg","",""
"explore-choice","195","696490","0.0-195.0","p2219","AK8ONB60Q4RJ5","3OWZNK3RYMVDNXPNEIRWZ8JM6MU2UY","3WQQ9FUS6C0C0XG0KAO3TTZQMC8B8B","model","mismatch","uniform","","","","","","","1497","695313","696810","[""stimuli/AM05_DO.jpg"",""stimuli/AF02_SC.jpg"",""stimuli/AM09_FO.jpg"",""stimuli/AF11_AO.jpg""]","stimuli/AM05_DO.jpg","stimuli/AF02_SC.jpg","stimuli/AM09_FO.jpg","stimuli/AF11_AO.jpg","pos4","stimuli/AF11_AO.jpg","AO","AF11","3","2.5","5","4","stimuli/stars_5.png","303","[""DO"",""SC"",""FO"",""AO""]","[""AM05"",""AF02"",""AM09"",""AF11""]","[9,4,7,5]","[8,2,6,4]","","",""
"show-reward","196","698492","0.0-196.0","p2219","AK8ONB60Q4RJ5","3OWZNK3RYMVDNXPNEIRWZ8JM6MU2UY","3WQQ9FUS6C0C0XG0KAO3TTZQMC8B8B","model","mismatch","uniform","","","","","","","","697311","699312","","","","","","","","","","","","5","","stimuli/stars_5.png","303","","","","","stimuli/AF11_AO.jpg","",""
"explore-choice","197","700434","0.0-197.0","p2219","AK8ONB60Q4RJ5","3OWZNK3RYMVDNXPNEIRWZ8JM6MU2UY","3WQQ9FUS6C0C0XG0KAO3TTZQMC8B8B","model","mismatch","uniform","","","","","","","1440","699313","700753","[""stimuli/AF11_SC.jpg"",""stimuli/AM09_DO.jpg"",""stimuli/AF02_FO.jpg"",""stimuli/AM05_AO.jpg""]","stimuli/AF11_SC.jpg","stimuli/AM09_DO.jpg","stimuli/AF02_FO.jpg","stimuli/AM05_AO.jpg","pos1","stimuli/AF11_SC.jpg","SC","AF11","0","0","0","2","stimuli/stars_0.png","303","[""SC"",""DO"",""FO"",""AO""]","[""AF11"",""AM09"",""AF02"",""AM05""]","[0,10,4,2]","[2,8,6,4]","","",""
"show-reward","198","702435","0.0-198.0","p2219","AK8ONB60Q4RJ5","3OWZNK3RYMVDNXPNEIRWZ8JM6MU2UY","3WQQ9FUS6C0C0XG0KAO3TTZQMC8B8B","model","mismatch","uniform","","","","","","","","701254","703255","","","","","","","","","","","","0","","stimuli/stars_0.png","303","","","","","stimuli/AF11_SC.jpg","",""
"instructions","199","706988","0.0-199.0","p2219","AK8ONB60Q4RJ5","3OWZNK3RYMVDNXPNEIRWZ8JM6MU2UY","3WQQ9FUS6C0C0XG0KAO3TTZQMC8B8B","model","mismatch","uniform","","","","","","[{""page_index"":0,""viewing_time"":4550}]","4550","","","","","","","","","","","","","","","","","","","","","","","",""
"survey-text","200","710245","0.0-200.0-0.0","p2219","AK8ONB60Q4RJ5","3OWZNK3RYMVDNXPNEIRWZ8JM6MU2UY","3WQQ9FUS6C0C0XG0KAO3TTZQMC8B8B","model","mismatch","uniform","","","","","","","3255","","","","","","","","","","","","","","","","","","","","","","","{""age"":""40""}",""
"survey-text","201","740259","0.0-200.0-1.0","p2219","AK8ONB60Q4RJ5","3OWZNK3RYMVDNXPNEIRWZ8JM6MU2UY","3WQQ9FUS6C0C0XG0KAO3TTZQMC8B8B","model","mismatch","uniform","","","","","","","30012","","","","","","","","","","","","","","","","","","","","","","","{""gender"":""Male""}",""
"survey-text","202","747567","0.0-200.0-2.0","p2219","AK8ONB60Q4RJ5","3OWZNK3RYMVDNXPNEIRWZ8JM6MU2UY","3WQQ9FUS6C0C0XG0KAO3TTZQMC8B8B","model","mismatch","uniform","","","","","","","7305","","","","","","","","","","","","","","","","","","","","","","","{""country"":""United States""}",""
"survey-text","203","754639","0.0-200.0-3.0","p2219","AK8ONB60Q4RJ5","3OWZNK3RYMVDNXPNEIRWZ8JM6MU2UY","3WQQ9FUS6C0C0XG0KAO3TTZQMC8B8B","model","mismatch","uniform","","","","","","","7069","","","","","","","","","","","","","","","","","","","","","","","{""language"":""English"",""other_languages"":""n/a""}",""
"survey-multi-select","204","757223","0.0-201.0","p2219","AK8ONB60Q4RJ5","3OWZNK3RYMVDNXPNEIRWZ8JM6MU2UY","3WQQ9FUS6C0C0XG0KAO3TTZQMC8B8B","model","mismatch","uniform","","","","","","","2581","","","","","","","","","","","","","","","","","","","","","","","{""race"":[""Not listed""]}","[0]"
"survey-multi-choice","205","759447","0.0-202.0","p2219","AK8ONB60Q4RJ5","3OWZNK3RYMVDNXPNEIRWZ8JM6MU2UY","3WQQ9FUS6C0C0XG0KAO3TTZQMC8B8B","model","mismatch","uniform","","","","","","","2223","","","","","","","","","","","","","","","","","","","","","","","{""education"":""High school""}","[0]"
"survey-text","206","878324","0.0-203.0","p2219","AK8ONB60Q4RJ5","3OWZNK3RYMVDNXPNEIRWZ8JM6MU2UY","3WQQ9FUS6C0C0XG0KAO3TTZQMC8B8B","model","mismatch","uniform","","","","","","","118871","","","","","","","","","","","","","","","","","","","","","","","{""patterns"":""There was usually on person when selected, provided many stars."",""strategy"":""select the person I've found that gave the most stars again, and again."",""comments"":""Good task. Thanks!""}",""
