"trial_type","trial_index","time_elapsed","internal_node_id","subject","workerId","hitId","assignmentId","structure_condition","match_condition","noise_type","success","timeout","failed_images","failed_audio","failed_video","view_history","rt","start_time","end_time","stimuli","image1","image2","image3","image4","choiceLocation","choiceImage","choiceEmotion","choiceModel","choice_index","reward_score","reward","reward_score_unadjusted","reward_image","score_after_trial","emotions","models","rewards","rewards_unadjusted","stimulus","response","question_order"
"pavlovia","0","18","0.0-0.0","p726555","APQ5K76HIG41P","3RZS0FBRWLGDTA9TUPH81F59AWHPC0","33FBRBDW6Q5VA286YAKY4D584YCC8P","model","mismatch","uniform","","","","","","","","","","","","","","","","","","","","","","","","","","","","","","",""
"preload","1","41291","0.0-1.0","p726555","APQ5K76HIG41P","3RZS0FBRWLGDTA9TUPH81F59AWHPC0","33FBRBDW6Q5VA286YAKY4D584YCC8P","model","mismatch","uniform","true","false","[]","[]","[]","","","","","","","","","","","","","","","","","","","","","","","","","",""
"fullscreen","2","68296","0.0-2.0","p726555","APQ5K76HIG41P","3RZS0FBRWLGDTA9TUPH81F59AWHPC0","33FBRBDW6Q5VA286YAKY4D584YCC8P","model","mismatch","uniform","true","","","","","","","","","","","","","","","","","","","","","","","","","","","","","",""
"instructions","3","595456","0.0-3.0","p726555","APQ5K76HIG41P","3RZS0FBRWLGDTA9TUPH81F59AWHPC0","33FBRBDW6Q5VA286YAKY4D584YCC8P","model","mismatch","uniform","","","","","","[{""page_index"":0,""viewing_time"":527159.6999998093}]","527160.2999999523","","","","","","","","","","","","","","","","","","","","","","","",""
"explore-choice","4","597703","0.0-4.0","p726555","APQ5K76HIG41P","3RZS0FBRWLGDTA9TUPH81F59AWHPC0","33FBRBDW6Q5VA286YAKY4D584YCC8P","model","mismatch","uniform","","","","","","","1742","597178.5999999046","598920.5999999046","[""stimuli/sheep.jpg"",""stimuli/hammer.jpg"",""stimuli/basketball.jpg"",""stimuli/horse.jpg""]","stimuli/sheep.jpg","stimuli/hammer.jpg","stimuli/basketball.jpg","stimuli/horse.jpg","pos4","stimuli/horse.jpg","","","3","64","64","64","stimuli/stars_8.png","65","","","","","","",""
"explore-choice","5","599353","0.0-5.0","p726555","APQ5K76HIG41P","3RZS0FBRWLGDTA9TUPH81F59AWHPC0","33FBRBDW6Q5VA286YAKY4D584YCC8P","model","mismatch","uniform","","","","","","","1144.2999999523163","599424.2999999523","600568.5999999046","[""stimuli/hammer.jpg"",""stimuli/basketball.jpg"",""stimuli/horse.jpg"",""stimuli/sheep.jpg""]","stimuli/hammer.jpg","stimuli/basketball.jpg","stimuli/horse.jpg","stimuli/sheep.jpg","pos1","stimuli/hammer.jpg","","","0","8","8","8","stimuli/stars_2.png","9","","","","","","",""
"instructions","6","654936","0.0-6.0","p726555","APQ5K76HIG41P","3RZS0FBRWLGDTA9TUPH81F59AWHPC0","33FBRBDW6Q5VA286YAKY4D584YCC8P","model","mismatch","uniform","","","","","","[{""page_index"":0,""viewing_time"":55581.800000190735}]","55581.90000009537","","","","","","","","","","","","","","","","","","","","","","","",""
"explore-choice","7","657989","0.0-7.0","p726555","APQ5K76HIG41P","3RZS0FBRWLGDTA9TUPH81F59AWHPC0","33FBRBDW6Q5VA286YAKY4D584YCC8P","model","mismatch","uniform","","","","","","","2544.2000000476837","656657.2999999523","659201.5","[""stimuli/HM07_AO.jpg"",""stimuli/WM07_FO.jpg"",""stimuli/BM03_HO.jpg"",""stimuli/WM13_HE.jpg""]","stimuli/HM07_AO.jpg","stimuli/WM07_FO.jpg","stimuli/BM03_HO.jpg","stimuli/WM13_HE.jpg","pos4","stimuli/WM13_HE.jpg","HE","WM13","3","2.5","5","6","stimuli/stars_5.png","3.5","[""AO"",""FO"",""HO"",""HE""]","[""HM07"",""WM07"",""BM03"",""WM13""]","[9,4,4,5]","[8,4,2,6]","","",""
"show-reward","8","659995","0.0-8.0","p726555","APQ5K76HIG41P","3RZS0FBRWLGDTA9TUPH81F59AWHPC0","33FBRBDW6Q5VA286YAKY4D584YCC8P","model","mismatch","uniform","","","","","","","","659710.2000000477","661713.4000000954","","","","","","","","","","","","5","","stimuli/stars_5.png","3.5","","","","","stimuli/WM13_HE.jpg","",""
"explore-choice","9","663036","0.0-9.0","p726555","APQ5K76HIG41P","3RZS0FBRWLGDTA9TUPH81F59AWHPC0","33FBRBDW6Q5VA286YAKY4D584YCC8P","model","mismatch","uniform","","","","","","","2532.600000143051","661717.2999999523","664249.9000000954","[""stimuli/WM13_HE.jpg"",""stimuli/BM03_AO.jpg"",""stimuli/WM07_HO.jpg"",""stimuli/HM07_FO.jpg""]","stimuli/WM13_HE.jpg","stimuli/BM03_AO.jpg","stimuli/WM07_HO.jpg","stimuli/HM07_FO.jpg","pos1","stimuli/WM13_HE.jpg","HE","WM13","0","2.5","5","6","stimuli/stars_5.png","6","[""HE"",""AO"",""HO"",""FO""]","[""WM13"",""BM03"",""WM07"",""HM07""]","[5,2,3,8]","[6,2,4,8]","","",""
"show-reward","10","665050","0.0-10.0","p726555","APQ5K76HIG41P","3RZS0FBRWLGDTA9TUPH81F59AWHPC0","33FBRBDW6Q5VA286YAKY4D584YCC8P","model","mismatch","uniform","","","","","","","","664757.5","666770.5999999046","","","","","","","","","","","","5","","stimuli/stars_5.png","6","","","","","stimuli/WM13_HE.jpg","",""
"explore-choice","11","668728","0.0-11.0","p726555","APQ5K76HIG41P","3RZS0FBRWLGDTA9TUPH81F59AWHPC0","33FBRBDW6Q5VA286YAKY4D584YCC8P","model","mismatch","uniform","","","","","","","3173","666771.2999999523","669944.2999999523","[""stimuli/HM07_HO.jpg"",""stimuli/WM07_HE.jpg"",""stimuli/WM13_FO.jpg"",""stimuli/BM03_AO.jpg""]","stimuli/HM07_HO.jpg","stimuli/WM07_HE.jpg","stimuli/WM13_FO.jpg","stimuli/BM03_AO.jpg","pos1","stimuli/HM07_HO.jpg","HO","HM07","0","3","6","8","stimuli/stars_6.png","9","[""HO"",""HE"",""FO"",""AO""]","[""HM07"",""WM07"",""WM13"",""BM03""]","[6,4,4,0]","[8,4,6,2]","","",""
"show-reward","12","670733","0.0-12.0","p726555","APQ5K76HIG41P","3RZS0FBRWLGDTA9TUPH81F59AWHPC0","33FBRBDW6Q5VA286YAKY4D584YCC8P","model","mismatch","uniform","","","","","","","","670449.5","672453.2999999523","","","","","","","","","","","","6","","stimuli/stars_6.png","9","","","","","stimuli/HM07_HO.jpg","",""
"explore-choice","13","673465","0.0-13.0","p726555","APQ5K76HIG41P","3RZS0FBRWLGDTA9TUPH81F59AWHPC0","33FBRBDW6Q5VA286YAKY4D584YCC8P","model","mismatch","uniform","","","","","","","2228.5","672453.9000000954","674682.4000000954","[""stimuli/WM13_HE.jpg"",""stimuli/WM07_AO.jpg"",""stimuli/BM03_FO.jpg"",""stimuli/HM07_HO.jpg""]","stimuli/WM13_HE.jpg","stimuli/WM07_AO.jpg","stimuli/BM03_FO.jpg","stimuli/HM07_HO.jpg","pos4","stimuli/HM07_HO.jpg","HO","HM07","3","4.5","9","8","stimuli/stars_9.png","13.5","[""HE"",""AO"",""FO"",""HO""]","[""WM13"",""WM07"",""BM03"",""HM07""]","[5,3,3,9]","[6,4,2,8]","","",""
"show-reward","14","675467","0.0-14.0","p726555","APQ5K76HIG41P","3RZS0FBRWLGDTA9TUPH81F59AWHPC0","33FBRBDW6Q5VA286YAKY4D584YCC8P","model","mismatch","uniform","","","","","","","","675185.9000000954","677187","","","","","","","","","","","","9","","stimuli/stars_9.png","13.5","","","","","stimuli/HM07_HO.jpg","",""
"explore-choice","15","678266","0.0-15.0","p726555","APQ5K76HIG41P","3RZS0FBRWLGDTA9TUPH81F59AWHPC0","33FBRBDW6Q5VA286YAKY4D584YCC8P","model","mismatch","uniform","","","","","","","2284.5999999046326","677187.7000000477","679472.2999999523","[""stimuli/WM13_FO.jpg"",""stimuli/WM07_HO.jpg"",""stimuli/HM07_HE.jpg"",""stimuli/BM03_AO.jpg""]","stimuli/WM13_FO.jpg","stimuli/WM07_HO.jpg","stimuli/HM07_HE.jpg","stimuli/BM03_AO.jpg","pos3","stimuli/HM07_HE.jpg","HE","HM07","2","4","8","8","stimuli/stars_8.png","17.5","[""FO"",""HO"",""HE"",""AO""]","[""WM13"",""WM07"",""HM07"",""BM03""]","[7,6,8,0]","[6,4,8,2]","","",""
"show-reward","16","680273","0.0-16.0","p726555","APQ5K76HIG41P","3RZS0FBRWLGDTA9TUPH81F59AWHPC0","33FBRBDW6Q5VA286YAKY4D584YCC8P","model","mismatch","uniform","","","","","","","","679986.7000000477","681993.4000000954","","","","","","","","","","","","8","","stimuli/stars_8.png","17.5","","","","","stimuli/HM07_HE.jpg","",""
"explore-choice","17","683972","0.0-17.0","p726555","APQ5K76HIG41P","3RZS0FBRWLGDTA9TUPH81F59AWHPC0","33FBRBDW6Q5VA286YAKY4D584YCC8P","model","mismatch","uniform","","","","","","","3198.100000143051","681994.0999999046","685192.2000000477","[""stimuli/HM07_AO.jpg"",""stimuli/BM03_FO.jpg"",""stimuli/WM07_HE.jpg"",""stimuli/WM13_HO.jpg""]","stimuli/HM07_AO.jpg","stimuli/BM03_FO.jpg","stimuli/WM07_HE.jpg","stimuli/WM13_HO.jpg","pos4","stimuli/WM13_HO.jpg","HO","WM13","3","2.5","5","6","stimuli/stars_5.png","20","[""AO"",""FO"",""HE"",""HO""]","[""HM07"",""BM03"",""WM07"",""WM13""]","[6,1,5,5]","[8,2,4,6]","","",""
"show-reward","18","685986","0.0-18.0","p726555","APQ5K76HIG41P","3RZS0FBRWLGDTA9TUPH81F59AWHPC0","33FBRBDW6Q5VA286YAKY4D584YCC8P","model","mismatch","uniform","","","","","","","","685692.7999999523","687706.2000000477","","","","","","","","","","","","5","","stimuli/stars_5.png","20","","","","","stimuli/WM13_HO.jpg","",""
"explore-choice","19","687845","0.0-19.0","p726555","APQ5K76HIG41P","3RZS0FBRWLGDTA9TUPH81F59AWHPC0","33FBRBDW6Q5VA286YAKY4D584YCC8P","model","mismatch","uniform","","","","","","","1343.4000000953674","687707.0999999046","689050.5","[""stimuli/WM07_AO.jpg"",""stimuli/WM13_FO.jpg"",""stimuli/HM07_HO.jpg"",""stimuli/BM03_HE.jpg""]","stimuli/WM07_AO.jpg","stimuli/WM13_FO.jpg","stimuli/HM07_HO.jpg","stimuli/BM03_HE.jpg","pos3","stimuli/HM07_HO.jpg","HO","HM07","2","3","6","8","stimuli/stars_6.png","23","[""AO"",""FO"",""HO"",""HE""]","[""WM07"",""WM13"",""HM07"",""BM03""]","[5,7,6,4]","[4,6,8,2]","","",""
"show-reward","20","689861","0.0-20.0","p726555","APQ5K76HIG41P","3RZS0FBRWLGDTA9TUPH81F59AWHPC0","33FBRBDW6Q5VA286YAKY4D584YCC8P","model","mismatch","uniform","","","","","","","","689565.5999999046","691581","","","","","","","","","","","","6","","stimuli/stars_6.png","23","","","","","stimuli/HM07_HO.jpg","",""
"explore-choice","21","691705","0.0-21.0","p726555","APQ5K76HIG41P","3RZS0FBRWLGDTA9TUPH81F59AWHPC0","33FBRBDW6Q5VA286YAKY4D584YCC8P","model","mismatch","uniform","","","","","","","1332.2000000476837","691581.5999999046","692913.7999999523","[""stimuli/WM13_FO.jpg"",""stimuli/WM07_HE.jpg"",""stimuli/BM03_HO.jpg"",""stimuli/HM07_AO.jpg""]","stimuli/WM13_FO.jpg","stimuli/WM07_HE.jpg","stimuli/BM03_HO.jpg","stimuli/HM07_AO.jpg","pos2","stimuli/WM07_HE.jpg","HE","WM07","1","2.5","5","4","stimuli/stars_5.png","25.5","[""FO"",""HE"",""HO"",""AO""]","[""WM13"",""WM07"",""BM03"",""HM07""]","[4,5,3,9]","[6,4,2,8]","","",""
"show-reward","22","693718","0.0-22.0","p726555","APQ5K76HIG41P","3RZS0FBRWLGDTA9TUPH81F59AWHPC0","33FBRBDW6Q5VA286YAKY4D584YCC8P","model","mismatch","uniform","","","","","","","","693426.5","695438.2999999523","","","","","","","","","","","","5","","stimuli/stars_5.png","25.5","","","","","stimuli/WM07_HE.jpg","",""
"explore-choice","23","695720","0.0-23.0","p726555","APQ5K76HIG41P","3RZS0FBRWLGDTA9TUPH81F59AWHPC0","33FBRBDW6Q5VA286YAKY4D584YCC8P","model","mismatch","uniform","","","","","","","1497.5","695438.9000000954","696936.4000000954","[""stimuli/WM07_HO.jpg"",""stimuli/BM03_FO.jpg"",""stimuli/HM07_AO.jpg"",""stimuli/WM13_HE.jpg""]","stimuli/WM07_HO.jpg","stimuli/BM03_FO.jpg","stimuli/HM07_AO.jpg","stimuli/WM13_HE.jpg","pos1","stimuli/WM07_HO.jpg","HO","WM07","0","1.5","3","4","stimuli/stars_3.png","27","[""HO"",""FO"",""AO"",""HE""]","[""WM07"",""BM03"",""HM07"",""WM13""]","[3,4,10,7]","[4,2,8,6]","","",""
"show-reward","24","697733","0.0-24.0","p726555","APQ5K76HIG41P","3RZS0FBRWLGDTA9TUPH81F59AWHPC0","33FBRBDW6Q5VA286YAKY4D584YCC8P","model","mismatch","uniform","","","","","","","","697440.5999999046","699453","","","","","","","","","","","","3","","stimuli/stars_3.png","27","","","","","stimuli/WM07_HO.jpg","",""
"explore-choice","25","699686","0.0-25.0","p726555","APQ5K76HIG41P","3RZS0FBRWLGDTA9TUPH81F59AWHPC0","33FBRBDW6Q5VA286YAKY4D584YCC8P","model","mismatch","uniform","","","","","","","1445.8000001907349","699453.5999999046","700899.4000000954","[""stimuli/BM03_AO.jpg"",""stimuli/HM07_FO.jpg"",""stimuli/WM13_HO.jpg"",""stimuli/WM07_HE.jpg""]","stimuli/BM03_AO.jpg","stimuli/HM07_FO.jpg","stimuli/WM13_HO.jpg","stimuli/WM07_HE.jpg","pos3","stimuli/WM13_HO.jpg","HO","WM13","2","3.5","7","6","stimuli/stars_7.png","30.5","[""AO"",""FO"",""HO"",""HE""]","[""BM03"",""HM07"",""WM13"",""WM07""]","[0,8,7,2]","[2,8,6,4]","","",""
"show-reward","26","701700","0.0-26.0","p726555","APQ5K76HIG41P","3RZS0FBRWLGDTA9TUPH81F59AWHPC0","33FBRBDW6Q5VA286YAKY4D584YCC8P","model","mismatch","uniform","","","","","","","","701406.9000000954","703420.9000000954","","","","","","","","","","","","7","","stimuli/stars_7.png","30.5","","","","","stimuli/WM13_HO.jpg","",""
"explore-choice","27","704007","0.0-27.0","p726555","APQ5K76HIG41P","3RZS0FBRWLGDTA9TUPH81F59AWHPC0","33FBRBDW6Q5VA286YAKY4D584YCC8P","model","mismatch","uniform","","","","","","","1795.4000000953674","703421.5","705216.9000000954","[""stimuli/BM03_AO.jpg"",""stimuli/HM07_HE.jpg"",""stimuli/WM07_FO.jpg"",""stimuli/WM13_HO.jpg""]","stimuli/BM03_AO.jpg","stimuli/HM07_HE.jpg","stimuli/WM07_FO.jpg","stimuli/WM13_HO.jpg","pos4","stimuli/WM13_HO.jpg","HO","WM13","3","3","6","6","stimuli/stars_6.png","33.5","[""AO"",""HE"",""FO"",""HO""]","[""BM03"",""HM07"",""WM07"",""WM13""]","[1,8,3,6]","[2,8,4,6]","","",""
"show-reward","28","706018","0.0-28.0","p726555","APQ5K76HIG41P","3RZS0FBRWLGDTA9TUPH81F59AWHPC0","33FBRBDW6Q5VA286YAKY4D584YCC8P","model","mismatch","uniform","","","","","","","","705729.4000000954","707738.7999999523","","","","","","","","","","","","6","","stimuli/stars_6.png","33.5","","","","","stimuli/WM13_HO.jpg","",""
"explore-choice","29","708329","0.0-29.0","p726555","APQ5K76HIG41P","3RZS0FBRWLGDTA9TUPH81F59AWHPC0","33FBRBDW6Q5VA286YAKY4D584YCC8P","model","mismatch","uniform","","","","","","","1804.8999998569489","707739.4000000954","709544.2999999523","[""stimuli/HM07_HO.jpg"",""stimuli/WM13_AO.jpg"",""stimuli/WM07_HE.jpg"",""stimuli/BM03_FO.jpg""]","stimuli/HM07_HO.jpg","stimuli/WM13_AO.jpg","stimuli/WM07_HE.jpg","stimuli/BM03_FO.jpg","pos1","stimuli/HM07_HO.jpg","HO","HM07","0","5","10","8","stimuli/stars_10.png","38.5","[""HO"",""AO"",""HE"",""FO""]","[""HM07"",""WM13"",""WM07"",""BM03""]","[10,6,3,0]","[8,6,4,2]","","",""
"show-reward","30","710337","0.0-30.0","p726555","APQ5K76HIG41P","3RZS0FBRWLGDTA9TUPH81F59AWHPC0","33FBRBDW6Q5VA286YAKY4D584YCC8P","model","mismatch","uniform","","","","","","","","710050.2000000477","712057.0999999046","","","","","","","","","","","","10","","stimuli/stars_10.png","38.5","","","","","stimuli/HM07_HO.jpg","",""
"explore-choice","31","712354","0.0-31.0","p726555","APQ5K76HIG41P","3RZS0FBRWLGDTA9TUPH81F59AWHPC0","33FBRBDW6Q5VA286YAKY4D584YCC8P","model","mismatch","uniform","","","","","","","1502.6000001430511","712057.5999999046","713560.2000000477","[""stimuli/WM13_HE.jpg"",""stimuli/BM03_HO.jpg"",""stimuli/HM07_FO.jpg"",""stimuli/WM07_AO.jpg""]","stimuli/WM13_HE.jpg","stimuli/BM03_HO.jpg","stimuli/HM07_FO.jpg","stimuli/WM07_AO.jpg","pos1","stimuli/WM13_HE.jpg","HE","WM13","0","3.5","7","6","stimuli/stars_7.png","42","[""HE"",""HO"",""FO"",""AO""]","[""WM13"",""BM03"",""HM07"",""WM07""]","[7,1,7,6]","[6,2,8,4]","","",""
"show-reward","32","714365","0.0-32.0","p726555","APQ5K76HIG41P","3RZS0FBRWLGDTA9TUPH81F59AWHPC0","33FBRBDW6Q5VA286YAKY4D584YCC8P","model","mismatch","uniform","","","","","","","","714075.2000000477","716085.2999999523","","","","","","","","","","","","7","","stimuli/stars_7.png","42","","","","","stimuli/WM13_HE.jpg","",""
"explore-choice","33","721207","0.0-33.0","p726555","APQ5K76HIG41P","3RZS0FBRWLGDTA9TUPH81F59AWHPC0","33FBRBDW6Q5VA286YAKY4D584YCC8P","model","mismatch","uniform","","","","","","","6338.399999856949","716085.9000000954","722424.2999999523","[""stimuli/WM13_AO.jpg"",""stimuli/WM07_FO.jpg"",""stimuli/HM07_HO.jpg"",""stimuli/BM03_HE.jpg""]","stimuli/WM13_AO.jpg","stimuli/WM07_FO.jpg","stimuli/HM07_HO.jpg","stimuli/BM03_HE.jpg","pos3","stimuli/HM07_HO.jpg","HO","HM07","2","4.5","9","8","stimuli/stars_9.png","46.5","[""AO"",""FO"",""HO"",""HE""]","[""WM13"",""WM07"",""HM07"",""BM03""]","[6,4,9,4]","[6,4,8,2]","","",""
"show-reward","34","723218","0.0-34.0","p726555","APQ5K76HIG41P","3RZS0FBRWLGDTA9TUPH81F59AWHPC0","33FBRBDW6Q5VA286YAKY4D584YCC8P","model","mismatch","uniform","","","","","","","","722928.7999999523","724939","","","","","","","","","","","","9","","stimuli/stars_9.png","46.5","","","","","stimuli/HM07_HO.jpg","",""
"explore-choice","35","725902","0.0-35.0","p726555","APQ5K76HIG41P","3RZS0FBRWLGDTA9TUPH81F59AWHPC0","33FBRBDW6Q5VA286YAKY4D584YCC8P","model","mismatch","uniform","","","","","","","2180.9000000953674","724939.5","727120.4000000954","[""stimuli/WM07_AO.jpg"",""stimuli/HM07_HE.jpg"",""stimuli/BM03_HO.jpg"",""stimuli/WM13_FO.jpg""]","stimuli/WM07_AO.jpg","stimuli/HM07_HE.jpg","stimuli/BM03_HO.jpg","stimuli/WM13_FO.jpg","pos2","stimuli/HM07_HE.jpg","HE","HM07","1","3.5","7","8","stimuli/stars_7.png","50","[""AO"",""HE"",""HO"",""FO""]","[""WM07"",""HM07"",""BM03"",""WM13""]","[4,7,4,7]","[4,8,2,6]","","",""
"show-reward","36","727916","0.0-36.0","p726555","APQ5K76HIG41P","3RZS0FBRWLGDTA9TUPH81F59AWHPC0","33FBRBDW6Q5VA286YAKY4D584YCC8P","model","mismatch","uniform","","","","","","","","727623.0999999046","729636.2000000477","","","","","","","","","","","","7","","stimuli/stars_7.png","50","","","","","stimuli/HM07_HE.jpg","",""
"explore-choice","37","730511","0.0-37.0","p726555","APQ5K76HIG41P","3RZS0FBRWLGDTA9TUPH81F59AWHPC0","33FBRBDW6Q5VA286YAKY4D584YCC8P","model","mismatch","uniform","","","","","","","2083.5","729636.7999999523","731720.2999999523","[""stimuli/HM07_FO.jpg"",""stimuli/WM13_HO.jpg"",""stimuli/BM03_HE.jpg"",""stimuli/WM07_AO.jpg""]","stimuli/HM07_FO.jpg","stimuli/WM13_HO.jpg","stimuli/BM03_HE.jpg","stimuli/WM07_AO.jpg","pos2","stimuli/WM13_HO.jpg","HO","WM13","1","2.5","5","6","stimuli/stars_5.png","52.5","[""FO"",""HO"",""HE"",""AO""]","[""HM07"",""WM13"",""BM03"",""WM07""]","[7,5,4,5]","[8,6,2,4]","","",""
"show-reward","38","732526","0.0-38.0","p726555","APQ5K76HIG41P","3RZS0FBRWLGDTA9TUPH81F59AWHPC0","33FBRBDW6Q5VA286YAKY4D584YCC8P","model","mismatch","uniform","","","","","","","","732232.7000000477","734246.5","","","","","","","","","","","","5","","stimuli/stars_5.png","52.5","","","","","stimuli/WM13_HO.jpg","",""
"explore-choice","39","735297","0.0-39.0","p726555","APQ5K76HIG41P","3RZS0FBRWLGDTA9TUPH81F59AWHPC0","33FBRBDW6Q5VA286YAKY4D584YCC8P","model","mismatch","uniform","","","","","","","2265.5999999046326","734248.2000000477","736513.7999999523","[""stimuli/WM07_AO.jpg"",""stimuli/BM03_FO.jpg"",""stimuli/WM13_HO.jpg"",""stimuli/HM07_HE.jpg""]","stimuli/WM07_AO.jpg","stimuli/BM03_FO.jpg","stimuli/WM13_HO.jpg","stimuli/HM07_HE.jpg","pos4","stimuli/HM07_HE.jpg","HE","HM07","3","4.5","9","8","stimuli/stars_9.png","57","[""AO"",""FO"",""HO"",""HE""]","[""WM07"",""BM03"",""WM13"",""HM07""]","[5,2,4,9]","[4,2,6,8]","","",""
"show-reward","40","737308","0.0-40.0","p726555","APQ5K76HIG41P","3RZS0FBRWLGDTA9TUPH81F59AWHPC0","33FBRBDW6Q5VA286YAKY4D584YCC8P","model","mismatch","uniform","","","","","","","","737017.9000000954","739028.5","","","","","","","","","","","","9","","stimuli/stars_9.png","57","","","","","stimuli/HM07_HE.jpg","",""
"explore-choice","41","739899","0.0-41.0","p726555","APQ5K76HIG41P","3RZS0FBRWLGDTA9TUPH81F59AWHPC0","33FBRBDW6Q5VA286YAKY4D584YCC8P","model","mismatch","uniform","","","","","","","2083.2000000476837","739031.7000000477","741114.9000000954","[""stimuli/WM07_FO.jpg"",""stimuli/HM07_AO.jpg"",""stimuli/WM13_HO.jpg"",""stimuli/BM03_HE.jpg""]","stimuli/WM07_FO.jpg","stimuli/HM07_AO.jpg","stimuli/WM13_HO.jpg","stimuli/BM03_HE.jpg","pos4","stimuli/BM03_HE.jpg","HE","BM03","3","1","2","2","stimuli/stars_2.png","58","[""FO"",""AO"",""HO"",""HE""]","[""WM07"",""HM07"",""WM13"",""BM03""]","[6,8,6,2]","[4,8,6,2]","","",""
"show-reward","42","741906","0.0-42.0","p726555","APQ5K76HIG41P","3RZS0FBRWLGDTA9TUPH81F59AWHPC0","33FBRBDW6Q5VA286YAKY4D584YCC8P","model","mismatch","uniform","","","","","","","","741620.5","743626.5","","","","","","","","","","","","2","","stimuli/stars_2.png","58","","","","","stimuli/BM03_HE.jpg","",""
"explore-choice","43","745511","0.0-43.0","p726555","APQ5K76HIG41P","3RZS0FBRWLGDTA9TUPH81F59AWHPC0","33FBRBDW6Q5VA286YAKY4D584YCC8P","model","mismatch","uniform","","","","","","","3102.0999999046326","743627","746729.0999999046","[""stimuli/HM07_AO.jpg"",""stimuli/WM07_HO.jpg"",""stimuli/BM03_HE.jpg"",""stimuli/WM13_FO.jpg""]","stimuli/HM07_AO.jpg","stimuli/WM07_HO.jpg","stimuli/BM03_HE.jpg","stimuli/WM13_FO.jpg","pos2","stimuli/WM07_HO.jpg","HO","WM07","1","3","6","4","stimuli/stars_6.png","61","[""AO"",""HO"",""HE"",""FO""]","[""HM07"",""WM07"",""BM03"",""WM13""]","[7,6,3,5]","[8,4,2,6]","","",""
"show-reward","44","747523","0.0-44.0","p726555","APQ5K76HIG41P","3RZS0FBRWLGDTA9TUPH81F59AWHPC0","33FBRBDW6Q5VA286YAKY4D584YCC8P","model","mismatch","uniform","","","","","","","","747232.4000000954","749243.2000000477","","","","","","","","","","","","6","","stimuli/stars_6.png","61","","","","","stimuli/WM07_HO.jpg","",""
"explore-choice","45","751877","0.0-45.0","p726555","APQ5K76HIG41P","3RZS0FBRWLGDTA9TUPH81F59AWHPC0","33FBRBDW6Q5VA286YAKY4D584YCC8P","model","mismatch","uniform","","","","","","","3844.5999999046326","749243.7000000477","753088.2999999523","[""stimuli/WM07_HE.jpg"",""stimuli/HM07_FO.jpg"",""stimuli/BM03_HO.jpg"",""stimuli/WM13_AO.jpg""]","stimuli/WM07_HE.jpg","stimuli/HM07_FO.jpg","stimuli/BM03_HO.jpg","stimuli/WM13_AO.jpg","pos1","stimuli/WM07_HE.jpg","HE","WM07","0","1","2","4","stimuli/stars_2.png","62","[""HE"",""FO"",""HO"",""AO""]","[""WM07"",""HM07"",""BM03"",""WM13""]","[2,7,3,4]","[4,8,2,6]","","",""
"show-reward","46","753892","0.0-46.0","p726555","APQ5K76HIG41P","3RZS0FBRWLGDTA9TUPH81F59AWHPC0","33FBRBDW6Q5VA286YAKY4D584YCC8P","model","mismatch","uniform","","","","","","","","753599.0999999046","755612.0999999046","","","","","","","","","","","","2","","stimuli/stars_2.png","62","","","","","stimuli/WM07_HE.jpg","",""
"explore-choice","47","756038","0.0-47.0","p726555","APQ5K76HIG41P","3RZS0FBRWLGDTA9TUPH81F59AWHPC0","33FBRBDW6Q5VA286YAKY4D584YCC8P","model","mismatch","uniform","","","","","","","1634.5999999046326","755614.5","757249.0999999046","[""stimuli/HM07_HO.jpg"",""stimuli/BM03_AO.jpg"",""stimuli/WM07_FO.jpg"",""stimuli/WM13_HE.jpg""]","stimuli/HM07_HO.jpg","stimuli/BM03_AO.jpg","stimuli/WM07_FO.jpg","stimuli/WM13_HE.jpg","pos1","stimuli/HM07_HO.jpg","HO","HM07","0","5","10","8","stimuli/stars_10.png","67","[""HO"",""AO"",""FO"",""HE""]","[""HM07"",""BM03"",""WM07"",""WM13""]","[10,3,6,6]","[8,2,4,6]","","",""
"show-reward","48","758049","0.0-48.0","p726555","APQ5K76HIG41P","3RZS0FBRWLGDTA9TUPH81F59AWHPC0","33FBRBDW6Q5VA286YAKY4D584YCC8P","model","mismatch","uniform","","","","","","","","757759.0999999046","759769.2000000477","","","","","","","","","","","","10","","stimuli/stars_10.png","67","","","","","stimuli/HM07_HO.jpg","",""
"explore-choice","49","760016","0.0-49.0","p726555","APQ5K76HIG41P","3RZS0FBRWLGDTA9TUPH81F59AWHPC0","33FBRBDW6Q5VA286YAKY4D584YCC8P","model","mismatch","uniform","","","","","","","1462.9000000953674","759769.7999999523","761232.7000000477","[""stimuli/WM07_FO.jpg"",""stimuli/BM03_HO.jpg"",""stimuli/WM13_AO.jpg"",""stimuli/HM07_HE.jpg""]","stimuli/WM07_FO.jpg","stimuli/BM03_HO.jpg","stimuli/WM13_AO.jpg","stimuli/HM07_HE.jpg","pos4","stimuli/HM07_HE.jpg","HE","HM07","3","5","10","8","stimuli/stars_10.png","72","[""FO"",""HO"",""AO"",""HE""]","[""WM07"",""BM03"",""WM13"",""HM07""]","[6,3,6,10]","[4,2,6,8]","","",""
"show-reward","50","762024","0.0-50.0","p726555","APQ5K76HIG41P","3RZS0FBRWLGDTA9TUPH81F59AWHPC0","33FBRBDW6Q5VA286YAKY4D584YCC8P","model","mismatch","uniform","","","","","","","","761736.7999999523","763744.2000000477","","","","","","","","","","","","10","","stimuli/stars_10.png","72","","","","","stimuli/HM07_HE.jpg","",""
"explore-choice","51","764594","0.0-51.0","p726555","APQ5K76HIG41P","3RZS0FBRWLGDTA9TUPH81F59AWHPC0","33FBRBDW6Q5VA286YAKY4D584YCC8P","model","mismatch","uniform","","","","","","","2056.2000000476837","763745","765801.2000000477","[""stimuli/BM03_FO.jpg"",""stimuli/WM07_HO.jpg"",""stimuli/HM07_HE.jpg"",""stimuli/WM13_AO.jpg""]","stimuli/BM03_FO.jpg","stimuli/WM07_HO.jpg","stimuli/HM07_HE.jpg","stimuli/WM13_AO.jpg","pos3","stimuli/HM07_HE.jpg","HE","HM07","2","3","6","8","stimuli/stars_6.png","75","[""FO"",""HO"",""HE"",""AO""]","[""BM03"",""WM07"",""HM07"",""WM13""]","[2,5,6,6]","[2,4,8,6]","","",""
"show-reward","52","766601","0.0-52.0","p726555","APQ5K76HIG41P","3RZS0FBRWLGDTA9TUPH81F59AWHPC0","33FBRBDW6Q5VA286YAKY4D584YCC8P","model","mismatch","uniform","","","","","","","","766315.4000000954","768321.4000000954","","","","","","","","","","","","6","","stimuli/stars_6.png","75","","","","","stimuli/HM07_HE.jpg","",""
"explore-choice","53","768804","0.0-53.0","p726555","APQ5K76HIG41P","3RZS0FBRWLGDTA9TUPH81F59AWHPC0","33FBRBDW6Q5VA286YAKY4D584YCC8P","model","mismatch","uniform","","","","","","","1694.5999999046326","768322","770016.5999999046","[""stimuli/WM07_HO.jpg"",""stimuli/WM13_AO.jpg"",""stimuli/BM03_HE.jpg"",""stimuli/HM07_FO.jpg""]","stimuli/WM07_HO.jpg","stimuli/WM13_AO.jpg","stimuli/BM03_HE.jpg","stimuli/HM07_FO.jpg","pos4","stimuli/HM07_FO.jpg","FO","HM07","3","3","6","8","stimuli/stars_6.png","78","[""HO"",""AO"",""HE"",""FO""]","[""WM07"",""WM13"",""BM03"",""HM07""]","[2,8,4,6]","[4,6,2,8]","","",""
"show-reward","54","770816","0.0-54.0","p726555","APQ5K76HIG41P","3RZS0FBRWLGDTA9TUPH81F59AWHPC0","33FBRBDW6Q5VA286YAKY4D584YCC8P","model","mismatch","uniform","","","","","","","","770525.4000000954","772536.5","","","","","","","","","","","","6","","stimuli/stars_6.png","78","","","","","stimuli/HM07_FO.jpg","",""
"explore-choice","55","772501","0.0-55.0","p726555","APQ5K76HIG41P","3RZS0FBRWLGDTA9TUPH81F59AWHPC0","33FBRBDW6Q5VA286YAKY4D584YCC8P","model","mismatch","uniform","","","","","","","1183","772537.0999999046","773720.0999999046","[""stimuli/HM07_FO.jpg"",""stimuli/WM13_AO.jpg"",""stimuli/BM03_HE.jpg"",""stimuli/WM07_HO.jpg""]","stimuli/HM07_FO.jpg","stimuli/WM13_AO.jpg","stimuli/BM03_HE.jpg","stimuli/WM07_HO.jpg","pos1","stimuli/HM07_FO.jpg","FO","HM07","0","3","6","8","stimuli/stars_6.png","81","[""FO"",""AO"",""HE"",""HO""]","[""HM07"",""WM13"",""BM03"",""WM07""]","[6,8,4,2]","[8,6,2,4]","","",""
"show-reward","56","774515","0.0-56.0","p726555","APQ5K76HIG41P","3RZS0FBRWLGDTA9TUPH81F59AWHPC0","33FBRBDW6Q5VA286YAKY4D584YCC8P","model","mismatch","uniform","","","","","","","","774222","776235.5","","","","","","","","","","","","6","","stimuli/stars_6.png","81","","","","","stimuli/HM07_FO.jpg","",""
"explore-choice","57","777919","0.0-57.0","p726555","APQ5K76HIG41P","3RZS0FBRWLGDTA9TUPH81F59AWHPC0","33FBRBDW6Q5VA286YAKY4D584YCC8P","model","mismatch","uniform","","","","","","","2900.0999999046326","776236.2000000477","779136.2999999523","[""stimuli/WM07_HO.jpg"",""stimuli/BM03_FO.jpg"",""stimuli/WM13_HE.jpg"",""stimuli/HM07_AO.jpg""]","stimuli/WM07_HO.jpg","stimuli/BM03_FO.jpg","stimuli/WM13_HE.jpg","stimuli/HM07_AO.jpg","pos4","stimuli/HM07_AO.jpg","AO","HM07","3","5","10","8","stimuli/stars_10.png","86","[""HO"",""FO"",""HE"",""AO""]","[""WM07"",""BM03"",""WM13"",""HM07""]","[3,4,7,10]","[4,2,6,8]","","",""
"show-reward","58","779930","0.0-58.0","p726555","APQ5K76HIG41P","3RZS0FBRWLGDTA9TUPH81F59AWHPC0","33FBRBDW6Q5VA286YAKY4D584YCC8P","model","mismatch","uniform","","","","","","","","779640.2000000477","781650.7000000477","","","","","","","","","","","","10","","stimuli/stars_10.png","86","","","","","stimuli/HM07_AO.jpg","",""
"explore-choice","59","786734","0.0-59.0","p726555","APQ5K76HIG41P","3RZS0FBRWLGDTA9TUPH81F59AWHPC0","33FBRBDW6Q5VA286YAKY4D584YCC8P","model","mismatch","uniform","","","","","","","6292.700000047684","781651.5","787944.2000000477","[""stimuli/WM07_HE.jpg"",""stimuli/BM03_FO.jpg"",""stimuli/WM13_HO.jpg"",""stimuli/HM07_AO.jpg""]","stimuli/WM07_HE.jpg","stimuli/BM03_FO.jpg","stimuli/WM13_HO.jpg","stimuli/HM07_AO.jpg","pos3","stimuli/WM13_HO.jpg","HO","WM13","2","2.5","5","6","stimuli/stars_5.png","88.5","[""HE"",""FO"",""HO"",""AO""]","[""WM07"",""BM03"",""WM13"",""HM07""]","[5,1,5,6]","[4,2,6,8]","","",""
"show-reward","60","788746","0.0-60.0","p726555","APQ5K76HIG41P","3RZS0FBRWLGDTA9TUPH81F59AWHPC0","33FBRBDW6Q5VA286YAKY4D584YCC8P","model","mismatch","uniform","","","","","","","","788455.4000000954","790466.2000000477","","","","","","","","","","","","5","","stimuli/stars_5.png","88.5","","","","","stimuli/WM13_HO.jpg","",""
"explore-choice","61","798311","0.0-61.0","p726555","APQ5K76HIG41P","3RZS0FBRWLGDTA9TUPH81F59AWHPC0","33FBRBDW6Q5VA286YAKY4D584YCC8P","model","mismatch","uniform","","","","","","","9061.299999952316","790466.9000000954","799528.2000000477","[""stimuli/WM13_FO.jpg"",""stimuli/BM03_AO.jpg"",""stimuli/HM07_HO.jpg"",""stimuli/WM07_HE.jpg""]","stimuli/WM13_FO.jpg","stimuli/BM03_AO.jpg","stimuli/HM07_HO.jpg","stimuli/WM07_HE.jpg","pos3","stimuli/HM07_HO.jpg","HO","HM07","2","3","6","8","stimuli/stars_6.png","91.5","[""FO"",""AO"",""HO"",""HE""]","[""WM13"",""BM03"",""HM07"",""WM07""]","[4,0,6,4]","[6,2,8,4]","","",""
"show-reward","62","800322","0.0-62.0","p726555","APQ5K76HIG41P","3RZS0FBRWLGDTA9TUPH81F59AWHPC0","33FBRBDW6Q5VA286YAKY4D584YCC8P","model","mismatch","uniform","","","","","","","","800032.5","802042.4000000954","","","","","","","","","","","","6","","stimuli/stars_6.png","91.5","","","","","stimuli/HM07_HO.jpg","",""
"explore-choice","63","803831","0.0-63.0","p726555","APQ5K76HIG41P","3RZS0FBRWLGDTA9TUPH81F59AWHPC0","33FBRBDW6Q5VA286YAKY4D584YCC8P","model","mismatch","uniform","","","","","","","3005.9000000953674","802043.0999999046","805049","[""stimuli/BM03_HO.jpg"",""stimuli/HM07_HE.jpg"",""stimuli/WM07_FO.jpg"",""stimuli/WM13_AO.jpg""]","stimuli/BM03_HO.jpg","stimuli/HM07_HE.jpg","stimuli/WM07_FO.jpg","stimuli/WM13_AO.jpg","pos2","stimuli/HM07_HE.jpg","HE","HM07","1","5","10","8","stimuli/stars_10.png","96.5","[""HO"",""HE"",""FO"",""AO""]","[""BM03"",""HM07"",""WM07"",""WM13""]","[3,10,6,6]","[2,8,4,6]","","",""
"show-reward","64","805845","0.0-64.0","p726555","APQ5K76HIG41P","3RZS0FBRWLGDTA9TUPH81F59AWHPC0","33FBRBDW6Q5VA286YAKY4D584YCC8P","model","mismatch","uniform","","","","","","","","805552.5","807564.5","","","","","","","","","","","","10","","stimuli/stars_10.png","96.5","","","","","stimuli/HM07_HE.jpg","",""
"explore-choice","65","809604","0.0-65.0","p726555","APQ5K76HIG41P","3RZS0FBRWLGDTA9TUPH81F59AWHPC0","33FBRBDW6Q5VA286YAKY4D584YCC8P","model","mismatch","uniform","","","","","","","3258.2999999523163","807565.9000000954","810824.2000000477","[""stimuli/WM07_FO.jpg"",""stimuli/WM13_HE.jpg"",""stimuli/BM03_HO.jpg"",""stimuli/HM07_AO.jpg""]","stimuli/WM07_FO.jpg","stimuli/WM13_HE.jpg","stimuli/BM03_HO.jpg","stimuli/HM07_AO.jpg","pos4","stimuli/HM07_AO.jpg","AO","HM07","3","4.5","9","8","stimuli/stars_9.png","101","[""FO"",""HE"",""HO"",""AO""]","[""WM07"",""WM13"",""BM03"",""HM07""]","[4,5,4,9]","[4,6,2,8]","","",""
"show-reward","66","811615","0.0-66.0","p726555","APQ5K76HIG41P","3RZS0FBRWLGDTA9TUPH81F59AWHPC0","33FBRBDW6Q5VA286YAKY4D584YCC8P","model","mismatch","uniform","","","","","","","","811325.5999999046","813335.2000000477","","","","","","","","","","","","9","","stimuli/stars_9.png","101","","","","","stimuli/HM07_AO.jpg","",""
"explore-choice","67","813751","0.0-67.0","p726555","APQ5K76HIG41P","3RZS0FBRWLGDTA9TUPH81F59AWHPC0","33FBRBDW6Q5VA286YAKY4D584YCC8P","model","mismatch","uniform","","","","","","","1631.8999998569489","813336.4000000954","814968.2999999523","[""stimuli/WM13_HE.jpg"",""stimuli/WM07_FO.jpg"",""stimuli/BM03_AO.jpg"",""stimuli/HM07_HO.jpg""]","stimuli/WM13_HE.jpg","stimuli/WM07_FO.jpg","stimuli/BM03_AO.jpg","stimuli/HM07_HO.jpg","pos4","stimuli/HM07_HO.jpg","HO","HM07","3","5","10","8","stimuli/stars_10.png","106","[""HE"",""FO"",""AO"",""HO""]","[""WM13"",""WM07"",""BM03"",""HM07""]","[6,6,3,10]","[6,4,2,8]","","",""
"show-reward","68","815754","0.0-68.0","p726555","APQ5K76HIG41P","3RZS0FBRWLGDTA9TUPH81F59AWHPC0","33FBRBDW6Q5VA286YAKY4D584YCC8P","model","mismatch","uniform","","","","","","","","815472.2000000477","817474.5","","","","","","","","","","","","10","","stimuli/stars_10.png","106","","","","","stimuli/HM07_HO.jpg","",""
"explore-choice","69","817722","0.0-69.0","p726555","APQ5K76HIG41P","3RZS0FBRWLGDTA9TUPH81F59AWHPC0","33FBRBDW6Q5VA286YAKY4D584YCC8P","model","mismatch","uniform","","","","","","","1453.6999998092651","817475.4000000954","818929.0999999046","[""stimuli/HM07_HE.jpg"",""stimuli/WM07_HO.jpg"",""stimuli/BM03_AO.jpg"",""stimuli/WM13_FO.jpg""]","stimuli/HM07_HE.jpg","stimuli/WM07_HO.jpg","stimuli/BM03_AO.jpg","stimuli/WM13_FO.jpg","pos1","stimuli/HM07_HE.jpg","HE","HM07","0","4","8","8","stimuli/stars_8.png","110","[""HE"",""HO"",""AO"",""FO""]","[""HM07"",""WM07"",""BM03"",""WM13""]","[8,6,0,7]","[8,4,2,6]","","",""
"show-reward","70","819732","0.0-70.0","p726555","APQ5K76HIG41P","3RZS0FBRWLGDTA9TUPH81F59AWHPC0","33FBRBDW6Q5VA286YAKY4D584YCC8P","model","mismatch","uniform","","","","","","","","819443.2999999523","821452.5999999046","","","","","","","","","","","","8","","stimuli/stars_8.png","110","","","","","stimuli/HM07_HE.jpg","",""
"explore-choice","71","821336","0.0-71.0","p726555","APQ5K76HIG41P","3RZS0FBRWLGDTA9TUPH81F59AWHPC0","33FBRBDW6Q5VA286YAKY4D584YCC8P","model","mismatch","uniform","","","","","","","1099.1000001430511","821453.5999999046","822552.7000000477","[""stimuli/HM07_HE.jpg"",""stimuli/WM13_FO.jpg"",""stimuli/WM07_AO.jpg"",""stimuli/BM03_HO.jpg""]","stimuli/HM07_HE.jpg","stimuli/WM13_FO.jpg","stimuli/WM07_AO.jpg","stimuli/BM03_HO.jpg","pos1","stimuli/HM07_HE.jpg","HE","HM07","0","3.5","7","8","stimuli/stars_7.png","113.5","[""HE"",""FO"",""AO"",""HO""]","[""HM07"",""WM13"",""WM07"",""BM03""]","[7,7,4,4]","[8,6,4,2]","","",""
"show-reward","72","823349","0.0-72.0","p726555","APQ5K76HIG41P","3RZS0FBRWLGDTA9TUPH81F59AWHPC0","33FBRBDW6Q5VA286YAKY4D584YCC8P","model","mismatch","uniform","","","","","","","","823056.9000000954","825069","","","","","","","","","","","","7","","stimuli/stars_7.png","113.5","","","","","stimuli/HM07_HE.jpg","",""
"explore-choice","73","825198","0.0-73.0","p726555","APQ5K76HIG41P","3RZS0FBRWLGDTA9TUPH81F59AWHPC0","33FBRBDW6Q5VA286YAKY4D584YCC8P","model","mismatch","uniform","","","","","","","1338.0999999046326","825070","826408.0999999046","[""stimuli/WM07_AO.jpg"",""stimuli/WM13_HO.jpg"",""stimuli/BM03_HE.jpg"",""stimuli/HM07_FO.jpg""]","stimuli/WM07_AO.jpg","stimuli/WM13_HO.jpg","stimuli/BM03_HE.jpg","stimuli/HM07_FO.jpg","pos4","stimuli/HM07_FO.jpg","FO","HM07","3","3.5","7","8","stimuli/stars_7.png","117","[""AO"",""HO"",""HE"",""FO""]","[""WM07"",""WM13"",""BM03"",""HM07""]","[5,5,4,7]","[4,6,2,8]","","",""
"show-reward","74","827214","0.0-74.0","p726555","APQ5K76HIG41P","3RZS0FBRWLGDTA9TUPH81F59AWHPC0","33FBRBDW6Q5VA286YAKY4D584YCC8P","model","mismatch","uniform","","","","","","","","826918.9000000954","828934.2999999523","","","","","","","","","","","","7","","stimuli/stars_7.png","117","","","","","stimuli/HM07_FO.jpg","",""
"explore-choice","75","829381","0.0-75.0","p726555","APQ5K76HIG41P","3RZS0FBRWLGDTA9TUPH81F59AWHPC0","33FBRBDW6Q5VA286YAKY4D584YCC8P","model","mismatch","uniform","","","","","","","1665.7999999523163","828934.7999999523","830600.5999999046","[""stimuli/WM07_HE.jpg"",""stimuli/HM07_HO.jpg"",""stimuli/BM03_FO.jpg"",""stimuli/WM13_AO.jpg""]","stimuli/WM07_HE.jpg","stimuli/HM07_HO.jpg","stimuli/BM03_FO.jpg","stimuli/WM13_AO.jpg","pos2","stimuli/HM07_HO.jpg","HO","HM07","1","5","10","8","stimuli/stars_10.png","122","[""HE"",""HO"",""FO"",""AO""]","[""WM07"",""HM07"",""BM03"",""WM13""]","[3,10,0,6]","[4,8,2,6]","","",""
"show-reward","76","831396","0.0-76.0","p726555","APQ5K76HIG41P","3RZS0FBRWLGDTA9TUPH81F59AWHPC0","33FBRBDW6Q5VA286YAKY4D584YCC8P","model","mismatch","uniform","","","","","","","","831101.5999999046","833116.5999999046","","","","","","","","","","","","10","","stimuli/stars_10.png","122","","","","","stimuli/HM07_HO.jpg","",""
"explore-choice","77","833154","0.0-77.0","p726555","APQ5K76HIG41P","3RZS0FBRWLGDTA9TUPH81F59AWHPC0","33FBRBDW6Q5VA286YAKY4D584YCC8P","model","mismatch","uniform","","","","","","","1242.7999999523163","833117.5","834360.2999999523","[""stimuli/HM07_FO.jpg"",""stimuli/BM03_HO.jpg"",""stimuli/WM07_HE.jpg"",""stimuli/WM13_AO.jpg""]","stimuli/HM07_FO.jpg","stimuli/BM03_HO.jpg","stimuli/WM07_HE.jpg","stimuli/WM13_AO.jpg","pos1","stimuli/HM07_FO.jpg","FO","HM07","0","3.5","7","8","stimuli/stars_7.png","125.5","[""FO"",""HO"",""HE"",""AO""]","[""HM07"",""BM03"",""WM07"",""WM13""]","[7,3,2,4]","[8,2,4,6]","","",""
"show-reward","78","835169","0.0-78.0","p726555","APQ5K76HIG41P","3RZS0FBRWLGDTA9TUPH81F59AWHPC0","33FBRBDW6Q5VA286YAKY4D584YCC8P","model","mismatch","uniform","","","","","","","","834875","836889","","","","","","","","","","","","7","","stimuli/stars_7.png","125.5","","","","","stimuli/HM07_FO.jpg","",""
"explore-choice","79","837364","0.0-79.0","p726555","APQ5K76HIG41P","3RZS0FBRWLGDTA9TUPH81F59AWHPC0","33FBRBDW6Q5VA286YAKY4D584YCC8P","model","mismatch","uniform","","","","","","","1686.7000000476837","836889.5","838576.2000000477","[""stimuli/WM13_HE.jpg"",""stimuli/WM07_HO.jpg"",""stimuli/BM03_AO.jpg"",""stimuli/HM07_FO.jpg""]","stimuli/WM13_HE.jpg","stimuli/WM07_HO.jpg","stimuli/BM03_AO.jpg","stimuli/HM07_FO.jpg","pos4","stimuli/HM07_FO.jpg","FO","HM07","3","4","8","8","stimuli/stars_8.png","129.5","[""HE"",""HO"",""AO"",""FO""]","[""WM13"",""WM07"",""BM03"",""HM07""]","[5,3,2,8]","[6,4,2,8]","","",""
"show-reward","80","839377","0.0-80.0","p726555","APQ5K76HIG41P","3RZS0FBRWLGDTA9TUPH81F59AWHPC0","33FBRBDW6Q5VA286YAKY4D584YCC8P","model","mismatch","uniform","","","","","","","","839084.7999999523","841097.7000000477","","","","","","","","","","","","8","","stimuli/stars_8.png","129.5","","","","","stimuli/HM07_FO.jpg","",""
"explore-choice","81","840999","0.0-81.0","p726555","APQ5K76HIG41P","3RZS0FBRWLGDTA9TUPH81F59AWHPC0","33FBRBDW6Q5VA286YAKY4D584YCC8P","model","mismatch","uniform","","","","","","","1109.5","841098.7999999523","842208.2999999523","[""stimuli/HM07_HO.jpg"",""stimuli/WM13_FO.jpg"",""stimuli/BM03_HE.jpg"",""stimuli/WM07_AO.jpg""]","stimuli/HM07_HO.jpg","stimuli/WM13_FO.jpg","stimuli/BM03_HE.jpg","stimuli/WM07_AO.jpg","pos1","stimuli/HM07_HO.jpg","HO","HM07","0","3","6","8","stimuli/stars_6.png","132.5","[""HO"",""FO"",""HE"",""AO""]","[""HM07"",""WM13"",""BM03"",""WM07""]","[6,7,4,5]","[8,6,2,4]","","",""
"show-reward","82","843011","0.0-82.0","p726555","APQ5K76HIG41P","3RZS0FBRWLGDTA9TUPH81F59AWHPC0","33FBRBDW6Q5VA286YAKY4D584YCC8P","model","mismatch","uniform","","","","","","","","842719.5","844731.0999999046","","","","","","","","","","","","6","","stimuli/stars_6.png","132.5","","","","","stimuli/HM07_HO.jpg","",""
"explore-choice","83","844263","0.0-83.0","p726555","APQ5K76HIG41P","3RZS0FBRWLGDTA9TUPH81F59AWHPC0","33FBRBDW6Q5VA286YAKY4D584YCC8P","model","mismatch","uniform","","","","","","","740.3999998569489","844731.9000000954","845472.2999999523","[""stimuli/HM07_HE.jpg"",""stimuli/WM07_FO.jpg"",""stimuli/WM13_HO.jpg"",""stimuli/BM03_AO.jpg""]","stimuli/HM07_HE.jpg","stimuli/WM07_FO.jpg","stimuli/WM13_HO.jpg","stimuli/BM03_AO.jpg","pos1","stimuli/HM07_HE.jpg","HE","HM07","0","4","8","8","stimuli/stars_8.png","136.5","[""HE"",""FO"",""HO"",""AO""]","[""HM07"",""WM07"",""WM13"",""BM03""]","[8,3,6,1]","[8,4,6,2]","","",""
"show-reward","84","846274","0.0-84.0","p726555","APQ5K76HIG41P","3RZS0FBRWLGDTA9TUPH81F59AWHPC0","33FBRBDW6Q5VA286YAKY4D584YCC8P","model","mismatch","uniform","","","","","","","","845984.2999999523","847994.2000000477","","","","","","","","","","","","8","","stimuli/stars_8.png","136.5","","","","","stimuli/HM07_HE.jpg","",""
"explore-choice","85","848728","0.0-85.0","p726555","APQ5K76HIG41P","3RZS0FBRWLGDTA9TUPH81F59AWHPC0","33FBRBDW6Q5VA286YAKY4D584YCC8P","model","mismatch","uniform","","","","","","","1941.5999999046326","847994.7000000477","849936.2999999523","[""stimuli/WM13_HO.jpg"",""stimuli/WM07_HE.jpg"",""stimuli/BM03_AO.jpg"",""stimuli/HM07_FO.jpg""]","stimuli/WM13_HO.jpg","stimuli/WM07_HE.jpg","stimuli/BM03_AO.jpg","stimuli/HM07_FO.jpg","pos4","stimuli/HM07_FO.jpg","FO","HM07","3","4","8","8","stimuli/stars_8.png","140.5","[""HO"",""HE"",""AO"",""FO""]","[""WM13"",""WM07"",""BM03"",""HM07""]","[7,2,0,8]","[6,4,2,8]","","",""
"show-reward","86","850744","0.0-86.0","p726555","APQ5K76HIG41P","3RZS0FBRWLGDTA9TUPH81F59AWHPC0","33FBRBDW6Q5VA286YAKY4D584YCC8P","model","mismatch","uniform","","","","","","","","850450.2999999523","852464.2999999523","","","","","","","","","","","","8","","stimuli/stars_8.png","140.5","","","","","stimuli/HM07_FO.jpg","",""
"explore-choice","87","852589","0.0-87.0","p726555","APQ5K76HIG41P","3RZS0FBRWLGDTA9TUPH81F59AWHPC0","33FBRBDW6Q5VA286YAKY4D584YCC8P","model","mismatch","uniform","","","","","","","1343","852465.5","853808.5","[""stimuli/WM13_AO.jpg"",""stimuli/HM07_HO.jpg"",""stimuli/WM07_FO.jpg"",""stimuli/BM03_HE.jpg""]","stimuli/WM13_AO.jpg","stimuli/HM07_HO.jpg","stimuli/WM07_FO.jpg","stimuli/BM03_HE.jpg","pos2","stimuli/HM07_HO.jpg","HO","HM07","1","4.5","9","8","stimuli/stars_9.png","145","[""AO"",""HO"",""FO"",""HE""]","[""WM13"",""HM07"",""WM07"",""BM03""]","[6,9,4,4]","[6,8,4,2]","","",""
"show-reward","88","854600","0.0-88.0","p726555","APQ5K76HIG41P","3RZS0FBRWLGDTA9TUPH81F59AWHPC0","33FBRBDW6Q5VA286YAKY4D584YCC8P","model","mismatch","uniform","","","","","","","","854310.4000000954","856320","","","","","","","","","","","","9","","stimuli/stars_9.png","145","","","","","stimuli/HM07_HO.jpg","",""
"explore-choice","89","858119","0.0-89.0","p726555","APQ5K76HIG41P","3RZS0FBRWLGDTA9TUPH81F59AWHPC0","33FBRBDW6Q5VA286YAKY4D584YCC8P","model","mismatch","uniform","","","","","","","2999.5999999046326","856320.7000000477","859320.2999999523","[""stimuli/HM07_AO.jpg"",""stimuli/WM07_HO.jpg"",""stimuli/WM13_FO.jpg"",""stimuli/BM03_HE.jpg""]","stimuli/HM07_AO.jpg","stimuli/WM07_HO.jpg","stimuli/WM13_FO.jpg","stimuli/BM03_HE.jpg","pos1","stimuli/HM07_AO.jpg","AO","HM07","0","3.5","7","8","stimuli/stars_7.png","148.5","[""AO"",""HO"",""FO"",""HE""]","[""HM07"",""WM07"",""WM13"",""BM03""]","[7,6,5,3]","[8,4,6,2]","","",""
"show-reward","90","860130","0.0-90.0","p726555","APQ5K76HIG41P","3RZS0FBRWLGDTA9TUPH81F59AWHPC0","33FBRBDW6Q5VA286YAKY4D584YCC8P","model","mismatch","uniform","","","","","","","","859840","861850.5","","","","","","","","","","","","7","","stimuli/stars_7.png","148.5","","","","","stimuli/HM07_AO.jpg","",""
"explore-choice","91","864985","0.0-91.0","p726555","APQ5K76HIG41P","3RZS0FBRWLGDTA9TUPH81F59AWHPC0","33FBRBDW6Q5VA286YAKY4D584YCC8P","model","mismatch","uniform","","","","","","","4340.299999952316","861852","866192.2999999523","[""stimuli/BM03_FO.jpg"",""stimuli/WM13_HO.jpg"",""stimuli/HM07_HE.jpg"",""stimuli/WM07_AO.jpg""]","stimuli/BM03_FO.jpg","stimuli/WM13_HO.jpg","stimuli/HM07_HE.jpg","stimuli/WM07_AO.jpg","pos3","stimuli/HM07_HE.jpg","HE","HM07","2","4.5","9","8","stimuli/stars_9.png","153","[""FO"",""HO"",""HE"",""AO""]","[""BM03"",""WM13"",""HM07"",""WM07""]","[2,4,9,5]","[2,6,8,4]","","",""
"show-reward","92","866995","0.0-92.0","p726555","APQ5K76HIG41P","3RZS0FBRWLGDTA9TUPH81F59AWHPC0","33FBRBDW6Q5VA286YAKY4D584YCC8P","model","mismatch","uniform","","","","","","","","866705.7999999523","868715.2999999523","","","","","","","","","","","","9","","stimuli/stars_9.png","153","","","","","stimuli/HM07_HE.jpg","",""
"explore-choice","93","869727","0.0-93.0","p726555","APQ5K76HIG41P","3RZS0FBRWLGDTA9TUPH81F59AWHPC0","33FBRBDW6Q5VA286YAKY4D584YCC8P","model","mismatch","uniform","","","","","","","2197.4000000953674","868715.7999999523","870913.2000000477","[""stimuli/WM13_HE.jpg"",""stimuli/WM07_AO.jpg"",""stimuli/BM03_HO.jpg"",""stimuli/HM07_FO.jpg""]","stimuli/WM13_HE.jpg","stimuli/WM07_AO.jpg","stimuli/BM03_HO.jpg","stimuli/HM07_FO.jpg","pos4","stimuli/HM07_FO.jpg","FO","HM07","3","3.5","7","8","stimuli/stars_7.png","156.5","[""HE"",""AO"",""HO"",""FO""]","[""WM13"",""WM07"",""BM03"",""HM07""]","[7,6,1,7]","[6,4,2,8]","","",""
"show-reward","94","871738","0.0-94.0","p726555","APQ5K76HIG41P","3RZS0FBRWLGDTA9TUPH81F59AWHPC0","33FBRBDW6Q5VA286YAKY4D584YCC8P","model","mismatch","uniform","","","","","","","","871448.4000000954","873458.5999999046","","","","","","","","","","","","7","","stimuli/stars_7.png","156.5","","","","","stimuli/HM07_FO.jpg","",""
"explore-choice","95","879678","0.0-95.0","p726555","APQ5K76HIG41P","3RZS0FBRWLGDTA9TUPH81F59AWHPC0","33FBRBDW6Q5VA286YAKY4D584YCC8P","model","mismatch","uniform","","","","","","","7429.700000047684","873459.0999999046","880888.7999999523","[""stimuli/BM03_FO.jpg"",""stimuli/HM07_HE.jpg"",""stimuli/WM13_AO.jpg"",""stimuli/WM07_HO.jpg""]","stimuli/BM03_FO.jpg","stimuli/HM07_HE.jpg","stimuli/WM13_AO.jpg","stimuli/WM07_HO.jpg","pos2","stimuli/HM07_HE.jpg","HE","HM07","1","3","6","8","stimuli/stars_6.png","159.5","[""FO"",""HE"",""AO"",""HO""]","[""BM03"",""HM07"",""WM13"",""WM07""]","[2,6,6,5]","[2,8,6,4]","","",""
"show-reward","96","881690","0.0-96.0","p726555","APQ5K76HIG41P","3RZS0FBRWLGDTA9TUPH81F59AWHPC0","33FBRBDW6Q5VA286YAKY4D584YCC8P","model","mismatch","uniform","","","","","","","","881399.5999999046","883410.2000000477","","","","","","","","","","","","6","","stimuli/stars_6.png","159.5","","","","","stimuli/HM07_HE.jpg","",""
"explore-choice","97","888110","0.0-97.0","p726555","APQ5K76HIG41P","3RZS0FBRWLGDTA9TUPH81F59AWHPC0","33FBRBDW6Q5VA286YAKY4D584YCC8P","model","mismatch","uniform","","","","","","","5909.399999856949","883410.9000000954","889320.2999999523","[""stimuli/BM03_FO.jpg"",""stimuli/WM13_HE.jpg"",""stimuli/HM07_HO.jpg"",""stimuli/WM07_AO.jpg""]","stimuli/BM03_FO.jpg","stimuli/WM13_HE.jpg","stimuli/HM07_HO.jpg","stimuli/WM07_AO.jpg","pos3","stimuli/HM07_HO.jpg","HO","HM07","2","4.5","9","8","stimuli/stars_9.png","164","[""FO"",""HE"",""HO"",""AO""]","[""BM03"",""WM13"",""HM07"",""WM07""]","[3,5,9,3]","[2,6,8,4]","","",""
"show-reward","98","890122","0.0-98.0","p726555","APQ5K76HIG41P","3RZS0FBRWLGDTA9TUPH81F59AWHPC0","33FBRBDW6Q5VA286YAKY4D584YCC8P","model","mismatch","uniform","","","","","","","","889831.2000000477","891842.2999999523","","","","","","","","","","","","9","","stimuli/stars_9.png","164","","","","","stimuli/HM07_HO.jpg","",""
"explore-choice","99","894814","0.0-99.0","p726555","APQ5K76HIG41P","3RZS0FBRWLGDTA9TUPH81F59AWHPC0","33FBRBDW6Q5VA286YAKY4D584YCC8P","model","mismatch","uniform","","","","","","","4190.599999904633","891842.9000000954","896033.5","[""stimuli/HM07_AO.jpg"",""stimuli/WM07_FO.jpg"",""stimuli/BM03_HE.jpg"",""stimuli/WM13_HO.jpg""]","stimuli/HM07_AO.jpg","stimuli/WM07_FO.jpg","stimuli/BM03_HE.jpg","stimuli/WM13_HO.jpg","pos1","stimuli/HM07_AO.jpg","AO","HM07","0","4","8","8","stimuli/stars_8.png","168","[""AO"",""FO"",""HE"",""HO""]","[""HM07"",""WM07"",""BM03"",""WM13""]","[8,6,2,6]","[8,4,2,6]","","",""
"show-reward","100","896831","0.0-100.0","p726555","APQ5K76HIG41P","3RZS0FBRWLGDTA9TUPH81F59AWHPC0","33FBRBDW6Q5VA286YAKY4D584YCC8P","model","mismatch","uniform","","","","","","","","896535","898551.4000000954","","","","","","","","","","","","8","","stimuli/stars_8.png","168","","","","","stimuli/HM07_AO.jpg","",""
"explore-choice","101","898405","0.0-101.0","p726555","APQ5K76HIG41P","3RZS0FBRWLGDTA9TUPH81F59AWHPC0","33FBRBDW6Q5VA286YAKY4D584YCC8P","model","mismatch","uniform","","","","","","","1064.4000000953674","898552","899616.4000000954","[""stimuli/BM03_HO.jpg"",""stimuli/WM13_FO.jpg"",""stimuli/WM07_HE.jpg"",""stimuli/HM07_AO.jpg""]","stimuli/BM03_HO.jpg","stimuli/WM13_FO.jpg","stimuli/WM07_HE.jpg","stimuli/HM07_AO.jpg","pos4","stimuli/HM07_AO.jpg","AO","HM07","3","4.5","9","8","stimuli/stars_9.png","172.5","[""HO"",""FO"",""HE"",""AO""]","[""BM03"",""WM13"",""WM07"",""HM07""]","[3,4,5,9]","[2,6,4,8]","","",""
"show-reward","102","900418","0.0-102.0","p726555","APQ5K76HIG41P","3RZS0FBRWLGDTA9TUPH81F59AWHPC0","33FBRBDW6Q5VA286YAKY4D584YCC8P","model","mismatch","uniform","","","","","","","","900126.0999999046","902138.2000000477","","","","","","","","","","","","9","","stimuli/stars_9.png","172.5","","","","","stimuli/HM07_AO.jpg","",""
"explore-choice","103","908866","0.0-103.0","p726555","APQ5K76HIG41P","3RZS0FBRWLGDTA9TUPH81F59AWHPC0","33FBRBDW6Q5VA286YAKY4D584YCC8P","model","mismatch","uniform","","","","","","","7934","902138.7999999523","910072.7999999523","[""stimuli/HM02_SC.jpg"",""stimuli/AF10_SUR.jpg"",""stimuli/HF04_CC.jpg"",""stimuli/BM16_DO.jpg""]","stimuli/HM02_SC.jpg","stimuli/AF10_SUR.jpg","stimuli/HF04_CC.jpg","stimuli/BM16_DO.jpg","pos3","stimuli/HF04_CC.jpg","CC","HF04","2","0","0","2","stimuli/stars_0.png","172.5","[""SC"",""SUR"",""CC"",""DO""]","[""HM02"",""AF10"",""HF04"",""BM16""]","[7,6,0,4]","[8,4,2,6]","","",""
"show-reward","104","910879","0.0-104.0","p726555","APQ5K76HIG41P","3RZS0FBRWLGDTA9TUPH81F59AWHPC0","33FBRBDW6Q5VA286YAKY4D584YCC8P","model","mismatch","uniform","","","","","","","","910587.4000000954","912599.9000000954","","","","","","","","","","","","0","","stimuli/stars_0.png","172.5","","","","","stimuli/HF04_CC.jpg","",""
"explore-choice","105","914313","0.0-105.0","p726555","APQ5K76HIG41P","3RZS0FBRWLGDTA9TUPH81F59AWHPC0","33FBRBDW6Q5VA286YAKY4D584YCC8P","model","mismatch","uniform","","","","","","","2928.5999999046326","912600.4000000954","915529","[""stimuli/AF10_SC.jpg"",""stimuli/HF04_SUR.jpg"",""stimuli/HM02_DO.jpg"",""stimuli/BM16_CC.jpg""]","stimuli/AF10_SC.jpg","stimuli/HF04_SUR.jpg","stimuli/HM02_DO.jpg","stimuli/BM16_CC.jpg","pos1","stimuli/AF10_SC.jpg","SC","AF10","0","3.5","7","8","stimuli/stars_7.png","176","[""SC"",""SUR"",""DO"",""CC""]","[""AF10"",""HF04"",""HM02"",""BM16""]","[7,3,4,3]","[8,4,6,2]","","",""
"show-reward","106","916322","0.0-106.0","p726555","APQ5K76HIG41P","3RZS0FBRWLGDTA9TUPH81F59AWHPC0","33FBRBDW6Q5VA286YAKY4D584YCC8P","model","mismatch","uniform","","","","","","","","916034.2000000477","918042.2999999523","","","","","","","","","","","","7","","stimuli/stars_7.png","176","","","","","stimuli/AF10_SC.jpg","",""
"explore-choice","107","918263","0.0-107.0","p726555","APQ5K76HIG41P","3RZS0FBRWLGDTA9TUPH81F59AWHPC0","33FBRBDW6Q5VA286YAKY4D584YCC8P","model","mismatch","uniform","","","","","","","1440.0999999046326","918043","919483.0999999046","[""stimuli/AF10_DO.jpg"",""stimuli/HM02_SUR.jpg"",""stimuli/BM16_CC.jpg"",""stimuli/HF04_SC.jpg""]","stimuli/AF10_DO.jpg","stimuli/HM02_SUR.jpg","stimuli/BM16_CC.jpg","stimuli/HF04_SC.jpg","pos3","stimuli/BM16_CC.jpg","CC","BM16","2","1.5","3","2","stimuli/stars_3.png","177.5","[""DO"",""SUR"",""CC"",""SC""]","[""AF10"",""HM02"",""BM16"",""HF04""]","[5,4,3,9]","[6,4,2,8]","","",""
"show-reward","108","920280","0.0-108.0","p726555","APQ5K76HIG41P","3RZS0FBRWLGDTA9TUPH81F59AWHPC0","33FBRBDW6Q5VA286YAKY4D584YCC8P","model","mismatch","uniform","","","","","","","","919984.2999999523","922000","","","","","","","","","","","","3","","stimuli/stars_3.png","177.5","","","","","stimuli/BM16_CC.jpg","",""
"explore-choice","109","923880","0.0-109.0","p726555","APQ5K76HIG41P","3RZS0FBRWLGDTA9TUPH81F59AWHPC0","33FBRBDW6Q5VA286YAKY4D584YCC8P","model","mismatch","uniform","","","","","","","3098.7000000476837","922000.7999999523","925099.5","[""stimuli/BM16_SUR.jpg"",""stimuli/AF10_DO.jpg"",""stimuli/HM02_SC.jpg"",""stimuli/HF04_CC.jpg""]","stimuli/BM16_SUR.jpg","stimuli/AF10_DO.jpg","stimuli/HM02_SC.jpg","stimuli/HF04_CC.jpg","pos3","stimuli/HM02_SC.jpg","SC","HM02","2","4.5","9","8","stimuli/stars_9.png","182","[""SUR"",""DO"",""SC"",""CC""]","[""BM16"",""AF10"",""HM02"",""HF04""]","[4,6,9,2]","[4,6,8,2]","","",""
"show-reward","110","925890","0.0-110.0","p726555","APQ5K76HIG41P","3RZS0FBRWLGDTA9TUPH81F59AWHPC0","33FBRBDW6Q5VA286YAKY4D584YCC8P","model","mismatch","uniform","","","","","","","","925601.0999999046","927610.5","","","","","","","","","","","","9","","stimuli/stars_9.png","182","","","","","stimuli/HM02_SC.jpg","",""
"explore-choice","111","927447","0.0-111.0","p726555","APQ5K76HIG41P","3RZS0FBRWLGDTA9TUPH81F59AWHPC0","33FBRBDW6Q5VA286YAKY4D584YCC8P","model","mismatch","uniform","","","","","","","1054.1000001430511","927611.0999999046","928665.2000000477","[""stimuli/AF10_CC.jpg"",""stimuli/HF04_SUR.jpg"",""stimuli/HM02_SC.jpg"",""stimuli/BM16_DO.jpg""]","stimuli/AF10_CC.jpg","stimuli/HF04_SUR.jpg","stimuli/HM02_SC.jpg","stimuli/BM16_DO.jpg","pos3","stimuli/HM02_SC.jpg","SC","HM02","2","4","8","8","stimuli/stars_8.png","186","[""CC"",""SUR"",""SC"",""DO""]","[""AF10"",""HF04"",""HM02"",""BM16""]","[1,2,8,8]","[2,4,8,6]","","",""
"show-reward","112","929461","0.0-112.0","p726555","APQ5K76HIG41P","3RZS0FBRWLGDTA9TUPH81F59AWHPC0","33FBRBDW6Q5VA286YAKY4D584YCC8P","model","mismatch","uniform","","","","","","","","929168.2000000477","931181.5","","","","","","","","","","","","8","","stimuli/stars_8.png","186","","","","","stimuli/HM02_SC.jpg","",""
"explore-choice","113","930965","0.0-113.0","p726555","APQ5K76HIG41P","3RZS0FBRWLGDTA9TUPH81F59AWHPC0","33FBRBDW6Q5VA286YAKY4D584YCC8P","model","mismatch","uniform","","","","","","","1001.9000000953674","931182.5","932184.4000000954","[""stimuli/AF10_CC.jpg"",""stimuli/BM16_SC.jpg"",""stimuli/HM02_DO.jpg"",""stimuli/HF04_SUR.jpg""]","stimuli/AF10_CC.jpg","stimuli/BM16_SC.jpg","stimuli/HM02_DO.jpg","stimuli/HF04_SUR.jpg","pos3","stimuli/HM02_DO.jpg","DO","HM02","2","2.5","5","6","stimuli/stars_5.png","188.5","[""CC"",""SC"",""DO"",""SUR""]","[""AF10"",""BM16"",""HM02"",""HF04""]","[2,9,5,6]","[2,8,6,4]","","",""
"show-reward","114","932978","0.0-114.0","p726555","APQ5K76HIG41P","3RZS0FBRWLGDTA9TUPH81F59AWHPC0","33FBRBDW6Q5VA286YAKY4D584YCC8P","model","mismatch","uniform","","","","","","","","932686.4000000954","934695.7999999523","","","","","","","","","","","","5","","stimuli/stars_5.png","188.5","","","","","stimuli/HM02_DO.jpg","",""
"explore-choice","115","934751","0.0-115.0","p726555","APQ5K76HIG41P","3RZS0FBRWLGDTA9TUPH81F59AWHPC0","33FBRBDW6Q5VA286YAKY4D584YCC8P","model","mismatch","uniform","","","","","","","1269.5","934698.9000000954","935968.4000000954","[""stimuli/AF10_DO.jpg"",""stimuli/HF04_SC.jpg"",""stimuli/BM16_SUR.jpg"",""stimuli/HM02_CC.jpg""]","stimuli/AF10_DO.jpg","stimuli/HF04_SC.jpg","stimuli/BM16_SUR.jpg","stimuli/HM02_CC.jpg","pos4","stimuli/HM02_CC.jpg","CC","HM02","3","0.5","1","2","stimuli/stars_1.png","189","[""DO"",""SC"",""SUR"",""CC""]","[""AF10"",""HF04"",""BM16"",""HM02""]","[5,10,5,1]","[6,8,4,2]","","",""
"show-reward","116","936764","0.0-116.0","p726555","APQ5K76HIG41P","3RZS0FBRWLGDTA9TUPH81F59AWHPC0","33FBRBDW6Q5VA286YAKY4D584YCC8P","model","mismatch","uniform","","","","","","","","936471.7999999523","938484.5999999046","","","","","","","","","","","","1","","stimuli/stars_1.png","189","","","","","stimuli/HM02_CC.jpg","",""
"explore-choice","117","938928","0.0-117.0","p726555","APQ5K76HIG41P","3RZS0FBRWLGDTA9TUPH81F59AWHPC0","33FBRBDW6Q5VA286YAKY4D584YCC8P","model","mismatch","uniform","","","","","","","1658.7000000476837","938485.5999999046","940144.2999999523","[""stimuli/HM02_DO.jpg"",""stimuli/BM16_SUR.jpg"",""stimuli/AF10_SC.jpg"",""stimuli/HF04_CC.jpg""]","stimuli/HM02_DO.jpg","stimuli/BM16_SUR.jpg","stimuli/AF10_SC.jpg","stimuli/HF04_CC.jpg","pos1","stimuli/HM02_DO.jpg","DO","HM02","0","2","4","6","stimuli/stars_4.png","191","[""DO"",""SUR"",""SC"",""CC""]","[""HM02"",""BM16"",""AF10"",""HF04""]","[4,6,8,0]","[6,4,8,2]","","",""
"show-reward","118","940941","0.0-118.0","p726555","APQ5K76HIG41P","3RZS0FBRWLGDTA9TUPH81F59AWHPC0","33FBRBDW6Q5VA286YAKY4D584YCC8P","model","mismatch","uniform","","","","","","","","940648.9000000954","942661.7999999523","","","","","","","","","","","","4","","stimuli/stars_4.png","191","","","","","stimuli/HM02_DO.jpg","",""
"explore-choice","119","942459","0.0-119.0","p726555","APQ5K76HIG41P","3RZS0FBRWLGDTA9TUPH81F59AWHPC0","33FBRBDW6Q5VA286YAKY4D584YCC8P","model","mismatch","uniform","","","","","","","1002.9000000953674","942662.5999999046","943665.5","[""stimuli/HF04_SUR.jpg"",""stimuli/BM16_CC.jpg"",""stimuli/AF10_DO.jpg"",""stimuli/HM02_SC.jpg""]","stimuli/HF04_SUR.jpg","stimuli/BM16_CC.jpg","stimuli/AF10_DO.jpg","stimuli/HM02_SC.jpg","pos3","stimuli/AF10_DO.jpg","DO","AF10","2","4","8","6","stimuli/stars_8.png","195","[""SUR"",""CC"",""DO"",""SC""]","[""HF04"",""BM16"",""AF10"",""HM02""]","[5,4,8,7]","[4,2,6,8]","","",""
"show-reward","120","944469","0.0-120.0","p726555","APQ5K76HIG41P","3RZS0FBRWLGDTA9TUPH81F59AWHPC0","33FBRBDW6Q5VA286YAKY4D584YCC8P","model","mismatch","uniform","","","","","","","","944181.4000000954","946189.2999999523","","","","","","","","","","","","8","","stimuli/stars_8.png","195","","","","","stimuli/AF10_DO.jpg","",""
"explore-choice","121","946616","0.0-121.0","p726555","APQ5K76HIG41P","3RZS0FBRWLGDTA9TUPH81F59AWHPC0","33FBRBDW6Q5VA286YAKY4D584YCC8P","model","mismatch","uniform","","","","","","","1634.1000001430511","946190.0999999046","947824.2000000477","[""stimuli/HM02_SUR.jpg"",""stimuli/HF04_DO.jpg"",""stimuli/BM16_CC.jpg"",""stimuli/AF10_SC.jpg""]","stimuli/HM02_SUR.jpg","stimuli/HF04_DO.jpg","stimuli/BM16_CC.jpg","stimuli/AF10_SC.jpg","pos4","stimuli/AF10_SC.jpg","SC","AF10","3","4.5","9","8","stimuli/stars_9.png","199.5","[""SUR"",""DO"",""CC"",""SC""]","[""HM02"",""HF04"",""BM16"",""AF10""]","[5,7,3,9]","[4,6,2,8]","","",""
"show-reward","122","948627","0.0-122.0","p726555","APQ5K76HIG41P","3RZS0FBRWLGDTA9TUPH81F59AWHPC0","33FBRBDW6Q5VA286YAKY4D584YCC8P","model","mismatch","uniform","","","","","","","","948337.0999999046","950347.2999999523","","","","","","","","","","","","9","","stimuli/stars_9.png","199.5","","","","","stimuli/AF10_SC.jpg","",""
"explore-choice","123","954569","0.0-123.0","p726555","APQ5K76HIG41P","3RZS0FBRWLGDTA9TUPH81F59AWHPC0","33FBRBDW6Q5VA286YAKY4D584YCC8P","model","mismatch","uniform","","","","","","","5427.5","950348.7999999523","955776.2999999523","[""stimuli/HF04_CC.jpg"",""stimuli/BM16_SC.jpg"",""stimuli/HM02_DO.jpg"",""stimuli/AF10_SUR.jpg""]","stimuli/HF04_CC.jpg","stimuli/BM16_SC.jpg","stimuli/HM02_DO.jpg","stimuli/AF10_SUR.jpg","pos4","stimuli/AF10_SUR.jpg","SUR","AF10","3","3","6","4","stimuli/stars_6.png","202.5","[""CC"",""SC"",""DO"",""SUR""]","[""HF04"",""BM16"",""HM02"",""AF10""]","[0,9,4,6]","[2,8,6,4]","","",""
"show-reward","124","956579","0.0-124.0","p726555","APQ5K76HIG41P","3RZS0FBRWLGDTA9TUPH81F59AWHPC0","33FBRBDW6Q5VA286YAKY4D584YCC8P","model","mismatch","uniform","","","","","","","","956290.2000000477","958299.5","","","","","","","","","","","","6","","stimuli/stars_6.png","202.5","","","","","stimuli/AF10_SUR.jpg","",""
"explore-choice","125","961529","0.0-125.0","p726555","APQ5K76HIG41P","3RZS0FBRWLGDTA9TUPH81F59AWHPC0","33FBRBDW6Q5VA286YAKY4D584YCC8P","model","mismatch","uniform","","","","","","","4444.100000143051","958300.0999999046","962744.2000000477","[""stimuli/BM16_DO.jpg"",""stimuli/HF04_SC.jpg"",""stimuli/HM02_SUR.jpg"",""stimuli/AF10_CC.jpg""]","stimuli/BM16_DO.jpg","stimuli/HF04_SC.jpg","stimuli/HM02_SUR.jpg","stimuli/AF10_CC.jpg","pos4","stimuli/AF10_CC.jpg","CC","AF10","3","2","4","2","stimuli/stars_4.png","204.5","[""DO"",""SC"",""SUR"",""CC""]","[""BM16"",""HF04"",""HM02"",""AF10""]","[4,10,6,4]","[6,8,4,2]","","",""
"show-reward","126","963539","0.0-126.0","p726555","APQ5K76HIG41P","3RZS0FBRWLGDTA9TUPH81F59AWHPC0","33FBRBDW6Q5VA286YAKY4D584YCC8P","model","mismatch","uniform","","","","","","","","963251.0999999046","965260.2000000477","","","","","","","","","","","","4","","stimuli/stars_4.png","204.5","","","","","stimuli/AF10_CC.jpg","",""
"explore-choice","127","965669","0.0-127.0","p726555","APQ5K76HIG41P","3RZS0FBRWLGDTA9TUPH81F59AWHPC0","33FBRBDW6Q5VA286YAKY4D584YCC8P","model","mismatch","uniform","","","","","","","1621.7999999523163","965260.7000000477","966882.5","[""stimuli/BM16_CC.jpg"",""stimuli/AF10_SUR.jpg"",""stimuli/HM02_DO.jpg"",""stimuli/HF04_SC.jpg""]","stimuli/BM16_CC.jpg","stimuli/AF10_SUR.jpg","stimuli/HM02_DO.jpg","stimuli/HF04_SC.jpg","pos2","stimuli/AF10_SUR.jpg","SUR","AF10","1","1","2","4","stimuli/stars_2.png","205.5","[""CC"",""SUR"",""DO"",""SC""]","[""BM16"",""AF10"",""HM02"",""HF04""]","[1,2,7,6]","[2,4,6,8]","","",""
"show-reward","128","967682","0.0-128.0","p726555","APQ5K76HIG41P","3RZS0FBRWLGDTA9TUPH81F59AWHPC0","33FBRBDW6Q5VA286YAKY4D584YCC8P","model","mismatch","uniform","","","","","","","","967390.9000000954","969403.2999999523","","","","","","","","","","","","2","","stimuli/stars_2.png","205.5","","","","","stimuli/AF10_SUR.jpg","",""
"explore-choice","129","971193","0.0-129.0","p726555","APQ5K76HIG41P","3RZS0FBRWLGDTA9TUPH81F59AWHPC0","33FBRBDW6Q5VA286YAKY4D584YCC8P","model","mismatch","uniform","","","","","","","3004.7000000476837","969403.7999999523","972408.5","[""stimuli/BM16_CC.jpg"",""stimuli/AF10_SUR.jpg"",""stimuli/HF04_DO.jpg"",""stimuli/HM02_SC.jpg""]","stimuli/BM16_CC.jpg","stimuli/AF10_SUR.jpg","stimuli/HF04_DO.jpg","stimuli/HM02_SC.jpg","pos4","stimuli/HM02_SC.jpg","SC","HM02","3","3","6","8","stimuli/stars_6.png","208.5","[""CC"",""SUR"",""DO"",""SC""]","[""BM16"",""AF10"",""HF04"",""HM02""]","[1,2,5,6]","[2,4,6,8]","","",""
"show-reward","130","973202","0.0-130.0","p726555","APQ5K76HIG41P","3RZS0FBRWLGDTA9TUPH81F59AWHPC0","33FBRBDW6Q5VA286YAKY4D584YCC8P","model","mismatch","uniform","","","","","","","","972915.4000000954","974923.2000000477","","","","","","","","","","","","6","","stimuli/stars_6.png","208.5","","","","","stimuli/HM02_SC.jpg","",""
"explore-choice","131","975498","0.0-131.0","p726555","APQ5K76HIG41P","3RZS0FBRWLGDTA9TUPH81F59AWHPC0","33FBRBDW6Q5VA286YAKY4D584YCC8P","model","mismatch","uniform","","","","","","","1788.9000000953674","974924.0999999046","976713","[""stimuli/HM02_SC.jpg"",""stimuli/HF04_DO.jpg"",""stimuli/AF10_CC.jpg"",""stimuli/BM16_SUR.jpg""]","stimuli/HM02_SC.jpg","stimuli/HF04_DO.jpg","stimuli/AF10_CC.jpg","stimuli/BM16_SUR.jpg","pos3","stimuli/AF10_CC.jpg","CC","AF10","2","1","2","2","stimuli/stars_2.png","209.5","[""SC"",""DO"",""CC"",""SUR""]","[""HM02"",""HF04"",""AF10"",""BM16""]","[7,8,2,6]","[8,6,2,4]","","",""
"show-reward","132","977510","0.0-132.0","p726555","APQ5K76HIG41P","3RZS0FBRWLGDTA9TUPH81F59AWHPC0","33FBRBDW6Q5VA286YAKY4D584YCC8P","model","mismatch","uniform","","","","","","","","977219.4000000954","979229.2000000477","","","","","","","","","","","","2","","stimuli/stars_2.png","209.5","","","","","stimuli/AF10_CC.jpg","",""
"explore-choice","133","979339","0.0-133.0","p726555","APQ5K76HIG41P","3RZS0FBRWLGDTA9TUPH81F59AWHPC0","33FBRBDW6Q5VA286YAKY4D584YCC8P","model","mismatch","uniform","","","","","","","1320.0999999046326","979232.2000000477","980552.2999999523","[""stimuli/HM02_SUR.jpg"",""stimuli/HF04_DO.jpg"",""stimuli/AF10_CC.jpg"",""stimuli/BM16_SC.jpg""]","stimuli/HM02_SUR.jpg","stimuli/HF04_DO.jpg","stimuli/AF10_CC.jpg","stimuli/BM16_SC.jpg","pos1","stimuli/HM02_SUR.jpg","SUR","HM02","0","1.5","3","4","stimuli/stars_3.png","211","[""SUR"",""DO"",""CC"",""SC""]","[""HM02"",""HF04"",""AF10"",""BM16""]","[3,6,3,7]","[4,6,2,8]","","",""
"show-reward","134","981348","0.0-134.0","p726555","APQ5K76HIG41P","3RZS0FBRWLGDTA9TUPH81F59AWHPC0","33FBRBDW6Q5VA286YAKY4D584YCC8P","model","mismatch","uniform","","","","","","","","981060.4000000954","983069.0999999046","","","","","","","","","","","","3","","stimuli/stars_3.png","211","","","","","stimuli/HM02_SUR.jpg","",""
"explore-choice","135","987261","0.0-135.0","p726555","APQ5K76HIG41P","3RZS0FBRWLGDTA9TUPH81F59AWHPC0","33FBRBDW6Q5VA286YAKY4D584YCC8P","model","mismatch","uniform","","","","","","","5402.400000095367","983070.0999999046","988472.5","[""stimuli/HF04_SUR.jpg"",""stimuli/HM02_CC.jpg"",""stimuli/BM16_DO.jpg"",""stimuli/AF10_SC.jpg""]","stimuli/HF04_SUR.jpg","stimuli/HM02_CC.jpg","stimuli/BM16_DO.jpg","stimuli/AF10_SC.jpg","pos2","stimuli/HM02_CC.jpg","CC","HM02","1","2","4","2","stimuli/stars_4.png","213","[""SUR"",""CC"",""DO"",""SC""]","[""HF04"",""HM02"",""BM16"",""AF10""]","[3,4,4,10]","[4,2,6,8]","","",""
"show-reward","136","989272","0.0-136.0","p726555","APQ5K76HIG41P","3RZS0FBRWLGDTA9TUPH81F59AWHPC0","33FBRBDW6Q5VA286YAKY4D584YCC8P","model","mismatch","uniform","","","","","","","","988982.5","990993.4000000954","","","","","","","","","","","","4","","stimuli/stars_4.png","213","","","","","stimuli/HM02_CC.jpg","",""
"explore-choice","137","996581","0.0-137.0","p726555","APQ5K76HIG41P","3RZS0FBRWLGDTA9TUPH81F59AWHPC0","33FBRBDW6Q5VA286YAKY4D584YCC8P","model","mismatch","uniform","","","","","","","6806.599999904633","990994","997800.5999999046","[""stimuli/BM16_SUR.jpg"",""stimuli/AF10_SC.jpg"",""stimuli/HF04_DO.jpg"",""stimuli/HM02_CC.jpg""]","stimuli/BM16_SUR.jpg","stimuli/AF10_SC.jpg","stimuli/HF04_DO.jpg","stimuli/HM02_CC.jpg","pos4","stimuli/HM02_CC.jpg","CC","HM02","3","1.5","3","2","stimuli/stars_3.png","214.5","[""SUR"",""SC"",""DO"",""CC""]","[""BM16"",""AF10"",""HF04"",""HM02""]","[5,8,4,3]","[4,8,6,2]","","",""
"show-reward","138","998592","0.0-138.0","p726555","APQ5K76HIG41P","3RZS0FBRWLGDTA9TUPH81F59AWHPC0","33FBRBDW6Q5VA286YAKY4D584YCC8P","model","mismatch","uniform","","","","","","","","998303","1000313.2999999523","","","","","","","","","","","","3","","stimuli/stars_3.png","214.5","","","","","stimuli/HM02_CC.jpg","",""
"explore-choice","139","999868","0.0-139.0","p726555","APQ5K76HIG41P","3RZS0FBRWLGDTA9TUPH81F59AWHPC0","33FBRBDW6Q5VA286YAKY4D584YCC8P","model","mismatch","uniform","","","","","","","768.2999999523163","1000314.2000000477","1001082.5","[""stimuli/HF04_SC.jpg"",""stimuli/HM02_DO.jpg"",""stimuli/BM16_SUR.jpg"",""stimuli/AF10_CC.jpg""]","stimuli/HF04_SC.jpg","stimuli/HM02_DO.jpg","stimuli/BM16_SUR.jpg","stimuli/AF10_CC.jpg","pos4","stimuli/AF10_CC.jpg","CC","AF10","3","0","0","2","stimuli/stars_0.png","214.5","[""SC"",""DO"",""SUR"",""CC""]","[""HF04"",""HM02"",""BM16"",""AF10""]","[7,4,3,0]","[8,6,4,2]","","",""
"show-reward","140","1001878","0.0-140.0","p726555","APQ5K76HIG41P","3RZS0FBRWLGDTA9TUPH81F59AWHPC0","33FBRBDW6Q5VA286YAKY4D584YCC8P","model","mismatch","uniform","","","","","","","","1001589.7999999523","1003599","","","","","","","","","","","","0","","stimuli/stars_0.png","214.5","","","","","stimuli/AF10_CC.jpg","",""
"explore-choice","141","1005226","0.0-141.0","p726555","APQ5K76HIG41P","3RZS0FBRWLGDTA9TUPH81F59AWHPC0","33FBRBDW6Q5VA286YAKY4D584YCC8P","model","mismatch","uniform","","","","","","","2841","1003599.7999999523","1006440.7999999523","[""stimuli/HF04_SUR.jpg"",""stimuli/HM02_CC.jpg"",""stimuli/AF10_DO.jpg"",""stimuli/BM16_SC.jpg""]","stimuli/HF04_SUR.jpg","stimuli/HM02_CC.jpg","stimuli/AF10_DO.jpg","stimuli/BM16_SC.jpg","pos1","stimuli/HF04_SUR.jpg","SUR","HF04","0","1","2","4","stimuli/stars_2.png","215.5","[""SUR"",""CC"",""DO"",""SC""]","[""HF04"",""HM02"",""AF10"",""BM16""]","[2,2,5,6]","[4,2,6,8]","","",""
"show-reward","142","1007234","0.0-142.0","p726555","APQ5K76HIG41P","3RZS0FBRWLGDTA9TUPH81F59AWHPC0","33FBRBDW6Q5VA286YAKY4D584YCC8P","model","mismatch","uniform","","","","","","","","1006949.0999999046","1008955.2999999523","","","","","","","","","","","","2","","stimuli/stars_2.png","215.5","","","","","stimuli/HF04_SUR.jpg","",""
"explore-choice","143","1010328","0.0-143.0","p726555","APQ5K76HIG41P","3RZS0FBRWLGDTA9TUPH81F59AWHPC0","33FBRBDW6Q5VA286YAKY4D584YCC8P","model","mismatch","uniform","","","","","","","2579.5999999046326","1008956.7000000477","1011536.2999999523","[""stimuli/HM02_SUR.jpg"",""stimuli/BM16_SC.jpg"",""stimuli/HF04_CC.jpg"",""stimuli/AF10_DO.jpg""]","stimuli/HM02_SUR.jpg","stimuli/BM16_SC.jpg","stimuli/HF04_CC.jpg","stimuli/AF10_DO.jpg","pos2","stimuli/BM16_SC.jpg","SC","BM16","1","4.5","9","8","stimuli/stars_9.png","220","[""SUR"",""SC"",""CC"",""DO""]","[""HM02"",""BM16"",""HF04"",""AF10""]","[2,9,0,4]","[4,8,2,6]","","",""
"show-reward","144","1012338","0.0-144.0","p726555","APQ5K76HIG41P","3RZS0FBRWLGDTA9TUPH81F59AWHPC0","33FBRBDW6Q5VA286YAKY4D584YCC8P","model","mismatch","uniform","","","","","","","","1012049.4000000954","1014059.2000000477","","","","","","","","","","","","9","","stimuli/stars_9.png","220","","","","","stimuli/BM16_SC.jpg","",""
"explore-choice","145","1013569","0.0-145.0","p726555","APQ5K76HIG41P","3RZS0FBRWLGDTA9TUPH81F59AWHPC0","33FBRBDW6Q5VA286YAKY4D584YCC8P","model","mismatch","uniform","","","","","","","725.4000000953674","1014059.7999999523","1014785.2000000477","[""stimuli/HF04_SC.jpg"",""stimuli/AF10_SUR.jpg"",""stimuli/HM02_CC.jpg"",""stimuli/BM16_DO.jpg""]","stimuli/HF04_SC.jpg","stimuli/AF10_SUR.jpg","stimuli/HM02_CC.jpg","stimuli/BM16_DO.jpg","pos2","stimuli/AF10_SUR.jpg","SUR","AF10","1","2","4","4","stimuli/stars_4.png","222","[""SC"",""SUR"",""CC"",""DO""]","[""HF04"",""AF10"",""HM02"",""BM16""]","[6,4,2,4]","[8,4,2,6]","","",""
"show-reward","146","1015581","0.0-146.0","p726555","APQ5K76HIG41P","3RZS0FBRWLGDTA9TUPH81F59AWHPC0","33FBRBDW6Q5VA286YAKY4D584YCC8P","model","mismatch","uniform","","","","","","","","1015291","1017302.2000000477","","","","","","","","","","","","4","","stimuli/stars_4.png","222","","","","","stimuli/AF10_SUR.jpg","",""
"explore-choice","147","1016546","0.0-147.0","p726555","APQ5K76HIG41P","3RZS0FBRWLGDTA9TUPH81F59AWHPC0","33FBRBDW6Q5VA286YAKY4D584YCC8P","model","mismatch","uniform","","","","","","","457.5","1017302.7999999523","1017760.2999999523","[""stimuli/BM16_DO.jpg"",""stimuli/AF10_SC.jpg"",""stimuli/HM02_SUR.jpg"",""stimuli/HF04_CC.jpg""]","stimuli/BM16_DO.jpg","stimuli/AF10_SC.jpg","stimuli/HM02_SUR.jpg","stimuli/HF04_CC.jpg","pos2","stimuli/AF10_SC.jpg","SC","AF10","1","4","8","8","stimuli/stars_8.png","226","[""DO"",""SC"",""SUR"",""CC""]","[""BM16"",""AF10"",""HM02"",""HF04""]","[4,8,2,2]","[6,8,4,2]","","",""
"show-reward","148","1018552","0.0-148.0","p726555","APQ5K76HIG41P","3RZS0FBRWLGDTA9TUPH81F59AWHPC0","33FBRBDW6Q5VA286YAKY4D584YCC8P","model","mismatch","uniform","","","","","","","","1018267.5","1020273.2000000477","","","","","","","","","","","","8","","stimuli/stars_8.png","226","","","","","stimuli/AF10_SC.jpg","",""
"explore-choice","149","1019617","0.0-149.0","p726555","APQ5K76HIG41P","3RZS0FBRWLGDTA9TUPH81F59AWHPC0","33FBRBDW6Q5VA286YAKY4D584YCC8P","model","mismatch","uniform","","","","","","","559.6999998092651","1020273.9000000954","1020833.5999999046","[""stimuli/HF04_DO.jpg"",""stimuli/HM02_CC.jpg"",""stimuli/AF10_SUR.jpg"",""stimuli/BM16_SC.jpg""]","stimuli/HF04_DO.jpg","stimuli/HM02_CC.jpg","stimuli/AF10_SUR.jpg","stimuli/BM16_SC.jpg","pos2","stimuli/HM02_CC.jpg","CC","HM02","1","0.5","1","2","stimuli/stars_1.png","226.5","[""DO"",""CC"",""SUR"",""SC""]","[""HF04"",""HM02"",""AF10"",""BM16""]","[6,1,3,7]","[6,2,4,8]","","",""
"show-reward","150","1021629","0.0-150.0","p726555","APQ5K76HIG41P","3RZS0FBRWLGDTA9TUPH81F59AWHPC0","33FBRBDW6Q5VA286YAKY4D584YCC8P","model","mismatch","uniform","","","","","","","","1021338.9000000954","1023349.7000000477","","","","","","","","","","","","1","","stimuli/stars_1.png","226.5","","","","","stimuli/HM02_CC.jpg","",""
"explore-choice","151","1022648","0.0-151.0","p726555","APQ5K76HIG41P","3RZS0FBRWLGDTA9TUPH81F59AWHPC0","33FBRBDW6Q5VA286YAKY4D584YCC8P","model","mismatch","uniform","","","","","","","516.0999999046326","1023350.2000000477","1023866.2999999523","[""stimuli/AF10_CC.jpg"",""stimuli/BM16_SC.jpg"",""stimuli/HM02_SUR.jpg"",""stimuli/HF04_DO.jpg""]","stimuli/AF10_CC.jpg","stimuli/BM16_SC.jpg","stimuli/HM02_SUR.jpg","stimuli/HF04_DO.jpg","pos2","stimuli/BM16_SC.jpg","SC","BM16","1","3.5","7","8","stimuli/stars_7.png","230","[""CC"",""SC"",""SUR"",""DO""]","[""AF10"",""BM16"",""HM02"",""HF04""]","[3,7,3,6]","[2,8,4,6]","","",""
"show-reward","152","1024659","0.0-152.0","p726555","APQ5K76HIG41P","3RZS0FBRWLGDTA9TUPH81F59AWHPC0","33FBRBDW6Q5VA286YAKY4D584YCC8P","model","mismatch","uniform","","","","","","","","1024369.7999999523","1026379.5999999046","","","","","","","","","","","","7","","stimuli/stars_7.png","230","","","","","stimuli/BM16_SC.jpg","",""
"explore-choice","153","1025694","0.0-153.0","p726555","APQ5K76HIG41P","3RZS0FBRWLGDTA9TUPH81F59AWHPC0","33FBRBDW6Q5VA286YAKY4D584YCC8P","model","mismatch","uniform","","","","","","","533.3999998569489","1026380.9000000954","1026914.2999999523","[""stimuli/HF04_CC.jpg"",""stimuli/BM16_SC.jpg"",""stimuli/AF10_DO.jpg"",""stimuli/HM02_SUR.jpg""]","stimuli/HF04_CC.jpg","stimuli/BM16_SC.jpg","stimuli/AF10_DO.jpg","stimuli/HM02_SUR.jpg","pos2","stimuli/BM16_SC.jpg","SC","BM16","1","4.5","9","8","stimuli/stars_9.png","234.5","[""CC"",""SC"",""DO"",""SUR""]","[""HF04"",""BM16"",""AF10"",""HM02""]","[0,9,4,2]","[2,8,6,4]","","",""
"show-reward","154","1027708","0.0-154.0","p726555","APQ5K76HIG41P","3RZS0FBRWLGDTA9TUPH81F59AWHPC0","33FBRBDW6Q5VA286YAKY4D584YCC8P","model","mismatch","uniform","","","","","","","","1027415.5","1029428.2000000477","","","","","","","","","","","","9","","stimuli/stars_9.png","234.5","","","","","stimuli/BM16_SC.jpg","",""
"explore-choice","155","1028997","0.0-155.0","p726555","APQ5K76HIG41P","3RZS0FBRWLGDTA9TUPH81F59AWHPC0","33FBRBDW6Q5VA286YAKY4D584YCC8P","model","mismatch","uniform","","","","","","","786.7000000476837","1029430.2000000477","1030216.9000000954","[""stimuli/HM02_SC.jpg"",""stimuli/BM16_DO.jpg"",""stimuli/HF04_CC.jpg"",""stimuli/AF10_SUR.jpg""]","stimuli/HM02_SC.jpg","stimuli/BM16_DO.jpg","stimuli/HF04_CC.jpg","stimuli/AF10_SUR.jpg","pos2","stimuli/BM16_DO.jpg","DO","BM16","1","2","4","6","stimuli/stars_4.png","236.5","[""SC"",""DO"",""CC"",""SUR""]","[""HM02"",""BM16"",""HF04"",""AF10""]","[7,4,0,6]","[8,6,2,4]","","",""
"show-reward","156","1031008","0.0-156.0","p726555","APQ5K76HIG41P","3RZS0FBRWLGDTA9TUPH81F59AWHPC0","33FBRBDW6Q5VA286YAKY4D584YCC8P","model","mismatch","uniform","","","","","","","","1030718.9000000954","1032728.2000000477","","","","","","","","","","","","4","","stimuli/stars_4.png","236.5","","","","","stimuli/BM16_DO.jpg","",""
"explore-choice","157","1032058","0.0-157.0","p726555","APQ5K76HIG41P","3RZS0FBRWLGDTA9TUPH81F59AWHPC0","33FBRBDW6Q5VA286YAKY4D584YCC8P","model","mismatch","uniform","","","","","","","537","1032730","1033267","[""stimuli/AF10_CC.jpg"",""stimuli/BM16_SUR.jpg"",""stimuli/HF04_DO.jpg"",""stimuli/HM02_SC.jpg""]","stimuli/AF10_CC.jpg","stimuli/BM16_SUR.jpg","stimuli/HF04_DO.jpg","stimuli/HM02_SC.jpg","pos2","stimuli/BM16_SUR.jpg","SUR","BM16","1","3","6","4","stimuli/stars_6.png","239.5","[""CC"",""SUR"",""DO"",""SC""]","[""AF10"",""BM16"",""HF04"",""HM02""]","[2,6,8,7]","[2,4,6,8]","","",""
"show-reward","158","1034067","0.0-158.0","p726555","APQ5K76HIG41P","3RZS0FBRWLGDTA9TUPH81F59AWHPC0","33FBRBDW6Q5VA286YAKY4D584YCC8P","model","mismatch","uniform","","","","","","","","1033780.0999999046","1035788.2000000477","","","","","","","","","","","","6","","stimuli/stars_6.png","239.5","","","","","stimuli/BM16_SUR.jpg","",""
"explore-choice","159","1035045","0.0-159.0","p726555","APQ5K76HIG41P","3RZS0FBRWLGDTA9TUPH81F59AWHPC0","33FBRBDW6Q5VA286YAKY4D584YCC8P","model","mismatch","uniform","","","","","","","468.39999985694885","1035788.7000000477","1036257.0999999046","[""stimuli/BM16_CC.jpg"",""stimuli/AF10_DO.jpg"",""stimuli/HM02_SUR.jpg"",""stimuli/HF04_SC.jpg""]","stimuli/BM16_CC.jpg","stimuli/AF10_DO.jpg","stimuli/HM02_SUR.jpg","stimuli/HF04_SC.jpg","pos2","stimuli/AF10_DO.jpg","DO","AF10","1","2.5","5","6","stimuli/stars_5.png","242","[""CC"",""DO"",""SUR"",""SC""]","[""BM16"",""AF10"",""HM02"",""HF04""]","[3,5,4,9]","[2,6,4,8]","","",""
"show-reward","160","1037053","0.0-160.0","p726555","APQ5K76HIG41P","3RZS0FBRWLGDTA9TUPH81F59AWHPC0","33FBRBDW6Q5VA286YAKY4D584YCC8P","model","mismatch","uniform","","","","","","","","1036766.5999999046","1038774.2000000477","","","","","","","","","","","","5","","stimuli/stars_5.png","242","","","","","stimuli/AF10_DO.jpg","",""
"explore-choice","161","1037983","0.0-161.0","p726555","APQ5K76HIG41P","3RZS0FBRWLGDTA9TUPH81F59AWHPC0","33FBRBDW6Q5VA286YAKY4D584YCC8P","model","mismatch","uniform","","","","","","","417.7000000476837","1038774.7999999523","1039192.5","[""stimuli/BM16_SUR.jpg"",""stimuli/HM02_DO.jpg"",""stimuli/HF04_CC.jpg"",""stimuli/AF10_SC.jpg""]","stimuli/BM16_SUR.jpg","stimuli/HM02_DO.jpg","stimuli/HF04_CC.jpg","stimuli/AF10_SC.jpg","pos2","stimuli/HM02_DO.jpg","DO","HM02","1","2","4","6","stimuli/stars_4.png","244","[""SUR"",""DO"",""CC"",""SC""]","[""BM16"",""HM02"",""HF04"",""AF10""]","[6,4,0,8]","[4,6,2,8]","","",""
"show-reward","162","1039994","0.0-162.0","p726555","APQ5K76HIG41P","3RZS0FBRWLGDTA9TUPH81F59AWHPC0","33FBRBDW6Q5VA286YAKY4D584YCC8P","model","mismatch","uniform","","","","","","","","1039704.9000000954","1041715.2000000477","","","","","","","","","","","","4","","stimuli/stars_4.png","244","","","","","stimuli/HM02_DO.jpg","",""
"explore-choice","163","1041795","0.0-163.0","p726555","APQ5K76HIG41P","3RZS0FBRWLGDTA9TUPH81F59AWHPC0","33FBRBDW6Q5VA286YAKY4D584YCC8P","model","mismatch","uniform","","","","","","","1292.4000000953674","1041716","1043008.4000000954","[""stimuli/BM16_DO.jpg"",""stimuli/AF10_SC.jpg"",""stimuli/HM02_CC.jpg"",""stimuli/HF04_SUR.jpg""]","stimuli/BM16_DO.jpg","stimuli/AF10_SC.jpg","stimuli/HM02_CC.jpg","stimuli/HF04_SUR.jpg","pos4","stimuli/HF04_SUR.jpg","SUR","HF04","3","1.5","3","4","stimuli/stars_3.png","245.5","[""DO"",""SC"",""CC"",""SUR""]","[""BM16"",""AF10"",""HM02"",""HF04""]","[4,10,4,3]","[6,8,2,4]","","",""
"show-reward","164","1043805","0.0-164.0","p726555","APQ5K76HIG41P","3RZS0FBRWLGDTA9TUPH81F59AWHPC0","33FBRBDW6Q5VA286YAKY4D584YCC8P","model","mismatch","uniform","","","","","","","","1043517.0999999046","1045526.2999999523","","","","","","","","","","","","3","","stimuli/stars_3.png","245.5","","","","","stimuli/HF04_SUR.jpg","",""
"explore-choice","165","1045607","0.0-165.0","p726555","APQ5K76HIG41P","3RZS0FBRWLGDTA9TUPH81F59AWHPC0","33FBRBDW6Q5VA286YAKY4D584YCC8P","model","mismatch","uniform","","","","","","","1297.5999999046326","1045526.9000000954","1046824.5","[""stimuli/HM02_CC.jpg"",""stimuli/HF04_SC.jpg"",""stimuli/AF10_DO.jpg"",""stimuli/BM16_SUR.jpg""]","stimuli/HM02_CC.jpg","stimuli/HF04_SC.jpg","stimuli/AF10_DO.jpg","stimuli/BM16_SUR.jpg","pos3","stimuli/AF10_DO.jpg","DO","AF10","2","2.5","5","6","stimuli/stars_5.png","248","[""CC"",""SC"",""DO"",""SUR""]","[""HM02"",""HF04"",""AF10"",""BM16""]","[1,10,5,5]","[2,8,6,4]","","",""
"show-reward","166","1047609","0.0-166.0","p726555","APQ5K76HIG41P","3RZS0FBRWLGDTA9TUPH81F59AWHPC0","33FBRBDW6Q5VA286YAKY4D584YCC8P","model","mismatch","uniform","","","","","","","","1047328.4000000954","1049330.2000000477","","","","","","","","","","","","5","","stimuli/stars_5.png","248","","","","","stimuli/AF10_DO.jpg","",""
"explore-choice","167","1048758","0.0-167.0","p726555","APQ5K76HIG41P","3RZS0FBRWLGDTA9TUPH81F59AWHPC0","33FBRBDW6Q5VA286YAKY4D584YCC8P","model","mismatch","uniform","","","","","","","637.7000000476837","1049331","1049968.7000000477","[""stimuli/AF10_SUR.jpg"",""stimuli/HF04_CC.jpg"",""stimuli/HM02_DO.jpg"",""stimuli/BM16_SC.jpg""]","stimuli/AF10_SUR.jpg","stimuli/HF04_CC.jpg","stimuli/HM02_DO.jpg","stimuli/BM16_SC.jpg","pos1","stimuli/AF10_SUR.jpg","SUR","AF10","0","3","6","4","stimuli/stars_6.png","251","[""SUR"",""CC"",""DO"",""SC""]","[""AF10"",""HF04"",""HM02"",""BM16""]","[6,0,4,9]","[4,2,6,8]","","",""
"show-reward","168","1050767","0.0-168.0","p726555","APQ5K76HIG41P","3RZS0FBRWLGDTA9TUPH81F59AWHPC0","33FBRBDW6Q5VA286YAKY4D584YCC8P","model","mismatch","uniform","","","","","","","","1050479.2000000477","1052488.2000000477","","","","","","","","","","","","6","","stimuli/stars_6.png","251","","","","","stimuli/AF10_SUR.jpg","",""
"explore-choice","169","1053032","0.0-169.0","p726555","APQ5K76HIG41P","3RZS0FBRWLGDTA9TUPH81F59AWHPC0","33FBRBDW6Q5VA286YAKY4D584YCC8P","model","mismatch","uniform","","","","","","","1751.2000000476837","1052489.7999999523","1054241","[""stimuli/HM02_SC.jpg"",""stimuli/BM16_CC.jpg"",""stimuli/HF04_DO.jpg"",""stimuli/AF10_SUR.jpg""]","stimuli/HM02_SC.jpg","stimuli/BM16_CC.jpg","stimuli/HF04_DO.jpg","stimuli/AF10_SUR.jpg","pos1","stimuli/HM02_SC.jpg","SC","HM02","0","3","6","8","stimuli/stars_6.png","254","[""SC"",""CC"",""DO"",""SUR""]","[""HM02"",""BM16"",""HF04"",""AF10""]","[6,1,5,2]","[8,2,6,4]","","",""
"show-reward","170","1055043","0.0-170.0","p726555","APQ5K76HIG41P","3RZS0FBRWLGDTA9TUPH81F59AWHPC0","33FBRBDW6Q5VA286YAKY4D584YCC8P","model","mismatch","uniform","","","","","","","","1054754","1056763.7999999523","","","","","","","","","","","","6","","stimuli/stars_6.png","254","","","","","stimuli/HM02_SC.jpg","",""
"explore-choice","171","1061796","0.0-171.0","p726555","APQ5K76HIG41P","3RZS0FBRWLGDTA9TUPH81F59AWHPC0","33FBRBDW6Q5VA286YAKY4D584YCC8P","model","mismatch","uniform","","","","","","","6243.5","1056765.2000000477","1063008.7000000477","[""stimuli/HM02_CC.jpg"",""stimuli/HF04_DO.jpg"",""stimuli/BM16_SUR.jpg"",""stimuli/AF10_SC.jpg""]","stimuli/HM02_CC.jpg","stimuli/HF04_DO.jpg","stimuli/BM16_SUR.jpg","stimuli/AF10_SC.jpg","pos2","stimuli/HF04_DO.jpg","DO","HF04","1","2","4","6","stimuli/stars_4.png","256","[""CC"",""DO"",""SUR"",""SC""]","[""HM02"",""HF04"",""BM16"",""AF10""]","[3,4,5,8]","[2,6,4,8]","","",""
"show-reward","172","1063806","0.0-172.0","p726555","APQ5K76HIG41P","3RZS0FBRWLGDTA9TUPH81F59AWHPC0","33FBRBDW6Q5VA286YAKY4D584YCC8P","model","mismatch","uniform","","","","","","","","1063517.5999999046","1065527.2999999523","","","","","","","","","","","","4","","stimuli/stars_4.png","256","","","","","stimuli/HF04_DO.jpg","",""
"explore-choice","173","1068548","0.0-173.0","p726555","APQ5K76HIG41P","3RZS0FBRWLGDTA9TUPH81F59AWHPC0","33FBRBDW6Q5VA286YAKY4D584YCC8P","model","mismatch","uniform","","","","","","","4231.299999952316","1065529.4000000954","1069760.7000000477","[""stimuli/HM02_DO.jpg"",""stimuli/BM16_CC.jpg"",""stimuli/HF04_SUR.jpg"",""stimuli/AF10_SC.jpg""]","stimuli/HM02_DO.jpg","stimuli/BM16_CC.jpg","stimuli/HF04_SUR.jpg","stimuli/AF10_SC.jpg","pos1","stimuli/HM02_DO.jpg","DO","HM02","0","2","4","6","stimuli/stars_4.png","258","[""DO"",""CC"",""SUR"",""SC""]","[""HM02"",""BM16"",""HF04"",""AF10""]","[4,3,3,7]","[6,2,4,8]","","",""
"show-reward","174","1070561","0.0-174.0","p726555","APQ5K76HIG41P","3RZS0FBRWLGDTA9TUPH81F59AWHPC0","33FBRBDW6Q5VA286YAKY4D584YCC8P","model","mismatch","uniform","","","","","","","","1070270.0999999046","1072281.7000000477","","","","","","","","","","","","4","","stimuli/stars_4.png","258","","","","","stimuli/HM02_DO.jpg","",""
"explore-choice","175","1072856","0.0-175.0","p726555","APQ5K76HIG41P","3RZS0FBRWLGDTA9TUPH81F59AWHPC0","33FBRBDW6Q5VA286YAKY4D584YCC8P","model","mismatch","uniform","","","","","","","1789.7000000476837","1072282.7000000477","1074072.4000000954","[""stimuli/HM02_SUR.jpg"",""stimuli/BM16_CC.jpg"",""stimuli/HF04_DO.jpg"",""stimuli/AF10_SC.jpg""]","stimuli/HM02_SUR.jpg","stimuli/BM16_CC.jpg","stimuli/HF04_DO.jpg","stimuli/AF10_SC.jpg","pos1","stimuli/HM02_SUR.jpg","SUR","HM02","0","2.5","5","4","stimuli/stars_5.png","260.5","[""SUR"",""CC"",""DO"",""SC""]","[""HM02"",""BM16"",""HF04"",""AF10""]","[5,3,7,9]","[4,2,6,8]","","",""
"show-reward","176","1074865","0.0-176.0","p726555","APQ5K76HIG41P","3RZS0FBRWLGDTA9TUPH81F59AWHPC0","33FBRBDW6Q5VA286YAKY4D584YCC8P","model","mismatch","uniform","","","","","","","","1074578.0999999046","1076586.2999999523","","","","","","","","","","","","5","","stimuli/stars_5.png","260.5","","","","","stimuli/HM02_SUR.jpg","",""
"explore-choice","177","1076411","0.0-177.0","p726555","APQ5K76HIG41P","3RZS0FBRWLGDTA9TUPH81F59AWHPC0","33FBRBDW6Q5VA286YAKY4D584YCC8P","model","mismatch","uniform","","","","","","","1037.7000000476837","1076587.2000000477","1077624.9000000954","[""stimuli/HF04_SUR.jpg"",""stimuli/AF10_DO.jpg"",""stimuli/HM02_CC.jpg"",""stimuli/BM16_SC.jpg""]","stimuli/HF04_SUR.jpg","stimuli/AF10_DO.jpg","stimuli/HM02_CC.jpg","stimuli/BM16_SC.jpg","pos2","stimuli/AF10_DO.jpg","DO","AF10","1","2.5","5","6","stimuli/stars_5.png","263","[""SUR"",""DO"",""CC"",""SC""]","[""HF04"",""AF10"",""HM02"",""BM16""]","[2,5,2,6]","[4,6,2,8]","","",""
"show-reward","178","1078422","0.0-178.0","p726555","APQ5K76HIG41P","3RZS0FBRWLGDTA9TUPH81F59AWHPC0","33FBRBDW6Q5VA286YAKY4D584YCC8P","model","mismatch","uniform","","","","","","","","1078133.2000000477","1080142.9000000954","","","","","","","","","","","","5","","stimuli/stars_5.png","263","","","","","stimuli/AF10_DO.jpg","",""
"explore-choice","179","1080973","0.0-179.0","p726555","APQ5K76HIG41P","3RZS0FBRWLGDTA9TUPH81F59AWHPC0","33FBRBDW6Q5VA286YAKY4D584YCC8P","model","mismatch","uniform","","","","","","","2049","1080143.5999999046","1082192.5999999046","[""stimuli/AF10_CC.jpg"",""stimuli/BM16_SUR.jpg"",""stimuli/HM02_DO.jpg"",""stimuli/HF04_SC.jpg""]","stimuli/AF10_CC.jpg","stimuli/BM16_SUR.jpg","stimuli/HM02_DO.jpg","stimuli/HF04_SC.jpg","pos2","stimuli/BM16_SUR.jpg","SUR","BM16","1","1.5","3","4","stimuli/stars_3.png","264.5","[""CC"",""SUR"",""DO"",""SC""]","[""AF10"",""BM16"",""HM02"",""HF04""]","[0,3,4,7]","[2,4,6,8]","","",""
"show-reward","180","1082983","0.0-180.0","p726555","APQ5K76HIG41P","3RZS0FBRWLGDTA9TUPH81F59AWHPC0","33FBRBDW6Q5VA286YAKY4D584YCC8P","model","mismatch","uniform","","","","","","","","1082694.4000000954","1084703.4000000954","","","","","","","","","","","","3","","stimuli/stars_3.png","264.5","","","","","stimuli/BM16_SUR.jpg","",""
"explore-choice","181","1085009","0.0-181.0","p726555","APQ5K76HIG41P","3RZS0FBRWLGDTA9TUPH81F59AWHPC0","33FBRBDW6Q5VA286YAKY4D584YCC8P","model","mismatch","uniform","","","","","","","1512.1000001430511","1084704.7999999523","1086216.9000000954","[""stimuli/HM02_SUR.jpg"",""stimuli/BM16_DO.jpg"",""stimuli/AF10_SC.jpg"",""stimuli/HF04_CC.jpg""]","stimuli/HM02_SUR.jpg","stimuli/BM16_DO.jpg","stimuli/AF10_SC.jpg","stimuli/HF04_CC.jpg","pos3","stimuli/AF10_SC.jpg","SC","AF10","2","4","8","8","stimuli/stars_8.png","268.5","[""SUR"",""DO"",""SC"",""CC""]","[""HM02"",""BM16"",""AF10"",""HF04""]","[2,4,8,2]","[4,6,8,2]","","",""
"show-reward","182","1087019","0.0-182.0","p726555","APQ5K76HIG41P","3RZS0FBRWLGDTA9TUPH81F59AWHPC0","33FBRBDW6Q5VA286YAKY4D584YCC8P","model","mismatch","uniform","","","","","","","","1086731.0999999046","1088740.2999999523","","","","","","","","","","","","8","","stimuli/stars_8.png","268.5","","","","","stimuli/AF10_SC.jpg","",""
"explore-choice","183","1089287","0.0-183.0","p726555","APQ5K76HIG41P","3RZS0FBRWLGDTA9TUPH81F59AWHPC0","33FBRBDW6Q5VA286YAKY4D584YCC8P","model","mismatch","uniform","","","","","","","1756.2000000476837","1088741.5","1090497.7000000477","[""stimuli/AF10_CC.jpg"",""stimuli/HM02_SC.jpg"",""stimuli/HF04_SUR.jpg"",""stimuli/BM16_DO.jpg""]","stimuli/AF10_CC.jpg","stimuli/HM02_SC.jpg","stimuli/HF04_SUR.jpg","stimuli/BM16_DO.jpg","pos1","stimuli/AF10_CC.jpg","CC","AF10","0","0.5","1","2","stimuli/stars_1.png","269","[""CC"",""SC"",""SUR"",""DO""]","[""AF10"",""HM02"",""HF04"",""BM16""]","[1,8,2,8]","[2,8,4,6]","","",""
"show-reward","184","1091297","0.0-184.0","p726555","APQ5K76HIG41P","3RZS0FBRWLGDTA9TUPH81F59AWHPC0","33FBRBDW6Q5VA286YAKY4D584YCC8P","model","mismatch","uniform","","","","","","","","1091009.2000000477","1093018.2000000477","","","","","","","","","","","","1","","stimuli/stars_1.png","269","","","","","stimuli/AF10_CC.jpg","",""
"explore-choice","185","1092963","0.0-185.0","p726555","APQ5K76HIG41P","3RZS0FBRWLGDTA9TUPH81F59AWHPC0","33FBRBDW6Q5VA286YAKY4D584YCC8P","model","mismatch","uniform","","","","","","","1157.5","1093019.2000000477","1094176.7000000477","[""stimuli/BM16_CC.jpg"",""stimuli/AF10_SUR.jpg"",""stimuli/HF04_SC.jpg"",""stimuli/HM02_DO.jpg""]","stimuli/BM16_CC.jpg","stimuli/AF10_SUR.jpg","stimuli/HF04_SC.jpg","stimuli/HM02_DO.jpg","pos2","stimuli/AF10_SUR.jpg","SUR","AF10","1","1","2","4","stimuli/stars_2.png","270","[""CC"",""SUR"",""SC"",""DO""]","[""BM16"",""AF10"",""HF04"",""HM02""]","[1,2,6,7]","[2,4,8,6]","","",""
"show-reward","186","1094974","0.0-186.0","p726555","APQ5K76HIG41P","3RZS0FBRWLGDTA9TUPH81F59AWHPC0","33FBRBDW6Q5VA286YAKY4D584YCC8P","model","mismatch","uniform","","","","","","","","1094685.2000000477","1096695.2999999523","","","","","","","","","","","","2","","stimuli/stars_2.png","270","","","","","stimuli/AF10_SUR.jpg","",""
"explore-choice","187","1096191","0.0-187.0","p726555","APQ5K76HIG41P","3RZS0FBRWLGDTA9TUPH81F59AWHPC0","33FBRBDW6Q5VA286YAKY4D584YCC8P","model","mismatch","uniform","","","","","","","704.1999998092651","1096696.4000000954","1097400.5999999046","[""stimuli/BM16_DO.jpg"",""stimuli/AF10_CC.jpg"",""stimuli/HM02_SUR.jpg"",""stimuli/HF04_SC.jpg""]","stimuli/BM16_DO.jpg","stimuli/AF10_CC.jpg","stimuli/HM02_SUR.jpg","stimuli/HF04_SC.jpg","pos1","stimuli/BM16_DO.jpg","DO","BM16","0","2","4","6","stimuli/stars_4.png","272","[""DO"",""CC"",""SUR"",""SC""]","[""BM16"",""AF10"",""HM02"",""HF04""]","[4,4,6,10]","[6,2,4,8]","","",""
"show-reward","188","1098201","0.0-188.0","p726555","APQ5K76HIG41P","3RZS0FBRWLGDTA9TUPH81F59AWHPC0","33FBRBDW6Q5VA286YAKY4D584YCC8P","model","mismatch","uniform","","","","","","","","1097913.4000000954","1099922.2999999523","","","","","","","","","","","","4","","stimuli/stars_4.png","272","","","","","stimuli/BM16_DO.jpg","",""
"explore-choice","189","1099761","0.0-189.0","p726555","APQ5K76HIG41P","3RZS0FBRWLGDTA9TUPH81F59AWHPC0","33FBRBDW6Q5VA286YAKY4D584YCC8P","model","mismatch","uniform","","","","","","","1053.3000001907349","1099923.0999999046","1100976.4000000954","[""stimuli/HM02_CC.jpg"",""stimuli/BM16_DO.jpg"",""stimuli/AF10_SUR.jpg"",""stimuli/HF04_SC.jpg""]","stimuli/HM02_CC.jpg","stimuli/BM16_DO.jpg","stimuli/AF10_SUR.jpg","stimuli/HF04_SC.jpg","pos4","stimuli/HF04_SC.jpg","SC","HF04","3","3","6","8","stimuli/stars_6.png","275","[""CC"",""DO"",""SUR"",""SC""]","[""HM02"",""BM16"",""AF10"",""HF04""]","[2,4,4,6]","[2,6,4,8]","","",""
"show-reward","190","1101772","0.0-190.0","p726555","APQ5K76HIG41P","3RZS0FBRWLGDTA9TUPH81F59AWHPC0","33FBRBDW6Q5VA286YAKY4D584YCC8P","model","mismatch","uniform","","","","","","","","1101483","1103492.7000000477","","","","","","","","","","","","6","","stimuli/stars_6.png","275","","","","","stimuli/HF04_SC.jpg","",""
"explore-choice","191","1104129","0.0-191.0","p726555","APQ5K76HIG41P","3RZS0FBRWLGDTA9TUPH81F59AWHPC0","33FBRBDW6Q5VA286YAKY4D584YCC8P","model","mismatch","uniform","","","","","","","1851.2999999523163","1103493.2999999523","1105344.5999999046","[""stimuli/BM16_SC.jpg"",""stimuli/HF04_SUR.jpg"",""stimuli/HM02_DO.jpg"",""stimuli/AF10_CC.jpg""]","stimuli/BM16_SC.jpg","stimuli/HF04_SUR.jpg","stimuli/HM02_DO.jpg","stimuli/AF10_CC.jpg","pos3","stimuli/HM02_DO.jpg","DO","HM02","2","2.5","5","6","stimuli/stars_5.png","277.5","[""SC"",""SUR"",""DO"",""CC""]","[""BM16"",""HF04"",""HM02"",""AF10""]","[9,6,5,2]","[8,4,6,2]","","",""
"show-reward","192","1106138","0.0-192.0","p726555","APQ5K76HIG41P","3RZS0FBRWLGDTA9TUPH81F59AWHPC0","33FBRBDW6Q5VA286YAKY4D584YCC8P","model","mismatch","uniform","","","","","","","","1105851.5","1107859.5999999046","","","","","","","","","","","","5","","stimuli/stars_5.png","277.5","","","","","stimuli/HM02_DO.jpg","",""
"explore-choice","193","1107489","0.0-193.0","p726555","APQ5K76HIG41P","3RZS0FBRWLGDTA9TUPH81F59AWHPC0","33FBRBDW6Q5VA286YAKY4D584YCC8P","model","mismatch","uniform","","","","","","","837.7000000476837","1107860.2000000477","1108697.9000000954","[""stimuli/AF10_SUR.jpg"",""stimuli/HM02_CC.jpg"",""stimuli/HF04_DO.jpg"",""stimuli/BM16_SC.jpg""]","stimuli/AF10_SUR.jpg","stimuli/HM02_CC.jpg","stimuli/HF04_DO.jpg","stimuli/BM16_SC.jpg","pos2","stimuli/HM02_CC.jpg","CC","HM02","1","0.5","1","2","stimuli/stars_1.png","278","[""SUR"",""CC"",""DO"",""SC""]","[""AF10"",""HM02"",""HF04"",""BM16""]","[3,1,6,7]","[4,2,6,8]","","",""
"show-reward","194","1109499","0.0-194.0","p726555","APQ5K76HIG41P","3RZS0FBRWLGDTA9TUPH81F59AWHPC0","33FBRBDW6Q5VA286YAKY4D584YCC8P","model","mismatch","uniform","","","","","","","","1109210.4000000954","1111220.2000000477","","","","","","","","","","","","1","","stimuli/stars_1.png","278","","","","","stimuli/HM02_CC.jpg","",""
"explore-choice","195","1113311","0.0-195.0","p726555","APQ5K76HIG41P","3RZS0FBRWLGDTA9TUPH81F59AWHPC0","33FBRBDW6Q5VA286YAKY4D584YCC8P","model","mismatch","uniform","","","","","","","3299.5999999046326","1111220.9000000954","1114520.5","[""stimuli/BM16_CC.jpg"",""stimuli/HM02_SC.jpg"",""stimuli/HF04_SUR.jpg"",""stimuli/AF10_DO.jpg""]","stimuli/BM16_CC.jpg","stimuli/HM02_SC.jpg","stimuli/HF04_SUR.jpg","stimuli/AF10_DO.jpg","pos1","stimuli/BM16_CC.jpg","CC","BM16","0","2","4","2","stimuli/stars_4.png","280","[""CC"",""SC"",""SUR"",""DO""]","[""BM16"",""HM02"",""HF04"",""AF10""]","[4,7,5,8]","[2,8,4,6]","","",""
"show-reward","196","1115320","0.0-196.0","p726555","APQ5K76HIG41P","3RZS0FBRWLGDTA9TUPH81F59AWHPC0","33FBRBDW6Q5VA286YAKY4D584YCC8P","model","mismatch","uniform","","","","","","","","1115032.2999999523","1117041.2999999523","","","","","","","","","","","","4","","stimuli/stars_4.png","280","","","","","stimuli/BM16_CC.jpg","",""
"explore-choice","197","1121250","0.0-197.0","p726555","APQ5K76HIG41P","3RZS0FBRWLGDTA9TUPH81F59AWHPC0","33FBRBDW6Q5VA286YAKY4D584YCC8P","model","mismatch","uniform","","","","","","","5424.100000143051","1117041.7999999523","1122465.9000000954","[""stimuli/BM16_SUR.jpg"",""stimuli/HM02_SC.jpg"",""stimuli/HF04_CC.jpg"",""stimuli/AF10_DO.jpg""]","stimuli/BM16_SUR.jpg","stimuli/HM02_SC.jpg","stimuli/HF04_CC.jpg","stimuli/AF10_DO.jpg","pos4","stimuli/AF10_DO.jpg","DO","AF10","3","3","6","6","stimuli/stars_6.png","283","[""SUR"",""SC"",""CC"",""DO""]","[""BM16"",""HM02"",""HF04"",""AF10""]","[4,9,2,6]","[4,8,2,6]","","",""
"show-reward","198","1123260","0.0-198.0","p726555","APQ5K76HIG41P","3RZS0FBRWLGDTA9TUPH81F59AWHPC0","33FBRBDW6Q5VA286YAKY4D584YCC8P","model","mismatch","uniform","","","","","","","","1122972.2000000477","1124981.2999999523","","","","","","","","","","","","6","","stimuli/stars_6.png","283","","","","","stimuli/AF10_DO.jpg","",""
"instructions","199","1128335","0.0-199.0","p726555","APQ5K76HIG41P","3RZS0FBRWLGDTA9TUPH81F59AWHPC0","33FBRBDW6Q5VA286YAKY4D584YCC8P","model","mismatch","uniform","","","","","","[{""page_index"":0,""viewing_time"":5073.800000190735}]","5074.100000143051","","","","","","","","","","","","","","","","","","","","","","","",""
"survey-text","200","1132114","0.0-200.0-0.0","p726555","APQ5K76HIG41P","3RZS0FBRWLGDTA9TUPH81F59AWHPC0","33FBRBDW6Q5VA286YAKY4D584YCC8P","model","mismatch","uniform","","","","","","","3776.0999999046326","","","","","","","","","","","","","","","","","","","","","","","{""age"":""61""}",""
"survey-text","201","1135712","0.0-200.0-1.0","p726555","APQ5K76HIG41P","3RZS0FBRWLGDTA9TUPH81F59AWHPC0","33FBRBDW6Q5VA286YAKY4D584YCC8P","model","mismatch","uniform","","","","","","","3596","","","","","","","","","","","","","","","","","","","","","","","{""gender"":""Male""}",""
"survey-text","202","1140456","0.0-200.0-2.0","p726555","APQ5K76HIG41P","3RZS0FBRWLGDTA9TUPH81F59AWHPC0","33FBRBDW6Q5VA286YAKY4D584YCC8P","model","mismatch","uniform","","","","","","","4741.599999904633","","","","","","","","","","","","","","","","","","","","","","","{""country"":""United States""}",""
"survey-text","203","1144225","0.0-200.0-3.0","p726555","APQ5K76HIG41P","3RZS0FBRWLGDTA9TUPH81F59AWHPC0","33FBRBDW6Q5VA286YAKY4D584YCC8P","model","mismatch","uniform","","","","","","","3764.5999999046326","","","","","","","","","","","","","","","","","","","","","","","{""language"":""English"",""other_languages"":""""}",""
"survey-multi-select","204","1147656","0.0-201.0","p726555","APQ5K76HIG41P","3RZS0FBRWLGDTA9TUPH81F59AWHPC0","33FBRBDW6Q5VA286YAKY4D584YCC8P","model","mismatch","uniform","","","","","","","3425.7999999523163","","","","","","","","","","","","","","","","","","","","","","","{""race"":[""White""]}","[0]"
"survey-multi-choice","205","1156664","0.0-202.0","p726555","APQ5K76HIG41P","3RZS0FBRWLGDTA9TUPH81F59AWHPC0","33FBRBDW6Q5VA286YAKY4D584YCC8P","model","mismatch","uniform","","","","","","","9001.700000047684","","","","","","","","","","","","","","","","","","","","","","","{""education"":""Some college/ university""}","[0]"
"survey-text","206","1233129","0.0-203.0","p726555","APQ5K76HIG41P","3RZS0FBRWLGDTA9TUPH81F59AWHPC0","33FBRBDW6Q5VA286YAKY4D584YCC8P","model","mismatch","uniform","","","","","","","76459.79999995232","","","","","","","","","","","","","","","","","","","","","","","{""patterns"":""Nothing definite"",""strategy"":""At first, I tried \""happy vs not\"" or \""white vs black\"" or \""same guy every time\"" but I have no idea what really worked in the end."",""comments"":""""}",""
