"trial_type","trial_index","time_elapsed","internal_node_id","subject","workerId","hitId","assignmentId","structure_condition","match_condition","noise_type","success","timeout","failed_images","failed_audio","failed_video","view_history","rt","start_time","end_time","stimuli","image1","image2","image3","image4","choiceLocation","choiceImage","choiceEmotion","choiceModel","choice_index","reward_score","reward","reward_score_unadjusted","reward_image","score_after_trial","emotions","models","rewards","rewards_unadjusted","stimulus","response","question_order"
"pavlovia","0","10","0.0-0.0","p475508","A1TMZLYXQAK8Q0","336OE47KI3QZCSCUXSQ8J11UOZXVWV","33M4IA01QI7PV5YXOFML97LNV7JXRH","model","mismatch","uniform","","","","","","","","","","","","","","","","","","","","","","","","","","","","","","",""
"preload","1","4785","0.0-1.0","p475508","A1TMZLYXQAK8Q0","336OE47KI3QZCSCUXSQ8J11UOZXVWV","33M4IA01QI7PV5YXOFML97LNV7JXRH","model","mismatch","uniform","true","false","[]","[]","[]","","","","","","","","","","","","","","","","","","","","","","","","","",""
"fullscreen","2","8879","0.0-2.0","p475508","A1TMZLYXQAK8Q0","336OE47KI3QZCSCUXSQ8J11UOZXVWV","33M4IA01QI7PV5YXOFML97LNV7JXRH","model","mismatch","uniform","true","","","","","","","","","","","","","","","","","","","","","","","","","","","","","",""
"instructions","3","16669","0.0-3.0","p475508","A1TMZLYXQAK8Q0","336OE47KI3QZCSCUXSQ8J11UOZXVWV","33M4IA01QI7PV5YXOFML97LNV7JXRH","model","mismatch","uniform","","","","","","[{""page_index"":0,""viewing_time"":7787}]","7788.799999952316","","","","","","","","","","","","","","","","","","","","","","","",""
"explore-choice","4","19977","0.0-4.0","p475508","A1TMZLYXQAK8Q0","336OE47KI3QZCSCUXSQ8J11UOZXVWV","33M4IA01QI7PV5YXOFML97LNV7JXRH","model","mismatch","uniform","","","","","","","2803.2000000476837","18719.200000047684","21522.400000095367","[""stimuli/sheep.jpg"",""stimuli/hammer.jpg"",""stimuli/basketball.jpg"",""stimuli/horse.jpg""]","stimuli/sheep.jpg","stimuli/hammer.jpg","stimuli/basketball.jpg","stimuli/horse.jpg","pos4","stimuli/horse.jpg","","","3","64","64","64","stimuli/stars_8.png","65","","","","","","",""
"explore-choice","5","22544","0.0-5.0","p475508","A1TMZLYXQAK8Q0","336OE47KI3QZCSCUXSQ8J11UOZXVWV","33M4IA01QI7PV5YXOFML97LNV7JXRH","model","mismatch","uniform","","","","","","","2063.2999999523163","22026.200000047684","24089.5","[""stimuli/hammer.jpg"",""stimuli/basketball.jpg"",""stimuli/horse.jpg"",""stimuli/sheep.jpg""]","stimuli/hammer.jpg","stimuli/basketball.jpg","stimuli/horse.jpg","stimuli/sheep.jpg","pos1","stimuli/hammer.jpg","","","0","8","8","8","stimuli/stars_2.png","9","","","","","","",""
"instructions","6","47005","0.0-6.0","p475508","A1TMZLYXQAK8Q0","336OE47KI3QZCSCUXSQ8J11UOZXVWV","33M4IA01QI7PV5YXOFML97LNV7JXRH","model","mismatch","uniform","","","","","","[{""page_index"":0,""viewing_time"":24460.800000190735}]","24461.300000190735","","","","","","","","","","","","","","","","","","","","","","","",""
"explore-choice","7","50350","0.0-7.0","p475508","A1TMZLYXQAK8Q0","336OE47KI3QZCSCUXSQ8J11UOZXVWV","33M4IA01QI7PV5YXOFML97LNV7JXRH","model","mismatch","uniform","","","","","","","2833.899999856949","49056.60000014305","51890.5","[""stimuli/WM11_HE.jpg"",""stimuli/WF14_SC.jpg"",""stimuli/AM09_CC.jpg"",""stimuli/BF06_SUR.jpg""]","stimuli/WM11_HE.jpg","stimuli/WF14_SC.jpg","stimuli/AM09_CC.jpg","stimuli/BF06_SUR.jpg","pos4","stimuli/BF06_SUR.jpg","SUR","BF06","3","1.5","3","4","stimuli/stars_3.png","2.5","[""HE"",""SC"",""CC"",""SUR""]","[""WM11"",""WF14"",""AM09"",""BF06""]","[6,4,6,3]","[6,2,8,4]","","",""
"show-reward","8","52357","0.0-8.0","p475508","A1TMZLYXQAK8Q0","336OE47KI3QZCSCUXSQ8J11UOZXVWV","33M4IA01QI7PV5YXOFML97LNV7JXRH","model","mismatch","uniform","","","","","","","","52402.200000047684","54405.700000047684","","","","","","","","","","","","3","","stimuli/stars_3.png","2.5","","","","","stimuli/BF06_SUR.jpg","",""
"explore-choice","9","56883","0.0-9.0","p475508","A1TMZLYXQAK8Q0","336OE47KI3QZCSCUXSQ8J11UOZXVWV","33M4IA01QI7PV5YXOFML97LNV7JXRH","model","mismatch","uniform","","","","","","","4016.2999999523163","54407.300000190735","58423.60000014305","[""stimuli/BF06_SC.jpg"",""stimuli/AM09_HE.jpg"",""stimuli/WM11_SUR.jpg"",""stimuli/WF14_CC.jpg""]","stimuli/BF06_SC.jpg","stimuli/AM09_HE.jpg","stimuli/WM11_SUR.jpg","stimuli/WF14_CC.jpg","pos1","stimuli/BF06_SC.jpg","SC","BF06","0","3","6","4","stimuli/stars_6.png","5.5","[""SC"",""HE"",""SUR"",""CC""]","[""BF06"",""AM09"",""WM11"",""WF14""]","[6,10,6,0]","[4,8,6,2]","","",""
"show-reward","10","58899","0.0-10.0","p475508","A1TMZLYXQAK8Q0","336OE47KI3QZCSCUXSQ8J11UOZXVWV","33M4IA01QI7PV5YXOFML97LNV7JXRH","model","mismatch","uniform","","","","","","","","58933.700000047684","60947.10000014305","","","","","","","","","","","","6","","stimuli/stars_6.png","5.5","","","","","stimuli/BF06_SC.jpg","",""
"explore-choice","11","62668","0.0-11.0","p475508","A1TMZLYXQAK8Q0","336OE47KI3QZCSCUXSQ8J11UOZXVWV","33M4IA01QI7PV5YXOFML97LNV7JXRH","model","mismatch","uniform","","","","","","","3262.399999856949","60948.60000014305","64211","[""stimuli/WF14_SUR.jpg"",""stimuli/WM11_SC.jpg"",""stimuli/BF06_HE.jpg"",""stimuli/AM09_CC.jpg""]","stimuli/WF14_SUR.jpg","stimuli/WM11_SC.jpg","stimuli/BF06_HE.jpg","stimuli/AM09_CC.jpg","pos2","stimuli/WM11_SC.jpg","SC","WM11","1","4","8","6","stimuli/stars_8.png","9.5","[""SUR"",""SC"",""HE"",""CC""]","[""WF14"",""WM11"",""BF06"",""AM09""]","[2,8,6,8]","[2,6,4,8]","","",""
"show-reward","12","64681","0.0-12.0","p475508","A1TMZLYXQAK8Q0","336OE47KI3QZCSCUXSQ8J11UOZXVWV","33M4IA01QI7PV5YXOFML97LNV7JXRH","model","mismatch","uniform","","","","","","","","64717.700000047684","66729.30000019073","","","","","","","","","","","","8","","stimuli/stars_8.png","9.5","","","","","stimuli/WM11_SC.jpg","",""
"explore-choice","13","67929","0.0-13.0","p475508","A1TMZLYXQAK8Q0","336OE47KI3QZCSCUXSQ8J11UOZXVWV","33M4IA01QI7PV5YXOFML97LNV7JXRH","model","mismatch","uniform","","","","","","","2743.7000000476837","66730.60000014305","69474.30000019073","[""stimuli/WM11_SC.jpg"",""stimuli/WF14_SUR.jpg"",""stimuli/BF06_CC.jpg"",""stimuli/AM09_HE.jpg""]","stimuli/WM11_SC.jpg","stimuli/WF14_SUR.jpg","stimuli/BF06_CC.jpg","stimuli/AM09_HE.jpg","pos1","stimuli/WM11_SC.jpg","SC","WM11","0","4","8","6","stimuli/stars_8.png","13.5","[""SC"",""SUR"",""CC"",""HE""]","[""WM11"",""WF14"",""BF06"",""AM09""]","[8,0,2,7]","[6,2,4,8]","","",""
"show-reward","14","69944","0.0-14.0","p475508","A1TMZLYXQAK8Q0","336OE47KI3QZCSCUXSQ8J11UOZXVWV","33M4IA01QI7PV5YXOFML97LNV7JXRH","model","mismatch","uniform","","","","","","","","69978.40000009537","71993.10000014305","","","","","","","","","","","","8","","stimuli/stars_8.png","13.5","","","","","stimuli/WM11_SC.jpg","",""
"explore-choice","15","73568","0.0-15.0","p475508","A1TMZLYXQAK8Q0","336OE47KI3QZCSCUXSQ8J11UOZXVWV","33M4IA01QI7PV5YXOFML97LNV7JXRH","model","mismatch","uniform","","","","","","","3112.699999809265","71993.80000019073","75106.5","[""stimuli/WM11_HE.jpg"",""stimuli/AM09_SC.jpg"",""stimuli/BF06_CC.jpg"",""stimuli/WF14_SUR.jpg""]","stimuli/WM11_HE.jpg","stimuli/AM09_SC.jpg","stimuli/BF06_CC.jpg","stimuli/WF14_SUR.jpg","pos2","stimuli/AM09_SC.jpg","SC","AM09","1","4","8","8","stimuli/stars_8.png","17.5","[""HE"",""SC"",""CC"",""SUR""]","[""WM11"",""AM09"",""BF06"",""WF14""]","[6,8,4,3]","[6,8,4,2]","","",""
"show-reward","16","75573","0.0-16.0","p475508","A1TMZLYXQAK8Q0","336OE47KI3QZCSCUXSQ8J11UOZXVWV","33M4IA01QI7PV5YXOFML97LNV7JXRH","model","mismatch","uniform","","","","","","","","75618.10000014305","77621.70000004768","","","","","","","","","","","","8","","stimuli/stars_8.png","17.5","","","","","stimuli/AM09_SC.jpg","",""
"explore-choice","17","79031","0.0-17.0","p475508","A1TMZLYXQAK8Q0","336OE47KI3QZCSCUXSQ8J11UOZXVWV","33M4IA01QI7PV5YXOFML97LNV7JXRH","model","mismatch","uniform","","","","","","","2950.7000000476837","77622.70000004768","80573.40000009537","[""stimuli/BF06_CC.jpg"",""stimuli/WM11_HE.jpg"",""stimuli/WF14_SC.jpg"",""stimuli/AM09_SUR.jpg""]","stimuli/BF06_CC.jpg","stimuli/WM11_HE.jpg","stimuli/WF14_SC.jpg","stimuli/AM09_SUR.jpg","pos3","stimuli/WF14_SC.jpg","SC","WF14","2","0.5","1","2","stimuli/stars_1.png","18","[""CC"",""HE"",""SC"",""SUR""]","[""BF06"",""WM11"",""WF14"",""AM09""]","[3,7,1,10]","[4,6,2,8]","","",""
"show-reward","18","81045","0.0-18.0","p475508","A1TMZLYXQAK8Q0","336OE47KI3QZCSCUXSQ8J11UOZXVWV","33M4IA01QI7PV5YXOFML97LNV7JXRH","model","mismatch","uniform","","","","","","","","81081.30000019073","83093.90000009537","","","","","","","","","","","","1","","stimuli/stars_1.png","18","","","","","stimuli/WF14_SC.jpg","",""
"explore-choice","19","83396","0.0-19.0","p475508","A1TMZLYXQAK8Q0","336OE47KI3QZCSCUXSQ8J11UOZXVWV","33M4IA01QI7PV5YXOFML97LNV7JXRH","model","mismatch","uniform","","","","","","","1842.1999998092651","83095.80000019073","84938","[""stimuli/BF06_CC.jpg"",""stimuli/AM09_SC.jpg"",""stimuli/WM11_SUR.jpg"",""stimuli/WF14_HE.jpg""]","stimuli/BF06_CC.jpg","stimuli/AM09_SC.jpg","stimuli/WM11_SUR.jpg","stimuli/WF14_HE.jpg","pos2","stimuli/AM09_SC.jpg","SC","AM09","1","5","10","8","stimuli/stars_10.png","23","[""CC"",""SC"",""SUR"",""HE""]","[""BF06"",""AM09"",""WM11"",""WF14""]","[3,10,8,2]","[4,8,6,2]","","",""
"show-reward","20","85414","0.0-20.0","p475508","A1TMZLYXQAK8Q0","336OE47KI3QZCSCUXSQ8J11UOZXVWV","33M4IA01QI7PV5YXOFML97LNV7JXRH","model","mismatch","uniform","","","","","","","","85446.70000004768","87462.5","","","","","","","","","","","","10","","stimuli/stars_10.png","23","","","","","stimuli/AM09_SC.jpg","",""
"explore-choice","21","88158","0.0-21.0","p475508","A1TMZLYXQAK8Q0","336OE47KI3QZCSCUXSQ8J11UOZXVWV","33M4IA01QI7PV5YXOFML97LNV7JXRH","model","mismatch","uniform","","","","","","","2239.2999999523163","87463.90000009537","89703.20000004768","[""stimuli/WF14_CC.jpg"",""stimuli/AM09_SUR.jpg"",""stimuli/BF06_HE.jpg"",""stimuli/WM11_SC.jpg""]","stimuli/WF14_CC.jpg","stimuli/AM09_SUR.jpg","stimuli/BF06_HE.jpg","stimuli/WM11_SC.jpg","pos4","stimuli/WM11_SC.jpg","SC","WM11","3","2.5","5","6","stimuli/stars_5.png","25.5","[""CC"",""SUR"",""HE"",""SC""]","[""WF14"",""AM09"",""BF06"",""WM11""]","[0,6,4,5]","[2,8,4,6]","","",""
"show-reward","22","90174","0.0-22.0","p475508","A1TMZLYXQAK8Q0","336OE47KI3QZCSCUXSQ8J11UOZXVWV","33M4IA01QI7PV5YXOFML97LNV7JXRH","model","mismatch","uniform","","","","","","","","90207.90000009537","92222.90000009537","","","","","","","","","","","","5","","stimuli/stars_5.png","25.5","","","","","stimuli/WM11_SC.jpg","",""
"explore-choice","23","93134","0.0-23.0","p475508","A1TMZLYXQAK8Q0","336OE47KI3QZCSCUXSQ8J11UOZXVWV","33M4IA01QI7PV5YXOFML97LNV7JXRH","model","mismatch","uniform","","","","","","","2451.600000143051","92223.5","94675.10000014305","[""stimuli/AM09_SUR.jpg"",""stimuli/WF14_CC.jpg"",""stimuli/WM11_HE.jpg"",""stimuli/BF06_SC.jpg""]","stimuli/AM09_SUR.jpg","stimuli/WF14_CC.jpg","stimuli/WM11_HE.jpg","stimuli/BF06_SC.jpg","pos1","stimuli/AM09_SUR.jpg","SUR","AM09","0","3","6","8","stimuli/stars_6.png","28.5","[""SUR"",""CC"",""HE"",""SC""]","[""AM09"",""WF14"",""WM11"",""BF06""]","[6,4,7,4]","[8,2,6,4]","","",""
"show-reward","24","95152","0.0-24.0","p475508","A1TMZLYXQAK8Q0","336OE47KI3QZCSCUXSQ8J11UOZXVWV","33M4IA01QI7PV5YXOFML97LNV7JXRH","model","mismatch","uniform","","","","","","","","95184","97200.60000014305","","","","","","","","","","","","6","","stimuli/stars_6.png","28.5","","","","","stimuli/AM09_SUR.jpg","",""
"explore-choice","25","101685","0.0-25.0","p475508","A1TMZLYXQAK8Q0","336OE47KI3QZCSCUXSQ8J11UOZXVWV","33M4IA01QI7PV5YXOFML97LNV7JXRH","model","mismatch","uniform","","","","","","","6029.599999904633","97201.90000009537","103231.5","[""stimuli/WF14_HE.jpg"",""stimuli/WM11_SC.jpg"",""stimuli/BF06_CC.jpg"",""stimuli/AM09_SUR.jpg""]","stimuli/WF14_HE.jpg","stimuli/WM11_SC.jpg","stimuli/BF06_CC.jpg","stimuli/AM09_SUR.jpg","pos1","stimuli/WF14_HE.jpg","HE","WF14","0","1","2","2","stimuli/stars_2.png","29.5","[""HE"",""SC"",""CC"",""SUR""]","[""WF14"",""WM11"",""BF06"",""AM09""]","[2,8,5,6]","[2,6,4,8]","","",""
"show-reward","26","103691","0.0-26.0","p475508","A1TMZLYXQAK8Q0","336OE47KI3QZCSCUXSQ8J11UOZXVWV","33M4IA01QI7PV5YXOFML97LNV7JXRH","model","mismatch","uniform","","","","","","","","103735.60000014305","105739.60000014305","","","","","","","","","","","","2","","stimuli/stars_2.png","29.5","","","","","stimuli/WF14_HE.jpg","",""
"explore-choice","27","107893","0.0-27.0","p475508","A1TMZLYXQAK8Q0","336OE47KI3QZCSCUXSQ8J11UOZXVWV","33M4IA01QI7PV5YXOFML97LNV7JXRH","model","mismatch","uniform","","","","","","","3697.0999999046326","105740.30000019073","109437.40000009537","[""stimuli/WM11_SC.jpg"",""stimuli/WF14_CC.jpg"",""stimuli/BF06_SUR.jpg"",""stimuli/AM09_HE.jpg""]","stimuli/WM11_SC.jpg","stimuli/WF14_CC.jpg","stimuli/BF06_SUR.jpg","stimuli/AM09_HE.jpg","pos4","stimuli/AM09_HE.jpg","HE","AM09","3","3","6","8","stimuli/stars_6.png","32.5","[""SC"",""CC"",""SUR"",""HE""]","[""WM11"",""WF14"",""BF06"",""AM09""]","[4,4,2,6]","[6,2,4,8]","","",""
"show-reward","28","109906","0.0-28.0","p475508","A1TMZLYXQAK8Q0","336OE47KI3QZCSCUXSQ8J11UOZXVWV","33M4IA01QI7PV5YXOFML97LNV7JXRH","model","mismatch","uniform","","","","","","","","109942","111955.30000019073","","","","","","","","","","","","6","","stimuli/stars_6.png","32.5","","","","","stimuli/AM09_HE.jpg","",""
"explore-choice","29","112504","0.0-29.0","p475508","A1TMZLYXQAK8Q0","336OE47KI3QZCSCUXSQ8J11UOZXVWV","33M4IA01QI7PV5YXOFML97LNV7JXRH","model","mismatch","uniform","","","","","","","2095.699999809265","111955.80000019073","114051.5","[""stimuli/WF14_SUR.jpg"",""stimuli/AM09_HE.jpg"",""stimuli/WM11_CC.jpg"",""stimuli/BF06_SC.jpg""]","stimuli/WF14_SUR.jpg","stimuli/AM09_HE.jpg","stimuli/WM11_CC.jpg","stimuli/BF06_SC.jpg","pos2","stimuli/AM09_HE.jpg","HE","AM09","1","3.5","7","8","stimuli/stars_7.png","36","[""SUR"",""HE"",""CC"",""SC""]","[""WF14"",""AM09"",""WM11"",""BF06""]","[2,7,7,2]","[2,8,6,4]","","",""
"show-reward","30","114517","0.0-30.0","p475508","A1TMZLYXQAK8Q0","336OE47KI3QZCSCUXSQ8J11UOZXVWV","33M4IA01QI7PV5YXOFML97LNV7JXRH","model","mismatch","uniform","","","","","","","","114553.60000014305","116565.90000009537","","","","","","","","","","","","7","","stimuli/stars_7.png","36","","","","","stimuli/AM09_HE.jpg","",""
"explore-choice","31","116889","0.0-31.0","p475508","A1TMZLYXQAK8Q0","336OE47KI3QZCSCUXSQ8J11UOZXVWV","33M4IA01QI7PV5YXOFML97LNV7JXRH","model","mismatch","uniform","","","","","","","1863.9000000953674","116566.5","118430.40000009537","[""stimuli/BF06_HE.jpg"",""stimuli/WF14_CC.jpg"",""stimuli/WM11_SUR.jpg"",""stimuli/AM09_SC.jpg""]","stimuli/BF06_HE.jpg","stimuli/WF14_CC.jpg","stimuli/WM11_SUR.jpg","stimuli/AM09_SC.jpg","pos4","stimuli/AM09_SC.jpg","SC","AM09","3","4","8","8","stimuli/stars_8.png","40","[""HE"",""CC"",""SUR"",""SC""]","[""BF06"",""WF14"",""WM11"",""AM09""]","[5,1,4,8]","[4,2,6,8]","","",""
"show-reward","32","118906","0.0-32.0","p475508","A1TMZLYXQAK8Q0","336OE47KI3QZCSCUXSQ8J11UOZXVWV","33M4IA01QI7PV5YXOFML97LNV7JXRH","model","mismatch","uniform","","","","","","","","118939.30000019073","120955.10000014305","","","","","","","","","","","","8","","stimuli/stars_8.png","40","","","","","stimuli/AM09_SC.jpg","",""
"explore-choice","33","121043","0.0-33.0","p475508","A1TMZLYXQAK8Q0","336OE47KI3QZCSCUXSQ8J11UOZXVWV","33M4IA01QI7PV5YXOFML97LNV7JXRH","model","mismatch","uniform","","","","","","","1626.4000000953674","120956.40000009537","122582.80000019073","[""stimuli/AM09_SC.jpg"",""stimuli/WF14_CC.jpg"",""stimuli/BF06_SUR.jpg"",""stimuli/WM11_HE.jpg""]","stimuli/AM09_SC.jpg","stimuli/WF14_CC.jpg","stimuli/BF06_SUR.jpg","stimuli/WM11_HE.jpg","pos1","stimuli/AM09_SC.jpg","SC","AM09","0","3","6","8","stimuli/stars_6.png","43","[""SC"",""CC"",""SUR"",""HE""]","[""AM09"",""WF14"",""BF06"",""WM11""]","[6,1,4,7]","[8,2,4,6]","","",""
"show-reward","34","123051","0.0-34.0","p475508","A1TMZLYXQAK8Q0","336OE47KI3QZCSCUXSQ8J11UOZXVWV","33M4IA01QI7PV5YXOFML97LNV7JXRH","model","mismatch","uniform","","","","","","","","123092.70000004768","125099.40000009537","","","","","","","","","","","","6","","stimuli/stars_6.png","43","","","","","stimuli/AM09_SC.jpg","",""
"explore-choice","35","124570","0.0-35.0","p475508","A1TMZLYXQAK8Q0","336OE47KI3QZCSCUXSQ8J11UOZXVWV","33M4IA01QI7PV5YXOFML97LNV7JXRH","model","mismatch","uniform","","","","","","","1015.6000001430511","125100.5","126116.10000014305","[""stimuli/AM09_SC.jpg"",""stimuli/BF06_HE.jpg"",""stimuli/WM11_CC.jpg"",""stimuli/WF14_SUR.jpg""]","stimuli/AM09_SC.jpg","stimuli/BF06_HE.jpg","stimuli/WM11_CC.jpg","stimuli/WF14_SUR.jpg","pos1","stimuli/AM09_SC.jpg","SC","AM09","0","3","6","8","stimuli/stars_6.png","46","[""SC"",""HE"",""CC"",""SUR""]","[""AM09"",""BF06"",""WM11"",""WF14""]","[6,2,5,1]","[8,4,6,2]","","",""
"show-reward","36","126583","0.0-36.0","p475508","A1TMZLYXQAK8Q0","336OE47KI3QZCSCUXSQ8J11UOZXVWV","33M4IA01QI7PV5YXOFML97LNV7JXRH","model","mismatch","uniform","","","","","","","","126619.80000019073","128631.30000019073","","","","","","","","","","","","6","","stimuli/stars_6.png","46","","","","","stimuli/AM09_SC.jpg","",""
"explore-choice","37","128414","0.0-37.0","p475508","A1TMZLYXQAK8Q0","336OE47KI3QZCSCUXSQ8J11UOZXVWV","33M4IA01QI7PV5YXOFML97LNV7JXRH","model","mismatch","uniform","","","","","","","1325.5","128632.5","129958","[""stimuli/AM09_CC.jpg"",""stimuli/WF14_HE.jpg"",""stimuli/WM11_SUR.jpg"",""stimuli/BF06_SC.jpg""]","stimuli/AM09_CC.jpg","stimuli/WF14_HE.jpg","stimuli/WM11_SUR.jpg","stimuli/BF06_SC.jpg","pos1","stimuli/AM09_CC.jpg","CC","AM09","0","4","8","8","stimuli/stars_8.png","50","[""CC"",""HE"",""SUR"",""SC""]","[""AM09"",""WF14"",""WM11"",""BF06""]","[8,1,7,4]","[8,2,6,4]","","",""
"show-reward","38","130422","0.0-38.0","p475508","A1TMZLYXQAK8Q0","336OE47KI3QZCSCUXSQ8J11UOZXVWV","33M4IA01QI7PV5YXOFML97LNV7JXRH","model","mismatch","uniform","","","","","","","","130463.90000009537","132471.10000014305","","","","","","","","","","","","8","","stimuli/stars_8.png","50","","","","","stimuli/AM09_CC.jpg","",""
"explore-choice","39","132678","0.0-39.0","p475508","A1TMZLYXQAK8Q0","336OE47KI3QZCSCUXSQ8J11UOZXVWV","33M4IA01QI7PV5YXOFML97LNV7JXRH","model","mismatch","uniform","","","","","","","1749.5","132471.80000019073","134221.30000019073","[""stimuli/WM11_CC.jpg"",""stimuli/WF14_HE.jpg"",""stimuli/BF06_SC.jpg"",""stimuli/AM09_SUR.jpg""]","stimuli/WM11_CC.jpg","stimuli/WF14_HE.jpg","stimuli/BF06_SC.jpg","stimuli/AM09_SUR.jpg","pos4","stimuli/AM09_SUR.jpg","SUR","AM09","3","3","6","8","stimuli/stars_6.png","53","[""CC"",""HE"",""SC"",""SUR""]","[""WM11"",""WF14"",""BF06"",""AM09""]","[8,3,2,6]","[6,2,4,8]","","",""
"show-reward","40","134689","0.0-40.0","p475508","A1TMZLYXQAK8Q0","336OE47KI3QZCSCUXSQ8J11UOZXVWV","33M4IA01QI7PV5YXOFML97LNV7JXRH","model","mismatch","uniform","","","","","","","","134728.20000004768","136737.30000019073","","","","","","","","","","","","6","","stimuli/stars_6.png","53","","","","","stimuli/AM09_SUR.jpg","",""
"explore-choice","41","137087","0.0-41.0","p475508","A1TMZLYXQAK8Q0","336OE47KI3QZCSCUXSQ8J11UOZXVWV","33M4IA01QI7PV5YXOFML97LNV7JXRH","model","mismatch","uniform","","","","","","","1892.7000000476837","136738.60000014305","138631.30000019073","[""stimuli/WF14_SC.jpg"",""stimuli/BF06_SUR.jpg"",""stimuli/AM09_HE.jpg"",""stimuli/WM11_CC.jpg""]","stimuli/WF14_SC.jpg","stimuli/BF06_SUR.jpg","stimuli/AM09_HE.jpg","stimuli/WM11_CC.jpg","pos3","stimuli/AM09_HE.jpg","HE","AM09","2","3.5","7","8","stimuli/stars_7.png","56.5","[""SC"",""SUR"",""HE"",""CC""]","[""WF14"",""BF06"",""AM09"",""WM11""]","[1,4,7,4]","[2,4,8,6]","","",""
"show-reward","42","139095","0.0-42.0","p475508","A1TMZLYXQAK8Q0","336OE47KI3QZCSCUXSQ8J11UOZXVWV","33M4IA01QI7PV5YXOFML97LNV7JXRH","model","mismatch","uniform","","","","","","","","139137","141143.30000019073","","","","","","","","","","","","7","","stimuli/stars_7.png","56.5","","","","","stimuli/AM09_HE.jpg","",""
"explore-choice","43","141150","0.0-43.0","p475508","A1TMZLYXQAK8Q0","336OE47KI3QZCSCUXSQ8J11UOZXVWV","33M4IA01QI7PV5YXOFML97LNV7JXRH","model","mismatch","uniform","","","","","","","1546","141144.60000014305","142690.60000014305","[""stimuli/WF14_HE.jpg"",""stimuli/BF06_SUR.jpg"",""stimuli/AM09_SC.jpg"",""stimuli/WM11_CC.jpg""]","stimuli/WF14_HE.jpg","stimuli/BF06_SUR.jpg","stimuli/AM09_SC.jpg","stimuli/WM11_CC.jpg","pos3","stimuli/AM09_SC.jpg","SC","AM09","2","3.5","7","8","stimuli/stars_7.png","60","[""HE"",""SUR"",""SC"",""CC""]","[""WF14"",""BF06"",""AM09"",""WM11""]","[4,6,7,6]","[2,4,8,6]","","",""
"show-reward","44","143156","0.0-44.0","p475508","A1TMZLYXQAK8Q0","336OE47KI3QZCSCUXSQ8J11UOZXVWV","33M4IA01QI7PV5YXOFML97LNV7JXRH","model","mismatch","uniform","","","","","","","","143199.5","145205","","","","","","","","","","","","7","","stimuli/stars_7.png","60","","","","","stimuli/AM09_SC.jpg","",""
"explore-choice","45","147603","0.0-45.0","p475508","A1TMZLYXQAK8Q0","336OE47KI3QZCSCUXSQ8J11UOZXVWV","33M4IA01QI7PV5YXOFML97LNV7JXRH","model","mismatch","uniform","","","","","","","3942.100000143051","145206.20000004768","149148.30000019073","[""stimuli/WM11_SUR.jpg"",""stimuli/AM09_CC.jpg"",""stimuli/WF14_SC.jpg"",""stimuli/BF06_HE.jpg""]","stimuli/WM11_SUR.jpg","stimuli/AM09_CC.jpg","stimuli/WF14_SC.jpg","stimuli/BF06_HE.jpg","pos2","stimuli/AM09_CC.jpg","CC","AM09","1","3","6","8","stimuli/stars_6.png","63","[""SUR"",""CC"",""SC"",""HE""]","[""WM11"",""AM09"",""WF14"",""BF06""]","[7,6,3,5]","[6,8,2,4]","","",""
"show-reward","46","149620","0.0-46.0","p475508","A1TMZLYXQAK8Q0","336OE47KI3QZCSCUXSQ8J11UOZXVWV","33M4IA01QI7PV5YXOFML97LNV7JXRH","model","mismatch","uniform","","","","","","","","149652.90000009537","151669.20000004768","","","","","","","","","","","","6","","stimuli/stars_6.png","63","","","","","stimuli/AM09_CC.jpg","",""
"explore-choice","47","152233","0.0-47.0","p475508","A1TMZLYXQAK8Q0","336OE47KI3QZCSCUXSQ8J11UOZXVWV","33M4IA01QI7PV5YXOFML97LNV7JXRH","model","mismatch","uniform","","","","","","","2104.7000000476837","151669.90000009537","153774.60000014305","[""stimuli/AM09_CC.jpg"",""stimuli/WM11_HE.jpg"",""stimuli/WF14_SUR.jpg"",""stimuli/BF06_SC.jpg""]","stimuli/AM09_CC.jpg","stimuli/WM11_HE.jpg","stimuli/WF14_SUR.jpg","stimuli/BF06_SC.jpg","pos1","stimuli/AM09_CC.jpg","CC","AM09","0","3","6","8","stimuli/stars_6.png","66","[""CC"",""HE"",""SUR"",""SC""]","[""AM09"",""WM11"",""WF14"",""BF06""]","[6,4,0,2]","[8,6,2,4]","","",""
"show-reward","48","154239","0.0-48.0","p475508","A1TMZLYXQAK8Q0","336OE47KI3QZCSCUXSQ8J11UOZXVWV","33M4IA01QI7PV5YXOFML97LNV7JXRH","model","mismatch","uniform","","","","","","","","154283","156287.20000004768","","","","","","","","","","","","6","","stimuli/stars_6.png","66","","","","","stimuli/AM09_CC.jpg","",""
"explore-choice","49","157197","0.0-49.0","p475508","A1TMZLYXQAK8Q0","336OE47KI3QZCSCUXSQ8J11UOZXVWV","33M4IA01QI7PV5YXOFML97LNV7JXRH","model","mismatch","uniform","","","","","","","2451.2000000476837","156288.5","158739.70000004768","[""stimuli/AM09_HE.jpg"",""stimuli/BF06_CC.jpg"",""stimuli/WF14_SC.jpg"",""stimuli/WM11_SUR.jpg""]","stimuli/AM09_HE.jpg","stimuli/BF06_CC.jpg","stimuli/WF14_SC.jpg","stimuli/WM11_SUR.jpg","pos4","stimuli/WM11_SUR.jpg","SUR","WM11","3","3.5","7","6","stimuli/stars_7.png","69.5","[""HE"",""CC"",""SC"",""SUR""]","[""AM09"",""BF06"",""WF14"",""WM11""]","[10,5,0,7]","[8,4,2,6]","","",""
"show-reward","50","159216","0.0-50.0","p475508","A1TMZLYXQAK8Q0","336OE47KI3QZCSCUXSQ8J11UOZXVWV","33M4IA01QI7PV5YXOFML97LNV7JXRH","model","mismatch","uniform","","","","","","","","159247.10000014305","161264.80000019073","","","","","","","","","","","","7","","stimuli/stars_7.png","69.5","","","","","stimuli/WM11_SUR.jpg","",""
"explore-choice","51","162649","0.0-51.0","p475508","A1TMZLYXQAK8Q0","336OE47KI3QZCSCUXSQ8J11UOZXVWV","33M4IA01QI7PV5YXOFML97LNV7JXRH","model","mismatch","uniform","","","","","","","2927.600000143051","161265.70000004768","164193.30000019073","[""stimuli/WF14_HE.jpg"",""stimuli/AM09_CC.jpg"",""stimuli/WM11_SC.jpg"",""stimuli/BF06_SUR.jpg""]","stimuli/WF14_HE.jpg","stimuli/AM09_CC.jpg","stimuli/WM11_SC.jpg","stimuli/BF06_SUR.jpg","pos2","stimuli/AM09_CC.jpg","CC","AM09","1","3","6","8","stimuli/stars_6.png","72.5","[""HE"",""CC"",""SC"",""SUR""]","[""WF14"",""AM09"",""WM11"",""BF06""]","[0,6,4,2]","[2,8,6,4]","","",""
"show-reward","52","164657","0.0-52.0","p475508","A1TMZLYXQAK8Q0","336OE47KI3QZCSCUXSQ8J11UOZXVWV","33M4IA01QI7PV5YXOFML97LNV7JXRH","model","mismatch","uniform","","","","","","","","164699.5","166705.60000014305","","","","","","","","","","","","6","","stimuli/stars_6.png","72.5","","","","","stimuli/AM09_CC.jpg","",""
"explore-choice","53","167834","0.0-53.0","p475508","A1TMZLYXQAK8Q0","336OE47KI3QZCSCUXSQ8J11UOZXVWV","33M4IA01QI7PV5YXOFML97LNV7JXRH","model","mismatch","uniform","","","","","","","2668.100000143051","166707","169375.10000014305","[""stimuli/WM11_CC.jpg"",""stimuli/AM09_SUR.jpg"",""stimuli/BF06_HE.jpg"",""stimuli/WF14_SC.jpg""]","stimuli/WM11_CC.jpg","stimuli/AM09_SUR.jpg","stimuli/BF06_HE.jpg","stimuli/WF14_SC.jpg","pos2","stimuli/AM09_SUR.jpg","SUR","AM09","1","5","10","8","stimuli/stars_10.png","77.5","[""CC"",""SUR"",""HE"",""SC""]","[""WM11"",""AM09"",""BF06"",""WF14""]","[8,10,4,0]","[6,8,4,2]","","",""
"show-reward","54","169844","0.0-54.0","p475508","A1TMZLYXQAK8Q0","336OE47KI3QZCSCUXSQ8J11UOZXVWV","33M4IA01QI7PV5YXOFML97LNV7JXRH","model","mismatch","uniform","","","","","","","","169883.60000014305","171892.60000014305","","","","","","","","","","","","10","","stimuli/stars_10.png","77.5","","","","","stimuli/AM09_SUR.jpg","",""
"explore-choice","55","173421","0.0-55.0","p475508","A1TMZLYXQAK8Q0","336OE47KI3QZCSCUXSQ8J11UOZXVWV","33M4IA01QI7PV5YXOFML97LNV7JXRH","model","mismatch","uniform","","","","","","","3070.0999999046326","171893.30000019073","174963.40000009537","[""stimuli/AM09_CC.jpg"",""stimuli/BF06_SUR.jpg"",""stimuli/WM11_SC.jpg"",""stimuli/WF14_HE.jpg""]","stimuli/AM09_CC.jpg","stimuli/BF06_SUR.jpg","stimuli/WM11_SC.jpg","stimuli/WF14_HE.jpg","pos2","stimuli/BF06_SUR.jpg","SUR","BF06","1","1","2","4","stimuli/stars_2.png","78.5","[""CC"",""SUR"",""SC"",""HE""]","[""AM09"",""BF06"",""WM11"",""WF14""]","[6,2,4,0]","[8,4,6,2]","","",""
"show-reward","56","175436","0.0-56.0","p475508","A1TMZLYXQAK8Q0","336OE47KI3QZCSCUXSQ8J11UOZXVWV","33M4IA01QI7PV5YXOFML97LNV7JXRH","model","mismatch","uniform","","","","","","","","175470.90000009537","177484.30000019073","","","","","","","","","","","","2","","stimuli/stars_2.png","78.5","","","","","stimuli/BF06_SUR.jpg","",""
"explore-choice","57","178132","0.0-57.0","p475508","A1TMZLYXQAK8Q0","336OE47KI3QZCSCUXSQ8J11UOZXVWV","33M4IA01QI7PV5YXOFML97LNV7JXRH","model","mismatch","uniform","","","","","","","2191.4000000953674","177485.40000009537","179676.80000019073","[""stimuli/WM11_SC.jpg"",""stimuli/WF14_HE.jpg"",""stimuli/AM09_SUR.jpg"",""stimuli/BF06_CC.jpg""]","stimuli/WM11_SC.jpg","stimuli/WF14_HE.jpg","stimuli/AM09_SUR.jpg","stimuli/BF06_CC.jpg","pos3","stimuli/AM09_SUR.jpg","SUR","AM09","2","3","6","8","stimuli/stars_6.png","81.5","[""SC"",""HE"",""SUR"",""CC""]","[""WM11"",""WF14"",""AM09"",""BF06""]","[8,2,6,5]","[6,2,8,4]","","",""
"show-reward","58","180145","0.0-58.0","p475508","A1TMZLYXQAK8Q0","336OE47KI3QZCSCUXSQ8J11UOZXVWV","33M4IA01QI7PV5YXOFML97LNV7JXRH","model","mismatch","uniform","","","","","","","","180181.80000019073","182194.10000014305","","","","","","","","","","","","6","","stimuli/stars_6.png","81.5","","","","","stimuli/AM09_SUR.jpg","",""
"explore-choice","59","182879","0.0-59.0","p475508","A1TMZLYXQAK8Q0","336OE47KI3QZCSCUXSQ8J11UOZXVWV","33M4IA01QI7PV5YXOFML97LNV7JXRH","model","mismatch","uniform","","","","","","","2228.5999999046326","182194.80000019073","184423.40000009537","[""stimuli/WM11_SC.jpg"",""stimuli/WF14_SUR.jpg"",""stimuli/BF06_CC.jpg"",""stimuli/AM09_HE.jpg""]","stimuli/WM11_SC.jpg","stimuli/WF14_SUR.jpg","stimuli/BF06_CC.jpg","stimuli/AM09_HE.jpg","pos4","stimuli/AM09_HE.jpg","HE","AM09","3","3.5","7","8","stimuli/stars_7.png","85","[""SC"",""SUR"",""CC"",""HE""]","[""WM11"",""WF14"",""BF06"",""AM09""]","[8,0,2,7]","[6,2,4,8]","","",""
"show-reward","60","184892","0.0-60.0","p475508","A1TMZLYXQAK8Q0","336OE47KI3QZCSCUXSQ8J11UOZXVWV","33M4IA01QI7PV5YXOFML97LNV7JXRH","model","mismatch","uniform","","","","","","","","184928.80000019073","186941","","","","","","","","","","","","7","","stimuli/stars_7.png","85","","","","","stimuli/AM09_HE.jpg","",""
"explore-choice","61","187987","0.0-61.0","p475508","A1TMZLYXQAK8Q0","336OE47KI3QZCSCUXSQ8J11UOZXVWV","33M4IA01QI7PV5YXOFML97LNV7JXRH","model","mismatch","uniform","","","","","","","2591.399999856949","186942.30000019073","189533.70000004768","[""stimuli/WF14_SC.jpg"",""stimuli/BF06_CC.jpg"",""stimuli/WM11_SUR.jpg"",""stimuli/AM09_HE.jpg""]","stimuli/WF14_SC.jpg","stimuli/BF06_CC.jpg","stimuli/WM11_SUR.jpg","stimuli/AM09_HE.jpg","pos3","stimuli/WM11_SUR.jpg","SUR","WM11","2","3.5","7","6","stimuli/stars_7.png","88.5","[""SC"",""CC"",""SUR"",""HE""]","[""WF14"",""BF06"",""WM11"",""AM09""]","[0,5,7,10]","[2,4,6,8]","","",""
"show-reward","62","189998","0.0-62.0","p475508","A1TMZLYXQAK8Q0","336OE47KI3QZCSCUXSQ8J11UOZXVWV","33M4IA01QI7PV5YXOFML97LNV7JXRH","model","mismatch","uniform","","","","","","","","190037.10000014305","192046.10000014305","","","","","","","","","","","","7","","stimuli/stars_7.png","88.5","","","","","stimuli/WM11_SUR.jpg","",""
"explore-choice","63","193067","0.0-63.0","p475508","A1TMZLYXQAK8Q0","336OE47KI3QZCSCUXSQ8J11UOZXVWV","33M4IA01QI7PV5YXOFML97LNV7JXRH","model","mismatch","uniform","","","","","","","2562.7999999523163","192047.40000009537","194610.20000004768","[""stimuli/WM11_SUR.jpg"",""stimuli/AM09_SC.jpg"",""stimuli/BF06_HE.jpg"",""stimuli/WF14_CC.jpg""]","stimuli/WM11_SUR.jpg","stimuli/AM09_SC.jpg","stimuli/BF06_HE.jpg","stimuli/WF14_CC.jpg","pos1","stimuli/WM11_SUR.jpg","SUR","WM11","0","2","4","6","stimuli/stars_4.png","90.5","[""SUR"",""SC"",""HE"",""CC""]","[""WM11"",""AM09"",""BF06"",""WF14""]","[4,8,5,1]","[6,8,4,2]","","",""
"show-reward","64","195073","0.0-64.0","p475508","A1TMZLYXQAK8Q0","336OE47KI3QZCSCUXSQ8J11UOZXVWV","33M4IA01QI7PV5YXOFML97LNV7JXRH","model","mismatch","uniform","","","","","","","","195117.30000019073","197121.80000019073","","","","","","","","","","","","4","","stimuli/stars_4.png","90.5","","","","","stimuli/WM11_SUR.jpg","",""
"explore-choice","65","196935","0.0-65.0","p475508","A1TMZLYXQAK8Q0","336OE47KI3QZCSCUXSQ8J11UOZXVWV","33M4IA01QI7PV5YXOFML97LNV7JXRH","model","mismatch","uniform","","","","","","","1359.6000001430511","197123","198482.60000014305","[""stimuli/BF06_SC.jpg"",""stimuli/AM09_HE.jpg"",""stimuli/WM11_CC.jpg"",""stimuli/WF14_SUR.jpg""]","stimuli/BF06_SC.jpg","stimuli/AM09_HE.jpg","stimuli/WM11_CC.jpg","stimuli/WF14_SUR.jpg","pos2","stimuli/AM09_HE.jpg","HE","AM09","1","3.5","7","8","stimuli/stars_7.png","94","[""SC"",""HE"",""CC"",""SUR""]","[""BF06"",""AM09"",""WM11"",""WF14""]","[2,7,7,2]","[4,8,6,2]","","",""
"show-reward","66","198944","0.0-66.0","p475508","A1TMZLYXQAK8Q0","336OE47KI3QZCSCUXSQ8J11UOZXVWV","33M4IA01QI7PV5YXOFML97LNV7JXRH","model","mismatch","uniform","","","","","","","","198985","200992.20000004768","","","","","","","","","","","","7","","stimuli/stars_7.png","94","","","","","stimuli/AM09_HE.jpg","",""
"explore-choice","67","201294","0.0-67.0","p475508","A1TMZLYXQAK8Q0","336OE47KI3QZCSCUXSQ8J11UOZXVWV","33M4IA01QI7PV5YXOFML97LNV7JXRH","model","mismatch","uniform","","","","","","","1848.7999999523163","200993.40000009537","202842.20000004768","[""stimuli/WM11_CC.jpg"",""stimuli/BF06_SC.jpg"",""stimuli/AM09_SUR.jpg"",""stimuli/WF14_HE.jpg""]","stimuli/WM11_CC.jpg","stimuli/BF06_SC.jpg","stimuli/AM09_SUR.jpg","stimuli/WF14_HE.jpg","pos3","stimuli/AM09_SUR.jpg","SUR","AM09","2","3","6","8","stimuli/stars_6.png","97","[""CC"",""SC"",""SUR"",""HE""]","[""WM11"",""BF06"",""AM09"",""WF14""]","[8,2,6,3]","[6,4,8,2]","","",""
"show-reward","68","203300","0.0-68.0","p475508","A1TMZLYXQAK8Q0","336OE47KI3QZCSCUXSQ8J11UOZXVWV","33M4IA01QI7PV5YXOFML97LNV7JXRH","model","mismatch","uniform","","","","","","","","203343.90000009537","205348.20000004768","","","","","","","","","","","","6","","stimuli/stars_6.png","97","","","","","stimuli/AM09_SUR.jpg","",""
"explore-choice","69","205116","0.0-69.0","p475508","A1TMZLYXQAK8Q0","336OE47KI3QZCSCUXSQ8J11UOZXVWV","33M4IA01QI7PV5YXOFML97LNV7JXRH","model","mismatch","uniform","","","","","","","1310.2999999523163","205349.60000014305","206659.90000009537","[""stimuli/AM09_SUR.jpg"",""stimuli/WM11_CC.jpg"",""stimuli/WF14_SC.jpg"",""stimuli/BF06_HE.jpg""]","stimuli/AM09_SUR.jpg","stimuli/WM11_CC.jpg","stimuli/WF14_SC.jpg","stimuli/BF06_HE.jpg","pos1","stimuli/AM09_SUR.jpg","SUR","AM09","0","5","10","8","stimuli/stars_10.png","102","[""SUR"",""CC"",""SC"",""HE""]","[""AM09"",""WM11"",""WF14"",""BF06""]","[10,8,0,4]","[8,6,2,4]","","",""
"show-reward","70","207132","0.0-70.0","p475508","A1TMZLYXQAK8Q0","336OE47KI3QZCSCUXSQ8J11UOZXVWV","33M4IA01QI7PV5YXOFML97LNV7JXRH","model","mismatch","uniform","","","","","","","","207165.80000019073","209180.70000004768","","","","","","","","","","","","10","","stimuli/stars_10.png","102","","","","","stimuli/AM09_SUR.jpg","",""
"explore-choice","71","208991","0.0-71.0","p475508","A1TMZLYXQAK8Q0","336OE47KI3QZCSCUXSQ8J11UOZXVWV","33M4IA01QI7PV5YXOFML97LNV7JXRH","model","mismatch","uniform","","","","","","","1353.3999998569489","209181.60000014305","210535","[""stimuli/WF14_SC.jpg"",""stimuli/AM09_CC.jpg"",""stimuli/WM11_HE.jpg"",""stimuli/BF06_SUR.jpg""]","stimuli/WF14_SC.jpg","stimuli/AM09_CC.jpg","stimuli/WM11_HE.jpg","stimuli/BF06_SUR.jpg","pos2","stimuli/AM09_CC.jpg","CC","AM09","1","3","6","8","stimuli/stars_6.png","105","[""SC"",""CC"",""HE"",""SUR""]","[""WF14"",""AM09"",""WM11"",""BF06""]","[4,6,6,3]","[2,8,6,4]","","",""
"show-reward","72","211003","0.0-72.0","p475508","A1TMZLYXQAK8Q0","336OE47KI3QZCSCUXSQ8J11UOZXVWV","33M4IA01QI7PV5YXOFML97LNV7JXRH","model","mismatch","uniform","","","","","","","","211040.80000019073","213051.30000019073","","","","","","","","","","","","6","","stimuli/stars_6.png","105","","","","","stimuli/AM09_CC.jpg","",""
"explore-choice","73","213900","0.0-73.0","p475508","A1TMZLYXQAK8Q0","336OE47KI3QZCSCUXSQ8J11UOZXVWV","33M4IA01QI7PV5YXOFML97LNV7JXRH","model","mismatch","uniform","","","","","","","2391.800000190735","213052.5","215444.30000019073","[""stimuli/AM09_HE.jpg"",""stimuli/WM11_SUR.jpg"",""stimuli/BF06_SC.jpg"",""stimuli/WF14_CC.jpg""]","stimuli/AM09_HE.jpg","stimuli/WM11_SUR.jpg","stimuli/BF06_SC.jpg","stimuli/WF14_CC.jpg","pos2","stimuli/WM11_SUR.jpg","SUR","WM11","1","3","6","6","stimuli/stars_6.png","108","[""HE"",""SUR"",""SC"",""CC""]","[""AM09"",""WM11"",""BF06"",""WF14""]","[10,6,6,0]","[8,6,4,2]","","",""
"show-reward","74","215904","0.0-74.0","p475508","A1TMZLYXQAK8Q0","336OE47KI3QZCSCUXSQ8J11UOZXVWV","33M4IA01QI7PV5YXOFML97LNV7JXRH","model","mismatch","uniform","","","","","","","","215949.40000009537","217953.20000004768","","","","","","","","","","","","6","","stimuli/stars_6.png","108","","","","","stimuli/WM11_SUR.jpg","",""
"explore-choice","75","217871","0.0-75.0","p475508","A1TMZLYXQAK8Q0","336OE47KI3QZCSCUXSQ8J11UOZXVWV","33M4IA01QI7PV5YXOFML97LNV7JXRH","model","mismatch","uniform","","","","","","","1461.8999998569489","217953.80000019073","219415.70000004768","[""stimuli/AM09_SUR.jpg"",""stimuli/WF14_CC.jpg"",""stimuli/WM11_SC.jpg"",""stimuli/BF06_HE.jpg""]","stimuli/AM09_SUR.jpg","stimuli/WF14_CC.jpg","stimuli/WM11_SC.jpg","stimuli/BF06_HE.jpg","pos1","stimuli/AM09_SUR.jpg","SUR","AM09","0","3","6","8","stimuli/stars_6.png","111","[""SUR"",""CC"",""SC"",""HE""]","[""AM09"",""WF14"",""WM11"",""BF06""]","[6,0,5,4]","[8,2,6,4]","","",""
"show-reward","76","219888","0.0-76.0","p475508","A1TMZLYXQAK8Q0","336OE47KI3QZCSCUXSQ8J11UOZXVWV","33M4IA01QI7PV5YXOFML97LNV7JXRH","model","mismatch","uniform","","","","","","","","219920.20000004768","221936.70000004768","","","","","","","","","","","","6","","stimuli/stars_6.png","111","","","","","stimuli/AM09_SUR.jpg","",""
"explore-choice","77","221912","0.0-77.0","p475508","A1TMZLYXQAK8Q0","336OE47KI3QZCSCUXSQ8J11UOZXVWV","33M4IA01QI7PV5YXOFML97LNV7JXRH","model","mismatch","uniform","","","","","","","1519.5999999046326","221937.60000014305","223457.20000004768","[""stimuli/BF06_HE.jpg"",""stimuli/AM09_CC.jpg"",""stimuli/WM11_SC.jpg"",""stimuli/WF14_SUR.jpg""]","stimuli/BF06_HE.jpg","stimuli/AM09_CC.jpg","stimuli/WM11_SC.jpg","stimuli/WF14_SUR.jpg","pos2","stimuli/AM09_CC.jpg","CC","AM09","1","4","8","8","stimuli/stars_8.png","115","[""HE"",""CC"",""SC"",""SUR""]","[""BF06"",""AM09"",""WM11"",""WF14""]","[6,8,8,2]","[4,8,6,2]","","",""
"show-reward","78","223926","0.0-78.0","p475508","A1TMZLYXQAK8Q0","336OE47KI3QZCSCUXSQ8J11UOZXVWV","33M4IA01QI7PV5YXOFML97LNV7JXRH","model","mismatch","uniform","","","","","","","","223962.10000014305","225975.30000019073","","","","","","","","","","","","8","","stimuli/stars_8.png","115","","","","","stimuli/AM09_CC.jpg","",""
"explore-choice","79","225681","0.0-79.0","p475508","A1TMZLYXQAK8Q0","336OE47KI3QZCSCUXSQ8J11UOZXVWV","33M4IA01QI7PV5YXOFML97LNV7JXRH","model","mismatch","uniform","","","","","","","1245.1999998092651","225975.80000019073","227221","[""stimuli/AM09_CC.jpg"",""stimuli/BF06_HE.jpg"",""stimuli/WF14_SC.jpg"",""stimuli/WM11_SUR.jpg""]","stimuli/AM09_CC.jpg","stimuli/BF06_HE.jpg","stimuli/WF14_SC.jpg","stimuli/WM11_SUR.jpg","pos1","stimuli/AM09_CC.jpg","CC","AM09","0","3","6","8","stimuli/stars_6.png","118","[""CC"",""HE"",""SC"",""SUR""]","[""AM09"",""BF06"",""WF14"",""WM11""]","[6,5,3,7]","[8,4,2,6]","","",""
"show-reward","80","227692","0.0-80.0","p475508","A1TMZLYXQAK8Q0","336OE47KI3QZCSCUXSQ8J11UOZXVWV","33M4IA01QI7PV5YXOFML97LNV7JXRH","model","mismatch","uniform","","","","","","","","227729.70000004768","229740.5","","","","","","","","","","","","6","","stimuli/stars_6.png","118","","","","","stimuli/AM09_CC.jpg","",""
"explore-choice","81","229928","0.0-81.0","p475508","A1TMZLYXQAK8Q0","336OE47KI3QZCSCUXSQ8J11UOZXVWV","33M4IA01QI7PV5YXOFML97LNV7JXRH","model","mismatch","uniform","","","","","","","1733.5","229741.20000004768","231474.70000004768","[""stimuli/BF06_SC.jpg"",""stimuli/WF14_CC.jpg"",""stimuli/WM11_HE.jpg"",""stimuli/AM09_SUR.jpg""]","stimuli/BF06_SC.jpg","stimuli/WF14_CC.jpg","stimuli/WM11_HE.jpg","stimuli/AM09_SUR.jpg","pos4","stimuli/AM09_SUR.jpg","SUR","AM09","3","3","6","8","stimuli/stars_6.png","121","[""SC"",""CC"",""HE"",""SUR""]","[""BF06"",""WF14"",""WM11"",""AM09""]","[4,4,7,6]","[4,2,6,8]","","",""
"show-reward","82","231937","0.0-82.0","p475508","A1TMZLYXQAK8Q0","336OE47KI3QZCSCUXSQ8J11UOZXVWV","33M4IA01QI7PV5YXOFML97LNV7JXRH","model","mismatch","uniform","","","","","","","","231976.60000014305","233985.30000019073","","","","","","","","","","","","6","","stimuli/stars_6.png","121","","","","","stimuli/AM09_SUR.jpg","",""
"explore-choice","83","235188","0.0-83.0","p475508","A1TMZLYXQAK8Q0","336OE47KI3QZCSCUXSQ8J11UOZXVWV","33M4IA01QI7PV5YXOFML97LNV7JXRH","model","mismatch","uniform","","","","","","","2749.4000000953674","233986.20000004768","236735.60000014305","[""stimuli/BF06_SUR.jpg"",""stimuli/WM11_SC.jpg"",""stimuli/WF14_CC.jpg"",""stimuli/AM09_HE.jpg""]","stimuli/BF06_SUR.jpg","stimuli/WM11_SC.jpg","stimuli/WF14_CC.jpg","stimuli/AM09_HE.jpg","pos4","stimuli/AM09_HE.jpg","HE","AM09","3","3","6","8","stimuli/stars_6.png","124","[""SUR"",""SC"",""CC"",""HE""]","[""BF06"",""WM11"",""WF14"",""AM09""]","[2,4,4,6]","[4,6,2,8]","","",""
"show-reward","84","237204","0.0-84.0","p475508","A1TMZLYXQAK8Q0","336OE47KI3QZCSCUXSQ8J11UOZXVWV","33M4IA01QI7PV5YXOFML97LNV7JXRH","model","mismatch","uniform","","","","","","","","237237.5","239252.5","","","","","","","","","","","","6","","stimuli/stars_6.png","124","","","","","stimuli/AM09_HE.jpg","",""
"explore-choice","85","239440","0.0-85.0","p475508","A1TMZLYXQAK8Q0","336OE47KI3QZCSCUXSQ8J11UOZXVWV","33M4IA01QI7PV5YXOFML97LNV7JXRH","model","mismatch","uniform","","","","","","","1719.4000000953674","239253.70000004768","240973.10000014305","[""stimuli/WM11_HE.jpg"",""stimuli/BF06_SUR.jpg"",""stimuli/WF14_CC.jpg"",""stimuli/AM09_SC.jpg""]","stimuli/WM11_HE.jpg","stimuli/BF06_SUR.jpg","stimuli/WF14_CC.jpg","stimuli/AM09_SC.jpg","pos4","stimuli/AM09_SC.jpg","SC","AM09","3","3","6","8","stimuli/stars_6.png","127","[""HE"",""SUR"",""CC"",""SC""]","[""WM11"",""BF06"",""WF14"",""AM09""]","[7,4,1,6]","[6,4,2,8]","","",""
"show-reward","86","241448","0.0-86.0","p475508","A1TMZLYXQAK8Q0","336OE47KI3QZCSCUXSQ8J11UOZXVWV","33M4IA01QI7PV5YXOFML97LNV7JXRH","model","mismatch","uniform","","","","","","","","241489.60000014305","243496.20000004768","","","","","","","","","","","","6","","stimuli/stars_6.png","127","","","","","stimuli/AM09_SC.jpg","",""
"explore-choice","87","243986","0.0-87.0","p475508","A1TMZLYXQAK8Q0","336OE47KI3QZCSCUXSQ8J11UOZXVWV","33M4IA01QI7PV5YXOFML97LNV7JXRH","model","mismatch","uniform","","","","","","","2035.9000000953674","243497","245532.90000009537","[""stimuli/AM09_CC.jpg"",""stimuli/WM11_HE.jpg"",""stimuli/BF06_SC.jpg"",""stimuli/WF14_SUR.jpg""]","stimuli/AM09_CC.jpg","stimuli/WM11_HE.jpg","stimuli/BF06_SC.jpg","stimuli/WF14_SUR.jpg","pos1","stimuli/AM09_CC.jpg","CC","AM09","0","3","6","8","stimuli/stars_6.png","130","[""CC"",""HE"",""SC"",""SUR""]","[""AM09"",""WM11"",""BF06"",""WF14""]","[6,4,2,0]","[8,6,4,2]","","",""
"show-reward","88","246000","0.0-88.0","p475508","A1TMZLYXQAK8Q0","336OE47KI3QZCSCUXSQ8J11UOZXVWV","33M4IA01QI7PV5YXOFML97LNV7JXRH","model","mismatch","uniform","","","","","","","","246034.60000014305","248047.90000009537","","","","","","","","","","","","6","","stimuli/stars_6.png","130","","","","","stimuli/AM09_CC.jpg","",""
"explore-choice","89","249029","0.0-89.0","p475508","A1TMZLYXQAK8Q0","336OE47KI3QZCSCUXSQ8J11UOZXVWV","33M4IA01QI7PV5YXOFML97LNV7JXRH","model","mismatch","uniform","","","","","","","2525.0999999046326","248048.60000014305","250573.70000004768","[""stimuli/WF14_SUR.jpg"",""stimuli/BF06_HE.jpg"",""stimuli/AM09_SC.jpg"",""stimuli/WM11_CC.jpg""]","stimuli/WF14_SUR.jpg","stimuli/BF06_HE.jpg","stimuli/AM09_SC.jpg","stimuli/WM11_CC.jpg","pos3","stimuli/AM09_SC.jpg","SC","AM09","2","3","6","8","stimuli/stars_6.png","133","[""SUR"",""HE"",""SC"",""CC""]","[""WF14"",""BF06"",""AM09"",""WM11""]","[1,2,6,5]","[2,4,8,6]","","",""
"show-reward","90","251040","0.0-90.0","p475508","A1TMZLYXQAK8Q0","336OE47KI3QZCSCUXSQ8J11UOZXVWV","33M4IA01QI7PV5YXOFML97LNV7JXRH","model","mismatch","uniform","","","","","","","","251078.70000004768","253088.60000014305","","","","","","","","","","","","6","","stimuli/stars_6.png","133","","","","","stimuli/AM09_SC.jpg","",""
"explore-choice","91","254980","0.0-91.0","p475508","A1TMZLYXQAK8Q0","336OE47KI3QZCSCUXSQ8J11UOZXVWV","33M4IA01QI7PV5YXOFML97LNV7JXRH","model","mismatch","uniform","","","","","","","3437.199999809265","253089.80000019073","256527","[""stimuli/WF14_HE.jpg"",""stimuli/AM09_SC.jpg"",""stimuli/BF06_SUR.jpg"",""stimuli/WM11_CC.jpg""]","stimuli/WF14_HE.jpg","stimuli/AM09_SC.jpg","stimuli/BF06_SUR.jpg","stimuli/WM11_CC.jpg","pos4","stimuli/WM11_CC.jpg","CC","WM11","3","3","6","6","stimuli/stars_6.png","136","[""HE"",""SC"",""SUR"",""CC""]","[""WF14"",""AM09"",""BF06"",""WM11""]","[4,7,6,6]","[2,8,4,6]","","",""
"show-reward","92","256994","0.0-92.0","p475508","A1TMZLYXQAK8Q0","336OE47KI3QZCSCUXSQ8J11UOZXVWV","33M4IA01QI7PV5YXOFML97LNV7JXRH","model","mismatch","uniform","","","","","","","","257029.40000009537","259042.10000014305","","","","","","","","","","","","6","","stimuli/stars_6.png","136","","","","","stimuli/WM11_CC.jpg","",""
"explore-choice","93","259514","0.0-93.0","p475508","A1TMZLYXQAK8Q0","336OE47KI3QZCSCUXSQ8J11UOZXVWV","33M4IA01QI7PV5YXOFML97LNV7JXRH","model","mismatch","uniform","","","","","","","2013.7999999523163","259043.40000009537","261057.20000004768","[""stimuli/AM09_HE.jpg"",""stimuli/WF14_SC.jpg"",""stimuli/BF06_SUR.jpg"",""stimuli/WM11_CC.jpg""]","stimuli/AM09_HE.jpg","stimuli/WF14_SC.jpg","stimuli/BF06_SUR.jpg","stimuli/WM11_CC.jpg","pos1","stimuli/AM09_HE.jpg","HE","AM09","0","3.5","7","8","stimuli/stars_7.png","139.5","[""HE"",""SC"",""SUR"",""CC""]","[""AM09"",""WF14"",""BF06"",""WM11""]","[7,1,4,4]","[8,2,4,6]","","",""
"show-reward","94","261528","0.0-94.0","p475508","A1TMZLYXQAK8Q0","336OE47KI3QZCSCUXSQ8J11UOZXVWV","33M4IA01QI7PV5YXOFML97LNV7JXRH","model","mismatch","uniform","","","","","","","","261563.40000009537","263575.90000009537","","","","","","","","","","","","7","","stimuli/stars_7.png","139.5","","","","","stimuli/AM09_HE.jpg","",""
"explore-choice","95","264259","0.0-95.0","p475508","A1TMZLYXQAK8Q0","336OE47KI3QZCSCUXSQ8J11UOZXVWV","33M4IA01QI7PV5YXOFML97LNV7JXRH","model","mismatch","uniform","","","","","","","2228.600000143051","263576.5","265805.10000014305","[""stimuli/WM11_HE.jpg"",""stimuli/AM09_SC.jpg"",""stimuli/WF14_SUR.jpg"",""stimuli/BF06_CC.jpg""]","stimuli/WM11_HE.jpg","stimuli/AM09_SC.jpg","stimuli/WF14_SUR.jpg","stimuli/BF06_CC.jpg","pos2","stimuli/AM09_SC.jpg","SC","AM09","1","4","8","8","stimuli/stars_8.png","143.5","[""HE"",""SC"",""SUR"",""CC""]","[""WM11"",""AM09"",""WF14"",""BF06""]","[6,8,3,4]","[6,8,2,4]","","",""
"show-reward","96","266279","0.0-96.0","p475508","A1TMZLYXQAK8Q0","336OE47KI3QZCSCUXSQ8J11UOZXVWV","33M4IA01QI7PV5YXOFML97LNV7JXRH","model","mismatch","uniform","","","","","","","","266308.90000009537","268327.30000019073","","","","","","","","","","","","8","","stimuli/stars_8.png","143.5","","","","","stimuli/AM09_SC.jpg","",""
"explore-choice","97","268078","0.0-97.0","p475508","A1TMZLYXQAK8Q0","336OE47KI3QZCSCUXSQ8J11UOZXVWV","33M4IA01QI7PV5YXOFML97LNV7JXRH","model","mismatch","uniform","","","","","","","1296.6000001430511","268328.7000000477","269625.30000019073","[""stimuli/WF14_HE.jpg"",""stimuli/AM09_SC.jpg"",""stimuli/WM11_SUR.jpg"",""stimuli/BF06_CC.jpg""]","stimuli/WF14_HE.jpg","stimuli/AM09_SC.jpg","stimuli/WM11_SUR.jpg","stimuli/BF06_CC.jpg","pos2","stimuli/AM09_SC.jpg","SC","AM09","1","5","10","8","stimuli/stars_10.png","148.5","[""HE"",""SC"",""SUR"",""CC""]","[""WF14"",""AM09"",""WM11"",""BF06""]","[2,10,8,3]","[2,8,6,4]","","",""
"show-reward","98","270096","0.0-98.0","p475508","A1TMZLYXQAK8Q0","336OE47KI3QZCSCUXSQ8J11UOZXVWV","33M4IA01QI7PV5YXOFML97LNV7JXRH","model","mismatch","uniform","","","","","","","","270127","272144","","","","","","","","","","","","10","","stimuli/stars_10.png","148.5","","","","","stimuli/AM09_SC.jpg","",""
"explore-choice","99","272181","0.0-99.0","p475508","A1TMZLYXQAK8Q0","336OE47KI3QZCSCUXSQ8J11UOZXVWV","33M4IA01QI7PV5YXOFML97LNV7JXRH","model","mismatch","uniform","","","","","","","1583.8999998569489","272144.60000014305","273728.5","[""stimuli/WM11_HE.jpg"",""stimuli/BF06_CC.jpg"",""stimuli/AM09_SUR.jpg"",""stimuli/WF14_SC.jpg""]","stimuli/WM11_HE.jpg","stimuli/BF06_CC.jpg","stimuli/AM09_SUR.jpg","stimuli/WF14_SC.jpg","pos3","stimuli/AM09_SUR.jpg","SUR","AM09","2","5","10","8","stimuli/stars_10.png","153.5","[""HE"",""CC"",""SUR"",""SC""]","[""WM11"",""BF06"",""AM09"",""WF14""]","[7,3,10,1]","[6,4,8,2]","","",""
"show-reward","100","274190","0.0-100.0","p475508","A1TMZLYXQAK8Q0","336OE47KI3QZCSCUXSQ8J11UOZXVWV","33M4IA01QI7PV5YXOFML97LNV7JXRH","model","mismatch","uniform","","","","","","","","274230.40000009537","276237.90000009537","","","","","","","","","","","","10","","stimuli/stars_10.png","153.5","","","","","stimuli/AM09_SUR.jpg","",""
"explore-choice","101","276021","0.0-101.0","p475508","A1TMZLYXQAK8Q0","336OE47KI3QZCSCUXSQ8J11UOZXVWV","33M4IA01QI7PV5YXOFML97LNV7JXRH","model","mismatch","uniform","","","","","","","1330.5","276238.60000014305","277569.10000014305","[""stimuli/WM11_SUR.jpg"",""stimuli/AM09_CC.jpg"",""stimuli/BF06_SC.jpg"",""stimuli/WF14_HE.jpg""]","stimuli/WM11_SUR.jpg","stimuli/AM09_CC.jpg","stimuli/BF06_SC.jpg","stimuli/WF14_HE.jpg","pos2","stimuli/AM09_CC.jpg","CC","AM09","1","4","8","8","stimuli/stars_8.png","157.5","[""SUR"",""CC"",""SC"",""HE""]","[""WM11"",""AM09"",""BF06"",""WF14""]","[7,8,4,1]","[6,8,4,2]","","",""
"show-reward","102","278023","0.0-102.0","p475508","A1TMZLYXQAK8Q0","336OE47KI3QZCSCUXSQ8J11UOZXVWV","33M4IA01QI7PV5YXOFML97LNV7JXRH","model","mismatch","uniform","","","","","","","","278070.5","280071.7000000477","","","","","","","","","","","","8","","stimuli/stars_8.png","157.5","","","","","stimuli/AM09_CC.jpg","",""
"explore-choice","103","281133","0.0-103.0","p475508","A1TMZLYXQAK8Q0","336OE47KI3QZCSCUXSQ8J11UOZXVWV","33M4IA01QI7PV5YXOFML97LNV7JXRH","model","mismatch","uniform","","","","","","","2608.7000000476837","280072.2000000477","282680.90000009537","[""stimuli/AM06_DO.jpg"",""stimuli/HF10_FO.jpg"",""stimuli/AM03_HO.jpg"",""stimuli/HM02_AO.jpg""]","stimuli/AM06_DO.jpg","stimuli/HF10_FO.jpg","stimuli/AM03_HO.jpg","stimuli/HM02_AO.jpg","pos1","stimuli/AM06_DO.jpg","DO","AM06","0","1","2","2","stimuli/stars_2.png","158.5","[""DO"",""FO"",""HO"",""AO""]","[""AM06"",""HF10"",""AM03"",""HM02""]","[2,7,8,5]","[2,8,6,4]","","",""
"show-reward","104","283148","0.0-104.0","p475508","A1TMZLYXQAK8Q0","336OE47KI3QZCSCUXSQ8J11UOZXVWV","33M4IA01QI7PV5YXOFML97LNV7JXRH","model","mismatch","uniform","","","","","","","","283182.30000019073","285196.2000000477","","","","","","","","","","","","2","","stimuli/stars_2.png","158.5","","","","","stimuli/AM06_DO.jpg","",""
"explore-choice","105","286266","0.0-105.0","p475508","A1TMZLYXQAK8Q0","336OE47KI3QZCSCUXSQ8J11UOZXVWV","33M4IA01QI7PV5YXOFML97LNV7JXRH","model","mismatch","uniform","","","","","","","2616.100000143051","285197","287813.10000014305","[""stimuli/HM02_DO.jpg"",""stimuli/AM03_AO.jpg"",""stimuli/AM06_HO.jpg"",""stimuli/HF10_FO.jpg""]","stimuli/HM02_DO.jpg","stimuli/AM03_AO.jpg","stimuli/AM06_HO.jpg","stimuli/HF10_FO.jpg","pos4","stimuli/HF10_FO.jpg","FO","HF10","3","3","6","8","stimuli/stars_6.png","161.5","[""DO"",""AO"",""HO"",""FO""]","[""HM02"",""AM03"",""AM06"",""HF10""]","[0,6,6,6]","[2,4,6,8]","","",""
"show-reward","106","288280","0.0-106.0","p475508","A1TMZLYXQAK8Q0","336OE47KI3QZCSCUXSQ8J11UOZXVWV","33M4IA01QI7PV5YXOFML97LNV7JXRH","model","mismatch","uniform","","","","","","","","288316.10000014305","290328.10000014305","","","","","","","","","","","","6","","stimuli/stars_6.png","161.5","","","","","stimuli/HF10_FO.jpg","",""
"explore-choice","107","290561","0.0-107.0","p475508","A1TMZLYXQAK8Q0","336OE47KI3QZCSCUXSQ8J11UOZXVWV","33M4IA01QI7PV5YXOFML97LNV7JXRH","model","mismatch","uniform","","","","","","","1775","290329.30000019073","292104.30000019073","[""stimuli/HF10_AO.jpg"",""stimuli/AM06_HO.jpg"",""stimuli/AM03_DO.jpg"",""stimuli/HM02_FO.jpg""]","stimuli/HF10_AO.jpg","stimuli/AM06_HO.jpg","stimuli/AM03_DO.jpg","stimuli/HM02_FO.jpg","pos1","stimuli/HF10_AO.jpg","AO","HF10","0","2.5","5","4","stimuli/stars_5.png","164","[""AO"",""HO"",""DO"",""FO""]","[""HF10"",""AM06"",""AM03"",""HM02""]","[5,6,0,10]","[4,6,2,8]","","",""
"show-reward","108","292575","0.0-108.0","p475508","A1TMZLYXQAK8Q0","336OE47KI3QZCSCUXSQ8J11UOZXVWV","33M4IA01QI7PV5YXOFML97LNV7JXRH","model","mismatch","uniform","","","","","","","","292610.7000000477","294623.80000019073","","","","","","","","","","","","5","","stimuli/stars_5.png","164","","","","","stimuli/HF10_AO.jpg","",""
"explore-choice","109","296350","0.0-109.0","p475508","A1TMZLYXQAK8Q0","336OE47KI3QZCSCUXSQ8J11UOZXVWV","33M4IA01QI7PV5YXOFML97LNV7JXRH","model","mismatch","uniform","","","","","","","3271.2999999523163","294624.40000009537","297895.7000000477","[""stimuli/HM02_FO.jpg"",""stimuli/AM03_HO.jpg"",""stimuli/AM06_DO.jpg"",""stimuli/HF10_AO.jpg""]","stimuli/HM02_FO.jpg","stimuli/AM03_HO.jpg","stimuli/AM06_DO.jpg","stimuli/HF10_AO.jpg","pos2","stimuli/AM03_HO.jpg","HO","AM03","1","3","6","6","stimuli/stars_6.png","167","[""FO"",""HO"",""DO"",""AO""]","[""HM02"",""AM03"",""AM06"",""HF10""]","[9,6,1,4]","[8,6,2,4]","","",""
"show-reward","110","298361","0.0-110.0","p475508","A1TMZLYXQAK8Q0","336OE47KI3QZCSCUXSQ8J11UOZXVWV","33M4IA01QI7PV5YXOFML97LNV7JXRH","model","mismatch","uniform","","","","","","","","298399.80000019073","300409.2000000477","","","","","","","","","","","","6","","stimuli/stars_6.png","167","","","","","stimuli/AM03_HO.jpg","",""
"explore-choice","111","301313","0.0-111.0","p475508","A1TMZLYXQAK8Q0","336OE47KI3QZCSCUXSQ8J11UOZXVWV","33M4IA01QI7PV5YXOFML97LNV7JXRH","model","mismatch","uniform","","","","","","","2447.899999856949","300410.30000019073","302858.2000000477","[""stimuli/AM06_FO.jpg"",""stimuli/AM03_HO.jpg"",""stimuli/HM02_AO.jpg"",""stimuli/HF10_DO.jpg""]","stimuli/AM06_FO.jpg","stimuli/AM03_HO.jpg","stimuli/HM02_AO.jpg","stimuli/HF10_DO.jpg","pos2","stimuli/AM03_HO.jpg","HO","AM03","1","2.5","5","6","stimuli/stars_5.png","169.5","[""FO"",""HO"",""AO"",""DO""]","[""AM06"",""AM03"",""HM02"",""HF10""]","[9,5,6,3]","[8,6,4,2]","","",""
"show-reward","112","303334","0.0-112.0","p475508","A1TMZLYXQAK8Q0","336OE47KI3QZCSCUXSQ8J11UOZXVWV","33M4IA01QI7PV5YXOFML97LNV7JXRH","model","mismatch","uniform","","","","","","","","303362.80000019073","305382.10000014305","","","","","","","","","","","","5","","stimuli/stars_5.png","169.5","","","","","stimuli/AM03_HO.jpg","",""
"explore-choice","113","306496","0.0-113.0","p475508","A1TMZLYXQAK8Q0","336OE47KI3QZCSCUXSQ8J11UOZXVWV","33M4IA01QI7PV5YXOFML97LNV7JXRH","model","mismatch","uniform","","","","","","","2654.7000000476837","305382.7000000477","308037.40000009537","[""stimuli/AM03_FO.jpg"",""stimuli/HF10_AO.jpg"",""stimuli/HM02_HO.jpg"",""stimuli/AM06_DO.jpg""]","stimuli/AM03_FO.jpg","stimuli/HF10_AO.jpg","stimuli/HM02_HO.jpg","stimuli/AM06_DO.jpg","pos3","stimuli/HM02_HO.jpg","HO","HM02","2","3.5","7","6","stimuli/stars_7.png","173","[""FO"",""AO"",""HO"",""DO""]","[""AM03"",""HF10"",""HM02"",""AM06""]","[9,4,7,4]","[8,4,6,2]","","",""
"show-reward","114","308505","0.0-114.0","p475508","A1TMZLYXQAK8Q0","336OE47KI3QZCSCUXSQ8J11UOZXVWV","33M4IA01QI7PV5YXOFML97LNV7JXRH","model","mismatch","uniform","","","","","","","","308545.7000000477","310552.7000000477","","","","","","","","","","","","7","","stimuli/stars_7.png","173","","","","","stimuli/HM02_HO.jpg","",""
"explore-choice","115","311182","0.0-115.0","p475508","A1TMZLYXQAK8Q0","336OE47KI3QZCSCUXSQ8J11UOZXVWV","33M4IA01QI7PV5YXOFML97LNV7JXRH","model","mismatch","uniform","","","","","","","2175.600000143051","310554","312729.60000014305","[""stimuli/HF10_FO.jpg"",""stimuli/AM06_AO.jpg"",""stimuli/AM03_HO.jpg"",""stimuli/HM02_DO.jpg""]","stimuli/HF10_FO.jpg","stimuli/AM06_AO.jpg","stimuli/AM03_HO.jpg","stimuli/HM02_DO.jpg","pos3","stimuli/AM03_HO.jpg","HO","AM03","2","2.5","5","6","stimuli/stars_5.png","175.5","[""FO"",""AO"",""HO"",""DO""]","[""HF10"",""AM06"",""AM03"",""HM02""]","[8,6,5,4]","[8,4,6,2]","","",""
"show-reward","116","313194","0.0-116.0","p475508","A1TMZLYXQAK8Q0","336OE47KI3QZCSCUXSQ8J11UOZXVWV","33M4IA01QI7PV5YXOFML97LNV7JXRH","model","mismatch","uniform","","","","","","","","313231.5","315241.80000019073","","","","","","","","","","","","5","","stimuli/stars_5.png","175.5","","","","","stimuli/AM03_HO.jpg","",""
"explore-choice","117","316692","0.0-117.0","p475508","A1TMZLYXQAK8Q0","336OE47KI3QZCSCUXSQ8J11UOZXVWV","33M4IA01QI7PV5YXOFML97LNV7JXRH","model","mismatch","uniform","","","","","","","2985.800000190735","315243","318228.80000019073","[""stimuli/AM06_HO.jpg"",""stimuli/HF10_FO.jpg"",""stimuli/HM02_AO.jpg"",""stimuli/AM03_DO.jpg""]","stimuli/AM06_HO.jpg","stimuli/HF10_FO.jpg","stimuli/HM02_AO.jpg","stimuli/AM03_DO.jpg","pos4","stimuli/AM03_DO.jpg","DO","AM03","3","0.5","1","2","stimuli/stars_1.png","176","[""HO"",""FO"",""AO"",""DO""]","[""AM06"",""HF10"",""HM02"",""AM03""]","[8,8,5,1]","[6,8,4,2]","","",""
"show-reward","118","318706","0.0-118.0","p475508","A1TMZLYXQAK8Q0","336OE47KI3QZCSCUXSQ8J11UOZXVWV","33M4IA01QI7PV5YXOFML97LNV7JXRH","model","mismatch","uniform","","","","","","","","318741.5","320754","","","","","","","","","","","","1","","stimuli/stars_1.png","176","","","","","stimuli/AM03_DO.jpg","",""
"explore-choice","119","322255","0.0-119.0","p475508","A1TMZLYXQAK8Q0","336OE47KI3QZCSCUXSQ8J11UOZXVWV","33M4IA01QI7PV5YXOFML97LNV7JXRH","model","mismatch","uniform","","","","","","","3047","320754.7000000477","323801.7000000477","[""stimuli/HF10_FO.jpg"",""stimuli/HM02_HO.jpg"",""stimuli/AM06_AO.jpg"",""stimuli/AM03_DO.jpg""]","stimuli/HF10_FO.jpg","stimuli/HM02_HO.jpg","stimuli/AM06_AO.jpg","stimuli/AM03_DO.jpg","pos2","stimuli/HM02_HO.jpg","HO","HM02","1","2.5","5","6","stimuli/stars_5.png","178.5","[""FO"",""HO"",""AO"",""DO""]","[""HF10"",""HM02"",""AM06"",""AM03""]","[6,5,5,2]","[8,6,4,2]","","",""
"show-reward","120","324265","0.0-120.0","p475508","A1TMZLYXQAK8Q0","336OE47KI3QZCSCUXSQ8J11UOZXVWV","33M4IA01QI7PV5YXOFML97LNV7JXRH","model","mismatch","uniform","","","","","","","","324304.30000019073","326313.30000019073","","","","","","","","","","","","5","","stimuli/stars_5.png","178.5","","","","","stimuli/HM02_HO.jpg","",""
"explore-choice","121","327146","0.0-121.0","p475508","A1TMZLYXQAK8Q0","336OE47KI3QZCSCUXSQ8J11UOZXVWV","33M4IA01QI7PV5YXOFML97LNV7JXRH","model","mismatch","uniform","","","","","","","2379.2000000476837","326314.7000000477","328693.90000009537","[""stimuli/HF10_HO.jpg"",""stimuli/HM02_FO.jpg"",""stimuli/AM03_AO.jpg"",""stimuli/AM06_DO.jpg""]","stimuli/HF10_HO.jpg","stimuli/HM02_FO.jpg","stimuli/AM03_AO.jpg","stimuli/AM06_DO.jpg","pos1","stimuli/HF10_HO.jpg","HO","HF10","0","4","8","6","stimuli/stars_8.png","182.5","[""HO"",""FO"",""AO"",""DO""]","[""HF10"",""HM02"",""AM03"",""AM06""]","[8,8,5,3]","[6,8,4,2]","","",""
"show-reward","122","329155","0.0-122.0","p475508","A1TMZLYXQAK8Q0","336OE47KI3QZCSCUXSQ8J11UOZXVWV","33M4IA01QI7PV5YXOFML97LNV7JXRH","model","mismatch","uniform","","","","","","","","329195.10000014305","331203.2000000477","","","","","","","","","","","","8","","stimuli/stars_8.png","182.5","","","","","stimuli/HF10_HO.jpg","",""
"explore-choice","123","331099","0.0-123.0","p475508","A1TMZLYXQAK8Q0","336OE47KI3QZCSCUXSQ8J11UOZXVWV","33M4IA01QI7PV5YXOFML97LNV7JXRH","model","mismatch","uniform","","","","","","","1443.1999998092651","331203.80000019073","332647","[""stimuli/AM03_FO.jpg"",""stimuli/HM02_DO.jpg"",""stimuli/HF10_HO.jpg"",""stimuli/AM06_AO.jpg""]","stimuli/AM03_FO.jpg","stimuli/HM02_DO.jpg","stimuli/HF10_HO.jpg","stimuli/AM06_AO.jpg","pos3","stimuli/HF10_HO.jpg","HO","HF10","2","2","4","6","stimuli/stars_4.png","184.5","[""FO"",""DO"",""HO"",""AO""]","[""AM03"",""HM02"",""HF10"",""AM06""]","[9,1,4,5]","[8,2,6,4]","","",""
"show-reward","124","333105","0.0-124.0","p475508","A1TMZLYXQAK8Q0","336OE47KI3QZCSCUXSQ8J11UOZXVWV","33M4IA01QI7PV5YXOFML97LNV7JXRH","model","mismatch","uniform","","","","","","","","333148.10000014305","335153.2000000477","","","","","","","","","","","","4","","stimuli/stars_4.png","184.5","","","","","stimuli/HF10_HO.jpg","",""
"explore-choice","125","335213","0.0-125.0","p475508","A1TMZLYXQAK8Q0","336OE47KI3QZCSCUXSQ8J11UOZXVWV","33M4IA01QI7PV5YXOFML97LNV7JXRH","model","mismatch","uniform","","","","","","","1592.2000000476837","335155","336747.2000000477","[""stimuli/HM02_DO.jpg"",""stimuli/AM06_FO.jpg"",""stimuli/HF10_HO.jpg"",""stimuli/AM03_AO.jpg""]","stimuli/HM02_DO.jpg","stimuli/AM06_FO.jpg","stimuli/HF10_HO.jpg","stimuli/AM03_AO.jpg","pos3","stimuli/HF10_HO.jpg","HO","HF10","2","4","8","6","stimuli/stars_8.png","188.5","[""DO"",""FO"",""HO"",""AO""]","[""HM02"",""AM06"",""HF10"",""AM03""]","[2,6,8,4]","[2,8,6,4]","","",""
"show-reward","126","337218","0.0-126.0","p475508","A1TMZLYXQAK8Q0","336OE47KI3QZCSCUXSQ8J11UOZXVWV","33M4IA01QI7PV5YXOFML97LNV7JXRH","model","mismatch","uniform","","","","","","","","337262.2000000477","339266","","","","","","","","","","","","8","","stimuli/stars_8.png","188.5","","","","","stimuli/HF10_HO.jpg","",""
"explore-choice","127","340144","0.0-127.0","p475508","A1TMZLYXQAK8Q0","336OE47KI3QZCSCUXSQ8J11UOZXVWV","33M4IA01QI7PV5YXOFML97LNV7JXRH","model","mismatch","uniform","","","","","","","2423.100000143051","339267.5","341690.60000014305","[""stimuli/HF10_DO.jpg"",""stimuli/AM06_HO.jpg"",""stimuli/HM02_FO.jpg"",""stimuli/AM03_AO.jpg""]","stimuli/HF10_DO.jpg","stimuli/AM06_HO.jpg","stimuli/HM02_FO.jpg","stimuli/AM03_AO.jpg","pos2","stimuli/AM06_HO.jpg","HO","AM06","1","2","4","6","stimuli/stars_4.png","190.5","[""DO"",""HO"",""FO"",""AO""]","[""HF10"",""AM06"",""HM02"",""AM03""]","[1,4,9,4]","[2,6,8,4]","","",""
"show-reward","128","342148","0.0-128.0","p475508","A1TMZLYXQAK8Q0","336OE47KI3QZCSCUXSQ8J11UOZXVWV","33M4IA01QI7PV5YXOFML97LNV7JXRH","model","mismatch","uniform","","","","","","","","342193.7000000477","344196.7000000477","","","","","","","","","","","","4","","stimuli/stars_4.png","190.5","","","","","stimuli/AM06_HO.jpg","",""
"explore-choice","129","344576","0.0-129.0","p475508","A1TMZLYXQAK8Q0","336OE47KI3QZCSCUXSQ8J11UOZXVWV","33M4IA01QI7PV5YXOFML97LNV7JXRH","model","mismatch","uniform","","","","","","","1925.5","344197.2000000477","346122.7000000477","[""stimuli/AM06_FO.jpg"",""stimuli/HM02_HO.jpg"",""stimuli/AM03_DO.jpg"",""stimuli/HF10_AO.jpg""]","stimuli/AM06_FO.jpg","stimuli/HM02_HO.jpg","stimuli/AM03_DO.jpg","stimuli/HF10_AO.jpg","pos2","stimuli/HM02_HO.jpg","HO","HM02","1","2","4","6","stimuli/stars_4.png","192.5","[""FO"",""HO"",""DO"",""AO""]","[""AM06"",""HM02"",""AM03"",""HF10""]","[8,4,1,5]","[8,6,2,4]","","",""
"show-reward","130","346581","0.0-130.0","p475508","A1TMZLYXQAK8Q0","336OE47KI3QZCSCUXSQ8J11UOZXVWV","33M4IA01QI7PV5YXOFML97LNV7JXRH","model","mismatch","uniform","","","","","","","","346625.40000009537","348629.2000000477","","","","","","","","","","","","4","","stimuli/stars_4.png","192.5","","","","","stimuli/HM02_HO.jpg","",""
"explore-choice","131","349586","0.0-131.0","p475508","A1TMZLYXQAK8Q0","336OE47KI3QZCSCUXSQ8J11UOZXVWV","33M4IA01QI7PV5YXOFML97LNV7JXRH","model","mismatch","uniform","","","","","","","2500.7999999523163","348629.7000000477","351130.5","[""stimuli/AM03_AO.jpg"",""stimuli/AM06_FO.jpg"",""stimuli/HF10_DO.jpg"",""stimuli/HM02_HO.jpg""]","stimuli/AM03_AO.jpg","stimuli/AM06_FO.jpg","stimuli/HF10_DO.jpg","stimuli/HM02_HO.jpg","pos4","stimuli/HM02_HO.jpg","HO","HM02","3","2.5","5","6","stimuli/stars_5.png","195","[""AO"",""FO"",""DO"",""HO""]","[""AM03"",""AM06"",""HF10"",""HM02""]","[2,6,1,5]","[4,8,2,6]","","",""
"show-reward","132","351591","0.0-132.0","p475508","A1TMZLYXQAK8Q0","336OE47KI3QZCSCUXSQ8J11UOZXVWV","33M4IA01QI7PV5YXOFML97LNV7JXRH","model","mismatch","uniform","","","","","","","","351636.10000014305","353639.90000009537","","","","","","","","","","","","5","","stimuli/stars_5.png","195","","","","","stimuli/HM02_HO.jpg","",""
"explore-choice","133","354230","0.0-133.0","p475508","A1TMZLYXQAK8Q0","336OE47KI3QZCSCUXSQ8J11UOZXVWV","33M4IA01QI7PV5YXOFML97LNV7JXRH","model","mismatch","uniform","","","","","","","2132.5","353640.60000014305","355773.10000014305","[""stimuli/AM06_DO.jpg"",""stimuli/AM03_FO.jpg"",""stimuli/HM02_AO.jpg"",""stimuli/HF10_HO.jpg""]","stimuli/AM06_DO.jpg","stimuli/AM03_FO.jpg","stimuli/HM02_AO.jpg","stimuli/HF10_HO.jpg","pos4","stimuli/HF10_HO.jpg","HO","HF10","3","3","6","6","stimuli/stars_6.png","198","[""DO"",""FO"",""AO"",""HO""]","[""AM06"",""AM03"",""HM02"",""HF10""]","[0,6,2,6]","[2,8,4,6]","","",""
"show-reward","134","356242","0.0-134.0","p475508","A1TMZLYXQAK8Q0","336OE47KI3QZCSCUXSQ8J11UOZXVWV","33M4IA01QI7PV5YXOFML97LNV7JXRH","model","mismatch","uniform","","","","","","","","356278.90000009537","358290.80000019073","","","","","","","","","","","","6","","stimuli/stars_6.png","198","","","","","stimuli/HF10_HO.jpg","",""
"explore-choice","135","359970","0.0-135.0","p475508","A1TMZLYXQAK8Q0","336OE47KI3QZCSCUXSQ8J11UOZXVWV","33M4IA01QI7PV5YXOFML97LNV7JXRH","model","mismatch","uniform","","","","","","","3222.600000143051","358291.2000000477","361513.80000019073","[""stimuli/AM03_HO.jpg"",""stimuli/HM02_DO.jpg"",""stimuli/AM06_FO.jpg"",""stimuli/HF10_AO.jpg""]","stimuli/AM03_HO.jpg","stimuli/HM02_DO.jpg","stimuli/AM06_FO.jpg","stimuli/HF10_AO.jpg","pos1","stimuli/AM03_HO.jpg","HO","AM03","0","2.5","5","6","stimuli/stars_5.png","200.5","[""HO"",""DO"",""FO"",""AO""]","[""AM03"",""HM02"",""AM06"",""HF10""]","[5,2,7,4]","[6,2,8,4]","","",""
"show-reward","136","361984","0.0-136.0","p475508","A1TMZLYXQAK8Q0","336OE47KI3QZCSCUXSQ8J11UOZXVWV","33M4IA01QI7PV5YXOFML97LNV7JXRH","model","mismatch","uniform","","","","","","","","362019.2000000477","364032.40000009537","","","","","","","","","","","","5","","stimuli/stars_5.png","200.5","","","","","stimuli/AM03_HO.jpg","",""
"explore-choice","137","364888","0.0-137.0","p475508","A1TMZLYXQAK8Q0","336OE47KI3QZCSCUXSQ8J11UOZXVWV","33M4IA01QI7PV5YXOFML97LNV7JXRH","model","mismatch","uniform","","","","","","","2402.399999856949","364033.60000014305","366436","[""stimuli/AM06_DO.jpg"",""stimuli/AM03_AO.jpg"",""stimuli/HM02_HO.jpg"",""stimuli/HF10_FO.jpg""]","stimuli/AM06_DO.jpg","stimuli/AM03_AO.jpg","stimuli/HM02_HO.jpg","stimuli/HF10_FO.jpg","pos2","stimuli/AM03_AO.jpg","AO","AM03","1","1.5","3","4","stimuli/stars_3.png","202","[""DO"",""AO"",""HO"",""FO""]","[""AM06"",""AM03"",""HM02"",""HF10""]","[3,3,8,10]","[2,4,6,8]","","",""
"show-reward","138","366890","0.0-138.0","p475508","A1TMZLYXQAK8Q0","336OE47KI3QZCSCUXSQ8J11UOZXVWV","33M4IA01QI7PV5YXOFML97LNV7JXRH","model","mismatch","uniform","","","","","","","","366936.80000019073","368938.2000000477","","","","","","","","","","","","3","","stimuli/stars_3.png","202","","","","","stimuli/AM03_AO.jpg","",""
"explore-choice","139","369559","0.0-139.0","p475508","A1TMZLYXQAK8Q0","336OE47KI3QZCSCUXSQ8J11UOZXVWV","33M4IA01QI7PV5YXOFML97LNV7JXRH","model","mismatch","uniform","","","","","","","2161.7000000476837","368938.60000014305","371100.30000019073","[""stimuli/AM03_FO.jpg"",""stimuli/HM02_DO.jpg"",""stimuli/HF10_AO.jpg"",""stimuli/AM06_HO.jpg""]","stimuli/AM03_FO.jpg","stimuli/HM02_DO.jpg","stimuli/HF10_AO.jpg","stimuli/AM06_HO.jpg","pos1","stimuli/AM03_FO.jpg","FO","AM03","0","3","6","8","stimuli/stars_6.png","205","[""FO"",""DO"",""AO"",""HO""]","[""AM03"",""HM02"",""HF10"",""AM06""]","[6,1,3,4]","[8,2,4,6]","","",""
"show-reward","140","371578","0.0-140.0","p475508","A1TMZLYXQAK8Q0","336OE47KI3QZCSCUXSQ8J11UOZXVWV","33M4IA01QI7PV5YXOFML97LNV7JXRH","model","mismatch","uniform","","","","","","","","371608.5","373626.10000014305","","","","","","","","","","","","6","","stimuli/stars_6.png","205","","","","","stimuli/AM03_FO.jpg","",""
"explore-choice","141","374825","0.0-141.0","p475508","A1TMZLYXQAK8Q0","336OE47KI3QZCSCUXSQ8J11UOZXVWV","33M4IA01QI7PV5YXOFML97LNV7JXRH","model","mismatch","uniform","","","","","","","2730.5999999046326","373627.80000019073","376358.40000009537","[""stimuli/AM06_HO.jpg"",""stimuli/HM02_AO.jpg"",""stimuli/AM03_FO.jpg"",""stimuli/HF10_DO.jpg""]","stimuli/AM06_HO.jpg","stimuli/HM02_AO.jpg","stimuli/AM03_FO.jpg","stimuli/HF10_DO.jpg","pos3","stimuli/AM03_FO.jpg","FO","AM03","2","4.5","9","8","stimuli/stars_9.png","209.5","[""HO"",""AO"",""FO"",""DO""]","[""AM06"",""HM02"",""AM03"",""HF10""]","[5,5,9,4]","[6,4,8,2]","","",""
"show-reward","142","376839","0.0-142.0","p475508","A1TMZLYXQAK8Q0","336OE47KI3QZCSCUXSQ8J11UOZXVWV","33M4IA01QI7PV5YXOFML97LNV7JXRH","model","mismatch","uniform","","","","","","","","376875.30000019073","378887.30000019073","","","","","","","","","","","","9","","stimuli/stars_9.png","209.5","","","","","stimuli/AM03_FO.jpg","",""
"explore-choice","143","379536","0.0-143.0","p475508","A1TMZLYXQAK8Q0","336OE47KI3QZCSCUXSQ8J11UOZXVWV","33M4IA01QI7PV5YXOFML97LNV7JXRH","model","mismatch","uniform","","","","","","","2189.9000000953674","378888","381077.90000009537","[""stimuli/AM06_AO.jpg"",""stimuli/AM03_DO.jpg"",""stimuli/HF10_HO.jpg"",""stimuli/HM02_FO.jpg""]","stimuli/AM06_AO.jpg","stimuli/AM03_DO.jpg","stimuli/HF10_HO.jpg","stimuli/HM02_FO.jpg","pos4","stimuli/HM02_FO.jpg","FO","HM02","3","3","6","8","stimuli/stars_6.png","212.5","[""AO"",""DO"",""HO"",""FO""]","[""AM06"",""AM03"",""HF10"",""HM02""]","[2,0,6,6]","[4,2,6,8]","","",""
"show-reward","144","381547","0.0-144.0","p475508","A1TMZLYXQAK8Q0","336OE47KI3QZCSCUXSQ8J11UOZXVWV","33M4IA01QI7PV5YXOFML97LNV7JXRH","model","mismatch","uniform","","","","","","","","381585.60000014305","383595.40000009537","","","","","","","","","","","","6","","stimuli/stars_6.png","212.5","","","","","stimuli/HM02_FO.jpg","",""
"explore-choice","145","384451","0.0-145.0","p475508","A1TMZLYXQAK8Q0","336OE47KI3QZCSCUXSQ8J11UOZXVWV","33M4IA01QI7PV5YXOFML97LNV7JXRH","model","mismatch","uniform","","","","","","","2398.7999999523163","383596.60000014305","385995.40000009537","[""stimuli/AM06_FO.jpg"",""stimuli/HM02_AO.jpg"",""stimuli/HF10_HO.jpg"",""stimuli/AM03_DO.jpg""]","stimuli/AM06_FO.jpg","stimuli/HM02_AO.jpg","stimuli/HF10_HO.jpg","stimuli/AM03_DO.jpg","pos1","stimuli/AM06_FO.jpg","FO","AM06","0","5","10","8","stimuli/stars_10.png","217.5","[""FO"",""AO"",""HO"",""DO""]","[""AM06"",""HM02"",""HF10"",""AM03""]","[10,5,5,1]","[8,4,6,2]","","",""
"show-reward","146","386460","0.0-146.0","p475508","A1TMZLYXQAK8Q0","336OE47KI3QZCSCUXSQ8J11UOZXVWV","33M4IA01QI7PV5YXOFML97LNV7JXRH","model","mismatch","uniform","","","","","","","","386500.40000009537","388508.60000014305","","","","","","","","","","","","10","","stimuli/stars_10.png","217.5","","","","","stimuli/AM06_FO.jpg","",""
"explore-choice","147","389094","0.0-147.0","p475508","A1TMZLYXQAK8Q0","336OE47KI3QZCSCUXSQ8J11UOZXVWV","33M4IA01QI7PV5YXOFML97LNV7JXRH","model","mismatch","uniform","","","","","","","2129.5","388509.80000019073","390639.30000019073","[""stimuli/HF10_DO.jpg"",""stimuli/HM02_HO.jpg"",""stimuli/AM03_FO.jpg"",""stimuli/AM06_AO.jpg""]","stimuli/HF10_DO.jpg","stimuli/HM02_HO.jpg","stimuli/AM03_FO.jpg","stimuli/AM06_AO.jpg","pos3","stimuli/AM03_FO.jpg","FO","AM03","2","4.5","9","8","stimuli/stars_9.png","222","[""DO"",""HO"",""FO"",""AO""]","[""HF10"",""HM02"",""AM03"",""AM06""]","[1,4,9,4]","[2,6,8,4]","","",""
"show-reward","148","391104","0.0-148.0","p475508","A1TMZLYXQAK8Q0","336OE47KI3QZCSCUXSQ8J11UOZXVWV","33M4IA01QI7PV5YXOFML97LNV7JXRH","model","mismatch","uniform","","","","","","","","391143.10000014305","393152.10000014305","","","","","","","","","","","","9","","stimuli/stars_9.png","222","","","","","stimuli/AM03_FO.jpg","",""
"explore-choice","149","394030","0.0-149.0","p475508","A1TMZLYXQAK8Q0","336OE47KI3QZCSCUXSQ8J11UOZXVWV","33M4IA01QI7PV5YXOFML97LNV7JXRH","model","mismatch","uniform","","","","","","","2422.7999999523163","393152.90000009537","395575.7000000477","[""stimuli/AM03_HO.jpg"",""stimuli/AM06_AO.jpg"",""stimuli/HM02_FO.jpg"",""stimuli/HF10_DO.jpg""]","stimuli/AM03_HO.jpg","stimuli/AM06_AO.jpg","stimuli/HM02_FO.jpg","stimuli/HF10_DO.jpg","pos3","stimuli/HM02_FO.jpg","FO","HM02","2","3.5","7","8","stimuli/stars_7.png","225.5","[""HO"",""AO"",""FO"",""DO""]","[""AM03"",""AM06"",""HM02"",""HF10""]","[6,2,7,2]","[6,4,8,2]","","",""
"show-reward","150","396042","0.0-150.0","p475508","A1TMZLYXQAK8Q0","336OE47KI3QZCSCUXSQ8J11UOZXVWV","33M4IA01QI7PV5YXOFML97LNV7JXRH","model","mismatch","uniform","","","","","","","","396079.30000019073","398090.60000014305","","","","","","","","","","","","7","","stimuli/stars_7.png","225.5","","","","","stimuli/HM02_FO.jpg","",""
"explore-choice","151","398390","0.0-151.0","p475508","A1TMZLYXQAK8Q0","336OE47KI3QZCSCUXSQ8J11UOZXVWV","33M4IA01QI7PV5YXOFML97LNV7JXRH","model","mismatch","uniform","","","","","","","1846.2000000476837","398091.90000009537","399938.10000014305","[""stimuli/AM06_FO.jpg"",""stimuli/HF10_DO.jpg"",""stimuli/AM03_AO.jpg"",""stimuli/HM02_HO.jpg""]","stimuli/AM06_FO.jpg","stimuli/HF10_DO.jpg","stimuli/AM03_AO.jpg","stimuli/HM02_HO.jpg","pos1","stimuli/AM06_FO.jpg","FO","AM06","0","3","6","8","stimuli/stars_6.png","228.5","[""FO"",""DO"",""AO"",""HO""]","[""AM06"",""HF10"",""AM03"",""HM02""]","[6,1,2,5]","[8,2,4,6]","","",""
"show-reward","152","400403","0.0-152.0","p475508","A1TMZLYXQAK8Q0","336OE47KI3QZCSCUXSQ8J11UOZXVWV","33M4IA01QI7PV5YXOFML97LNV7JXRH","model","mismatch","uniform","","","","","","","","400440","402451.60000014305","","","","","","","","","","","","6","","stimuli/stars_6.png","228.5","","","","","stimuli/AM06_FO.jpg","",""
"explore-choice","153","404204","0.0-153.0","p475508","A1TMZLYXQAK8Q0","336OE47KI3QZCSCUXSQ8J11UOZXVWV","33M4IA01QI7PV5YXOFML97LNV7JXRH","model","mismatch","uniform","","","","","","","3298.0999999046326","402452.80000019073","405750.90000009537","[""stimuli/AM06_DO.jpg"",""stimuli/AM03_FO.jpg"",""stimuli/HF10_AO.jpg"",""stimuli/HM02_HO.jpg""]","stimuli/AM06_DO.jpg","stimuli/AM03_FO.jpg","stimuli/HF10_AO.jpg","stimuli/HM02_HO.jpg","pos2","stimuli/AM03_FO.jpg","FO","AM03","1","4.5","9","8","stimuli/stars_9.png","233","[""DO"",""FO"",""AO"",""HO""]","[""AM06"",""AM03"",""HF10"",""HM02""]","[4,9,4,7]","[2,8,4,6]","","",""
"show-reward","154","406213","0.0-154.0","p475508","A1TMZLYXQAK8Q0","336OE47KI3QZCSCUXSQ8J11UOZXVWV","33M4IA01QI7PV5YXOFML97LNV7JXRH","model","mismatch","uniform","","","","","","","","406254.10000014305","408261.2000000477","","","","","","","","","","","","9","","stimuli/stars_9.png","233","","","","","stimuli/AM03_FO.jpg","",""
"explore-choice","155","408398","0.0-155.0","p475508","A1TMZLYXQAK8Q0","336OE47KI3QZCSCUXSQ8J11UOZXVWV","33M4IA01QI7PV5YXOFML97LNV7JXRH","model","mismatch","uniform","","","","","","","1669.0999999046326","408262.60000014305","409931.7000000477","[""stimuli/HM02_FO.jpg"",""stimuli/AM06_HO.jpg"",""stimuli/HF10_DO.jpg"",""stimuli/AM03_AO.jpg""]","stimuli/HM02_FO.jpg","stimuli/AM06_HO.jpg","stimuli/HF10_DO.jpg","stimuli/AM03_AO.jpg","pos1","stimuli/HM02_FO.jpg","FO","HM02","0","4.5","9","8","stimuli/stars_9.png","237.5","[""FO"",""HO"",""DO"",""AO""]","[""HM02"",""AM06"",""HF10"",""AM03""]","[9,4,1,4]","[8,6,2,4]","","",""
"show-reward","156","410407","0.0-156.0","p475508","A1TMZLYXQAK8Q0","336OE47KI3QZCSCUXSQ8J11UOZXVWV","33M4IA01QI7PV5YXOFML97LNV7JXRH","model","mismatch","uniform","","","","","","","","410448.2000000477","412455.10000014305","","","","","","","","","","","","9","","stimuli/stars_9.png","237.5","","","","","stimuli/HM02_FO.jpg","",""
"explore-choice","157","412136","0.0-157.0","p475508","A1TMZLYXQAK8Q0","336OE47KI3QZCSCUXSQ8J11UOZXVWV","33M4IA01QI7PV5YXOFML97LNV7JXRH","model","mismatch","uniform","","","","","","","1227.4000000953674","412457","413684.40000009537","[""stimuli/HM02_FO.jpg"",""stimuli/HF10_AO.jpg"",""stimuli/AM06_DO.jpg"",""stimuli/AM03_HO.jpg""]","stimuli/HM02_FO.jpg","stimuli/HF10_AO.jpg","stimuli/AM06_DO.jpg","stimuli/AM03_HO.jpg","pos1","stimuli/HM02_FO.jpg","FO","HM02","0","4.5","9","8","stimuli/stars_9.png","242","[""FO"",""AO"",""DO"",""HO""]","[""HM02"",""HF10"",""AM06"",""AM03""]","[9,4,1,6]","[8,4,2,6]","","",""
"show-reward","158","414141","0.0-158.0","p475508","A1TMZLYXQAK8Q0","336OE47KI3QZCSCUXSQ8J11UOZXVWV","33M4IA01QI7PV5YXOFML97LNV7JXRH","model","mismatch","uniform","","","","","","","","414186.10000014305","416189.80000019073","","","","","","","","","","","","9","","stimuli/stars_9.png","242","","","","","stimuli/HM02_FO.jpg","",""
"explore-choice","159","418136","0.0-159.0","p475508","A1TMZLYXQAK8Q0","336OE47KI3QZCSCUXSQ8J11UOZXVWV","33M4IA01QI7PV5YXOFML97LNV7JXRH","model","mismatch","uniform","","","","","","","3487.2999999523163","416191.10000014305","419678.40000009537","[""stimuli/HM02_DO.jpg"",""stimuli/HF10_AO.jpg"",""stimuli/AM06_HO.jpg"",""stimuli/AM03_FO.jpg""]","stimuli/HM02_DO.jpg","stimuli/HF10_AO.jpg","stimuli/AM06_HO.jpg","stimuli/AM03_FO.jpg","pos4","stimuli/AM03_FO.jpg","FO","AM03","3","3","6","8","stimuli/stars_6.png","245","[""DO"",""AO"",""HO"",""FO""]","[""HM02"",""HF10"",""AM06"",""AM03""]","[1,3,4,6]","[2,4,6,8]","","",""
"show-reward","160","420143","0.0-160.0","p475508","A1TMZLYXQAK8Q0","336OE47KI3QZCSCUXSQ8J11UOZXVWV","33M4IA01QI7PV5YXOFML97LNV7JXRH","model","mismatch","uniform","","","","","","","","420185.60000014305","422191.80000019073","","","","","","","","","","","","6","","stimuli/stars_6.png","245","","","","","stimuli/AM03_FO.jpg","",""
"explore-choice","161","422371","0.0-161.0","p475508","A1TMZLYXQAK8Q0","336OE47KI3QZCSCUXSQ8J11UOZXVWV","33M4IA01QI7PV5YXOFML97LNV7JXRH","model","mismatch","uniform","","","","","","","1720.8000001907349","422193","423913.80000019073","[""stimuli/AM03_FO.jpg"",""stimuli/HM02_HO.jpg"",""stimuli/AM06_AO.jpg"",""stimuli/HF10_DO.jpg""]","stimuli/AM03_FO.jpg","stimuli/HM02_HO.jpg","stimuli/AM06_AO.jpg","stimuli/HF10_DO.jpg","pos1","stimuli/AM03_FO.jpg","FO","AM03","0","4.5","9","8","stimuli/stars_9.png","249.5","[""FO"",""HO"",""AO"",""DO""]","[""AM03"",""HM02"",""AM06"",""HF10""]","[9,4,4,1]","[8,6,4,2]","","",""
"show-reward","162","424378","0.0-162.0","p475508","A1TMZLYXQAK8Q0","336OE47KI3QZCSCUXSQ8J11UOZXVWV","33M4IA01QI7PV5YXOFML97LNV7JXRH","model","mismatch","uniform","","","","","","","","424420.80000019073","426426.80000019073","","","","","","","","","","","","9","","stimuli/stars_9.png","249.5","","","","","stimuli/AM03_FO.jpg","",""
"explore-choice","163","426306","0.0-163.0","p475508","A1TMZLYXQAK8Q0","336OE47KI3QZCSCUXSQ8J11UOZXVWV","33M4IA01QI7PV5YXOFML97LNV7JXRH","model","mismatch","uniform","","","","","","","1421","426428","427849","[""stimuli/HM02_FO.jpg"",""stimuli/AM03_DO.jpg"",""stimuli/AM06_AO.jpg"",""stimuli/HF10_HO.jpg""]","stimuli/HM02_FO.jpg","stimuli/AM03_DO.jpg","stimuli/AM06_AO.jpg","stimuli/HF10_HO.jpg","pos1","stimuli/HM02_FO.jpg","FO","HM02","0","3","6","8","stimuli/stars_6.png","252.5","[""FO"",""DO"",""AO"",""HO""]","[""HM02"",""AM03"",""AM06"",""HF10""]","[6,0,2,6]","[8,2,4,6]","","",""
"show-reward","164","428325","0.0-164.0","p475508","A1TMZLYXQAK8Q0","336OE47KI3QZCSCUXSQ8J11UOZXVWV","33M4IA01QI7PV5YXOFML97LNV7JXRH","model","mismatch","uniform","","","","","","","","428356.10000014305","430373.5","","","","","","","","","","","","6","","stimuli/stars_6.png","252.5","","","","","stimuli/HM02_FO.jpg","",""
"explore-choice","165","431151","0.0-165.0","p475508","A1TMZLYXQAK8Q0","336OE47KI3QZCSCUXSQ8J11UOZXVWV","33M4IA01QI7PV5YXOFML97LNV7JXRH","model","mismatch","uniform","","","","","","","2317.2999999523163","430374.90000009537","432692.2000000477","[""stimuli/HM02_AO.jpg"",""stimuli/AM03_HO.jpg"",""stimuli/HF10_FO.jpg"",""stimuli/AM06_DO.jpg""]","stimuli/HM02_AO.jpg","stimuli/AM03_HO.jpg","stimuli/HF10_FO.jpg","stimuli/AM06_DO.jpg","pos3","stimuli/HF10_FO.jpg","FO","HF10","2","3.5","7","8","stimuli/stars_7.png","256","[""AO"",""HO"",""FO"",""DO""]","[""HM02"",""AM03"",""HF10"",""AM06""]","[5,8,7,2]","[4,6,8,2]","","",""
"show-reward","166","433160","0.0-166.0","p475508","A1TMZLYXQAK8Q0","336OE47KI3QZCSCUXSQ8J11UOZXVWV","33M4IA01QI7PV5YXOFML97LNV7JXRH","model","mismatch","uniform","","","","","","","","433200.40000009537","435208.60000014305","","","","","","","","","","","","7","","stimuli/stars_7.png","256","","","","","stimuli/HF10_FO.jpg","",""
"explore-choice","167","435776","0.0-167.0","p475508","A1TMZLYXQAK8Q0","336OE47KI3QZCSCUXSQ8J11UOZXVWV","33M4IA01QI7PV5YXOFML97LNV7JXRH","model","mismatch","uniform","","","","","","","2107","435209.90000009537","437316.90000009537","[""stimuli/HM02_HO.jpg"",""stimuli/HF10_FO.jpg"",""stimuli/AM03_DO.jpg"",""stimuli/AM06_AO.jpg""]","stimuli/HM02_HO.jpg","stimuli/HF10_FO.jpg","stimuli/AM03_DO.jpg","stimuli/AM06_AO.jpg","pos2","stimuli/HF10_FO.jpg","FO","HF10","1","3","6","8","stimuli/stars_6.png","259","[""HO"",""FO"",""DO"",""AO""]","[""HM02"",""HF10"",""AM03"",""AM06""]","[5,6,2,5]","[6,8,2,4]","","",""
"show-reward","168","437785","0.0-168.0","p475508","A1TMZLYXQAK8Q0","336OE47KI3QZCSCUXSQ8J11UOZXVWV","33M4IA01QI7PV5YXOFML97LNV7JXRH","model","mismatch","uniform","","","","","","","","437825.5","439834.10000014305","","","","","","","","","","","","6","","stimuli/stars_6.png","259","","","","","stimuli/HF10_FO.jpg","",""
"explore-choice","169","439761","0.0-169.0","p475508","A1TMZLYXQAK8Q0","336OE47KI3QZCSCUXSQ8J11UOZXVWV","33M4IA01QI7PV5YXOFML97LNV7JXRH","model","mismatch","uniform","","","","","","","1464.8999998569489","439835.30000019073","441300.2000000477","[""stimuli/AM06_FO.jpg"",""stimuli/HM02_HO.jpg"",""stimuli/HF10_AO.jpg"",""stimuli/AM03_DO.jpg""]","stimuli/AM06_FO.jpg","stimuli/HM02_HO.jpg","stimuli/HF10_AO.jpg","stimuli/AM03_DO.jpg","pos1","stimuli/AM06_FO.jpg","FO","AM06","0","4","8","8","stimuli/stars_8.png","263","[""FO"",""HO"",""AO"",""DO""]","[""AM06"",""HM02"",""HF10"",""AM03""]","[8,4,5,1]","[8,6,4,2]","","",""
"show-reward","170","441766","0.0-170.0","p475508","A1TMZLYXQAK8Q0","336OE47KI3QZCSCUXSQ8J11UOZXVWV","33M4IA01QI7PV5YXOFML97LNV7JXRH","model","mismatch","uniform","","","","","","","","441810.90000009537","443815","","","","","","","","","","","","8","","stimuli/stars_8.png","263","","","","","stimuli/AM06_FO.jpg","",""
"explore-choice","171","444117","0.0-171.0","p475508","A1TMZLYXQAK8Q0","336OE47KI3QZCSCUXSQ8J11UOZXVWV","33M4IA01QI7PV5YXOFML97LNV7JXRH","model","mismatch","uniform","","","","","","","1837.2000000476837","443816.5","445653.7000000477","[""stimuli/AM06_HO.jpg"",""stimuli/AM03_DO.jpg"",""stimuli/HF10_AO.jpg"",""stimuli/HM02_FO.jpg""]","stimuli/AM06_HO.jpg","stimuli/AM03_DO.jpg","stimuli/HF10_AO.jpg","stimuli/HM02_FO.jpg","pos4","stimuli/HM02_FO.jpg","FO","HM02","3","5","10","8","stimuli/stars_10.png","268","[""HO"",""DO"",""AO"",""FO""]","[""AM06"",""AM03"",""HF10"",""HM02""]","[6,0,5,10]","[6,2,4,8]","","",""
"show-reward","172","446123","0.0-172.0","p475508","A1TMZLYXQAK8Q0","336OE47KI3QZCSCUXSQ8J11UOZXVWV","33M4IA01QI7PV5YXOFML97LNV7JXRH","model","mismatch","uniform","","","","","","","","446166.7000000477","448171.7000000477","","","","","","","","","","","","10","","stimuli/stars_10.png","268","","","","","stimuli/HM02_FO.jpg","",""
"explore-choice","173","450186","0.0-173.0","p475508","A1TMZLYXQAK8Q0","336OE47KI3QZCSCUXSQ8J11UOZXVWV","33M4IA01QI7PV5YXOFML97LNV7JXRH","model","mismatch","uniform","","","","","","","3554.9000000953674","448172.40000009537","451727.30000019073","[""stimuli/AM06_HO.jpg"",""stimuli/HF10_FO.jpg"",""stimuli/HM02_AO.jpg"",""stimuli/AM03_DO.jpg""]","stimuli/AM06_HO.jpg","stimuli/HF10_FO.jpg","stimuli/HM02_AO.jpg","stimuli/AM03_DO.jpg","pos2","stimuli/HF10_FO.jpg","FO","HF10","1","4","8","8","stimuli/stars_8.png","272","[""HO"",""FO"",""AO"",""DO""]","[""AM06"",""HF10"",""HM02"",""AM03""]","[8,8,5,1]","[6,8,4,2]","","",""
"show-reward","174","452198","0.0-174.0","p475508","A1TMZLYXQAK8Q0","336OE47KI3QZCSCUXSQ8J11UOZXVWV","33M4IA01QI7PV5YXOFML97LNV7JXRH","model","mismatch","uniform","","","","","","","","452235.90000009537","454246.5","","","","","","","","","","","","8","","stimuli/stars_8.png","272","","","","","stimuli/HF10_FO.jpg","",""
"explore-choice","175","455732","0.0-175.0","p475508","A1TMZLYXQAK8Q0","336OE47KI3QZCSCUXSQ8J11UOZXVWV","33M4IA01QI7PV5YXOFML97LNV7JXRH","model","mismatch","uniform","","","","","","","3017.0999999046326","454247.80000019073","457264.90000009537","[""stimuli/HF10_HO.jpg"",""stimuli/AM03_FO.jpg"",""stimuli/AM06_AO.jpg"",""stimuli/HM02_DO.jpg""]","stimuli/HF10_HO.jpg","stimuli/AM03_FO.jpg","stimuli/AM06_AO.jpg","stimuli/HM02_DO.jpg","pos2","stimuli/AM03_FO.jpg","FO","AM03","1","4.5","9","8","stimuli/stars_9.png","276.5","[""HO"",""FO"",""AO"",""DO""]","[""HF10"",""AM03"",""AM06"",""HM02""]","[4,9,5,1]","[6,8,4,2]","","",""
"show-reward","176","457747","0.0-176.0","p475508","A1TMZLYXQAK8Q0","336OE47KI3QZCSCUXSQ8J11UOZXVWV","33M4IA01QI7PV5YXOFML97LNV7JXRH","model","mismatch","uniform","","","","","","","","457782.40000009537","459795.7000000477","","","","","","","","","","","","9","","stimuli/stars_9.png","276.5","","","","","stimuli/AM03_FO.jpg","",""
"explore-choice","177","460406","0.0-177.0","p475508","A1TMZLYXQAK8Q0","336OE47KI3QZCSCUXSQ8J11UOZXVWV","33M4IA01QI7PV5YXOFML97LNV7JXRH","model","mismatch","uniform","","","","","","","2152.100000143051","459797","461949.10000014305","[""stimuli/HM02_DO.jpg"",""stimuli/AM03_HO.jpg"",""stimuli/HF10_AO.jpg"",""stimuli/AM06_FO.jpg""]","stimuli/HM02_DO.jpg","stimuli/AM03_HO.jpg","stimuli/HF10_AO.jpg","stimuli/AM06_FO.jpg","pos4","stimuli/AM06_FO.jpg","FO","AM06","3","3.5","7","8","stimuli/stars_7.png","280","[""DO"",""HO"",""AO"",""FO""]","[""HM02"",""AM03"",""HF10"",""AM06""]","[2,5,4,7]","[2,6,4,8]","","",""
"show-reward","178","462411","0.0-178.0","p475508","A1TMZLYXQAK8Q0","336OE47KI3QZCSCUXSQ8J11UOZXVWV","33M4IA01QI7PV5YXOFML97LNV7JXRH","model","mismatch","uniform","","","","","","","","462456.10000014305","464459.90000009537","","","","","","","","","","","","7","","stimuli/stars_7.png","280","","","","","stimuli/AM06_FO.jpg","",""
"explore-choice","179","464596","0.0-179.0","p475508","A1TMZLYXQAK8Q0","336OE47KI3QZCSCUXSQ8J11UOZXVWV","33M4IA01QI7PV5YXOFML97LNV7JXRH","model","mismatch","uniform","","","","","","","1675.0999999046326","464460.60000014305","466135.7000000477","[""stimuli/HF10_DO.jpg"",""stimuli/AM06_FO.jpg"",""stimuli/HM02_AO.jpg"",""stimuli/AM03_HO.jpg""]","stimuli/HF10_DO.jpg","stimuli/AM06_FO.jpg","stimuli/HM02_AO.jpg","stimuli/AM03_HO.jpg","pos2","stimuli/AM06_FO.jpg","FO","AM06","1","4.5","9","8","stimuli/stars_9.png","284.5","[""DO"",""FO"",""AO"",""HO""]","[""HF10"",""AM06"",""HM02"",""AM03""]","[3,9,6,5]","[2,8,4,6]","","",""
"show-reward","180","466613","0.0-180.0","p475508","A1TMZLYXQAK8Q0","336OE47KI3QZCSCUXSQ8J11UOZXVWV","33M4IA01QI7PV5YXOFML97LNV7JXRH","model","mismatch","uniform","","","","","","","","466646.30000019073","468662","","","","","","","","","","","","9","","stimuli/stars_9.png","284.5","","","","","stimuli/AM06_FO.jpg","",""
"explore-choice","181","469336","0.0-181.0","p475508","A1TMZLYXQAK8Q0","336OE47KI3QZCSCUXSQ8J11UOZXVWV","33M4IA01QI7PV5YXOFML97LNV7JXRH","model","mismatch","uniform","","","","","","","2217.9000000953674","468662.5","470880.40000009537","[""stimuli/AM03_AO.jpg"",""stimuli/AM06_HO.jpg"",""stimuli/HM02_DO.jpg"",""stimuli/HF10_FO.jpg""]","stimuli/AM03_AO.jpg","stimuli/AM06_HO.jpg","stimuli/HM02_DO.jpg","stimuli/HF10_FO.jpg","pos4","stimuli/HF10_FO.jpg","FO","HF10","3","3","6","8","stimuli/stars_6.png","287.5","[""AO"",""HO"",""DO"",""FO""]","[""AM03"",""AM06"",""HM02"",""HF10""]","[6,6,0,6]","[4,6,2,8]","","",""
"show-reward","182","471339","0.0-182.0","p475508","A1TMZLYXQAK8Q0","336OE47KI3QZCSCUXSQ8J11UOZXVWV","33M4IA01QI7PV5YXOFML97LNV7JXRH","model","mismatch","uniform","","","","","","","","471385.30000019073","473388.40000009537","","","","","","","","","","","","6","","stimuli/stars_6.png","287.5","","","","","stimuli/HF10_FO.jpg","",""
"explore-choice","183","473693","0.0-183.0","p475508","A1TMZLYXQAK8Q0","336OE47KI3QZCSCUXSQ8J11UOZXVWV","33M4IA01QI7PV5YXOFML97LNV7JXRH","model","mismatch","uniform","","","","","","","1846.5","473389","475235.5","[""stimuli/AM03_AO.jpg"",""stimuli/AM06_DO.jpg"",""stimuli/HF10_FO.jpg"",""stimuli/HM02_HO.jpg""]","stimuli/AM03_AO.jpg","stimuli/AM06_DO.jpg","stimuli/HF10_FO.jpg","stimuli/HM02_HO.jpg","pos3","stimuli/HF10_FO.jpg","FO","HF10","2","5","10","8","stimuli/stars_10.png","292.5","[""AO"",""DO"",""FO"",""HO""]","[""AM03"",""AM06"",""HF10"",""HM02""]","[3,3,10,8]","[4,2,8,6]","","",""
"show-reward","184","475706","0.0-184.0","p475508","A1TMZLYXQAK8Q0","336OE47KI3QZCSCUXSQ8J11UOZXVWV","33M4IA01QI7PV5YXOFML97LNV7JXRH","model","mismatch","uniform","","","","","","","","475743","477754.60000014305","","","","","","","","","","","","10","","stimuli/stars_10.png","292.5","","","","","stimuli/HF10_FO.jpg","",""
"explore-choice","185","478123","0.0-185.0","p475508","A1TMZLYXQAK8Q0","336OE47KI3QZCSCUXSQ8J11UOZXVWV","33M4IA01QI7PV5YXOFML97LNV7JXRH","model","mismatch","uniform","","","","","","","1909.4000000953674","477755.90000009537","479665.30000019073","[""stimuli/HF10_DO.jpg"",""stimuli/AM03_FO.jpg"",""stimuli/AM06_HO.jpg"",""stimuli/HM02_AO.jpg""]","stimuli/HF10_DO.jpg","stimuli/AM03_FO.jpg","stimuli/AM06_HO.jpg","stimuli/HM02_AO.jpg","pos2","stimuli/AM03_FO.jpg","FO","AM03","1","4.5","9","8","stimuli/stars_9.png","297","[""DO"",""FO"",""HO"",""AO""]","[""HF10"",""AM03"",""AM06"",""HM02""]","[4,9,5,5]","[2,8,6,4]","","",""
"show-reward","186","480139","0.0-186.0","p475508","A1TMZLYXQAK8Q0","336OE47KI3QZCSCUXSQ8J11UOZXVWV","33M4IA01QI7PV5YXOFML97LNV7JXRH","model","mismatch","uniform","","","","","","","","480172.7000000477","482187.90000009537","","","","","","","","","","","","9","","stimuli/stars_9.png","297","","","","","stimuli/AM03_FO.jpg","",""
"explore-choice","187","482805","0.0-187.0","p475508","A1TMZLYXQAK8Q0","336OE47KI3QZCSCUXSQ8J11UOZXVWV","33M4IA01QI7PV5YXOFML97LNV7JXRH","model","mismatch","uniform","","","","","","","2160.7999999523163","482189.2000000477","484350","[""stimuli/AM03_AO.jpg"",""stimuli/HM02_DO.jpg"",""stimuli/AM06_FO.jpg"",""stimuli/HF10_HO.jpg""]","stimuli/AM03_AO.jpg","stimuli/HM02_DO.jpg","stimuli/AM06_FO.jpg","stimuli/HF10_HO.jpg","pos3","stimuli/AM06_FO.jpg","FO","AM06","2","3","6","8","stimuli/stars_6.png","300","[""AO"",""DO"",""FO"",""HO""]","[""AM03"",""HM02"",""AM06"",""HF10""]","[4,2,6,8]","[4,2,8,6]","","",""
"show-reward","188","484826","0.0-188.0","p475508","A1TMZLYXQAK8Q0","336OE47KI3QZCSCUXSQ8J11UOZXVWV","33M4IA01QI7PV5YXOFML97LNV7JXRH","model","mismatch","uniform","","","","","","","","484855.80000019073","486874.80000019073","","","","","","","","","","","","6","","stimuli/stars_6.png","300","","","","","stimuli/AM06_FO.jpg","",""
"explore-choice","189","486889","0.0-189.0","p475508","A1TMZLYXQAK8Q0","336OE47KI3QZCSCUXSQ8J11UOZXVWV","33M4IA01QI7PV5YXOFML97LNV7JXRH","model","mismatch","uniform","","","","","","","1559.2000000476837","486875.7000000477","488434.90000009537","[""stimuli/AM03_AO.jpg"",""stimuli/HM02_FO.jpg"",""stimuli/HF10_HO.jpg"",""stimuli/AM06_DO.jpg""]","stimuli/AM03_AO.jpg","stimuli/HM02_FO.jpg","stimuli/HF10_HO.jpg","stimuli/AM06_DO.jpg","pos2","stimuli/HM02_FO.jpg","FO","HM02","1","4","8","8","stimuli/stars_8.png","304","[""AO"",""FO"",""HO"",""DO""]","[""AM03"",""HM02"",""HF10"",""AM06""]","[5,8,8,3]","[4,8,6,2]","","",""
"show-reward","190","488895","0.0-190.0","p475508","A1TMZLYXQAK8Q0","336OE47KI3QZCSCUXSQ8J11UOZXVWV","33M4IA01QI7PV5YXOFML97LNV7JXRH","model","mismatch","uniform","","","","","","","","488938.60000014305","490943.80000019073","","","","","","","","","","","","8","","stimuli/stars_8.png","304","","","","","stimuli/HM02_FO.jpg","",""
"explore-choice","191","491649","0.0-191.0","p475508","A1TMZLYXQAK8Q0","336OE47KI3QZCSCUXSQ8J11UOZXVWV","33M4IA01QI7PV5YXOFML97LNV7JXRH","model","mismatch","uniform","","","","","","","2249.2999999523163","490944.40000009537","493193.7000000477","[""stimuli/AM03_DO.jpg"",""stimuli/HM02_AO.jpg"",""stimuli/HF10_HO.jpg"",""stimuli/AM06_FO.jpg""]","stimuli/AM03_DO.jpg","stimuli/HM02_AO.jpg","stimuli/HF10_HO.jpg","stimuli/AM06_FO.jpg","pos4","stimuli/AM06_FO.jpg","FO","AM06","3","5","10","8","stimuli/stars_10.png","309","[""DO"",""AO"",""HO"",""FO""]","[""AM03"",""HM02"",""HF10"",""AM06""]","[1,5,5,10]","[2,4,6,8]","","",""
"show-reward","192","493652","0.0-192.0","p475508","A1TMZLYXQAK8Q0","336OE47KI3QZCSCUXSQ8J11UOZXVWV","33M4IA01QI7PV5YXOFML97LNV7JXRH","model","mismatch","uniform","","","","","","","","493698.90000009537","495700.90000009537","","","","","","","","","","","","10","","stimuli/stars_10.png","309","","","","","stimuli/AM06_FO.jpg","",""
"explore-choice","193","496960","0.0-193.0","p475508","A1TMZLYXQAK8Q0","336OE47KI3QZCSCUXSQ8J11UOZXVWV","33M4IA01QI7PV5YXOFML97LNV7JXRH","model","mismatch","uniform","","","","","","","2803.2999999523163","495702.10000014305","498505.40000009537","[""stimuli/HM02_AO.jpg"",""stimuli/HF10_HO.jpg"",""stimuli/AM06_DO.jpg"",""stimuli/AM03_FO.jpg""]","stimuli/HM02_AO.jpg","stimuli/HF10_HO.jpg","stimuli/AM06_DO.jpg","stimuli/AM03_FO.jpg","pos4","stimuli/AM03_FO.jpg","FO","AM03","3","3","6","8","stimuli/stars_6.png","312","[""AO"",""HO"",""DO"",""FO""]","[""HM02"",""HF10"",""AM06"",""AM03""]","[2,6,0,6]","[4,6,2,8]","","",""
"show-reward","194","498965","0.0-194.0","p475508","A1TMZLYXQAK8Q0","336OE47KI3QZCSCUXSQ8J11UOZXVWV","33M4IA01QI7PV5YXOFML97LNV7JXRH","model","mismatch","uniform","","","","","","","","499009.90000009537","501013.80000019073","","","","","","","","","","","","6","","stimuli/stars_6.png","312","","","","","stimuli/AM03_FO.jpg","",""
"explore-choice","195","501472","0.0-195.0","p475508","A1TMZLYXQAK8Q0","336OE47KI3QZCSCUXSQ8J11UOZXVWV","33M4IA01QI7PV5YXOFML97LNV7JXRH","model","mismatch","uniform","","","","","","","2000.2000000476837","501014.5","503014.7000000477","[""stimuli/HM02_DO.jpg"",""stimuli/AM06_AO.jpg"",""stimuli/HF10_FO.jpg"",""stimuli/AM03_HO.jpg""]","stimuli/HM02_DO.jpg","stimuli/AM06_AO.jpg","stimuli/HF10_FO.jpg","stimuli/AM03_HO.jpg","pos3","stimuli/HF10_FO.jpg","FO","HF10","2","4","8","8","stimuli/stars_8.png","316","[""DO"",""AO"",""FO"",""HO""]","[""HM02"",""AM06"",""HF10"",""AM03""]","[4,6,8,5]","[2,4,8,6]","","",""
"show-reward","196","503479","0.0-196.0","p475508","A1TMZLYXQAK8Q0","336OE47KI3QZCSCUXSQ8J11UOZXVWV","33M4IA01QI7PV5YXOFML97LNV7JXRH","model","mismatch","uniform","","","","","","","","503521.80000019073","505528","","","","","","","","","","","","8","","stimuli/stars_8.png","316","","","","","stimuli/HF10_FO.jpg","",""
"explore-choice","197","506680","0.0-197.0","p475508","A1TMZLYXQAK8Q0","336OE47KI3QZCSCUXSQ8J11UOZXVWV","33M4IA01QI7PV5YXOFML97LNV7JXRH","model","mismatch","uniform","","","","","","","2692.899999856949","505529.30000019073","508222.2000000477","[""stimuli/HF10_DO.jpg"",""stimuli/HM02_FO.jpg"",""stimuli/AM03_HO.jpg"",""stimuli/AM06_AO.jpg""]","stimuli/HF10_DO.jpg","stimuli/HM02_FO.jpg","stimuli/AM03_HO.jpg","stimuli/AM06_AO.jpg","pos2","stimuli/HM02_FO.jpg","FO","HM02","1","3.5","7","8","stimuli/stars_7.png","319.5","[""DO"",""FO"",""HO"",""AO""]","[""HF10"",""HM02"",""AM03"",""AM06""]","[2,7,6,2]","[2,8,6,4]","","",""
"show-reward","198","508686","0.0-198.0","p475508","A1TMZLYXQAK8Q0","336OE47KI3QZCSCUXSQ8J11UOZXVWV","33M4IA01QI7PV5YXOFML97LNV7JXRH","model","mismatch","uniform","","","","","","","","508730.2000000477","510735.10000014305","","","","","","","","","","","","7","","stimuli/stars_7.png","319.5","","","","","stimuli/HM02_FO.jpg","",""
"instructions","199","514701","0.0-199.0","p475508","A1TMZLYXQAK8Q0","336OE47KI3QZCSCUXSQ8J11UOZXVWV","33M4IA01QI7PV5YXOFML97LNV7JXRH","model","mismatch","uniform","","","","","","[{""page_index"":0,""viewing_time"":6011.700000047684}]","6013.400000095367","","","","","","","","","","","","","","","","","","","","","","","",""
"survey-text","200","520870","0.0-200.0-0.0","p475508","A1TMZLYXQAK8Q0","336OE47KI3QZCSCUXSQ8J11UOZXVWV","33M4IA01QI7PV5YXOFML97LNV7JXRH","model","mismatch","uniform","","","","","","","6164.400000095367","","","","","","","","","","","","","","","","","","","","","","","{""age"":""46""}",""
"survey-text","201","524897","0.0-200.0-1.0","p475508","A1TMZLYXQAK8Q0","336OE47KI3QZCSCUXSQ8J11UOZXVWV","33M4IA01QI7PV5YXOFML97LNV7JXRH","model","mismatch","uniform","","","","","","","4023.0999999046326","","","","","","","","","","","","","","","","","","","","","","","{""gender"":""male""}",""
"survey-text","202","531818","0.0-200.0-2.0","p475508","A1TMZLYXQAK8Q0","336OE47KI3QZCSCUXSQ8J11UOZXVWV","33M4IA01QI7PV5YXOFML97LNV7JXRH","model","mismatch","uniform","","","","","","","6916","","","","","","","","","","","","","","","","","","","","","","","{""country"":""United States""}",""
"survey-text","203","538165","0.0-200.0-3.0","p475508","A1TMZLYXQAK8Q0","336OE47KI3QZCSCUXSQ8J11UOZXVWV","33M4IA01QI7PV5YXOFML97LNV7JXRH","model","mismatch","uniform","","","","","","","6344.700000047684","","","","","","","","","","","","","","","","","","","","","","","{""language"":""English"",""other_languages"":""""}",""
"survey-multi-select","204","541751","0.0-201.0","p475508","A1TMZLYXQAK8Q0","336OE47KI3QZCSCUXSQ8J11UOZXVWV","33M4IA01QI7PV5YXOFML97LNV7JXRH","model","mismatch","uniform","","","","","","","3581.399999856949","","","","","","","","","","","","","","","","","","","","","","","{""race"":[""White""]}","[0]"
"survey-multi-choice","205","545279","0.0-202.0","p475508","A1TMZLYXQAK8Q0","336OE47KI3QZCSCUXSQ8J11UOZXVWV","33M4IA01QI7PV5YXOFML97LNV7JXRH","model","mismatch","uniform","","","","","","","3525.600000143051","","","","","","","","","","","","","","","","","","","","","","","{""education"":""Some college/ university""}","[0]"
"survey-text","206","615086","0.0-203.0","p475508","A1TMZLYXQAK8Q0","336OE47KI3QZCSCUXSQ8J11UOZXVWV","33M4IA01QI7PV5YXOFML97LNV7JXRH","model","mismatch","uniform","","","","","","","69791.79999995232","","","","","","","","","","","","","","","","","","","","","","","{""patterns"":""I think in the first one the best points were for surprise? For sure in the second part the best points were for the faces showing fear."",""strategy"":""Once I figured out for sure that fear was the best one I chose the face showing it every time."",""comments"":""Thank you""}",""
