"trial_type","trial_index","time_elapsed","internal_node_id","subject","workerId","hitId","assignmentId","structure_condition","match_condition","noise_type","success","timeout","failed_images","failed_audio","failed_video","view_history","rt","start_time","end_time","stimuli","image1","image2","image3","image4","choiceLocation","choiceImage","choiceEmotion","choiceModel","choice_index","reward_score","reward","reward_score_unadjusted","reward_image","score_after_trial","emotions","models","rewards","rewards_unadjusted","stimulus","response","question_order"
"pavlovia","0","74","0.0-0.0","p701506","AZ69TBTDH7AZS","3RDTX9JRTZ7MP6YQMJD0Z3DG4HK978","3LS2AMNW5HW2PV55A9APL4KPNJ3QOZ","model","match","uniform","","","","","","","","","","","","","","","","","","","","","","","","","","","","","","",""
"preload","1","6343","0.0-1.0","p701506","AZ69TBTDH7AZS","3RDTX9JRTZ7MP6YQMJD0Z3DG4HK978","3LS2AMNW5HW2PV55A9APL4KPNJ3QOZ","model","match","uniform","true","false","[]","[]","[]","","","","","","","","","","","","","","","","","","","","","","","","","",""
"fullscreen","2","16936","0.0-2.0","p701506","AZ69TBTDH7AZS","3RDTX9JRTZ7MP6YQMJD0Z3DG4HK978","3LS2AMNW5HW2PV55A9APL4KPNJ3QOZ","model","match","uniform","true","","","","","","","","","","","","","","","","","","","","","","","","","","","","","",""
"instructions","3","21787","0.0-3.0","p701506","AZ69TBTDH7AZS","3RDTX9JRTZ7MP6YQMJD0Z3DG4HK978","3LS2AMNW5HW2PV55A9APL4KPNJ3QOZ","model","match","uniform","","","","","","[{""page_index"":0,""viewing_time"":4846.800000011921}]","4848.099999964237","","","","","","","","","","","","","","","","","","","","","","","",""
"explore-choice","4","24344","0.0-4.0","p701506","AZ69TBTDH7AZS","3RDTX9JRTZ7MP6YQMJD0Z3DG4HK978","3LS2AMNW5HW2PV55A9APL4KPNJ3QOZ","model","match","uniform","","","","","","","2054.800000011921","24189.299999952316","26244.099999964237","[""stimuli/sheep.jpg"",""stimuli/hammer.jpg"",""stimuli/basketball.jpg"",""stimuli/horse.jpg""]","stimuli/sheep.jpg","stimuli/hammer.jpg","stimuli/basketball.jpg","stimuli/horse.jpg","pos4","stimuli/horse.jpg","","","3","64","64","64","stimuli/stars_8.png","65","","","","","","",""
"explore-choice","5","26004","0.0-5.0","p701506","AZ69TBTDH7AZS","3RDTX9JRTZ7MP6YQMJD0Z3DG4HK978","3LS2AMNW5HW2PV55A9APL4KPNJ3QOZ","model","match","uniform","","","","","","","1158","26746.299999952316","27904.299999952316","[""stimuli/hammer.jpg"",""stimuli/basketball.jpg"",""stimuli/horse.jpg"",""stimuli/sheep.jpg""]","stimuli/hammer.jpg","stimuli/basketball.jpg","stimuli/horse.jpg","stimuli/sheep.jpg","pos1","stimuli/hammer.jpg","","","0","8","8","8","stimuli/stars_2.png","9","","","","","","",""
"instructions","6","41789","0.0-6.0","p701506","AZ69TBTDH7AZS","3RDTX9JRTZ7MP6YQMJD0Z3DG4HK978","3LS2AMNW5HW2PV55A9APL4KPNJ3QOZ","model","match","uniform","","","","","","[{""page_index"":0,""viewing_time"":15782.199999988079}]","15782.799999952316","","","","","","","","","","","","","","","","","","","","","","","",""
"explore-choice","7","45233","0.0-7.0","p701506","AZ69TBTDH7AZS","3RDTX9JRTZ7MP6YQMJD0Z3DG4HK978","3LS2AMNW5HW2PV55A9APL4KPNJ3QOZ","model","match","uniform","","","","","","","2937.600000023842","44192.59999996424","47130.19999998808","[""stimuli/WF11_SC.jpg"",""stimuli/HF02_CC.jpg"",""stimuli/BM07_HE.jpg"",""stimuli/WF04_FO.jpg""]","stimuli/WF11_SC.jpg","stimuli/HF02_CC.jpg","stimuli/BM07_HE.jpg","stimuli/WF04_FO.jpg","pos4","stimuli/WF04_FO.jpg","FO","WF04","3","4.5","9","8","stimuli/stars_9.png","5.5","[""SC"",""CC"",""HE"",""FO""]","[""WF11"",""HF02"",""BM07"",""WF04""]","[5,6,3,9]","[4,6,2,8]","","",""
"show-reward","8","47246","0.0-8.0","p701506","AZ69TBTDH7AZS","3RDTX9JRTZ7MP6YQMJD0Z3DG4HK978","3LS2AMNW5HW2PV55A9APL4KPNJ3QOZ","model","match","uniform","","","","","","","","47638.799999952316","49647.299999952316","","","","","","","","","","","","9","","stimuli/stars_9.png","5.5","","","","","stimuli/WF04_FO.jpg","",""
"explore-choice","9","49887","0.0-9.0","p701506","AZ69TBTDH7AZS","3RDTX9JRTZ7MP6YQMJD0Z3DG4HK978","3LS2AMNW5HW2PV55A9APL4KPNJ3QOZ","model","match","uniform","","","","","","","2139","49649.299999952316","51788.299999952316","[""stimuli/BM07_HE.jpg"",""stimuli/WF04_SC.jpg"",""stimuli/HF02_FO.jpg"",""stimuli/WF11_CC.jpg""]","stimuli/BM07_HE.jpg","stimuli/WF04_SC.jpg","stimuli/HF02_FO.jpg","stimuli/WF11_CC.jpg","pos2","stimuli/WF04_SC.jpg","SC","WF04","1","3","6","8","stimuli/stars_6.png","8.5","[""HE"",""SC"",""FO"",""CC""]","[""BM07"",""WF04"",""HF02"",""WF11""]","[2,6,6,5]","[2,8,6,4]","","",""
"show-reward","10","51896","0.0-10.0","p701506","AZ69TBTDH7AZS","3RDTX9JRTZ7MP6YQMJD0Z3DG4HK978","3LS2AMNW5HW2PV55A9APL4KPNJ3QOZ","model","match","uniform","","","","","","","","52291.69999998808","54297.39999997616","","","","","","","","","","","","6","","stimuli/stars_6.png","8.5","","","","","stimuli/WF04_SC.jpg","",""
"explore-choice","11","53606","0.0-11.0","p701506","AZ69TBTDH7AZS","3RDTX9JRTZ7MP6YQMJD0Z3DG4HK978","3LS2AMNW5HW2PV55A9APL4KPNJ3QOZ","model","match","uniform","","","","","","","1204.699999988079","54299.19999998808","55503.89999997616","[""stimuli/WF04_CC.jpg"",""stimuli/HF02_FO.jpg"",""stimuli/WF11_HE.jpg"",""stimuli/BM07_SC.jpg""]","stimuli/WF04_CC.jpg","stimuli/HF02_FO.jpg","stimuli/WF11_HE.jpg","stimuli/BM07_SC.jpg","pos1","stimuli/WF04_CC.jpg","CC","WF04","0","3","6","8","stimuli/stars_6.png","11.5","[""CC"",""FO"",""HE"",""SC""]","[""WF04"",""HF02"",""WF11"",""BM07""]","[6,6,4,1]","[8,6,4,2]","","",""
"show-reward","12","55616","0.0-12.0","p701506","AZ69TBTDH7AZS","3RDTX9JRTZ7MP6YQMJD0Z3DG4HK978","3LS2AMNW5HW2PV55A9APL4KPNJ3QOZ","model","match","uniform","","","","","","","","56009.799999952316","58018.09999996424","","","","","","","","","","","","6","","stimuli/stars_6.png","11.5","","","","","stimuli/WF04_CC.jpg","",""
"explore-choice","13","57810","0.0-13.0","p701506","AZ69TBTDH7AZS","3RDTX9JRTZ7MP6YQMJD0Z3DG4HK978","3LS2AMNW5HW2PV55A9APL4KPNJ3QOZ","model","match","uniform","","","","","","","1691.9000000357628","58019.799999952316","59711.69999998808","[""stimuli/BM07_HE.jpg"",""stimuli/WF04_CC.jpg"",""stimuli/HF02_FO.jpg"",""stimuli/WF11_SC.jpg""]","stimuli/BM07_HE.jpg","stimuli/WF04_CC.jpg","stimuli/HF02_FO.jpg","stimuli/WF11_SC.jpg","pos4","stimuli/WF11_SC.jpg","SC","WF11","3","1","2","4","stimuli/stars_2.png","12.5","[""HE"",""CC"",""FO"",""SC""]","[""BM07"",""WF04"",""HF02"",""WF11""]","[0,10,8,2]","[2,8,6,4]","","",""
"show-reward","14","59816","0.0-14.0","p701506","AZ69TBTDH7AZS","3RDTX9JRTZ7MP6YQMJD0Z3DG4HK978","3LS2AMNW5HW2PV55A9APL4KPNJ3QOZ","model","match","uniform","","","","","","","","60213.59999996424","62217.5","","","","","","","","","","","","2","","stimuli/stars_2.png","12.5","","","","","stimuli/WF11_SC.jpg","",""
"explore-choice","15","61604","0.0-15.0","p701506","AZ69TBTDH7AZS","3RDTX9JRTZ7MP6YQMJD0Z3DG4HK978","3LS2AMNW5HW2PV55A9APL4KPNJ3QOZ","model","match","uniform","","","","","","","1286.300000011921","62219.69999998808","63506","[""stimuli/HF02_HE.jpg"",""stimuli/BM07_FO.jpg"",""stimuli/WF04_CC.jpg"",""stimuli/WF11_SC.jpg""]","stimuli/HF02_HE.jpg","stimuli/BM07_FO.jpg","stimuli/WF04_CC.jpg","stimuli/WF11_SC.jpg","pos1","stimuli/HF02_HE.jpg","HE","HF02","0","2.5","5","6","stimuli/stars_5.png","15","[""HE"",""FO"",""CC"",""SC""]","[""HF02"",""BM07"",""WF04"",""WF11""]","[5,1,8,5]","[6,2,8,4]","","",""
"show-reward","16","63611","0.0-16.0","p701506","AZ69TBTDH7AZS","3RDTX9JRTZ7MP6YQMJD0Z3DG4HK978","3LS2AMNW5HW2PV55A9APL4KPNJ3QOZ","model","match","uniform","","","","","","","","64008.299999952316","66013.09999996424","","","","","","","","","","","","5","","stimuli/stars_5.png","15","","","","","stimuli/HF02_HE.jpg","",""
"explore-choice","17","65210","0.0-17.0","p701506","AZ69TBTDH7AZS","3RDTX9JRTZ7MP6YQMJD0Z3DG4HK978","3LS2AMNW5HW2PV55A9APL4KPNJ3QOZ","model","match","uniform","","","","","","","1092.699999988079","66014.19999998808","67106.89999997616","[""stimuli/HF02_HE.jpg"",""stimuli/WF04_FO.jpg"",""stimuli/WF11_CC.jpg"",""stimuli/BM07_SC.jpg""]","stimuli/HF02_HE.jpg","stimuli/WF04_FO.jpg","stimuli/WF11_CC.jpg","stimuli/BM07_SC.jpg","pos4","stimuli/BM07_SC.jpg","SC","BM07","3","0","0","2","stimuli/stars_0.png","15","[""HE"",""FO"",""CC"",""SC""]","[""HF02"",""WF04"",""WF11"",""BM07""]","[6,9,4,0]","[6,8,4,2]","","",""
"show-reward","18","67220","0.0-18.0","p701506","AZ69TBTDH7AZS","3RDTX9JRTZ7MP6YQMJD0Z3DG4HK978","3LS2AMNW5HW2PV55A9APL4KPNJ3QOZ","model","match","uniform","","","","","","","","67613.59999996424","69622","","","","","","","","","","","","0","","stimuli/stars_0.png","15","","","","","stimuli/BM07_SC.jpg","",""
"explore-choice","19","68985","0.0-19.0","p701506","AZ69TBTDH7AZS","3RDTX9JRTZ7MP6YQMJD0Z3DG4HK978","3LS2AMNW5HW2PV55A9APL4KPNJ3QOZ","model","match","uniform","","","","","","","1258.0999999642372","69623.69999998808","70881.79999995232","[""stimuli/BM07_HE.jpg"",""stimuli/HF02_CC.jpg"",""stimuli/WF04_SC.jpg"",""stimuli/WF11_FO.jpg""]","stimuli/BM07_HE.jpg","stimuli/HF02_CC.jpg","stimuli/WF04_SC.jpg","stimuli/WF11_FO.jpg","pos3","stimuli/WF04_SC.jpg","SC","WF04","2","4","8","8","stimuli/stars_8.png","19","[""HE"",""CC"",""SC"",""FO""]","[""BM07"",""HF02"",""WF04"",""WF11""]","[2,5,8,4]","[2,6,8,4]","","",""
"show-reward","20","70995","0.0-20.0","p701506","AZ69TBTDH7AZS","3RDTX9JRTZ7MP6YQMJD0Z3DG4HK978","3LS2AMNW5HW2PV55A9APL4KPNJ3QOZ","model","match","uniform","","","","","","","","71388.59999996424","73397.09999996424","","","","","","","","","","","","8","","stimuli/stars_8.png","19","","","","","stimuli/WF04_SC.jpg","",""
"explore-choice","21","72630","0.0-21.0","p701506","AZ69TBTDH7AZS","3RDTX9JRTZ7MP6YQMJD0Z3DG4HK978","3LS2AMNW5HW2PV55A9APL4KPNJ3QOZ","model","match","uniform","","","","","","","1128.5","73399.09999996424","74527.59999996424","[""stimuli/BM07_HE.jpg"",""stimuli/WF04_CC.jpg"",""stimuli/HF02_SC.jpg"",""stimuli/WF11_FO.jpg""]","stimuli/BM07_HE.jpg","stimuli/WF04_CC.jpg","stimuli/HF02_SC.jpg","stimuli/WF11_FO.jpg","pos2","stimuli/WF04_CC.jpg","CC","WF04","1","3.5","7","8","stimuli/stars_7.png","22.5","[""HE"",""CC"",""SC"",""FO""]","[""BM07"",""WF04"",""HF02"",""WF11""]","[2,7,7,4]","[2,8,6,4]","","",""
"show-reward","22","74639","0.0-22.0","p701506","AZ69TBTDH7AZS","3RDTX9JRTZ7MP6YQMJD0Z3DG4HK978","3LS2AMNW5HW2PV55A9APL4KPNJ3QOZ","model","match","uniform","","","","","","","","75034.09999996424","77042.19999998808","","","","","","","","","","","","7","","stimuli/stars_7.png","22.5","","","","","stimuli/WF04_CC.jpg","",""
"explore-choice","23","76049","0.0-23.0","p701506","AZ69TBTDH7AZS","3RDTX9JRTZ7MP6YQMJD0Z3DG4HK978","3LS2AMNW5HW2PV55A9APL4KPNJ3QOZ","model","match","uniform","","","","","","","903.3000000119209","77044.09999996424","77947.39999997616","[""stimuli/WF11_HE.jpg"",""stimuli/BM07_FO.jpg"",""stimuli/HF02_SC.jpg"",""stimuli/WF04_CC.jpg""]","stimuli/WF11_HE.jpg","stimuli/BM07_FO.jpg","stimuli/HF02_SC.jpg","stimuli/WF04_CC.jpg","pos4","stimuli/WF04_CC.jpg","CC","WF04","3","5","10","8","stimuli/stars_10.png","27.5","[""HE"",""FO"",""SC"",""CC""]","[""WF11"",""BM07"",""HF02"",""WF04""]","[5,3,8,10]","[4,2,6,8]","","",""
"show-reward","24","78054","0.0-24.0","p701506","AZ69TBTDH7AZS","3RDTX9JRTZ7MP6YQMJD0Z3DG4HK978","3LS2AMNW5HW2PV55A9APL4KPNJ3QOZ","model","match","uniform","","","","","","","","78453.89999997616","80457.09999996424","","","","","","","","","","","","10","","stimuli/stars_10.png","27.5","","","","","stimuli/WF04_CC.jpg","",""
"explore-choice","25","79631","0.0-25.0","p701506","AZ69TBTDH7AZS","3RDTX9JRTZ7MP6YQMJD0Z3DG4HK978","3LS2AMNW5HW2PV55A9APL4KPNJ3QOZ","model","match","uniform","","","","","","","1070.6000000238419","80458.89999997616","81529.5","[""stimuli/HF02_CC.jpg"",""stimuli/BM07_SC.jpg"",""stimuli/WF04_HE.jpg"",""stimuli/WF11_FO.jpg""]","stimuli/HF02_CC.jpg","stimuli/BM07_SC.jpg","stimuli/WF04_HE.jpg","stimuli/WF11_FO.jpg","pos3","stimuli/WF04_HE.jpg","HE","WF04","2","3.5","7","8","stimuli/stars_7.png","31","[""CC"",""SC"",""HE"",""FO""]","[""HF02"",""BM07"",""WF04"",""WF11""]","[8,2,7,2]","[6,2,8,4]","","",""
"show-reward","26","81641","0.0-26.0","p701506","AZ69TBTDH7AZS","3RDTX9JRTZ7MP6YQMJD0Z3DG4HK978","3LS2AMNW5HW2PV55A9APL4KPNJ3QOZ","model","match","uniform","","","","","","","","82036.09999996424","84044.09999996424","","","","","","","","","","","","7","","stimuli/stars_7.png","31","","","","","stimuli/WF04_HE.jpg","",""
"explore-choice","27","82989","0.0-27.0","p701506","AZ69TBTDH7AZS","3RDTX9JRTZ7MP6YQMJD0Z3DG4HK978","3LS2AMNW5HW2PV55A9APL4KPNJ3QOZ","model","match","uniform","","","","","","","842.1999999880791","84045.89999997616","84888.09999996424","[""stimuli/HF02_SC.jpg"",""stimuli/WF04_FO.jpg"",""stimuli/BM07_HE.jpg"",""stimuli/WF11_CC.jpg""]","stimuli/HF02_SC.jpg","stimuli/WF04_FO.jpg","stimuli/BM07_HE.jpg","stimuli/WF11_CC.jpg","pos2","stimuli/WF04_FO.jpg","FO","WF04","1","5","10","8","stimuli/stars_10.png","36","[""SC"",""FO"",""HE"",""CC""]","[""HF02"",""WF04"",""BM07"",""WF11""]","[5,10,0,5]","[6,8,2,4]","","",""
"show-reward","28","84999","0.0-28.0","p701506","AZ69TBTDH7AZS","3RDTX9JRTZ7MP6YQMJD0Z3DG4HK978","3LS2AMNW5HW2PV55A9APL4KPNJ3QOZ","model","match","uniform","","","","","","","","85394.39999997616","87402.79999995232","","","","","","","","","","","","10","","stimuli/stars_10.png","36","","","","","stimuli/WF04_FO.jpg","",""
"explore-choice","29","86357","0.0-29.0","p701506","AZ69TBTDH7AZS","3RDTX9JRTZ7MP6YQMJD0Z3DG4HK978","3LS2AMNW5HW2PV55A9APL4KPNJ3QOZ","model","match","uniform","","","","","","","854.3999999761581","87405","88259.39999997616","[""stimuli/WF04_FO.jpg"",""stimuli/BM07_CC.jpg"",""stimuli/WF11_SC.jpg"",""stimuli/HF02_HE.jpg""]","stimuli/WF04_FO.jpg","stimuli/BM07_CC.jpg","stimuli/WF11_SC.jpg","stimuli/HF02_HE.jpg","pos1","stimuli/WF04_FO.jpg","FO","WF04","0","3.5","7","8","stimuli/stars_7.png","39.5","[""FO"",""CC"",""SC"",""HE""]","[""WF04"",""BM07"",""WF11"",""HF02""]","[7,4,6,7]","[8,2,4,6]","","",""
"show-reward","30","88363","0.0-30.0","p701506","AZ69TBTDH7AZS","3RDTX9JRTZ7MP6YQMJD0Z3DG4HK978","3LS2AMNW5HW2PV55A9APL4KPNJ3QOZ","model","match","uniform","","","","","","","","88762.39999997616","90767.59999996424","","","","","","","","","","","","7","","stimuli/stars_7.png","39.5","","","","","stimuli/WF04_FO.jpg","",""
"explore-choice","31","89771","0.0-31.0","p701506","AZ69TBTDH7AZS","3RDTX9JRTZ7MP6YQMJD0Z3DG4HK978","3LS2AMNW5HW2PV55A9APL4KPNJ3QOZ","model","match","uniform","","","","","","","900.7000000476837","90769.29999995232","91670","[""stimuli/WF04_SC.jpg"",""stimuli/WF11_CC.jpg"",""stimuli/HF02_HE.jpg"",""stimuli/BM07_FO.jpg""]","stimuli/WF04_SC.jpg","stimuli/WF11_CC.jpg","stimuli/HF02_HE.jpg","stimuli/BM07_FO.jpg","pos1","stimuli/WF04_SC.jpg","SC","WF04","0","5","10","8","stimuli/stars_10.png","44.5","[""SC"",""CC"",""HE"",""FO""]","[""WF04"",""WF11"",""HF02"",""BM07""]","[10,3,7,1]","[8,4,6,2]","","",""
"show-reward","32","91780","0.0-32.0","p701506","AZ69TBTDH7AZS","3RDTX9JRTZ7MP6YQMJD0Z3DG4HK978","3LS2AMNW5HW2PV55A9APL4KPNJ3QOZ","model","match","uniform","","","","","","","","92176.39999997616","94184.59999996424","","","","","","","","","","","","10","","stimuli/stars_10.png","44.5","","","","","stimuli/WF04_SC.jpg","",""
"explore-choice","33","93130","0.0-33.0","p701506","AZ69TBTDH7AZS","3RDTX9JRTZ7MP6YQMJD0Z3DG4HK978","3LS2AMNW5HW2PV55A9APL4KPNJ3QOZ","model","match","uniform","","","","","","","843.5","94186.39999997616","95029.89999997616","[""stimuli/BM07_CC.jpg"",""stimuli/HF02_FO.jpg"",""stimuli/WF04_SC.jpg"",""stimuli/WF11_HE.jpg""]","stimuli/BM07_CC.jpg","stimuli/HF02_FO.jpg","stimuli/WF04_SC.jpg","stimuli/WF11_HE.jpg","pos3","stimuli/WF04_SC.jpg","SC","WF04","2","4.5","9","8","stimuli/stars_9.png","49","[""CC"",""FO"",""SC"",""HE""]","[""BM07"",""HF02"",""WF04"",""WF11""]","[4,6,9,3]","[2,6,8,4]","","",""
"show-reward","34","95140","0.0-34.0","p701506","AZ69TBTDH7AZS","3RDTX9JRTZ7MP6YQMJD0Z3DG4HK978","3LS2AMNW5HW2PV55A9APL4KPNJ3QOZ","model","match","uniform","","","","","","","","95536.39999997616","97544.89999997616","","","","","","","","","","","","9","","stimuli/stars_9.png","49","","","","","stimuli/WF04_SC.jpg","",""
"explore-choice","35","96407","0.0-35.0","p701506","AZ69TBTDH7AZS","3RDTX9JRTZ7MP6YQMJD0Z3DG4HK978","3LS2AMNW5HW2PV55A9APL4KPNJ3QOZ","model","match","uniform","","","","","","","759.8999999761581","97546.89999997616","98306.79999995232","[""stimuli/HF02_HE.jpg"",""stimuli/BM07_CC.jpg"",""stimuli/WF11_FO.jpg"",""stimuli/WF04_SC.jpg""]","stimuli/HF02_HE.jpg","stimuli/BM07_CC.jpg","stimuli/WF11_FO.jpg","stimuli/WF04_SC.jpg","pos4","stimuli/WF04_SC.jpg","SC","WF04","3","4.5","9","8","stimuli/stars_9.png","53.5","[""HE"",""CC"",""FO"",""SC""]","[""HF02"",""BM07"",""WF11"",""WF04""]","[8,2,2,9]","[6,2,4,8]","","",""
"show-reward","36","98418","0.0-36.0","p701506","AZ69TBTDH7AZS","3RDTX9JRTZ7MP6YQMJD0Z3DG4HK978","3LS2AMNW5HW2PV55A9APL4KPNJ3QOZ","model","match","uniform","","","","","","","","98813.69999998808","100823.19999998808","","","","","","","","","","","","9","","stimuli/stars_9.png","53.5","","","","","stimuli/WF04_SC.jpg","",""
"explore-choice","37","99719","0.0-37.0","p701506","AZ69TBTDH7AZS","3RDTX9JRTZ7MP6YQMJD0Z3DG4HK978","3LS2AMNW5HW2PV55A9APL4KPNJ3QOZ","model","match","uniform","","","","","","","797.3000000119209","100824.89999997616","101622.19999998808","[""stimuli/BM07_SC.jpg"",""stimuli/WF04_FO.jpg"",""stimuli/HF02_CC.jpg"",""stimuli/WF11_HE.jpg""]","stimuli/BM07_SC.jpg","stimuli/WF04_FO.jpg","stimuli/HF02_CC.jpg","stimuli/WF11_HE.jpg","pos2","stimuli/WF04_FO.jpg","FO","WF04","1","4.5","9","8","stimuli/stars_9.png","58","[""SC"",""FO"",""CC"",""HE""]","[""BM07"",""WF04"",""HF02"",""WF11""]","[3,9,8,3]","[2,8,6,4]","","",""
"show-reward","38","101725","0.0-38.0","p701506","AZ69TBTDH7AZS","3RDTX9JRTZ7MP6YQMJD0Z3DG4HK978","3LS2AMNW5HW2PV55A9APL4KPNJ3QOZ","model","match","uniform","","","","","","","","102125.89999997616","104130.29999995232","","","","","","","","","","","","9","","stimuli/stars_9.png","58","","","","","stimuli/WF04_FO.jpg","",""
"explore-choice","39","103039","0.0-39.0","p701506","AZ69TBTDH7AZS","3RDTX9JRTZ7MP6YQMJD0Z3DG4HK978","3LS2AMNW5HW2PV55A9APL4KPNJ3QOZ","model","match","uniform","","","","","","","807.5","104132.09999996424","104939.59999996424","[""stimuli/HF02_FO.jpg"",""stimuli/BM07_SC.jpg"",""stimuli/WF11_CC.jpg"",""stimuli/WF04_HE.jpg""]","stimuli/HF02_FO.jpg","stimuli/BM07_SC.jpg","stimuli/WF11_CC.jpg","stimuli/WF04_HE.jpg","pos4","stimuli/WF04_HE.jpg","HE","WF04","3","3","6","8","stimuli/stars_6.png","61","[""FO"",""SC"",""CC"",""HE""]","[""HF02"",""BM07"",""WF11"",""WF04""]","[5,3,4,6]","[6,2,4,8]","","",""
"show-reward","40","105049","0.0-40.0","p701506","AZ69TBTDH7AZS","3RDTX9JRTZ7MP6YQMJD0Z3DG4HK978","3LS2AMNW5HW2PV55A9APL4KPNJ3QOZ","model","match","uniform","","","","","","","","105446.09999996424","107454.09999996424","","","","","","","","","","","","6","","stimuli/stars_6.png","61","","","","","stimuli/WF04_HE.jpg","",""
"explore-choice","41","106372","0.0-41.0","p701506","AZ69TBTDH7AZS","3RDTX9JRTZ7MP6YQMJD0Z3DG4HK978","3LS2AMNW5HW2PV55A9APL4KPNJ3QOZ","model","match","uniform","","","","","","","819.8999999761581","107456","108275.89999997616","[""stimuli/WF11_HE.jpg"",""stimuli/WF04_SC.jpg"",""stimuli/BM07_FO.jpg"",""stimuli/HF02_CC.jpg""]","stimuli/WF11_HE.jpg","stimuli/WF04_SC.jpg","stimuli/BM07_FO.jpg","stimuli/HF02_CC.jpg","pos2","stimuli/WF04_SC.jpg","SC","WF04","1","5","10","8","stimuli/stars_10.png","66","[""HE"",""SC"",""FO"",""CC""]","[""WF11"",""WF04"",""BM07"",""HF02""]","[3,10,0,7]","[4,8,2,6]","","",""
"show-reward","42","108378","0.0-42.0","p701506","AZ69TBTDH7AZS","3RDTX9JRTZ7MP6YQMJD0Z3DG4HK978","3LS2AMNW5HW2PV55A9APL4KPNJ3QOZ","model","match","uniform","","","","","","","","108779","110783.19999998808","","","","","","","","","","","","10","","stimuli/stars_10.png","66","","","","","stimuli/WF04_SC.jpg","",""
"explore-choice","43","109551","0.0-43.0","p701506","AZ69TBTDH7AZS","3RDTX9JRTZ7MP6YQMJD0Z3DG4HK978","3LS2AMNW5HW2PV55A9APL4KPNJ3QOZ","model","match","uniform","","","","","","","667","110784.79999995232","111451.79999995232","[""stimuli/BM07_FO.jpg"",""stimuli/WF04_HE.jpg"",""stimuli/WF11_SC.jpg"",""stimuli/HF02_CC.jpg""]","stimuli/BM07_FO.jpg","stimuli/WF04_HE.jpg","stimuli/WF11_SC.jpg","stimuli/HF02_CC.jpg","pos2","stimuli/WF04_HE.jpg","HE","WF04","1","3.5","7","8","stimuli/stars_7.png","69.5","[""FO"",""HE"",""SC"",""CC""]","[""BM07"",""WF04"",""WF11"",""HF02""]","[4,7,4,8]","[2,8,4,6]","","",""
"show-reward","44","111561","0.0-44.0","p701506","AZ69TBTDH7AZS","3RDTX9JRTZ7MP6YQMJD0Z3DG4HK978","3LS2AMNW5HW2PV55A9APL4KPNJ3QOZ","model","match","uniform","","","","","","","","111958.5","113966.59999996424","","","","","","","","","","","","7","","stimuli/stars_7.png","69.5","","","","","stimuli/WF04_HE.jpg","",""
"explore-choice","45","113042","0.0-45.0","p701506","AZ69TBTDH7AZS","3RDTX9JRTZ7MP6YQMJD0Z3DG4HK978","3LS2AMNW5HW2PV55A9APL4KPNJ3QOZ","model","match","uniform","","","","","","","979.1999999880791","113968.19999998808","114947.39999997616","[""stimuli/WF04_CC.jpg"",""stimuli/HF02_HE.jpg"",""stimuli/BM07_SC.jpg"",""stimuli/WF11_FO.jpg""]","stimuli/WF04_CC.jpg","stimuli/HF02_HE.jpg","stimuli/BM07_SC.jpg","stimuli/WF11_FO.jpg","pos1","stimuli/WF04_CC.jpg","CC","WF04","0","4","8","8","stimuli/stars_8.png","73.5","[""CC"",""HE"",""SC"",""FO""]","[""WF04"",""HF02"",""BM07"",""WF11""]","[8,6,4,3]","[8,6,2,4]","","",""
"show-reward","46","115047","0.0-46.0","p701506","AZ69TBTDH7AZS","3RDTX9JRTZ7MP6YQMJD0Z3DG4HK978","3LS2AMNW5HW2PV55A9APL4KPNJ3QOZ","model","match","uniform","","","","","","","","115448.89999997616","117452.19999998808","","","","","","","","","","","","8","","stimuli/stars_8.png","73.5","","","","","stimuli/WF04_CC.jpg","",""
"explore-choice","47","116238","0.0-47.0","p701506","AZ69TBTDH7AZS","3RDTX9JRTZ7MP6YQMJD0Z3DG4HK978","3LS2AMNW5HW2PV55A9APL4KPNJ3QOZ","model","match","uniform","","","","","","","688.4000000357628","117453.09999996424","118141.5","[""stimuli/WF11_FO.jpg"",""stimuli/WF04_HE.jpg"",""stimuli/HF02_SC.jpg"",""stimuli/BM07_CC.jpg""]","stimuli/WF11_FO.jpg","stimuli/WF04_HE.jpg","stimuli/HF02_SC.jpg","stimuli/BM07_CC.jpg","pos2","stimuli/WF04_HE.jpg","HE","WF04","1","3","6","8","stimuli/stars_6.png","76.5","[""FO"",""HE"",""SC"",""CC""]","[""WF11"",""WF04"",""HF02"",""BM07""]","[4,6,6,2]","[4,8,6,2]","","",""
"show-reward","48","118243","0.0-48.0","p701506","AZ69TBTDH7AZS","3RDTX9JRTZ7MP6YQMJD0Z3DG4HK978","3LS2AMNW5HW2PV55A9APL4KPNJ3QOZ","model","match","uniform","","","","","","","","118645.5","120648.5","","","","","","","","","","","","6","","stimuli/stars_6.png","76.5","","","","","stimuli/WF04_HE.jpg","",""
"explore-choice","49","119785","0.0-49.0","p701506","AZ69TBTDH7AZS","3RDTX9JRTZ7MP6YQMJD0Z3DG4HK978","3LS2AMNW5HW2PV55A9APL4KPNJ3QOZ","model","match","uniform","","","","","","","1040.199999988079","120650","121690.19999998808","[""stimuli/BM07_FO.jpg"",""stimuli/WF11_CC.jpg"",""stimuli/WF04_HE.jpg"",""stimuli/HF02_SC.jpg""]","stimuli/BM07_FO.jpg","stimuli/WF11_CC.jpg","stimuli/WF04_HE.jpg","stimuli/HF02_SC.jpg","pos3","stimuli/WF04_HE.jpg","HE","WF04","2","5","10","8","stimuli/stars_10.png","81.5","[""FO"",""CC"",""HE"",""SC""]","[""BM07"",""WF11"",""WF04"",""HF02""]","[1,3,10,7]","[2,4,8,6]","","",""
"show-reward","50","121789","0.0-50.0","p701506","AZ69TBTDH7AZS","3RDTX9JRTZ7MP6YQMJD0Z3DG4HK978","3LS2AMNW5HW2PV55A9APL4KPNJ3QOZ","model","match","uniform","","","","","","","","122191.5","124194.79999995232","","","","","","","","","","","","10","","stimuli/stars_10.png","81.5","","","","","stimuli/WF04_HE.jpg","",""
"explore-choice","51","122937","0.0-51.0","p701506","AZ69TBTDH7AZS","3RDTX9JRTZ7MP6YQMJD0Z3DG4HK978","3LS2AMNW5HW2PV55A9APL4KPNJ3QOZ","model","match","uniform","","","","","","","646.2999999523163","124196.5","124842.79999995232","[""stimuli/BM07_CC.jpg"",""stimuli/HF02_FO.jpg"",""stimuli/WF04_HE.jpg"",""stimuli/WF11_SC.jpg""]","stimuli/BM07_CC.jpg","stimuli/HF02_FO.jpg","stimuli/WF04_HE.jpg","stimuli/WF11_SC.jpg","pos3","stimuli/WF04_HE.jpg","HE","WF04","2","3","6","8","stimuli/stars_6.png","84.5","[""CC"",""FO"",""HE"",""SC""]","[""BM07"",""HF02"",""WF04"",""WF11""]","[0,5,6,2]","[2,6,8,4]","","",""
"show-reward","52","124947","0.0-52.0","p701506","AZ69TBTDH7AZS","3RDTX9JRTZ7MP6YQMJD0Z3DG4HK978","3LS2AMNW5HW2PV55A9APL4KPNJ3QOZ","model","match","uniform","","","","","","","","125344.29999995232","127353.19999998808","","","","","","","","","","","","6","","stimuli/stars_6.png","84.5","","","","","stimuli/WF04_HE.jpg","",""
"explore-choice","53","126139","0.0-53.0","p701506","AZ69TBTDH7AZS","3RDTX9JRTZ7MP6YQMJD0Z3DG4HK978","3LS2AMNW5HW2PV55A9APL4KPNJ3QOZ","model","match","uniform","","","","","","","689.1000000238419","127354.79999995232","128043.89999997616","[""stimuli/BM07_CC.jpg"",""stimuli/HF02_SC.jpg"",""stimuli/WF04_FO.jpg"",""stimuli/WF11_HE.jpg""]","stimuli/BM07_CC.jpg","stimuli/HF02_SC.jpg","stimuli/WF04_FO.jpg","stimuli/WF11_HE.jpg","pos3","stimuli/WF04_FO.jpg","FO","WF04","2","4.5","9","8","stimuli/stars_9.png","89","[""CC"",""SC"",""FO"",""HE""]","[""BM07"",""HF02"",""WF04"",""WF11""]","[2,6,9,5]","[2,6,8,4]","","",""
"show-reward","54","128149","0.0-54.0","p701506","AZ69TBTDH7AZS","3RDTX9JRTZ7MP6YQMJD0Z3DG4HK978","3LS2AMNW5HW2PV55A9APL4KPNJ3QOZ","model","match","uniform","","","","","","","","128546.79999995232","130554.5","","","","","","","","","","","","9","","stimuli/stars_9.png","89","","","","","stimuli/WF04_FO.jpg","",""
"explore-choice","55","129343","0.0-55.0","p701506","AZ69TBTDH7AZS","3RDTX9JRTZ7MP6YQMJD0Z3DG4HK978","3LS2AMNW5HW2PV55A9APL4KPNJ3QOZ","model","match","uniform","","","","","","","691.3000000119209","130556.09999996424","131247.39999997616","[""stimuli/WF04_FO.jpg"",""stimuli/WF11_CC.jpg"",""stimuli/HF02_SC.jpg"",""stimuli/BM07_HE.jpg""]","stimuli/WF04_FO.jpg","stimuli/WF11_CC.jpg","stimuli/HF02_SC.jpg","stimuli/BM07_HE.jpg","pos1","stimuli/WF04_FO.jpg","FO","WF04","0","5","10","8","stimuli/stars_10.png","94","[""FO"",""CC"",""SC"",""HE""]","[""WF04"",""WF11"",""HF02"",""BM07""]","[10,5,5,0]","[8,4,6,2]","","",""
"show-reward","56","131353","0.0-56.0","p701506","AZ69TBTDH7AZS","3RDTX9JRTZ7MP6YQMJD0Z3DG4HK978","3LS2AMNW5HW2PV55A9APL4KPNJ3QOZ","model","match","uniform","","","","","","","","131750.59999996424","133758.5","","","","","","","","","","","","10","","stimuli/stars_10.png","94","","","","","stimuli/WF04_FO.jpg","",""
"explore-choice","57","132596","0.0-57.0","p701506","AZ69TBTDH7AZS","3RDTX9JRTZ7MP6YQMJD0Z3DG4HK978","3LS2AMNW5HW2PV55A9APL4KPNJ3QOZ","model","match","uniform","","","","","","","740.8000000119209","133760.19999998808","134501","[""stimuli/BM07_SC.jpg"",""stimuli/WF04_CC.jpg"",""stimuli/HF02_HE.jpg"",""stimuli/WF11_FO.jpg""]","stimuli/BM07_SC.jpg","stimuli/WF04_CC.jpg","stimuli/HF02_HE.jpg","stimuli/WF11_FO.jpg","pos2","stimuli/WF04_CC.jpg","CC","WF04","1","4","8","8","stimuli/stars_8.png","98","[""SC"",""CC"",""HE"",""FO""]","[""BM07"",""WF04"",""HF02"",""WF11""]","[4,8,6,3]","[2,8,6,4]","","",""
"show-reward","58","134598","0.0-58.0","p701506","AZ69TBTDH7AZS","3RDTX9JRTZ7MP6YQMJD0Z3DG4HK978","3LS2AMNW5HW2PV55A9APL4KPNJ3QOZ","model","match","uniform","","","","","","","","135002.69999998808","137004.39999997616","","","","","","","","","","","","8","","stimuli/stars_8.png","98","","","","","stimuli/WF04_CC.jpg","",""
"explore-choice","59","136062","0.0-59.0","p701506","AZ69TBTDH7AZS","3RDTX9JRTZ7MP6YQMJD0Z3DG4HK978","3LS2AMNW5HW2PV55A9APL4KPNJ3QOZ","model","match","uniform","","","","","","","959","137005.69999998808","137964.69999998808","[""stimuli/BM07_HE.jpg"",""stimuli/HF02_CC.jpg"",""stimuli/WF11_SC.jpg"",""stimuli/WF04_FO.jpg""]","stimuli/BM07_HE.jpg","stimuli/HF02_CC.jpg","stimuli/WF11_SC.jpg","stimuli/WF04_FO.jpg","pos4","stimuli/WF04_FO.jpg","FO","WF04","3","4.5","9","8","stimuli/stars_9.png","102.5","[""HE"",""CC"",""SC"",""FO""]","[""BM07"",""HF02"",""WF11"",""WF04""]","[3,6,5,9]","[2,6,4,8]","","",""
"show-reward","60","138069","0.0-60.0","p701506","AZ69TBTDH7AZS","3RDTX9JRTZ7MP6YQMJD0Z3DG4HK978","3LS2AMNW5HW2PV55A9APL4KPNJ3QOZ","model","match","uniform","","","","","","","","138469.69999998808","140475.39999997616","","","","","","","","","","","","9","","stimuli/stars_9.png","102.5","","","","","stimuli/WF04_FO.jpg","",""
"explore-choice","61","139396","0.0-61.0","p701506","AZ69TBTDH7AZS","3RDTX9JRTZ7MP6YQMJD0Z3DG4HK978","3LS2AMNW5HW2PV55A9APL4KPNJ3QOZ","model","match","uniform","","","","","","","824.8000000119209","140477.19999998808","141302","[""stimuli/BM07_HE.jpg"",""stimuli/WF11_CC.jpg"",""stimuli/HF02_FO.jpg"",""stimuli/WF04_SC.jpg""]","stimuli/BM07_HE.jpg","stimuli/WF11_CC.jpg","stimuli/HF02_FO.jpg","stimuli/WF04_SC.jpg","pos4","stimuli/WF04_SC.jpg","SC","WF04","3","3","6","8","stimuli/stars_6.png","105.5","[""HE"",""CC"",""FO"",""SC""]","[""BM07"",""WF11"",""HF02"",""WF04""]","[2,5,6,6]","[2,4,6,8]","","",""
"show-reward","62","141406","0.0-62.0","p701506","AZ69TBTDH7AZS","3RDTX9JRTZ7MP6YQMJD0Z3DG4HK978","3LS2AMNW5HW2PV55A9APL4KPNJ3QOZ","model","match","uniform","","","","","","","","141804","143812","","","","","","","","","","","","6","","stimuli/stars_6.png","105.5","","","","","stimuli/WF04_SC.jpg","",""
"explore-choice","63","142783","0.0-63.0","p701506","AZ69TBTDH7AZS","3RDTX9JRTZ7MP6YQMJD0Z3DG4HK978","3LS2AMNW5HW2PV55A9APL4KPNJ3QOZ","model","match","uniform","","","","","","","874.9000000357628","143813.79999995232","144688.69999998808","[""stimuli/WF11_CC.jpg"",""stimuli/WF04_HE.jpg"",""stimuli/BM07_FO.jpg"",""stimuli/HF02_SC.jpg""]","stimuli/WF11_CC.jpg","stimuli/WF04_HE.jpg","stimuli/BM07_FO.jpg","stimuli/HF02_SC.jpg","pos2","stimuli/WF04_HE.jpg","HE","WF04","1","5","10","8","stimuli/stars_10.png","110.5","[""CC"",""HE"",""FO"",""SC""]","[""WF11"",""WF04"",""BM07"",""HF02""]","[3,10,1,7]","[4,8,2,6]","","",""
"show-reward","64","144787","0.0-64.0","p701506","AZ69TBTDH7AZS","3RDTX9JRTZ7MP6YQMJD0Z3DG4HK978","3LS2AMNW5HW2PV55A9APL4KPNJ3QOZ","model","match","uniform","","","","","","","","145190.5","147193.39999997616","","","","","","","","","","","","10","","stimuli/stars_10.png","110.5","","","","","stimuli/WF04_HE.jpg","",""
"explore-choice","65","146340","0.0-65.0","p701506","AZ69TBTDH7AZS","3RDTX9JRTZ7MP6YQMJD0Z3DG4HK978","3LS2AMNW5HW2PV55A9APL4KPNJ3QOZ","model","match","uniform","","","","","","","1046.4000000357628","147195.09999996424","148241.5","[""stimuli/HF02_CC.jpg"",""stimuli/BM07_FO.jpg"",""stimuli/WF11_SC.jpg"",""stimuli/WF04_HE.jpg""]","stimuli/HF02_CC.jpg","stimuli/BM07_FO.jpg","stimuli/WF11_SC.jpg","stimuli/WF04_HE.jpg","pos4","stimuli/WF04_HE.jpg","HE","WF04","3","3.5","7","8","stimuli/stars_7.png","114","[""CC"",""FO"",""SC"",""HE""]","[""HF02"",""BM07"",""WF11"",""WF04""]","[8,4,4,7]","[6,2,4,8]","","",""
"show-reward","66","148348","0.0-66.0","p701506","AZ69TBTDH7AZS","3RDTX9JRTZ7MP6YQMJD0Z3DG4HK978","3LS2AMNW5HW2PV55A9APL4KPNJ3QOZ","model","match","uniform","","","","","","","","148748.29999995232","150753.79999995232","","","","","","","","","","","","7","","stimuli/stars_7.png","114","","","","","stimuli/WF04_HE.jpg","",""
"explore-choice","67","149682","0.0-67.0","p701506","AZ69TBTDH7AZS","3RDTX9JRTZ7MP6YQMJD0Z3DG4HK978","3LS2AMNW5HW2PV55A9APL4KPNJ3QOZ","model","match","uniform","","","","","","","827.2999999523163","150756","151583.29999995232","[""stimuli/HF02_HE.jpg"",""stimuli/WF04_SC.jpg"",""stimuli/WF11_CC.jpg"",""stimuli/BM07_FO.jpg""]","stimuli/HF02_HE.jpg","stimuli/WF04_SC.jpg","stimuli/WF11_CC.jpg","stimuli/BM07_FO.jpg","pos2","stimuli/WF04_SC.jpg","SC","WF04","1","5","10","8","stimuli/stars_10.png","119","[""HE"",""SC"",""CC"",""FO""]","[""HF02"",""WF04"",""WF11"",""BM07""]","[7,10,3,1]","[6,8,4,2]","","",""
"show-reward","68","151689","0.0-68.0","p701506","AZ69TBTDH7AZS","3RDTX9JRTZ7MP6YQMJD0Z3DG4HK978","3LS2AMNW5HW2PV55A9APL4KPNJ3QOZ","model","match","uniform","","","","","","","","152089.79999995232","154095.39999997616","","","","","","","","","","","","10","","stimuli/stars_10.png","119","","","","","stimuli/WF04_SC.jpg","",""
"explore-choice","69","152989","0.0-69.0","p701506","AZ69TBTDH7AZS","3RDTX9JRTZ7MP6YQMJD0Z3DG4HK978","3LS2AMNW5HW2PV55A9APL4KPNJ3QOZ","model","match","uniform","","","","","","","794.6000000238419","154097.09999996424","154891.69999998808","[""stimuli/HF02_HE.jpg"",""stimuli/BM07_FO.jpg"",""stimuli/WF04_CC.jpg"",""stimuli/WF11_SC.jpg""]","stimuli/HF02_HE.jpg","stimuli/BM07_FO.jpg","stimuli/WF04_CC.jpg","stimuli/WF11_SC.jpg","pos3","stimuli/WF04_CC.jpg","CC","WF04","2","4","8","8","stimuli/stars_8.png","123","[""HE"",""FO"",""CC"",""SC""]","[""HF02"",""BM07"",""WF04"",""WF11""]","[5,1,8,5]","[6,2,8,4]","","",""
"show-reward","70","154999","0.0-70.0","p701506","AZ69TBTDH7AZS","3RDTX9JRTZ7MP6YQMJD0Z3DG4HK978","3LS2AMNW5HW2PV55A9APL4KPNJ3QOZ","model","match","uniform","","","","","","","","155397.29999995232","157405.5","","","","","","","","","","","","8","","stimuli/stars_8.png","123","","","","","stimuli/WF04_CC.jpg","",""
"explore-choice","71","156358","0.0-71.0","p701506","AZ69TBTDH7AZS","3RDTX9JRTZ7MP6YQMJD0Z3DG4HK978","3LS2AMNW5HW2PV55A9APL4KPNJ3QOZ","model","match","uniform","","","","","","","855.4000000357628","157407.29999995232","158262.69999998808","[""stimuli/BM07_CC.jpg"",""stimuli/WF11_FO.jpg"",""stimuli/HF02_HE.jpg"",""stimuli/WF04_SC.jpg""]","stimuli/BM07_CC.jpg","stimuli/WF11_FO.jpg","stimuli/HF02_HE.jpg","stimuli/WF04_SC.jpg","pos4","stimuli/WF04_SC.jpg","SC","WF04","3","4.5","9","8","stimuli/stars_9.png","127.5","[""CC"",""FO"",""HE"",""SC""]","[""BM07"",""WF11"",""HF02"",""WF04""]","[2,2,8,9]","[2,4,6,8]","","",""
"show-reward","72","158364","0.0-72.0","p701506","AZ69TBTDH7AZS","3RDTX9JRTZ7MP6YQMJD0Z3DG4HK978","3LS2AMNW5HW2PV55A9APL4KPNJ3QOZ","model","match","uniform","","","","","","","","158766.59999996424","160770.69999998808","","","","","","","","","","","","9","","stimuli/stars_9.png","127.5","","","","","stimuli/WF04_SC.jpg","",""
"explore-choice","73","159596","0.0-73.0","p701506","AZ69TBTDH7AZS","3RDTX9JRTZ7MP6YQMJD0Z3DG4HK978","3LS2AMNW5HW2PV55A9APL4KPNJ3QOZ","model","match","uniform","","","","","","","728.0999999642372","160772.5","161500.59999996424","[""stimuli/BM07_SC.jpg"",""stimuli/WF11_HE.jpg"",""stimuli/WF04_FO.jpg"",""stimuli/HF02_CC.jpg""]","stimuli/BM07_SC.jpg","stimuli/WF11_HE.jpg","stimuli/WF04_FO.jpg","stimuli/HF02_CC.jpg","pos3","stimuli/WF04_FO.jpg","FO","WF04","2","4.5","9","8","stimuli/stars_9.png","132","[""SC"",""HE"",""FO"",""CC""]","[""BM07"",""WF11"",""WF04"",""HF02""]","[3,3,9,8]","[2,4,8,6]","","",""
"show-reward","74","161602","0.0-74.0","p701506","AZ69TBTDH7AZS","3RDTX9JRTZ7MP6YQMJD0Z3DG4HK978","3LS2AMNW5HW2PV55A9APL4KPNJ3QOZ","model","match","uniform","","","","","","","","162004.59999996424","164008.29999995232","","","","","","","","","","","","9","","stimuli/stars_9.png","132","","","","","stimuli/WF04_FO.jpg","",""
"explore-choice","75","162750","0.0-75.0","p701506","AZ69TBTDH7AZS","3RDTX9JRTZ7MP6YQMJD0Z3DG4HK978","3LS2AMNW5HW2PV55A9APL4KPNJ3QOZ","model","match","uniform","","","","","","","643.2999999523163","164010","164653.29999995232","[""stimuli/HF02_FO.jpg"",""stimuli/BM07_SC.jpg"",""stimuli/WF11_CC.jpg"",""stimuli/WF04_HE.jpg""]","stimuli/HF02_FO.jpg","stimuli/BM07_SC.jpg","stimuli/WF11_CC.jpg","stimuli/WF04_HE.jpg","pos4","stimuli/WF04_HE.jpg","HE","WF04","3","3","6","8","stimuli/stars_6.png","135","[""FO"",""SC"",""CC"",""HE""]","[""HF02"",""BM07"",""WF11"",""WF04""]","[5,3,4,6]","[6,2,4,8]","","",""
"show-reward","76","164756","0.0-76.0","p701506","AZ69TBTDH7AZS","3RDTX9JRTZ7MP6YQMJD0Z3DG4HK978","3LS2AMNW5HW2PV55A9APL4KPNJ3QOZ","model","match","uniform","","","","","","","","165158.39999997616","167162.39999997616","","","","","","","","","","","","6","","stimuli/stars_6.png","135","","","","","stimuli/WF04_HE.jpg","",""
"explore-choice","77","166207","0.0-77.0","p701506","AZ69TBTDH7AZS","3RDTX9JRTZ7MP6YQMJD0Z3DG4HK978","3LS2AMNW5HW2PV55A9APL4KPNJ3QOZ","model","match","uniform","","","","","","","944.6000000238419","167164.09999996424","168108.69999998808","[""stimuli/HF02_FO.jpg"",""stimuli/WF04_CC.jpg"",""stimuli/BM07_HE.jpg"",""stimuli/WF11_SC.jpg""]","stimuli/HF02_FO.jpg","stimuli/WF04_CC.jpg","stimuli/BM07_HE.jpg","stimuli/WF11_SC.jpg","pos2","stimuli/WF04_CC.jpg","CC","WF04","1","5","10","8","stimuli/stars_10.png","140","[""FO"",""CC"",""HE"",""SC""]","[""HF02"",""WF04"",""BM07"",""WF11""]","[8,10,0,2]","[6,8,2,4]","","",""
"show-reward","78","168217","0.0-78.0","p701506","AZ69TBTDH7AZS","3RDTX9JRTZ7MP6YQMJD0Z3DG4HK978","3LS2AMNW5HW2PV55A9APL4KPNJ3QOZ","model","match","uniform","","","","","","","","168615.29999995232","170623.79999995232","","","","","","","","","","","","10","","stimuli/stars_10.png","140","","","","","stimuli/WF04_CC.jpg","",""
"explore-choice","79","169778","0.0-79.0","p701506","AZ69TBTDH7AZS","3RDTX9JRTZ7MP6YQMJD0Z3DG4HK978","3LS2AMNW5HW2PV55A9APL4KPNJ3QOZ","model","match","uniform","","","","","","","1058.1000000238419","170625.59999996424","171683.69999998808","[""stimuli/WF04_SC.jpg"",""stimuli/HF02_CC.jpg"",""stimuli/BM07_FO.jpg"",""stimuli/WF11_HE.jpg""]","stimuli/WF04_SC.jpg","stimuli/HF02_CC.jpg","stimuli/BM07_FO.jpg","stimuli/WF11_HE.jpg","pos1","stimuli/WF04_SC.jpg","SC","WF04","0","5","10","8","stimuli/stars_10.png","145","[""SC"",""CC"",""FO"",""HE""]","[""WF04"",""HF02"",""BM07"",""WF11""]","[10,7,0,3]","[8,6,2,4]","","",""
"show-reward","80","171786","0.0-80.0","p701506","AZ69TBTDH7AZS","3RDTX9JRTZ7MP6YQMJD0Z3DG4HK978","3LS2AMNW5HW2PV55A9APL4KPNJ3QOZ","model","match","uniform","","","","","","","","172186.5","174193.09999996424","","","","","","","","","","","","10","","stimuli/stars_10.png","145","","","","","stimuli/WF04_SC.jpg","",""
"explore-choice","81","173198","0.0-81.0","p701506","AZ69TBTDH7AZS","3RDTX9JRTZ7MP6YQMJD0Z3DG4HK978","3LS2AMNW5HW2PV55A9APL4KPNJ3QOZ","model","match","uniform","","","","","","","905.1999999880791","174194.89999997616","175100.09999996424","[""stimuli/BM07_SC.jpg"",""stimuli/HF02_FO.jpg"",""stimuli/WF04_CC.jpg"",""stimuli/WF11_HE.jpg""]","stimuli/BM07_SC.jpg","stimuli/HF02_FO.jpg","stimuli/WF04_CC.jpg","stimuli/WF11_HE.jpg","pos3","stimuli/WF04_CC.jpg","CC","WF04","2","3","6","8","stimuli/stars_6.png","148","[""SC"",""FO"",""CC"",""HE""]","[""BM07"",""HF02"",""WF04"",""WF11""]","[1,6,6,4]","[2,6,8,4]","","",""
"show-reward","82","175204","0.0-82.0","p701506","AZ69TBTDH7AZS","3RDTX9JRTZ7MP6YQMJD0Z3DG4HK978","3LS2AMNW5HW2PV55A9APL4KPNJ3QOZ","model","match","uniform","","","","","","","","175606.69999998808","177610.39999997616","","","","","","","","","","","","6","","stimuli/stars_6.png","148","","","","","stimuli/WF04_CC.jpg","",""
"explore-choice","83","176610","0.0-83.0","p701506","AZ69TBTDH7AZS","3RDTX9JRTZ7MP6YQMJD0Z3DG4HK978","3LS2AMNW5HW2PV55A9APL4KPNJ3QOZ","model","match","uniform","","","","","","","903.5","177613.09999996424","178516.59999996424","[""stimuli/WF11_FO.jpg"",""stimuli/BM07_HE.jpg"",""stimuli/WF04_SC.jpg"",""stimuli/HF02_CC.jpg""]","stimuli/WF11_FO.jpg","stimuli/BM07_HE.jpg","stimuli/WF04_SC.jpg","stimuli/HF02_CC.jpg","pos3","stimuli/WF04_SC.jpg","SC","WF04","2","4","8","8","stimuli/stars_8.png","152","[""FO"",""HE"",""SC"",""CC""]","[""WF11"",""BM07"",""WF04"",""HF02""]","[4,2,8,5]","[4,2,8,6]","","",""
"show-reward","84","178620","0.0-84.0","p701506","AZ69TBTDH7AZS","3RDTX9JRTZ7MP6YQMJD0Z3DG4HK978","3LS2AMNW5HW2PV55A9APL4KPNJ3QOZ","model","match","uniform","","","","","","","","179018.39999997616","181027.69999998808","","","","","","","","","","","","8","","stimuli/stars_8.png","152","","","","","stimuli/WF04_SC.jpg","",""
"explore-choice","85","179990","0.0-85.0","p701506","AZ69TBTDH7AZS","3RDTX9JRTZ7MP6YQMJD0Z3DG4HK978","3LS2AMNW5HW2PV55A9APL4KPNJ3QOZ","model","match","uniform","","","","","","","867.8999999761581","181029.39999997616","181897.29999995232","[""stimuli/BM07_HE.jpg"",""stimuli/WF04_CC.jpg"",""stimuli/HF02_SC.jpg"",""stimuli/WF11_FO.jpg""]","stimuli/BM07_HE.jpg","stimuli/WF04_CC.jpg","stimuli/HF02_SC.jpg","stimuli/WF11_FO.jpg","pos2","stimuli/WF04_CC.jpg","CC","WF04","1","3.5","7","8","stimuli/stars_7.png","155.5","[""HE"",""CC"",""SC"",""FO""]","[""BM07"",""WF04"",""HF02"",""WF11""]","[2,7,7,4]","[2,8,6,4]","","",""
"show-reward","86","181997","0.0-86.0","p701506","AZ69TBTDH7AZS","3RDTX9JRTZ7MP6YQMJD0Z3DG4HK978","3LS2AMNW5HW2PV55A9APL4KPNJ3QOZ","model","match","uniform","","","","","","","","182399.19999998808","184404.29999995232","","","","","","","","","","","","7","","stimuli/stars_7.png","155.5","","","","","stimuli/WF04_CC.jpg","",""
"explore-choice","87","183372","0.0-87.0","p701506","AZ69TBTDH7AZS","3RDTX9JRTZ7MP6YQMJD0Z3DG4HK978","3LS2AMNW5HW2PV55A9APL4KPNJ3QOZ","model","match","uniform","","","","","","","872.3999999761581","184405.89999997616","185278.29999995232","[""stimuli/WF11_CC.jpg"",""stimuli/HF02_HE.jpg"",""stimuli/WF04_FO.jpg"",""stimuli/BM07_SC.jpg""]","stimuli/WF11_CC.jpg","stimuli/HF02_HE.jpg","stimuli/WF04_FO.jpg","stimuli/BM07_SC.jpg","pos3","stimuli/WF04_FO.jpg","FO","WF04","2","4.5","9","8","stimuli/stars_9.png","160","[""CC"",""HE"",""FO"",""SC""]","[""WF11"",""HF02"",""WF04"",""BM07""]","[4,6,9,0]","[4,6,8,2]","","",""
"show-reward","88","185383","0.0-88.0","p701506","AZ69TBTDH7AZS","3RDTX9JRTZ7MP6YQMJD0Z3DG4HK978","3LS2AMNW5HW2PV55A9APL4KPNJ3QOZ","model","match","uniform","","","","","","","","185781.39999997616","187790.59999996424","","","","","","","","","","","","9","","stimuli/stars_9.png","160","","","","","stimuli/WF04_FO.jpg","",""
"explore-choice","89","186728","0.0-89.0","p701506","AZ69TBTDH7AZS","3RDTX9JRTZ7MP6YQMJD0Z3DG4HK978","3LS2AMNW5HW2PV55A9APL4KPNJ3QOZ","model","match","uniform","","","","","","","842.1999999880791","187792.19999998808","188634.39999997616","[""stimuli/HF02_FO.jpg"",""stimuli/WF11_HE.jpg"",""stimuli/WF04_SC.jpg"",""stimuli/BM07_CC.jpg""]","stimuli/HF02_FO.jpg","stimuli/WF11_HE.jpg","stimuli/WF04_SC.jpg","stimuli/BM07_CC.jpg","pos3","stimuli/WF04_SC.jpg","SC","WF04","2","4.5","9","8","stimuli/stars_9.png","164.5","[""FO"",""HE"",""SC"",""CC""]","[""HF02"",""WF11"",""WF04"",""BM07""]","[6,3,9,4]","[6,4,8,2]","","",""
"show-reward","90","188735","0.0-90.0","p701506","AZ69TBTDH7AZS","3RDTX9JRTZ7MP6YQMJD0Z3DG4HK978","3LS2AMNW5HW2PV55A9APL4KPNJ3QOZ","model","match","uniform","","","","","","","","189136.89999997616","191142.39999997616","","","","","","","","","","","","9","","stimuli/stars_9.png","164.5","","","","","stimuli/WF04_SC.jpg","",""
"explore-choice","91","191174","0.0-91.0","p701506","AZ69TBTDH7AZS","3RDTX9JRTZ7MP6YQMJD0Z3DG4HK978","3LS2AMNW5HW2PV55A9APL4KPNJ3QOZ","model","match","uniform","","","","","","","1934.5999999642372","191144","193078.59999996424","[""stimuli/BM07_CC.jpg"",""stimuli/WF04_FO.jpg"",""stimuli/WF11_SC.jpg"",""stimuli/HF02_HE.jpg""]","stimuli/BM07_CC.jpg","stimuli/WF04_FO.jpg","stimuli/WF11_SC.jpg","stimuli/HF02_HE.jpg","pos2","stimuli/WF04_FO.jpg","FO","WF04","1","3.5","7","8","stimuli/stars_7.png","168","[""CC"",""FO"",""SC"",""HE""]","[""BM07"",""WF04"",""WF11"",""HF02""]","[4,7,6,7]","[2,8,4,6]","","",""
"show-reward","92","193186","0.0-92.0","p701506","AZ69TBTDH7AZS","3RDTX9JRTZ7MP6YQMJD0Z3DG4HK978","3LS2AMNW5HW2PV55A9APL4KPNJ3QOZ","model","match","uniform","","","","","","","","193583.09999996424","195593.09999996424","","","","","","","","","","","","7","","stimuli/stars_7.png","168","","","","","stimuli/WF04_FO.jpg","",""
"explore-choice","93","194498","0.0-93.0","p701506","AZ69TBTDH7AZS","3RDTX9JRTZ7MP6YQMJD0Z3DG4HK978","3LS2AMNW5HW2PV55A9APL4KPNJ3QOZ","model","match","uniform","","","","","","","805.8000000119209","195594.69999998808","196400.5","[""stimuli/BM07_CC.jpg"",""stimuli/WF04_HE.jpg"",""stimuli/WF11_SC.jpg"",""stimuli/HF02_FO.jpg""]","stimuli/BM07_CC.jpg","stimuli/WF04_HE.jpg","stimuli/WF11_SC.jpg","stimuli/HF02_FO.jpg","pos2","stimuli/WF04_HE.jpg","HE","WF04","1","3","6","8","stimuli/stars_6.png","171","[""CC"",""HE"",""SC"",""FO""]","[""BM07"",""WF04"",""WF11"",""HF02""]","[0,6,2,5]","[2,8,4,6]","","",""
"show-reward","94","196503","0.0-94.0","p701506","AZ69TBTDH7AZS","3RDTX9JRTZ7MP6YQMJD0Z3DG4HK978","3LS2AMNW5HW2PV55A9APL4KPNJ3QOZ","model","match","uniform","","","","","","","","196907.19999998808","198910.59999996424","","","","","","","","","","","","6","","stimuli/stars_6.png","171","","","","","stimuli/WF04_HE.jpg","",""
"explore-choice","95","198999","0.0-95.0","p701506","AZ69TBTDH7AZS","3RDTX9JRTZ7MP6YQMJD0Z3DG4HK978","3LS2AMNW5HW2PV55A9APL4KPNJ3QOZ","model","match","uniform","","","","","","","1989.800000011921","198912.29999995232","200902.09999996424","[""stimuli/BM07_CC.jpg"",""stimuli/WF11_FO.jpg"",""stimuli/HF02_SC.jpg"",""stimuli/WF04_HE.jpg""]","stimuli/BM07_CC.jpg","stimuli/WF11_FO.jpg","stimuli/HF02_SC.jpg","stimuli/WF04_HE.jpg","pos4","stimuli/WF04_HE.jpg","HE","WF04","3","3","6","8","stimuli/stars_6.png","174","[""CC"",""FO"",""SC"",""HE""]","[""BM07"",""WF11"",""HF02"",""WF04""]","[2,4,6,6]","[2,4,6,8]","","",""
"show-reward","96","201004","0.0-96.0","p701506","AZ69TBTDH7AZS","3RDTX9JRTZ7MP6YQMJD0Z3DG4HK978","3LS2AMNW5HW2PV55A9APL4KPNJ3QOZ","model","match","uniform","","","","","","","","201408.69999998808","203411.89999997616","","","","","","","","","","","","6","","stimuli/stars_6.png","174","","","","","stimuli/WF04_HE.jpg","",""
"explore-choice","97","203143","0.0-97.0","p701506","AZ69TBTDH7AZS","3RDTX9JRTZ7MP6YQMJD0Z3DG4HK978","3LS2AMNW5HW2PV55A9APL4KPNJ3QOZ","model","match","uniform","","","","","","","1632.3999999761581","203413.69999998808","205046.09999996424","[""stimuli/WF04_CC.jpg"",""stimuli/HF02_SC.jpg"",""stimuli/WF11_HE.jpg"",""stimuli/BM07_FO.jpg""]","stimuli/WF04_CC.jpg","stimuli/HF02_SC.jpg","stimuli/WF11_HE.jpg","stimuli/BM07_FO.jpg","pos1","stimuli/WF04_CC.jpg","CC","WF04","0","5","10","8","stimuli/stars_10.png","179","[""CC"",""SC"",""HE"",""FO""]","[""WF04"",""HF02"",""WF11"",""BM07""]","[10,8,5,3]","[8,6,4,2]","","",""
"show-reward","98","205149","0.0-98.0","p701506","AZ69TBTDH7AZS","3RDTX9JRTZ7MP6YQMJD0Z3DG4HK978","3LS2AMNW5HW2PV55A9APL4KPNJ3QOZ","model","match","uniform","","","","","","","","205552.39999997616","207556.5","","","","","","","","","","","","10","","stimuli/stars_10.png","179","","","","","stimuli/WF04_CC.jpg","",""
"explore-choice","99","207297","0.0-99.0","p701506","AZ69TBTDH7AZS","3RDTX9JRTZ7MP6YQMJD0Z3DG4HK978","3LS2AMNW5HW2PV55A9APL4KPNJ3QOZ","model","match","uniform","","","","","","","1643.699999988079","207558.19999998808","209201.89999997616","[""stimuli/BM07_CC.jpg"",""stimuli/HF02_SC.jpg"",""stimuli/WF11_HE.jpg"",""stimuli/WF04_FO.jpg""]","stimuli/BM07_CC.jpg","stimuli/HF02_SC.jpg","stimuli/WF11_HE.jpg","stimuli/WF04_FO.jpg","pos4","stimuli/WF04_FO.jpg","FO","WF04","3","4.5","9","8","stimuli/stars_9.png","183.5","[""CC"",""SC"",""HE"",""FO""]","[""BM07"",""HF02"",""WF11"",""WF04""]","[2,6,5,9]","[2,6,4,8]","","",""
"show-reward","100","209300","0.0-100.0","p701506","AZ69TBTDH7AZS","3RDTX9JRTZ7MP6YQMJD0Z3DG4HK978","3LS2AMNW5HW2PV55A9APL4KPNJ3QOZ","model","match","uniform","","","","","","","","209705.59999996424","211707.69999998808","","","","","","","","","","","","9","","stimuli/stars_9.png","183.5","","","","","stimuli/WF04_FO.jpg","",""
"explore-choice","101","210750","0.0-101.0","p701506","AZ69TBTDH7AZS","3RDTX9JRTZ7MP6YQMJD0Z3DG4HK978","3LS2AMNW5HW2PV55A9APL4KPNJ3QOZ","model","match","uniform","","","","","","","944.1000000238419","211709.39999997616","212653.5","[""stimuli/WF04_HE.jpg"",""stimuli/BM07_SC.jpg"",""stimuli/WF11_FO.jpg"",""stimuli/HF02_CC.jpg""]","stimuli/WF04_HE.jpg","stimuli/BM07_SC.jpg","stimuli/WF11_FO.jpg","stimuli/HF02_CC.jpg","pos1","stimuli/WF04_HE.jpg","HE","WF04","0","3.5","7","8","stimuli/stars_7.png","187","[""HE"",""SC"",""FO"",""CC""]","[""WF04"",""BM07"",""WF11"",""HF02""]","[7,2,2,8]","[8,2,4,6]","","",""
"show-reward","102","212761","0.0-102.0","p701506","AZ69TBTDH7AZS","3RDTX9JRTZ7MP6YQMJD0Z3DG4HK978","3LS2AMNW5HW2PV55A9APL4KPNJ3QOZ","model","match","uniform","","","","","","","","213160","215169.09999996424","","","","","","","","","","","","7","","stimuli/stars_7.png","187","","","","","stimuli/WF04_HE.jpg","",""
"explore-choice","103","218120","0.0-103.0","p701506","AZ69TBTDH7AZS","3RDTX9JRTZ7MP6YQMJD0Z3DG4HK978","3LS2AMNW5HW2PV55A9APL4KPNJ3QOZ","model","match","uniform","","","","","","","4857.400000035763","215170.79999995232","220028.19999998808","[""stimuli/WM07_SUR.jpg"",""stimuli/BM04_HO.jpg"",""stimuli/HF04_AO.jpg"",""stimuli/HF10_DO.jpg""]","stimuli/WM07_SUR.jpg","stimuli/BM04_HO.jpg","stimuli/HF04_AO.jpg","stimuli/HF10_DO.jpg","pos3","stimuli/HF04_AO.jpg","AO","HF04","2","2","4","2","stimuli/stars_4.png","189","[""SUR"",""HO"",""AO"",""DO""]","[""WM07"",""BM04"",""HF04"",""HF10""]","[2,6,4,8]","[4,8,2,6]","","",""
"show-reward","104","220128","0.0-104.0","p701506","AZ69TBTDH7AZS","3RDTX9JRTZ7MP6YQMJD0Z3DG4HK978","3LS2AMNW5HW2PV55A9APL4KPNJ3QOZ","model","match","uniform","","","","","","","","220529.5","222536","","","","","","","","","","","","4","","stimuli/stars_4.png","189","","","","","stimuli/HF04_AO.jpg","",""
"explore-choice","105","223140","0.0-105.0","p701506","AZ69TBTDH7AZS","3RDTX9JRTZ7MP6YQMJD0Z3DG4HK978","3LS2AMNW5HW2PV55A9APL4KPNJ3QOZ","model","match","uniform","","","","","","","2505.800000011921","222537.59999996424","225043.39999997616","[""stimuli/HF10_HO.jpg"",""stimuli/HF04_AO.jpg"",""stimuli/WM07_SUR.jpg"",""stimuli/BM04_DO.jpg""]","stimuli/HF10_HO.jpg","stimuli/HF04_AO.jpg","stimuli/WM07_SUR.jpg","stimuli/BM04_DO.jpg","pos1","stimuli/HF10_HO.jpg","HO","HF10","0","3.5","7","6","stimuli/stars_7.png","192.5","[""HO"",""AO"",""SUR"",""DO""]","[""HF10"",""HF04"",""WM07"",""BM04""]","[7,2,4,10]","[6,2,4,8]","","",""
"show-reward","106","225149","0.0-106.0","p701506","AZ69TBTDH7AZS","3RDTX9JRTZ7MP6YQMJD0Z3DG4HK978","3LS2AMNW5HW2PV55A9APL4KPNJ3QOZ","model","match","uniform","","","","","","","","225550.29999995232","227557","","","","","","","","","","","","7","","stimuli/stars_7.png","192.5","","","","","stimuli/HF10_HO.jpg","",""
"explore-choice","107","226730","0.0-107.0","p701506","AZ69TBTDH7AZS","3RDTX9JRTZ7MP6YQMJD0Z3DG4HK978","3LS2AMNW5HW2PV55A9APL4KPNJ3QOZ","model","match","uniform","","","","","","","1074.699999988079","227558.69999998808","228633.39999997616","[""stimuli/WM07_SUR.jpg"",""stimuli/HF04_HO.jpg"",""stimuli/BM04_DO.jpg"",""stimuli/HF10_AO.jpg""]","stimuli/WM07_SUR.jpg","stimuli/HF04_HO.jpg","stimuli/BM04_DO.jpg","stimuli/HF10_AO.jpg","pos4","stimuli/HF10_AO.jpg","AO","HF10","3","2","4","6","stimuli/stars_4.png","194.5","[""SUR"",""HO"",""DO"",""AO""]","[""WM07"",""HF04"",""BM04"",""HF10""]","[2,4,9,4]","[4,2,8,6]","","",""
"show-reward","108","228737","0.0-108.0","p701506","AZ69TBTDH7AZS","3RDTX9JRTZ7MP6YQMJD0Z3DG4HK978","3LS2AMNW5HW2PV55A9APL4KPNJ3QOZ","model","match","uniform","","","","","","","","229140","231146","","","","","","","","","","","","4","","stimuli/stars_4.png","194.5","","","","","stimuli/HF10_AO.jpg","",""
"explore-choice","109","230190","0.0-109.0","p701506","AZ69TBTDH7AZS","3RDTX9JRTZ7MP6YQMJD0Z3DG4HK978","3LS2AMNW5HW2PV55A9APL4KPNJ3QOZ","model","match","uniform","","","","","","","948.8000000119209","231147.19999998808","232096","[""stimuli/HF04_DO.jpg"",""stimuli/BM04_HO.jpg"",""stimuli/WM07_AO.jpg"",""stimuli/HF10_SUR.jpg""]","stimuli/HF04_DO.jpg","stimuli/BM04_HO.jpg","stimuli/WM07_AO.jpg","stimuli/HF10_SUR.jpg","pos4","stimuli/HF10_SUR.jpg","SUR","HF10","3","2","4","6","stimuli/stars_4.png","196.5","[""DO"",""HO"",""AO"",""SUR""]","[""HF04"",""BM04"",""WM07"",""HF10""]","[1,9,5,4]","[2,8,4,6]","","",""
"show-reward","110","232199","0.0-110.0","p701506","AZ69TBTDH7AZS","3RDTX9JRTZ7MP6YQMJD0Z3DG4HK978","3LS2AMNW5HW2PV55A9APL4KPNJ3QOZ","model","match","uniform","","","","","","","","232600.39999997616","234608","","","","","","","","","","","","4","","stimuli/stars_4.png","196.5","","","","","stimuli/HF10_SUR.jpg","",""
"explore-choice","111","234562","0.0-111.0","p701506","AZ69TBTDH7AZS","3RDTX9JRTZ7MP6YQMJD0Z3DG4HK978","3LS2AMNW5HW2PV55A9APL4KPNJ3QOZ","model","match","uniform","","","","","","","1860.5","234609.59999996424","236470.09999996424","[""stimuli/WM07_HO.jpg"",""stimuli/HF04_SUR.jpg"",""stimuli/BM04_DO.jpg"",""stimuli/HF10_AO.jpg""]","stimuli/WM07_HO.jpg","stimuli/HF04_SUR.jpg","stimuli/BM04_DO.jpg","stimuli/HF10_AO.jpg","pos1","stimuli/WM07_HO.jpg","HO","WM07","0","2.5","5","4","stimuli/stars_5.png","199","[""HO"",""SUR"",""DO"",""AO""]","[""WM07"",""HF04"",""BM04"",""HF10""]","[5,2,6,4]","[4,2,8,6]","","",""
"show-reward","112","236572","0.0-112.0","p701506","AZ69TBTDH7AZS","3RDTX9JRTZ7MP6YQMJD0Z3DG4HK978","3LS2AMNW5HW2PV55A9APL4KPNJ3QOZ","model","match","uniform","","","","","","","","236972.39999997616","238980.39999997616","","","","","","","","","","","","5","","stimuli/stars_5.png","199","","","","","stimuli/WM07_HO.jpg","",""
"explore-choice","113","238070","0.0-113.0","p701506","AZ69TBTDH7AZS","3RDTX9JRTZ7MP6YQMJD0Z3DG4HK978","3LS2AMNW5HW2PV55A9APL4KPNJ3QOZ","model","match","uniform","","","","","","","991.1999999880791","238982.39999997616","239973.59999996424","[""stimuli/WM07_HO.jpg"",""stimuli/HF04_DO.jpg"",""stimuli/HF10_AO.jpg"",""stimuli/BM04_SUR.jpg""]","stimuli/WM07_HO.jpg","stimuli/HF04_DO.jpg","stimuli/HF10_AO.jpg","stimuli/BM04_SUR.jpg","pos4","stimuli/BM04_SUR.jpg","SUR","BM04","3","4","8","8","stimuli/stars_8.png","203","[""HO"",""DO"",""AO"",""SUR""]","[""WM07"",""HF04"",""HF10"",""BM04""]","[2,1,4,8]","[4,2,6,8]","","",""
"show-reward","114","240079","0.0-114.0","p701506","AZ69TBTDH7AZS","3RDTX9JRTZ7MP6YQMJD0Z3DG4HK978","3LS2AMNW5HW2PV55A9APL4KPNJ3QOZ","model","match","uniform","","","","","","","","240480.09999996424","242488","","","","","","","","","","","","8","","stimuli/stars_8.png","203","","","","","stimuli/BM04_SUR.jpg","",""
"explore-choice","115","241596","0.0-115.0","p701506","AZ69TBTDH7AZS","3RDTX9JRTZ7MP6YQMJD0Z3DG4HK978","3LS2AMNW5HW2PV55A9APL4KPNJ3QOZ","model","match","uniform","","","","","","","1010.3999999761581","242489.69999998808","243500.09999996424","[""stimuli/WM07_AO.jpg"",""stimuli/BM04_DO.jpg"",""stimuli/HF10_SUR.jpg"",""stimuli/HF04_HO.jpg""]","stimuli/WM07_AO.jpg","stimuli/BM04_DO.jpg","stimuli/HF10_SUR.jpg","stimuli/HF04_HO.jpg","pos2","stimuli/BM04_DO.jpg","DO","BM04","1","3.5","7","8","stimuli/stars_7.png","206.5","[""AO"",""DO"",""SUR"",""HO""]","[""WM07"",""BM04"",""HF10"",""HF04""]","[3,7,6,2]","[4,8,6,2]","","",""
"show-reward","116","243602","0.0-116.0","p701506","AZ69TBTDH7AZS","3RDTX9JRTZ7MP6YQMJD0Z3DG4HK978","3LS2AMNW5HW2PV55A9APL4KPNJ3QOZ","model","match","uniform","","","","","","","","244006.79999995232","246010.5","","","","","","","","","","","","7","","stimuli/stars_7.png","206.5","","","","","stimuli/BM04_DO.jpg","",""
"explore-choice","117","245184","0.0-117.0","p701506","AZ69TBTDH7AZS","3RDTX9JRTZ7MP6YQMJD0Z3DG4HK978","3LS2AMNW5HW2PV55A9APL4KPNJ3QOZ","model","match","uniform","","","","","","","1075.5999999642372","246012.19999998808","247087.79999995232","[""stimuli/HF10_DO.jpg"",""stimuli/BM04_HO.jpg"",""stimuli/WM07_AO.jpg"",""stimuli/HF04_SUR.jpg""]","stimuli/HF10_DO.jpg","stimuli/BM04_HO.jpg","stimuli/WM07_AO.jpg","stimuli/HF04_SUR.jpg","pos2","stimuli/BM04_HO.jpg","HO","BM04","1","4","8","8","stimuli/stars_8.png","210.5","[""DO"",""HO"",""AO"",""SUR""]","[""HF10"",""BM04"",""WM07"",""HF04""]","[7,8,2,3]","[6,8,4,2]","","",""
"show-reward","118","247189","0.0-118.0","p701506","AZ69TBTDH7AZS","3RDTX9JRTZ7MP6YQMJD0Z3DG4HK978","3LS2AMNW5HW2PV55A9APL4KPNJ3QOZ","model","match","uniform","","","","","","","","247594.39999997616","249597.89999997616","","","","","","","","","","","","8","","stimuli/stars_8.png","210.5","","","","","stimuli/BM04_HO.jpg","",""
"explore-choice","119","248830","0.0-119.0","p701506","AZ69TBTDH7AZS","3RDTX9JRTZ7MP6YQMJD0Z3DG4HK978","3LS2AMNW5HW2PV55A9APL4KPNJ3QOZ","model","match","uniform","","","","","","","1138.300000011921","249599.69999998808","250738","[""stimuli/BM04_AO.jpg"",""stimuli/WM07_DO.jpg"",""stimuli/HF10_HO.jpg"",""stimuli/HF04_SUR.jpg""]","stimuli/BM04_AO.jpg","stimuli/WM07_DO.jpg","stimuli/HF10_HO.jpg","stimuli/HF04_SUR.jpg","pos1","stimuli/BM04_AO.jpg","AO","BM04","0","4.5","9","8","stimuli/stars_9.png","215","[""AO"",""DO"",""HO"",""SUR""]","[""BM04"",""WM07"",""HF10"",""HF04""]","[9,2,7,4]","[8,4,6,2]","","",""
"show-reward","120","250838","0.0-120.0","p701506","AZ69TBTDH7AZS","3RDTX9JRTZ7MP6YQMJD0Z3DG4HK978","3LS2AMNW5HW2PV55A9APL4KPNJ3QOZ","model","match","uniform","","","","","","","","251241.09999996424","253246.79999995232","","","","","","","","","","","","9","","stimuli/stars_9.png","215","","","","","stimuli/BM04_AO.jpg","",""
"explore-choice","121","252062","0.0-121.0","p701506","AZ69TBTDH7AZS","3RDTX9JRTZ7MP6YQMJD0Z3DG4HK978","3LS2AMNW5HW2PV55A9APL4KPNJ3QOZ","model","match","uniform","","","","","","","721.4000000357628","253248.59999996424","253970","[""stimuli/BM04_AO.jpg"",""stimuli/HF10_DO.jpg"",""stimuli/HF04_SUR.jpg"",""stimuli/WM07_HO.jpg""]","stimuli/BM04_AO.jpg","stimuli/HF10_DO.jpg","stimuli/HF04_SUR.jpg","stimuli/WM07_HO.jpg","pos1","stimuli/BM04_AO.jpg","AO","BM04","0","4.5","9","8","stimuli/stars_9.png","219.5","[""AO"",""DO"",""SUR"",""HO""]","[""BM04"",""HF10"",""HF04"",""WM07""]","[9,8,3,2]","[8,6,2,4]","","",""
"show-reward","122","254068","0.0-122.0","p701506","AZ69TBTDH7AZS","3RDTX9JRTZ7MP6YQMJD0Z3DG4HK978","3LS2AMNW5HW2PV55A9APL4KPNJ3QOZ","model","match","uniform","","","","","","","","254472.5","256477.19999998808","","","","","","","","","","","","9","","stimuli/stars_9.png","219.5","","","","","stimuli/BM04_AO.jpg","",""
"explore-choice","123","255393","0.0-123.0","p701506","AZ69TBTDH7AZS","3RDTX9JRTZ7MP6YQMJD0Z3DG4HK978","3LS2AMNW5HW2PV55A9APL4KPNJ3QOZ","model","match","uniform","","","","","","","823","256479","257302","[""stimuli/BM04_SUR.jpg"",""stimuli/HF10_HO.jpg"",""stimuli/HF04_DO.jpg"",""stimuli/WM07_AO.jpg""]","stimuli/BM04_SUR.jpg","stimuli/HF10_HO.jpg","stimuli/HF04_DO.jpg","stimuli/WM07_AO.jpg","pos1","stimuli/BM04_SUR.jpg","SUR","BM04","0","4","8","8","stimuli/stars_8.png","223.5","[""SUR"",""HO"",""DO"",""AO""]","[""BM04"",""HF10"",""HF04"",""WM07""]","[8,5,0,6]","[8,6,2,4]","","",""
"show-reward","124","257404","0.0-124.0","p701506","AZ69TBTDH7AZS","3RDTX9JRTZ7MP6YQMJD0Z3DG4HK978","3LS2AMNW5HW2PV55A9APL4KPNJ3QOZ","model","match","uniform","","","","","","","","257804.29999995232","259813","","","","","","","","","","","","8","","stimuli/stars_8.png","223.5","","","","","stimuli/BM04_SUR.jpg","",""
"explore-choice","125","259302","0.0-125.0","p701506","AZ69TBTDH7AZS","3RDTX9JRTZ7MP6YQMJD0Z3DG4HK978","3LS2AMNW5HW2PV55A9APL4KPNJ3QOZ","model","match","uniform","","","","","","","1391.5","259814.69999998808","261206.19999998808","[""stimuli/HF10_SUR.jpg"",""stimuli/WM07_HO.jpg"",""stimuli/HF04_AO.jpg"",""stimuli/BM04_DO.jpg""]","stimuli/HF10_SUR.jpg","stimuli/WM07_HO.jpg","stimuli/HF04_AO.jpg","stimuli/BM04_DO.jpg","pos4","stimuli/BM04_DO.jpg","DO","BM04","3","5","10","8","stimuli/stars_10.png","228.5","[""SUR"",""HO"",""AO"",""DO""]","[""HF10"",""WM07"",""HF04"",""BM04""]","[8,2,1,10]","[6,4,2,8]","","",""
"show-reward","126","261312","0.0-126.0","p701506","AZ69TBTDH7AZS","3RDTX9JRTZ7MP6YQMJD0Z3DG4HK978","3LS2AMNW5HW2PV55A9APL4KPNJ3QOZ","model","match","uniform","","","","","","","","261712.79999995232","263720.7999999523","","","","","","","","","","","","10","","stimuli/stars_10.png","228.5","","","","","stimuli/BM04_DO.jpg","",""
"explore-choice","127","262967","0.0-127.0","p701506","AZ69TBTDH7AZS","3RDTX9JRTZ7MP6YQMJD0Z3DG4HK978","3LS2AMNW5HW2PV55A9APL4KPNJ3QOZ","model","match","uniform","","","","","","","1149.6000000238419","263722.59999996424","264872.1999999881","[""stimuli/HF04_HO.jpg"",""stimuli/WM07_AO.jpg"",""stimuli/HF10_DO.jpg"",""stimuli/BM04_SUR.jpg""]","stimuli/HF04_HO.jpg","stimuli/WM07_AO.jpg","stimuli/HF10_DO.jpg","stimuli/BM04_SUR.jpg","pos4","stimuli/BM04_SUR.jpg","SUR","BM04","3","4.5","9","8","stimuli/stars_9.png","233","[""HO"",""AO"",""DO"",""SUR""]","[""HF04"",""WM07"",""HF10"",""BM04""]","[4,6,7,9]","[2,4,6,8]","","",""
"show-reward","128","264977","0.0-128.0","p701506","AZ69TBTDH7AZS","3RDTX9JRTZ7MP6YQMJD0Z3DG4HK978","3LS2AMNW5HW2PV55A9APL4KPNJ3QOZ","model","match","uniform","","","","","","","","265377.6999999881","267386.39999997616","","","","","","","","","","","","9","","stimuli/stars_9.png","233","","","","","stimuli/BM04_SUR.jpg","",""
"explore-choice","129","267838","0.0-129.0","p701506","AZ69TBTDH7AZS","3RDTX9JRTZ7MP6YQMJD0Z3DG4HK978","3LS2AMNW5HW2PV55A9APL4KPNJ3QOZ","model","match","uniform","","","","","","","2356.600000023842","267388.09999996424","269744.6999999881","[""stimuli/BM04_SUR.jpg"",""stimuli/WM07_HO.jpg"",""stimuli/HF10_DO.jpg"",""stimuli/HF04_AO.jpg""]","stimuli/BM04_SUR.jpg","stimuli/WM07_HO.jpg","stimuli/HF10_DO.jpg","stimuli/HF04_AO.jpg","pos1","stimuli/BM04_SUR.jpg","SUR","BM04","0","5","10","8","stimuli/stars_10.png","238","[""SUR"",""HO"",""DO"",""AO""]","[""BM04"",""WM07"",""HF10"",""HF04""]","[10,3,4,3]","[8,4,6,2]","","",""
"show-reward","130","269843","0.0-130.0","p701506","AZ69TBTDH7AZS","3RDTX9JRTZ7MP6YQMJD0Z3DG4HK978","3LS2AMNW5HW2PV55A9APL4KPNJ3QOZ","model","match","uniform","","","","","","","","270249.2999999523","272253","","","","","","","","","","","","10","","stimuli/stars_10.png","238","","","","","stimuli/BM04_SUR.jpg","",""
"explore-choice","131","272705","0.0-131.0","p701506","AZ69TBTDH7AZS","3RDTX9JRTZ7MP6YQMJD0Z3DG4HK978","3LS2AMNW5HW2PV55A9APL4KPNJ3QOZ","model","match","uniform","","","","","","","2355.699999988079","272254.59999996424","274610.2999999523","[""stimuli/HF10_AO.jpg"",""stimuli/WM07_DO.jpg"",""stimuli/BM04_SUR.jpg"",""stimuli/HF04_HO.jpg""]","stimuli/HF10_AO.jpg","stimuli/WM07_DO.jpg","stimuli/BM04_SUR.jpg","stimuli/HF04_HO.jpg","pos3","stimuli/BM04_SUR.jpg","SUR","BM04","2","4.5","9","8","stimuli/stars_9.png","242.5","[""AO"",""DO"",""SUR"",""HO""]","[""HF10"",""WM07"",""BM04"",""HF04""]","[8,2,9,1]","[6,4,8,2]","","",""
"show-reward","132","274711","0.0-132.0","p701506","AZ69TBTDH7AZS","3RDTX9JRTZ7MP6YQMJD0Z3DG4HK978","3LS2AMNW5HW2PV55A9APL4KPNJ3QOZ","model","match","uniform","","","","","","","","275117.09999996424","277121.09999996424","","","","","","","","","","","","9","","stimuli/stars_9.png","242.5","","","","","stimuli/BM04_SUR.jpg","",""
"explore-choice","133","276069","0.0-133.0","p701506","AZ69TBTDH7AZS","3RDTX9JRTZ7MP6YQMJD0Z3DG4HK978","3LS2AMNW5HW2PV55A9APL4KPNJ3QOZ","model","match","uniform","","","","","","","851.6000000238419","277122.7999999523","277974.39999997616","[""stimuli/HF04_HO.jpg"",""stimuli/WM07_SUR.jpg"",""stimuli/BM04_AO.jpg"",""stimuli/HF10_DO.jpg""]","stimuli/HF04_HO.jpg","stimuli/WM07_SUR.jpg","stimuli/BM04_AO.jpg","stimuli/HF10_DO.jpg","pos3","stimuli/BM04_AO.jpg","AO","BM04","2","5","10","8","stimuli/stars_10.png","247.5","[""HO"",""SUR"",""AO"",""DO""]","[""HF04"",""WM07"",""BM04"",""HF10""]","[3,3,10,8]","[2,4,8,6]","","",""
"show-reward","134","278079","0.0-134.0","p701506","AZ69TBTDH7AZS","3RDTX9JRTZ7MP6YQMJD0Z3DG4HK978","3LS2AMNW5HW2PV55A9APL4KPNJ3QOZ","model","match","uniform","","","","","","","","278481","280488.59999996424","","","","","","","","","","","","10","","stimuli/stars_10.png","247.5","","","","","stimuli/BM04_AO.jpg","",""
"explore-choice","135","279687","0.0-135.0","p701506","AZ69TBTDH7AZS","3RDTX9JRTZ7MP6YQMJD0Z3DG4HK978","3LS2AMNW5HW2PV55A9APL4KPNJ3QOZ","model","match","uniform","","","","","","","1104.0999999642372","280490.1999999881","281594.2999999523","[""stimuli/HF04_DO.jpg"",""stimuli/BM04_AO.jpg"",""stimuli/WM07_HO.jpg"",""stimuli/HF10_SUR.jpg""]","stimuli/HF04_DO.jpg","stimuli/BM04_AO.jpg","stimuli/WM07_HO.jpg","stimuli/HF10_SUR.jpg","pos4","stimuli/HF10_SUR.jpg","SUR","HF10","3","2.5","5","6","stimuli/stars_5.png","250","[""DO"",""AO"",""HO"",""SUR""]","[""HF04"",""BM04"",""WM07"",""HF10""]","[3,9,2,5]","[2,8,4,6]","","",""
"show-reward","136","281692","0.0-136.0","p701506","AZ69TBTDH7AZS","3RDTX9JRTZ7MP6YQMJD0Z3DG4HK978","3LS2AMNW5HW2PV55A9APL4KPNJ3QOZ","model","match","uniform","","","","","","","","282098.1999999881","284102","","","","","","","","","","","","5","","stimuli/stars_5.png","250","","","","","stimuli/HF10_SUR.jpg","",""
"explore-choice","137","284105","0.0-137.0","p701506","AZ69TBTDH7AZS","3RDTX9JRTZ7MP6YQMJD0Z3DG4HK978","3LS2AMNW5HW2PV55A9APL4KPNJ3QOZ","model","match","uniform","","","","","","","1906.8999999761581","284103.39999997616","286010.2999999523","[""stimuli/BM04_HO.jpg"",""stimuli/HF04_DO.jpg"",""stimuli/HF10_AO.jpg"",""stimuli/WM07_SUR.jpg""]","stimuli/BM04_HO.jpg","stimuli/HF04_DO.jpg","stimuli/HF10_AO.jpg","stimuli/WM07_SUR.jpg","pos1","stimuli/BM04_HO.jpg","HO","BM04","0","5","10","8","stimuli/stars_10.png","255","[""HO"",""DO"",""AO"",""SUR""]","[""BM04"",""HF04"",""HF10"",""WM07""]","[10,2,7,4]","[8,2,6,4]","","",""
"show-reward","138","286114","0.0-138.0","p701506","AZ69TBTDH7AZS","3RDTX9JRTZ7MP6YQMJD0Z3DG4HK978","3LS2AMNW5HW2PV55A9APL4KPNJ3QOZ","model","match","uniform","","","","","","","","286516.39999997616","288524.2999999523","","","","","","","","","","","","10","","stimuli/stars_10.png","255","","","","","stimuli/BM04_HO.jpg","",""
"explore-choice","139","287923","0.0-139.0","p701506","AZ69TBTDH7AZS","3RDTX9JRTZ7MP6YQMJD0Z3DG4HK978","3LS2AMNW5HW2PV55A9APL4KPNJ3QOZ","model","match","uniform","","","","","","","1304.300000011921","288525.7999999523","289830.09999996424","[""stimuli/HF04_AO.jpg"",""stimuli/HF10_HO.jpg"",""stimuli/BM04_SUR.jpg"",""stimuli/WM07_DO.jpg""]","stimuli/HF04_AO.jpg","stimuli/HF10_HO.jpg","stimuli/BM04_SUR.jpg","stimuli/WM07_DO.jpg","pos3","stimuli/BM04_SUR.jpg","SUR","BM04","2","4","8","8","stimuli/stars_8.png","259","[""AO"",""HO"",""SUR"",""DO""]","[""HF04"",""HF10"",""BM04"",""WM07""]","[4,6,8,4]","[2,6,8,4]","","",""
"show-reward","140","289928","0.0-140.0","p701506","AZ69TBTDH7AZS","3RDTX9JRTZ7MP6YQMJD0Z3DG4HK978","3LS2AMNW5HW2PV55A9APL4KPNJ3QOZ","model","match","uniform","","","","","","","","290334.5","292338.39999997616","","","","","","","","","","","","8","","stimuli/stars_8.png","259","","","","","stimuli/BM04_SUR.jpg","",""
"explore-choice","141","291402","0.0-141.0","p701506","AZ69TBTDH7AZS","3RDTX9JRTZ7MP6YQMJD0Z3DG4HK978","3LS2AMNW5HW2PV55A9APL4KPNJ3QOZ","model","match","uniform","","","","","","","971.8999999761581","292340","293311.89999997616","[""stimuli/HF10_HO.jpg"",""stimuli/BM04_AO.jpg"",""stimuli/WM07_SUR.jpg"",""stimuli/HF04_DO.jpg""]","stimuli/HF10_HO.jpg","stimuli/BM04_AO.jpg","stimuli/WM07_SUR.jpg","stimuli/HF04_DO.jpg","pos2","stimuli/BM04_AO.jpg","AO","BM04","1","3.5","7","8","stimuli/stars_7.png","262.5","[""HO"",""AO"",""SUR"",""DO""]","[""HF10"",""BM04"",""WM07"",""HF04""]","[8,7,6,2]","[6,8,4,2]","","",""
"show-reward","142","293411","0.0-142.0","p701506","AZ69TBTDH7AZS","3RDTX9JRTZ7MP6YQMJD0Z3DG4HK978","3LS2AMNW5HW2PV55A9APL4KPNJ3QOZ","model","match","uniform","","","","","","","","293813.5","295821.09999996424","","","","","","","","","","","","7","","stimuli/stars_7.png","262.5","","","","","stimuli/BM04_AO.jpg","",""
"explore-choice","143","294764","0.0-143.0","p701506","AZ69TBTDH7AZS","3RDTX9JRTZ7MP6YQMJD0Z3DG4HK978","3LS2AMNW5HW2PV55A9APL4KPNJ3QOZ","model","match","uniform","","","","","","","848.6999999880791","295823.09999996424","296671.7999999523","[""stimuli/BM04_HO.jpg"",""stimuli/HF10_SUR.jpg"",""stimuli/WM07_DO.jpg"",""stimuli/HF04_AO.jpg""]","stimuli/BM04_HO.jpg","stimuli/HF10_SUR.jpg","stimuli/WM07_DO.jpg","stimuli/HF04_AO.jpg","pos1","stimuli/BM04_HO.jpg","HO","BM04","0","4","8","8","stimuli/stars_8.png","266.5","[""HO"",""SUR"",""DO"",""AO""]","[""BM04"",""HF10"",""WM07"",""HF04""]","[8,4,2,3]","[8,6,4,2]","","",""
"show-reward","144","296769","0.0-144.0","p701506","AZ69TBTDH7AZS","3RDTX9JRTZ7MP6YQMJD0Z3DG4HK978","3LS2AMNW5HW2PV55A9APL4KPNJ3QOZ","model","match","uniform","","","","","","","","297175.7999999523","299179.1999999881","","","","","","","","","","","","8","","stimuli/stars_8.png","266.5","","","","","stimuli/BM04_HO.jpg","",""
"explore-choice","145","298265","0.0-145.0","p701506","AZ69TBTDH7AZS","3RDTX9JRTZ7MP6YQMJD0Z3DG4HK978","3LS2AMNW5HW2PV55A9APL4KPNJ3QOZ","model","match","uniform","","","","","","","989.5","299180.7999999523","300170.2999999523","[""stimuli/HF10_HO.jpg"",""stimuli/WM07_AO.jpg"",""stimuli/BM04_DO.jpg"",""stimuli/HF04_SUR.jpg""]","stimuli/HF10_HO.jpg","stimuli/WM07_AO.jpg","stimuli/BM04_DO.jpg","stimuli/HF04_SUR.jpg","pos3","stimuli/BM04_DO.jpg","DO","BM04","2","3","6","8","stimuli/stars_6.png","269.5","[""HO"",""AO"",""DO"",""SUR""]","[""HF10"",""WM07"",""BM04"",""HF04""]","[7,6,6,1]","[6,4,8,2]","","",""
"show-reward","146","300270","0.0-146.0","p701506","AZ69TBTDH7AZS","3RDTX9JRTZ7MP6YQMJD0Z3DG4HK978","3LS2AMNW5HW2PV55A9APL4KPNJ3QOZ","model","match","uniform","","","","","","","","300676.6999999881","302680.39999997616","","","","","","","","","","","","6","","stimuli/stars_6.png","269.5","","","","","stimuli/BM04_DO.jpg","",""
"explore-choice","147","301862","0.0-147.0","p701506","AZ69TBTDH7AZS","3RDTX9JRTZ7MP6YQMJD0Z3DG4HK978","3LS2AMNW5HW2PV55A9APL4KPNJ3QOZ","model","match","uniform","","","","","","","1085.5999999642372","302682","303767.59999996424","[""stimuli/HF10_SUR.jpg"",""stimuli/BM04_AO.jpg"",""stimuli/WM07_DO.jpg"",""stimuli/HF04_HO.jpg""]","stimuli/HF10_SUR.jpg","stimuli/BM04_AO.jpg","stimuli/WM07_DO.jpg","stimuli/HF04_HO.jpg","pos2","stimuli/BM04_AO.jpg","AO","BM04","1","4.5","9","8","stimuli/stars_9.png","274","[""SUR"",""AO"",""DO"",""HO""]","[""HF10"",""BM04"",""WM07"",""HF04""]","[7,9,6,2]","[6,8,4,2]","","",""
"show-reward","148","303867","0.0-148.0","p701506","AZ69TBTDH7AZS","3RDTX9JRTZ7MP6YQMJD0Z3DG4HK978","3LS2AMNW5HW2PV55A9APL4KPNJ3QOZ","model","match","uniform","","","","","","","","304274","306277.89999997616","","","","","","","","","","","","9","","stimuli/stars_9.png","274","","","","","stimuli/BM04_AO.jpg","",""
"explore-choice","149","305382","0.0-149.0","p701506","AZ69TBTDH7AZS","3RDTX9JRTZ7MP6YQMJD0Z3DG4HK978","3LS2AMNW5HW2PV55A9APL4KPNJ3QOZ","model","match","uniform","","","","","","","1012.3999999761581","306279.39999997616","307291.7999999523","[""stimuli/BM04_HO.jpg"",""stimuli/WM07_DO.jpg"",""stimuli/HF04_SUR.jpg"",""stimuli/HF10_AO.jpg""]","stimuli/BM04_HO.jpg","stimuli/WM07_DO.jpg","stimuli/HF04_SUR.jpg","stimuli/HF10_AO.jpg","pos1","stimuli/BM04_HO.jpg","HO","BM04","0","3","6","8","stimuli/stars_6.png","277","[""HO"",""DO"",""SUR"",""AO""]","[""BM04"",""WM07"",""HF04"",""HF10""]","[6,2,2,4]","[8,4,2,6]","","",""
"show-reward","150","307393","0.0-150.0","p701506","AZ69TBTDH7AZS","3RDTX9JRTZ7MP6YQMJD0Z3DG4HK978","3LS2AMNW5HW2PV55A9APL4KPNJ3QOZ","model","match","uniform","","","","","","","","307795.59999996424","309804","","","","","","","","","","","","6","","stimuli/stars_6.png","277","","","","","stimuli/BM04_HO.jpg","",""
"explore-choice","151","309080","0.0-151.0","p701506","AZ69TBTDH7AZS","3RDTX9JRTZ7MP6YQMJD0Z3DG4HK978","3LS2AMNW5HW2PV55A9APL4KPNJ3QOZ","model","match","uniform","","","","","","","1182.5","309805.59999996424","310988.09999996424","[""stimuli/HF04_HO.jpg"",""stimuli/HF10_SUR.jpg"",""stimuli/BM04_AO.jpg"",""stimuli/WM07_DO.jpg""]","stimuli/HF04_HO.jpg","stimuli/HF10_SUR.jpg","stimuli/BM04_AO.jpg","stimuli/WM07_DO.jpg","pos3","stimuli/BM04_AO.jpg","AO","BM04","2","4.5","9","8","stimuli/stars_9.png","281.5","[""HO"",""SUR"",""AO"",""DO""]","[""HF04"",""HF10"",""BM04"",""WM07""]","[2,7,9,6]","[2,6,8,4]","","",""
"show-reward","152","311085","0.0-152.0","p701506","AZ69TBTDH7AZS","3RDTX9JRTZ7MP6YQMJD0Z3DG4HK978","3LS2AMNW5HW2PV55A9APL4KPNJ3QOZ","model","match","uniform","","","","","","","","311492.5","313495.59999996424","","","","","","","","","","","","9","","stimuli/stars_9.png","281.5","","","","","stimuli/BM04_AO.jpg","",""
"explore-choice","153","313334","0.0-153.0","p701506","AZ69TBTDH7AZS","3RDTX9JRTZ7MP6YQMJD0Z3DG4HK978","3LS2AMNW5HW2PV55A9APL4KPNJ3QOZ","model","match","uniform","","","","","","","1743.6000000238419","313497.09999996424","315240.6999999881","[""stimuli/BM04_HO.jpg"",""stimuli/WM07_AO.jpg"",""stimuli/HF04_DO.jpg"",""stimuli/HF10_SUR.jpg""]","stimuli/BM04_HO.jpg","stimuli/WM07_AO.jpg","stimuli/HF04_DO.jpg","stimuli/HF10_SUR.jpg","pos1","stimuli/BM04_HO.jpg","HO","BM04","0","4.5","9","8","stimuli/stars_9.png","286","[""HO"",""AO"",""DO"",""SUR""]","[""BM04"",""WM07"",""HF04"",""HF10""]","[9,5,1,4]","[8,4,2,6]","","",""
"show-reward","154","315339","0.0-154.0","p701506","AZ69TBTDH7AZS","3RDTX9JRTZ7MP6YQMJD0Z3DG4HK978","3LS2AMNW5HW2PV55A9APL4KPNJ3QOZ","model","match","uniform","","","","","","","","315746.39999997616","317749.59999996424","","","","","","","","","","","","9","","stimuli/stars_9.png","286","","","","","stimuli/BM04_HO.jpg","",""
"explore-choice","155","316607","0.0-155.0","p701506","AZ69TBTDH7AZS","3RDTX9JRTZ7MP6YQMJD0Z3DG4HK978","3LS2AMNW5HW2PV55A9APL4KPNJ3QOZ","model","match","uniform","","","","","","","760.6000000238419","317751.59999996424","318512.1999999881","[""stimuli/BM04_SUR.jpg"",""stimuli/HF04_DO.jpg"",""stimuli/WM07_HO.jpg"",""stimuli/HF10_AO.jpg""]","stimuli/BM04_SUR.jpg","stimuli/HF04_DO.jpg","stimuli/WM07_HO.jpg","stimuli/HF10_AO.jpg","pos1","stimuli/BM04_SUR.jpg","SUR","BM04","0","4","8","8","stimuli/stars_8.png","290","[""SUR"",""DO"",""HO"",""AO""]","[""BM04"",""HF04"",""WM07"",""HF10""]","[8,1,2,4]","[8,2,4,6]","","",""
"show-reward","156","318616","0.0-156.0","p701506","AZ69TBTDH7AZS","3RDTX9JRTZ7MP6YQMJD0Z3DG4HK978","3LS2AMNW5HW2PV55A9APL4KPNJ3QOZ","model","match","uniform","","","","","","","","319018.89999997616","321026.7999999523","","","","","","","","","","","","8","","stimuli/stars_8.png","290","","","","","stimuli/BM04_SUR.jpg","",""
"explore-choice","157","320164","0.0-157.0","p701506","AZ69TBTDH7AZS","3RDTX9JRTZ7MP6YQMJD0Z3DG4HK978","3LS2AMNW5HW2PV55A9APL4KPNJ3QOZ","model","match","uniform","","","","","","","1045.5","321028.5","322074","[""stimuli/WM07_HO.jpg"",""stimuli/HF04_SUR.jpg"",""stimuli/BM04_DO.jpg"",""stimuli/HF10_AO.jpg""]","stimuli/WM07_HO.jpg","stimuli/HF04_SUR.jpg","stimuli/BM04_DO.jpg","stimuli/HF10_AO.jpg","pos3","stimuli/BM04_DO.jpg","DO","BM04","2","3","6","8","stimuli/stars_6.png","293","[""HO"",""SUR"",""DO"",""AO""]","[""WM07"",""HF04"",""BM04"",""HF10""]","[5,2,6,4]","[4,2,8,6]","","",""
"show-reward","158","322174","0.0-158.0","p701506","AZ69TBTDH7AZS","3RDTX9JRTZ7MP6YQMJD0Z3DG4HK978","3LS2AMNW5HW2PV55A9APL4KPNJ3QOZ","model","match","uniform","","","","","","","","322576.1999999881","324584.2999999523","","","","","","","","","","","","6","","stimuli/stars_6.png","293","","","","","stimuli/BM04_DO.jpg","",""
"explore-choice","159","323423","0.0-159.0","p701506","AZ69TBTDH7AZS","3RDTX9JRTZ7MP6YQMJD0Z3DG4HK978","3LS2AMNW5HW2PV55A9APL4KPNJ3QOZ","model","match","uniform","","","","","","","743.8000000119209","324586.1999999881","325330","[""stimuli/HF04_AO.jpg"",""stimuli/HF10_HO.jpg"",""stimuli/WM07_SUR.jpg"",""stimuli/BM04_DO.jpg""]","stimuli/HF04_AO.jpg","stimuli/HF10_HO.jpg","stimuli/WM07_SUR.jpg","stimuli/BM04_DO.jpg","pos4","stimuli/BM04_DO.jpg","DO","BM04","3","5","10","8","stimuli/stars_10.png","298","[""AO"",""HO"",""SUR"",""DO""]","[""HF04"",""HF10"",""WM07"",""BM04""]","[2,7,4,10]","[2,6,4,8]","","",""
"show-reward","160","325433","0.0-160.0","p701506","AZ69TBTDH7AZS","3RDTX9JRTZ7MP6YQMJD0Z3DG4HK978","3LS2AMNW5HW2PV55A9APL4KPNJ3QOZ","model","match","uniform","","","","","","","","325835.5","327843.59999996424","","","","","","","","","","","","10","","stimuli/stars_10.png","298","","","","","stimuli/BM04_DO.jpg","",""
"explore-choice","161","326925","0.0-161.0","p701506","AZ69TBTDH7AZS","3RDTX9JRTZ7MP6YQMJD0Z3DG4HK978","3LS2AMNW5HW2PV55A9APL4KPNJ3QOZ","model","match","uniform","","","","","","","986.1000000238419","327845.39999997616","328831.5","[""stimuli/BM04_DO.jpg"",""stimuli/HF04_AO.jpg"",""stimuli/HF10_SUR.jpg"",""stimuli/WM07_HO.jpg""]","stimuli/BM04_DO.jpg","stimuli/HF04_AO.jpg","stimuli/HF10_SUR.jpg","stimuli/WM07_HO.jpg","pos1","stimuli/BM04_DO.jpg","DO","BM04","0","5","10","8","stimuli/stars_10.png","303","[""DO"",""AO"",""SUR"",""HO""]","[""BM04"",""HF04"",""HF10"",""WM07""]","[10,1,8,2]","[8,2,6,4]","","",""
"show-reward","162","328935","0.0-162.0","p701506","AZ69TBTDH7AZS","3RDTX9JRTZ7MP6YQMJD0Z3DG4HK978","3LS2AMNW5HW2PV55A9APL4KPNJ3QOZ","model","match","uniform","","","","","","","","329338","331346","","","","","","","","","","","","10","","stimuli/stars_10.png","303","","","","","stimuli/BM04_DO.jpg","",""
"explore-choice","163","330343","0.0-163.0","p701506","AZ69TBTDH7AZS","3RDTX9JRTZ7MP6YQMJD0Z3DG4HK978","3LS2AMNW5HW2PV55A9APL4KPNJ3QOZ","model","match","uniform","","","","","","","902.3000000119209","331347.7999999523","332250.09999996424","[""stimuli/HF10_AO.jpg"",""stimuli/HF04_HO.jpg"",""stimuli/BM04_DO.jpg"",""stimuli/WM07_SUR.jpg""]","stimuli/HF10_AO.jpg","stimuli/HF04_HO.jpg","stimuli/BM04_DO.jpg","stimuli/WM07_SUR.jpg","pos3","stimuli/BM04_DO.jpg","DO","BM04","2","4.5","9","8","stimuli/stars_9.png","307.5","[""AO"",""HO"",""DO"",""SUR""]","[""HF10"",""HF04"",""BM04"",""WM07""]","[4,4,9,2]","[6,2,8,4]","","",""
"show-reward","164","332352","0.0-164.0","p701506","AZ69TBTDH7AZS","3RDTX9JRTZ7MP6YQMJD0Z3DG4HK978","3LS2AMNW5HW2PV55A9APL4KPNJ3QOZ","model","match","uniform","","","","","","","","332756.2999999523","334762.6999999881","","","","","","","","","","","","9","","stimuli/stars_9.png","307.5","","","","","stimuli/BM04_DO.jpg","",""
"explore-choice","165","333747","0.0-165.0","p701506","AZ69TBTDH7AZS","3RDTX9JRTZ7MP6YQMJD0Z3DG4HK978","3LS2AMNW5HW2PV55A9APL4KPNJ3QOZ","model","match","uniform","","","","","","","889.0999999642372","334764.5","335653.59999996424","[""stimuli/HF04_DO.jpg"",""stimuli/HF10_HO.jpg"",""stimuli/WM07_AO.jpg"",""stimuli/BM04_SUR.jpg""]","stimuli/HF04_DO.jpg","stimuli/HF10_HO.jpg","stimuli/WM07_AO.jpg","stimuli/BM04_SUR.jpg","pos4","stimuli/BM04_SUR.jpg","SUR","BM04","3","4","8","8","stimuli/stars_8.png","311.5","[""DO"",""HO"",""AO"",""SUR""]","[""HF04"",""HF10"",""WM07"",""BM04""]","[0,5,6,8]","[2,6,4,8]","","",""
"show-reward","166","335756","0.0-166.0","p701506","AZ69TBTDH7AZS","3RDTX9JRTZ7MP6YQMJD0Z3DG4HK978","3LS2AMNW5HW2PV55A9APL4KPNJ3QOZ","model","match","uniform","","","","","","","","336159.6999999881","338167.6999999881","","","","","","","","","","","","8","","stimuli/stars_8.png","311.5","","","","","stimuli/BM04_SUR.jpg","",""
"explore-choice","167","337070","0.0-167.0","p701506","AZ69TBTDH7AZS","3RDTX9JRTZ7MP6YQMJD0Z3DG4HK978","3LS2AMNW5HW2PV55A9APL4KPNJ3QOZ","model","match","uniform","","","","","","","811.6999999880791","338169.39999997616","338981.09999996424","[""stimuli/HF04_DO.jpg"",""stimuli/HF10_HO.jpg"",""stimuli/BM04_AO.jpg"",""stimuli/WM07_SUR.jpg""]","stimuli/HF04_DO.jpg","stimuli/HF10_HO.jpg","stimuli/BM04_AO.jpg","stimuli/WM07_SUR.jpg","pos3","stimuli/BM04_AO.jpg","AO","BM04","2","3.5","7","8","stimuli/stars_7.png","315","[""DO"",""HO"",""AO"",""SUR""]","[""HF04"",""HF10"",""BM04"",""WM07""]","[2,8,7,6]","[2,6,8,4]","","",""
"show-reward","168","339077","0.0-168.0","p701506","AZ69TBTDH7AZS","3RDTX9JRTZ7MP6YQMJD0Z3DG4HK978","3LS2AMNW5HW2PV55A9APL4KPNJ3QOZ","model","match","uniform","","","","","","","","339483","341488.1999999881","","","","","","","","","","","","7","","stimuli/stars_7.png","315","","","","","stimuli/BM04_AO.jpg","",""
"explore-choice","169","340421","0.0-169.0","p701506","AZ69TBTDH7AZS","3RDTX9JRTZ7MP6YQMJD0Z3DG4HK978","3LS2AMNW5HW2PV55A9APL4KPNJ3QOZ","model","match","uniform","","","","","","","837.8000000119209","341489.59999996424","342327.39999997616","[""stimuli/WM07_SUR.jpg"",""stimuli/BM04_AO.jpg"",""stimuli/HF04_HO.jpg"",""stimuli/HF10_DO.jpg""]","stimuli/WM07_SUR.jpg","stimuli/BM04_AO.jpg","stimuli/HF04_HO.jpg","stimuli/HF10_DO.jpg","pos2","stimuli/BM04_AO.jpg","AO","BM04","1","5","10","8","stimuli/stars_10.png","320","[""SUR"",""AO"",""HO"",""DO""]","[""WM07"",""BM04"",""HF04"",""HF10""]","[3,10,3,8]","[4,8,2,6]","","",""
"show-reward","170","342425","0.0-170.0","p701506","AZ69TBTDH7AZS","3RDTX9JRTZ7MP6YQMJD0Z3DG4HK978","3LS2AMNW5HW2PV55A9APL4KPNJ3QOZ","model","match","uniform","","","","","","","","342834","344837","","","","","","","","","","","","10","","stimuli/stars_10.png","320","","","","","stimuli/BM04_AO.jpg","",""
"explore-choice","171","345600","0.0-171.0","p701506","AZ69TBTDH7AZS","3RDTX9JRTZ7MP6YQMJD0Z3DG4HK978","3LS2AMNW5HW2PV55A9APL4KPNJ3QOZ","model","match","uniform","","","","","","","2672.5","344838.59999996424","347511.09999996424","[""stimuli/BM04_AO.jpg"",""stimuli/WM07_DO.jpg"",""stimuli/HF10_HO.jpg"",""stimuli/HF04_SUR.jpg""]","stimuli/BM04_AO.jpg","stimuli/WM07_DO.jpg","stimuli/HF10_HO.jpg","stimuli/HF04_SUR.jpg","pos1","stimuli/BM04_AO.jpg","AO","BM04","0","4.5","9","8","stimuli/stars_9.png","324.5","[""AO"",""DO"",""HO"",""SUR""]","[""BM04"",""WM07"",""HF10"",""HF04""]","[9,2,7,4]","[8,4,6,2]","","",""
"show-reward","172","347607","0.0-172.0","p701506","AZ69TBTDH7AZS","3RDTX9JRTZ7MP6YQMJD0Z3DG4HK978","3LS2AMNW5HW2PV55A9APL4KPNJ3QOZ","model","match","uniform","","","","","","","","348012.7999999523","350018.59999996424","","","","","","","","","","","","9","","stimuli/stars_9.png","324.5","","","","","stimuli/BM04_AO.jpg","",""
"explore-choice","173","349179","0.0-173.0","p701506","AZ69TBTDH7AZS","3RDTX9JRTZ7MP6YQMJD0Z3DG4HK978","3LS2AMNW5HW2PV55A9APL4KPNJ3QOZ","model","match","uniform","","","","","","","1065.3999999761581","350020.39999997616","351085.7999999523","[""stimuli/HF04_DO.jpg"",""stimuli/WM07_HO.jpg"",""stimuli/HF10_SUR.jpg"",""stimuli/BM04_AO.jpg""]","stimuli/HF04_DO.jpg","stimuli/WM07_HO.jpg","stimuli/HF10_SUR.jpg","stimuli/BM04_AO.jpg","pos4","stimuli/BM04_AO.jpg","AO","BM04","3","4.5","9","8","stimuli/stars_9.png","329","[""DO"",""HO"",""SUR"",""AO""]","[""HF04"",""WM07"",""HF10"",""BM04""]","[3,2,5,9]","[2,4,6,8]","","",""
"show-reward","174","351190","0.0-174.0","p701506","AZ69TBTDH7AZS","3RDTX9JRTZ7MP6YQMJD0Z3DG4HK978","3LS2AMNW5HW2PV55A9APL4KPNJ3QOZ","model","match","uniform","","","","","","","","351592.39999997616","353601.39999997616","","","","","","","","","","","","9","","stimuli/stars_9.png","329","","","","","stimuli/BM04_AO.jpg","",""
"explore-choice","175","352925","0.0-175.0","p701506","AZ69TBTDH7AZS","3RDTX9JRTZ7MP6YQMJD0Z3DG4HK978","3LS2AMNW5HW2PV55A9APL4KPNJ3QOZ","model","match","uniform","","","","","","","1228.9000000357628","353603.09999996424","354832","[""stimuli/HF10_DO.jpg"",""stimuli/BM04_HO.jpg"",""stimuli/HF04_AO.jpg"",""stimuli/WM07_SUR.jpg""]","stimuli/HF10_DO.jpg","stimuli/BM04_HO.jpg","stimuli/HF04_AO.jpg","stimuli/WM07_SUR.jpg","pos2","stimuli/BM04_HO.jpg","HO","BM04","1","3","6","8","stimuli/stars_6.png","332","[""DO"",""HO"",""AO"",""SUR""]","[""HF10"",""BM04"",""HF04"",""WM07""]","[8,6,4,2]","[6,8,2,4]","","",""
"show-reward","176","354936","0.0-176.0","p701506","AZ69TBTDH7AZS","3RDTX9JRTZ7MP6YQMJD0Z3DG4HK978","3LS2AMNW5HW2PV55A9APL4KPNJ3QOZ","model","match","uniform","","","","","","","","355338.1999999881","357347.1999999881","","","","","","","","","","","","6","","stimuli/stars_6.png","332","","","","","stimuli/BM04_HO.jpg","",""
"explore-choice","177","356393","0.0-177.0","p701506","AZ69TBTDH7AZS","3RDTX9JRTZ7MP6YQMJD0Z3DG4HK978","3LS2AMNW5HW2PV55A9APL4KPNJ3QOZ","model","match","uniform","","","","","","","955.8000000119209","357349.09999996424","358304.89999997616","[""stimuli/WM07_DO.jpg"",""stimuli/BM04_HO.jpg"",""stimuli/HF10_AO.jpg"",""stimuli/HF04_SUR.jpg""]","stimuli/WM07_DO.jpg","stimuli/BM04_HO.jpg","stimuli/HF10_AO.jpg","stimuli/HF04_SUR.jpg","pos2","stimuli/BM04_HO.jpg","HO","BM04","1","3","6","8","stimuli/stars_6.png","335","[""DO"",""HO"",""AO"",""SUR""]","[""WM07"",""BM04"",""HF10"",""HF04""]","[2,6,4,2]","[4,8,6,2]","","",""
"show-reward","178","358401","0.0-178.0","p701506","AZ69TBTDH7AZS","3RDTX9JRTZ7MP6YQMJD0Z3DG4HK978","3LS2AMNW5HW2PV55A9APL4KPNJ3QOZ","model","match","uniform","","","","","","","","358806.7999999523","360812.2999999523","","","","","","","","","","","","6","","stimuli/stars_6.png","335","","","","","stimuli/BM04_HO.jpg","",""
"explore-choice","179","361782","0.0-179.0","p701506","AZ69TBTDH7AZS","3RDTX9JRTZ7MP6YQMJD0Z3DG4HK978","3LS2AMNW5HW2PV55A9APL4KPNJ3QOZ","model","match","uniform","","","","","","","2878.099999964237","360814.6999999881","363692.7999999523","[""stimuli/HF10_HO.jpg"",""stimuli/HF04_AO.jpg"",""stimuli/BM04_SUR.jpg"",""stimuli/WM07_DO.jpg""]","stimuli/HF10_HO.jpg","stimuli/HF04_AO.jpg","stimuli/BM04_SUR.jpg","stimuli/WM07_DO.jpg","pos3","stimuli/BM04_SUR.jpg","SUR","BM04","2","4","8","8","stimuli/stars_8.png","339","[""HO"",""AO"",""SUR"",""DO""]","[""HF10"",""HF04"",""BM04"",""WM07""]","[6,4,8,4]","[6,2,8,4]","","",""
"show-reward","180","363788","0.0-180.0","p701506","AZ69TBTDH7AZS","3RDTX9JRTZ7MP6YQMJD0Z3DG4HK978","3LS2AMNW5HW2PV55A9APL4KPNJ3QOZ","model","match","uniform","","","","","","","","364195.6999999881","366199.7999999523","","","","","","","","","","","","8","","stimuli/stars_8.png","339","","","","","stimuli/BM04_SUR.jpg","",""
"explore-choice","181","365077","0.0-181.0","p701506","AZ69TBTDH7AZS","3RDTX9JRTZ7MP6YQMJD0Z3DG4HK978","3LS2AMNW5HW2PV55A9APL4KPNJ3QOZ","model","match","uniform","","","","","","","782.7999999523163","366201.5","366984.2999999523","[""stimuli/WM07_DO.jpg"",""stimuli/HF04_AO.jpg"",""stimuli/HF10_SUR.jpg"",""stimuli/BM04_HO.jpg""]","stimuli/WM07_DO.jpg","stimuli/HF04_AO.jpg","stimuli/HF10_SUR.jpg","stimuli/BM04_HO.jpg","pos4","stimuli/BM04_HO.jpg","HO","BM04","3","4","8","8","stimuli/stars_8.png","343","[""DO"",""AO"",""SUR"",""HO""]","[""WM07"",""HF04"",""HF10"",""BM04""]","[2,3,4,8]","[4,2,6,8]","","",""
"show-reward","182","367087","0.0-182.0","p701506","AZ69TBTDH7AZS","3RDTX9JRTZ7MP6YQMJD0Z3DG4HK978","3LS2AMNW5HW2PV55A9APL4KPNJ3QOZ","model","match","uniform","","","","","","","","367491","369498.7999999523","","","","","","","","","","","","8","","stimuli/stars_8.png","343","","","","","stimuli/BM04_HO.jpg","",""
"explore-choice","183","368483","0.0-183.0","p701506","AZ69TBTDH7AZS","3RDTX9JRTZ7MP6YQMJD0Z3DG4HK978","3LS2AMNW5HW2PV55A9APL4KPNJ3QOZ","model","match","uniform","","","","","","","893.8999999761581","369500.5","370394.39999997616","[""stimuli/BM04_SUR.jpg"",""stimuli/WM07_AO.jpg"",""stimuli/HF10_DO.jpg"",""stimuli/HF04_HO.jpg""]","stimuli/BM04_SUR.jpg","stimuli/WM07_AO.jpg","stimuli/HF10_DO.jpg","stimuli/HF04_HO.jpg","pos1","stimuli/BM04_SUR.jpg","SUR","BM04","0","4.5","9","8","stimuli/stars_9.png","347.5","[""SUR"",""AO"",""DO"",""HO""]","[""BM04"",""WM07"",""HF10"",""HF04""]","[9,6,7,4]","[8,4,6,2]","","",""
"show-reward","184","370492","0.0-184.0","p701506","AZ69TBTDH7AZS","3RDTX9JRTZ7MP6YQMJD0Z3DG4HK978","3LS2AMNW5HW2PV55A9APL4KPNJ3QOZ","model","match","uniform","","","","","","","","370896","372904.5","","","","","","","","","","","","9","","stimuli/stars_9.png","347.5","","","","","stimuli/BM04_SUR.jpg","",""
"explore-choice","185","371801","0.0-185.0","p701506","AZ69TBTDH7AZS","3RDTX9JRTZ7MP6YQMJD0Z3DG4HK978","3LS2AMNW5HW2PV55A9APL4KPNJ3QOZ","model","match","uniform","","","","","","","807","372906.09999996424","373713.09999996424","[""stimuli/HF04_HO.jpg"",""stimuli/BM04_DO.jpg"",""stimuli/HF10_SUR.jpg"",""stimuli/WM07_AO.jpg""]","stimuli/HF04_HO.jpg","stimuli/BM04_DO.jpg","stimuli/HF10_SUR.jpg","stimuli/WM07_AO.jpg","pos2","stimuli/BM04_DO.jpg","DO","BM04","1","3.5","7","8","stimuli/stars_7.png","351","[""HO"",""DO"",""SUR"",""AO""]","[""HF04"",""BM04"",""HF10"",""WM07""]","[2,7,6,3]","[2,8,6,4]","","",""
"show-reward","186","373810","0.0-186.0","p701506","AZ69TBTDH7AZS","3RDTX9JRTZ7MP6YQMJD0Z3DG4HK978","3LS2AMNW5HW2PV55A9APL4KPNJ3QOZ","model","match","uniform","","","","","","","","374214.89999997616","376222.5","","","","","","","","","","","","7","","stimuli/stars_7.png","351","","","","","stimuli/BM04_DO.jpg","",""
"explore-choice","187","375798","0.0-187.0","p701506","AZ69TBTDH7AZS","3RDTX9JRTZ7MP6YQMJD0Z3DG4HK978","3LS2AMNW5HW2PV55A9APL4KPNJ3QOZ","model","match","uniform","","","","","","","1481.0999999642372","376224.1999999881","377705.2999999523","[""stimuli/HF04_HO.jpg"",""stimuli/BM04_SUR.jpg"",""stimuli/HF10_AO.jpg"",""stimuli/WM07_DO.jpg""]","stimuli/HF04_HO.jpg","stimuli/BM04_SUR.jpg","stimuli/HF10_AO.jpg","stimuli/WM07_DO.jpg","pos2","stimuli/BM04_SUR.jpg","SUR","BM04","1","4.5","9","8","stimuli/stars_9.png","355.5","[""HO"",""SUR"",""AO"",""DO""]","[""HF04"",""BM04"",""HF10"",""WM07""]","[1,9,8,2]","[2,8,6,4]","","",""
"show-reward","188","377808","0.0-188.0","p701506","AZ69TBTDH7AZS","3RDTX9JRTZ7MP6YQMJD0Z3DG4HK978","3LS2AMNW5HW2PV55A9APL4KPNJ3QOZ","model","match","uniform","","","","","","","","378212.09999996424","380220.2999999523","","","","","","","","","","","","9","","stimuli/stars_9.png","355.5","","","","","stimuli/BM04_SUR.jpg","",""
"explore-choice","189","379277","0.0-189.0","p701506","AZ69TBTDH7AZS","3RDTX9JRTZ7MP6YQMJD0Z3DG4HK978","3LS2AMNW5HW2PV55A9APL4KPNJ3QOZ","model","match","uniform","","","","","","","962.8999999761581","380221.89999997616","381184.7999999523","[""stimuli/BM04_AO.jpg"",""stimuli/HF04_SUR.jpg"",""stimuli/HF10_DO.jpg"",""stimuli/WM07_HO.jpg""]","stimuli/BM04_AO.jpg","stimuli/HF04_SUR.jpg","stimuli/HF10_DO.jpg","stimuli/WM07_HO.jpg","pos1","stimuli/BM04_AO.jpg","AO","BM04","0","4.5","9","8","stimuli/stars_9.png","360","[""AO"",""SUR"",""DO"",""HO""]","[""BM04"",""HF04"",""HF10"",""WM07""]","[9,3,8,2]","[8,2,6,4]","","",""
"show-reward","190","381284","0.0-190.0","p701506","AZ69TBTDH7AZS","3RDTX9JRTZ7MP6YQMJD0Z3DG4HK978","3LS2AMNW5HW2PV55A9APL4KPNJ3QOZ","model","match","uniform","","","","","","","","381691.5","383696.1999999881","","","","","","","","","","","","9","","stimuli/stars_9.png","360","","","","","stimuli/BM04_AO.jpg","",""
"explore-choice","191","382792","0.0-191.0","p701506","AZ69TBTDH7AZS","3RDTX9JRTZ7MP6YQMJD0Z3DG4HK978","3LS2AMNW5HW2PV55A9APL4KPNJ3QOZ","model","match","uniform","","","","","","","1002.1999999880791","383697.89999997616","384700.09999996424","[""stimuli/HF10_HO.jpg"",""stimuli/HF04_SUR.jpg"",""stimuli/WM07_AO.jpg"",""stimuli/BM04_DO.jpg""]","stimuli/HF10_HO.jpg","stimuli/HF04_SUR.jpg","stimuli/WM07_AO.jpg","stimuli/BM04_DO.jpg","pos4","stimuli/BM04_DO.jpg","DO","BM04","3","3","6","8","stimuli/stars_6.png","363","[""HO"",""SUR"",""AO"",""DO""]","[""HF10"",""HF04"",""WM07"",""BM04""]","[7,1,6,6]","[6,2,4,8]","","",""
"show-reward","192","384798","0.0-192.0","p701506","AZ69TBTDH7AZS","3RDTX9JRTZ7MP6YQMJD0Z3DG4HK978","3LS2AMNW5HW2PV55A9APL4KPNJ3QOZ","model","match","uniform","","","","","","","","385206.5","387210.09999996424","","","","","","","","","","","","6","","stimuli/stars_6.png","363","","","","","stimuli/BM04_DO.jpg","",""
"explore-choice","193","386239","0.0-193.0","p701506","AZ69TBTDH7AZS","3RDTX9JRTZ7MP6YQMJD0Z3DG4HK978","3LS2AMNW5HW2PV55A9APL4KPNJ3QOZ","model","match","uniform","","","","","","","935.0999999642372","387211.5","388146.59999996424","[""stimuli/HF04_DO.jpg"",""stimuli/BM04_HO.jpg"",""stimuli/HF10_AO.jpg"",""stimuli/WM07_SUR.jpg""]","stimuli/HF04_DO.jpg","stimuli/BM04_HO.jpg","stimuli/HF10_AO.jpg","stimuli/WM07_SUR.jpg","pos2","stimuli/BM04_HO.jpg","HO","BM04","1","5","10","8","stimuli/stars_10.png","368","[""DO"",""HO"",""AO"",""SUR""]","[""HF04"",""BM04"",""HF10"",""WM07""]","[2,10,7,4]","[2,8,6,4]","","",""
"show-reward","194","388249","0.0-194.0","p701506","AZ69TBTDH7AZS","3RDTX9JRTZ7MP6YQMJD0Z3DG4HK978","3LS2AMNW5HW2PV55A9APL4KPNJ3QOZ","model","match","uniform","","","","","","","","388653.2999999523","390661.09999996424","","","","","","","","","","","","10","","stimuli/stars_10.png","368","","","","","stimuli/BM04_HO.jpg","",""
"explore-choice","195","389785","0.0-195.0","p701506","AZ69TBTDH7AZS","3RDTX9JRTZ7MP6YQMJD0Z3DG4HK978","3LS2AMNW5HW2PV55A9APL4KPNJ3QOZ","model","match","uniform","","","","","","","1029.5","390662.7999999523","391692.2999999523","[""stimuli/HF04_SUR.jpg"",""stimuli/WM07_AO.jpg"",""stimuli/BM04_HO.jpg"",""stimuli/HF10_DO.jpg""]","stimuli/HF04_SUR.jpg","stimuli/WM07_AO.jpg","stimuli/BM04_HO.jpg","stimuli/HF10_DO.jpg","pos3","stimuli/BM04_HO.jpg","HO","BM04","2","4","8","8","stimuli/stars_8.png","372","[""SUR"",""AO"",""HO"",""DO""]","[""HF04"",""WM07"",""BM04"",""HF10""]","[3,2,8,7]","[2,4,8,6]","","",""
"show-reward","196","391795","0.0-196.0","p701506","AZ69TBTDH7AZS","3RDTX9JRTZ7MP6YQMJD0Z3DG4HK978","3LS2AMNW5HW2PV55A9APL4KPNJ3QOZ","model","match","uniform","","","","","","","","392198.89999997616","394207.2999999523","","","","","","","","","","","","8","","stimuli/stars_8.png","372","","","","","stimuli/BM04_HO.jpg","",""
"explore-choice","197","393452","0.0-197.0","p701506","AZ69TBTDH7AZS","3RDTX9JRTZ7MP6YQMJD0Z3DG4HK978","3LS2AMNW5HW2PV55A9APL4KPNJ3QOZ","model","match","uniform","","","","","","","1155.4000000357628","394209.09999996424","395364.5","[""stimuli/HF10_DO.jpg"",""stimuli/BM04_SUR.jpg"",""stimuli/WM07_HO.jpg"",""stimuli/HF04_AO.jpg""]","stimuli/HF10_DO.jpg","stimuli/BM04_SUR.jpg","stimuli/WM07_HO.jpg","stimuli/HF04_AO.jpg","pos2","stimuli/BM04_SUR.jpg","SUR","BM04","1","5","10","8","stimuli/stars_10.png","377","[""DO"",""SUR"",""HO"",""AO""]","[""HF10"",""BM04"",""WM07"",""HF04""]","[4,10,3,3]","[6,8,4,2]","","",""
"show-reward","198","395462","0.0-198.0","p701506","AZ69TBTDH7AZS","3RDTX9JRTZ7MP6YQMJD0Z3DG4HK978","3LS2AMNW5HW2PV55A9APL4KPNJ3QOZ","model","match","uniform","","","","","","","","395866.39999997616","397874.1999999881","","","","","","","","","","","","10","","stimuli/stars_10.png","377","","","","","stimuli/BM04_SUR.jpg","",""
"instructions","199","400855","0.0-199.0","p701506","AZ69TBTDH7AZS","3RDTX9JRTZ7MP6YQMJD0Z3DG4HK978","3LS2AMNW5HW2PV55A9APL4KPNJ3QOZ","model","match","uniform","","","","","","[{""page_index"":0,""viewing_time"":5392.199999988079}]","5392.699999988079","","","","","","","","","","","","","","","","","","","","","","","",""
"survey-text","200","403267","0.0-200.0-0.0","p701506","AZ69TBTDH7AZS","3RDTX9JRTZ7MP6YQMJD0Z3DG4HK978","3LS2AMNW5HW2PV55A9APL4KPNJ3QOZ","model","match","uniform","","","","","","","2405.5","","","","","","","","","","","","","","","","","","","","","","","{""age"":""29""}",""
"survey-text","201","404954","0.0-200.0-1.0","p701506","AZ69TBTDH7AZS","3RDTX9JRTZ7MP6YQMJD0Z3DG4HK978","3LS2AMNW5HW2PV55A9APL4KPNJ3QOZ","model","match","uniform","","","","","","","1683.2999999523163","","","","","","","","","","","","","","","","","","","","","","","{""gender"":""male""}",""
"survey-text","202","407530","0.0-200.0-2.0","p701506","AZ69TBTDH7AZS","3RDTX9JRTZ7MP6YQMJD0Z3DG4HK978","3LS2AMNW5HW2PV55A9APL4KPNJ3QOZ","model","match","uniform","","","","","","","2572.199999988079","","","","","","","","","","","","","","","","","","","","","","","{""country"":""USA""}",""
"survey-text","203","410722","0.0-200.0-3.0","p701506","AZ69TBTDH7AZS","3RDTX9JRTZ7MP6YQMJD0Z3DG4HK978","3LS2AMNW5HW2PV55A9APL4KPNJ3QOZ","model","match","uniform","","","","","","","3186.900000035763","","","","","","","","","","","","","","","","","","","","","","","{""language"":""English"",""other_languages"":""""}",""
"survey-multi-select","204","416751","0.0-201.0","p701506","AZ69TBTDH7AZS","3RDTX9JRTZ7MP6YQMJD0Z3DG4HK978","3LS2AMNW5HW2PV55A9APL4KPNJ3QOZ","model","match","uniform","","","","","","","6018.899999976158","","","","","","","","","","","","","","","","","","","","","","","{""race"":[""White"",""Black or African American"",""Not listed""]}","[0]"
"survey-multi-choice","205","419122","0.0-202.0","p701506","AZ69TBTDH7AZS","3RDTX9JRTZ7MP6YQMJD0Z3DG4HK978","3LS2AMNW5HW2PV55A9APL4KPNJ3QOZ","model","match","uniform","","","","","","","2363.800000011921","","","","","","","","","","","","","","","","","","","","","","","{""education"":""Bachelor's degree""}","[0]"
"survey-text","206","462379","0.0-203.0","p701506","AZ69TBTDH7AZS","3RDTX9JRTZ7MP6YQMJD0Z3DG4HK978","3LS2AMNW5HW2PV55A9APL4KPNJ3QOZ","model","match","uniform","","","","","","","43243.30000001192","","","","","","","","","","","","","","","","","","","","","","","{""patterns"":""specific faces had similar general outcome"",""strategy"":""chose the specific faces with the highest probability and quantity of win"",""comments"":""""}",""
