"trial_type","trial_index","time_elapsed","internal_node_id","subject","workerId","hitId","assignmentId","structure_condition","match_condition","noise_type","success","timeout","failed_images","failed_audio","failed_video","view_history","rt","start_time","end_time","stimuli","image1","image2","image3","image4","choiceLocation","choiceImage","choiceEmotion","choiceModel","choice_index","reward_score","reward","reward_score_unadjusted","reward_image","score_after_trial","emotions","models","rewards","rewards_unadjusted","stimulus","response","question_order"
"pavlovia","0","27","0.0-0.0","p150745","AZ6DQHW7AFKPP","3S1L4CQSFYBD9IN1W8PCJQ1H8N7AFE","3KIBXJ1WD70GES7AX4QSPI8GOBKOKA","emotion","mismatch","uniform","","","","","","","","","","","","","","","","","","","","","","","","","","","","","","",""
"preload","1","45568","0.0-1.0","p150745","AZ6DQHW7AFKPP","3S1L4CQSFYBD9IN1W8PCJQ1H8N7AFE","3KIBXJ1WD70GES7AX4QSPI8GOBKOKA","emotion","mismatch","uniform","true","false","[]","[]","[]","","","","","","","","","","","","","","","","","","","","","","","","","",""
"fullscreen","2","70798","0.0-2.0","p150745","AZ6DQHW7AFKPP","3S1L4CQSFYBD9IN1W8PCJQ1H8N7AFE","3KIBXJ1WD70GES7AX4QSPI8GOBKOKA","emotion","mismatch","uniform","true","","","","","","","","","","","","","","","","","","","","","","","","","","","","","",""
"instructions","3","71890","0.0-3.0","p150745","AZ6DQHW7AFKPP","3S1L4CQSFYBD9IN1W8PCJQ1H8N7AFE","3KIBXJ1WD70GES7AX4QSPI8GOBKOKA","emotion","mismatch","uniform","","","","","","[{""page_index"":0,""viewing_time"":1088.699999988079}]","1089.4000000059605","","","","","","","","","","","","","","","","","","","","","","","",""
"explore-choice","4","76715","0.0-4.0","p150745","AZ6DQHW7AFKPP","3S1L4CQSFYBD9IN1W8PCJQ1H8N7AFE","3KIBXJ1WD70GES7AX4QSPI8GOBKOKA","emotion","mismatch","uniform","","","","","","","4320.700000017881","76202.09999999404","80522.80000001192","[""stimuli/sheep.jpg"",""stimuli/hammer.jpg"",""stimuli/basketball.jpg"",""stimuli/horse.jpg""]","stimuli/sheep.jpg","stimuli/hammer.jpg","stimuli/basketball.jpg","stimuli/horse.jpg","pos4","stimuli/horse.jpg","","","3","64","64","64","stimuli/stars_8.png","65","","","","","","",""
"explore-choice","5","79658","0.0-5.0","p150745","AZ6DQHW7AFKPP","3S1L4CQSFYBD9IN1W8PCJQ1H8N7AFE","3KIBXJ1WD70GES7AX4QSPI8GOBKOKA","emotion","mismatch","uniform","","","","","","","2440","81026","83466","[""stimuli/hammer.jpg"",""stimuli/basketball.jpg"",""stimuli/horse.jpg"",""stimuli/sheep.jpg""]","stimuli/hammer.jpg","stimuli/basketball.jpg","stimuli/horse.jpg","stimuli/sheep.jpg","pos1","stimuli/hammer.jpg","","","0","8","8","8","stimuli/stars_2.png","9","","","","","","",""
"instructions","6","80987","0.0-6.0","p150745","AZ6DQHW7AFKPP","3S1L4CQSFYBD9IN1W8PCJQ1H8N7AFE","3KIBXJ1WD70GES7AX4QSPI8GOBKOKA","emotion","mismatch","uniform","","","","","","[{""page_index"":0,""viewing_time"":1326.199999988079}]","1327.7999999821186","","","","","","","","","","","","","","","","","","","","","","","",""
"explore-choice","7","85123","0.0-7.0","p150745","AZ6DQHW7AFKPP","3S1L4CQSFYBD9IN1W8PCJQ1H8N7AFE","3KIBXJ1WD70GES7AX4QSPI8GOBKOKA","emotion","mismatch","uniform","","","","","","","3599.800000011921","85301.09999999404","88900.90000000596","[""stimuli/AM06_CC.jpg"",""stimuli/HF04_SUR.jpg"",""stimuli/WM11_AO.jpg"",""stimuli/HM07_SC.jpg""]","stimuli/AM06_CC.jpg","stimuli/HF04_SUR.jpg","stimuli/WM11_AO.jpg","stimuli/HM07_SC.jpg","pos4","stimuli/HM07_SC.jpg","SC","HM07","3","2","4","6","stimuli/stars_4.png","3","[""CC"",""SUR"",""AO"",""SC""]","[""AM06"",""HF04"",""WM11"",""HM07""]","[4,4,8,4]","[4,2,8,6]","","",""
"show-reward","8","87136","0.0-8.0","p150745","AZ6DQHW7AFKPP","3S1L4CQSFYBD9IN1W8PCJQ1H8N7AFE","3KIBXJ1WD70GES7AX4QSPI8GOBKOKA","emotion","mismatch","uniform","","","","","","","","89436","91445.80000001192","","","","","","","","","","","","4","","stimuli/stars_4.png","3","","","","","stimuli/HM07_SC.jpg","",""
"explore-choice","9","90312","0.0-9.0","p150745","AZ6DQHW7AFKPP","3S1L4CQSFYBD9IN1W8PCJQ1H8N7AFE","3KIBXJ1WD70GES7AX4QSPI8GOBKOKA","emotion","mismatch","uniform","","","","","","","2672.800000011921","91448","94120.80000001192","[""stimuli/HM07_SUR.jpg"",""stimuli/HF04_CC.jpg"",""stimuli/AM06_AO.jpg"",""stimuli/WM11_SC.jpg""]","stimuli/HM07_SUR.jpg","stimuli/HF04_CC.jpg","stimuli/AM06_AO.jpg","stimuli/WM11_SC.jpg","pos4","stimuli/WM11_SC.jpg","SC","WM11","3","3","6","6","stimuli/stars_6.png","6","[""SUR"",""CC"",""AO"",""SC""]","[""HM07"",""HF04"",""AM06"",""WM11""]","[2,6,6,6]","[2,4,8,6]","","",""
"show-reward","10","92325","0.0-10.0","p150745","AZ6DQHW7AFKPP","3S1L4CQSFYBD9IN1W8PCJQ1H8N7AFE","3KIBXJ1WD70GES7AX4QSPI8GOBKOKA","emotion","mismatch","uniform","","","","","","","","94624.69999998808","96633.30000001192","","","","","","","","","","","","6","","stimuli/stars_6.png","6","","","","","stimuli/WM11_SC.jpg","",""
"explore-choice","11","94521","0.0-11.0","p150745","AZ6DQHW7AFKPP","3S1L4CQSFYBD9IN1W8PCJQ1H8N7AFE","3KIBXJ1WD70GES7AX4QSPI8GOBKOKA","emotion","mismatch","uniform","","","","","","","1694.0999999940395","96636.59999999404","98330.69999998808","[""stimuli/WM11_AO.jpg"",""stimuli/HF04_CC.jpg"",""stimuli/HM07_SUR.jpg"",""stimuli/AM06_SC.jpg""]","stimuli/WM11_AO.jpg","stimuli/HF04_CC.jpg","stimuli/HM07_SUR.jpg","stimuli/AM06_SC.jpg","pos1","stimuli/WM11_AO.jpg","AO","WM11","0","3.5","7","8","stimuli/stars_7.png","9.5","[""AO"",""CC"",""SUR"",""SC""]","[""WM11"",""HF04"",""HM07"",""AM06""]","[7,6,0,7]","[8,4,2,6]","","",""
"show-reward","12","96539","0.0-12.0","p150745","AZ6DQHW7AFKPP","3S1L4CQSFYBD9IN1W8PCJQ1H8N7AFE","3KIBXJ1WD70GES7AX4QSPI8GOBKOKA","emotion","mismatch","uniform","","","","","","","","98832.80000001192","100848.69999998808","","","","","","","","","","","","7","","stimuli/stars_7.png","9.5","","","","","stimuli/WM11_AO.jpg","",""
"explore-choice","13","100537","0.0-13.0","p150745","AZ6DQHW7AFKPP","3S1L4CQSFYBD9IN1W8PCJQ1H8N7AFE","3KIBXJ1WD70GES7AX4QSPI8GOBKOKA","emotion","mismatch","uniform","","","","","","","3495.0999999940395","100850.59999999404","104345.69999998808","[""stimuli/HM07_CC.jpg"",""stimuli/AM06_SUR.jpg"",""stimuli/WM11_AO.jpg"",""stimuli/HF04_SC.jpg""]","stimuli/HM07_CC.jpg","stimuli/AM06_SUR.jpg","stimuli/WM11_AO.jpg","stimuli/HF04_SC.jpg","pos2","stimuli/AM06_SUR.jpg","SUR","AM06","1","1","2","2","stimuli/stars_2.png","10.5","[""CC"",""SUR"",""AO"",""SC""]","[""HM07"",""AM06"",""WM11"",""HF04""]","[4,2,10,8]","[4,2,8,6]","","",""
"show-reward","14","102545","0.0-14.0","p150745","AZ6DQHW7AFKPP","3S1L4CQSFYBD9IN1W8PCJQ1H8N7AFE","3KIBXJ1WD70GES7AX4QSPI8GOBKOKA","emotion","mismatch","uniform","","","","","","","","104848.90000000596","106855","","","","","","","","","","","","2","","stimuli/stars_2.png","10.5","","","","","stimuli/AM06_SUR.jpg","",""
"explore-choice","15","104781","0.0-15.0","p150745","AZ6DQHW7AFKPP","3S1L4CQSFYBD9IN1W8PCJQ1H8N7AFE","3KIBXJ1WD70GES7AX4QSPI8GOBKOKA","emotion","mismatch","uniform","","","","","","","1732.9000000059605","106856.40000000596","108589.30000001192","[""stimuli/HF04_SUR.jpg"",""stimuli/HM07_AO.jpg"",""stimuli/WM11_SC.jpg"",""stimuli/AM06_CC.jpg""]","stimuli/HF04_SUR.jpg","stimuli/HM07_AO.jpg","stimuli/WM11_SC.jpg","stimuli/AM06_CC.jpg","pos3","stimuli/WM11_SC.jpg","SC","WM11","2","2","4","6","stimuli/stars_4.png","12.5","[""SUR"",""AO"",""SC"",""CC""]","[""HF04"",""HM07"",""WM11"",""AM06""]","[4,8,4,2]","[2,8,6,4]","","",""
"show-reward","16","106785","0.0-16.0","p150745","AZ6DQHW7AFKPP","3S1L4CQSFYBD9IN1W8PCJQ1H8N7AFE","3KIBXJ1WD70GES7AX4QSPI8GOBKOKA","emotion","mismatch","uniform","","","","","","","","109092","111095.30000001192","","","","","","","","","","","","4","","stimuli/stars_4.png","12.5","","","","","stimuli/WM11_SC.jpg","",""
"explore-choice","17","108725","0.0-17.0","p150745","AZ6DQHW7AFKPP","3S1L4CQSFYBD9IN1W8PCJQ1H8N7AFE","3KIBXJ1WD70GES7AX4QSPI8GOBKOKA","emotion","mismatch","uniform","","","","","","","1435.8999999761581","111097.30000001192","112533.19999998808","[""stimuli/AM06_CC.jpg"",""stimuli/WM11_AO.jpg"",""stimuli/HM07_SUR.jpg"",""stimuli/HF04_SC.jpg""]","stimuli/AM06_CC.jpg","stimuli/WM11_AO.jpg","stimuli/HM07_SUR.jpg","stimuli/HF04_SC.jpg","pos4","stimuli/HF04_SC.jpg","SC","HF04","3","2.5","5","6","stimuli/stars_5.png","15","[""CC"",""AO"",""SUR"",""SC""]","[""AM06"",""WM11"",""HM07"",""HF04""]","[3,6,1,5]","[4,8,2,6]","","",""
"show-reward","18","110738","0.0-18.0","p150745","AZ6DQHW7AFKPP","3S1L4CQSFYBD9IN1W8PCJQ1H8N7AFE","3KIBXJ1WD70GES7AX4QSPI8GOBKOKA","emotion","mismatch","uniform","","","","","","","","113036.19999998808","115046.59999999404","","","","","","","","","","","","5","","stimuli/stars_5.png","15","","","","","stimuli/HF04_SC.jpg","",""
"explore-choice","19","112145","0.0-19.0","p150745","AZ6DQHW7AFKPP","3S1L4CQSFYBD9IN1W8PCJQ1H8N7AFE","3KIBXJ1WD70GES7AX4QSPI8GOBKOKA","emotion","mismatch","uniform","","","","","","","896.9000000059605","115056.69999998808","115953.59999999404","[""stimuli/HF04_SC.jpg"",""stimuli/HM07_SUR.jpg"",""stimuli/WM11_CC.jpg"",""stimuli/AM06_AO.jpg""]","stimuli/HF04_SC.jpg","stimuli/HM07_SUR.jpg","stimuli/WM11_CC.jpg","stimuli/AM06_AO.jpg","pos1","stimuli/HF04_SC.jpg","SC","HF04","0","2.5","5","6","stimuli/stars_5.png","17.5","[""SC"",""SUR"",""CC"",""AO""]","[""HF04"",""HM07"",""WM11"",""AM06""]","[5,3,6,7]","[6,2,4,8]","","",""
"show-reward","20","114154","0.0-20.0","p150745","AZ6DQHW7AFKPP","3S1L4CQSFYBD9IN1W8PCJQ1H8N7AFE","3KIBXJ1WD70GES7AX4QSPI8GOBKOKA","emotion","mismatch","uniform","","","","","","","","116456.80000001192","118464.09999999404","","","","","","","","","","","","5","","stimuli/stars_5.png","17.5","","","","","stimuli/HF04_SC.jpg","",""
"explore-choice","21","115803","0.0-21.0","p150745","AZ6DQHW7AFKPP","3S1L4CQSFYBD9IN1W8PCJQ1H8N7AFE","3KIBXJ1WD70GES7AX4QSPI8GOBKOKA","emotion","mismatch","uniform","","","","","","","1147.2000000178814","118465.19999998808","119612.40000000596","[""stimuli/HM07_AO.jpg"",""stimuli/HF04_SUR.jpg"",""stimuli/AM06_SC.jpg"",""stimuli/WM11_CC.jpg""]","stimuli/HM07_AO.jpg","stimuli/HF04_SUR.jpg","stimuli/AM06_SC.jpg","stimuli/WM11_CC.jpg","pos4","stimuli/WM11_CC.jpg","CC","WM11","3","1.5","3","4","stimuli/stars_3.png","19","[""AO"",""SUR"",""SC"",""CC""]","[""HM07"",""HF04"",""AM06"",""WM11""]","[9,2,5,3]","[8,2,6,4]","","",""
"show-reward","22","117809","0.0-22.0","p150745","AZ6DQHW7AFKPP","3S1L4CQSFYBD9IN1W8PCJQ1H8N7AFE","3KIBXJ1WD70GES7AX4QSPI8GOBKOKA","emotion","mismatch","uniform","","","","","","","","120114.90000000596","122119.19999998808","","","","","","","","","","","","3","","stimuli/stars_3.png","19","","","","","stimuli/WM11_CC.jpg","",""
"explore-choice","23","119369","0.0-23.0","p150745","AZ6DQHW7AFKPP","3S1L4CQSFYBD9IN1W8PCJQ1H8N7AFE","3KIBXJ1WD70GES7AX4QSPI8GOBKOKA","emotion","mismatch","uniform","","","","","","","1058.0999999940395","122120.59999999404","123178.69999998808","[""stimuli/HF04_SUR.jpg"",""stimuli/HM07_CC.jpg"",""stimuli/AM06_AO.jpg"",""stimuli/WM11_SC.jpg""]","stimuli/HF04_SUR.jpg","stimuli/HM07_CC.jpg","stimuli/AM06_AO.jpg","stimuli/WM11_SC.jpg","pos1","stimuli/HF04_SUR.jpg","SUR","HF04","0","0","0","2","stimuli/stars_0.png","19","[""SUR"",""CC"",""AO"",""SC""]","[""HF04"",""HM07"",""AM06"",""WM11""]","[0,6,8,5]","[2,4,8,6]","","",""
"show-reward","24","121386","0.0-24.0","p150745","AZ6DQHW7AFKPP","3S1L4CQSFYBD9IN1W8PCJQ1H8N7AFE","3KIBXJ1WD70GES7AX4QSPI8GOBKOKA","emotion","mismatch","uniform","","","","","","","","123680.30000001192","125695.80000001192","","","","","","","","","","","","0","","stimuli/stars_0.png","19","","","","","stimuli/HF04_SUR.jpg","",""
"explore-choice","25","122929","0.0-25.0","p150745","AZ6DQHW7AFKPP","3S1L4CQSFYBD9IN1W8PCJQ1H8N7AFE","3KIBXJ1WD70GES7AX4QSPI8GOBKOKA","emotion","mismatch","uniform","","","","","","","1025.9000000059605","125697.40000000596","126723.30000001192","[""stimuli/AM06_SUR.jpg"",""stimuli/HF04_SC.jpg"",""stimuli/WM11_CC.jpg"",""stimuli/HM07_AO.jpg""]","stimuli/AM06_SUR.jpg","stimuli/HF04_SC.jpg","stimuli/WM11_CC.jpg","stimuli/HM07_AO.jpg","pos4","stimuli/HM07_AO.jpg","AO","HM07","3","4.5","9","8","stimuli/stars_9.png","23.5","[""SUR"",""SC"",""CC"",""AO""]","[""AM06"",""HF04"",""WM11"",""HM07""]","[0,5,2,9]","[2,6,4,8]","","",""
"show-reward","26","124947","0.0-26.0","p150745","AZ6DQHW7AFKPP","3S1L4CQSFYBD9IN1W8PCJQ1H8N7AFE","3KIBXJ1WD70GES7AX4QSPI8GOBKOKA","emotion","mismatch","uniform","","","","","","","","127242.09999999404","129256.90000000596","","","","","","","","","","","","9","","stimuli/stars_9.png","23.5","","","","","stimuli/HM07_AO.jpg","",""
"explore-choice","27","126490","0.0-27.0","p150745","AZ6DQHW7AFKPP","3S1L4CQSFYBD9IN1W8PCJQ1H8N7AFE","3KIBXJ1WD70GES7AX4QSPI8GOBKOKA","emotion","mismatch","uniform","","","","","","","1040","129258.09999999404","130298.09999999404","[""stimuli/HF04_AO.jpg"",""stimuli/HM07_SC.jpg"",""stimuli/WM11_CC.jpg"",""stimuli/AM06_SUR.jpg""]","stimuli/HF04_AO.jpg","stimuli/HM07_SC.jpg","stimuli/WM11_CC.jpg","stimuli/AM06_SUR.jpg","pos4","stimuli/AM06_SUR.jpg","SUR","AM06","3","0","0","2","stimuli/stars_0.png","23.5","[""AO"",""SC"",""CC"",""SUR""]","[""HF04"",""HM07"",""WM11"",""AM06""]","[9,4,2,0]","[8,6,4,2]","","",""
"show-reward","28","128495","0.0-28.0","p150745","AZ6DQHW7AFKPP","3S1L4CQSFYBD9IN1W8PCJQ1H8N7AFE","3KIBXJ1WD70GES7AX4QSPI8GOBKOKA","emotion","mismatch","uniform","","","","","","","","130801.59999999404","132804.59999999404","","","","","","","","","","","","0","","stimuli/stars_0.png","23.5","","","","","stimuli/AM06_SUR.jpg","",""
"explore-choice","29","129801","0.0-29.0","p150745","AZ6DQHW7AFKPP","3S1L4CQSFYBD9IN1W8PCJQ1H8N7AFE","3KIBXJ1WD70GES7AX4QSPI8GOBKOKA","emotion","mismatch","uniform","","","","","","","801.3000000119209","132807","133608.30000001192","[""stimuli/WM11_AO.jpg"",""stimuli/HF04_CC.jpg"",""stimuli/AM06_SUR.jpg"",""stimuli/HM07_SC.jpg""]","stimuli/WM11_AO.jpg","stimuli/HF04_CC.jpg","stimuli/AM06_SUR.jpg","stimuli/HM07_SC.jpg","pos3","stimuli/AM06_SUR.jpg","SUR","AM06","2","2","4","2","stimuli/stars_4.png","25.5","[""AO"",""CC"",""SUR"",""SC""]","[""WM11"",""HF04"",""AM06"",""HM07""]","[7,2,4,7]","[8,4,2,6]","","",""
"show-reward","30","131806","0.0-30.0","p150745","AZ6DQHW7AFKPP","3S1L4CQSFYBD9IN1W8PCJQ1H8N7AFE","3KIBXJ1WD70GES7AX4QSPI8GOBKOKA","emotion","mismatch","uniform","","","","","","","","134110.80000001192","136114.09999999404","","","","","","","","","","","","4","","stimuli/stars_4.png","25.5","","","","","stimuli/AM06_SUR.jpg","",""
"explore-choice","31","133642","0.0-31.0","p150745","AZ6DQHW7AFKPP","3S1L4CQSFYBD9IN1W8PCJQ1H8N7AFE","3KIBXJ1WD70GES7AX4QSPI8GOBKOKA","emotion","mismatch","uniform","","","","","","","1331.9000000059605","136116.19999998808","137448.09999999404","[""stimuli/WM11_SUR.jpg"",""stimuli/AM06_CC.jpg"",""stimuli/HM07_SC.jpg"",""stimuli/HF04_AO.jpg""]","stimuli/WM11_SUR.jpg","stimuli/AM06_CC.jpg","stimuli/HM07_SC.jpg","stimuli/HF04_AO.jpg","pos4","stimuli/HF04_AO.jpg","AO","HF04","3","5","10","8","stimuli/stars_10.png","30.5","[""SUR"",""CC"",""SC"",""AO""]","[""WM11"",""AM06"",""HM07"",""HF04""]","[4,2,4,10]","[2,4,6,8]","","",""
"show-reward","32","135647","0.0-32.0","p150745","AZ6DQHW7AFKPP","3S1L4CQSFYBD9IN1W8PCJQ1H8N7AFE","3KIBXJ1WD70GES7AX4QSPI8GOBKOKA","emotion","mismatch","uniform","","","","","","","","137952.09999999404","139955.69999998808","","","","","","","","","","","","10","","stimuli/stars_10.png","30.5","","","","","stimuli/HF04_AO.jpg","",""
"explore-choice","33","137359","0.0-33.0","p150745","AZ6DQHW7AFKPP","3S1L4CQSFYBD9IN1W8PCJQ1H8N7AFE","3KIBXJ1WD70GES7AX4QSPI8GOBKOKA","emotion","mismatch","uniform","","","","","","","1204.9000000059605","139957","141161.90000000596","[""stimuli/HM07_SC.jpg"",""stimuli/AM06_AO.jpg"",""stimuli/WM11_SUR.jpg"",""stimuli/HF04_CC.jpg""]","stimuli/HM07_SC.jpg","stimuli/AM06_AO.jpg","stimuli/WM11_SUR.jpg","stimuli/HF04_CC.jpg","pos3","stimuli/WM11_SUR.jpg","SUR","WM11","2","1.5","3","2","stimuli/stars_3.png","32","[""SC"",""AO"",""SUR"",""CC""]","[""HM07"",""AM06"",""WM11"",""HF04""]","[6,6,3,3]","[6,8,2,4]","","",""
"show-reward","34","139366","0.0-34.0","p150745","AZ6DQHW7AFKPP","3S1L4CQSFYBD9IN1W8PCJQ1H8N7AFE","3KIBXJ1WD70GES7AX4QSPI8GOBKOKA","emotion","mismatch","uniform","","","","","","","","141668.59999999404","143673.5","","","","","","","","","","","","3","","stimuli/stars_3.png","32","","","","","stimuli/WM11_SUR.jpg","",""
"explore-choice","35","140811","0.0-35.0","p150745","AZ6DQHW7AFKPP","3S1L4CQSFYBD9IN1W8PCJQ1H8N7AFE","3KIBXJ1WD70GES7AX4QSPI8GOBKOKA","emotion","mismatch","uniform","","","","","","","940.5","143676.59999999404","144617.09999999404","[""stimuli/AM06_CC.jpg"",""stimuli/HF04_SC.jpg"",""stimuli/HM07_AO.jpg"",""stimuli/WM11_SUR.jpg""]","stimuli/AM06_CC.jpg","stimuli/HF04_SC.jpg","stimuli/HM07_AO.jpg","stimuli/WM11_SUR.jpg","pos4","stimuli/WM11_SUR.jpg","SUR","WM11","3","0","0","2","stimuli/stars_0.png","32","[""CC"",""SC"",""AO"",""SUR""]","[""AM06"",""HF04"",""HM07"",""WM11""]","[4,7,9,0]","[4,6,8,2]","","",""
"show-reward","36","142821","0.0-36.0","p150745","AZ6DQHW7AFKPP","3S1L4CQSFYBD9IN1W8PCJQ1H8N7AFE","3KIBXJ1WD70GES7AX4QSPI8GOBKOKA","emotion","mismatch","uniform","","","","","","","","145121.19999998808","147129","","","","","","","","","","","","0","","stimuli/stars_0.png","32","","","","","stimuli/WM11_SUR.jpg","",""
"explore-choice","37","144433","0.0-37.0","p150745","AZ6DQHW7AFKPP","3S1L4CQSFYBD9IN1W8PCJQ1H8N7AFE","3KIBXJ1WD70GES7AX4QSPI8GOBKOKA","emotion","mismatch","uniform","","","","","","","1107.1000000238419","147131.19999998808","148238.30000001192","[""stimuli/AM06_AO.jpg"",""stimuli/WM11_SUR.jpg"",""stimuli/HF04_SC.jpg"",""stimuli/HM07_CC.jpg""]","stimuli/AM06_AO.jpg","stimuli/WM11_SUR.jpg","stimuli/HF04_SC.jpg","stimuli/HM07_CC.jpg","pos3","stimuli/HF04_SC.jpg","SC","HF04","2","3.5","7","6","stimuli/stars_7.png","35.5","[""AO"",""SUR"",""SC"",""CC""]","[""AM06"",""WM11"",""HF04"",""HM07""]","[7,2,7,3]","[8,2,6,4]","","",""
"show-reward","38","146443","0.0-38.0","p150745","AZ6DQHW7AFKPP","3S1L4CQSFYBD9IN1W8PCJQ1H8N7AFE","3KIBXJ1WD70GES7AX4QSPI8GOBKOKA","emotion","mismatch","uniform","","","","","","","","148743.19999998808","150750.59999999404","","","","","","","","","","","","7","","stimuli/stars_7.png","35.5","","","","","stimuli/HF04_SC.jpg","",""
"explore-choice","39","148522","0.0-39.0","p150745","AZ6DQHW7AFKPP","3S1L4CQSFYBD9IN1W8PCJQ1H8N7AFE","3KIBXJ1WD70GES7AX4QSPI8GOBKOKA","emotion","mismatch","uniform","","","","","","","1576.5999999940395","150752.40000000596","152329","[""stimuli/HF04_AO.jpg"",""stimuli/AM06_SUR.jpg"",""stimuli/HM07_CC.jpg"",""stimuli/WM11_SC.jpg""]","stimuli/HF04_AO.jpg","stimuli/AM06_SUR.jpg","stimuli/HM07_CC.jpg","stimuli/WM11_SC.jpg","pos1","stimuli/HF04_AO.jpg","AO","HF04","0","4","8","8","stimuli/stars_8.png","39.5","[""AO"",""SUR"",""CC"",""SC""]","[""HF04"",""AM06"",""HM07"",""WM11""]","[8,1,3,7]","[8,2,4,6]","","",""
"show-reward","40","150527","0.0-40.0","p150745","AZ6DQHW7AFKPP","3S1L4CQSFYBD9IN1W8PCJQ1H8N7AFE","3KIBXJ1WD70GES7AX4QSPI8GOBKOKA","emotion","mismatch","uniform","","","","","","","","152831.90000000596","154835.30000001192","","","","","","","","","","","","8","","stimuli/stars_8.png","39.5","","","","","stimuli/HF04_AO.jpg","",""
"explore-choice","41","152890","0.0-41.0","p150745","AZ6DQHW7AFKPP","3S1L4CQSFYBD9IN1W8PCJQ1H8N7AFE","3KIBXJ1WD70GES7AX4QSPI8GOBKOKA","emotion","mismatch","uniform","","","","","","","1861.0999999940395","154837.09999999404","156698.19999998808","[""stimuli/HF04_CC.jpg"",""stimuli/HM07_AO.jpg"",""stimuli/AM06_SC.jpg"",""stimuli/WM11_SUR.jpg""]","stimuli/HF04_CC.jpg","stimuli/HM07_AO.jpg","stimuli/AM06_SC.jpg","stimuli/WM11_SUR.jpg","pos4","stimuli/WM11_SUR.jpg","SUR","WM11","3","0.5","1","2","stimuli/stars_1.png","40","[""CC"",""AO"",""SC"",""SUR""]","[""HF04"",""HM07"",""AM06"",""WM11""]","[2,10,7,1]","[4,8,6,2]","","",""
"show-reward","42","154895","0.0-42.0","p150745","AZ6DQHW7AFKPP","3S1L4CQSFYBD9IN1W8PCJQ1H8N7AFE","3KIBXJ1WD70GES7AX4QSPI8GOBKOKA","emotion","mismatch","uniform","","","","","","","","157200","159203.30000001192","","","","","","","","","","","","1","","stimuli/stars_1.png","40","","","","","stimuli/WM11_SUR.jpg","",""
"explore-choice","43","158304","0.0-43.0","p150745","AZ6DQHW7AFKPP","3S1L4CQSFYBD9IN1W8PCJQ1H8N7AFE","3KIBXJ1WD70GES7AX4QSPI8GOBKOKA","emotion","mismatch","uniform","","","","","","","2904.300000011921","159206","162110.30000001192","[""stimuli/WM11_AO.jpg"",""stimuli/HM07_CC.jpg"",""stimuli/HF04_SUR.jpg"",""stimuli/AM06_SC.jpg""]","stimuli/WM11_AO.jpg","stimuli/HM07_CC.jpg","stimuli/HF04_SUR.jpg","stimuli/AM06_SC.jpg","pos3","stimuli/HF04_SUR.jpg","SUR","HF04","2","0.5","1","2","stimuli/stars_1.png","40.5","[""AO"",""CC"",""SUR"",""SC""]","[""WM11"",""HM07"",""HF04"",""AM06""]","[9,4,1,5]","[8,4,2,6]","","",""
"show-reward","44","160309","0.0-44.0","p150745","AZ6DQHW7AFKPP","3S1L4CQSFYBD9IN1W8PCJQ1H8N7AFE","3KIBXJ1WD70GES7AX4QSPI8GOBKOKA","emotion","mismatch","uniform","","","","","","","","162613.40000000596","164617.19999998808","","","","","","","","","","","","1","","stimuli/stars_1.png","40.5","","","","","stimuli/HF04_SUR.jpg","",""
"explore-choice","45","162072","0.0-45.0","p150745","AZ6DQHW7AFKPP","3S1L4CQSFYBD9IN1W8PCJQ1H8N7AFE","3KIBXJ1WD70GES7AX4QSPI8GOBKOKA","emotion","mismatch","uniform","","","","","","","1258.9000000059605","164619.5","165878.40000000596","[""stimuli/AM06_SC.jpg"",""stimuli/HM07_SUR.jpg"",""stimuli/WM11_CC.jpg"",""stimuli/HF04_AO.jpg""]","stimuli/AM06_SC.jpg","stimuli/HM07_SUR.jpg","stimuli/WM11_CC.jpg","stimuli/HF04_AO.jpg","pos4","stimuli/HF04_AO.jpg","AO","HF04","3","4.5","9","8","stimuli/stars_9.png","45","[""SC"",""SUR"",""CC"",""AO""]","[""AM06"",""HM07"",""WM11"",""HF04""]","[8,2,3,9]","[6,2,4,8]","","",""
"show-reward","46","164087","0.0-46.0","p150745","AZ6DQHW7AFKPP","3S1L4CQSFYBD9IN1W8PCJQ1H8N7AFE","3KIBXJ1WD70GES7AX4QSPI8GOBKOKA","emotion","mismatch","uniform","","","","","","","","166382.59999999404","168394.80000001192","","","","","","","","","","","","9","","stimuli/stars_9.png","45","","","","","stimuli/HF04_AO.jpg","",""
"explore-choice","47","165723","0.0-47.0","p150745","AZ6DQHW7AFKPP","3S1L4CQSFYBD9IN1W8PCJQ1H8N7AFE","3KIBXJ1WD70GES7AX4QSPI8GOBKOKA","emotion","mismatch","uniform","","","","","","","1132.199999988079","168397.5","169529.69999998808","[""stimuli/HM07_CC.jpg"",""stimuli/WM11_SUR.jpg"",""stimuli/AM06_SC.jpg"",""stimuli/HF04_AO.jpg""]","stimuli/HM07_CC.jpg","stimuli/WM11_SUR.jpg","stimuli/AM06_SC.jpg","stimuli/HF04_AO.jpg","pos1","stimuli/HM07_CC.jpg","CC","HM07","0","2","4","4","stimuli/stars_4.png","47","[""CC"",""SUR"",""SC"",""AO""]","[""HM07"",""WM11"",""AM06"",""HF04""]","[4,4,6,9]","[4,2,6,8]","","",""
"show-reward","48","167747","0.0-48.0","p150745","AZ6DQHW7AFKPP","3S1L4CQSFYBD9IN1W8PCJQ1H8N7AFE","3KIBXJ1WD70GES7AX4QSPI8GOBKOKA","emotion","mismatch","uniform","","","","","","","","170032.59999999404","172054.19999998808","","","","","","","","","","","","4","","stimuli/stars_4.png","47","","","","","stimuli/HM07_CC.jpg","",""
"explore-choice","49","169540","0.0-49.0","p150745","AZ6DQHW7AFKPP","3S1L4CQSFYBD9IN1W8PCJQ1H8N7AFE","3KIBXJ1WD70GES7AX4QSPI8GOBKOKA","emotion","mismatch","uniform","","","","","","","1290.2000000178814","172057.69999998808","173347.90000000596","[""stimuli/HM07_AO.jpg"",""stimuli/HF04_CC.jpg"",""stimuli/AM06_SUR.jpg"",""stimuli/WM11_SC.jpg""]","stimuli/HM07_AO.jpg","stimuli/HF04_CC.jpg","stimuli/AM06_SUR.jpg","stimuli/WM11_SC.jpg","pos4","stimuli/WM11_SC.jpg","SC","WM11","3","2","4","6","stimuli/stars_4.png","49","[""AO"",""CC"",""SUR"",""SC""]","[""HM07"",""HF04"",""AM06"",""WM11""]","[6,4,4,4]","[8,4,2,6]","","",""
"show-reward","50","171546","0.0-50.0","p150745","AZ6DQHW7AFKPP","3S1L4CQSFYBD9IN1W8PCJQ1H8N7AFE","3KIBXJ1WD70GES7AX4QSPI8GOBKOKA","emotion","mismatch","uniform","","","","","","","","173850","175854.09999999404","","","","","","","","","","","","4","","stimuli/stars_4.png","49","","","","","stimuli/WM11_SC.jpg","",""
"explore-choice","51","173140","0.0-51.0","p150745","AZ6DQHW7AFKPP","3S1L4CQSFYBD9IN1W8PCJQ1H8N7AFE","3KIBXJ1WD70GES7AX4QSPI8GOBKOKA","emotion","mismatch","uniform","","","","","","","1079.199999988079","175855.5","176934.69999998808","[""stimuli/HM07_SUR.jpg"",""stimuli/WM11_SC.jpg"",""stimuli/HF04_AO.jpg"",""stimuli/AM06_CC.jpg""]","stimuli/HM07_SUR.jpg","stimuli/WM11_SC.jpg","stimuli/HF04_AO.jpg","stimuli/AM06_CC.jpg","pos1","stimuli/HM07_SUR.jpg","SUR","HM07","0","2","4","2","stimuli/stars_4.png","51","[""SUR"",""SC"",""AO"",""CC""]","[""HM07"",""WM11"",""HF04"",""AM06""]","[4,4,10,5]","[2,6,8,4]","","",""
"show-reward","52","175158","0.0-52.0","p150745","AZ6DQHW7AFKPP","3S1L4CQSFYBD9IN1W8PCJQ1H8N7AFE","3KIBXJ1WD70GES7AX4QSPI8GOBKOKA","emotion","mismatch","uniform","","","","","","","","177450","179465.59999999404","","","","","","","","","","","","4","","stimuli/stars_4.png","51","","","","","stimuli/HM07_SUR.jpg","",""
"explore-choice","53","177821","0.0-53.0","p150745","AZ6DQHW7AFKPP","3S1L4CQSFYBD9IN1W8PCJQ1H8N7AFE","3KIBXJ1WD70GES7AX4QSPI8GOBKOKA","emotion","mismatch","uniform","","","","","","","2160.300000011921","179467.19999998808","181627.5","[""stimuli/HM07_SC.jpg"",""stimuli/WM11_CC.jpg"",""stimuli/HF04_SUR.jpg"",""stimuli/AM06_AO.jpg""]","stimuli/HM07_SC.jpg","stimuli/WM11_CC.jpg","stimuli/HF04_SUR.jpg","stimuli/AM06_AO.jpg","pos4","stimuli/AM06_AO.jpg","AO","AM06","3","5","10","8","stimuli/stars_10.png","56","[""SC"",""CC"",""SUR"",""AO""]","[""HM07"",""WM11"",""HF04"",""AM06""]","[5,2,1,10]","[6,4,2,8]","","",""
"show-reward","54","179828","0.0-54.0","p150745","AZ6DQHW7AFKPP","3S1L4CQSFYBD9IN1W8PCJQ1H8N7AFE","3KIBXJ1WD70GES7AX4QSPI8GOBKOKA","emotion","mismatch","uniform","","","","","","","","182130.40000000596","184136.19999998808","","","","","","","","","","","","10","","stimuli/stars_10.png","56","","","","","stimuli/AM06_AO.jpg","",""
"explore-choice","55","183235","0.0-55.0","p150745","AZ6DQHW7AFKPP","3S1L4CQSFYBD9IN1W8PCJQ1H8N7AFE","3KIBXJ1WD70GES7AX4QSPI8GOBKOKA","emotion","mismatch","uniform","","","","","","","2901.9000000059605","184138.09999999404","187040","[""stimuli/AM06_SC.jpg"",""stimuli/WM11_SUR.jpg"",""stimuli/HF04_AO.jpg"",""stimuli/HM07_CC.jpg""]","stimuli/AM06_SC.jpg","stimuli/WM11_SUR.jpg","stimuli/HF04_AO.jpg","stimuli/HM07_CC.jpg","pos3","stimuli/HF04_AO.jpg","AO","HF04","2","4.5","9","8","stimuli/stars_9.png","60.5","[""SC"",""SUR"",""AO"",""CC""]","[""AM06"",""WM11"",""HF04"",""HM07""]","[6,4,9,4]","[6,2,8,4]","","",""
"show-reward","56","185244","0.0-56.0","p150745","AZ6DQHW7AFKPP","3S1L4CQSFYBD9IN1W8PCJQ1H8N7AFE","3KIBXJ1WD70GES7AX4QSPI8GOBKOKA","emotion","mismatch","uniform","","","","","","","","187546.90000000596","189551.40000000596","","","","","","","","","","","","9","","stimuli/stars_9.png","60.5","","","","","stimuli/HF04_AO.jpg","",""
"explore-choice","57","192134","0.0-57.0","p150745","AZ6DQHW7AFKPP","3S1L4CQSFYBD9IN1W8PCJQ1H8N7AFE","3KIBXJ1WD70GES7AX4QSPI8GOBKOKA","emotion","mismatch","uniform","","","","","","","6385.9000000059605","189553.59999999404","195939.5","[""stimuli/HF04_SUR.jpg"",""stimuli/HM07_SC.jpg"",""stimuli/AM06_AO.jpg"",""stimuli/WM11_CC.jpg""]","stimuli/HF04_SUR.jpg","stimuli/HM07_SC.jpg","stimuli/AM06_AO.jpg","stimuli/WM11_CC.jpg","pos1","stimuli/HF04_SUR.jpg","SUR","HF04","0","0.5","1","2","stimuli/stars_1.png","61","[""SUR"",""SC"",""AO"",""CC""]","[""HF04"",""HM07"",""AM06"",""WM11""]","[1,5,10,2]","[2,6,8,4]","","",""
"show-reward","58","194139","0.0-58.0","p150745","AZ6DQHW7AFKPP","3S1L4CQSFYBD9IN1W8PCJQ1H8N7AFE","3KIBXJ1WD70GES7AX4QSPI8GOBKOKA","emotion","mismatch","uniform","","","","","","","","196443","198446.30000001192","","","","","","","","","","","","1","","stimuli/stars_1.png","61","","","","","stimuli/HF04_SUR.jpg","",""
"explore-choice","59","194986","0.0-59.0","p150745","AZ6DQHW7AFKPP","3S1L4CQSFYBD9IN1W8PCJQ1H8N7AFE","3KIBXJ1WD70GES7AX4QSPI8GOBKOKA","emotion","mismatch","uniform","","","","","","","343.69999998807907","198447.40000000596","198791.09999999404","[""stimuli/HM07_SC.jpg"",""stimuli/HF04_CC.jpg"",""stimuli/WM11_AO.jpg"",""stimuli/AM06_SUR.jpg""]","stimuli/HM07_SC.jpg","stimuli/HF04_CC.jpg","stimuli/WM11_AO.jpg","stimuli/AM06_SUR.jpg","pos2","stimuli/HF04_CC.jpg","CC","HF04","1","1","2","4","stimuli/stars_2.png","62","[""SC"",""CC"",""AO"",""SUR""]","[""HM07"",""HF04"",""WM11"",""AM06""]","[7,2,7,4]","[6,4,8,2]","","",""
"show-reward","60","197003","0.0-60.0","p150745","AZ6DQHW7AFKPP","3S1L4CQSFYBD9IN1W8PCJQ1H8N7AFE","3KIBXJ1WD70GES7AX4QSPI8GOBKOKA","emotion","mismatch","uniform","","","","","","","","199294.69999998808","201309.80000001192","","","","","","","","","","","","2","","stimuli/stars_2.png","62","","","","","stimuli/HF04_CC.jpg","",""
"explore-choice","61","200312","0.0-61.0","p150745","AZ6DQHW7AFKPP","3S1L4CQSFYBD9IN1W8PCJQ1H8N7AFE","3KIBXJ1WD70GES7AX4QSPI8GOBKOKA","emotion","mismatch","uniform","","","","","","","2805.600000023842","201311.19999998808","204116.80000001192","[""stimuli/AM06_CC.jpg"",""stimuli/HM07_AO.jpg"",""stimuli/WM11_SC.jpg"",""stimuli/HF04_SUR.jpg""]","stimuli/AM06_CC.jpg","stimuli/HM07_AO.jpg","stimuli/WM11_SC.jpg","stimuli/HF04_SUR.jpg","pos3","stimuli/WM11_SC.jpg","SC","WM11","2","2","4","6","stimuli/stars_4.png","64","[""CC"",""AO"",""SC"",""SUR""]","[""AM06"",""HM07"",""WM11"",""HF04""]","[2,8,4,4]","[4,8,6,2]","","",""
"show-reward","62","202318","0.0-62.0","p150745","AZ6DQHW7AFKPP","3S1L4CQSFYBD9IN1W8PCJQ1H8N7AFE","3KIBXJ1WD70GES7AX4QSPI8GOBKOKA","emotion","mismatch","uniform","","","","","","","","204620.69999998808","206624.19999998808","","","","","","","","","","","","4","","stimuli/stars_4.png","64","","","","","stimuli/WM11_SC.jpg","",""
"explore-choice","63","204042","0.0-63.0","p150745","AZ6DQHW7AFKPP","3S1L4CQSFYBD9IN1W8PCJQ1H8N7AFE","3KIBXJ1WD70GES7AX4QSPI8GOBKOKA","emotion","mismatch","uniform","","","","","","","1221.300000011921","206626.09999999404","207847.40000000596","[""stimuli/HF04_AO.jpg"",""stimuli/WM11_CC.jpg"",""stimuli/HM07_SC.jpg"",""stimuli/AM06_SUR.jpg""]","stimuli/HF04_AO.jpg","stimuli/WM11_CC.jpg","stimuli/HM07_SC.jpg","stimuli/AM06_SUR.jpg","pos1","stimuli/HF04_AO.jpg","AO","HF04","0","4.5","9","8","stimuli/stars_9.png","68.5","[""AO"",""CC"",""SC"",""SUR""]","[""HF04"",""WM11"",""HM07"",""AM06""]","[9,2,4,0]","[8,4,6,2]","","",""
"show-reward","64","206048","0.0-64.0","p150745","AZ6DQHW7AFKPP","3S1L4CQSFYBD9IN1W8PCJQ1H8N7AFE","3KIBXJ1WD70GES7AX4QSPI8GOBKOKA","emotion","mismatch","uniform","","","","","","","","208350.19999998808","210354.40000000596","","","","","","","","","","","","9","","stimuli/stars_9.png","68.5","","","","","stimuli/HF04_AO.jpg","",""
"explore-choice","65","207841","0.0-65.0","p150745","AZ6DQHW7AFKPP","3S1L4CQSFYBD9IN1W8PCJQ1H8N7AFE","3KIBXJ1WD70GES7AX4QSPI8GOBKOKA","emotion","mismatch","uniform","","","","","","","1290.5999999940395","210356","211646.59999999404","[""stimuli/WM11_AO.jpg"",""stimuli/HF04_CC.jpg"",""stimuli/HM07_SUR.jpg"",""stimuli/AM06_SC.jpg""]","stimuli/WM11_AO.jpg","stimuli/HF04_CC.jpg","stimuli/HM07_SUR.jpg","stimuli/AM06_SC.jpg","pos4","stimuli/AM06_SC.jpg","SC","AM06","3","3.5","7","6","stimuli/stars_7.png","72","[""AO"",""CC"",""SUR"",""SC""]","[""WM11"",""HF04"",""HM07"",""AM06""]","[7,6,0,7]","[8,4,2,6]","","",""
"show-reward","66","209846","0.0-66.0","p150745","AZ6DQHW7AFKPP","3S1L4CQSFYBD9IN1W8PCJQ1H8N7AFE","3KIBXJ1WD70GES7AX4QSPI8GOBKOKA","emotion","mismatch","uniform","","","","","","","","212149.09999999404","214152.69999998808","","","","","","","","","","","","7","","stimuli/stars_7.png","72","","","","","stimuli/AM06_SC.jpg","",""
"explore-choice","67","211185","0.0-67.0","p150745","AZ6DQHW7AFKPP","3S1L4CQSFYBD9IN1W8PCJQ1H8N7AFE","3KIBXJ1WD70GES7AX4QSPI8GOBKOKA","emotion","mismatch","uniform","","","","","","","835.4000000059605","214154.5","214989.90000000596","[""stimuli/WM11_CC.jpg"",""stimuli/HF04_AO.jpg"",""stimuli/HM07_SUR.jpg"",""stimuli/AM06_SC.jpg""]","stimuli/WM11_CC.jpg","stimuli/HF04_AO.jpg","stimuli/HM07_SUR.jpg","stimuli/AM06_SC.jpg","pos1","stimuli/WM11_CC.jpg","CC","WM11","0","1.5","3","4","stimuli/stars_3.png","73.5","[""CC"",""AO"",""SUR"",""SC""]","[""WM11"",""HF04"",""HM07"",""AM06""]","[3,9,2,8]","[4,8,2,6]","","",""
"show-reward","68","213188","0.0-68.0","p150745","AZ6DQHW7AFKPP","3S1L4CQSFYBD9IN1W8PCJQ1H8N7AFE","3KIBXJ1WD70GES7AX4QSPI8GOBKOKA","emotion","mismatch","uniform","","","","","","","","215493","217495.30000001192","","","","","","","","","","","","3","","stimuli/stars_3.png","73.5","","","","","stimuli/WM11_CC.jpg","",""
"explore-choice","69","214624","0.0-69.0","p150745","AZ6DQHW7AFKPP","3S1L4CQSFYBD9IN1W8PCJQ1H8N7AFE","3KIBXJ1WD70GES7AX4QSPI8GOBKOKA","emotion","mismatch","uniform","","","","","","","909.2999999821186","217496.80000001192","218406.09999999404","[""stimuli/WM11_SC.jpg"",""stimuli/HF04_CC.jpg"",""stimuli/HM07_SUR.jpg"",""stimuli/AM06_AO.jpg""]","stimuli/WM11_SC.jpg","stimuli/HF04_CC.jpg","stimuli/HM07_SUR.jpg","stimuli/AM06_AO.jpg","pos4","stimuli/AM06_AO.jpg","AO","AM06","3","3","6","8","stimuli/stars_6.png","76.5","[""SC"",""CC"",""SUR"",""AO""]","[""WM11"",""HF04"",""HM07"",""AM06""]","[6,6,2,6]","[6,4,2,8]","","",""
"show-reward","70","216642","0.0-70.0","p150745","AZ6DQHW7AFKPP","3S1L4CQSFYBD9IN1W8PCJQ1H8N7AFE","3KIBXJ1WD70GES7AX4QSPI8GOBKOKA","emotion","mismatch","uniform","","","","","","","","218932","220948.19999998808","","","","","","","","","","","","6","","stimuli/stars_6.png","76.5","","","","","stimuli/AM06_AO.jpg","",""
"explore-choice","71","218100","0.0-71.0","p150745","AZ6DQHW7AFKPP","3S1L4CQSFYBD9IN1W8PCJQ1H8N7AFE","3KIBXJ1WD70GES7AX4QSPI8GOBKOKA","emotion","mismatch","uniform","","","","","","","956.1000000238419","220950.69999998808","221906.80000001192","[""stimuli/HM07_SUR.jpg"",""stimuli/WM11_CC.jpg"",""stimuli/HF04_SC.jpg"",""stimuli/AM06_AO.jpg""]","stimuli/HM07_SUR.jpg","stimuli/WM11_CC.jpg","stimuli/HF04_SC.jpg","stimuli/AM06_AO.jpg","pos3","stimuli/HF04_SC.jpg","SC","HF04","2","2.5","5","6","stimuli/stars_5.png","79","[""SUR"",""CC"",""SC"",""AO""]","[""HM07"",""WM11"",""HF04"",""AM06""]","[3,6,5,7]","[2,4,6,8]","","",""
"show-reward","72","220119","0.0-72.0","p150745","AZ6DQHW7AFKPP","3S1L4CQSFYBD9IN1W8PCJQ1H8N7AFE","3KIBXJ1WD70GES7AX4QSPI8GOBKOKA","emotion","mismatch","uniform","","","","","","","","222408.59999999404","224425.59999999404","","","","","","","","","","","","5","","stimuli/stars_5.png","79","","","","","stimuli/HF04_SC.jpg","",""
"explore-choice","73","221620","0.0-73.0","p150745","AZ6DQHW7AFKPP","3S1L4CQSFYBD9IN1W8PCJQ1H8N7AFE","3KIBXJ1WD70GES7AX4QSPI8GOBKOKA","emotion","mismatch","uniform","","","","","","","991.5","224427.09999999404","225418.59999999404","[""stimuli/HF04_SUR.jpg"",""stimuli/HM07_SC.jpg"",""stimuli/WM11_AO.jpg"",""stimuli/AM06_CC.jpg""]","stimuli/HF04_SUR.jpg","stimuli/HM07_SC.jpg","stimuli/WM11_AO.jpg","stimuli/AM06_CC.jpg","pos4","stimuli/AM06_CC.jpg","CC","AM06","3","2","4","4","stimuli/stars_4.png","81","[""SUR"",""SC"",""AO"",""CC""]","[""HF04"",""HM07"",""WM11"",""AM06""]","[4,4,8,4]","[2,6,8,4]","","",""
"show-reward","74","223631","0.0-74.0","p150745","AZ6DQHW7AFKPP","3S1L4CQSFYBD9IN1W8PCJQ1H8N7AFE","3KIBXJ1WD70GES7AX4QSPI8GOBKOKA","emotion","mismatch","uniform","","","","","","","","225928.09999999404","227937.59999999404","","","","","","","","","","","","4","","stimuli/stars_4.png","81","","","","","stimuli/AM06_CC.jpg","",""
"explore-choice","75","225560","0.0-75.0","p150745","AZ6DQHW7AFKPP","3S1L4CQSFYBD9IN1W8PCJQ1H8N7AFE","3KIBXJ1WD70GES7AX4QSPI8GOBKOKA","emotion","mismatch","uniform","","","","","","","1426.4000000059605","227939.90000000596","229366.30000001192","[""stimuli/HF04_AO.jpg"",""stimuli/AM06_CC.jpg"",""stimuli/WM11_SC.jpg"",""stimuli/HM07_SUR.jpg""]","stimuli/HF04_AO.jpg","stimuli/AM06_CC.jpg","stimuli/WM11_SC.jpg","stimuli/HM07_SUR.jpg","pos1","stimuli/HF04_AO.jpg","AO","HF04","0","5","10","8","stimuli/stars_10.png","86","[""AO"",""CC"",""SC"",""SUR""]","[""HF04"",""AM06"",""WM11"",""HM07""]","[10,5,4,4]","[8,4,6,2]","","",""
"show-reward","76","227565","0.0-76.0","p150745","AZ6DQHW7AFKPP","3S1L4CQSFYBD9IN1W8PCJQ1H8N7AFE","3KIBXJ1WD70GES7AX4QSPI8GOBKOKA","emotion","mismatch","uniform","","","","","","","","229868","231871.30000001192","","","","","","","","","","","","10","","stimuli/stars_10.png","86","","","","","stimuli/HF04_AO.jpg","",""
"explore-choice","77","231249","0.0-77.0","p150745","AZ6DQHW7AFKPP","3S1L4CQSFYBD9IN1W8PCJQ1H8N7AFE","3KIBXJ1WD70GES7AX4QSPI8GOBKOKA","emotion","mismatch","uniform","","","","","","","3175.5999999940395","231873","235048.59999999404","[""stimuli/WM11_SC.jpg"",""stimuli/HM07_AO.jpg"",""stimuli/HF04_CC.jpg"",""stimuli/AM06_SUR.jpg""]","stimuli/WM11_SC.jpg","stimuli/HM07_AO.jpg","stimuli/HF04_CC.jpg","stimuli/AM06_SUR.jpg","pos4","stimuli/AM06_SUR.jpg","SUR","AM06","3","2","4","2","stimuli/stars_4.png","88","[""SC"",""AO"",""CC"",""SUR""]","[""WM11"",""HM07"",""HF04"",""AM06""]","[4,6,4,4]","[6,8,4,2]","","",""
"show-reward","78","233260","0.0-78.0","p150745","AZ6DQHW7AFKPP","3S1L4CQSFYBD9IN1W8PCJQ1H8N7AFE","3KIBXJ1WD70GES7AX4QSPI8GOBKOKA","emotion","mismatch","uniform","","","","","","","","235558.90000000596","237566.80000001192","","","","","","","","","","","","4","","stimuli/stars_4.png","88","","","","","stimuli/AM06_SUR.jpg","",""
"explore-choice","79","236104","0.0-79.0","p150745","AZ6DQHW7AFKPP","3S1L4CQSFYBD9IN1W8PCJQ1H8N7AFE","3KIBXJ1WD70GES7AX4QSPI8GOBKOKA","emotion","mismatch","uniform","","","","","","","2340.699999988079","237568.5","239909.19999998808","[""stimuli/AM06_AO.jpg"",""stimuli/HF04_CC.jpg"",""stimuli/WM11_SUR.jpg"",""stimuli/HM07_SC.jpg""]","stimuli/AM06_AO.jpg","stimuli/HF04_CC.jpg","stimuli/WM11_SUR.jpg","stimuli/HM07_SC.jpg","pos3","stimuli/WM11_SUR.jpg","SUR","WM11","2","1.5","3","2","stimuli/stars_3.png","89.5","[""AO"",""CC"",""SUR"",""SC""]","[""AM06"",""HF04"",""WM11"",""HM07""]","[6,3,3,6]","[8,4,2,6]","","",""
"show-reward","80","238125","0.0-80.0","p150745","AZ6DQHW7AFKPP","3S1L4CQSFYBD9IN1W8PCJQ1H8N7AFE","3KIBXJ1WD70GES7AX4QSPI8GOBKOKA","emotion","mismatch","uniform","","","","","","","","240412.19999998808","242431.30000001192","","","","","","","","","","","","3","","stimuli/stars_3.png","89.5","","","","","stimuli/WM11_SUR.jpg","",""
"explore-choice","81","242309","0.0-81.0","p150745","AZ6DQHW7AFKPP","3S1L4CQSFYBD9IN1W8PCJQ1H8N7AFE","3KIBXJ1WD70GES7AX4QSPI8GOBKOKA","emotion","mismatch","uniform","","","","","","","3674.0999999940395","242432.80000001192","246106.90000000596","[""stimuli/HM07_CC.jpg"",""stimuli/HF04_SC.jpg"",""stimuli/AM06_SUR.jpg"",""stimuli/WM11_AO.jpg""]","stimuli/HM07_CC.jpg","stimuli/HF04_SC.jpg","stimuli/AM06_SUR.jpg","stimuli/WM11_AO.jpg","pos1","stimuli/HM07_CC.jpg","CC","HM07","0","2","4","4","stimuli/stars_4.png","91.5","[""CC"",""SC"",""SUR"",""AO""]","[""HM07"",""HF04"",""AM06"",""WM11""]","[4,8,2,10]","[4,6,2,8]","","",""
"show-reward","82","244316","0.0-82.0","p150745","AZ6DQHW7AFKPP","3S1L4CQSFYBD9IN1W8PCJQ1H8N7AFE","3KIBXJ1WD70GES7AX4QSPI8GOBKOKA","emotion","mismatch","uniform","","","","","","","","246618.30000001192","248622.5","","","","","","","","","","","","4","","stimuli/stars_4.png","91.5","","","","","stimuli/HM07_CC.jpg","",""
"explore-choice","83","246674","0.0-83.0","p150745","AZ6DQHW7AFKPP","3S1L4CQSFYBD9IN1W8PCJQ1H8N7AFE","3KIBXJ1WD70GES7AX4QSPI8GOBKOKA","emotion","mismatch","uniform","","","","","","","1855.8999999761581","248624.30000001192","250480.19999998808","[""stimuli/WM11_SUR.jpg"",""stimuli/AM06_AO.jpg"",""stimuli/HF04_SC.jpg"",""stimuli/HM07_CC.jpg""]","stimuli/WM11_SUR.jpg","stimuli/AM06_AO.jpg","stimuli/HF04_SC.jpg","stimuli/HM07_CC.jpg","pos4","stimuli/HM07_CC.jpg","CC","HM07","3","1.5","3","4","stimuli/stars_3.png","93","[""SUR"",""AO"",""SC"",""CC""]","[""WM11"",""AM06"",""HF04"",""HM07""]","[2,7,7,3]","[2,8,6,4]","","",""
"show-reward","84","248680","0.0-84.0","p150745","AZ6DQHW7AFKPP","3S1L4CQSFYBD9IN1W8PCJQ1H8N7AFE","3KIBXJ1WD70GES7AX4QSPI8GOBKOKA","emotion","mismatch","uniform","","","","","","","","250982.59999999404","252986.09999999404","","","","","","","","","","","","3","","stimuli/stars_3.png","93","","","","","stimuli/HM07_CC.jpg","",""
"explore-choice","85","249673","0.0-85.0","p150745","AZ6DQHW7AFKPP","3S1L4CQSFYBD9IN1W8PCJQ1H8N7AFE","3KIBXJ1WD70GES7AX4QSPI8GOBKOKA","emotion","mismatch","uniform","","","","","","","486.2999999821186","252989.40000000596","253475.69999998808","[""stimuli/HM07_SC.jpg"",""stimuli/HF04_AO.jpg"",""stimuli/AM06_CC.jpg"",""stimuli/WM11_SUR.jpg""]","stimuli/HM07_SC.jpg","stimuli/HF04_AO.jpg","stimuli/AM06_CC.jpg","stimuli/WM11_SUR.jpg","pos1","stimuli/HM07_SC.jpg","SC","HM07","0","2","4","6","stimuli/stars_4.png","95","[""SC"",""AO"",""CC"",""SUR""]","[""HM07"",""HF04"",""AM06"",""WM11""]","[4,10,2,4]","[6,8,4,2]","","",""
"show-reward","86","251679","0.0-86.0","p150745","AZ6DQHW7AFKPP","3S1L4CQSFYBD9IN1W8PCJQ1H8N7AFE","3KIBXJ1WD70GES7AX4QSPI8GOBKOKA","emotion","mismatch","uniform","","","","","","","","253979.59999999404","255984","","","","","","","","","","","","4","","stimuli/stars_4.png","95","","","","","stimuli/HM07_SC.jpg","",""
"explore-choice","87","253275","0.0-87.0","p150745","AZ6DQHW7AFKPP","3S1L4CQSFYBD9IN1W8PCJQ1H8N7AFE","3KIBXJ1WD70GES7AX4QSPI8GOBKOKA","emotion","mismatch","uniform","","","","","","","1080.7000000178814","255985.59999999404","257066.30000001192","[""stimuli/AM06_CC.jpg"",""stimuli/WM11_AO.jpg"",""stimuli/HM07_SUR.jpg"",""stimuli/HF04_SC.jpg""]","stimuli/AM06_CC.jpg","stimuli/WM11_AO.jpg","stimuli/HM07_SUR.jpg","stimuli/HF04_SC.jpg","pos4","stimuli/HF04_SC.jpg","SC","HF04","3","2.5","5","6","stimuli/stars_5.png","97.5","[""CC"",""AO"",""SUR"",""SC""]","[""AM06"",""WM11"",""HM07"",""HF04""]","[3,6,1,5]","[4,8,2,6]","","",""
"show-reward","88","255281","0.0-88.0","p150745","AZ6DQHW7AFKPP","3S1L4CQSFYBD9IN1W8PCJQ1H8N7AFE","3KIBXJ1WD70GES7AX4QSPI8GOBKOKA","emotion","mismatch","uniform","","","","","","","","257581.80000001192","259586.5","","","","","","","","","","","","5","","stimuli/stars_5.png","97.5","","","","","stimuli/HF04_SC.jpg","",""
"explore-choice","89","258125","0.0-89.0","p150745","AZ6DQHW7AFKPP","3S1L4CQSFYBD9IN1W8PCJQ1H8N7AFE","3KIBXJ1WD70GES7AX4QSPI8GOBKOKA","emotion","mismatch","uniform","","","","","","","2341.4000000059605","259588.09999999404","261929.5","[""stimuli/HM07_CC.jpg"",""stimuli/AM06_SC.jpg"",""stimuli/HF04_SUR.jpg"",""stimuli/WM11_AO.jpg""]","stimuli/HM07_CC.jpg","stimuli/AM06_SC.jpg","stimuli/HF04_SUR.jpg","stimuli/WM11_AO.jpg","pos2","stimuli/AM06_SC.jpg","SC","AM06","1","2.5","5","6","stimuli/stars_5.png","100","[""CC"",""SC"",""SUR"",""AO""]","[""HM07"",""AM06"",""HF04"",""WM11""]","[4,5,1,9]","[4,6,2,8]","","",""
"show-reward","90","260131","0.0-90.0","p150745","AZ6DQHW7AFKPP","3S1L4CQSFYBD9IN1W8PCJQ1H8N7AFE","3KIBXJ1WD70GES7AX4QSPI8GOBKOKA","emotion","mismatch","uniform","","","","","","","","262432.09999999404","264435.90000000596","","","","","","","","","","","","5","","stimuli/stars_5.png","100","","","","","stimuli/AM06_SC.jpg","",""
"explore-choice","91","261152","0.0-91.0","p150745","AZ6DQHW7AFKPP","3S1L4CQSFYBD9IN1W8PCJQ1H8N7AFE","3KIBXJ1WD70GES7AX4QSPI8GOBKOKA","emotion","mismatch","uniform","","","","","","","508.09999999403954","264437.5","264945.59999999404","[""stimuli/HF04_SUR.jpg"",""stimuli/HM07_CC.jpg"",""stimuli/WM11_SC.jpg"",""stimuli/AM06_AO.jpg""]","stimuli/HF04_SUR.jpg","stimuli/HM07_CC.jpg","stimuli/WM11_SC.jpg","stimuli/AM06_AO.jpg","pos1","stimuli/HF04_SUR.jpg","SUR","HF04","0","0","0","2","stimuli/stars_0.png","100","[""SUR"",""CC"",""SC"",""AO""]","[""HF04"",""HM07"",""WM11"",""AM06""]","[0,6,5,8]","[2,4,6,8]","","",""
"show-reward","92","263157","0.0-92.0","p150745","AZ6DQHW7AFKPP","3S1L4CQSFYBD9IN1W8PCJQ1H8N7AFE","3KIBXJ1WD70GES7AX4QSPI8GOBKOKA","emotion","mismatch","uniform","","","","","","","","265459.3000000119","267462.3000000119","","","","","","","","","","","","0","","stimuli/stars_0.png","100","","","","","stimuli/HF04_SUR.jpg","",""
"explore-choice","93","265739","0.0-93.0","p150745","AZ6DQHW7AFKPP","3S1L4CQSFYBD9IN1W8PCJQ1H8N7AFE","3KIBXJ1WD70GES7AX4QSPI8GOBKOKA","emotion","mismatch","uniform","","","","","","","2079.0999999940395","267463.90000000596","269543","[""stimuli/WM11_SC.jpg"",""stimuli/AM06_SUR.jpg"",""stimuli/HF04_AO.jpg"",""stimuli/HM07_CC.jpg""]","stimuli/WM11_SC.jpg","stimuli/AM06_SUR.jpg","stimuli/HF04_AO.jpg","stimuli/HM07_CC.jpg","pos3","stimuli/HF04_AO.jpg","AO","HF04","2","4","8","8","stimuli/stars_8.png","104","[""SC"",""SUR"",""AO"",""CC""]","[""WM11"",""AM06"",""HF04"",""HM07""]","[7,1,8,3]","[6,2,8,4]","","",""
"show-reward","94","267744","0.0-94.0","p150745","AZ6DQHW7AFKPP","3S1L4CQSFYBD9IN1W8PCJQ1H8N7AFE","3KIBXJ1WD70GES7AX4QSPI8GOBKOKA","emotion","mismatch","uniform","","","","","","","","270045.90000000596","272049.09999999404","","","","","","","","","","","","8","","stimuli/stars_8.png","104","","","","","stimuli/HF04_AO.jpg","",""
"explore-choice","95","269358","0.0-95.0","p150745","AZ6DQHW7AFKPP","3S1L4CQSFYBD9IN1W8PCJQ1H8N7AFE","3KIBXJ1WD70GES7AX4QSPI8GOBKOKA","emotion","mismatch","uniform","","","","","","","1104","272050.40000000596","273154.40000000596","[""stimuli/HF04_SUR.jpg"",""stimuli/AM06_SC.jpg"",""stimuli/WM11_CC.jpg"",""stimuli/HM07_AO.jpg""]","stimuli/HF04_SUR.jpg","stimuli/AM06_SC.jpg","stimuli/WM11_CC.jpg","stimuli/HM07_AO.jpg","pos4","stimuli/HM07_AO.jpg","AO","HM07","3","4.5","9","8","stimuli/stars_9.png","108.5","[""SUR"",""SC"",""CC"",""AO""]","[""HF04"",""AM06"",""WM11"",""HM07""]","[2,5,3,9]","[2,6,4,8]","","",""
"show-reward","96","271379","0.0-96.0","p150745","AZ6DQHW7AFKPP","3S1L4CQSFYBD9IN1W8PCJQ1H8N7AFE","3KIBXJ1WD70GES7AX4QSPI8GOBKOKA","emotion","mismatch","uniform","","","","","","","","273665.1999999881","275684.90000000596","","","","","","","","","","","","9","","stimuli/stars_9.png","108.5","","","","","stimuli/HM07_AO.jpg","",""
"explore-choice","97","275843","0.0-97.0","p150745","AZ6DQHW7AFKPP","3S1L4CQSFYBD9IN1W8PCJQ1H8N7AFE","3KIBXJ1WD70GES7AX4QSPI8GOBKOKA","emotion","mismatch","uniform","","","","","","","3954.199999988079","275685.90000000596","279640.09999999404","[""stimuli/HF04_SC.jpg"",""stimuli/WM11_CC.jpg"",""stimuli/HM07_AO.jpg"",""stimuli/AM06_SUR.jpg""]","stimuli/HF04_SC.jpg","stimuli/WM11_CC.jpg","stimuli/HM07_AO.jpg","stimuli/AM06_SUR.jpg","pos2","stimuli/WM11_CC.jpg","CC","WM11","1","1","2","4","stimuli/stars_2.png","109.5","[""SC"",""CC"",""AO"",""SUR""]","[""HF04"",""WM11"",""HM07"",""AM06""]","[5,2,9,0]","[6,4,8,2]","","",""
"show-reward","98","277848","0.0-98.0","p150745","AZ6DQHW7AFKPP","3S1L4CQSFYBD9IN1W8PCJQ1H8N7AFE","3KIBXJ1WD70GES7AX4QSPI8GOBKOKA","emotion","mismatch","uniform","","","","","","","","280150","282153.3000000119","","","","","","","","","","","","2","","stimuli/stars_2.png","109.5","","","","","stimuli/WM11_CC.jpg","",""
"explore-choice","99","279406","0.0-99.0","p150745","AZ6DQHW7AFKPP","3S1L4CQSFYBD9IN1W8PCJQ1H8N7AFE","3KIBXJ1WD70GES7AX4QSPI8GOBKOKA","emotion","mismatch","uniform","","","","","","","1056.699999988079","282154.8000000119","283211.5","[""stimuli/WM11_SUR.jpg"",""stimuli/HF04_SC.jpg"",""stimuli/AM06_CC.jpg"",""stimuli/HM07_AO.jpg""]","stimuli/WM11_SUR.jpg","stimuli/HF04_SC.jpg","stimuli/AM06_CC.jpg","stimuli/HM07_AO.jpg","pos4","stimuli/HM07_AO.jpg","AO","HM07","3","4.5","9","8","stimuli/stars_9.png","114","[""SUR"",""SC"",""CC"",""AO""]","[""WM11"",""HF04"",""AM06"",""HM07""]","[0,7,4,9]","[2,6,4,8]","","",""
"show-reward","100","281410","0.0-100.0","p150745","AZ6DQHW7AFKPP","3S1L4CQSFYBD9IN1W8PCJQ1H8N7AFE","3KIBXJ1WD70GES7AX4QSPI8GOBKOKA","emotion","mismatch","uniform","","","","","","","","283713","285715.59999999404","","","","","","","","","","","","9","","stimuli/stars_9.png","114","","","","","stimuli/HM07_AO.jpg","",""
"explore-choice","101","285310","0.0-101.0","p150745","AZ6DQHW7AFKPP","3S1L4CQSFYBD9IN1W8PCJQ1H8N7AFE","3KIBXJ1WD70GES7AX4QSPI8GOBKOKA","emotion","mismatch","uniform","","","","","","","3396.0999999940395","285716.8000000119","289112.90000000596","[""stimuli/HM07_AO.jpg"",""stimuli/HF04_CC.jpg"",""stimuli/AM06_SC.jpg"",""stimuli/WM11_SUR.jpg""]","stimuli/HM07_AO.jpg","stimuli/HF04_CC.jpg","stimuli/AM06_SC.jpg","stimuli/WM11_SUR.jpg","pos2","stimuli/HF04_CC.jpg","CC","HF04","1","1","2","4","stimuli/stars_2.png","115","[""AO"",""CC"",""SC"",""SUR""]","[""HM07"",""HF04"",""AM06"",""WM11""]","[10,2,7,1]","[8,4,6,2]","","",""
"show-reward","102","287322","0.0-102.0","p150745","AZ6DQHW7AFKPP","3S1L4CQSFYBD9IN1W8PCJQ1H8N7AFE","3KIBXJ1WD70GES7AX4QSPI8GOBKOKA","emotion","mismatch","uniform","","","","","","","","289617","291627.8000000119","","","","","","","","","","","","2","","stimuli/stars_2.png","115","","","","","stimuli/HF04_CC.jpg","",""
"explore-choice","103","300806","0.0-103.0","p150745","AZ6DQHW7AFKPP","3S1L4CQSFYBD9IN1W8PCJQ1H8N7AFE","3KIBXJ1WD70GES7AX4QSPI8GOBKOKA","emotion","mismatch","uniform","","","","","","","12965.199999988079","291629.3000000119","304594.5","[""stimuli/BF08_DO.jpg"",""stimuli/AM03_HE.jpg"",""stimuli/AF02_FO.jpg"",""stimuli/WM13_HO.jpg""]","stimuli/BF08_DO.jpg","stimuli/AM03_HE.jpg","stimuli/AF02_FO.jpg","stimuli/WM13_HO.jpg","pos1","stimuli/BF08_DO.jpg","DO","BF08","0","1","2","4","stimuli/stars_2.png","116","[""DO"",""HE"",""FO"",""HO""]","[""BF08"",""AM03"",""AF02"",""WM13""]","[2,3,8,8]","[4,2,8,6]","","",""
"show-reward","104","302811","0.0-104.0","p150745","AZ6DQHW7AFKPP","3S1L4CQSFYBD9IN1W8PCJQ1H8N7AFE","3KIBXJ1WD70GES7AX4QSPI8GOBKOKA","emotion","mismatch","uniform","","","","","","","","305113.1999999881","307116.40000000596","","","","","","","","","","","","2","","stimuli/stars_2.png","116","","","","","stimuli/BF08_DO.jpg","",""
"explore-choice","105","304839","0.0-105.0","p150745","AZ6DQHW7AFKPP","3S1L4CQSFYBD9IN1W8PCJQ1H8N7AFE","3KIBXJ1WD70GES7AX4QSPI8GOBKOKA","emotion","mismatch","uniform","","","","","","","1506.6000000238419","307118.6999999881","308625.3000000119","[""stimuli/WM13_HE.jpg"",""stimuli/AM03_DO.jpg"",""stimuli/AF02_FO.jpg"",""stimuli/BF08_HO.jpg""]","stimuli/WM13_HE.jpg","stimuli/AM03_DO.jpg","stimuli/AF02_FO.jpg","stimuli/BF08_HO.jpg","pos2","stimuli/AM03_DO.jpg","DO","AM03","1","2","4","2","stimuli/stars_4.png","118","[""HE"",""DO"",""FO"",""HO""]","[""WM13"",""AM03"",""AF02"",""BF08""]","[7,4,8,5]","[6,2,8,4]","","",""
"show-reward","106","306846","0.0-106.0","p150745","AZ6DQHW7AFKPP","3S1L4CQSFYBD9IN1W8PCJQ1H8N7AFE","3KIBXJ1WD70GES7AX4QSPI8GOBKOKA","emotion","mismatch","uniform","","","","","","","","309148.5","311151.40000000596","","","","","","","","","","","","4","","stimuli/stars_4.png","118","","","","","stimuli/AM03_DO.jpg","",""
"explore-choice","107","308302","0.0-107.0","p150745","AZ6DQHW7AFKPP","3S1L4CQSFYBD9IN1W8PCJQ1H8N7AFE","3KIBXJ1WD70GES7AX4QSPI8GOBKOKA","emotion","mismatch","uniform","","","","","","","952","311153","312105","[""stimuli/AF02_HO.jpg"",""stimuli/AM03_HE.jpg"",""stimuli/WM13_FO.jpg"",""stimuli/BF08_DO.jpg""]","stimuli/AF02_HO.jpg","stimuli/AM03_HE.jpg","stimuli/WM13_FO.jpg","stimuli/BF08_DO.jpg","pos1","stimuli/AF02_HO.jpg","HO","AF02","0","5","10","8","stimuli/stars_10.png","123","[""HO"",""HE"",""FO"",""DO""]","[""AF02"",""AM03"",""WM13"",""BF08""]","[10,2,4,4]","[8,2,6,4]","","",""
"show-reward","108","310309","0.0-108.0","p150745","AZ6DQHW7AFKPP","3S1L4CQSFYBD9IN1W8PCJQ1H8N7AFE","3KIBXJ1WD70GES7AX4QSPI8GOBKOKA","emotion","mismatch","uniform","","","","","","","","312610.1999999881","314613.40000000596","","","","","","","","","","","","10","","stimuli/stars_10.png","123","","","","","stimuli/AF02_HO.jpg","",""
"explore-choice","109","312204","0.0-109.0","p150745","AZ6DQHW7AFKPP","3S1L4CQSFYBD9IN1W8PCJQ1H8N7AFE","3KIBXJ1WD70GES7AX4QSPI8GOBKOKA","emotion","mismatch","uniform","","","","","","","1390.9000000059605","314615.5","316006.40000000596","[""stimuli/BF08_FO.jpg"",""stimuli/WM13_HO.jpg"",""stimuli/AF02_HE.jpg"",""stimuli/AM03_DO.jpg""]","stimuli/BF08_FO.jpg","stimuli/WM13_HO.jpg","stimuli/AF02_HE.jpg","stimuli/AM03_DO.jpg","pos4","stimuli/AM03_DO.jpg","DO","AM03","3","1.5","3","2","stimuli/stars_3.png","124.5","[""FO"",""HO"",""HE"",""DO""]","[""BF08"",""WM13"",""AF02"",""AM03""]","[3,6,6,3]","[4,6,8,2]","","",""
"show-reward","110","314222","0.0-110.0","p150745","AZ6DQHW7AFKPP","3S1L4CQSFYBD9IN1W8PCJQ1H8N7AFE","3KIBXJ1WD70GES7AX4QSPI8GOBKOKA","emotion","mismatch","uniform","","","","","","","","316509.40000000596","318526.40000000596","","","","","","","","","","","","3","","stimuli/stars_3.png","124.5","","","","","stimuli/AM03_DO.jpg","",""
"explore-choice","111","315523","0.0-111.0","p150745","AZ6DQHW7AFKPP","3S1L4CQSFYBD9IN1W8PCJQ1H8N7AFE","3KIBXJ1WD70GES7AX4QSPI8GOBKOKA","emotion","mismatch","uniform","","","","","","","797.4000000059605","318527.90000000596","319325.3000000119","[""stimuli/AM03_FO.jpg"",""stimuli/WM13_HE.jpg"",""stimuli/AF02_HO.jpg"",""stimuli/BF08_DO.jpg""]","stimuli/AM03_FO.jpg","stimuli/WM13_HE.jpg","stimuli/AF02_HO.jpg","stimuli/BF08_DO.jpg","pos1","stimuli/AM03_FO.jpg","FO","AM03","0","0.5","1","2","stimuli/stars_1.png","125","[""FO"",""HE"",""HO"",""DO""]","[""AM03"",""WM13"",""AF02"",""BF08""]","[1,8,6,4]","[2,6,8,4]","","",""
"show-reward","112","317527","0.0-112.0","p150745","AZ6DQHW7AFKPP","3S1L4CQSFYBD9IN1W8PCJQ1H8N7AFE","3KIBXJ1WD70GES7AX4QSPI8GOBKOKA","emotion","mismatch","uniform","","","","","","","","319828.90000000596","321831.09999999404","","","","","","","","","","","","1","","stimuli/stars_1.png","125","","","","","stimuli/AM03_FO.jpg","",""
"explore-choice","113","318923","0.0-113.0","p150745","AZ6DQHW7AFKPP","3S1L4CQSFYBD9IN1W8PCJQ1H8N7AFE","3KIBXJ1WD70GES7AX4QSPI8GOBKOKA","emotion","mismatch","uniform","","","","","","","891.6999999880791","321833.90000000596","322725.59999999404","[""stimuli/BF08_HE.jpg"",""stimuli/AM03_FO.jpg"",""stimuli/AF02_DO.jpg"",""stimuli/WM13_HO.jpg""]","stimuli/BF08_HE.jpg","stimuli/AM03_FO.jpg","stimuli/AF02_DO.jpg","stimuli/WM13_HO.jpg","pos2","stimuli/AM03_FO.jpg","FO","AM03","1","1","2","2","stimuli/stars_2.png","126","[""HE"",""FO"",""DO"",""HO""]","[""BF08"",""AM03"",""AF02"",""WM13""]","[5,2,6,5]","[4,2,8,6]","","",""
"show-reward","114","320929","0.0-114.0","p150745","AZ6DQHW7AFKPP","3S1L4CQSFYBD9IN1W8PCJQ1H8N7AFE","3KIBXJ1WD70GES7AX4QSPI8GOBKOKA","emotion","mismatch","uniform","","","","","","","","323229.8000000119","325233.5","","","","","","","","","","","","2","","stimuli/stars_2.png","126","","","","","stimuli/AM03_FO.jpg","",""
"explore-choice","115","323042","0.0-115.0","p150745","AZ6DQHW7AFKPP","3S1L4CQSFYBD9IN1W8PCJQ1H8N7AFE","3KIBXJ1WD70GES7AX4QSPI8GOBKOKA","emotion","mismatch","uniform","","","","","","","1610.9000000059605","325234.59999999404","326845.5","[""stimuli/AM03_HO.jpg"",""stimuli/BF08_DO.jpg"",""stimuli/AF02_FO.jpg"",""stimuli/WM13_HE.jpg""]","stimuli/AM03_HO.jpg","stimuli/BF08_DO.jpg","stimuli/AF02_FO.jpg","stimuli/WM13_HE.jpg","pos4","stimuli/WM13_HE.jpg","HE","WM13","3","3.5","7","6","stimuli/stars_7.png","129.5","[""HO"",""DO"",""FO"",""HE""]","[""AM03"",""BF08"",""AF02"",""WM13""]","[0,4,9,7]","[2,4,8,6]","","",""
"show-reward","116","325047","0.0-116.0","p150745","AZ6DQHW7AFKPP","3S1L4CQSFYBD9IN1W8PCJQ1H8N7AFE","3KIBXJ1WD70GES7AX4QSPI8GOBKOKA","emotion","mismatch","uniform","","","","","","","","327347.6999999881","329351.3000000119","","","","","","","","","","","","7","","stimuli/stars_7.png","129.5","","","","","stimuli/WM13_HE.jpg","",""
"explore-choice","117","326661","0.0-117.0","p150745","AZ6DQHW7AFKPP","3S1L4CQSFYBD9IN1W8PCJQ1H8N7AFE","3KIBXJ1WD70GES7AX4QSPI8GOBKOKA","emotion","mismatch","uniform","","","","","","","1110.9000000059605","329352.6999999881","330463.59999999404","[""stimuli/AM03_HO.jpg"",""stimuli/WM13_DO.jpg"",""stimuli/AF02_HE.jpg"",""stimuli/BF08_FO.jpg""]","stimuli/AM03_HO.jpg","stimuli/WM13_DO.jpg","stimuli/AF02_HE.jpg","stimuli/BF08_FO.jpg","pos4","stimuli/BF08_FO.jpg","FO","BF08","3","2","4","4","stimuli/stars_4.png","131.5","[""HO"",""DO"",""HE"",""FO""]","[""AM03"",""WM13"",""AF02"",""BF08""]","[1,7,7,4]","[2,6,8,4]","","",""
"show-reward","118","328669","0.0-118.0","p150745","AZ6DQHW7AFKPP","3S1L4CQSFYBD9IN1W8PCJQ1H8N7AFE","3KIBXJ1WD70GES7AX4QSPI8GOBKOKA","emotion","mismatch","uniform","","","","","","","","330967.09999999404","332972.59999999404","","","","","","","","","","","","4","","stimuli/stars_4.png","131.5","","","","","stimuli/BF08_FO.jpg","",""
"explore-choice","119","330401","0.0-119.0","p150745","AZ6DQHW7AFKPP","3S1L4CQSFYBD9IN1W8PCJQ1H8N7AFE","3KIBXJ1WD70GES7AX4QSPI8GOBKOKA","emotion","mismatch","uniform","","","","","","","1229.300000011921","332974.59999999404","334203.90000000596","[""stimuli/AM03_FO.jpg"",""stimuli/AF02_HE.jpg"",""stimuli/WM13_DO.jpg"",""stimuli/BF08_HO.jpg""]","stimuli/AM03_FO.jpg","stimuli/AF02_HE.jpg","stimuli/WM13_DO.jpg","stimuli/BF08_HO.jpg","pos4","stimuli/BF08_HO.jpg","HO","BF08","3","1.5","3","4","stimuli/stars_3.png","133","[""FO"",""HE"",""DO"",""HO""]","[""AM03"",""AF02"",""WM13"",""BF08""]","[3,7,6,3]","[2,8,6,4]","","",""
"show-reward","120","332459","0.0-120.0","p150745","AZ6DQHW7AFKPP","3S1L4CQSFYBD9IN1W8PCJQ1H8N7AFE","3KIBXJ1WD70GES7AX4QSPI8GOBKOKA","emotion","mismatch","uniform","","","","","","","","334706.3000000119","336759.1999999881","","","","","","","","","","","","3","","stimuli/stars_3.png","133","","","","","stimuli/BF08_HO.jpg","",""
"explore-choice","121","334124","0.0-121.0","p150745","AZ6DQHW7AFKPP","3S1L4CQSFYBD9IN1W8PCJQ1H8N7AFE","3KIBXJ1WD70GES7AX4QSPI8GOBKOKA","emotion","mismatch","uniform","","","","","","","1158.2999999821186","336764.40000000596","337922.6999999881","[""stimuli/AF02_DO.jpg"",""stimuli/AM03_HO.jpg"",""stimuli/WM13_FO.jpg"",""stimuli/BF08_HE.jpg""]","stimuli/AF02_DO.jpg","stimuli/AM03_HO.jpg","stimuli/WM13_FO.jpg","stimuli/BF08_HE.jpg","pos1","stimuli/AF02_DO.jpg","DO","AF02","0","4","8","8","stimuli/stars_8.png","137","[""DO"",""HO"",""FO"",""HE""]","[""AF02"",""AM03"",""WM13"",""BF08""]","[8,2,6,6]","[8,2,6,4]","","",""
"show-reward","122","336140","0.0-122.0","p150745","AZ6DQHW7AFKPP","3S1L4CQSFYBD9IN1W8PCJQ1H8N7AFE","3KIBXJ1WD70GES7AX4QSPI8GOBKOKA","emotion","mismatch","uniform","","","","","","","","338429.6999999881","340444.6999999881","","","","","","","","","","","","8","","stimuli/stars_8.png","137","","","","","stimuli/AF02_DO.jpg","",""
"explore-choice","123","337952","0.0-123.0","p150745","AZ6DQHW7AFKPP","3S1L4CQSFYBD9IN1W8PCJQ1H8N7AFE","3KIBXJ1WD70GES7AX4QSPI8GOBKOKA","emotion","mismatch","uniform","","","","","","","1307.3999999761581","340446.3000000119","341753.6999999881","[""stimuli/BF08_HE.jpg"",""stimuli/AM03_FO.jpg"",""stimuli/WM13_DO.jpg"",""stimuli/AF02_HO.jpg""]","stimuli/BF08_HE.jpg","stimuli/AM03_FO.jpg","stimuli/WM13_DO.jpg","stimuli/AF02_HO.jpg","pos4","stimuli/AF02_HO.jpg","HO","AF02","3","3","6","8","stimuli/stars_6.png","140","[""HE"",""FO"",""DO"",""HO""]","[""BF08"",""AM03"",""WM13"",""AF02""]","[5,0,6,6]","[4,2,6,8]","","",""
"show-reward","124","339970","0.0-124.0","p150745","AZ6DQHW7AFKPP","3S1L4CQSFYBD9IN1W8PCJQ1H8N7AFE","3KIBXJ1WD70GES7AX4QSPI8GOBKOKA","emotion","mismatch","uniform","","","","","","","","342258.5","344274","","","","","","","","","","","","6","","stimuli/stars_6.png","140","","","","","stimuli/AF02_HO.jpg","",""
"explore-choice","125","341804","0.0-125.0","p150745","AZ6DQHW7AFKPP","3S1L4CQSFYBD9IN1W8PCJQ1H8N7AFE","3KIBXJ1WD70GES7AX4QSPI8GOBKOKA","emotion","mismatch","uniform","","","","","","","1329.6000000238419","344276.1999999881","345605.8000000119","[""stimuli/AF02_HO.jpg"",""stimuli/BF08_FO.jpg"",""stimuli/WM13_HE.jpg"",""stimuli/AM03_DO.jpg""]","stimuli/AF02_HO.jpg","stimuli/BF08_FO.jpg","stimuli/WM13_HE.jpg","stimuli/AM03_DO.jpg","pos1","stimuli/AF02_HO.jpg","HO","AF02","0","3","6","8","stimuli/stars_6.png","143","[""HO"",""FO"",""HE"",""DO""]","[""AF02"",""BF08"",""WM13"",""AM03""]","[6,3,8,4]","[8,4,6,2]","","",""
"show-reward","126","343811","0.0-126.0","p150745","AZ6DQHW7AFKPP","3S1L4CQSFYBD9IN1W8PCJQ1H8N7AFE","3KIBXJ1WD70GES7AX4QSPI8GOBKOKA","emotion","mismatch","uniform","","","","","","","","346110.5","348114.40000000596","","","","","","","","","","","","6","","stimuli/stars_6.png","143","","","","","stimuli/AF02_HO.jpg","",""
"explore-choice","127","345757","0.0-127.0","p150745","AZ6DQHW7AFKPP","3S1L4CQSFYBD9IN1W8PCJQ1H8N7AFE","3KIBXJ1WD70GES7AX4QSPI8GOBKOKA","emotion","mismatch","uniform","","","","","","","1441.699999988079","348117","349558.6999999881","[""stimuli/AF02_DO.jpg"",""stimuli/AM03_HE.jpg"",""stimuli/WM13_HO.jpg"",""stimuli/BF08_FO.jpg""]","stimuli/AF02_DO.jpg","stimuli/AM03_HE.jpg","stimuli/WM13_HO.jpg","stimuli/BF08_FO.jpg","pos4","stimuli/BF08_FO.jpg","FO","BF08","3","1.5","3","4","stimuli/stars_3.png","144.5","[""DO"",""HE"",""HO"",""FO""]","[""AF02"",""AM03"",""WM13"",""BF08""]","[9,0,7,3]","[8,2,6,4]","","",""
"show-reward","128","347765","0.0-128.0","p150745","AZ6DQHW7AFKPP","3S1L4CQSFYBD9IN1W8PCJQ1H8N7AFE","3KIBXJ1WD70GES7AX4QSPI8GOBKOKA","emotion","mismatch","uniform","","","","","","","","350062.8000000119","352069.1999999881","","","","","","","","","","","","3","","stimuli/stars_3.png","144.5","","","","","stimuli/BF08_FO.jpg","",""
"explore-choice","129","349201","0.0-129.0","p150745","AZ6DQHW7AFKPP","3S1L4CQSFYBD9IN1W8PCJQ1H8N7AFE","3KIBXJ1WD70GES7AX4QSPI8GOBKOKA","emotion","mismatch","uniform","","","","","","","931.7999999821186","352071.40000000596","353003.1999999881","[""stimuli/WM13_DO.jpg"",""stimuli/AM03_HE.jpg"",""stimuli/AF02_FO.jpg"",""stimuli/BF08_HO.jpg""]","stimuli/WM13_DO.jpg","stimuli/AM03_HE.jpg","stimuli/AF02_FO.jpg","stimuli/BF08_HO.jpg","pos1","stimuli/WM13_DO.jpg","DO","WM13","0","2.5","5","6","stimuli/stars_5.png","147","[""DO"",""HE"",""FO"",""HO""]","[""WM13"",""AM03"",""AF02"",""BF08""]","[5,4,8,4]","[6,2,8,4]","","",""
"show-reward","130","351207","0.0-130.0","p150745","AZ6DQHW7AFKPP","3S1L4CQSFYBD9IN1W8PCJQ1H8N7AFE","3KIBXJ1WD70GES7AX4QSPI8GOBKOKA","emotion","mismatch","uniform","","","","","","","","353506.6999999881","355510.90000000596","","","","","","","","","","","","5","","stimuli/stars_5.png","147","","","","","stimuli/WM13_DO.jpg","",""
"explore-choice","131","353007","0.0-131.0","p150745","AZ6DQHW7AFKPP","3S1L4CQSFYBD9IN1W8PCJQ1H8N7AFE","3KIBXJ1WD70GES7AX4QSPI8GOBKOKA","emotion","mismatch","uniform","","","","","","","1289.9000000059605","355513.09999999404","356803","[""stimuli/BF08_HO.jpg"",""stimuli/AF02_HE.jpg"",""stimuli/AM03_DO.jpg"",""stimuli/WM13_FO.jpg""]","stimuli/BF08_HO.jpg","stimuli/AF02_HE.jpg","stimuli/AM03_DO.jpg","stimuli/WM13_FO.jpg","pos4","stimuli/WM13_FO.jpg","FO","WM13","3","3","6","6","stimuli/stars_6.png","150","[""HO"",""HE"",""DO"",""FO""]","[""BF08"",""AF02"",""AM03"",""WM13""]","[3,9,1,6]","[4,8,2,6]","","",""
"show-reward","132","355020","0.0-132.0","p150745","AZ6DQHW7AFKPP","3S1L4CQSFYBD9IN1W8PCJQ1H8N7AFE","3KIBXJ1WD70GES7AX4QSPI8GOBKOKA","emotion","mismatch","uniform","","","","","","","","357312.09999999404","359323.3000000119","","","","","","","","","","","","6","","stimuli/stars_6.png","150","","","","","stimuli/WM13_FO.jpg","",""
"explore-choice","133","356408","0.0-133.0","p150745","AZ6DQHW7AFKPP","3S1L4CQSFYBD9IN1W8PCJQ1H8N7AFE","3KIBXJ1WD70GES7AX4QSPI8GOBKOKA","emotion","mismatch","uniform","","","","","","","878.3999999761581","359325.8000000119","360204.1999999881","[""stimuli/AF02_HE.jpg"",""stimuli/AM03_FO.jpg"",""stimuli/BF08_DO.jpg"",""stimuli/WM13_HO.jpg""]","stimuli/AF02_HE.jpg","stimuli/AM03_FO.jpg","stimuli/BF08_DO.jpg","stimuli/WM13_HO.jpg","pos1","stimuli/AF02_HE.jpg","HE","AF02","0","4","8","8","stimuli/stars_8.png","154","[""HE"",""FO"",""DO"",""HO""]","[""AF02"",""AM03"",""BF08"",""WM13""]","[8,4,6,4]","[8,2,4,6]","","",""
"show-reward","134","358586","0.0-134.0","p150745","AZ6DQHW7AFKPP","3S1L4CQSFYBD9IN1W8PCJQ1H8N7AFE","3KIBXJ1WD70GES7AX4QSPI8GOBKOKA","emotion","mismatch","uniform","","","","","","","","360713.90000000596","362890.5","","","","","","","","","","","","8","","stimuli/stars_8.png","154","","","","","stimuli/AF02_HE.jpg","",""
"explore-choice","135","361534","0.0-135.0","p150745","AZ6DQHW7AFKPP","3S1L4CQSFYBD9IN1W8PCJQ1H8N7AFE","3KIBXJ1WD70GES7AX4QSPI8GOBKOKA","emotion","mismatch","uniform","","","","","","","2436.9000000059605","362891.6999999881","365328.59999999404","[""stimuli/WM13_HE.jpg"",""stimuli/AF02_DO.jpg"",""stimuli/BF08_HO.jpg"",""stimuli/AM03_FO.jpg""]","stimuli/WM13_HE.jpg","stimuli/AF02_DO.jpg","stimuli/BF08_HO.jpg","stimuli/AM03_FO.jpg","pos2","stimuli/AF02_DO.jpg","DO","AF02","1","3","6","8","stimuli/stars_6.png","157","[""HE"",""DO"",""HO"",""FO""]","[""WM13"",""AF02"",""BF08"",""AM03""]","[5,6,2,1]","[6,8,4,2]","","",""
"show-reward","136","363554","0.0-136.0","p150745","AZ6DQHW7AFKPP","3S1L4CQSFYBD9IN1W8PCJQ1H8N7AFE","3KIBXJ1WD70GES7AX4QSPI8GOBKOKA","emotion","mismatch","uniform","","","","","","","","365839.90000000596","367858.6999999881","","","","","","","","","","","","6","","stimuli/stars_6.png","157","","","","","stimuli/AF02_DO.jpg","",""
"explore-choice","137","365118","0.0-137.0","p150745","AZ6DQHW7AFKPP","3S1L4CQSFYBD9IN1W8PCJQ1H8N7AFE","3KIBXJ1WD70GES7AX4QSPI8GOBKOKA","emotion","mismatch","uniform","","","","","","","1061.2999999821186","367860.3000000119","368921.59999999404","[""stimuli/AF02_FO.jpg"",""stimuli/AM03_DO.jpg"",""stimuli/WM13_HO.jpg"",""stimuli/BF08_HE.jpg""]","stimuli/AF02_FO.jpg","stimuli/AM03_DO.jpg","stimuli/WM13_HO.jpg","stimuli/BF08_HE.jpg","pos4","stimuli/BF08_HE.jpg","HE","BF08","3","2","4","4","stimuli/stars_4.png","159","[""FO"",""DO"",""HO"",""HE""]","[""AF02"",""AM03"",""WM13"",""BF08""]","[7,3,4,4]","[8,2,6,4]","","",""
"show-reward","138","367125","0.0-138.0","p150745","AZ6DQHW7AFKPP","3S1L4CQSFYBD9IN1W8PCJQ1H8N7AFE","3KIBXJ1WD70GES7AX4QSPI8GOBKOKA","emotion","mismatch","uniform","","","","","","","","369423.3000000119","371429.6999999881","","","","","","","","","","","","4","","stimuli/stars_4.png","159","","","","","stimuli/BF08_HE.jpg","",""
"explore-choice","139","368599","0.0-139.0","p150745","AZ6DQHW7AFKPP","3S1L4CQSFYBD9IN1W8PCJQ1H8N7AFE","3KIBXJ1WD70GES7AX4QSPI8GOBKOKA","emotion","mismatch","uniform","","","","","","","971.1999999880791","371430.90000000596","372402.09999999404","[""stimuli/AM03_HE.jpg"",""stimuli/WM13_DO.jpg"",""stimuli/AF02_HO.jpg"",""stimuli/BF08_FO.jpg""]","stimuli/AM03_HE.jpg","stimuli/WM13_DO.jpg","stimuli/AF02_HO.jpg","stimuli/BF08_FO.jpg","pos4","stimuli/BF08_FO.jpg","FO","BF08","3","1.5","3","4","stimuli/stars_3.png","160.5","[""HE"",""DO"",""HO"",""FO""]","[""AM03"",""WM13"",""AF02"",""BF08""]","[4,5,8,3]","[2,6,8,4]","","",""
"show-reward","140","370617","0.0-140.0","p150745","AZ6DQHW7AFKPP","3S1L4CQSFYBD9IN1W8PCJQ1H8N7AFE","3KIBXJ1WD70GES7AX4QSPI8GOBKOKA","emotion","mismatch","uniform","","","","","","","","372904.8000000119","374919.3000000119","","","","","","","","","","","","3","","stimuli/stars_3.png","160.5","","","","","stimuli/BF08_FO.jpg","",""
"explore-choice","141","372130","0.0-141.0","p150745","AZ6DQHW7AFKPP","3S1L4CQSFYBD9IN1W8PCJQ1H8N7AFE","3KIBXJ1WD70GES7AX4QSPI8GOBKOKA","emotion","mismatch","uniform","","","","","","","1012","374920.90000000596","375932.90000000596","[""stimuli/WM13_FO.jpg"",""stimuli/AM03_DO.jpg"",""stimuli/AF02_HO.jpg"",""stimuli/BF08_HE.jpg""]","stimuli/WM13_FO.jpg","stimuli/AM03_DO.jpg","stimuli/AF02_HO.jpg","stimuli/BF08_HE.jpg","pos1","stimuli/WM13_FO.jpg","FO","WM13","0","2.5","5","6","stimuli/stars_5.png","163","[""FO"",""DO"",""HO"",""HE""]","[""WM13"",""AM03"",""AF02"",""BF08""]","[5,2,8,3]","[6,2,8,4]","","",""
"show-reward","142","374135","0.0-142.0","p150745","AZ6DQHW7AFKPP","3S1L4CQSFYBD9IN1W8PCJQ1H8N7AFE","3KIBXJ1WD70GES7AX4QSPI8GOBKOKA","emotion","mismatch","uniform","","","","","","","","376434.90000000596","378437.8000000119","","","","","","","","","","","","5","","stimuli/stars_5.png","163","","","","","stimuli/WM13_FO.jpg","",""
"explore-choice","143","375549","0.0-143.0","p150745","AZ6DQHW7AFKPP","3S1L4CQSFYBD9IN1W8PCJQ1H8N7AFE","3KIBXJ1WD70GES7AX4QSPI8GOBKOKA","emotion","mismatch","uniform","","","","","","","911.9000000059605","378439.90000000596","379351.8000000119","[""stimuli/AM03_HO.jpg"",""stimuli/WM13_DO.jpg"",""stimuli/AF02_FO.jpg"",""stimuli/BF08_HE.jpg""]","stimuli/AM03_HO.jpg","stimuli/WM13_DO.jpg","stimuli/AF02_FO.jpg","stimuli/BF08_HE.jpg","pos2","stimuli/WM13_DO.jpg","DO","WM13","1","2","4","6","stimuli/stars_4.png","165","[""HO"",""DO"",""FO"",""HE""]","[""AM03"",""WM13"",""AF02"",""BF08""]","[0,4,10,6]","[2,6,8,4]","","",""
"show-reward","144","377554","0.0-144.0","p150745","AZ6DQHW7AFKPP","3S1L4CQSFYBD9IN1W8PCJQ1H8N7AFE","3KIBXJ1WD70GES7AX4QSPI8GOBKOKA","emotion","mismatch","uniform","","","","","","","","379853.90000000596","381856.6999999881","","","","","","","","","","","","4","","stimuli/stars_4.png","165","","","","","stimuli/WM13_DO.jpg","",""
"explore-choice","145","379176","0.0-145.0","p150745","AZ6DQHW7AFKPP","3S1L4CQSFYBD9IN1W8PCJQ1H8N7AFE","3KIBXJ1WD70GES7AX4QSPI8GOBKOKA","emotion","mismatch","uniform","","","","","","","1120.5","381857.8000000119","382978.3000000119","[""stimuli/WM13_HE.jpg"",""stimuli/BF08_FO.jpg"",""stimuli/AF02_DO.jpg"",""stimuli/AM03_HO.jpg""]","stimuli/WM13_HE.jpg","stimuli/BF08_FO.jpg","stimuli/AF02_DO.jpg","stimuli/AM03_HO.jpg","pos4","stimuli/AM03_HO.jpg","HO","AM03","3","0.5","1","2","stimuli/stars_1.png","165.5","[""HE"",""FO"",""DO"",""HO""]","[""WM13"",""BF08"",""AF02"",""AM03""]","[8,6,10,1]","[6,4,8,2]","","",""
"show-reward","146","381181","0.0-146.0","p150745","AZ6DQHW7AFKPP","3S1L4CQSFYBD9IN1W8PCJQ1H8N7AFE","3KIBXJ1WD70GES7AX4QSPI8GOBKOKA","emotion","mismatch","uniform","","","","","","","","383481.3000000119","385484.5","","","","","","","","","","","","1","","stimuli/stars_1.png","165.5","","","","","stimuli/AM03_HO.jpg","",""
"explore-choice","147","382739","0.0-147.0","p150745","AZ6DQHW7AFKPP","3S1L4CQSFYBD9IN1W8PCJQ1H8N7AFE","3KIBXJ1WD70GES7AX4QSPI8GOBKOKA","emotion","mismatch","uniform","","","","","","","1055.800000011921","385486.09999999404","386541.90000000596","[""stimuli/WM13_FO.jpg"",""stimuli/AF02_HE.jpg"",""stimuli/AM03_HO.jpg"",""stimuli/BF08_DO.jpg""]","stimuli/WM13_FO.jpg","stimuli/AF02_HE.jpg","stimuli/AM03_HO.jpg","stimuli/BF08_DO.jpg","pos2","stimuli/AF02_HE.jpg","HE","AF02","1","3.5","7","8","stimuli/stars_7.png","169","[""FO"",""HE"",""HO"",""DO""]","[""WM13"",""AF02"",""AM03"",""BF08""]","[4,7,1,5]","[6,8,2,4]","","",""
"show-reward","148","384755","0.0-148.0","p150745","AZ6DQHW7AFKPP","3S1L4CQSFYBD9IN1W8PCJQ1H8N7AFE","3KIBXJ1WD70GES7AX4QSPI8GOBKOKA","emotion","mismatch","uniform","","","","","","","","387043.59999999404","389058","","","","","","","","","","","","7","","stimuli/stars_7.png","169","","","","","stimuli/AF02_HE.jpg","",""
"explore-choice","149","386771","0.0-149.0","p150745","AZ6DQHW7AFKPP","3S1L4CQSFYBD9IN1W8PCJQ1H8N7AFE","3KIBXJ1WD70GES7AX4QSPI8GOBKOKA","emotion","mismatch","uniform","","","","","","","1513.2999999821186","389059.8000000119","390573.09999999404","[""stimuli/AM03_HE.jpg"",""stimuli/BF08_HO.jpg"",""stimuli/WM13_FO.jpg"",""stimuli/AF02_DO.jpg""]","stimuli/AM03_HE.jpg","stimuli/BF08_HO.jpg","stimuli/WM13_FO.jpg","stimuli/AF02_DO.jpg","pos4","stimuli/AF02_DO.jpg","DO","AF02","3","5","10","8","stimuli/stars_10.png","174","[""HE"",""HO"",""FO"",""DO""]","[""AM03"",""BF08"",""WM13"",""AF02""]","[1,5,7,10]","[2,4,6,8]","","",""
"show-reward","150","388777","0.0-150.0","p150745","AZ6DQHW7AFKPP","3S1L4CQSFYBD9IN1W8PCJQ1H8N7AFE","3KIBXJ1WD70GES7AX4QSPI8GOBKOKA","emotion","mismatch","uniform","","","","","","","","391075.09999999404","393080.09999999404","","","","","","","","","","","","10","","stimuli/stars_10.png","174","","","","","stimuli/AF02_DO.jpg","",""
"explore-choice","151","390390","0.0-151.0","p150745","AZ6DQHW7AFKPP","3S1L4CQSFYBD9IN1W8PCJQ1H8N7AFE","3KIBXJ1WD70GES7AX4QSPI8GOBKOKA","emotion","mismatch","uniform","","","","","","","1111.300000011921","393081.6999999881","394193","[""stimuli/AF02_HE.jpg"",""stimuli/BF08_FO.jpg"",""stimuli/WM13_HO.jpg"",""stimuli/AM03_DO.jpg""]","stimuli/AF02_HE.jpg","stimuli/BF08_FO.jpg","stimuli/WM13_HO.jpg","stimuli/AM03_DO.jpg","pos1","stimuli/AF02_HE.jpg","HE","AF02","0","3","6","8","stimuli/stars_6.png","177","[""HE"",""FO"",""HO"",""DO""]","[""AF02"",""BF08"",""WM13"",""AM03""]","[6,3,6,3]","[8,4,6,2]","","",""
"show-reward","152","392398","0.0-152.0","p150745","AZ6DQHW7AFKPP","3S1L4CQSFYBD9IN1W8PCJQ1H8N7AFE","3KIBXJ1WD70GES7AX4QSPI8GOBKOKA","emotion","mismatch","uniform","","","","","","","","394694.8000000119","396700.40000000596","","","","","","","","","","","","6","","stimuli/stars_6.png","177","","","","","stimuli/AF02_HE.jpg","",""
"explore-choice","153","394766","0.0-153.0","p150745","AZ6DQHW7AFKPP","3S1L4CQSFYBD9IN1W8PCJQ1H8N7AFE","3KIBXJ1WD70GES7AX4QSPI8GOBKOKA","emotion","mismatch","uniform","","","","","","","1850.7999999821186","396702.40000000596","398553.1999999881","[""stimuli/WM13_DO.jpg"",""stimuli/AF02_HE.jpg"",""stimuli/BF08_HO.jpg"",""stimuli/AM03_FO.jpg""]","stimuli/WM13_DO.jpg","stimuli/AF02_HE.jpg","stimuli/BF08_HO.jpg","stimuli/AM03_FO.jpg","pos4","stimuli/AM03_FO.jpg","FO","AM03","3","1.5","3","2","stimuli/stars_3.png","178.5","[""DO"",""HE"",""HO"",""FO""]","[""WM13"",""AF02"",""BF08"",""AM03""]","[6,7,3,3]","[6,8,4,2]","","",""
"show-reward","154","396772","0.0-154.0","p150745","AZ6DQHW7AFKPP","3S1L4CQSFYBD9IN1W8PCJQ1H8N7AFE","3KIBXJ1WD70GES7AX4QSPI8GOBKOKA","emotion","mismatch","uniform","","","","","","","","399070.8000000119","401074.1999999881","","","","","","","","","","","","3","","stimuli/stars_3.png","178.5","","","","","stimuli/AM03_FO.jpg","",""
"explore-choice","155","419823","0.0-155.0","p150745","AZ6DQHW7AFKPP","3S1L4CQSFYBD9IN1W8PCJQ1H8N7AFE","3KIBXJ1WD70GES7AX4QSPI8GOBKOKA","emotion","mismatch","uniform","","","","","","","22549.30000001192","401076.1999999881","423625.5","[""stimuli/WM13_HE.jpg"",""stimuli/AF02_HO.jpg"",""stimuli/AM03_FO.jpg"",""stimuli/BF08_DO.jpg""]","stimuli/WM13_HE.jpg","stimuli/AF02_HO.jpg","stimuli/AM03_FO.jpg","stimuli/BF08_DO.jpg","pos1","stimuli/WM13_HE.jpg","HE","WM13","0","4","8","6","stimuli/stars_8.png","182.5","[""HE"",""HO"",""FO"",""DO""]","[""WM13"",""AF02"",""AM03"",""BF08""]","[8,6,1,4]","[6,8,2,4]","","",""
"show-reward","156","421828","0.0-156.0","p150745","AZ6DQHW7AFKPP","3S1L4CQSFYBD9IN1W8PCJQ1H8N7AFE","3KIBXJ1WD70GES7AX4QSPI8GOBKOKA","emotion","mismatch","uniform","","","","","","","","424128.1999999881","426131","","","","","","","","","","","","8","","stimuli/stars_8.png","182.5","","","","","stimuli/WM13_HE.jpg","",""
"explore-choice","157","427270","0.0-157.0","p150745","AZ6DQHW7AFKPP","3S1L4CQSFYBD9IN1W8PCJQ1H8N7AFE","3KIBXJ1WD70GES7AX4QSPI8GOBKOKA","emotion","mismatch","uniform","","","","","","","4938.699999988079","426132.90000000596","431071.59999999404","[""stimuli/AM03_DO.jpg"",""stimuli/AF02_FO.jpg"",""stimuli/BF08_HE.jpg"",""stimuli/WM13_HO.jpg""]","stimuli/AM03_DO.jpg","stimuli/AF02_FO.jpg","stimuli/BF08_HE.jpg","stimuli/WM13_HO.jpg","pos2","stimuli/AF02_FO.jpg","FO","AF02","1","3.5","7","8","stimuli/stars_7.png","186","[""DO"",""FO"",""HE"",""HO""]","[""AM03"",""AF02"",""BF08"",""WM13""]","[3,7,4,4]","[2,8,4,6]","","",""
"show-reward","158","429477","0.0-158.0","p150745","AZ6DQHW7AFKPP","3S1L4CQSFYBD9IN1W8PCJQ1H8N7AFE","3KIBXJ1WD70GES7AX4QSPI8GOBKOKA","emotion","mismatch","uniform","","","","","","","","431575.09999999404","433779.8000000119","","","","","","","","","","","","7","","stimuli/stars_7.png","186","","","","","stimuli/AF02_FO.jpg","",""
"explore-choice","159","432125","0.0-159.0","p150745","AZ6DQHW7AFKPP","3S1L4CQSFYBD9IN1W8PCJQ1H8N7AFE","3KIBXJ1WD70GES7AX4QSPI8GOBKOKA","emotion","mismatch","uniform","","","","","","","2140.0999999940395","433780.90000000596","435921","[""stimuli/AF02_DO.jpg"",""stimuli/AM03_HO.jpg"",""stimuli/BF08_FO.jpg"",""stimuli/WM13_HE.jpg""]","stimuli/AF02_DO.jpg","stimuli/AM03_HO.jpg","stimuli/BF08_FO.jpg","stimuli/WM13_HE.jpg","pos1","stimuli/AF02_DO.jpg","DO","AF02","0","5","10","8","stimuli/stars_10.png","191","[""DO"",""HO"",""FO"",""HE""]","[""AF02"",""AM03"",""BF08"",""WM13""]","[10,1,6,8]","[8,2,4,6]","","",""
"show-reward","160","434136","0.0-160.0","p150745","AZ6DQHW7AFKPP","3S1L4CQSFYBD9IN1W8PCJQ1H8N7AFE","3KIBXJ1WD70GES7AX4QSPI8GOBKOKA","emotion","mismatch","uniform","","","","","","","","436427.90000000596","438436.59999999404","","","","","","","","","","","","10","","stimuli/stars_10.png","191","","","","","stimuli/AF02_DO.jpg","",""
"explore-choice","161","437813","0.0-161.0","p150745","AZ6DQHW7AFKPP","3S1L4CQSFYBD9IN1W8PCJQ1H8N7AFE","3KIBXJ1WD70GES7AX4QSPI8GOBKOKA","emotion","mismatch","uniform","","","","","","","3173.100000023842","438439.1999999881","441612.3000000119","[""stimuli/AM03_HO.jpg"",""stimuli/AF02_FO.jpg"",""stimuli/BF08_HE.jpg"",""stimuli/WM13_DO.jpg""]","stimuli/AM03_HO.jpg","stimuli/AF02_FO.jpg","stimuli/BF08_HE.jpg","stimuli/WM13_DO.jpg","pos2","stimuli/AF02_FO.jpg","FO","AF02","1","5","10","8","stimuli/stars_10.png","196","[""HO"",""FO"",""HE"",""DO""]","[""AM03"",""AF02"",""BF08"",""WM13""]","[0,10,6,4]","[2,8,4,6]","","",""
"show-reward","162","439819","0.0-162.0","p150745","AZ6DQHW7AFKPP","3S1L4CQSFYBD9IN1W8PCJQ1H8N7AFE","3KIBXJ1WD70GES7AX4QSPI8GOBKOKA","emotion","mismatch","uniform","","","","","","","","442116.40000000596","444119.8000000119","","","","","","","","","","","","10","","stimuli/stars_10.png","196","","","","","stimuli/AF02_FO.jpg","",""
"explore-choice","163","441340","0.0-163.0","p150745","AZ6DQHW7AFKPP","3S1L4CQSFYBD9IN1W8PCJQ1H8N7AFE","3KIBXJ1WD70GES7AX4QSPI8GOBKOKA","emotion","mismatch","uniform","","","","","","","1019.2999999821186","444121.8000000119","445141.09999999404","[""stimuli/AM03_HO.jpg"",""stimuli/BF08_FO.jpg"",""stimuli/AF02_HE.jpg"",""stimuli/WM13_DO.jpg""]","stimuli/AM03_HO.jpg","stimuli/BF08_FO.jpg","stimuli/AF02_HE.jpg","stimuli/WM13_DO.jpg","pos1","stimuli/AM03_HO.jpg","HO","AM03","0","0.5","1","2","stimuli/stars_1.png","196.5","[""HO"",""FO"",""HE"",""DO""]","[""AM03"",""BF08"",""AF02"",""WM13""]","[1,4,7,7]","[2,4,8,6]","","",""
"show-reward","164","443348","0.0-164.0","p150745","AZ6DQHW7AFKPP","3S1L4CQSFYBD9IN1W8PCJQ1H8N7AFE","3KIBXJ1WD70GES7AX4QSPI8GOBKOKA","emotion","mismatch","uniform","","","","","","","","445643.1999999881","447649.40000000596","","","","","","","","","","","","1","","stimuli/stars_1.png","196.5","","","","","stimuli/AM03_HO.jpg","",""
"explore-choice","165","444913","0.0-165.0","p150745","AZ6DQHW7AFKPP","3S1L4CQSFYBD9IN1W8PCJQ1H8N7AFE","3KIBXJ1WD70GES7AX4QSPI8GOBKOKA","emotion","mismatch","uniform","","","","","","","1059.5999999940395","447651.40000000596","448711","[""stimuli/BF08_DO.jpg"",""stimuli/AF02_HO.jpg"",""stimuli/WM13_FO.jpg"",""stimuli/AM03_HE.jpg""]","stimuli/BF08_DO.jpg","stimuli/AF02_HO.jpg","stimuli/WM13_FO.jpg","stimuli/AM03_HE.jpg","pos4","stimuli/AM03_HE.jpg","HE","AM03","3","1","2","2","stimuli/stars_2.png","197.5","[""DO"",""HO"",""FO"",""HE""]","[""BF08"",""AF02"",""WM13"",""AM03""]","[4,10,4,2]","[4,8,6,2]","","",""
"show-reward","166","446917","0.0-166.0","p150745","AZ6DQHW7AFKPP","3S1L4CQSFYBD9IN1W8PCJQ1H8N7AFE","3KIBXJ1WD70GES7AX4QSPI8GOBKOKA","emotion","mismatch","uniform","","","","","","","","449215.6999999881","451218.3000000119","","","","","","","","","","","","2","","stimuli/stars_2.png","197.5","","","","","stimuli/AM03_HE.jpg","",""
"explore-choice","167","447490","0.0-167.0","p150745","AZ6DQHW7AFKPP","3S1L4CQSFYBD9IN1W8PCJQ1H8N7AFE","3KIBXJ1WD70GES7AX4QSPI8GOBKOKA","emotion","mismatch","uniform","","","","","","","71.39999997615814","451219.8000000119","451291.1999999881","[""stimuli/WM13_HO.jpg"",""stimuli/BF08_FO.jpg"",""stimuli/AF02_DO.jpg"",""stimuli/AM03_HE.jpg""]","stimuli/WM13_HO.jpg","stimuli/BF08_FO.jpg","stimuli/AF02_DO.jpg","stimuli/AM03_HE.jpg","pos2","stimuli/BF08_FO.jpg","FO","BF08","1","1.5","3","4","stimuli/stars_3.png","199","[""HO"",""FO"",""DO"",""HE""]","[""WM13"",""BF08"",""AF02"",""AM03""]","[7,3,9,0]","[6,4,8,2]","","",""
"show-reward","168","449497","0.0-168.0","p150745","AZ6DQHW7AFKPP","3S1L4CQSFYBD9IN1W8PCJQ1H8N7AFE","3KIBXJ1WD70GES7AX4QSPI8GOBKOKA","emotion","mismatch","uniform","","","","","","","","451793.3000000119","453798.3000000119","","","","","","","","","","","","3","","stimuli/stars_3.png","199","","","","","stimuli/BF08_FO.jpg","",""
"explore-choice","169","453695","0.0-169.0","p150745","AZ6DQHW7AFKPP","3S1L4CQSFYBD9IN1W8PCJQ1H8N7AFE","3KIBXJ1WD70GES7AX4QSPI8GOBKOKA","emotion","mismatch","uniform","","","","","","","3694.7999999821186","453799.90000000596","457494.6999999881","[""stimuli/BF08_FO.jpg"",""stimuli/AF02_HO.jpg"",""stimuli/WM13_DO.jpg"",""stimuli/AM03_HE.jpg""]","stimuli/BF08_FO.jpg","stimuli/AF02_HO.jpg","stimuli/WM13_DO.jpg","stimuli/AM03_HE.jpg","pos4","stimuli/AM03_HE.jpg","HE","AM03","3","2","4","2","stimuli/stars_4.png","201","[""FO"",""HO"",""DO"",""HE""]","[""BF08"",""AF02"",""WM13"",""AM03""]","[3,8,5,4]","[4,8,6,2]","","",""
"show-reward","170","455702","0.0-170.0","p150745","AZ6DQHW7AFKPP","3S1L4CQSFYBD9IN1W8PCJQ1H8N7AFE","3KIBXJ1WD70GES7AX4QSPI8GOBKOKA","emotion","mismatch","uniform","","","","","","","","457999.1999999881","460003.3000000119","","","","","","","","","","","","4","","stimuli/stars_4.png","201","","","","","stimuli/AM03_HE.jpg","",""
"explore-choice","171","458453","0.0-171.0","p150745","AZ6DQHW7AFKPP","3S1L4CQSFYBD9IN1W8PCJQ1H8N7AFE","3KIBXJ1WD70GES7AX4QSPI8GOBKOKA","emotion","mismatch","uniform","","","","","","","2248.7000000178814","460004.59999999404","462253.3000000119","[""stimuli/AM03_HO.jpg"",""stimuli/AF02_FO.jpg"",""stimuli/BF08_DO.jpg"",""stimuli/WM13_HE.jpg""]","stimuli/AM03_HO.jpg","stimuli/AF02_FO.jpg","stimuli/BF08_DO.jpg","stimuli/WM13_HE.jpg","pos2","stimuli/AF02_FO.jpg","FO","AF02","1","4.5","9","8","stimuli/stars_9.png","205.5","[""HO"",""FO"",""DO"",""HE""]","[""AM03"",""AF02"",""BF08"",""WM13""]","[0,9,4,7]","[2,8,4,6]","","",""
"show-reward","172","460461","0.0-172.0","p150745","AZ6DQHW7AFKPP","3S1L4CQSFYBD9IN1W8PCJQ1H8N7AFE","3KIBXJ1WD70GES7AX4QSPI8GOBKOKA","emotion","mismatch","uniform","","","","","","","","462756.09999999404","464762.3000000119","","","","","","","","","","","","9","","stimuli/stars_9.png","205.5","","","","","stimuli/AF02_FO.jpg","",""
"explore-choice","173","466721","0.0-173.0","p150745","AZ6DQHW7AFKPP","3S1L4CQSFYBD9IN1W8PCJQ1H8N7AFE","3KIBXJ1WD70GES7AX4QSPI8GOBKOKA","emotion","mismatch","uniform","","","","","","","5757.300000011921","464764.1999999881","470521.5","[""stimuli/AM03_HE.jpg"",""stimuli/AF02_FO.jpg"",""stimuli/WM13_HO.jpg"",""stimuli/BF08_DO.jpg""]","stimuli/AM03_HE.jpg","stimuli/AF02_FO.jpg","stimuli/WM13_HO.jpg","stimuli/BF08_DO.jpg","pos1","stimuli/AM03_HE.jpg","HE","AM03","0","1.5","3","2","stimuli/stars_3.png","207","[""HE"",""FO"",""HO"",""DO""]","[""AM03"",""AF02"",""WM13"",""BF08""]","[3,8,8,2]","[2,8,6,4]","","",""
"show-reward","174","468740","0.0-174.0","p150745","AZ6DQHW7AFKPP","3S1L4CQSFYBD9IN1W8PCJQ1H8N7AFE","3KIBXJ1WD70GES7AX4QSPI8GOBKOKA","emotion","mismatch","uniform","","","","","","","","471025.09999999404","473040.3000000119","","","","","","","","","","","","3","","stimuli/stars_3.png","207","","","","","stimuli/AM03_HE.jpg","",""
"explore-choice","175","470320","0.0-175.0","p150745","AZ6DQHW7AFKPP","3S1L4CQSFYBD9IN1W8PCJQ1H8N7AFE","3KIBXJ1WD70GES7AX4QSPI8GOBKOKA","emotion","mismatch","uniform","","","","","","","1076.4000000059605","473043.40000000596","474119.8000000119","[""stimuli/WM13_FO.jpg"",""stimuli/AM03_HO.jpg"",""stimuli/AF02_HE.jpg"",""stimuli/BF08_DO.jpg""]","stimuli/WM13_FO.jpg","stimuli/AM03_HO.jpg","stimuli/AF02_HE.jpg","stimuli/BF08_DO.jpg","pos2","stimuli/AM03_HO.jpg","HO","AM03","1","0.5","1","2","stimuli/stars_1.png","207.5","[""FO"",""HO"",""HE"",""DO""]","[""WM13"",""AM03"",""AF02"",""BF08""]","[4,1,7,5]","[6,2,8,4]","","",""
"show-reward","176","472323","0.0-176.0","p150745","AZ6DQHW7AFKPP","3S1L4CQSFYBD9IN1W8PCJQ1H8N7AFE","3KIBXJ1WD70GES7AX4QSPI8GOBKOKA","emotion","mismatch","uniform","","","","","","","","474623","476624.90000000596","","","","","","","","","","","","1","","stimuli/stars_1.png","207.5","","","","","stimuli/AM03_HO.jpg","",""
"explore-choice","177","474501","0.0-177.0","p150745","AZ6DQHW7AFKPP","3S1L4CQSFYBD9IN1W8PCJQ1H8N7AFE","3KIBXJ1WD70GES7AX4QSPI8GOBKOKA","emotion","mismatch","uniform","","","","","","","1674","476626.40000000596","478300.40000000596","[""stimuli/WM13_HO.jpg"",""stimuli/AM03_FO.jpg"",""stimuli/BF08_HE.jpg"",""stimuli/AF02_DO.jpg""]","stimuli/WM13_HO.jpg","stimuli/AM03_FO.jpg","stimuli/BF08_HE.jpg","stimuli/AF02_DO.jpg","pos4","stimuli/AF02_DO.jpg","DO","AF02","3","3","6","8","stimuli/stars_6.png","210.5","[""HO"",""FO"",""HE"",""DO""]","[""WM13"",""AM03"",""BF08"",""AF02""]","[5,2,5,6]","[6,2,4,8]","","",""
"show-reward","178","476505","0.0-178.0","p150745","AZ6DQHW7AFKPP","3S1L4CQSFYBD9IN1W8PCJQ1H8N7AFE","3KIBXJ1WD70GES7AX4QSPI8GOBKOKA","emotion","mismatch","uniform","","","","","","","","478803.6999999881","480806.40000000596","","","","","","","","","","","","6","","stimuli/stars_6.png","210.5","","","","","stimuli/AF02_DO.jpg","",""
"explore-choice","179","478211","0.0-179.0","p150745","AZ6DQHW7AFKPP","3S1L4CQSFYBD9IN1W8PCJQ1H8N7AFE","3KIBXJ1WD70GES7AX4QSPI8GOBKOKA","emotion","mismatch","uniform","","","","","","","1184.2000000178814","480808.09999999404","481992.3000000119","[""stimuli/BF08_FO.jpg"",""stimuli/WM13_HE.jpg"",""stimuli/AM03_DO.jpg"",""stimuli/AF02_HO.jpg""]","stimuli/BF08_FO.jpg","stimuli/WM13_HE.jpg","stimuli/AM03_DO.jpg","stimuli/AF02_HO.jpg","pos1","stimuli/BF08_FO.jpg","FO","BF08","0","1.5","3","4","stimuli/stars_3.png","212","[""FO"",""HE"",""DO"",""HO""]","[""BF08"",""WM13"",""AM03"",""AF02""]","[3,8,4,6]","[4,6,2,8]","","",""
"show-reward","180","480217","0.0-180.0","p150745","AZ6DQHW7AFKPP","3S1L4CQSFYBD9IN1W8PCJQ1H8N7AFE","3KIBXJ1WD70GES7AX4QSPI8GOBKOKA","emotion","mismatch","uniform","","","","","","","","482514.59999999404","484518.09999999404","","","","","","","","","","","","3","","stimuli/stars_3.png","212","","","","","stimuli/BF08_FO.jpg","",""
"explore-choice","181","481354","0.0-181.0","p150745","AZ6DQHW7AFKPP","3S1L4CQSFYBD9IN1W8PCJQ1H8N7AFE","3KIBXJ1WD70GES7AX4QSPI8GOBKOKA","emotion","mismatch","uniform","","","","","","","630.9000000059605","484520.09999999404","485151","[""stimuli/WM13_DO.jpg"",""stimuli/AM03_FO.jpg"",""stimuli/AF02_HO.jpg"",""stimuli/BF08_HE.jpg""]","stimuli/WM13_DO.jpg","stimuli/AM03_FO.jpg","stimuli/AF02_HO.jpg","stimuli/BF08_HE.jpg","pos1","stimuli/WM13_DO.jpg","DO","WM13","0","3","6","6","stimuli/stars_6.png","215","[""DO"",""FO"",""HO"",""HE""]","[""WM13"",""AM03"",""AF02"",""BF08""]","[6,0,6,5]","[6,2,8,4]","","",""
"show-reward","182","483359","0.0-182.0","p150745","AZ6DQHW7AFKPP","3S1L4CQSFYBD9IN1W8PCJQ1H8N7AFE","3KIBXJ1WD70GES7AX4QSPI8GOBKOKA","emotion","mismatch","uniform","","","","","","","","485658","487660.6999999881","","","","","","","","","","","","6","","stimuli/stars_6.png","215","","","","","stimuli/WM13_DO.jpg","",""
"explore-choice","183","485129","0.0-183.0","p150745","AZ6DQHW7AFKPP","3S1L4CQSFYBD9IN1W8PCJQ1H8N7AFE","3KIBXJ1WD70GES7AX4QSPI8GOBKOKA","emotion","mismatch","uniform","","","","","","","1268","487662.09999999404","488930.09999999404","[""stimuli/AM03_HE.jpg"",""stimuli/BF08_HO.jpg"",""stimuli/WM13_DO.jpg"",""stimuli/AF02_FO.jpg""]","stimuli/AM03_HE.jpg","stimuli/BF08_HO.jpg","stimuli/WM13_DO.jpg","stimuli/AF02_FO.jpg","pos1","stimuli/AM03_HE.jpg","HE","AM03","0","2","4","2","stimuli/stars_4.png","217","[""HE"",""HO"",""DO"",""FO""]","[""AM03"",""BF08"",""WM13"",""AF02""]","[4,4,5,8]","[2,4,6,8]","","",""
"show-reward","184","487133","0.0-184.0","p150745","AZ6DQHW7AFKPP","3S1L4CQSFYBD9IN1W8PCJQ1H8N7AFE","3KIBXJ1WD70GES7AX4QSPI8GOBKOKA","emotion","mismatch","uniform","","","","","","","","489432.90000000596","491434.90000000596","","","","","","","","","","","","4","","stimuli/stars_4.png","217","","","","","stimuli/AM03_HE.jpg","",""
"explore-choice","185","488869","0.0-185.0","p150745","AZ6DQHW7AFKPP","3S1L4CQSFYBD9IN1W8PCJQ1H8N7AFE","3KIBXJ1WD70GES7AX4QSPI8GOBKOKA","emotion","mismatch","uniform","","","","","","","1213.2000000178814","491436.1999999881","492649.40000000596","[""stimuli/WM13_FO.jpg"",""stimuli/AF02_HE.jpg"",""stimuli/AM03_DO.jpg"",""stimuli/BF08_HO.jpg""]","stimuli/WM13_FO.jpg","stimuli/AF02_HE.jpg","stimuli/AM03_DO.jpg","stimuli/BF08_HO.jpg","pos2","stimuli/AF02_HE.jpg","HE","AF02","1","4.5","9","8","stimuli/stars_9.png","221.5","[""FO"",""HE"",""DO"",""HO""]","[""WM13"",""AF02"",""AM03"",""BF08""]","[6,9,1,3]","[6,8,2,4]","","",""
"show-reward","186","490876","0.0-186.0","p150745","AZ6DQHW7AFKPP","3S1L4CQSFYBD9IN1W8PCJQ1H8N7AFE","3KIBXJ1WD70GES7AX4QSPI8GOBKOKA","emotion","mismatch","uniform","","","","","","","","493172.09999999404","495175.09999999404","","","","","","","","","","","","9","","stimuli/stars_9.png","221.5","","","","","stimuli/AF02_HE.jpg","",""
"explore-choice","187","498739","0.0-187.0","p150745","AZ6DQHW7AFKPP","3S1L4CQSFYBD9IN1W8PCJQ1H8N7AFE","3KIBXJ1WD70GES7AX4QSPI8GOBKOKA","emotion","mismatch","uniform","","","","","","","7352.5","495177.09999999404","502529.59999999404","[""stimuli/AF02_DO.jpg"",""stimuli/WM13_HE.jpg"",""stimuli/BF08_HO.jpg"",""stimuli/AM03_FO.jpg""]","stimuli/AF02_DO.jpg","stimuli/WM13_HE.jpg","stimuli/BF08_HO.jpg","stimuli/AM03_FO.jpg","pos1","stimuli/AF02_DO.jpg","DO","AF02","0","3","6","8","stimuli/stars_6.png","224.5","[""DO"",""HE"",""HO"",""FO""]","[""AF02"",""WM13"",""BF08"",""AM03""]","[6,5,2,1]","[8,6,4,2]","","",""
"show-reward","188","500754","0.0-188.0","p150745","AZ6DQHW7AFKPP","3S1L4CQSFYBD9IN1W8PCJQ1H8N7AFE","3KIBXJ1WD70GES7AX4QSPI8GOBKOKA","emotion","mismatch","uniform","","","","","","","","503050.3000000119","505053","","","","","","","","","","","","6","","stimuli/stars_6.png","224.5","","","","","stimuli/AF02_DO.jpg","",""
"explore-choice","189","503105","0.0-189.0","p150745","AZ6DQHW7AFKPP","3S1L4CQSFYBD9IN1W8PCJQ1H8N7AFE","3KIBXJ1WD70GES7AX4QSPI8GOBKOKA","emotion","mismatch","uniform","","","","","","","1846.5999999940395","505054.8000000119","506901.40000000596","[""stimuli/WM13_FO.jpg"",""stimuli/BF08_HE.jpg"",""stimuli/AM03_HO.jpg"",""stimuli/AF02_DO.jpg""]","stimuli/WM13_FO.jpg","stimuli/BF08_HE.jpg","stimuli/AM03_HO.jpg","stimuli/AF02_DO.jpg","pos4","stimuli/AF02_DO.jpg","DO","AF02","3","4","8","8","stimuli/stars_8.png","228.5","[""FO"",""HE"",""HO"",""DO""]","[""WM13"",""BF08"",""AM03"",""AF02""]","[6,6,2,8]","[6,4,2,8]","","",""
"show-reward","190","505125","0.0-190.0","p150745","AZ6DQHW7AFKPP","3S1L4CQSFYBD9IN1W8PCJQ1H8N7AFE","3KIBXJ1WD70GES7AX4QSPI8GOBKOKA","emotion","mismatch","uniform","","","","","","","","507405.1999999881","509423.6999999881","","","","","","","","","","","","8","","stimuli/stars_8.png","228.5","","","","","stimuli/AF02_DO.jpg","",""
"explore-choice","191","506794","0.0-191.0","p150745","AZ6DQHW7AFKPP","3S1L4CQSFYBD9IN1W8PCJQ1H8N7AFE","3KIBXJ1WD70GES7AX4QSPI8GOBKOKA","emotion","mismatch","uniform","","","","","","","1164.800000011921","509425.59999999404","510590.40000000596","[""stimuli/AM03_DO.jpg"",""stimuli/AF02_FO.jpg"",""stimuli/BF08_HO.jpg"",""stimuli/WM13_HE.jpg""]","stimuli/AM03_DO.jpg","stimuli/AF02_FO.jpg","stimuli/BF08_HO.jpg","stimuli/WM13_HE.jpg","pos1","stimuli/AM03_DO.jpg","DO","AM03","0","2","4","2","stimuli/stars_4.png","230.5","[""DO"",""FO"",""HO"",""HE""]","[""AM03"",""AF02"",""BF08"",""WM13""]","[4,8,5,7]","[2,8,4,6]","","",""
"show-reward","192","508824","0.0-192.0","p150745","AZ6DQHW7AFKPP","3S1L4CQSFYBD9IN1W8PCJQ1H8N7AFE","3KIBXJ1WD70GES7AX4QSPI8GOBKOKA","emotion","mismatch","uniform","","","","","","","","511094.8000000119","513121.6999999881","","","","","","","","","","","","4","","stimuli/stars_4.png","230.5","","","","","stimuli/AM03_DO.jpg","",""
"explore-choice","193","510628","0.0-193.0","p150745","AZ6DQHW7AFKPP","3S1L4CQSFYBD9IN1W8PCJQ1H8N7AFE","3KIBXJ1WD70GES7AX4QSPI8GOBKOKA","emotion","mismatch","uniform","","","","","","","1300.5","513125.3000000119","514425.8000000119","[""stimuli/WM13_FO.jpg"",""stimuli/AM03_DO.jpg"",""stimuli/AF02_HO.jpg"",""stimuli/BF08_HE.jpg""]","stimuli/WM13_FO.jpg","stimuli/AM03_DO.jpg","stimuli/AF02_HO.jpg","stimuli/BF08_HE.jpg","pos1","stimuli/WM13_FO.jpg","FO","WM13","0","2.5","5","6","stimuli/stars_5.png","233","[""FO"",""DO"",""HO"",""HE""]","[""WM13"",""AM03"",""AF02"",""BF08""]","[5,2,8,3]","[6,2,8,4]","","",""
"show-reward","194","512632","0.0-194.0","p150745","AZ6DQHW7AFKPP","3S1L4CQSFYBD9IN1W8PCJQ1H8N7AFE","3KIBXJ1WD70GES7AX4QSPI8GOBKOKA","emotion","mismatch","uniform","","","","","","","","514929","516931.5","","","","","","","","","","","","5","","stimuli/stars_5.png","233","","","","","stimuli/WM13_FO.jpg","",""
"explore-choice","195","514112","0.0-195.0","p150745","AZ6DQHW7AFKPP","3S1L4CQSFYBD9IN1W8PCJQ1H8N7AFE","3KIBXJ1WD70GES7AX4QSPI8GOBKOKA","emotion","mismatch","uniform","","","","","","","976.0999999940395","516933.3000000119","517909.40000000596","[""stimuli/AM03_FO.jpg"",""stimuli/BF08_DO.jpg"",""stimuli/WM13_HO.jpg"",""stimuli/AF02_HE.jpg""]","stimuli/AM03_FO.jpg","stimuli/BF08_DO.jpg","stimuli/WM13_HO.jpg","stimuli/AF02_HE.jpg","pos2","stimuli/BF08_DO.jpg","DO","BF08","1","3","6","4","stimuli/stars_6.png","236","[""FO"",""DO"",""HO"",""HE""]","[""AM03"",""BF08"",""WM13"",""AF02""]","[4,6,4,8]","[2,4,6,8]","","",""
"show-reward","196","516117","0.0-196.0","p150745","AZ6DQHW7AFKPP","3S1L4CQSFYBD9IN1W8PCJQ1H8N7AFE","3KIBXJ1WD70GES7AX4QSPI8GOBKOKA","emotion","mismatch","uniform","","","","","","","","518413.40000000596","520416.6999999881","","","","","","","","","","","","6","","stimuli/stars_6.png","236","","","","","stimuli/BF08_DO.jpg","",""
"explore-choice","197","520425","0.0-197.0","p150745","AZ6DQHW7AFKPP","3S1L4CQSFYBD9IN1W8PCJQ1H8N7AFE","3KIBXJ1WD70GES7AX4QSPI8GOBKOKA","emotion","mismatch","uniform","","","","","","","3802.699999988079","520418.90000000596","524221.59999999404","[""stimuli/AF02_DO.jpg"",""stimuli/BF08_HO.jpg"",""stimuli/WM13_FO.jpg"",""stimuli/AM03_HE.jpg""]","stimuli/AF02_DO.jpg","stimuli/BF08_HO.jpg","stimuli/WM13_FO.jpg","stimuli/AM03_HE.jpg","pos2","stimuli/BF08_HO.jpg","HO","BF08","1","2.5","5","4","stimuli/stars_5.png","238.5","[""DO"",""HO"",""FO"",""HE""]","[""AF02"",""BF08"",""WM13"",""AM03""]","[10,5,7,1]","[8,4,6,2]","","",""
"show-reward","198","522429","0.0-198.0","p150745","AZ6DQHW7AFKPP","3S1L4CQSFYBD9IN1W8PCJQ1H8N7AFE","3KIBXJ1WD70GES7AX4QSPI8GOBKOKA","emotion","mismatch","uniform","","","","","","","","524725.8000000119","526728.5","","","","","","","","","","","","5","","stimuli/stars_5.png","238.5","","","","","stimuli/BF08_HO.jpg","",""
"instructions","199","524830","0.0-199.0","p150745","AZ6DQHW7AFKPP","3S1L4CQSFYBD9IN1W8PCJQ1H8N7AFE","3KIBXJ1WD70GES7AX4QSPI8GOBKOKA","emotion","mismatch","uniform","","","","","","[{""page_index"":0,""viewing_time"":2399.4000000059605}]","2400.0999999940395","","","","","","","","","","","","","","","","","","","","","","","",""
"survey-text","200","530437","0.0-200.0-0.0","p150745","AZ6DQHW7AFKPP","3S1L4CQSFYBD9IN1W8PCJQ1H8N7AFE","3KIBXJ1WD70GES7AX4QSPI8GOBKOKA","emotion","mismatch","uniform","","","","","","","5593.199999988079","","","","","","","","","","","","","","","","","","","","","","","{""age"":""33""}",""
"survey-text","201","539958","0.0-200.0-1.0","p150745","AZ6DQHW7AFKPP","3S1L4CQSFYBD9IN1W8PCJQ1H8N7AFE","3KIBXJ1WD70GES7AX4QSPI8GOBKOKA","emotion","mismatch","uniform","","","","","","","9516.09999999404","","","","","","","","","","","","","","","","","","","","","","","{""gender"":""female""}",""
"survey-text","202","548949","0.0-200.0-2.0","p150745","AZ6DQHW7AFKPP","3S1L4CQSFYBD9IN1W8PCJQ1H8N7AFE","3KIBXJ1WD70GES7AX4QSPI8GOBKOKA","emotion","mismatch","uniform","","","","","","","8986.199999988079","","","","","","","","","","","","","","","","","","","","","","","{""country"":""United States""}",""
"survey-text","203","560632","0.0-200.0-3.0","p150745","AZ6DQHW7AFKPP","3S1L4CQSFYBD9IN1W8PCJQ1H8N7AFE","3KIBXJ1WD70GES7AX4QSPI8GOBKOKA","emotion","mismatch","uniform","","","","","","","11674.90000000596","","","","","","","","","","","","","","","","","","","","","","","{""language"":""English"",""other_languages"":""""}",""
"survey-multi-select","204","563741","0.0-201.0","p150745","AZ6DQHW7AFKPP","3S1L4CQSFYBD9IN1W8PCJQ1H8N7AFE","3KIBXJ1WD70GES7AX4QSPI8GOBKOKA","emotion","mismatch","uniform","","","","","","","3099.100000023842","","","","","","","","","","","","","","","","","","","","","","","{""race"":[""Black or African American""]}","[0]"
"survey-multi-choice","205","568838","0.0-202.0","p150745","AZ6DQHW7AFKPP","3S1L4CQSFYBD9IN1W8PCJQ1H8N7AFE","3KIBXJ1WD70GES7AX4QSPI8GOBKOKA","emotion","mismatch","uniform","","","","","","","5091.299999982119","","","","","","","","","","","","","","","","","","","","","","","{""education"":""Master's degree""}","[0]"
"survey-text","206","602567","0.0-203.0","p150745","AZ6DQHW7AFKPP","3S1L4CQSFYBD9IN1W8PCJQ1H8N7AFE","3KIBXJ1WD70GES7AX4QSPI8GOBKOKA","emotion","mismatch","uniform","","","","","","","33719.40000000596","","","","","","","","","","","","","","","","","","","","","","","{""patterns"":""none"",""strategy"":""nothing"",""comments"":""no""}",""
