"trial_type","trial_index","time_elapsed","internal_node_id","subject","workerId","hitId","assignmentId","structure_condition","match_condition","noise_type","success","timeout","failed_images","failed_audio","failed_video","view_history","rt","start_time","end_time","stimuli","image1","image2","image3","image4","choiceLocation","choiceImage","choiceEmotion","choiceModel","choice_index","reward_score","reward","reward_score_unadjusted","reward_image","score_after_trial","emotions","models","rewards","rewards_unadjusted","stimulus","response","question_order"
"pavlovia","0","4","0.0-0.0","p292967","A1NFBKUYYVUYWF","3WPCIUYH1BELQU8EB2L3QVOOKYBTD4","3X08E93BHXOJQ7GHV4AXYZH72G766Z","emotion","mismatch","uniform","","","","","","","","","","","","","","","","","","","","","","","","","","","","","","",""
"preload","1","316919","0.0-1.0","p292967","A1NFBKUYYVUYWF","3WPCIUYH1BELQU8EB2L3QVOOKYBTD4","3X08E93BHXOJQ7GHV4AXYZH72G766Z","emotion","mismatch","uniform","true","false","[]","[]","[]","","","","","","","","","","","","","","","","","","","","","","","","","",""
"fullscreen","2","320505","0.0-2.0","p292967","A1NFBKUYYVUYWF","3WPCIUYH1BELQU8EB2L3QVOOKYBTD4","3X08E93BHXOJQ7GHV4AXYZH72G766Z","emotion","mismatch","uniform","true","","","","","","","","","","","","","","","","","","","","","","","","","","","","","",""
"instructions","3","325812","0.0-3.0","p292967","A1NFBKUYYVUYWF","3WPCIUYH1BELQU8EB2L3QVOOKYBTD4","3X08E93BHXOJQ7GHV4AXYZH72G766Z","emotion","mismatch","uniform","","","","","","[{""page_index"":0,""viewing_time"":5304}]","5305","","","","","","","","","","","","","","","","","","","","","","","",""
"explore-choice","4","328954","0.0-4.0","p292967","A1NFBKUYYVUYWF","3WPCIUYH1BELQU8EB2L3QVOOKYBTD4","3X08E93BHXOJQ7GHV4AXYZH72G766Z","emotion","mismatch","uniform","","","","","","","2619","331119","333738","[""stimuli/sheep.jpg"",""stimuli/hammer.jpg"",""stimuli/basketball.jpg"",""stimuli/horse.jpg""]","stimuli/sheep.jpg","stimuli/hammer.jpg","stimuli/basketball.jpg","stimuli/horse.jpg","pos4","stimuli/horse.jpg","","","3","64","64","64","stimuli/stars_8.png","65","","","","","","",""
"explore-choice","5","331631","0.0-5.0","p292967","A1NFBKUYYVUYWF","3WPCIUYH1BELQU8EB2L3QVOOKYBTD4","3X08E93BHXOJQ7GHV4AXYZH72G766Z","emotion","mismatch","uniform","","","","","","","2159","334261","336420","[""stimuli/hammer.jpg"",""stimuli/basketball.jpg"",""stimuli/horse.jpg"",""stimuli/sheep.jpg""]","stimuli/hammer.jpg","stimuli/basketball.jpg","stimuli/horse.jpg","stimuli/sheep.jpg","pos1","stimuli/hammer.jpg","","","0","8","8","8","stimuli/stars_2.png","9","","","","","","",""
"instructions","6","346696","0.0-6.0","p292967","A1NFBKUYYVUYWF","3WPCIUYH1BELQU8EB2L3QVOOKYBTD4","3X08E93BHXOJQ7GHV4AXYZH72G766Z","emotion","mismatch","uniform","","","","","","[{""page_index"":0,""viewing_time"":15064}]","15064","","","","","","","","","","","","","","","","","","","","","","","",""
"explore-choice","7","350541","0.0-7.0","p292967","A1NFBKUYYVUYWF","3WPCIUYH1BELQU8EB2L3QVOOKYBTD4","3X08E93BHXOJQ7GHV4AXYZH72G766Z","emotion","mismatch","uniform","","","","","","","3342","352004","355346","[""stimuli/BF06_SC.jpg"",""stimuli/WM11_HO.jpg"",""stimuli/AF11_SUR.jpg"",""stimuli/AF02_DO.jpg""]","stimuli/BF06_SC.jpg","stimuli/WM11_HO.jpg","stimuli/AF11_SUR.jpg","stimuli/AF02_DO.jpg","pos1","stimuli/BF06_SC.jpg","SC","BF06","0","3","6","4","stimuli/stars_6.png","4","[""SC"",""HO"",""SUR"",""DO""]","[""BF06"",""WM11"",""AF11"",""AF02""]","[6,6,8,0]","[4,8,6,2]","","",""
"show-reward","8","352667","0.0-8.0","p292967","A1NFBKUYYVUYWF","3WPCIUYH1BELQU8EB2L3QVOOKYBTD4","3X08E93BHXOJQ7GHV4AXYZH72G766Z","emotion","mismatch","uniform","","","","","","","","355849","357973","","","","","","","","","","","","6","","stimuli/stars_6.png","4","","","","","stimuli/BF06_SC.jpg","",""
"explore-choice","9","355304","0.0-9.0","p292967","A1NFBKUYYVUYWF","3WPCIUYH1BELQU8EB2L3QVOOKYBTD4","3X08E93BHXOJQ7GHV4AXYZH72G766Z","emotion","mismatch","uniform","","","","","","","2123","357975","360098","[""stimuli/WM11_SUR.jpg"",""stimuli/AF11_DO.jpg"",""stimuli/AF02_SC.jpg"",""stimuli/BF06_HO.jpg""]","stimuli/WM11_SUR.jpg","stimuli/AF11_DO.jpg","stimuli/AF02_SC.jpg","stimuli/BF06_HO.jpg","pos2","stimuli/AF11_DO.jpg","DO","AF11","1","1.5","3","2","stimuli/stars_3.png","5.5","[""SUR"",""DO"",""SC"",""HO""]","[""WM11"",""AF11"",""AF02"",""BF06""]","[7,3,4,10]","[6,2,4,8]","","",""
"show-reward","10","357308","0.0-10.0","p292967","A1NFBKUYYVUYWF","3WPCIUYH1BELQU8EB2L3QVOOKYBTD4","3X08E93BHXOJQ7GHV4AXYZH72G766Z","emotion","mismatch","uniform","","","","","","","","360611","362614","","","","","","","","","","","","3","","stimuli/stars_3.png","5.5","","","","","stimuli/AF11_DO.jpg","",""
"explore-choice","11","359128","0.0-11.0","p292967","A1NFBKUYYVUYWF","3WPCIUYH1BELQU8EB2L3QVOOKYBTD4","3X08E93BHXOJQ7GHV4AXYZH72G766Z","emotion","mismatch","uniform","","","","","","","1308","362616","363924","[""stimuli/AF02_SC.jpg"",""stimuli/BF06_DO.jpg"",""stimuli/WM11_HO.jpg"",""stimuli/AF11_SUR.jpg""]","stimuli/AF02_SC.jpg","stimuli/BF06_DO.jpg","stimuli/WM11_HO.jpg","stimuli/AF11_SUR.jpg","pos1","stimuli/AF02_SC.jpg","SC","AF02","0","1.5","3","4","stimuli/stars_3.png","7","[""SC"",""DO"",""HO"",""SUR""]","[""AF02"",""BF06"",""WM11"",""AF11""]","[3,1,10,8]","[4,2,8,6]","","",""
"show-reward","12","361132","0.0-12.0","p292967","A1NFBKUYYVUYWF","3WPCIUYH1BELQU8EB2L3QVOOKYBTD4","3X08E93BHXOJQ7GHV4AXYZH72G766Z","emotion","mismatch","uniform","","","","","","","","364434","366438","","","","","","","","","","","","3","","stimuli/stars_3.png","7","","","","","stimuli/AF02_SC.jpg","",""
"explore-choice","13","362904","0.0-13.0","p292967","A1NFBKUYYVUYWF","3WPCIUYH1BELQU8EB2L3QVOOKYBTD4","3X08E93BHXOJQ7GHV4AXYZH72G766Z","emotion","mismatch","uniform","","","","","","","1252","366438","367690","[""stimuli/AF02_DO.jpg"",""stimuli/AF11_SC.jpg"",""stimuli/WM11_SUR.jpg"",""stimuli/BF06_HO.jpg""]","stimuli/AF02_DO.jpg","stimuli/AF11_SC.jpg","stimuli/WM11_SUR.jpg","stimuli/BF06_HO.jpg","pos4","stimuli/BF06_HO.jpg","HO","BF06","3","3","6","8","stimuli/stars_6.png","10","[""DO"",""SC"",""SUR"",""HO""]","[""AF02"",""AF11"",""WM11"",""BF06""]","[2,2,7,6]","[2,4,6,8]","","",""
"show-reward","14","364909","0.0-14.0","p292967","A1NFBKUYYVUYWF","3WPCIUYH1BELQU8EB2L3QVOOKYBTD4","3X08E93BHXOJQ7GHV4AXYZH72G766Z","emotion","mismatch","uniform","","","","","","","","368212","370215","","","","","","","","","","","","6","","stimuli/stars_6.png","10","","","","","stimuli/BF06_HO.jpg","",""
"explore-choice","15","366776","0.0-15.0","p292967","A1NFBKUYYVUYWF","3WPCIUYH1BELQU8EB2L3QVOOKYBTD4","3X08E93BHXOJQ7GHV4AXYZH72G766Z","emotion","mismatch","uniform","","","","","","","1354","370216","371570","[""stimuli/AF11_DO.jpg"",""stimuli/BF06_SC.jpg"",""stimuli/WM11_HO.jpg"",""stimuli/AF02_SUR.jpg""]","stimuli/AF11_DO.jpg","stimuli/BF06_SC.jpg","stimuli/WM11_HO.jpg","stimuli/AF02_SUR.jpg","pos2","stimuli/BF06_SC.jpg","SC","BF06","1","2.5","5","4","stimuli/stars_5.png","12.5","[""DO"",""SC"",""HO"",""SUR""]","[""AF11"",""BF06"",""WM11"",""AF02""]","[4,5,7,4]","[2,4,8,6]","","",""
"show-reward","16","368780","0.0-16.0","p292967","A1NFBKUYYVUYWF","3WPCIUYH1BELQU8EB2L3QVOOKYBTD4","3X08E93BHXOJQ7GHV4AXYZH72G766Z","emotion","mismatch","uniform","","","","","","","","372083","374086","","","","","","","","","","","","5","","stimuli/stars_5.png","12.5","","","","","stimuli/BF06_SC.jpg","",""
"explore-choice","17","370369","0.0-17.0","p292967","A1NFBKUYYVUYWF","3WPCIUYH1BELQU8EB2L3QVOOKYBTD4","3X08E93BHXOJQ7GHV4AXYZH72G766Z","emotion","mismatch","uniform","","","","","","","1077","374087","375164","[""stimuli/WM11_DO.jpg"",""stimuli/AF02_HO.jpg"",""stimuli/BF06_SC.jpg"",""stimuli/AF11_SUR.jpg""]","stimuli/WM11_DO.jpg","stimuli/AF02_HO.jpg","stimuli/BF06_SC.jpg","stimuli/AF11_SUR.jpg","pos3","stimuli/BF06_SC.jpg","SC","BF06","2","1.5","3","4","stimuli/stars_3.png","14","[""DO"",""HO"",""SC"",""SUR""]","[""WM11"",""AF02"",""BF06"",""AF11""]","[2,6,3,7]","[2,8,4,6]","","",""
"show-reward","18","372373","0.0-18.0","p292967","A1NFBKUYYVUYWF","3WPCIUYH1BELQU8EB2L3QVOOKYBTD4","3X08E93BHXOJQ7GHV4AXYZH72G766Z","emotion","mismatch","uniform","","","","","","","","375676","377680","","","","","","","","","","","","3","","stimuli/stars_3.png","14","","","","","stimuli/BF06_SC.jpg","",""
"explore-choice","19","373962","0.0-19.0","p292967","A1NFBKUYYVUYWF","3WPCIUYH1BELQU8EB2L3QVOOKYBTD4","3X08E93BHXOJQ7GHV4AXYZH72G766Z","emotion","mismatch","uniform","","","","","","","1083","377681","378764","[""stimuli/BF06_SUR.jpg"",""stimuli/WM11_HO.jpg"",""stimuli/AF11_SC.jpg"",""stimuli/AF02_DO.jpg""]","stimuli/BF06_SUR.jpg","stimuli/WM11_HO.jpg","stimuli/AF11_SC.jpg","stimuli/AF02_DO.jpg","pos1","stimuli/BF06_SUR.jpg","SUR","BF06","0","2.5","5","6","stimuli/stars_5.png","16.5","[""SUR"",""HO"",""SC"",""DO""]","[""BF06"",""WM11"",""AF11"",""AF02""]","[5,9,5,0]","[6,8,4,2]","","",""
"show-reward","20","375967","0.0-20.0","p292967","A1NFBKUYYVUYWF","3WPCIUYH1BELQU8EB2L3QVOOKYBTD4","3X08E93BHXOJQ7GHV4AXYZH72G766Z","emotion","mismatch","uniform","","","","","","","","379269","381273","","","","","","","","","","","","5","","stimuli/stars_5.png","16.5","","","","","stimuli/BF06_SUR.jpg","",""
"explore-choice","21","379091","0.0-21.0","p292967","A1NFBKUYYVUYWF","3WPCIUYH1BELQU8EB2L3QVOOKYBTD4","3X08E93BHXOJQ7GHV4AXYZH72G766Z","emotion","mismatch","uniform","","","","","","","2616","381274","383890","[""stimuli/BF06_SUR.jpg"",""stimuli/AF02_DO.jpg"",""stimuli/AF11_HO.jpg"",""stimuli/WM11_SC.jpg""]","stimuli/BF06_SUR.jpg","stimuli/AF02_DO.jpg","stimuli/AF11_HO.jpg","stimuli/WM11_SC.jpg","pos1","stimuli/BF06_SUR.jpg","SUR","BF06","0","2.5","5","6","stimuli/stars_5.png","19","[""SUR"",""DO"",""HO"",""SC""]","[""BF06"",""AF02"",""AF11"",""WM11""]","[5,2,7,5]","[6,2,8,4]","","",""
"show-reward","22","381096","0.0-22.0","p292967","A1NFBKUYYVUYWF","3WPCIUYH1BELQU8EB2L3QVOOKYBTD4","3X08E93BHXOJQ7GHV4AXYZH72G766Z","emotion","mismatch","uniform","","","","","","","","384398","386402","","","","","","","","","","","","5","","stimuli/stars_5.png","19","","","","","stimuli/BF06_SUR.jpg","",""
"explore-choice","23","382400","0.0-23.0","p292967","A1NFBKUYYVUYWF","3WPCIUYH1BELQU8EB2L3QVOOKYBTD4","3X08E93BHXOJQ7GHV4AXYZH72G766Z","emotion","mismatch","uniform","","","","","","","793","386403","387196","[""stimuli/BF06_HO.jpg"",""stimuli/WM11_DO.jpg"",""stimuli/AF02_SC.jpg"",""stimuli/AF11_SUR.jpg""]","stimuli/BF06_HO.jpg","stimuli/WM11_DO.jpg","stimuli/AF02_SC.jpg","stimuli/AF11_SUR.jpg","pos1","stimuli/BF06_HO.jpg","HO","BF06","0","3.5","7","8","stimuli/stars_7.png","22.5","[""HO"",""DO"",""SC"",""SUR""]","[""BF06"",""WM11"",""AF02"",""AF11""]","[7,0,3,4]","[8,2,4,6]","","",""
"show-reward","24","384403","0.0-24.0","p292967","A1NFBKUYYVUYWF","3WPCIUYH1BELQU8EB2L3QVOOKYBTD4","3X08E93BHXOJQ7GHV4AXYZH72G766Z","emotion","mismatch","uniform","","","","","","","","387706","389710","","","","","","","","","","","","7","","stimuli/stars_7.png","22.5","","","","","stimuli/BF06_HO.jpg","",""
"explore-choice","25","385876","0.0-25.0","p292967","A1NFBKUYYVUYWF","3WPCIUYH1BELQU8EB2L3QVOOKYBTD4","3X08E93BHXOJQ7GHV4AXYZH72G766Z","emotion","mismatch","uniform","","","","","","","969","389711","390680","[""stimuli/AF02_DO.jpg"",""stimuli/AF11_SUR.jpg"",""stimuli/WM11_SC.jpg"",""stimuli/BF06_HO.jpg""]","stimuli/AF02_DO.jpg","stimuli/AF11_SUR.jpg","stimuli/WM11_SC.jpg","stimuli/BF06_HO.jpg","pos4","stimuli/BF06_HO.jpg","HO","BF06","3","4","8","8","stimuli/stars_8.png","26.5","[""DO"",""SUR"",""SC"",""HO""]","[""AF02"",""AF11"",""WM11"",""BF06""]","[3,8,5,8]","[2,6,4,8]","","",""
"show-reward","26","387881","0.0-26.0","p292967","A1NFBKUYYVUYWF","3WPCIUYH1BELQU8EB2L3QVOOKYBTD4","3X08E93BHXOJQ7GHV4AXYZH72G766Z","emotion","mismatch","uniform","","","","","","","","391183","393186","","","","","","","","","","","","8","","stimuli/stars_8.png","26.5","","","","","stimuli/BF06_HO.jpg","",""
"explore-choice","27","389201","0.0-27.0","p292967","A1NFBKUYYVUYWF","3WPCIUYH1BELQU8EB2L3QVOOKYBTD4","3X08E93BHXOJQ7GHV4AXYZH72G766Z","emotion","mismatch","uniform","","","","","","","804","393187","393991","[""stimuli/AF02_HO.jpg"",""stimuli/AF11_SC.jpg"",""stimuli/BF06_SUR.jpg"",""stimuli/WM11_DO.jpg""]","stimuli/AF02_HO.jpg","stimuli/AF11_SC.jpg","stimuli/BF06_SUR.jpg","stimuli/WM11_DO.jpg","pos3","stimuli/BF06_SUR.jpg","SUR","BF06","2","4","8","6","stimuli/stars_8.png","30.5","[""HO"",""SC"",""SUR"",""DO""]","[""AF02"",""AF11"",""BF06"",""WM11""]","[8,2,8,1]","[8,4,6,2]","","",""
"show-reward","28","391206","0.0-28.0","p292967","A1NFBKUYYVUYWF","3WPCIUYH1BELQU8EB2L3QVOOKYBTD4","3X08E93BHXOJQ7GHV4AXYZH72G766Z","emotion","mismatch","uniform","","","","","","","","394507","396512","","","","","","","","","","","","8","","stimuli/stars_8.png","30.5","","","","","stimuli/BF06_SUR.jpg","",""
"explore-choice","29","393041","0.0-29.0","p292967","A1NFBKUYYVUYWF","3WPCIUYH1BELQU8EB2L3QVOOKYBTD4","3X08E93BHXOJQ7GHV4AXYZH72G766Z","emotion","mismatch","uniform","","","","","","","1320","396513","397833","[""stimuli/AF11_HO.jpg"",""stimuli/AF02_SUR.jpg"",""stimuli/BF06_SC.jpg"",""stimuli/WM11_DO.jpg""]","stimuli/AF11_HO.jpg","stimuli/AF02_SUR.jpg","stimuli/BF06_SC.jpg","stimuli/WM11_DO.jpg","pos4","stimuli/WM11_DO.jpg","DO","WM11","3","1","2","2","stimuli/stars_2.png","31.5","[""HO"",""SUR"",""SC"",""DO""]","[""AF11"",""AF02"",""BF06"",""WM11""]","[10,6,4,2]","[8,6,4,2]","","",""
"show-reward","30","395045","0.0-30.0","p292967","A1NFBKUYYVUYWF","3WPCIUYH1BELQU8EB2L3QVOOKYBTD4","3X08E93BHXOJQ7GHV4AXYZH72G766Z","emotion","mismatch","uniform","","","","","","","","398348","400351","","","","","","","","","","","","2","","stimuli/stars_2.png","31.5","","","","","stimuli/WM11_DO.jpg","",""
"explore-choice","31","397219","0.0-31.0","p292967","A1NFBKUYYVUYWF","3WPCIUYH1BELQU8EB2L3QVOOKYBTD4","3X08E93BHXOJQ7GHV4AXYZH72G766Z","emotion","mismatch","uniform","","","","","","","1666","400352","402018","[""stimuli/BF06_SUR.jpg"",""stimuli/WM11_HO.jpg"",""stimuli/AF02_SC.jpg"",""stimuli/AF11_DO.jpg""]","stimuli/BF06_SUR.jpg","stimuli/WM11_HO.jpg","stimuli/AF02_SC.jpg","stimuli/AF11_DO.jpg","pos1","stimuli/BF06_SUR.jpg","SUR","BF06","0","2.5","5","6","stimuli/stars_5.png","34","[""SUR"",""HO"",""SC"",""DO""]","[""BF06"",""WM11"",""AF02"",""AF11""]","[5,9,3,1]","[6,8,4,2]","","",""
"show-reward","32","399223","0.0-32.0","p292967","A1NFBKUYYVUYWF","3WPCIUYH1BELQU8EB2L3QVOOKYBTD4","3X08E93BHXOJQ7GHV4AXYZH72G766Z","emotion","mismatch","uniform","","","","","","","","402526","404529","","","","","","","","","","","","5","","stimuli/stars_5.png","34","","","","","stimuli/BF06_SUR.jpg","",""
"explore-choice","33","400672","0.0-33.0","p292967","A1NFBKUYYVUYWF","3WPCIUYH1BELQU8EB2L3QVOOKYBTD4","3X08E93BHXOJQ7GHV4AXYZH72G766Z","emotion","mismatch","uniform","","","","","","","933","404530","405463","[""stimuli/BF06_DO.jpg"",""stimuli/AF02_SUR.jpg"",""stimuli/AF11_SC.jpg"",""stimuli/WM11_HO.jpg""]","stimuli/BF06_DO.jpg","stimuli/AF02_SUR.jpg","stimuli/AF11_SC.jpg","stimuli/WM11_HO.jpg","pos1","stimuli/BF06_DO.jpg","DO","BF06","0","2","4","2","stimuli/stars_4.png","36","[""DO"",""SUR"",""SC"",""HO""]","[""BF06"",""AF02"",""AF11"",""WM11""]","[4,4,4,8]","[2,6,4,8]","","",""
"show-reward","34","402698","0.0-34.0","p292967","A1NFBKUYYVUYWF","3WPCIUYH1BELQU8EB2L3QVOOKYBTD4","3X08E93BHXOJQ7GHV4AXYZH72G766Z","emotion","mismatch","uniform","","","","","","","","405978","408004","","","","","","","","","","","","4","","stimuli/stars_4.png","36","","","","","stimuli/BF06_DO.jpg","",""
"explore-choice","35","404202","0.0-35.0","p292967","A1NFBKUYYVUYWF","3WPCIUYH1BELQU8EB2L3QVOOKYBTD4","3X08E93BHXOJQ7GHV4AXYZH72G766Z","emotion","mismatch","uniform","","","","","","","997","408004","409001","[""stimuli/WM11_SC.jpg"",""stimuli/AF11_DO.jpg"",""stimuli/AF02_SUR.jpg"",""stimuli/BF06_HO.jpg""]","stimuli/WM11_SC.jpg","stimuli/AF11_DO.jpg","stimuli/AF02_SUR.jpg","stimuli/BF06_HO.jpg","pos4","stimuli/BF06_HO.jpg","HO","BF06","3","3","6","8","stimuli/stars_6.png","39","[""SC"",""DO"",""SUR"",""HO""]","[""WM11"",""AF11"",""AF02"",""BF06""]","[3,1,6,6]","[4,2,6,8]","","",""
"show-reward","36","406206","0.0-36.0","p292967","A1NFBKUYYVUYWF","3WPCIUYH1BELQU8EB2L3QVOOKYBTD4","3X08E93BHXOJQ7GHV4AXYZH72G766Z","emotion","mismatch","uniform","","","","","","","","409508","411511","","","","","","","","","","","","6","","stimuli/stars_6.png","39","","","","","stimuli/BF06_HO.jpg","",""
"explore-choice","37","407757","0.0-37.0","p292967","A1NFBKUYYVUYWF","3WPCIUYH1BELQU8EB2L3QVOOKYBTD4","3X08E93BHXOJQ7GHV4AXYZH72G766Z","emotion","mismatch","uniform","","","","","","","1035","411512","412547","[""stimuli/BF06_DO.jpg"",""stimuli/AF02_SC.jpg"",""stimuli/AF11_HO.jpg"",""stimuli/WM11_SUR.jpg""]","stimuli/BF06_DO.jpg","stimuli/AF02_SC.jpg","stimuli/AF11_HO.jpg","stimuli/WM11_SUR.jpg","pos1","stimuli/BF06_DO.jpg","DO","BF06","0","1.5","3","2","stimuli/stars_3.png","40.5","[""DO"",""SC"",""HO"",""SUR""]","[""BF06"",""AF02"",""AF11"",""WM11""]","[3,3,8,5]","[2,4,8,6]","","",""
"show-reward","38","409762","0.0-38.0","p292967","A1NFBKUYYVUYWF","3WPCIUYH1BELQU8EB2L3QVOOKYBTD4","3X08E93BHXOJQ7GHV4AXYZH72G766Z","emotion","mismatch","uniform","","","","","","","","413064","415067","","","","","","","","","","","","3","","stimuli/stars_3.png","40.5","","","","","stimuli/BF06_DO.jpg","",""
"explore-choice","39","411251","0.0-39.0","p292967","A1NFBKUYYVUYWF","3WPCIUYH1BELQU8EB2L3QVOOKYBTD4","3X08E93BHXOJQ7GHV4AXYZH72G766Z","emotion","mismatch","uniform","","","","","","","979","415068","416047","[""stimuli/AF11_HO.jpg"",""stimuli/AF02_SUR.jpg"",""stimuli/BF06_DO.jpg"",""stimuli/WM11_SC.jpg""]","stimuli/AF11_HO.jpg","stimuli/AF02_SUR.jpg","stimuli/BF06_DO.jpg","stimuli/WM11_SC.jpg","pos1","stimuli/AF11_HO.jpg","HO","AF11","0","4","8","8","stimuli/stars_8.png","44.5","[""HO"",""SUR"",""DO"",""SC""]","[""AF11"",""AF02"",""BF06"",""WM11""]","[8,7,0,2]","[8,6,2,4]","","",""
"show-reward","40","413255","0.0-40.0","p292967","A1NFBKUYYVUYWF","3WPCIUYH1BELQU8EB2L3QVOOKYBTD4","3X08E93BHXOJQ7GHV4AXYZH72G766Z","emotion","mismatch","uniform","","","","","","","","416556","418561","","","","","","","","","","","","8","","stimuli/stars_8.png","44.5","","","","","stimuli/AF11_HO.jpg","",""
"explore-choice","41","415107","0.0-41.0","p292967","A1NFBKUYYVUYWF","3WPCIUYH1BELQU8EB2L3QVOOKYBTD4","3X08E93BHXOJQ7GHV4AXYZH72G766Z","emotion","mismatch","uniform","","","","","","","1336","418561","419897","[""stimuli/AF02_HO.jpg"",""stimuli/BF06_DO.jpg"",""stimuli/WM11_SC.jpg"",""stimuli/AF11_SUR.jpg""]","stimuli/AF02_HO.jpg","stimuli/BF06_DO.jpg","stimuli/WM11_SC.jpg","stimuli/AF11_SUR.jpg","pos1","stimuli/AF02_HO.jpg","HO","AF02","0","4","8","8","stimuli/stars_8.png","48.5","[""HO"",""DO"",""SC"",""SUR""]","[""AF02"",""BF06"",""WM11"",""AF11""]","[8,2,5,5]","[8,2,4,6]","","",""
"show-reward","42","417111","0.0-42.0","p292967","A1NFBKUYYVUYWF","3WPCIUYH1BELQU8EB2L3QVOOKYBTD4","3X08E93BHXOJQ7GHV4AXYZH72G766Z","emotion","mismatch","uniform","","","","","","","","420414","422417","","","","","","","","","","","","8","","stimuli/stars_8.png","48.5","","","","","stimuli/AF02_HO.jpg","",""
"explore-choice","43","418620","0.0-43.0","p292967","A1NFBKUYYVUYWF","3WPCIUYH1BELQU8EB2L3QVOOKYBTD4","3X08E93BHXOJQ7GHV4AXYZH72G766Z","emotion","mismatch","uniform","","","","","","","988","422417","423405","[""stimuli/WM11_SUR.jpg"",""stimuli/AF11_SC.jpg"",""stimuli/AF02_HO.jpg"",""stimuli/BF06_DO.jpg""]","stimuli/WM11_SUR.jpg","stimuli/AF11_SC.jpg","stimuli/AF02_HO.jpg","stimuli/BF06_DO.jpg","pos3","stimuli/AF02_HO.jpg","HO","AF02","2","4.5","9","8","stimuli/stars_9.png","53","[""SUR"",""SC"",""HO"",""DO""]","[""WM11"",""AF11"",""AF02"",""BF06""]","[6,4,9,1]","[6,4,8,2]","","",""
"show-reward","44","420641","0.0-44.0","p292967","A1NFBKUYYVUYWF","3WPCIUYH1BELQU8EB2L3QVOOKYBTD4","3X08E93BHXOJQ7GHV4AXYZH72G766Z","emotion","mismatch","uniform","","","","","","","","423928","425947","","","","","","","","","","","","9","","stimuli/stars_9.png","53","","","","","stimuli/AF02_HO.jpg","",""
"explore-choice","45","422793","0.0-45.0","p292967","A1NFBKUYYVUYWF","3WPCIUYH1BELQU8EB2L3QVOOKYBTD4","3X08E93BHXOJQ7GHV4AXYZH72G766Z","emotion","mismatch","uniform","","","","","","","1641","425948","427589","[""stimuli/AF11_DO.jpg"",""stimuli/AF02_HO.jpg"",""stimuli/BF06_SC.jpg"",""stimuli/WM11_SUR.jpg""]","stimuli/AF11_DO.jpg","stimuli/AF02_HO.jpg","stimuli/BF06_SC.jpg","stimuli/WM11_SUR.jpg","pos2","stimuli/AF02_HO.jpg","HO","AF02","1","3","6","8","stimuli/stars_6.png","56","[""DO"",""HO"",""SC"",""SUR""]","[""AF11"",""AF02"",""BF06"",""WM11""]","[2,6,2,4]","[2,8,4,6]","","",""
"show-reward","46","424798","0.0-46.0","p292967","A1NFBKUYYVUYWF","3WPCIUYH1BELQU8EB2L3QVOOKYBTD4","3X08E93BHXOJQ7GHV4AXYZH72G766Z","emotion","mismatch","uniform","","","","","","","","428100","430105","","","","","","","","","","","","6","","stimuli/stars_6.png","56","","","","","stimuli/AF02_HO.jpg","",""
"explore-choice","47","426218","0.0-47.0","p292967","A1NFBKUYYVUYWF","3WPCIUYH1BELQU8EB2L3QVOOKYBTD4","3X08E93BHXOJQ7GHV4AXYZH72G766Z","emotion","mismatch","uniform","","","","","","","914","430106","431020","[""stimuli/AF02_HO.jpg"",""stimuli/AF11_DO.jpg"",""stimuli/WM11_SC.jpg"",""stimuli/BF06_SUR.jpg""]","stimuli/AF02_HO.jpg","stimuli/AF11_DO.jpg","stimuli/WM11_SC.jpg","stimuli/BF06_SUR.jpg","pos1","stimuli/AF02_HO.jpg","HO","AF02","0","3","6","8","stimuli/stars_6.png","59","[""HO"",""DO"",""SC"",""SUR""]","[""AF02"",""AF11"",""WM11"",""BF06""]","[6,3,3,5]","[8,2,4,6]","","",""
"show-reward","48","428224","0.0-48.0","p292967","A1NFBKUYYVUYWF","3WPCIUYH1BELQU8EB2L3QVOOKYBTD4","3X08E93BHXOJQ7GHV4AXYZH72G766Z","emotion","mismatch","uniform","","","","","","","","431525","433529","","","","","","","","","","","","6","","stimuli/stars_6.png","59","","","","","stimuli/AF02_HO.jpg","",""
"explore-choice","49","430030","0.0-49.0","p292967","A1NFBKUYYVUYWF","3WPCIUYH1BELQU8EB2L3QVOOKYBTD4","3X08E93BHXOJQ7GHV4AXYZH72G766Z","emotion","mismatch","uniform","","","","","","","1291","433530","434821","[""stimuli/AF11_HO.jpg"",""stimuli/AF02_DO.jpg"",""stimuli/WM11_SUR.jpg"",""stimuli/BF06_SC.jpg""]","stimuli/AF11_HO.jpg","stimuli/AF02_DO.jpg","stimuli/WM11_SUR.jpg","stimuli/BF06_SC.jpg","pos1","stimuli/AF11_HO.jpg","HO","AF11","0","4.5","9","8","stimuli/stars_9.png","63.5","[""HO"",""DO"",""SUR"",""SC""]","[""AF11"",""AF02"",""WM11"",""BF06""]","[9,1,4,6]","[8,2,6,4]","","",""
"show-reward","50","432035","0.0-50.0","p292967","A1NFBKUYYVUYWF","3WPCIUYH1BELQU8EB2L3QVOOKYBTD4","3X08E93BHXOJQ7GHV4AXYZH72G766Z","emotion","mismatch","uniform","","","","","","","","435336","437340","","","","","","","","","","","","9","","stimuli/stars_9.png","63.5","","","","","stimuli/AF11_HO.jpg","",""
"explore-choice","51","433854","0.0-51.0","p292967","A1NFBKUYYVUYWF","3WPCIUYH1BELQU8EB2L3QVOOKYBTD4","3X08E93BHXOJQ7GHV4AXYZH72G766Z","emotion","mismatch","uniform","","","","","","","1314","437341","438655","[""stimuli/WM11_DO.jpg"",""stimuli/AF02_SC.jpg"",""stimuli/BF06_SUR.jpg"",""stimuli/AF11_HO.jpg""]","stimuli/WM11_DO.jpg","stimuli/AF02_SC.jpg","stimuli/BF06_SUR.jpg","stimuli/AF11_HO.jpg","pos4","stimuli/AF11_HO.jpg","HO","AF11","3","5","10","8","stimuli/stars_10.png","68.5","[""DO"",""SC"",""SUR"",""HO""]","[""WM11"",""AF02"",""BF06"",""AF11""]","[3,4,4,10]","[2,4,6,8]","","",""
"show-reward","52","435857","0.0-52.0","p292967","A1NFBKUYYVUYWF","3WPCIUYH1BELQU8EB2L3QVOOKYBTD4","3X08E93BHXOJQ7GHV4AXYZH72G766Z","emotion","mismatch","uniform","","","","","","","","439161","441164","","","","","","","","","","","","10","","stimuli/stars_10.png","68.5","","","","","stimuli/AF11_HO.jpg","",""
"explore-choice","53","437885","0.0-53.0","p292967","A1NFBKUYYVUYWF","3WPCIUYH1BELQU8EB2L3QVOOKYBTD4","3X08E93BHXOJQ7GHV4AXYZH72G766Z","emotion","mismatch","uniform","","","","","","","1505","441165","442670","[""stimuli/WM11_DO.jpg"",""stimuli/BF06_HO.jpg"",""stimuli/AF11_SC.jpg"",""stimuli/AF02_SUR.jpg""]","stimuli/WM11_DO.jpg","stimuli/BF06_HO.jpg","stimuli/AF11_SC.jpg","stimuli/AF02_SUR.jpg","pos2","stimuli/BF06_HO.jpg","HO","BF06","1","3","6","8","stimuli/stars_6.png","71.5","[""DO"",""HO"",""SC"",""SUR""]","[""WM11"",""BF06"",""AF11"",""AF02""]","[1,6,5,6]","[2,8,4,6]","","",""
"show-reward","54","439889","0.0-54.0","p292967","A1NFBKUYYVUYWF","3WPCIUYH1BELQU8EB2L3QVOOKYBTD4","3X08E93BHXOJQ7GHV4AXYZH72G766Z","emotion","mismatch","uniform","","","","","","","","443191","445195","","","","","","","","","","","","6","","stimuli/stars_6.png","71.5","","","","","stimuli/BF06_HO.jpg","",""
"explore-choice","55","441893","0.0-55.0","p292967","A1NFBKUYYVUYWF","3WPCIUYH1BELQU8EB2L3QVOOKYBTD4","3X08E93BHXOJQ7GHV4AXYZH72G766Z","emotion","mismatch","uniform","","","","","","","1485","445196","446681","[""stimuli/WM11_SC.jpg"",""stimuli/BF06_HO.jpg"",""stimuli/AF02_SUR.jpg"",""stimuli/AF11_DO.jpg""]","stimuli/WM11_SC.jpg","stimuli/BF06_HO.jpg","stimuli/AF02_SUR.jpg","stimuli/AF11_DO.jpg","pos2","stimuli/BF06_HO.jpg","HO","BF06","1","3","6","8","stimuli/stars_6.png","74.5","[""SC"",""HO"",""SUR"",""DO""]","[""WM11"",""BF06"",""AF02"",""AF11""]","[3,6,6,1]","[4,8,6,2]","","",""
"show-reward","56","443898","0.0-56.0","p292967","A1NFBKUYYVUYWF","3WPCIUYH1BELQU8EB2L3QVOOKYBTD4","3X08E93BHXOJQ7GHV4AXYZH72G766Z","emotion","mismatch","uniform","","","","","","","","447200","449204","","","","","","","","","","","","6","","stimuli/stars_6.png","74.5","","","","","stimuli/BF06_HO.jpg","",""
"explore-choice","57","445401","0.0-57.0","p292967","A1NFBKUYYVUYWF","3WPCIUYH1BELQU8EB2L3QVOOKYBTD4","3X08E93BHXOJQ7GHV4AXYZH72G766Z","emotion","mismatch","uniform","","","","","","","1001","449204","450205","[""stimuli/AF11_HO.jpg"",""stimuli/WM11_SUR.jpg"",""stimuli/BF06_SC.jpg"",""stimuli/AF02_DO.jpg""]","stimuli/AF11_HO.jpg","stimuli/WM11_SUR.jpg","stimuli/BF06_SC.jpg","stimuli/AF02_DO.jpg","pos1","stimuli/AF11_HO.jpg","HO","AF11","0","4.5","9","8","stimuli/stars_9.png","79","[""HO"",""SUR"",""SC"",""DO""]","[""AF11"",""WM11"",""BF06"",""AF02""]","[9,4,6,1]","[8,6,4,2]","","",""
"show-reward","58","447406","0.0-58.0","p292967","A1NFBKUYYVUYWF","3WPCIUYH1BELQU8EB2L3QVOOKYBTD4","3X08E93BHXOJQ7GHV4AXYZH72G766Z","emotion","mismatch","uniform","","","","","","","","450708","452711","","","","","","","","","","","","9","","stimuli/stars_9.png","79","","","","","stimuli/AF11_HO.jpg","",""
"explore-choice","59","450043","0.0-59.0","p292967","A1NFBKUYYVUYWF","3WPCIUYH1BELQU8EB2L3QVOOKYBTD4","3X08E93BHXOJQ7GHV4AXYZH72G766Z","emotion","mismatch","uniform","","","","","","","2135","452712","454847","[""stimuli/AF02_SC.jpg"",""stimuli/AF11_SUR.jpg"",""stimuli/BF06_DO.jpg"",""stimuli/WM11_HO.jpg""]","stimuli/AF02_SC.jpg","stimuli/AF11_SUR.jpg","stimuli/BF06_DO.jpg","stimuli/WM11_HO.jpg","pos4","stimuli/WM11_HO.jpg","HO","WM11","3","5","10","8","stimuli/stars_10.png","84","[""SC"",""SUR"",""DO"",""HO""]","[""AF02"",""AF11"",""BF06"",""WM11""]","[3,8,1,10]","[4,6,2,8]","","",""
"show-reward","60","452049","0.0-60.0","p292967","A1NFBKUYYVUYWF","3WPCIUYH1BELQU8EB2L3QVOOKYBTD4","3X08E93BHXOJQ7GHV4AXYZH72G766Z","emotion","mismatch","uniform","","","","","","","","455350","457355","","","","","","","","","","","","10","","stimuli/stars_10.png","84","","","","","stimuli/WM11_HO.jpg","",""
"explore-choice","61","453822","0.0-61.0","p292967","A1NFBKUYYVUYWF","3WPCIUYH1BELQU8EB2L3QVOOKYBTD4","3X08E93BHXOJQ7GHV4AXYZH72G766Z","emotion","mismatch","uniform","","","","","","","1272","457355","458627","[""stimuli/WM11_HO.jpg"",""stimuli/AF11_DO.jpg"",""stimuli/AF02_SC.jpg"",""stimuli/BF06_SUR.jpg""]","stimuli/WM11_HO.jpg","stimuli/AF11_DO.jpg","stimuli/AF02_SC.jpg","stimuli/BF06_SUR.jpg","pos1","stimuli/WM11_HO.jpg","HO","WM11","0","4.5","9","8","stimuli/stars_9.png","88.5","[""HO"",""DO"",""SC"",""SUR""]","[""WM11"",""AF11"",""AF02"",""BF06""]","[9,1,3,5]","[8,2,4,6]","","",""
"show-reward","62","455828","0.0-62.0","p292967","A1NFBKUYYVUYWF","3WPCIUYH1BELQU8EB2L3QVOOKYBTD4","3X08E93BHXOJQ7GHV4AXYZH72G766Z","emotion","mismatch","uniform","","","","","","","","459129","461134","","","","","","","","","","","","9","","stimuli/stars_9.png","88.5","","","","","stimuli/WM11_HO.jpg","",""
"explore-choice","63","457949","0.0-63.0","p292967","A1NFBKUYYVUYWF","3WPCIUYH1BELQU8EB2L3QVOOKYBTD4","3X08E93BHXOJQ7GHV4AXYZH72G766Z","emotion","mismatch","uniform","","","","","","","1607","461135","462742","[""stimuli/BF06_HO.jpg"",""stimuli/AF02_SUR.jpg"",""stimuli/AF11_SC.jpg"",""stimuli/WM11_DO.jpg""]","stimuli/BF06_HO.jpg","stimuli/AF02_SUR.jpg","stimuli/AF11_SC.jpg","stimuli/WM11_DO.jpg","pos1","stimuli/BF06_HO.jpg","HO","BF06","0","3","6","8","stimuli/stars_6.png","91.5","[""HO"",""SUR"",""SC"",""DO""]","[""BF06"",""AF02"",""AF11"",""WM11""]","[6,6,5,1]","[8,6,4,2]","","",""
"show-reward","64","459955","0.0-64.0","p292967","A1NFBKUYYVUYWF","3WPCIUYH1BELQU8EB2L3QVOOKYBTD4","3X08E93BHXOJQ7GHV4AXYZH72G766Z","emotion","mismatch","uniform","","","","","","","","463256","465260","","","","","","","","","","","","6","","stimuli/stars_6.png","91.5","","","","","stimuli/BF06_HO.jpg","",""
"explore-choice","65","462021","0.0-65.0","p292967","A1NFBKUYYVUYWF","3WPCIUYH1BELQU8EB2L3QVOOKYBTD4","3X08E93BHXOJQ7GHV4AXYZH72G766Z","emotion","mismatch","uniform","","","","","","","1562","465261","466823","[""stimuli/AF11_SC.jpg"",""stimuli/BF06_HO.jpg"",""stimuli/WM11_SUR.jpg"",""stimuli/AF02_DO.jpg""]","stimuli/AF11_SC.jpg","stimuli/BF06_HO.jpg","stimuli/WM11_SUR.jpg","stimuli/AF02_DO.jpg","pos2","stimuli/BF06_HO.jpg","HO","BF06","1","3","6","8","stimuli/stars_6.png","94.5","[""SC"",""HO"",""SUR"",""DO""]","[""AF11"",""BF06"",""WM11"",""AF02""]","[2,6,7,2]","[4,8,6,2]","","",""
"show-reward","66","464026","0.0-66.0","p292967","A1NFBKUYYVUYWF","3WPCIUYH1BELQU8EB2L3QVOOKYBTD4","3X08E93BHXOJQ7GHV4AXYZH72G766Z","emotion","mismatch","uniform","","","","","","","","467328","469333","","","","","","","","","","","","6","","stimuli/stars_6.png","94.5","","","","","stimuli/BF06_HO.jpg","",""
"explore-choice","67","466656","0.0-67.0","p292967","A1NFBKUYYVUYWF","3WPCIUYH1BELQU8EB2L3QVOOKYBTD4","3X08E93BHXOJQ7GHV4AXYZH72G766Z","emotion","mismatch","uniform","","","","","","","2107","469334","471441","[""stimuli/AF11_SC.jpg"",""stimuli/AF02_DO.jpg"",""stimuli/WM11_HO.jpg"",""stimuli/BF06_SUR.jpg""]","stimuli/AF11_SC.jpg","stimuli/AF02_DO.jpg","stimuli/WM11_HO.jpg","stimuli/BF06_SUR.jpg","pos3","stimuli/WM11_HO.jpg","HO","WM11","2","4.5","9","8","stimuli/stars_9.png","99","[""SC"",""DO"",""HO"",""SUR""]","[""AF11"",""AF02"",""WM11"",""BF06""]","[5,0,9,5]","[4,2,8,6]","","",""
"show-reward","68","468661","0.0-68.0","p292967","A1NFBKUYYVUYWF","3WPCIUYH1BELQU8EB2L3QVOOKYBTD4","3X08E93BHXOJQ7GHV4AXYZH72G766Z","emotion","mismatch","uniform","","","","","","","","471962","473967","","","","","","","","","","","","9","","stimuli/stars_9.png","99","","","","","stimuli/WM11_HO.jpg","",""
"explore-choice","69","471486","0.0-69.0","p292967","A1NFBKUYYVUYWF","3WPCIUYH1BELQU8EB2L3QVOOKYBTD4","3X08E93BHXOJQ7GHV4AXYZH72G766Z","emotion","mismatch","uniform","","","","","","","2315","473968","476283","[""stimuli/BF06_SUR.jpg"",""stimuli/AF02_DO.jpg"",""stimuli/AF11_HO.jpg"",""stimuli/WM11_SC.jpg""]","stimuli/BF06_SUR.jpg","stimuli/AF02_DO.jpg","stimuli/AF11_HO.jpg","stimuli/WM11_SC.jpg","pos3","stimuli/AF11_HO.jpg","HO","AF11","2","3.5","7","8","stimuli/stars_7.png","102.5","[""SUR"",""DO"",""HO"",""SC""]","[""BF06"",""AF02"",""AF11"",""WM11""]","[5,2,7,5]","[6,2,8,4]","","",""
"show-reward","70","473491","0.0-70.0","p292967","A1NFBKUYYVUYWF","3WPCIUYH1BELQU8EB2L3QVOOKYBTD4","3X08E93BHXOJQ7GHV4AXYZH72G766Z","emotion","mismatch","uniform","","","","","","","","476792","478797","","","","","","","","","","","","7","","stimuli/stars_7.png","102.5","","","","","stimuli/AF11_HO.jpg","",""
"explore-choice","71","476360","0.0-71.0","p292967","A1NFBKUYYVUYWF","3WPCIUYH1BELQU8EB2L3QVOOKYBTD4","3X08E93BHXOJQ7GHV4AXYZH72G766Z","emotion","mismatch","uniform","","","","","","","2361","478798","481159","[""stimuli/BF06_HO.jpg"",""stimuli/AF02_SC.jpg"",""stimuli/AF11_DO.jpg"",""stimuli/WM11_SUR.jpg""]","stimuli/BF06_HO.jpg","stimuli/AF02_SC.jpg","stimuli/AF11_DO.jpg","stimuli/WM11_SUR.jpg","pos1","stimuli/BF06_HO.jpg","HO","BF06","0","5","10","8","stimuli/stars_10.png","107.5","[""HO"",""SC"",""DO"",""SUR""]","[""BF06"",""AF02"",""AF11"",""WM11""]","[10,4,3,7]","[8,4,2,6]","","",""
"show-reward","72","478364","0.0-72.0","p292967","A1NFBKUYYVUYWF","3WPCIUYH1BELQU8EB2L3QVOOKYBTD4","3X08E93BHXOJQ7GHV4AXYZH72G766Z","emotion","mismatch","uniform","","","","","","","","481666","483670","","","","","","","","","","","","10","","stimuli/stars_10.png","107.5","","","","","stimuli/BF06_HO.jpg","",""
"explore-choice","73","479767","0.0-73.0","p292967","A1NFBKUYYVUYWF","3WPCIUYH1BELQU8EB2L3QVOOKYBTD4","3X08E93BHXOJQ7GHV4AXYZH72G766Z","emotion","mismatch","uniform","","","","","","","894","483671","484565","[""stimuli/AF11_HO.jpg"",""stimuli/AF02_SUR.jpg"",""stimuli/WM11_SC.jpg"",""stimuli/BF06_DO.jpg""]","stimuli/AF11_HO.jpg","stimuli/AF02_SUR.jpg","stimuli/WM11_SC.jpg","stimuli/BF06_DO.jpg","pos1","stimuli/AF11_HO.jpg","HO","AF11","0","4","8","8","stimuli/stars_8.png","111.5","[""HO"",""SUR"",""SC"",""DO""]","[""AF11"",""AF02"",""WM11"",""BF06""]","[8,7,2,0]","[8,6,4,2]","","",""
"show-reward","74","481770","0.0-74.0","p292967","A1NFBKUYYVUYWF","3WPCIUYH1BELQU8EB2L3QVOOKYBTD4","3X08E93BHXOJQ7GHV4AXYZH72G766Z","emotion","mismatch","uniform","","","","","","","","485074","487076","","","","","","","","","","","","8","","stimuli/stars_8.png","111.5","","","","","stimuli/AF11_HO.jpg","",""
"explore-choice","75","484030","0.0-75.0","p292967","A1NFBKUYYVUYWF","3WPCIUYH1BELQU8EB2L3QVOOKYBTD4","3X08E93BHXOJQ7GHV4AXYZH72G766Z","emotion","mismatch","uniform","","","","","","","1758","487077","488835","[""stimuli/BF06_SC.jpg"",""stimuli/AF11_SUR.jpg"",""stimuli/AF02_DO.jpg"",""stimuli/WM11_HO.jpg""]","stimuli/BF06_SC.jpg","stimuli/AF11_SUR.jpg","stimuli/AF02_DO.jpg","stimuli/WM11_HO.jpg","pos4","stimuli/WM11_HO.jpg","HO","WM11","3","3","6","8","stimuli/stars_6.png","114.5","[""SC"",""SUR"",""DO"",""HO""]","[""BF06"",""AF11"",""AF02"",""WM11""]","[6,8,0,6]","[4,6,2,8]","","",""
"show-reward","76","486034","0.0-76.0","p292967","A1NFBKUYYVUYWF","3WPCIUYH1BELQU8EB2L3QVOOKYBTD4","3X08E93BHXOJQ7GHV4AXYZH72G766Z","emotion","mismatch","uniform","","","","","","","","489337","491340","","","","","","","","","","","","6","","stimuli/stars_6.png","114.5","","","","","stimuli/WM11_HO.jpg","",""
"explore-choice","77","489058","0.0-77.0","p292967","A1NFBKUYYVUYWF","3WPCIUYH1BELQU8EB2L3QVOOKYBTD4","3X08E93BHXOJQ7GHV4AXYZH72G766Z","emotion","mismatch","uniform","","","","","","","2510","491341","493851","[""stimuli/AF11_SUR.jpg"",""stimuli/AF02_SC.jpg"",""stimuli/BF06_HO.jpg"",""stimuli/WM11_DO.jpg""]","stimuli/AF11_SUR.jpg","stimuli/AF02_SC.jpg","stimuli/BF06_HO.jpg","stimuli/WM11_DO.jpg","pos3","stimuli/BF06_HO.jpg","HO","BF06","2","3.5","7","8","stimuli/stars_7.png","118","[""SUR"",""SC"",""HO"",""DO""]","[""AF11"",""AF02"",""BF06"",""WM11""]","[4,3,7,0]","[6,4,8,2]","","",""
"show-reward","78","491063","0.0-78.0","p292967","A1NFBKUYYVUYWF","3WPCIUYH1BELQU8EB2L3QVOOKYBTD4","3X08E93BHXOJQ7GHV4AXYZH72G766Z","emotion","mismatch","uniform","","","","","","","","494365","496370","","","","","","","","","","","","7","","stimuli/stars_7.png","118","","","","","stimuli/BF06_HO.jpg","",""
"explore-choice","79","493523","0.0-79.0","p292967","A1NFBKUYYVUYWF","3WPCIUYH1BELQU8EB2L3QVOOKYBTD4","3X08E93BHXOJQ7GHV4AXYZH72G766Z","emotion","mismatch","uniform","","","","","","","1937","496370","498307","[""stimuli/AF11_DO.jpg"",""stimuli/AF02_SUR.jpg"",""stimuli/BF06_SC.jpg"",""stimuli/WM11_HO.jpg""]","stimuli/AF11_DO.jpg","stimuli/AF02_SUR.jpg","stimuli/BF06_SC.jpg","stimuli/WM11_HO.jpg","pos4","stimuli/WM11_HO.jpg","HO","WM11","3","3.5","7","8","stimuli/stars_7.png","121.5","[""DO"",""SUR"",""SC"",""HO""]","[""AF11"",""AF02"",""BF06"",""WM11""]","[4,4,5,7]","[2,6,4,8]","","",""
"show-reward","80","495528","0.0-80.0","p292967","A1NFBKUYYVUYWF","3WPCIUYH1BELQU8EB2L3QVOOKYBTD4","3X08E93BHXOJQ7GHV4AXYZH72G766Z","emotion","mismatch","uniform","","","","","","","","498830","500834","","","","","","","","","","","","7","","stimuli/stars_7.png","121.5","","","","","stimuli/WM11_HO.jpg","",""
"explore-choice","81","498098","0.0-81.0","p292967","A1NFBKUYYVUYWF","3WPCIUYH1BELQU8EB2L3QVOOKYBTD4","3X08E93BHXOJQ7GHV4AXYZH72G766Z","emotion","mismatch","uniform","","","","","","","2060","500835","502895","[""stimuli/BF06_HO.jpg"",""stimuli/AF11_SUR.jpg"",""stimuli/AF02_DO.jpg"",""stimuli/WM11_SC.jpg""]","stimuli/BF06_HO.jpg","stimuli/AF11_SUR.jpg","stimuli/AF02_DO.jpg","stimuli/WM11_SC.jpg","pos1","stimuli/BF06_HO.jpg","HO","BF06","0","4","8","8","stimuli/stars_8.png","125.5","[""HO"",""SUR"",""DO"",""SC""]","[""BF06"",""AF11"",""AF02"",""WM11""]","[8,8,3,5]","[8,6,2,4]","","",""
"show-reward","82","500102","0.0-82.0","p292967","A1NFBKUYYVUYWF","3WPCIUYH1BELQU8EB2L3QVOOKYBTD4","3X08E93BHXOJQ7GHV4AXYZH72G766Z","emotion","mismatch","uniform","","","","","","","","503404","505408","","","","","","","","","","","","8","","stimuli/stars_8.png","125.5","","","","","stimuli/BF06_HO.jpg","",""
"explore-choice","83","502192","0.0-83.0","p292967","A1NFBKUYYVUYWF","3WPCIUYH1BELQU8EB2L3QVOOKYBTD4","3X08E93BHXOJQ7GHV4AXYZH72G766Z","emotion","mismatch","uniform","","","","","","","1575","505409","506984","[""stimuli/AF11_HO.jpg"",""stimuli/AF02_SUR.jpg"",""stimuli/BF06_SC.jpg"",""stimuli/WM11_DO.jpg""]","stimuli/AF11_HO.jpg","stimuli/AF02_SUR.jpg","stimuli/BF06_SC.jpg","stimuli/WM11_DO.jpg","pos1","stimuli/AF11_HO.jpg","HO","AF11","0","5","10","8","stimuli/stars_10.png","130.5","[""HO"",""SUR"",""SC"",""DO""]","[""AF11"",""AF02"",""BF06"",""WM11""]","[10,6,4,2]","[8,6,4,2]","","",""
"show-reward","84","504197","0.0-84.0","p292967","A1NFBKUYYVUYWF","3WPCIUYH1BELQU8EB2L3QVOOKYBTD4","3X08E93BHXOJQ7GHV4AXYZH72G766Z","emotion","mismatch","uniform","","","","","","","","507499","509503","","","","","","","","","","","","10","","stimuli/stars_10.png","130.5","","","","","stimuli/AF11_HO.jpg","",""
"explore-choice","85","505854","0.0-85.0","p292967","A1NFBKUYYVUYWF","3WPCIUYH1BELQU8EB2L3QVOOKYBTD4","3X08E93BHXOJQ7GHV4AXYZH72G766Z","emotion","mismatch","uniform","","","","","","","1136","509503","510639","[""stimuli/AF02_SC.jpg"",""stimuli/WM11_DO.jpg"",""stimuli/AF11_HO.jpg"",""stimuli/BF06_SUR.jpg""]","stimuli/AF02_SC.jpg","stimuli/WM11_DO.jpg","stimuli/AF11_HO.jpg","stimuli/BF06_SUR.jpg","pos3","stimuli/AF11_HO.jpg","HO","AF11","2","5","10","8","stimuli/stars_10.png","135.5","[""SC"",""DO"",""HO"",""SUR""]","[""AF02"",""WM11"",""AF11"",""BF06""]","[4,3,10,4]","[4,2,8,6]","","",""
"show-reward","86","507861","0.0-86.0","p292967","A1NFBKUYYVUYWF","3WPCIUYH1BELQU8EB2L3QVOOKYBTD4","3X08E93BHXOJQ7GHV4AXYZH72G766Z","emotion","mismatch","uniform","","","","","","","","511161","513166","","","","","","","","","","","","10","","stimuli/stars_10.png","135.5","","","","","stimuli/AF11_HO.jpg","",""
"explore-choice","87","510384","0.0-87.0","p292967","A1NFBKUYYVUYWF","3WPCIUYH1BELQU8EB2L3QVOOKYBTD4","3X08E93BHXOJQ7GHV4AXYZH72G766Z","emotion","mismatch","uniform","","","","","","","2015","513166","515181","[""stimuli/AF02_HO.jpg"",""stimuli/BF06_DO.jpg"",""stimuli/AF11_SUR.jpg"",""stimuli/WM11_SC.jpg""]","stimuli/AF02_HO.jpg","stimuli/BF06_DO.jpg","stimuli/AF11_SUR.jpg","stimuli/WM11_SC.jpg","pos1","stimuli/AF02_HO.jpg","HO","AF02","0","4","8","8","stimuli/stars_8.png","139.5","[""HO"",""DO"",""SUR"",""SC""]","[""AF02"",""BF06"",""AF11"",""WM11""]","[8,2,5,5]","[8,2,6,4]","","",""
"show-reward","88","512388","0.0-88.0","p292967","A1NFBKUYYVUYWF","3WPCIUYH1BELQU8EB2L3QVOOKYBTD4","3X08E93BHXOJQ7GHV4AXYZH72G766Z","emotion","mismatch","uniform","","","","","","","","515690","517694","","","","","","","","","","","","8","","stimuli/stars_8.png","139.5","","","","","stimuli/AF02_HO.jpg","",""
"explore-choice","89","514740","0.0-89.0","p292967","A1NFBKUYYVUYWF","3WPCIUYH1BELQU8EB2L3QVOOKYBTD4","3X08E93BHXOJQ7GHV4AXYZH72G766Z","emotion","mismatch","uniform","","","","","","","1848","517695","519543","[""stimuli/BF06_SC.jpg"",""stimuli/AF02_HO.jpg"",""stimuli/WM11_SUR.jpg"",""stimuli/AF11_DO.jpg""]","stimuli/BF06_SC.jpg","stimuli/AF02_HO.jpg","stimuli/WM11_SUR.jpg","stimuli/AF11_DO.jpg","pos2","stimuli/AF02_HO.jpg","HO","AF02","1","3","6","8","stimuli/stars_6.png","142.5","[""SC"",""HO"",""SUR"",""DO""]","[""BF06"",""AF02"",""WM11"",""AF11""]","[2,6,4,2]","[4,8,6,2]","","",""
"show-reward","90","516744","0.0-90.0","p292967","A1NFBKUYYVUYWF","3WPCIUYH1BELQU8EB2L3QVOOKYBTD4","3X08E93BHXOJQ7GHV4AXYZH72G766Z","emotion","mismatch","uniform","","","","","","","","520047","522051","","","","","","","","","","","","6","","stimuli/stars_6.png","142.5","","","","","stimuli/AF02_HO.jpg","",""
"explore-choice","91","518449","0.0-91.0","p292967","A1NFBKUYYVUYWF","3WPCIUYH1BELQU8EB2L3QVOOKYBTD4","3X08E93BHXOJQ7GHV4AXYZH72G766Z","emotion","mismatch","uniform","","","","","","","1202","522051","523253","[""stimuli/AF11_SC.jpg"",""stimuli/BF06_DO.jpg"",""stimuli/WM11_HO.jpg"",""stimuli/AF02_SUR.jpg""]","stimuli/AF11_SC.jpg","stimuli/BF06_DO.jpg","stimuli/WM11_HO.jpg","stimuli/AF02_SUR.jpg","pos3","stimuli/WM11_HO.jpg","HO","WM11","2","4","8","8","stimuli/stars_8.png","146.5","[""SC"",""DO"",""HO"",""SUR""]","[""AF11"",""BF06"",""WM11"",""AF02""]","[4,4,8,4]","[4,2,8,6]","","",""
"show-reward","92","520453","0.0-92.0","p292967","A1NFBKUYYVUYWF","3WPCIUYH1BELQU8EB2L3QVOOKYBTD4","3X08E93BHXOJQ7GHV4AXYZH72G766Z","emotion","mismatch","uniform","","","","","","","","523755","525758","","","","","","","","","","","","8","","stimuli/stars_8.png","146.5","","","","","stimuli/WM11_HO.jpg","",""
"explore-choice","93","523657","0.0-93.0","p292967","A1NFBKUYYVUYWF","3WPCIUYH1BELQU8EB2L3QVOOKYBTD4","3X08E93BHXOJQ7GHV4AXYZH72G766Z","emotion","mismatch","uniform","","","","","","","2704","525759","528463","[""stimuli/AF11_DO.jpg"",""stimuli/WM11_SC.jpg"",""stimuli/AF02_HO.jpg"",""stimuli/BF06_SUR.jpg""]","stimuli/AF11_DO.jpg","stimuli/WM11_SC.jpg","stimuli/AF02_HO.jpg","stimuli/BF06_SUR.jpg","pos3","stimuli/AF02_HO.jpg","HO","AF02","2","3","6","8","stimuli/stars_6.png","149.5","[""DO"",""SC"",""HO"",""SUR""]","[""AF11"",""WM11"",""AF02"",""BF06""]","[3,3,6,5]","[2,4,8,6]","","",""
"show-reward","94","525673","0.0-94.0","p292967","A1NFBKUYYVUYWF","3WPCIUYH1BELQU8EB2L3QVOOKYBTD4","3X08E93BHXOJQ7GHV4AXYZH72G766Z","emotion","mismatch","uniform","","","","","","","","528964","530979","","","","","","","","","","","","6","","stimuli/stars_6.png","149.5","","","","","stimuli/AF02_HO.jpg","",""
"explore-choice","95","527839","0.0-95.0","p292967","A1NFBKUYYVUYWF","3WPCIUYH1BELQU8EB2L3QVOOKYBTD4","3X08E93BHXOJQ7GHV4AXYZH72G766Z","emotion","mismatch","uniform","","","","","","","1659","530980","532639","[""stimuli/BF06_SUR.jpg"",""stimuli/AF02_HO.jpg"",""stimuli/WM11_DO.jpg"",""stimuli/AF11_SC.jpg""]","stimuli/BF06_SUR.jpg","stimuli/AF02_HO.jpg","stimuli/WM11_DO.jpg","stimuli/AF11_SC.jpg","pos2","stimuli/AF02_HO.jpg","HO","AF02","1","4","8","8","stimuli/stars_8.png","153.5","[""SUR"",""HO"",""DO"",""SC""]","[""BF06"",""AF02"",""WM11"",""AF11""]","[8,8,1,2]","[6,8,2,4]","","",""
"show-reward","96","529843","0.0-96.0","p292967","A1NFBKUYYVUYWF","3WPCIUYH1BELQU8EB2L3QVOOKYBTD4","3X08E93BHXOJQ7GHV4AXYZH72G766Z","emotion","mismatch","uniform","","","","","","","","533145","535150","","","","","","","","","","","","8","","stimuli/stars_8.png","153.5","","","","","stimuli/AF02_HO.jpg","",""
"explore-choice","97","532581","0.0-97.0","p292967","A1NFBKUYYVUYWF","3WPCIUYH1BELQU8EB2L3QVOOKYBTD4","3X08E93BHXOJQ7GHV4AXYZH72G766Z","emotion","mismatch","uniform","","","","","","","2224","535150","537374","[""stimuli/AF11_SC.jpg"",""stimuli/AF02_HO.jpg"",""stimuli/WM11_SUR.jpg"",""stimuli/BF06_DO.jpg""]","stimuli/AF11_SC.jpg","stimuli/AF02_HO.jpg","stimuli/WM11_SUR.jpg","stimuli/BF06_DO.jpg","pos2","stimuli/AF02_HO.jpg","HO","AF02","1","4.5","9","8","stimuli/stars_9.png","158","[""SC"",""HO"",""SUR"",""DO""]","[""AF11"",""AF02"",""WM11"",""BF06""]","[4,9,6,1]","[4,8,6,2]","","",""
"show-reward","98","534587","0.0-98.0","p292967","A1NFBKUYYVUYWF","3WPCIUYH1BELQU8EB2L3QVOOKYBTD4","3X08E93BHXOJQ7GHV4AXYZH72G766Z","emotion","mismatch","uniform","","","","","","","","537888","539893","","","","","","","","","","","","9","","stimuli/stars_9.png","158","","","","","stimuli/AF02_HO.jpg","",""
"explore-choice","99","535960","0.0-99.0","p292967","A1NFBKUYYVUYWF","3WPCIUYH1BELQU8EB2L3QVOOKYBTD4","3X08E93BHXOJQ7GHV4AXYZH72G766Z","emotion","mismatch","uniform","","","","","","","856","539894","540750","[""stimuli/AF02_HO.jpg"",""stimuli/AF11_SUR.jpg"",""stimuli/WM11_DO.jpg"",""stimuli/BF06_SC.jpg""]","stimuli/AF02_HO.jpg","stimuli/AF11_SUR.jpg","stimuli/WM11_DO.jpg","stimuli/BF06_SC.jpg","pos1","stimuli/AF02_HO.jpg","HO","AF02","0","3","6","8","stimuli/stars_6.png","161","[""HO"",""SUR"",""DO"",""SC""]","[""AF02"",""AF11"",""WM11"",""BF06""]","[6,7,2,3]","[8,6,2,4]","","",""
"show-reward","100","537965","0.0-100.0","p292967","A1NFBKUYYVUYWF","3WPCIUYH1BELQU8EB2L3QVOOKYBTD4","3X08E93BHXOJQ7GHV4AXYZH72G766Z","emotion","mismatch","uniform","","","","","","","","541267","543271","","","","","","","","","","","","6","","stimuli/stars_6.png","161","","","","","stimuli/AF02_HO.jpg","",""
"explore-choice","101","539801","0.0-101.0","p292967","A1NFBKUYYVUYWF","3WPCIUYH1BELQU8EB2L3QVOOKYBTD4","3X08E93BHXOJQ7GHV4AXYZH72G766Z","emotion","mismatch","uniform","","","","","","","1326","543272","544598","[""stimuli/WM11_SUR.jpg"",""stimuli/BF06_DO.jpg"",""stimuli/AF11_HO.jpg"",""stimuli/AF02_SC.jpg""]","stimuli/WM11_SUR.jpg","stimuli/BF06_DO.jpg","stimuli/AF11_HO.jpg","stimuli/AF02_SC.jpg","pos3","stimuli/AF11_HO.jpg","HO","AF11","2","4","8","8","stimuli/stars_8.png","165","[""SUR"",""DO"",""HO"",""SC""]","[""WM11"",""BF06"",""AF11"",""AF02""]","[5,3,8,3]","[6,2,8,4]","","",""
"show-reward","102","541807","0.0-102.0","p292967","A1NFBKUYYVUYWF","3WPCIUYH1BELQU8EB2L3QVOOKYBTD4","3X08E93BHXOJQ7GHV4AXYZH72G766Z","emotion","mismatch","uniform","","","","","","","","545108","547112","","","","","","","","","","","","8","","stimuli/stars_8.png","165","","","","","stimuli/AF11_HO.jpg","",""
"explore-choice","103","544312","0.0-103.0","p292967","A1NFBKUYYVUYWF","3WPCIUYH1BELQU8EB2L3QVOOKYBTD4","3X08E93BHXOJQ7GHV4AXYZH72G766Z","emotion","mismatch","uniform","","","","","","","2003","547113","549116","[""stimuli/WF06_AO.jpg"",""stimuli/WM09_CC.jpg"",""stimuli/HF04_FO.jpg"",""stimuli/BM16_HE.jpg""]","stimuli/WF06_AO.jpg","stimuli/WM09_CC.jpg","stimuli/HF04_FO.jpg","stimuli/BM16_HE.jpg","pos4","stimuli/BM16_HE.jpg","HE","BM16","3","2","4","6","stimuli/stars_4.png","167","[""AO"",""CC"",""FO"",""HE""]","[""WF06"",""WM09"",""HF04"",""BM16""]","[3,7,5,4]","[2,8,4,6]","","",""
"show-reward","104","546317","0.0-104.0","p292967","A1NFBKUYYVUYWF","3WPCIUYH1BELQU8EB2L3QVOOKYBTD4","3X08E93BHXOJQ7GHV4AXYZH72G766Z","emotion","mismatch","uniform","","","","","","","","549619","551622","","","","","","","","","","","","4","","stimuli/stars_4.png","167","","","","","stimuli/BM16_HE.jpg","",""
"explore-choice","105","549240","0.0-105.0","p292967","A1NFBKUYYVUYWF","3WPCIUYH1BELQU8EB2L3QVOOKYBTD4","3X08E93BHXOJQ7GHV4AXYZH72G766Z","emotion","mismatch","uniform","","","","","","","2417","551623","554040","[""stimuli/WF06_CC.jpg"",""stimuli/BM16_HE.jpg"",""stimuli/WM09_AO.jpg"",""stimuli/HF04_FO.jpg""]","stimuli/WF06_CC.jpg","stimuli/BM16_HE.jpg","stimuli/WM09_AO.jpg","stimuli/HF04_FO.jpg","pos3","stimuli/WM09_AO.jpg","AO","WM09","2","3","6","8","stimuli/stars_6.png","170","[""CC"",""HE"",""AO"",""FO""]","[""WF06"",""BM16"",""WM09"",""HF04""]","[4,5,6,6]","[2,6,8,4]","","",""
"show-reward","106","551245","0.0-106.0","p292967","A1NFBKUYYVUYWF","3WPCIUYH1BELQU8EB2L3QVOOKYBTD4","3X08E93BHXOJQ7GHV4AXYZH72G766Z","emotion","mismatch","uniform","","","","","","","","554547","556551","","","","","","","","","","","","6","","stimuli/stars_6.png","170","","","","","stimuli/WM09_AO.jpg","",""
"explore-choice","107","552972","0.0-107.0","p292967","A1NFBKUYYVUYWF","3WPCIUYH1BELQU8EB2L3QVOOKYBTD4","3X08E93BHXOJQ7GHV4AXYZH72G766Z","emotion","mismatch","uniform","","","","","","","1212","556552","557764","[""stimuli/BM16_CC.jpg"",""stimuli/WF06_FO.jpg"",""stimuli/HF04_AO.jpg"",""stimuli/WM09_HE.jpg""]","stimuli/BM16_CC.jpg","stimuli/WF06_FO.jpg","stimuli/HF04_AO.jpg","stimuli/WM09_HE.jpg","pos1","stimuli/BM16_CC.jpg","CC","BM16","0","2","4","6","stimuli/stars_4.png","172","[""CC"",""FO"",""AO"",""HE""]","[""BM16"",""WF06"",""HF04"",""WM09""]","[4,2,4,10]","[6,2,4,8]","","",""
"show-reward","108","554976","0.0-108.0","p292967","A1NFBKUYYVUYWF","3WPCIUYH1BELQU8EB2L3QVOOKYBTD4","3X08E93BHXOJQ7GHV4AXYZH72G766Z","emotion","mismatch","uniform","","","","","","","","558278","560282","","","","","","","","","","","","4","","stimuli/stars_4.png","172","","","","","stimuli/BM16_CC.jpg","",""
"explore-choice","109","556796","0.0-109.0","p292967","A1NFBKUYYVUYWF","3WPCIUYH1BELQU8EB2L3QVOOKYBTD4","3X08E93BHXOJQ7GHV4AXYZH72G766Z","emotion","mismatch","uniform","","","","","","","1308","560282","561590","[""stimuli/WF06_AO.jpg"",""stimuli/HF04_HE.jpg"",""stimuli/WM09_CC.jpg"",""stimuli/BM16_FO.jpg""]","stimuli/WF06_AO.jpg","stimuli/HF04_HE.jpg","stimuli/WM09_CC.jpg","stimuli/BM16_FO.jpg","pos2","stimuli/HF04_HE.jpg","HE","HF04","1","1.5","3","4","stimuli/stars_3.png","173.5","[""AO"",""HE"",""CC"",""FO""]","[""WF06"",""HF04"",""WM09"",""BM16""]","[0,3,6,8]","[2,4,8,6]","","",""
"show-reward","110","558801","0.0-110.0","p292967","A1NFBKUYYVUYWF","3WPCIUYH1BELQU8EB2L3QVOOKYBTD4","3X08E93BHXOJQ7GHV4AXYZH72G766Z","emotion","mismatch","uniform","","","","","","","","562102","564107","","","","","","","","","","","","3","","stimuli/stars_3.png","173.5","","","","","stimuli/HF04_HE.jpg","",""
"explore-choice","111","562194","0.0-111.0","p292967","A1NFBKUYYVUYWF","3WPCIUYH1BELQU8EB2L3QVOOKYBTD4","3X08E93BHXOJQ7GHV4AXYZH72G766Z","emotion","mismatch","uniform","","","","","","","2878","564108","566986","[""stimuli/BM16_AO.jpg"",""stimuli/HF04_FO.jpg"",""stimuli/WM09_CC.jpg"",""stimuli/WF06_HE.jpg""]","stimuli/BM16_AO.jpg","stimuli/HF04_FO.jpg","stimuli/WM09_CC.jpg","stimuli/WF06_HE.jpg","pos4","stimuli/WF06_HE.jpg","HE","WF06","3","0.5","1","2","stimuli/stars_1.png","174","[""AO"",""FO"",""CC"",""HE""]","[""BM16"",""HF04"",""WM09"",""WF06""]","[6,6,8,1]","[6,4,8,2]","","",""
"show-reward","112","564197","0.0-112.0","p292967","A1NFBKUYYVUYWF","3WPCIUYH1BELQU8EB2L3QVOOKYBTD4","3X08E93BHXOJQ7GHV4AXYZH72G766Z","emotion","mismatch","uniform","","","","","","","","567500","569503","","","","","","","","","","","","1","","stimuli/stars_1.png","174","","","","","stimuli/WF06_HE.jpg","",""
"explore-choice","113","565878","0.0-113.0","p292967","A1NFBKUYYVUYWF","3WPCIUYH1BELQU8EB2L3QVOOKYBTD4","3X08E93BHXOJQ7GHV4AXYZH72G766Z","emotion","mismatch","uniform","","","","","","","1176","569504","570680","[""stimuli/WF06_FO.jpg"",""stimuli/BM16_AO.jpg"",""stimuli/HF04_HE.jpg"",""stimuli/WM09_CC.jpg""]","stimuli/WF06_FO.jpg","stimuli/BM16_AO.jpg","stimuli/HF04_HE.jpg","stimuli/WM09_CC.jpg","pos1","stimuli/WF06_FO.jpg","FO","WF06","0","1.5","3","2","stimuli/stars_3.png","175.5","[""FO"",""AO"",""HE"",""CC""]","[""WF06"",""BM16"",""HF04"",""WM09""]","[3,5,3,10]","[2,6,4,8]","","",""
"show-reward","114","567882","0.0-114.0","p292967","A1NFBKUYYVUYWF","3WPCIUYH1BELQU8EB2L3QVOOKYBTD4","3X08E93BHXOJQ7GHV4AXYZH72G766Z","emotion","mismatch","uniform","","","","","","","","571185","573188","","","","","","","","","","","","3","","stimuli/stars_3.png","175.5","","","","","stimuli/WF06_FO.jpg","",""
"explore-choice","115","570210","0.0-115.0","p292967","A1NFBKUYYVUYWF","3WPCIUYH1BELQU8EB2L3QVOOKYBTD4","3X08E93BHXOJQ7GHV4AXYZH72G766Z","emotion","mismatch","uniform","","","","","","","1807","573189","574996","[""stimuli/HF04_CC.jpg"",""stimuli/WF06_HE.jpg"",""stimuli/WM09_FO.jpg"",""stimuli/BM16_AO.jpg""]","stimuli/HF04_CC.jpg","stimuli/WF06_HE.jpg","stimuli/WM09_FO.jpg","stimuli/BM16_AO.jpg","pos2","stimuli/WF06_HE.jpg","HE","WF06","1","0","0","2","stimuli/stars_0.png","175.5","[""CC"",""HE"",""FO"",""AO""]","[""HF04"",""WF06"",""WM09"",""BM16""]","[4,0,7,6]","[4,2,8,6]","","",""
"show-reward","116","572215","0.0-116.0","p292967","A1NFBKUYYVUYWF","3WPCIUYH1BELQU8EB2L3QVOOKYBTD4","3X08E93BHXOJQ7GHV4AXYZH72G766Z","emotion","mismatch","uniform","","","","","","","","575516","577520","","","","","","","","","","","","0","","stimuli/stars_0.png","175.5","","","","","stimuli/WF06_HE.jpg","",""
"explore-choice","117","573819","0.0-117.0","p292967","A1NFBKUYYVUYWF","3WPCIUYH1BELQU8EB2L3QVOOKYBTD4","3X08E93BHXOJQ7GHV4AXYZH72G766Z","emotion","mismatch","uniform","","","","","","","1099","577521","578620","[""stimuli/WM09_FO.jpg"",""stimuli/BM16_CC.jpg"",""stimuli/WF06_AO.jpg"",""stimuli/HF04_HE.jpg""]","stimuli/WM09_FO.jpg","stimuli/BM16_CC.jpg","stimuli/WF06_AO.jpg","stimuli/HF04_HE.jpg","pos3","stimuli/WF06_AO.jpg","AO","WF06","2","1.5","3","2","stimuli/stars_3.png","177","[""FO"",""CC"",""AO"",""HE""]","[""WM09"",""BM16"",""WF06"",""HF04""]","[10,5,3,4]","[8,6,2,4]","","",""
"show-reward","118","575823","0.0-118.0","p292967","A1NFBKUYYVUYWF","3WPCIUYH1BELQU8EB2L3QVOOKYBTD4","3X08E93BHXOJQ7GHV4AXYZH72G766Z","emotion","mismatch","uniform","","","","","","","","579125","581130","","","","","","","","","","","","3","","stimuli/stars_3.png","177","","","","","stimuli/WF06_AO.jpg","",""
"explore-choice","119","577491","0.0-119.0","p292967","A1NFBKUYYVUYWF","3WPCIUYH1BELQU8EB2L3QVOOKYBTD4","3X08E93BHXOJQ7GHV4AXYZH72G766Z","emotion","mismatch","uniform","","","","","","","1151","581131","582282","[""stimuli/BM16_CC.jpg"",""stimuli/WM09_HE.jpg"",""stimuli/HF04_FO.jpg"",""stimuli/WF06_AO.jpg""]","stimuli/BM16_CC.jpg","stimuli/WM09_HE.jpg","stimuli/HF04_FO.jpg","stimuli/WF06_AO.jpg","pos1","stimuli/BM16_CC.jpg","CC","BM16","0","4","8","6","stimuli/stars_8.png","181","[""CC"",""HE"",""FO"",""AO""]","[""BM16"",""WM09"",""HF04"",""WF06""]","[8,9,6,2]","[6,8,4,2]","","",""
"show-reward","120","579495","0.0-120.0","p292967","A1NFBKUYYVUYWF","3WPCIUYH1BELQU8EB2L3QVOOKYBTD4","3X08E93BHXOJQ7GHV4AXYZH72G766Z","emotion","mismatch","uniform","","","","","","","","582798","584801","","","","","","","","","","","","8","","stimuli/stars_8.png","181","","","","","stimuli/BM16_CC.jpg","",""
"explore-choice","121","581800","0.0-121.0","p292967","A1NFBKUYYVUYWF","3WPCIUYH1BELQU8EB2L3QVOOKYBTD4","3X08E93BHXOJQ7GHV4AXYZH72G766Z","emotion","mismatch","uniform","","","","","","","1803","584801","586604","[""stimuli/WM09_AO.jpg"",""stimuli/BM16_HE.jpg"",""stimuli/HF04_CC.jpg"",""stimuli/WF06_FO.jpg""]","stimuli/WM09_AO.jpg","stimuli/BM16_HE.jpg","stimuli/HF04_CC.jpg","stimuli/WF06_FO.jpg","pos3","stimuli/HF04_CC.jpg","CC","HF04","2","1.5","3","4","stimuli/stars_3.png","182.5","[""AO"",""HE"",""CC"",""FO""]","[""WM09"",""BM16"",""HF04"",""WF06""]","[6,8,3,2]","[8,6,4,2]","","",""
"show-reward","122","583805","0.0-122.0","p292967","A1NFBKUYYVUYWF","3WPCIUYH1BELQU8EB2L3QVOOKYBTD4","3X08E93BHXOJQ7GHV4AXYZH72G766Z","emotion","mismatch","uniform","","","","","","","","587107","589111","","","","","","","","","","","","3","","stimuli/stars_3.png","182.5","","","","","stimuli/HF04_CC.jpg","",""
"explore-choice","123","585826","0.0-123.0","p292967","A1NFBKUYYVUYWF","3WPCIUYH1BELQU8EB2L3QVOOKYBTD4","3X08E93BHXOJQ7GHV4AXYZH72G766Z","emotion","mismatch","uniform","","","","","","","1512","589112","590624","[""stimuli/HF04_CC.jpg"",""stimuli/WM09_HE.jpg"",""stimuli/BM16_AO.jpg"",""stimuli/WF06_FO.jpg""]","stimuli/HF04_CC.jpg","stimuli/WM09_HE.jpg","stimuli/BM16_AO.jpg","stimuli/WF06_FO.jpg","pos1","stimuli/HF04_CC.jpg","CC","HF04","0","2","4","4","stimuli/stars_4.png","184.5","[""CC"",""HE"",""AO"",""FO""]","[""HF04"",""WM09"",""BM16"",""WF06""]","[4,6,8,4]","[4,8,6,2]","","",""
"show-reward","124","587832","0.0-124.0","p292967","A1NFBKUYYVUYWF","3WPCIUYH1BELQU8EB2L3QVOOKYBTD4","3X08E93BHXOJQ7GHV4AXYZH72G766Z","emotion","mismatch","uniform","","","","","","","","591133","593137","","","","","","","","","","","","4","","stimuli/stars_4.png","184.5","","","","","stimuli/HF04_CC.jpg","",""
"explore-choice","125","589906","0.0-125.0","p292967","A1NFBKUYYVUYWF","3WPCIUYH1BELQU8EB2L3QVOOKYBTD4","3X08E93BHXOJQ7GHV4AXYZH72G766Z","emotion","mismatch","uniform","","","","","","","1570","593138","594708","[""stimuli/WF06_AO.jpg"",""stimuli/HF04_CC.jpg"",""stimuli/WM09_HE.jpg"",""stimuli/BM16_FO.jpg""]","stimuli/WF06_AO.jpg","stimuli/HF04_CC.jpg","stimuli/WM09_HE.jpg","stimuli/BM16_FO.jpg","pos2","stimuli/HF04_CC.jpg","CC","HF04","1","1.5","3","4","stimuli/stars_3.png","186","[""AO"",""CC"",""HE"",""FO""]","[""WF06"",""HF04"",""WM09"",""BM16""]","[2,3,10,4]","[2,4,8,6]","","",""
"show-reward","126","591910","0.0-126.0","p292967","A1NFBKUYYVUYWF","3WPCIUYH1BELQU8EB2L3QVOOKYBTD4","3X08E93BHXOJQ7GHV4AXYZH72G766Z","emotion","mismatch","uniform","","","","","","","","595212","597216","","","","","","","","","","","","3","","stimuli/stars_3.png","186","","","","","stimuli/HF04_CC.jpg","",""
"explore-choice","127","593767","0.0-127.0","p292967","A1NFBKUYYVUYWF","3WPCIUYH1BELQU8EB2L3QVOOKYBTD4","3X08E93BHXOJQ7GHV4AXYZH72G766Z","emotion","mismatch","uniform","","","","","","","1355","597217","598572","[""stimuli/BM16_AO.jpg"",""stimuli/WM09_HE.jpg"",""stimuli/WF06_CC.jpg"",""stimuli/HF04_FO.jpg""]","stimuli/BM16_AO.jpg","stimuli/WM09_HE.jpg","stimuli/WF06_CC.jpg","stimuli/HF04_FO.jpg","pos3","stimuli/WF06_CC.jpg","CC","WF06","2","2","4","2","stimuli/stars_4.png","188","[""AO"",""HE"",""CC"",""FO""]","[""BM16"",""WM09"",""WF06"",""HF04""]","[5,6,4,2]","[6,8,2,4]","","",""
"show-reward","128","595771","0.0-128.0","p292967","A1NFBKUYYVUYWF","3WPCIUYH1BELQU8EB2L3QVOOKYBTD4","3X08E93BHXOJQ7GHV4AXYZH72G766Z","emotion","mismatch","uniform","","","","","","","","599073","601077","","","","","","","","","","","","4","","stimuli/stars_4.png","188","","","","","stimuli/WF06_CC.jpg","",""
"explore-choice","129","597253","0.0-129.0","p292967","A1NFBKUYYVUYWF","3WPCIUYH1BELQU8EB2L3QVOOKYBTD4","3X08E93BHXOJQ7GHV4AXYZH72G766Z","emotion","mismatch","uniform","","","","","","","970","601078","602048","[""stimuli/BM16_FO.jpg"",""stimuli/WM09_HE.jpg"",""stimuli/WF06_CC.jpg"",""stimuli/HF04_AO.jpg""]","stimuli/BM16_FO.jpg","stimuli/WM09_HE.jpg","stimuli/WF06_CC.jpg","stimuli/HF04_AO.jpg","pos3","stimuli/WF06_CC.jpg","CC","WF06","2","0","0","2","stimuli/stars_0.png","188","[""FO"",""HE"",""CC"",""AO""]","[""BM16"",""WM09"",""WF06"",""HF04""]","[6,6,0,5]","[6,8,2,4]","","",""
"show-reward","130","599257","0.0-130.0","p292967","A1NFBKUYYVUYWF","3WPCIUYH1BELQU8EB2L3QVOOKYBTD4","3X08E93BHXOJQ7GHV4AXYZH72G766Z","emotion","mismatch","uniform","","","","","","","","602559","604564","","","","","","","","","","","","0","","stimuli/stars_0.png","188","","","","","stimuli/WF06_CC.jpg","",""
"explore-choice","131","601563","0.0-131.0","p292967","A1NFBKUYYVUYWF","3WPCIUYH1BELQU8EB2L3QVOOKYBTD4","3X08E93BHXOJQ7GHV4AXYZH72G766Z","emotion","mismatch","uniform","","","","","","","1792","604564","606356","[""stimuli/WF06_CC.jpg"",""stimuli/BM16_HE.jpg"",""stimuli/HF04_AO.jpg"",""stimuli/WM09_FO.jpg""]","stimuli/WF06_CC.jpg","stimuli/BM16_HE.jpg","stimuli/HF04_AO.jpg","stimuli/WM09_FO.jpg","pos1","stimuli/WF06_CC.jpg","CC","WF06","0","1","2","2","stimuli/stars_2.png","189","[""CC"",""HE"",""AO"",""FO""]","[""WF06"",""BM16"",""HF04"",""WM09""]","[2,6,6,7]","[2,6,4,8]","","",""
"show-reward","132","603567","0.0-132.0","p292967","A1NFBKUYYVUYWF","3WPCIUYH1BELQU8EB2L3QVOOKYBTD4","3X08E93BHXOJQ7GHV4AXYZH72G766Z","emotion","mismatch","uniform","","","","","","","","606870","608874","","","","","","","","","","","","2","","stimuli/stars_2.png","189","","","","","stimuli/WF06_CC.jpg","",""
"explore-choice","133","605695","0.0-133.0","p292967","A1NFBKUYYVUYWF","3WPCIUYH1BELQU8EB2L3QVOOKYBTD4","3X08E93BHXOJQ7GHV4AXYZH72G766Z","emotion","mismatch","uniform","","","","","","","1626","608874","610500","[""stimuli/WM09_FO.jpg"",""stimuli/WF06_CC.jpg"",""stimuli/HF04_HE.jpg"",""stimuli/BM16_AO.jpg""]","stimuli/WM09_FO.jpg","stimuli/WF06_CC.jpg","stimuli/HF04_HE.jpg","stimuli/BM16_AO.jpg","pos3","stimuli/HF04_HE.jpg","HE","HF04","2","2.5","5","4","stimuli/stars_5.png","191.5","[""FO"",""CC"",""HE"",""AO""]","[""WM09"",""WF06"",""HF04"",""BM16""]","[9,1,5,8]","[8,2,4,6]","","",""
"show-reward","134","607699","0.0-134.0","p292967","A1NFBKUYYVUYWF","3WPCIUYH1BELQU8EB2L3QVOOKYBTD4","3X08E93BHXOJQ7GHV4AXYZH72G766Z","emotion","mismatch","uniform","","","","","","","","611002","613005","","","","","","","","","","","","5","","stimuli/stars_5.png","191.5","","","","","stimuli/HF04_HE.jpg","",""
"explore-choice","135","610235","0.0-135.0","p292967","A1NFBKUYYVUYWF","3WPCIUYH1BELQU8EB2L3QVOOKYBTD4","3X08E93BHXOJQ7GHV4AXYZH72G766Z","emotion","mismatch","uniform","","","","","","","2027","613007","615034","[""stimuli/WM09_AO.jpg"",""stimuli/WF06_HE.jpg"",""stimuli/BM16_FO.jpg"",""stimuli/HF04_CC.jpg""]","stimuli/WM09_AO.jpg","stimuli/WF06_HE.jpg","stimuli/BM16_FO.jpg","stimuli/HF04_CC.jpg","pos4","stimuli/HF04_CC.jpg","CC","HF04","3","1","2","4","stimuli/stars_2.png","192.5","[""AO"",""HE"",""FO"",""CC""]","[""WM09"",""WF06"",""BM16"",""HF04""]","[8,2,8,2]","[8,2,6,4]","","",""
"show-reward","136","612240","0.0-136.0","p292967","A1NFBKUYYVUYWF","3WPCIUYH1BELQU8EB2L3QVOOKYBTD4","3X08E93BHXOJQ7GHV4AXYZH72G766Z","emotion","mismatch","uniform","","","","","","","","615542","617546","","","","","","","","","","","","2","","stimuli/stars_2.png","192.5","","","","","stimuli/HF04_CC.jpg","",""
"explore-choice","137","614091","0.0-137.0","p292967","A1NFBKUYYVUYWF","3WPCIUYH1BELQU8EB2L3QVOOKYBTD4","3X08E93BHXOJQ7GHV4AXYZH72G766Z","emotion","mismatch","uniform","","","","","","","1343","617547","618890","[""stimuli/HF04_HE.jpg"",""stimuli/BM16_FO.jpg"",""stimuli/WF06_CC.jpg"",""stimuli/WM09_AO.jpg""]","stimuli/HF04_HE.jpg","stimuli/BM16_FO.jpg","stimuli/WF06_CC.jpg","stimuli/WM09_AO.jpg","pos1","stimuli/HF04_HE.jpg","HE","HF04","0","1.5","3","4","stimuli/stars_3.png","194","[""HE"",""FO"",""CC"",""AO""]","[""HF04"",""BM16"",""WF06"",""WM09""]","[3,8,0,10]","[4,6,2,8]","","",""
"show-reward","138","616096","0.0-138.0","p292967","A1NFBKUYYVUYWF","3WPCIUYH1BELQU8EB2L3QVOOKYBTD4","3X08E93BHXOJQ7GHV4AXYZH72G766Z","emotion","mismatch","uniform","","","","","","","","619397","621401","","","","","","","","","","","","3","","stimuli/stars_3.png","194","","","","","stimuli/HF04_HE.jpg","",""
"explore-choice","139","618086","0.0-139.0","p292967","A1NFBKUYYVUYWF","3WPCIUYH1BELQU8EB2L3QVOOKYBTD4","3X08E93BHXOJQ7GHV4AXYZH72G766Z","emotion","mismatch","uniform","","","","","","","1475","621402","622877","[""stimuli/WM09_CC.jpg"",""stimuli/BM16_HE.jpg"",""stimuli/HF04_AO.jpg"",""stimuli/WF06_FO.jpg""]","stimuli/WM09_CC.jpg","stimuli/BM16_HE.jpg","stimuli/HF04_AO.jpg","stimuli/WF06_FO.jpg","pos3","stimuli/HF04_AO.jpg","AO","HF04","2","2","4","4","stimuli/stars_4.png","196","[""CC"",""HE"",""AO"",""FO""]","[""WM09"",""BM16"",""HF04"",""WF06""]","[7,6,4,0]","[8,6,4,2]","","",""
"show-reward","140","620091","0.0-140.0","p292967","A1NFBKUYYVUYWF","3WPCIUYH1BELQU8EB2L3QVOOKYBTD4","3X08E93BHXOJQ7GHV4AXYZH72G766Z","emotion","mismatch","uniform","","","","","","","","623393","625397","","","","","","","","","","","","4","","stimuli/stars_4.png","196","","","","","stimuli/HF04_AO.jpg","",""
"explore-choice","141","621232","0.0-141.0","p292967","A1NFBKUYYVUYWF","3WPCIUYH1BELQU8EB2L3QVOOKYBTD4","3X08E93BHXOJQ7GHV4AXYZH72G766Z","emotion","mismatch","uniform","","","","","","","638","625398","626036","[""stimuli/WF06_FO.jpg"",""stimuli/BM16_CC.jpg"",""stimuli/HF04_HE.jpg"",""stimuli/WM09_AO.jpg""]","stimuli/WF06_FO.jpg","stimuli/BM16_CC.jpg","stimuli/HF04_HE.jpg","stimuli/WM09_AO.jpg","pos3","stimuli/HF04_HE.jpg","HE","HF04","2","1","2","4","stimuli/stars_2.png","197","[""FO"",""CC"",""HE"",""AO""]","[""WF06"",""BM16"",""HF04"",""WM09""]","[3,6,2,9]","[2,6,4,8]","","",""
"show-reward","142","623236","0.0-142.0","p292967","A1NFBKUYYVUYWF","3WPCIUYH1BELQU8EB2L3QVOOKYBTD4","3X08E93BHXOJQ7GHV4AXYZH72G766Z","emotion","mismatch","uniform","","","","","","","","626539","628543","","","","","","","","","","","","2","","stimuli/stars_2.png","197","","","","","stimuli/HF04_HE.jpg","",""
"explore-choice","143","624872","0.0-143.0","p292967","A1NFBKUYYVUYWF","3WPCIUYH1BELQU8EB2L3QVOOKYBTD4","3X08E93BHXOJQ7GHV4AXYZH72G766Z","emotion","mismatch","uniform","","","","","","","1130","628544","629674","[""stimuli/HF04_FO.jpg"",""stimuli/WF06_HE.jpg"",""stimuli/BM16_CC.jpg"",""stimuli/WM09_AO.jpg""]","stimuli/HF04_FO.jpg","stimuli/WF06_HE.jpg","stimuli/BM16_CC.jpg","stimuli/WM09_AO.jpg","pos1","stimuli/HF04_FO.jpg","FO","HF04","0","2.5","5","4","stimuli/stars_5.png","199.5","[""FO"",""HE"",""CC"",""AO""]","[""HF04"",""WF06"",""BM16"",""WM09""]","[5,4,5,9]","[4,2,6,8]","","",""
"show-reward","144","626876","0.0-144.0","p292967","A1NFBKUYYVUYWF","3WPCIUYH1BELQU8EB2L3QVOOKYBTD4","3X08E93BHXOJQ7GHV4AXYZH72G766Z","emotion","mismatch","uniform","","","","","","","","630179","632182","","","","","","","","","","","","5","","stimuli/stars_5.png","199.5","","","","","stimuli/HF04_FO.jpg","",""
"explore-choice","145","628850","0.0-145.0","p292967","A1NFBKUYYVUYWF","3WPCIUYH1BELQU8EB2L3QVOOKYBTD4","3X08E93BHXOJQ7GHV4AXYZH72G766Z","emotion","mismatch","uniform","","","","","","","1465","632183","633648","[""stimuli/BM16_HE.jpg"",""stimuli/WM09_FO.jpg"",""stimuli/WF06_AO.jpg"",""stimuli/HF04_CC.jpg""]","stimuli/BM16_HE.jpg","stimuli/WM09_FO.jpg","stimuli/WF06_AO.jpg","stimuli/HF04_CC.jpg","pos4","stimuli/HF04_CC.jpg","CC","HF04","3","1.5","3","4","stimuli/stars_3.png","201","[""HE"",""FO"",""AO"",""CC""]","[""BM16"",""WM09"",""WF06"",""HF04""]","[5,9,4,3]","[6,8,2,4]","","",""
"show-reward","146","630856","0.0-146.0","p292967","A1NFBKUYYVUYWF","3WPCIUYH1BELQU8EB2L3QVOOKYBTD4","3X08E93BHXOJQ7GHV4AXYZH72G766Z","emotion","mismatch","uniform","","","","","","","","634157","636162","","","","","","","","","","","","3","","stimuli/stars_3.png","201","","","","","stimuli/HF04_CC.jpg","",""
"explore-choice","147","632659","0.0-147.0","p292967","A1NFBKUYYVUYWF","3WPCIUYH1BELQU8EB2L3QVOOKYBTD4","3X08E93BHXOJQ7GHV4AXYZH72G766Z","emotion","mismatch","uniform","","","","","","","1279","636163","637442","[""stimuli/WM09_CC.jpg"",""stimuli/HF04_AO.jpg"",""stimuli/BM16_FO.jpg"",""stimuli/WF06_HE.jpg""]","stimuli/WM09_CC.jpg","stimuli/HF04_AO.jpg","stimuli/BM16_FO.jpg","stimuli/WF06_HE.jpg","pos2","stimuli/HF04_AO.jpg","AO","HF04","1","2.5","5","4","stimuli/stars_5.png","203.5","[""CC"",""AO"",""FO"",""HE""]","[""WM09"",""HF04"",""BM16"",""WF06""]","[6,5,4,2]","[8,4,6,2]","","",""
"show-reward","148","634664","0.0-148.0","p292967","A1NFBKUYYVUYWF","3WPCIUYH1BELQU8EB2L3QVOOKYBTD4","3X08E93BHXOJQ7GHV4AXYZH72G766Z","emotion","mismatch","uniform","","","","","","","","637966","639970","","","","","","","","","","","","5","","stimuli/stars_5.png","203.5","","","","","stimuli/HF04_AO.jpg","",""
"explore-choice","149","636116","0.0-149.0","p292967","A1NFBKUYYVUYWF","3WPCIUYH1BELQU8EB2L3QVOOKYBTD4","3X08E93BHXOJQ7GHV4AXYZH72G766Z","emotion","mismatch","uniform","","","","","","","940","639970","640910","[""stimuli/BM16_CC.jpg"",""stimuli/WM09_FO.jpg"",""stimuli/HF04_AO.jpg"",""stimuli/WF06_HE.jpg""]","stimuli/BM16_CC.jpg","stimuli/WM09_FO.jpg","stimuli/HF04_AO.jpg","stimuli/WF06_HE.jpg","pos3","stimuli/HF04_AO.jpg","AO","HF04","2","2.5","5","4","stimuli/stars_5.png","206","[""CC"",""FO"",""AO"",""HE""]","[""BM16"",""WM09"",""HF04"",""WF06""]","[8,7,5,1]","[6,8,4,2]","","",""
"show-reward","150","638120","0.0-150.0","p292967","A1NFBKUYYVUYWF","3WPCIUYH1BELQU8EB2L3QVOOKYBTD4","3X08E93BHXOJQ7GHV4AXYZH72G766Z","emotion","mismatch","uniform","","","","","","","","641422","643425","","","","","","","","","","","","5","","stimuli/stars_5.png","206","","","","","stimuli/HF04_AO.jpg","",""
"explore-choice","151","640125","0.0-151.0","p292967","A1NFBKUYYVUYWF","3WPCIUYH1BELQU8EB2L3QVOOKYBTD4","3X08E93BHXOJQ7GHV4AXYZH72G766Z","emotion","mismatch","uniform","","","","","","","1496","643426","644922","[""stimuli/WF06_HE.jpg"",""stimuli/WM09_AO.jpg"",""stimuli/BM16_CC.jpg"",""stimuli/HF04_FO.jpg""]","stimuli/WF06_HE.jpg","stimuli/WM09_AO.jpg","stimuli/BM16_CC.jpg","stimuli/HF04_FO.jpg","pos4","stimuli/HF04_FO.jpg","FO","HF04","3","2.5","5","4","stimuli/stars_5.png","208.5","[""HE"",""AO"",""CC"",""FO""]","[""WF06"",""WM09"",""BM16"",""HF04""]","[4,9,5,5]","[2,8,6,4]","","",""
"show-reward","152","642129","0.0-152.0","p292967","A1NFBKUYYVUYWF","3WPCIUYH1BELQU8EB2L3QVOOKYBTD4","3X08E93BHXOJQ7GHV4AXYZH72G766Z","emotion","mismatch","uniform","","","","","","","","645432","647435","","","","","","","","","","","","5","","stimuli/stars_5.png","208.5","","","","","stimuli/HF04_FO.jpg","",""
"explore-choice","153","643918","0.0-153.0","p292967","A1NFBKUYYVUYWF","3WPCIUYH1BELQU8EB2L3QVOOKYBTD4","3X08E93BHXOJQ7GHV4AXYZH72G766Z","emotion","mismatch","uniform","","","","","","","1280","647435","648715","[""stimuli/WM09_HE.jpg"",""stimuli/HF04_FO.jpg"",""stimuli/WF06_AO.jpg"",""stimuli/BM16_CC.jpg""]","stimuli/WM09_HE.jpg","stimuli/HF04_FO.jpg","stimuli/WF06_AO.jpg","stimuli/BM16_CC.jpg","pos2","stimuli/HF04_FO.jpg","FO","HF04","1","3","6","4","stimuli/stars_6.png","211.5","[""HE"",""FO"",""AO"",""CC""]","[""WM09"",""HF04"",""WF06"",""BM16""]","[9,6,2,8]","[8,4,2,6]","","",""
"show-reward","154","645922","0.0-154.0","p292967","A1NFBKUYYVUYWF","3WPCIUYH1BELQU8EB2L3QVOOKYBTD4","3X08E93BHXOJQ7GHV4AXYZH72G766Z","emotion","mismatch","uniform","","","","","","","","649224","651227","","","","","","","","","","","","6","","stimuli/stars_6.png","211.5","","","","","stimuli/HF04_FO.jpg","",""
"explore-choice","155","648327","0.0-155.0","p292967","A1NFBKUYYVUYWF","3WPCIUYH1BELQU8EB2L3QVOOKYBTD4","3X08E93BHXOJQ7GHV4AXYZH72G766Z","emotion","mismatch","uniform","","","","","","","1898","651228","653126","[""stimuli/WF06_FO.jpg"",""stimuli/WM09_CC.jpg"",""stimuli/BM16_HE.jpg"",""stimuli/HF04_AO.jpg""]","stimuli/WF06_FO.jpg","stimuli/WM09_CC.jpg","stimuli/BM16_HE.jpg","stimuli/HF04_AO.jpg","pos4","stimuli/HF04_AO.jpg","AO","HF04","3","2","4","4","stimuli/stars_4.png","213.5","[""FO"",""CC"",""HE"",""AO""]","[""WF06"",""WM09"",""BM16"",""HF04""]","[0,7,6,4]","[2,8,6,4]","","",""
"show-reward","156","650332","0.0-156.0","p292967","A1NFBKUYYVUYWF","3WPCIUYH1BELQU8EB2L3QVOOKYBTD4","3X08E93BHXOJQ7GHV4AXYZH72G766Z","emotion","mismatch","uniform","","","","","","","","653634","655638","","","","","","","","","","","","4","","stimuli/stars_4.png","213.5","","","","","stimuli/HF04_AO.jpg","",""
"explore-choice","157","652151","0.0-157.0","p292967","A1NFBKUYYVUYWF","3WPCIUYH1BELQU8EB2L3QVOOKYBTD4","3X08E93BHXOJQ7GHV4AXYZH72G766Z","emotion","mismatch","uniform","","","","","","","1303","655639","656942","[""stimuli/HF04_FO.jpg"",""stimuli/BM16_AO.jpg"",""stimuli/WF06_CC.jpg"",""stimuli/WM09_HE.jpg""]","stimuli/HF04_FO.jpg","stimuli/BM16_AO.jpg","stimuli/WF06_CC.jpg","stimuli/WM09_HE.jpg","pos1","stimuli/HF04_FO.jpg","FO","HF04","0","1","2","4","stimuli/stars_2.png","214.5","[""FO"",""AO"",""CC"",""HE""]","[""HF04"",""BM16"",""WF06"",""WM09""]","[2,5,4,6]","[4,6,2,8]","","",""
"show-reward","158","654156","0.0-158.0","p292967","A1NFBKUYYVUYWF","3WPCIUYH1BELQU8EB2L3QVOOKYBTD4","3X08E93BHXOJQ7GHV4AXYZH72G766Z","emotion","mismatch","uniform","","","","","","","","657458","659461","","","","","","","","","","","","2","","stimuli/stars_2.png","214.5","","","","","stimuli/HF04_FO.jpg","",""
"explore-choice","159","655775","0.0-159.0","p292967","A1NFBKUYYVUYWF","3WPCIUYH1BELQU8EB2L3QVOOKYBTD4","3X08E93BHXOJQ7GHV4AXYZH72G766Z","emotion","mismatch","uniform","","","","","","","1111","659463","660574","[""stimuli/BM16_AO.jpg"",""stimuli/WF06_HE.jpg"",""stimuli/HF04_CC.jpg"",""stimuli/WM09_FO.jpg""]","stimuli/BM16_AO.jpg","stimuli/WF06_HE.jpg","stimuli/HF04_CC.jpg","stimuli/WM09_FO.jpg","pos3","stimuli/HF04_CC.jpg","CC","HF04","2","2","4","4","stimuli/stars_4.png","216.5","[""AO"",""HE"",""CC"",""FO""]","[""BM16"",""WF06"",""HF04"",""WM09""]","[6,0,4,7]","[6,2,4,8]","","",""
"show-reward","160","657781","0.0-160.0","p292967","A1NFBKUYYVUYWF","3WPCIUYH1BELQU8EB2L3QVOOKYBTD4","3X08E93BHXOJQ7GHV4AXYZH72G766Z","emotion","mismatch","uniform","","","","","","","","661082","663087","","","","","","","","","","","","4","","stimuli/stars_4.png","216.5","","","","","stimuli/HF04_CC.jpg","",""
"explore-choice","161","659685","0.0-161.0","p292967","A1NFBKUYYVUYWF","3WPCIUYH1BELQU8EB2L3QVOOKYBTD4","3X08E93BHXOJQ7GHV4AXYZH72G766Z","emotion","mismatch","uniform","","","","","","","1391","663088","664479","[""stimuli/BM16_CC.jpg"",""stimuli/WM09_FO.jpg"",""stimuli/WF06_AO.jpg"",""stimuli/HF04_HE.jpg""]","stimuli/BM16_CC.jpg","stimuli/WM09_FO.jpg","stimuli/WF06_AO.jpg","stimuli/HF04_HE.jpg","pos4","stimuli/HF04_HE.jpg","HE","HF04","3","2","4","4","stimuli/stars_4.png","218.5","[""CC"",""FO"",""AO"",""HE""]","[""BM16"",""WM09"",""WF06"",""HF04""]","[5,10,3,4]","[6,8,2,4]","","",""
"show-reward","162","661706","0.0-162.0","p292967","A1NFBKUYYVUYWF","3WPCIUYH1BELQU8EB2L3QVOOKYBTD4","3X08E93BHXOJQ7GHV4AXYZH72G766Z","emotion","mismatch","uniform","","","","","","","","664992","667012","","","","","","","","","","","","4","","stimuli/stars_4.png","218.5","","","","","stimuli/HF04_HE.jpg","",""
"explore-choice","163","663549","0.0-163.0","p292967","A1NFBKUYYVUYWF","3WPCIUYH1BELQU8EB2L3QVOOKYBTD4","3X08E93BHXOJQ7GHV4AXYZH72G766Z","emotion","mismatch","uniform","","","","","","","1328","667013","668341","[""stimuli/WM09_AO.jpg"",""stimuli/HF04_HE.jpg"",""stimuli/WF06_FO.jpg"",""stimuli/BM16_CC.jpg""]","stimuli/WM09_AO.jpg","stimuli/HF04_HE.jpg","stimuli/WF06_FO.jpg","stimuli/BM16_CC.jpg","pos2","stimuli/HF04_HE.jpg","HE","HF04","1","1","2","4","stimuli/stars_2.png","219.5","[""AO"",""HE"",""FO"",""CC""]","[""WM09"",""HF04"",""WF06"",""BM16""]","[9,2,3,6]","[8,4,2,6]","","",""
"show-reward","164","665554","0.0-164.0","p292967","A1NFBKUYYVUYWF","3WPCIUYH1BELQU8EB2L3QVOOKYBTD4","3X08E93BHXOJQ7GHV4AXYZH72G766Z","emotion","mismatch","uniform","","","","","","","","668855","670860","","","","","","","","","","","","2","","stimuli/stars_2.png","219.5","","","","","stimuli/HF04_HE.jpg","",""
"explore-choice","165","667961","0.0-165.0","p292967","A1NFBKUYYVUYWF","3WPCIUYH1BELQU8EB2L3QVOOKYBTD4","3X08E93BHXOJQ7GHV4AXYZH72G766Z","emotion","mismatch","uniform","","","","","","","1896","670861","672757","[""stimuli/WM09_CC.jpg"",""stimuli/WF06_HE.jpg"",""stimuli/BM16_FO.jpg"",""stimuli/HF04_AO.jpg""]","stimuli/WM09_CC.jpg","stimuli/WF06_HE.jpg","stimuli/BM16_FO.jpg","stimuli/HF04_AO.jpg","pos3","stimuli/BM16_FO.jpg","FO","BM16","2","2","4","6","stimuli/stars_4.png","221.5","[""CC"",""HE"",""FO"",""AO""]","[""WM09"",""WF06"",""BM16"",""HF04""]","[6,2,4,5]","[8,2,6,4]","","",""
"show-reward","166","669965","0.0-166.0","p292967","A1NFBKUYYVUYWF","3WPCIUYH1BELQU8EB2L3QVOOKYBTD4","3X08E93BHXOJQ7GHV4AXYZH72G766Z","emotion","mismatch","uniform","","","","","","","","673267","675272","","","","","","","","","","","","4","","stimuli/stars_4.png","221.5","","","","","stimuli/BM16_FO.jpg","",""
"explore-choice","167","672572","0.0-167.0","p292967","A1NFBKUYYVUYWF","3WPCIUYH1BELQU8EB2L3QVOOKYBTD4","3X08E93BHXOJQ7GHV4AXYZH72G766Z","emotion","mismatch","uniform","","","","","","","2104","675272","677376","[""stimuli/WM09_CC.jpg"",""stimuli/BM16_AO.jpg"",""stimuli/WF06_FO.jpg"",""stimuli/HF04_HE.jpg""]","stimuli/WM09_CC.jpg","stimuli/BM16_AO.jpg","stimuli/WF06_FO.jpg","stimuli/HF04_HE.jpg","pos2","stimuli/BM16_AO.jpg","AO","BM16","1","2.5","5","6","stimuli/stars_5.png","224","[""CC"",""AO"",""FO"",""HE""]","[""WM09"",""BM16"",""WF06"",""HF04""]","[10,5,3,3]","[8,6,2,4]","","",""
"show-reward","168","674587","0.0-168.0","p292967","A1NFBKUYYVUYWF","3WPCIUYH1BELQU8EB2L3QVOOKYBTD4","3X08E93BHXOJQ7GHV4AXYZH72G766Z","emotion","mismatch","uniform","","","","","","","","677879","679893","","","","","","","","","","","","5","","stimuli/stars_5.png","224","","","","","stimuli/BM16_AO.jpg","",""
"explore-choice","169","676298","0.0-169.0","p292967","A1NFBKUYYVUYWF","3WPCIUYH1BELQU8EB2L3QVOOKYBTD4","3X08E93BHXOJQ7GHV4AXYZH72G766Z","emotion","mismatch","uniform","","","","","","","1205","679894","681099","[""stimuli/WM09_FO.jpg"",""stimuli/BM16_HE.jpg"",""stimuli/HF04_CC.jpg"",""stimuli/WF06_AO.jpg""]","stimuli/WM09_FO.jpg","stimuli/BM16_HE.jpg","stimuli/HF04_CC.jpg","stimuli/WF06_AO.jpg","pos1","stimuli/WM09_FO.jpg","FO","WM09","0","4.5","9","8","stimuli/stars_9.png","228.5","[""FO"",""HE"",""CC"",""AO""]","[""WM09"",""BM16"",""HF04"",""WF06""]","[9,5,3,4]","[8,6,4,2]","","",""
"show-reward","170","678304","0.0-170.0","p292967","A1NFBKUYYVUYWF","3WPCIUYH1BELQU8EB2L3QVOOKYBTD4","3X08E93BHXOJQ7GHV4AXYZH72G766Z","emotion","mismatch","uniform","","","","","","","","681604","683610","","","","","","","","","","","","9","","stimuli/stars_9.png","228.5","","","","","stimuli/WM09_FO.jpg","",""
"explore-choice","171","680341","0.0-171.0","p292967","A1NFBKUYYVUYWF","3WPCIUYH1BELQU8EB2L3QVOOKYBTD4","3X08E93BHXOJQ7GHV4AXYZH72G766Z","emotion","mismatch","uniform","","","","","","","1532","683611","685143","[""stimuli/WM09_CC.jpg"",""stimuli/HF04_HE.jpg"",""stimuli/BM16_FO.jpg"",""stimuli/WF06_AO.jpg""]","stimuli/WM09_CC.jpg","stimuli/HF04_HE.jpg","stimuli/BM16_FO.jpg","stimuli/WF06_AO.jpg","pos3","stimuli/BM16_FO.jpg","FO","BM16","2","4","8","6","stimuli/stars_8.png","232.5","[""CC"",""HE"",""FO"",""AO""]","[""WM09"",""HF04"",""BM16"",""WF06""]","[6,3,8,0]","[8,4,6,2]","","",""
"show-reward","172","682345","0.0-172.0","p292967","A1NFBKUYYVUYWF","3WPCIUYH1BELQU8EB2L3QVOOKYBTD4","3X08E93BHXOJQ7GHV4AXYZH72G766Z","emotion","mismatch","uniform","","","","","","","","685647","687650","","","","","","","","","","","","8","","stimuli/stars_8.png","232.5","","","","","stimuli/BM16_FO.jpg","",""
"explore-choice","173","684335","0.0-173.0","p292967","A1NFBKUYYVUYWF","3WPCIUYH1BELQU8EB2L3QVOOKYBTD4","3X08E93BHXOJQ7GHV4AXYZH72G766Z","emotion","mismatch","uniform","","","","","","","1480","687651","689131","[""stimuli/HF04_AO.jpg"",""stimuli/BM16_FO.jpg"",""stimuli/WF06_CC.jpg"",""stimuli/WM09_HE.jpg""]","stimuli/HF04_AO.jpg","stimuli/BM16_FO.jpg","stimuli/WF06_CC.jpg","stimuli/WM09_HE.jpg","pos2","stimuli/BM16_FO.jpg","FO","BM16","1","3","6","6","stimuli/stars_6.png","235.5","[""AO"",""FO"",""CC"",""HE""]","[""HF04"",""BM16"",""WF06"",""WM09""]","[5,6,0,6]","[4,6,2,8]","","",""
"show-reward","174","686339","0.0-174.0","p292967","A1NFBKUYYVUYWF","3WPCIUYH1BELQU8EB2L3QVOOKYBTD4","3X08E93BHXOJQ7GHV4AXYZH72G766Z","emotion","mismatch","uniform","","","","","","","","689641","691645","","","","","","","","","","","","6","","stimuli/stars_6.png","235.5","","","","","stimuli/BM16_FO.jpg","",""
"explore-choice","175","689299","0.0-175.0","p292967","A1NFBKUYYVUYWF","3WPCIUYH1BELQU8EB2L3QVOOKYBTD4","3X08E93BHXOJQ7GHV4AXYZH72G766Z","emotion","mismatch","uniform","","","","","","","2445","691646","694091","[""stimuli/WM09_AO.jpg"",""stimuli/WF06_CC.jpg"",""stimuli/HF04_HE.jpg"",""stimuli/BM16_FO.jpg""]","stimuli/WM09_AO.jpg","stimuli/WF06_CC.jpg","stimuli/HF04_HE.jpg","stimuli/BM16_FO.jpg","pos4","stimuli/BM16_FO.jpg","FO","BM16","3","4","8","6","stimuli/stars_8.png","239.5","[""AO"",""CC"",""HE"",""FO""]","[""WM09"",""WF06"",""HF04"",""BM16""]","[10,0,3,8]","[8,2,4,6]","","",""
"show-reward","176","691304","0.0-176.0","p292967","A1NFBKUYYVUYWF","3WPCIUYH1BELQU8EB2L3QVOOKYBTD4","3X08E93BHXOJQ7GHV4AXYZH72G766Z","emotion","mismatch","uniform","","","","","","","","694606","696609","","","","","","","","","","","","8","","stimuli/stars_8.png","239.5","","","","","stimuli/BM16_FO.jpg","",""
"explore-choice","177","693824","0.0-177.0","p292967","A1NFBKUYYVUYWF","3WPCIUYH1BELQU8EB2L3QVOOKYBTD4","3X08E93BHXOJQ7GHV4AXYZH72G766Z","emotion","mismatch","uniform","","","","","","","2007","696610","698617","[""stimuli/WM09_FO.jpg"",""stimuli/BM16_HE.jpg"",""stimuli/HF04_AO.jpg"",""stimuli/WF06_CC.jpg""]","stimuli/WM09_FO.jpg","stimuli/BM16_HE.jpg","stimuli/HF04_AO.jpg","stimuli/WF06_CC.jpg","pos1","stimuli/WM09_FO.jpg","FO","WM09","0","3.5","7","8","stimuli/stars_7.png","243","[""FO"",""HE"",""AO"",""CC""]","[""WM09"",""BM16"",""HF04"",""WF06""]","[7,6,6,2]","[8,6,4,2]","","",""
"show-reward","178","695829","0.0-178.0","p292967","A1NFBKUYYVUYWF","3WPCIUYH1BELQU8EB2L3QVOOKYBTD4","3X08E93BHXOJQ7GHV4AXYZH72G766Z","emotion","mismatch","uniform","","","","","","","","699131","701135","","","","","","","","","","","","7","","stimuli/stars_7.png","243","","","","","stimuli/WM09_FO.jpg","",""
"explore-choice","179","697796","0.0-179.0","p292967","A1NFBKUYYVUYWF","3WPCIUYH1BELQU8EB2L3QVOOKYBTD4","3X08E93BHXOJQ7GHV4AXYZH72G766Z","emotion","mismatch","uniform","","","","","","","1462","701135","702597","[""stimuli/WF06_CC.jpg"",""stimuli/BM16_HE.jpg"",""stimuli/WM09_AO.jpg"",""stimuli/HF04_FO.jpg""]","stimuli/WF06_CC.jpg","stimuli/BM16_HE.jpg","stimuli/WM09_AO.jpg","stimuli/HF04_FO.jpg","pos3","stimuli/WM09_AO.jpg","AO","WM09","2","3","6","8","stimuli/stars_6.png","246","[""CC"",""HE"",""AO"",""FO""]","[""WF06"",""BM16"",""WM09"",""HF04""]","[4,5,6,6]","[2,6,8,4]","","",""
"show-reward","180","699801","0.0-180.0","p292967","A1NFBKUYYVUYWF","3WPCIUYH1BELQU8EB2L3QVOOKYBTD4","3X08E93BHXOJQ7GHV4AXYZH72G766Z","emotion","mismatch","uniform","","","","","","","","703103","705107","","","","","","","","","","","","6","","stimuli/stars_6.png","246","","","","","stimuli/WM09_AO.jpg","",""
"explore-choice","181","701727","0.0-181.0","p292967","A1NFBKUYYVUYWF","3WPCIUYH1BELQU8EB2L3QVOOKYBTD4","3X08E93BHXOJQ7GHV4AXYZH72G766Z","emotion","mismatch","uniform","","","","","","","1418","705108","706526","[""stimuli/WF06_HE.jpg"",""stimuli/WM09_AO.jpg"",""stimuli/HF04_CC.jpg"",""stimuli/BM16_FO.jpg""]","stimuli/WF06_HE.jpg","stimuli/WM09_AO.jpg","stimuli/HF04_CC.jpg","stimuli/BM16_FO.jpg","pos2","stimuli/WM09_AO.jpg","AO","WM09","1","4","8","8","stimuli/stars_8.png","250","[""HE"",""AO"",""CC"",""FO""]","[""WF06"",""WM09"",""HF04"",""BM16""]","[2,8,2,8]","[2,8,4,6]","","",""
"show-reward","182","703733","0.0-182.0","p292967","A1NFBKUYYVUYWF","3WPCIUYH1BELQU8EB2L3QVOOKYBTD4","3X08E93BHXOJQ7GHV4AXYZH72G766Z","emotion","mismatch","uniform","","","","","","","","707034","709038","","","","","","","","","","","","8","","stimuli/stars_8.png","250","","","","","stimuli/WM09_AO.jpg","",""
"explore-choice","183","705716","0.0-183.0","p292967","A1NFBKUYYVUYWF","3WPCIUYH1BELQU8EB2L3QVOOKYBTD4","3X08E93BHXOJQ7GHV4AXYZH72G766Z","emotion","mismatch","uniform","","","","","","","1475","709039","710514","[""stimuli/WF06_FO.jpg"",""stimuli/HF04_CC.jpg"",""stimuli/BM16_AO.jpg"",""stimuli/WM09_HE.jpg""]","stimuli/WF06_FO.jpg","stimuli/HF04_CC.jpg","stimuli/BM16_AO.jpg","stimuli/WM09_HE.jpg","pos1","stimuli/WF06_FO.jpg","FO","WF06","0","2","4","2","stimuli/stars_4.png","252","[""FO"",""CC"",""AO"",""HE""]","[""WF06"",""HF04"",""BM16"",""WM09""]","[4,4,8,6]","[2,4,6,8]","","",""
"show-reward","184","707721","0.0-184.0","p292967","A1NFBKUYYVUYWF","3WPCIUYH1BELQU8EB2L3QVOOKYBTD4","3X08E93BHXOJQ7GHV4AXYZH72G766Z","emotion","mismatch","uniform","","","","","","","","711022","713027","","","","","","","","","","","","4","","stimuli/stars_4.png","252","","","","","stimuli/WF06_FO.jpg","",""
"explore-choice","185","709894","0.0-185.0","p292967","A1NFBKUYYVUYWF","3WPCIUYH1BELQU8EB2L3QVOOKYBTD4","3X08E93BHXOJQ7GHV4AXYZH72G766Z","emotion","mismatch","uniform","","","","","","","1668","713027","714695","[""stimuli/WF06_AO.jpg"",""stimuli/BM16_FO.jpg"",""stimuli/WM09_HE.jpg"",""stimuli/HF04_CC.jpg""]","stimuli/WF06_AO.jpg","stimuli/BM16_FO.jpg","stimuli/WM09_HE.jpg","stimuli/HF04_CC.jpg","pos2","stimuli/BM16_FO.jpg","FO","BM16","1","2","4","6","stimuli/stars_4.png","254","[""AO"",""FO"",""HE"",""CC""]","[""WF06"",""BM16"",""WM09"",""HF04""]","[2,4,10,3]","[2,6,8,4]","","",""
"show-reward","186","711899","0.0-186.0","p292967","A1NFBKUYYVUYWF","3WPCIUYH1BELQU8EB2L3QVOOKYBTD4","3X08E93BHXOJQ7GHV4AXYZH72G766Z","emotion","mismatch","uniform","","","","","","","","715202","717204","","","","","","","","","","","","4","","stimuli/stars_4.png","254","","","","","stimuli/BM16_FO.jpg","",""
"explore-choice","187","713557","0.0-187.0","p292967","A1NFBKUYYVUYWF","3WPCIUYH1BELQU8EB2L3QVOOKYBTD4","3X08E93BHXOJQ7GHV4AXYZH72G766Z","emotion","mismatch","uniform","","","","","","","1152","717205","718357","[""stimuli/HF04_AO.jpg"",""stimuli/WF06_FO.jpg"",""stimuli/WM09_HE.jpg"",""stimuli/BM16_CC.jpg""]","stimuli/HF04_AO.jpg","stimuli/WF06_FO.jpg","stimuli/WM09_HE.jpg","stimuli/BM16_CC.jpg","pos1","stimuli/HF04_AO.jpg","AO","HF04","0","2","4","4","stimuli/stars_4.png","256","[""AO"",""FO"",""HE"",""CC""]","[""HF04"",""WF06"",""WM09"",""BM16""]","[4,2,10,4]","[4,2,8,6]","","",""
"show-reward","188","715570","0.0-188.0","p292967","A1NFBKUYYVUYWF","3WPCIUYH1BELQU8EB2L3QVOOKYBTD4","3X08E93BHXOJQ7GHV4AXYZH72G766Z","emotion","mismatch","uniform","","","","","","","","718863","720876","","","","","","","","","","","","4","","stimuli/stars_4.png","256","","","","","stimuli/HF04_AO.jpg","",""
"explore-choice","189","717366","0.0-189.0","p292967","A1NFBKUYYVUYWF","3WPCIUYH1BELQU8EB2L3QVOOKYBTD4","3X08E93BHXOJQ7GHV4AXYZH72G766Z","emotion","mismatch","uniform","","","","","","","1284","720877","722161","[""stimuli/BM16_AO.jpg"",""stimuli/WF06_CC.jpg"",""stimuli/WM09_FO.jpg"",""stimuli/HF04_HE.jpg""]","stimuli/BM16_AO.jpg","stimuli/WF06_CC.jpg","stimuli/WM09_FO.jpg","stimuli/HF04_HE.jpg","pos1","stimuli/BM16_AO.jpg","AO","BM16","0","4","8","6","stimuli/stars_8.png","260","[""AO"",""CC"",""FO"",""HE""]","[""BM16"",""WF06"",""WM09"",""HF04""]","[8,1,9,5]","[6,2,8,4]","","",""
"show-reward","190","719371","0.0-190.0","p292967","A1NFBKUYYVUYWF","3WPCIUYH1BELQU8EB2L3QVOOKYBTD4","3X08E93BHXOJQ7GHV4AXYZH72G766Z","emotion","mismatch","uniform","","","","","","","","722673","724677","","","","","","","","","","","","8","","stimuli/stars_8.png","260","","","","","stimuli/BM16_AO.jpg","",""
"explore-choice","191","721107","0.0-191.0","p292967","A1NFBKUYYVUYWF","3WPCIUYH1BELQU8EB2L3QVOOKYBTD4","3X08E93BHXOJQ7GHV4AXYZH72G766Z","emotion","mismatch","uniform","","","","","","","1221","724679","725900","[""stimuli/HF04_CC.jpg"",""stimuli/WF06_FO.jpg"",""stimuli/WM09_AO.jpg"",""stimuli/BM16_HE.jpg""]","stimuli/HF04_CC.jpg","stimuli/WF06_FO.jpg","stimuli/WM09_AO.jpg","stimuli/BM16_HE.jpg","pos3","stimuli/WM09_AO.jpg","AO","WM09","2","3","6","8","stimuli/stars_6.png","263","[""CC"",""FO"",""AO"",""HE""]","[""HF04"",""WF06"",""WM09"",""BM16""]","[3,2,6,8]","[4,2,8,6]","","",""
"show-reward","192","723112","0.0-192.0","p292967","A1NFBKUYYVUYWF","3WPCIUYH1BELQU8EB2L3QVOOKYBTD4","3X08E93BHXOJQ7GHV4AXYZH72G766Z","emotion","mismatch","uniform","","","","","","","","726414","728418","","","","","","","","","","","","6","","stimuli/stars_6.png","263","","","","","stimuli/WM09_AO.jpg","",""
"explore-choice","193","725733","0.0-193.0","p292967","A1NFBKUYYVUYWF","3WPCIUYH1BELQU8EB2L3QVOOKYBTD4","3X08E93BHXOJQ7GHV4AXYZH72G766Z","emotion","mismatch","uniform","","","","","","","2115","728418","730533","[""stimuli/WF06_AO.jpg"",""stimuli/BM16_HE.jpg"",""stimuli/HF04_FO.jpg"",""stimuli/WM09_CC.jpg""]","stimuli/WF06_AO.jpg","stimuli/BM16_HE.jpg","stimuli/HF04_FO.jpg","stimuli/WM09_CC.jpg","pos1","stimuli/WF06_AO.jpg","AO","WF06","0","1.5","3","2","stimuli/stars_3.png","264.5","[""AO"",""HE"",""FO"",""CC""]","[""WF06"",""BM16"",""HF04"",""WM09""]","[3,4,5,7]","[2,6,4,8]","","",""
"show-reward","194","727737","0.0-194.0","p292967","A1NFBKUYYVUYWF","3WPCIUYH1BELQU8EB2L3QVOOKYBTD4","3X08E93BHXOJQ7GHV4AXYZH72G766Z","emotion","mismatch","uniform","","","","","","","","731040","733043","","","","","","","","","","","","3","","stimuli/stars_3.png","264.5","","","","","stimuli/WF06_AO.jpg","",""
"explore-choice","195","730396","0.0-195.0","p292967","A1NFBKUYYVUYWF","3WPCIUYH1BELQU8EB2L3QVOOKYBTD4","3X08E93BHXOJQ7GHV4AXYZH72G766Z","emotion","mismatch","uniform","","","","","","","2149","733044","735193","[""stimuli/WM09_FO.jpg"",""stimuli/BM16_CC.jpg"",""stimuli/WF06_HE.jpg"",""stimuli/HF04_AO.jpg""]","stimuli/WM09_FO.jpg","stimuli/BM16_CC.jpg","stimuli/WF06_HE.jpg","stimuli/HF04_AO.jpg","pos1","stimuli/WM09_FO.jpg","FO","WM09","0","3.5","7","8","stimuli/stars_7.png","268","[""FO"",""CC"",""HE"",""AO""]","[""WM09"",""BM16"",""WF06"",""HF04""]","[7,8,1,5]","[8,6,2,4]","","",""
"show-reward","196","732400","0.0-196.0","p292967","A1NFBKUYYVUYWF","3WPCIUYH1BELQU8EB2L3QVOOKYBTD4","3X08E93BHXOJQ7GHV4AXYZH72G766Z","emotion","mismatch","uniform","","","","","","","","735702","737707","","","","","","","","","","","","7","","stimuli/stars_7.png","268","","","","","stimuli/WM09_FO.jpg","",""
"explore-choice","197","734305","0.0-197.0","p292967","A1NFBKUYYVUYWF","3WPCIUYH1BELQU8EB2L3QVOOKYBTD4","3X08E93BHXOJQ7GHV4AXYZH72G766Z","emotion","mismatch","uniform","","","","","","","1396","737707","739103","[""stimuli/WM09_CC.jpg"",""stimuli/WF06_HE.jpg"",""stimuli/BM16_AO.jpg"",""stimuli/HF04_FO.jpg""]","stimuli/WM09_CC.jpg","stimuli/WF06_HE.jpg","stimuli/BM16_AO.jpg","stimuli/HF04_FO.jpg","pos3","stimuli/BM16_AO.jpg","AO","BM16","2","3","6","6","stimuli/stars_6.png","271","[""CC"",""HE"",""AO"",""FO""]","[""WM09"",""WF06"",""BM16"",""HF04""]","[8,1,6,6]","[8,2,6,4]","","",""
"show-reward","198","736311","0.0-198.0","p292967","A1NFBKUYYVUYWF","3WPCIUYH1BELQU8EB2L3QVOOKYBTD4","3X08E93BHXOJQ7GHV4AXYZH72G766Z","emotion","mismatch","uniform","","","","","","","","739612","741616","","","","","","","","","","","","6","","stimuli/stars_6.png","271","","","","","stimuli/BM16_AO.jpg","",""
"instructions","199","739273","0.0-199.0","p292967","A1NFBKUYYVUYWF","3WPCIUYH1BELQU8EB2L3QVOOKYBTD4","3X08E93BHXOJQ7GHV4AXYZH72G766Z","emotion","mismatch","uniform","","","","","","[{""page_index"":0,""viewing_time"":2962}]","2962","","","","","","","","","","","","","","","","","","","","","","","",""
"survey-text","200","742680","0.0-200.0-0.0","p292967","A1NFBKUYYVUYWF","3WPCIUYH1BELQU8EB2L3QVOOKYBTD4","3X08E93BHXOJQ7GHV4AXYZH72G766Z","emotion","mismatch","uniform","","","","","","","3402","","","","","","","","","","","","","","","","","","","","","","","{""age"":""60""}",""
"survey-text","201","747467","0.0-200.0-1.0","p292967","A1NFBKUYYVUYWF","3WPCIUYH1BELQU8EB2L3QVOOKYBTD4","3X08E93BHXOJQ7GHV4AXYZH72G766Z","emotion","mismatch","uniform","","","","","","","4785","","","","","","","","","","","","","","","","","","","","","","","{""gender"":""female""}",""
"survey-text","202","754473","0.0-200.0-2.0","p292967","A1NFBKUYYVUYWF","3WPCIUYH1BELQU8EB2L3QVOOKYBTD4","3X08E93BHXOJQ7GHV4AXYZH72G766Z","emotion","mismatch","uniform","","","","","","","7002","","","","","","","","","","","","","","","","","","","","","","","{""country"":""United States""}",""
"survey-text","203","761478","0.0-200.0-3.0","p292967","A1NFBKUYYVUYWF","3WPCIUYH1BELQU8EB2L3QVOOKYBTD4","3X08E93BHXOJQ7GHV4AXYZH72G766Z","emotion","mismatch","uniform","","","","","","","7001","","","","","","","","","","","","","","","","","","","","","","","{""language"":""English"",""other_languages"":""""}",""
"survey-multi-select","204","764098","0.0-201.0","p292967","A1NFBKUYYVUYWF","3WPCIUYH1BELQU8EB2L3QVOOKYBTD4","3X08E93BHXOJQ7GHV4AXYZH72G766Z","emotion","mismatch","uniform","","","","","","","2616","","","","","","","","","","","","","","","","","","","","","","","{""race"":[""White""]}","[0]"
"survey-multi-choice","205","767067","0.0-202.0","p292967","A1NFBKUYYVUYWF","3WPCIUYH1BELQU8EB2L3QVOOKYBTD4","3X08E93BHXOJQ7GHV4AXYZH72G766Z","emotion","mismatch","uniform","","","","","","","2967","","","","","","","","","","","","","","","","","","","","","","","{""education"":""Master's degree""}","[0]"
"survey-text","206","838225","0.0-203.0","p292967","A1NFBKUYYVUYWF","3WPCIUYH1BELQU8EB2L3QVOOKYBTD4","3X08E93BHXOJQ7GHV4AXYZH72G766Z","emotion","mismatch","uniform","","","","","","","71118","","","","","","","","","","","","","","","","","","","","","","","{""patterns"":""It seemed the number of stars depended on the facial expression."",""strategy"":""I just tried to determine which expression led to the most points and kept clicking on it."",""comments"":""It took forever for this to load and it never did in Chrome. It worked in Firefox though so if people have trouble, they might want to try Firefox.""}",""
