"trial_type","trial_index","time_elapsed","internal_node_id","subject","workerId","hitId","assignmentId","structure_condition","match_condition","noise_type","success","timeout","failed_images","failed_audio","failed_video","view_history","rt","start_time","end_time","stimuli","image1","image2","image3","image4","choiceLocation","choiceImage","choiceEmotion","choiceModel","choice_index","reward_score","reward","reward_score_unadjusted","reward_image","score_after_trial","emotions","models","rewards","rewards_unadjusted","stimulus","response","question_order"
"pavlovia","0","7","0.0-0.0","p423806","AVD6HMIO1HLFI","3RZS0FBRWLGDTA9TUPH81F59AWHPC0","34YB12FSQ0UNC3QFUXQ0ZMRIMW0MG6","model","mismatch","uniform","","","","","","","","","","","","","","","","","","","","","","","","","","","","","","",""
"preload","1","5638","0.0-1.0","p423806","AVD6HMIO1HLFI","3RZS0FBRWLGDTA9TUPH81F59AWHPC0","34YB12FSQ0UNC3QFUXQ0ZMRIMW0MG6","model","mismatch","uniform","true","false","[]","[]","[]","","","","","","","","","","","","","","","","","","","","","","","","","",""
"fullscreen","2","8200","0.0-2.0","p423806","AVD6HMIO1HLFI","3RZS0FBRWLGDTA9TUPH81F59AWHPC0","34YB12FSQ0UNC3QFUXQ0ZMRIMW0MG6","model","mismatch","uniform","true","","","","","","","","","","","","","","","","","","","","","","","","","","","","","",""
"instructions","3","12537","0.0-3.0","p423806","AVD6HMIO1HLFI","3RZS0FBRWLGDTA9TUPH81F59AWHPC0","34YB12FSQ0UNC3QFUXQ0ZMRIMW0MG6","model","mismatch","uniform","","","","","","[{""page_index"":0,""viewing_time"":4335}]","4335","","","","","","","","","","","","","","","","","","","","","","","",""
"explore-choice","4","14842","0.0-4.0","p423806","AVD6HMIO1HLFI","3RZS0FBRWLGDTA9TUPH81F59AWHPC0","34YB12FSQ0UNC3QFUXQ0ZMRIMW0MG6","model","mismatch","uniform","","","","","","","1794","14501","16295","[""stimuli/sheep.jpg"",""stimuli/hammer.jpg"",""stimuli/basketball.jpg"",""stimuli/horse.jpg""]","stimuli/sheep.jpg","stimuli/hammer.jpg","stimuli/basketball.jpg","stimuli/horse.jpg","pos4","stimuli/horse.jpg","","","3","64","64","64","stimuli/stars_8.png","65","","","","","","",""
"explore-choice","5","16801","0.0-5.0","p423806","AVD6HMIO1HLFI","3RZS0FBRWLGDTA9TUPH81F59AWHPC0","34YB12FSQ0UNC3QFUXQ0ZMRIMW0MG6","model","mismatch","uniform","","","","","","","1447","16806","18253","[""stimuli/hammer.jpg"",""stimuli/basketball.jpg"",""stimuli/horse.jpg"",""stimuli/sheep.jpg""]","stimuli/hammer.jpg","stimuli/basketball.jpg","stimuli/horse.jpg","stimuli/sheep.jpg","pos1","stimuli/hammer.jpg","","","0","8","8","8","stimuli/stars_2.png","9","","","","","","",""
"instructions","6","75340","0.0-6.0","p423806","AVD6HMIO1HLFI","3RZS0FBRWLGDTA9TUPH81F59AWHPC0","34YB12FSQ0UNC3QFUXQ0ZMRIMW0MG6","model","mismatch","uniform","","","","","","[{""page_index"":0,""viewing_time"":58538}]","58539","","","","","","","","","","","","","","","","","","","","","","","",""
"explore-choice","7","80191","0.0-7.0","p423806","AVD6HMIO1HLFI","3RZS0FBRWLGDTA9TUPH81F59AWHPC0","34YB12FSQ0UNC3QFUXQ0ZMRIMW0MG6","model","mismatch","uniform","","","","","","","4348","77305","81653","[""stimuli/AF02_SC.jpg"",""stimuli/AM06_SUR.jpg"",""stimuli/HM07_DO.jpg"",""stimuli/HF04_CC.jpg""]","stimuli/AF02_SC.jpg","stimuli/AM06_SUR.jpg","stimuli/HM07_DO.jpg","stimuli/HF04_CC.jpg","pos1","stimuli/AF02_SC.jpg","SC","AF02","0","5","10","8","stimuli/stars_10.png","6","[""SC"",""SUR"",""DO"",""CC""]","[""AF02"",""AM06"",""HM07"",""HF04""]","[10,3,8,5]","[8,2,6,4]","","",""
"show-reward","8","82202","0.0-8.0","p423806","AVD6HMIO1HLFI","3RZS0FBRWLGDTA9TUPH81F59AWHPC0","34YB12FSQ0UNC3QFUXQ0ZMRIMW0MG6","model","mismatch","uniform","","","","","","","","82156","84167","","","","","","","","","","","","10","","stimuli/stars_10.png","6","","","","","stimuli/AF02_SC.jpg","",""
"explore-choice","9","86111","0.0-9.0","p423806","AVD6HMIO1HLFI","3RZS0FBRWLGDTA9TUPH81F59AWHPC0","34YB12FSQ0UNC3QFUXQ0ZMRIMW0MG6","model","mismatch","uniform","","","","","","","3404","84167","87571","[""stimuli/AF02_DO.jpg"",""stimuli/HM07_SC.jpg"",""stimuli/HF04_CC.jpg"",""stimuli/AM06_SUR.jpg""]","stimuli/AF02_DO.jpg","stimuli/HM07_SC.jpg","stimuli/HF04_CC.jpg","stimuli/AM06_SUR.jpg","pos1","stimuli/AF02_DO.jpg","DO","AF02","0","3","6","8","stimuli/stars_6.png","9","[""DO"",""SC"",""CC"",""SUR""]","[""AF02"",""HM07"",""HF04"",""AM06""]","[6,5,4,3]","[8,6,4,2]","","",""
"show-reward","10","88125","0.0-10.0","p423806","AVD6HMIO1HLFI","3RZS0FBRWLGDTA9TUPH81F59AWHPC0","34YB12FSQ0UNC3QFUXQ0ZMRIMW0MG6","model","mismatch","uniform","","","","","","","","88076","90089","","","","","","","","","","","","6","","stimuli/stars_6.png","9","","","","","stimuli/AF02_DO.jpg","",""
"explore-choice","11","90765","0.0-11.0","p423806","AVD6HMIO1HLFI","3RZS0FBRWLGDTA9TUPH81F59AWHPC0","34YB12FSQ0UNC3QFUXQ0ZMRIMW0MG6","model","mismatch","uniform","","","","","","","2127","90089","92216","[""stimuli/HF04_DO.jpg"",""stimuli/HM07_CC.jpg"",""stimuli/AM06_SUR.jpg"",""stimuli/AF02_SC.jpg""]","stimuli/HF04_DO.jpg","stimuli/HM07_CC.jpg","stimuli/AM06_SUR.jpg","stimuli/AF02_SC.jpg","pos1","stimuli/HF04_DO.jpg","DO","HF04","0","3","6","4","stimuli/stars_6.png","12","[""DO"",""CC"",""SUR"",""SC""]","[""HF04"",""HM07"",""AM06"",""AF02""]","[6,8,0,6]","[4,6,2,8]","","",""
"show-reward","12","92776","0.0-12.0","p423806","AVD6HMIO1HLFI","3RZS0FBRWLGDTA9TUPH81F59AWHPC0","34YB12FSQ0UNC3QFUXQ0ZMRIMW0MG6","model","mismatch","uniform","","","","","","","","92729","94740","","","","","","","","","","","","6","","stimuli/stars_6.png","12","","","","","stimuli/HF04_DO.jpg","",""
"explore-choice","13","95551","0.0-13.0","p423806","AVD6HMIO1HLFI","3RZS0FBRWLGDTA9TUPH81F59AWHPC0","34YB12FSQ0UNC3QFUXQ0ZMRIMW0MG6","model","mismatch","uniform","","","","","","","2272","94740","97012","[""stimuli/AF02_DO.jpg"",""stimuli/HF04_SC.jpg"",""stimuli/HM07_SUR.jpg"",""stimuli/AM06_CC.jpg""]","stimuli/AF02_DO.jpg","stimuli/HF04_SC.jpg","stimuli/HM07_SUR.jpg","stimuli/AM06_CC.jpg","pos2","stimuli/HF04_SC.jpg","SC","HF04","1","1","2","4","stimuli/stars_2.png","13","[""DO"",""SC"",""SUR"",""CC""]","[""AF02"",""HF04"",""HM07"",""AM06""]","[9,2,8,1]","[8,4,6,2]","","",""
"show-reward","14","97562","0.0-14.0","p423806","AVD6HMIO1HLFI","3RZS0FBRWLGDTA9TUPH81F59AWHPC0","34YB12FSQ0UNC3QFUXQ0ZMRIMW0MG6","model","mismatch","uniform","","","","","","","","97515","99526","","","","","","","","","","","","2","","stimuli/stars_2.png","13","","","","","stimuli/HF04_SC.jpg","",""
"explore-choice","15","100690","0.0-15.0","p423806","AVD6HMIO1HLFI","3RZS0FBRWLGDTA9TUPH81F59AWHPC0","34YB12FSQ0UNC3QFUXQ0ZMRIMW0MG6","model","mismatch","uniform","","","","","","","2618","99527","102145","[""stimuli/AM06_SC.jpg"",""stimuli/HF04_CC.jpg"",""stimuli/HM07_SUR.jpg"",""stimuli/AF02_DO.jpg""]","stimuli/AM06_SC.jpg","stimuli/HF04_CC.jpg","stimuli/HM07_SUR.jpg","stimuli/AF02_DO.jpg","pos3","stimuli/HM07_SUR.jpg","SUR","HM07","2","2.5","5","6","stimuli/stars_5.png","15.5","[""SC"",""CC"",""SUR"",""DO""]","[""AM06"",""HF04"",""HM07"",""AF02""]","[2,5,5,8]","[2,4,6,8]","","",""
"show-reward","16","102703","0.0-16.0","p423806","AVD6HMIO1HLFI","3RZS0FBRWLGDTA9TUPH81F59AWHPC0","34YB12FSQ0UNC3QFUXQ0ZMRIMW0MG6","model","mismatch","uniform","","","","","","","","102654","104666","","","","","","","","","","","","5","","stimuli/stars_5.png","15.5","","","","","stimuli/HM07_SUR.jpg","",""
"explore-choice","17","105973","0.0-17.0","p423806","AVD6HMIO1HLFI","3RZS0FBRWLGDTA9TUPH81F59AWHPC0","34YB12FSQ0UNC3QFUXQ0ZMRIMW0MG6","model","mismatch","uniform","","","","","","","2768","104667","107435","[""stimuli/AM06_SUR.jpg"",""stimuli/AF02_CC.jpg"",""stimuli/HM07_SC.jpg"",""stimuli/HF04_DO.jpg""]","stimuli/AM06_SUR.jpg","stimuli/AF02_CC.jpg","stimuli/HM07_SC.jpg","stimuli/HF04_DO.jpg","pos2","stimuli/AF02_CC.jpg","CC","AF02","1","3","6","8","stimuli/stars_6.png","18.5","[""SUR"",""CC"",""SC"",""DO""]","[""AM06"",""AF02"",""HM07"",""HF04""]","[4,6,5,3]","[2,8,6,4]","","",""
"show-reward","18","107986","0.0-18.0","p423806","AVD6HMIO1HLFI","3RZS0FBRWLGDTA9TUPH81F59AWHPC0","34YB12FSQ0UNC3QFUXQ0ZMRIMW0MG6","model","mismatch","uniform","","","","","","","","107937","109950","","","","","","","","","","","","6","","stimuli/stars_6.png","18.5","","","","","stimuli/AF02_CC.jpg","",""
"explore-choice","19","110815","0.0-19.0","p423806","AVD6HMIO1HLFI","3RZS0FBRWLGDTA9TUPH81F59AWHPC0","34YB12FSQ0UNC3QFUXQ0ZMRIMW0MG6","model","mismatch","uniform","","","","","","","2316","109950","112266","[""stimuli/HM07_SC.jpg"",""stimuli/AM06_DO.jpg"",""stimuli/HF04_CC.jpg"",""stimuli/AF02_SUR.jpg""]","stimuli/HM07_SC.jpg","stimuli/AM06_DO.jpg","stimuli/HF04_CC.jpg","stimuli/AF02_SUR.jpg","pos3","stimuli/HF04_CC.jpg","CC","HF04","2","2.5","5","4","stimuli/stars_5.png","21","[""SC"",""DO"",""CC"",""SUR""]","[""HM07"",""AM06"",""HF04"",""AF02""]","[6,2,5,6]","[6,2,4,8]","","",""
"show-reward","20","112831","0.0-20.0","p423806","AVD6HMIO1HLFI","3RZS0FBRWLGDTA9TUPH81F59AWHPC0","34YB12FSQ0UNC3QFUXQ0ZMRIMW0MG6","model","mismatch","uniform","","","","","","","","112779","114796","","","","","","","","","","","","5","","stimuli/stars_5.png","21","","","","","stimuli/HF04_CC.jpg","",""
"explore-choice","21","114995","0.0-21.0","p423806","AVD6HMIO1HLFI","3RZS0FBRWLGDTA9TUPH81F59AWHPC0","34YB12FSQ0UNC3QFUXQ0ZMRIMW0MG6","model","mismatch","uniform","","","","","","","1656","114796","116452","[""stimuli/HM07_DO.jpg"",""stimuli/AF02_SUR.jpg"",""stimuli/AM06_CC.jpg"",""stimuli/HF04_SC.jpg""]","stimuli/HM07_DO.jpg","stimuli/AF02_SUR.jpg","stimuli/AM06_CC.jpg","stimuli/HF04_SC.jpg","pos3","stimuli/AM06_CC.jpg","CC","AM06","2","0","0","2","stimuli/stars_0.png","21","[""DO"",""SUR"",""CC"",""SC""]","[""HM07"",""AF02"",""AM06"",""HF04""]","[7,6,0,4]","[6,8,2,4]","","",""
"show-reward","22","117002","0.0-22.0","p423806","AVD6HMIO1HLFI","3RZS0FBRWLGDTA9TUPH81F59AWHPC0","34YB12FSQ0UNC3QFUXQ0ZMRIMW0MG6","model","mismatch","uniform","","","","","","","","116960","118966","","","","","","","","","","","","0","","stimuli/stars_0.png","21","","","","","stimuli/AM06_CC.jpg","",""
"explore-choice","23","119112","0.0-23.0","p423806","AVD6HMIO1HLFI","3RZS0FBRWLGDTA9TUPH81F59AWHPC0","34YB12FSQ0UNC3QFUXQ0ZMRIMW0MG6","model","mismatch","uniform","","","","","","","1596","118966","120562","[""stimuli/HM07_SUR.jpg"",""stimuli/HF04_DO.jpg"",""stimuli/AF02_SC.jpg"",""stimuli/AM06_CC.jpg""]","stimuli/HM07_SUR.jpg","stimuli/HF04_DO.jpg","stimuli/AF02_SC.jpg","stimuli/AM06_CC.jpg","pos3","stimuli/AF02_SC.jpg","SC","AF02","2","3.5","7","8","stimuli/stars_7.png","24.5","[""SUR"",""DO"",""SC"",""CC""]","[""HM07"",""HF04"",""AF02"",""AM06""]","[7,3,7,0]","[6,4,8,2]","","",""
"show-reward","24","121113","0.0-24.0","p423806","AVD6HMIO1HLFI","3RZS0FBRWLGDTA9TUPH81F59AWHPC0","34YB12FSQ0UNC3QFUXQ0ZMRIMW0MG6","model","mismatch","uniform","","","","","","","","121076","123078","","","","","","","","","","","","7","","stimuli/stars_7.png","24.5","","","","","stimuli/AF02_SC.jpg","",""
"explore-choice","25","122439","0.0-25.0","p423806","AVD6HMIO1HLFI","3RZS0FBRWLGDTA9TUPH81F59AWHPC0","34YB12FSQ0UNC3QFUXQ0ZMRIMW0MG6","model","mismatch","uniform","","","","","","","822","123079","123901","[""stimuli/AM06_CC.jpg"",""stimuli/HF04_SUR.jpg"",""stimuli/AF02_SC.jpg"",""stimuli/HM07_DO.jpg""]","stimuli/AM06_CC.jpg","stimuli/HF04_SUR.jpg","stimuli/AF02_SC.jpg","stimuli/HM07_DO.jpg","pos3","stimuli/AF02_SC.jpg","SC","AF02","2","3","6","8","stimuli/stars_6.png","27.5","[""CC"",""SUR"",""SC"",""DO""]","[""AM06"",""HF04"",""AF02"",""HM07""]","[3,3,6,4]","[2,4,8,6]","","",""
"show-reward","26","124450","0.0-26.0","p423806","AVD6HMIO1HLFI","3RZS0FBRWLGDTA9TUPH81F59AWHPC0","34YB12FSQ0UNC3QFUXQ0ZMRIMW0MG6","model","mismatch","uniform","","","","","","","","124403","126414","","","","","","","","","","","","6","","stimuli/stars_6.png","27.5","","","","","stimuli/AF02_SC.jpg","",""
"explore-choice","27","126925","0.0-27.0","p423806","AVD6HMIO1HLFI","3RZS0FBRWLGDTA9TUPH81F59AWHPC0","34YB12FSQ0UNC3QFUXQ0ZMRIMW0MG6","model","mismatch","uniform","","","","","","","1973","126414","128387","[""stimuli/HM07_SC.jpg"",""stimuli/AF02_CC.jpg"",""stimuli/AM06_DO.jpg"",""stimuli/HF04_SUR.jpg""]","stimuli/HM07_SC.jpg","stimuli/AF02_CC.jpg","stimuli/AM06_DO.jpg","stimuli/HF04_SUR.jpg","pos4","stimuli/HF04_SUR.jpg","SUR","HF04","3","2.5","5","4","stimuli/stars_5.png","30","[""SC"",""CC"",""DO"",""SUR""]","[""HM07"",""AF02"",""AM06"",""HF04""]","[7,6,2,5]","[6,8,2,4]","","",""
"show-reward","28","128939","0.0-28.0","p423806","AVD6HMIO1HLFI","3RZS0FBRWLGDTA9TUPH81F59AWHPC0","34YB12FSQ0UNC3QFUXQ0ZMRIMW0MG6","model","mismatch","uniform","","","","","","","","128891","130903","","","","","","","","","","","","5","","stimuli/stars_5.png","30","","","","","stimuli/HF04_SUR.jpg","",""
"explore-choice","29","131093","0.0-29.0","p423806","AVD6HMIO1HLFI","3RZS0FBRWLGDTA9TUPH81F59AWHPC0","34YB12FSQ0UNC3QFUXQ0ZMRIMW0MG6","model","mismatch","uniform","","","","","","","1648","130903","132551","[""stimuli/HM07_SUR.jpg"",""stimuli/AF02_CC.jpg"",""stimuli/HF04_DO.jpg"",""stimuli/AM06_SC.jpg""]","stimuli/HM07_SUR.jpg","stimuli/AF02_CC.jpg","stimuli/HF04_DO.jpg","stimuli/AM06_SC.jpg","pos3","stimuli/HF04_DO.jpg","DO","HF04","2","1.5","3","4","stimuli/stars_3.png","31.5","[""SUR"",""CC"",""DO"",""SC""]","[""HM07"",""AF02"",""HF04"",""AM06""]","[5,6,3,2]","[6,8,4,2]","","",""
"show-reward","30","133096","0.0-30.0","p423806","AVD6HMIO1HLFI","3RZS0FBRWLGDTA9TUPH81F59AWHPC0","34YB12FSQ0UNC3QFUXQ0ZMRIMW0MG6","model","mismatch","uniform","","","","","","","","133058","135060","","","","","","","","","","","","3","","stimuli/stars_3.png","31.5","","","","","stimuli/HF04_DO.jpg","",""
"explore-choice","31","135310","0.0-31.0","p423806","AVD6HMIO1HLFI","3RZS0FBRWLGDTA9TUPH81F59AWHPC0","34YB12FSQ0UNC3QFUXQ0ZMRIMW0MG6","model","mismatch","uniform","","","","","","","1704","135060","136764","[""stimuli/AF02_SUR.jpg"",""stimuli/HF04_SC.jpg"",""stimuli/AM06_DO.jpg"",""stimuli/HM07_CC.jpg""]","stimuli/AF02_SUR.jpg","stimuli/HF04_SC.jpg","stimuli/AM06_DO.jpg","stimuli/HM07_CC.jpg","pos2","stimuli/HF04_SC.jpg","SC","HF04","1","3","6","4","stimuli/stars_6.png","34.5","[""SUR"",""SC"",""DO"",""CC""]","[""AF02"",""HF04"",""AM06"",""HM07""]","[9,6,3,6]","[8,4,2,6]","","",""
"show-reward","32","137320","0.0-32.0","p423806","AVD6HMIO1HLFI","3RZS0FBRWLGDTA9TUPH81F59AWHPC0","34YB12FSQ0UNC3QFUXQ0ZMRIMW0MG6","model","mismatch","uniform","","","","","","","","137275","139284","","","","","","","","","","","","6","","stimuli/stars_6.png","34.5","","","","","stimuli/HF04_SC.jpg","",""
"explore-choice","33","140562","0.0-33.0","p423806","AVD6HMIO1HLFI","3RZS0FBRWLGDTA9TUPH81F59AWHPC0","34YB12FSQ0UNC3QFUXQ0ZMRIMW0MG6","model","mismatch","uniform","","","","","","","2734","139284","142018","[""stimuli/AF02_CC.jpg"",""stimuli/HM07_DO.jpg"",""stimuli/AM06_SC.jpg"",""stimuli/HF04_SUR.jpg""]","stimuli/AF02_CC.jpg","stimuli/HM07_DO.jpg","stimuli/AM06_SC.jpg","stimuli/HF04_SUR.jpg","pos4","stimuli/HF04_SUR.jpg","SUR","HF04","3","3","6","4","stimuli/stars_6.png","37.5","[""CC"",""DO"",""SC"",""SUR""]","[""AF02"",""HM07"",""AM06"",""HF04""]","[9,8,1,6]","[8,6,2,4]","","",""
"show-reward","34","142578","0.0-34.0","p423806","AVD6HMIO1HLFI","3RZS0FBRWLGDTA9TUPH81F59AWHPC0","34YB12FSQ0UNC3QFUXQ0ZMRIMW0MG6","model","mismatch","uniform","","","","","","","","142526","144541","","","","","","","","","","","","6","","stimuli/stars_6.png","37.5","","","","","stimuli/HF04_SUR.jpg","",""
"explore-choice","35","146560","0.0-35.0","p423806","AVD6HMIO1HLFI","3RZS0FBRWLGDTA9TUPH81F59AWHPC0","34YB12FSQ0UNC3QFUXQ0ZMRIMW0MG6","model","mismatch","uniform","","","","","","","3472","144542","148014","[""stimuli/HF04_SUR.jpg"",""stimuli/AM06_CC.jpg"",""stimuli/HM07_SC.jpg"",""stimuli/AF02_DO.jpg""]","stimuli/HF04_SUR.jpg","stimuli/AM06_CC.jpg","stimuli/HM07_SC.jpg","stimuli/AF02_DO.jpg","pos2","stimuli/AM06_CC.jpg","CC","AM06","1","0.5","1","2","stimuli/stars_1.png","38","[""SUR"",""CC"",""SC"",""DO""]","[""HF04"",""AM06"",""HM07"",""AF02""]","[6,1,7,6]","[4,2,6,8]","","",""
"show-reward","36","148567","0.0-36.0","p423806","AVD6HMIO1HLFI","3RZS0FBRWLGDTA9TUPH81F59AWHPC0","34YB12FSQ0UNC3QFUXQ0ZMRIMW0MG6","model","mismatch","uniform","","","","","","","","148525","150530","","","","","","","","","","","","1","","stimuli/stars_1.png","38","","","","","stimuli/AM06_CC.jpg","",""
"explore-choice","37","151003","0.0-37.0","p423806","AVD6HMIO1HLFI","3RZS0FBRWLGDTA9TUPH81F59AWHPC0","34YB12FSQ0UNC3QFUXQ0ZMRIMW0MG6","model","mismatch","uniform","","","","","","","1936","150530","152466","[""stimuli/HM07_SUR.jpg"",""stimuli/AM06_DO.jpg"",""stimuli/HF04_SC.jpg"",""stimuli/AF02_CC.jpg""]","stimuli/HM07_SUR.jpg","stimuli/AM06_DO.jpg","stimuli/HF04_SC.jpg","stimuli/AF02_CC.jpg","pos3","stimuli/HF04_SC.jpg","SC","HF04","2","1","2","4","stimuli/stars_2.png","39","[""SUR"",""DO"",""SC"",""CC""]","[""HM07"",""AM06"",""HF04"",""AF02""]","[7,1,2,10]","[6,2,4,8]","","",""
"show-reward","38","153007","0.0-38.0","p423806","AVD6HMIO1HLFI","3RZS0FBRWLGDTA9TUPH81F59AWHPC0","34YB12FSQ0UNC3QFUXQ0ZMRIMW0MG6","model","mismatch","uniform","","","","","","","","152967","154971","","","","","","","","","","","","2","","stimuli/stars_2.png","39","","","","","stimuli/HF04_SC.jpg","",""
"explore-choice","39","154551","0.0-39.0","p423806","AVD6HMIO1HLFI","3RZS0FBRWLGDTA9TUPH81F59AWHPC0","34YB12FSQ0UNC3QFUXQ0ZMRIMW0MG6","model","mismatch","uniform","","","","","","","1035","154971","156006","[""stimuli/HM07_DO.jpg"",""stimuli/AM06_SUR.jpg"",""stimuli/HF04_SC.jpg"",""stimuli/AF02_CC.jpg""]","stimuli/HM07_DO.jpg","stimuli/AM06_SUR.jpg","stimuli/HF04_SC.jpg","stimuli/AF02_CC.jpg","pos4","stimuli/AF02_CC.jpg","CC","AF02","3","3","6","8","stimuli/stars_6.png","42","[""DO"",""SUR"",""SC"",""CC""]","[""HM07"",""AM06"",""HF04"",""AF02""]","[8,1,5,6]","[6,2,4,8]","","",""
"show-reward","40","156568","0.0-40.0","p423806","AVD6HMIO1HLFI","3RZS0FBRWLGDTA9TUPH81F59AWHPC0","34YB12FSQ0UNC3QFUXQ0ZMRIMW0MG6","model","mismatch","uniform","","","","","","","","156515","158532","","","","","","","","","","","","6","","stimuli/stars_6.png","42","","","","","stimuli/AF02_CC.jpg","",""
"explore-choice","41","158978","0.0-41.0","p423806","AVD6HMIO1HLFI","3RZS0FBRWLGDTA9TUPH81F59AWHPC0","34YB12FSQ0UNC3QFUXQ0ZMRIMW0MG6","model","mismatch","uniform","","","","","","","1904","158532","160436","[""stimuli/HF04_SC.jpg"",""stimuli/HM07_CC.jpg"",""stimuli/AM06_SUR.jpg"",""stimuli/AF02_DO.jpg""]","stimuli/HF04_SC.jpg","stimuli/HM07_CC.jpg","stimuli/AM06_SUR.jpg","stimuli/AF02_DO.jpg","pos1","stimuli/HF04_SC.jpg","SC","HF04","0","2","4","4","stimuli/stars_4.png","44","[""SC"",""CC"",""SUR"",""DO""]","[""HF04"",""HM07"",""AM06"",""AF02""]","[4,4,2,6]","[4,6,2,8]","","",""
"show-reward","42","160986","0.0-42.0","p423806","AVD6HMIO1HLFI","3RZS0FBRWLGDTA9TUPH81F59AWHPC0","34YB12FSQ0UNC3QFUXQ0ZMRIMW0MG6","model","mismatch","uniform","","","","","","","","160942","162950","","","","","","","","","","","","4","","stimuli/stars_4.png","44","","","","","stimuli/HF04_SC.jpg","",""
"explore-choice","43","165137","0.0-43.0","p423806","AVD6HMIO1HLFI","3RZS0FBRWLGDTA9TUPH81F59AWHPC0","34YB12FSQ0UNC3QFUXQ0ZMRIMW0MG6","model","mismatch","uniform","","","","","","","3640","162951","166591","[""stimuli/HM07_SC.jpg"",""stimuli/AM06_CC.jpg"",""stimuli/HF04_DO.jpg"",""stimuli/AF02_SUR.jpg""]","stimuli/HM07_SC.jpg","stimuli/AM06_CC.jpg","stimuli/HF04_DO.jpg","stimuli/AF02_SUR.jpg","pos4","stimuli/AF02_SUR.jpg","SUR","AF02","3","4.5","9","8","stimuli/stars_9.png","48.5","[""SC"",""CC"",""DO"",""SUR""]","[""HM07"",""AM06"",""HF04"",""AF02""]","[4,4,5,9]","[6,2,4,8]","","",""
"show-reward","44","167143","0.0-44.0","p423806","AVD6HMIO1HLFI","3RZS0FBRWLGDTA9TUPH81F59AWHPC0","34YB12FSQ0UNC3QFUXQ0ZMRIMW0MG6","model","mismatch","uniform","","","","","","","","167102","169107","","","","","","","","","","","","9","","stimuli/stars_9.png","48.5","","","","","stimuli/AF02_SUR.jpg","",""
"explore-choice","45","169062","0.0-45.0","p423806","AVD6HMIO1HLFI","3RZS0FBRWLGDTA9TUPH81F59AWHPC0","34YB12FSQ0UNC3QFUXQ0ZMRIMW0MG6","model","mismatch","uniform","","","","","","","1405","169108","170513","[""stimuli/HF04_CC.jpg"",""stimuli/HM07_SUR.jpg"",""stimuli/AM06_DO.jpg"",""stimuli/AF02_SC.jpg""]","stimuli/HF04_CC.jpg","stimuli/HM07_SUR.jpg","stimuli/AM06_DO.jpg","stimuli/AF02_SC.jpg","pos4","stimuli/AF02_SC.jpg","SC","AF02","3","3","6","8","stimuli/stars_6.png","51.5","[""CC"",""SUR"",""DO"",""SC""]","[""HF04"",""HM07"",""AM06"",""AF02""]","[4,6,3,6]","[4,6,2,8]","","",""
"show-reward","46","171076","0.0-46.0","p423806","AVD6HMIO1HLFI","3RZS0FBRWLGDTA9TUPH81F59AWHPC0","34YB12FSQ0UNC3QFUXQ0ZMRIMW0MG6","model","mismatch","uniform","","","","","","","","171026","173041","","","","","","","","","","","","6","","stimuli/stars_6.png","51.5","","","","","stimuli/AF02_SC.jpg","",""
"explore-choice","47","172747","0.0-47.0","p423806","AVD6HMIO1HLFI","3RZS0FBRWLGDTA9TUPH81F59AWHPC0","34YB12FSQ0UNC3QFUXQ0ZMRIMW0MG6","model","mismatch","uniform","","","","","","","1166","173041","174207","[""stimuli/HM07_CC.jpg"",""stimuli/HF04_SUR.jpg"",""stimuli/AM06_SC.jpg"",""stimuli/AF02_DO.jpg""]","stimuli/HM07_CC.jpg","stimuli/HF04_SUR.jpg","stimuli/AM06_SC.jpg","stimuli/AF02_DO.jpg","pos4","stimuli/AF02_DO.jpg","DO","AF02","3","3.5","7","8","stimuli/stars_7.png","55","[""CC"",""SUR"",""SC"",""DO""]","[""HM07"",""HF04"",""AM06"",""AF02""]","[6,3,1,7]","[6,4,2,8]","","",""
"show-reward","48","174754","0.0-48.0","p423806","AVD6HMIO1HLFI","3RZS0FBRWLGDTA9TUPH81F59AWHPC0","34YB12FSQ0UNC3QFUXQ0ZMRIMW0MG6","model","mismatch","uniform","","","","","","","","174711","176717","","","","","","","","","","","","7","","stimuli/stars_7.png","55","","","","","stimuli/AF02_DO.jpg","",""
"explore-choice","49","177823","0.0-49.0","p423806","AVD6HMIO1HLFI","3RZS0FBRWLGDTA9TUPH81F59AWHPC0","34YB12FSQ0UNC3QFUXQ0ZMRIMW0MG6","model","mismatch","uniform","","","","","","","2558","176717","179275","[""stimuli/HF04_CC.jpg"",""stimuli/AF02_SUR.jpg"",""stimuli/AM06_SC.jpg"",""stimuli/HM07_DO.jpg""]","stimuli/HF04_CC.jpg","stimuli/AF02_SUR.jpg","stimuli/AM06_SC.jpg","stimuli/HM07_DO.jpg","pos2","stimuli/AF02_SUR.jpg","SUR","AF02","1","5","10","8","stimuli/stars_10.png","60","[""CC"",""SUR"",""SC"",""DO""]","[""HF04"",""AF02"",""AM06"",""HM07""]","[2,10,4,4]","[4,8,2,6]","","",""
"show-reward","50","179829","0.0-50.0","p423806","AVD6HMIO1HLFI","3RZS0FBRWLGDTA9TUPH81F59AWHPC0","34YB12FSQ0UNC3QFUXQ0ZMRIMW0MG6","model","mismatch","uniform","","","","","","","","179787","181793","","","","","","","","","","","","10","","stimuli/stars_10.png","60","","","","","stimuli/AF02_SUR.jpg","",""
"explore-choice","51","181172","0.0-51.0","p423806","AVD6HMIO1HLFI","3RZS0FBRWLGDTA9TUPH81F59AWHPC0","34YB12FSQ0UNC3QFUXQ0ZMRIMW0MG6","model","mismatch","uniform","","","","","","","836","181794","182630","[""stimuli/HM07_CC.jpg"",""stimuli/HF04_DO.jpg"",""stimuli/AF02_SUR.jpg"",""stimuli/AM06_SC.jpg""]","stimuli/HM07_CC.jpg","stimuli/HF04_DO.jpg","stimuli/AF02_SUR.jpg","stimuli/AM06_SC.jpg","pos3","stimuli/AF02_SUR.jpg","SUR","AF02","2","3.5","7","8","stimuli/stars_7.png","63.5","[""CC"",""DO"",""SUR"",""SC""]","[""HM07"",""HF04"",""AF02"",""AM06""]","[6,5,7,2]","[6,4,8,2]","","",""
"show-reward","52","183173","0.0-52.0","p423806","AVD6HMIO1HLFI","3RZS0FBRWLGDTA9TUPH81F59AWHPC0","34YB12FSQ0UNC3QFUXQ0ZMRIMW0MG6","model","mismatch","uniform","","","","","","","","183136","185137","","","","","","","","","","","","7","","stimuli/stars_7.png","63.5","","","","","stimuli/AF02_SUR.jpg","",""
"explore-choice","53","185177","0.0-53.0","p423806","AVD6HMIO1HLFI","3RZS0FBRWLGDTA9TUPH81F59AWHPC0","34YB12FSQ0UNC3QFUXQ0ZMRIMW0MG6","model","mismatch","uniform","","","","","","","1502","185138","186640","[""stimuli/AF02_SC.jpg"",""stimuli/HM07_CC.jpg"",""stimuli/AM06_DO.jpg"",""stimuli/HF04_SUR.jpg""]","stimuli/AF02_SC.jpg","stimuli/HM07_CC.jpg","stimuli/AM06_DO.jpg","stimuli/HF04_SUR.jpg","pos1","stimuli/AF02_SC.jpg","SC","AF02","0","3","6","8","stimuli/stars_6.png","66.5","[""SC"",""CC"",""DO"",""SUR""]","[""AF02"",""HM07"",""AM06"",""HF04""]","[6,7,1,5]","[8,6,2,4]","","",""
"show-reward","54","187178","0.0-54.0","p423806","AVD6HMIO1HLFI","3RZS0FBRWLGDTA9TUPH81F59AWHPC0","34YB12FSQ0UNC3QFUXQ0ZMRIMW0MG6","model","mismatch","uniform","","","","","","","","187140","189142","","","","","","","","","","","","6","","stimuli/stars_6.png","66.5","","","","","stimuli/AF02_SC.jpg","",""
"explore-choice","55","188880","0.0-55.0","p423806","AVD6HMIO1HLFI","3RZS0FBRWLGDTA9TUPH81F59AWHPC0","34YB12FSQ0UNC3QFUXQ0ZMRIMW0MG6","model","mismatch","uniform","","","","","","","1200","189142","190342","[""stimuli/HM07_CC.jpg"",""stimuli/AF02_DO.jpg"",""stimuli/AM06_SC.jpg"",""stimuli/HF04_SUR.jpg""]","stimuli/HM07_CC.jpg","stimuli/AF02_DO.jpg","stimuli/AM06_SC.jpg","stimuli/HF04_SUR.jpg","pos2","stimuli/AF02_DO.jpg","DO","AF02","1","3.5","7","8","stimuli/stars_7.png","70","[""CC"",""DO"",""SC"",""SUR""]","[""HM07"",""AF02"",""AM06"",""HF04""]","[6,7,1,3]","[6,8,2,4]","","",""
"show-reward","56","190888","0.0-56.0","p423806","AVD6HMIO1HLFI","3RZS0FBRWLGDTA9TUPH81F59AWHPC0","34YB12FSQ0UNC3QFUXQ0ZMRIMW0MG6","model","mismatch","uniform","","","","","","","","190844","192852","","","","","","","","","","","","7","","stimuli/stars_7.png","70","","","","","stimuli/AF02_DO.jpg","",""
"explore-choice","57","192501","0.0-57.0","p423806","AVD6HMIO1HLFI","3RZS0FBRWLGDTA9TUPH81F59AWHPC0","34YB12FSQ0UNC3QFUXQ0ZMRIMW0MG6","model","mismatch","uniform","","","","","","","1109","192853","193962","[""stimuli/AM06_CC.jpg"",""stimuli/AF02_SUR.jpg"",""stimuli/HF04_SC.jpg"",""stimuli/HM07_DO.jpg""]","stimuli/AM06_CC.jpg","stimuli/AF02_SUR.jpg","stimuli/HF04_SC.jpg","stimuli/HM07_DO.jpg","pos2","stimuli/AF02_SUR.jpg","SUR","AF02","1","3","6","8","stimuli/stars_6.png","73","[""CC"",""SUR"",""SC"",""DO""]","[""AM06"",""AF02"",""HF04"",""HM07""]","[0,6,4,7]","[2,8,4,6]","","",""
"show-reward","58","194502","0.0-58.0","p423806","AVD6HMIO1HLFI","3RZS0FBRWLGDTA9TUPH81F59AWHPC0","34YB12FSQ0UNC3QFUXQ0ZMRIMW0MG6","model","mismatch","uniform","","","","","","","","194464","196466","","","","","","","","","","","","6","","stimuli/stars_6.png","73","","","","","stimuli/AF02_SUR.jpg","",""
"explore-choice","59","196112","0.0-59.0","p423806","AVD6HMIO1HLFI","3RZS0FBRWLGDTA9TUPH81F59AWHPC0","34YB12FSQ0UNC3QFUXQ0ZMRIMW0MG6","model","mismatch","uniform","","","","","","","1108","196466","197574","[""stimuli/HF04_SC.jpg"",""stimuli/AM06_DO.jpg"",""stimuli/HM07_CC.jpg"",""stimuli/AF02_SUR.jpg""]","stimuli/HF04_SC.jpg","stimuli/AM06_DO.jpg","stimuli/HM07_CC.jpg","stimuli/AF02_SUR.jpg","pos4","stimuli/AF02_SUR.jpg","SUR","AF02","3","4.5","9","8","stimuli/stars_9.png","77.5","[""SC"",""DO"",""CC"",""SUR""]","[""HF04"",""AM06"",""HM07"",""AF02""]","[6,3,6,9]","[4,2,6,8]","","",""
"show-reward","60","198125","0.0-60.0","p423806","AVD6HMIO1HLFI","3RZS0FBRWLGDTA9TUPH81F59AWHPC0","34YB12FSQ0UNC3QFUXQ0ZMRIMW0MG6","model","mismatch","uniform","","","","","","","","198076","200088","","","","","","","","","","","","9","","stimuli/stars_9.png","77.5","","","","","stimuli/AF02_SUR.jpg","",""
"explore-choice","61","199738","0.0-61.0","p423806","AVD6HMIO1HLFI","3RZS0FBRWLGDTA9TUPH81F59AWHPC0","34YB12FSQ0UNC3QFUXQ0ZMRIMW0MG6","model","mismatch","uniform","","","","","","","1104","200089","201193","[""stimuli/AF02_CC.jpg"",""stimuli/AM06_DO.jpg"",""stimuli/HF04_SUR.jpg"",""stimuli/HM07_SC.jpg""]","stimuli/AF02_CC.jpg","stimuli/AM06_DO.jpg","stimuli/HF04_SUR.jpg","stimuli/HM07_SC.jpg","pos1","stimuli/AF02_CC.jpg","CC","AF02","0","3","6","8","stimuli/stars_6.png","80.5","[""CC"",""DO"",""SUR"",""SC""]","[""AF02"",""AM06"",""HF04"",""HM07""]","[6,2,5,7]","[8,2,4,6]","","",""
"show-reward","62","201739","0.0-62.0","p423806","AVD6HMIO1HLFI","3RZS0FBRWLGDTA9TUPH81F59AWHPC0","34YB12FSQ0UNC3QFUXQ0ZMRIMW0MG6","model","mismatch","uniform","","","","","","","","201702","203703","","","","","","","","","","","","6","","stimuli/stars_6.png","80.5","","","","","stimuli/AF02_CC.jpg","",""
"explore-choice","63","203312","0.0-63.0","p423806","AVD6HMIO1HLFI","3RZS0FBRWLGDTA9TUPH81F59AWHPC0","34YB12FSQ0UNC3QFUXQ0ZMRIMW0MG6","model","mismatch","uniform","","","","","","","1062","203703","204765","[""stimuli/HF04_SUR.jpg"",""stimuli/HM07_DO.jpg"",""stimuli/AM06_SC.jpg"",""stimuli/AF02_CC.jpg""]","stimuli/HF04_SUR.jpg","stimuli/HM07_DO.jpg","stimuli/AM06_SC.jpg","stimuli/AF02_CC.jpg","pos4","stimuli/AF02_CC.jpg","CC","AF02","3","4.5","9","8","stimuli/stars_9.png","85","[""SUR"",""DO"",""SC"",""CC""]","[""HF04"",""HM07"",""AM06"",""AF02""]","[6,8,1,9]","[4,6,2,8]","","",""
"show-reward","64","205326","0.0-64.0","p423806","AVD6HMIO1HLFI","3RZS0FBRWLGDTA9TUPH81F59AWHPC0","34YB12FSQ0UNC3QFUXQ0ZMRIMW0MG6","model","mismatch","uniform","","","","","","","","205277","207291","","","","","","","","","","","","9","","stimuli/stars_9.png","85","","","","","stimuli/AF02_CC.jpg","",""
"explore-choice","65","206655","0.0-65.0","p423806","AVD6HMIO1HLFI","3RZS0FBRWLGDTA9TUPH81F59AWHPC0","34YB12FSQ0UNC3QFUXQ0ZMRIMW0MG6","model","mismatch","uniform","","","","","","","814","207291","208105","[""stimuli/AF02_CC.jpg"",""stimuli/HM07_SUR.jpg"",""stimuli/AM06_DO.jpg"",""stimuli/HF04_SC.jpg""]","stimuli/AF02_CC.jpg","stimuli/HM07_SUR.jpg","stimuli/AM06_DO.jpg","stimuli/HF04_SC.jpg","pos1","stimuli/AF02_CC.jpg","CC","AF02","0","5","10","8","stimuli/stars_10.png","90","[""CC"",""SUR"",""DO"",""SC""]","[""AF02"",""HM07"",""AM06"",""HF04""]","[10,7,1,2]","[8,6,2,4]","","",""
"show-reward","66","208666","0.0-66.0","p423806","AVD6HMIO1HLFI","3RZS0FBRWLGDTA9TUPH81F59AWHPC0","34YB12FSQ0UNC3QFUXQ0ZMRIMW0MG6","model","mismatch","uniform","","","","","","","","208619","210630","","","","","","","","","","","","10","","stimuli/stars_10.png","90","","","","","stimuli/AF02_CC.jpg","",""
"explore-choice","67","210863","0.0-67.0","p423806","AVD6HMIO1HLFI","3RZS0FBRWLGDTA9TUPH81F59AWHPC0","34YB12FSQ0UNC3QFUXQ0ZMRIMW0MG6","model","mismatch","uniform","","","","","","","1683","210630","212313","[""stimuli/HF04_CC.jpg"",""stimuli/AF02_DO.jpg"",""stimuli/AM06_SUR.jpg"",""stimuli/HM07_SC.jpg""]","stimuli/HF04_CC.jpg","stimuli/AF02_DO.jpg","stimuli/AM06_SUR.jpg","stimuli/HM07_SC.jpg","pos2","stimuli/AF02_DO.jpg","DO","AF02","1","3","6","8","stimuli/stars_6.png","93","[""CC"",""DO"",""SUR"",""SC""]","[""HF04"",""AF02"",""AM06"",""HM07""]","[4,6,3,5]","[4,8,2,6]","","",""
"show-reward","68","212868","0.0-68.0","p423806","AVD6HMIO1HLFI","3RZS0FBRWLGDTA9TUPH81F59AWHPC0","34YB12FSQ0UNC3QFUXQ0ZMRIMW0MG6","model","mismatch","uniform","","","","","","","","212827","214832","","","","","","","","","","","","6","","stimuli/stars_6.png","93","","","","","stimuli/AF02_DO.jpg","",""
"explore-choice","69","214450","0.0-69.0","p423806","AVD6HMIO1HLFI","3RZS0FBRWLGDTA9TUPH81F59AWHPC0","34YB12FSQ0UNC3QFUXQ0ZMRIMW0MG6","model","mismatch","uniform","","","","","","","1068","214833","215901","[""stimuli/AF02_SC.jpg"",""stimuli/AM06_DO.jpg"",""stimuli/HM07_SUR.jpg"",""stimuli/HF04_CC.jpg""]","stimuli/AF02_SC.jpg","stimuli/AM06_DO.jpg","stimuli/HM07_SUR.jpg","stimuli/HF04_CC.jpg","pos1","stimuli/AF02_SC.jpg","SC","AF02","0","3","6","8","stimuli/stars_6.png","96","[""SC"",""DO"",""SUR"",""CC""]","[""AF02"",""AM06"",""HM07"",""HF04""]","[6,3,6,4]","[8,2,6,4]","","",""
"show-reward","70","216454","0.0-70.0","p423806","AVD6HMIO1HLFI","3RZS0FBRWLGDTA9TUPH81F59AWHPC0","34YB12FSQ0UNC3QFUXQ0ZMRIMW0MG6","model","mismatch","uniform","","","","","","","","216414","218418","","","","","","","","","","","","6","","stimuli/stars_6.png","96","","","","","stimuli/AF02_SC.jpg","",""
"explore-choice","71","217795","0.0-71.0","p423806","AVD6HMIO1HLFI","3RZS0FBRWLGDTA9TUPH81F59AWHPC0","34YB12FSQ0UNC3QFUXQ0ZMRIMW0MG6","model","mismatch","uniform","","","","","","","835","218419","219254","[""stimuli/HF04_SUR.jpg"",""stimuli/AF02_SC.jpg"",""stimuli/HM07_DO.jpg"",""stimuli/AM06_CC.jpg""]","stimuli/HF04_SUR.jpg","stimuli/AF02_SC.jpg","stimuli/HM07_DO.jpg","stimuli/AM06_CC.jpg","pos2","stimuli/AF02_SC.jpg","SC","AF02","1","3","6","8","stimuli/stars_6.png","99","[""SUR"",""SC"",""DO"",""CC""]","[""HF04"",""AF02"",""HM07"",""AM06""]","[3,6,4,3]","[4,8,6,2]","","",""
"show-reward","72","219799","0.0-72.0","p423806","AVD6HMIO1HLFI","3RZS0FBRWLGDTA9TUPH81F59AWHPC0","34YB12FSQ0UNC3QFUXQ0ZMRIMW0MG6","model","mismatch","uniform","","","","","","","","219759","221763","","","","","","","","","","","","6","","stimuli/stars_6.png","99","","","","","stimuli/AF02_SC.jpg","",""
"explore-choice","73","222534","0.0-73.0","p423806","AVD6HMIO1HLFI","3RZS0FBRWLGDTA9TUPH81F59AWHPC0","34YB12FSQ0UNC3QFUXQ0ZMRIMW0MG6","model","mismatch","uniform","","","","","","","2233","221763","223996","[""stimuli/HF04_DO.jpg"",""stimuli/AF02_SC.jpg"",""stimuli/HM07_CC.jpg"",""stimuli/AM06_SUR.jpg""]","stimuli/HF04_DO.jpg","stimuli/AF02_SC.jpg","stimuli/HM07_CC.jpg","stimuli/AM06_SUR.jpg","pos3","stimuli/HM07_CC.jpg","CC","HM07","2","4","8","6","stimuli/stars_8.png","103","[""DO"",""SC"",""CC"",""SUR""]","[""HF04"",""AF02"",""HM07"",""AM06""]","[6,6,8,0]","[4,8,6,2]","","",""
"show-reward","74","224545","0.0-74.0","p423806","AVD6HMIO1HLFI","3RZS0FBRWLGDTA9TUPH81F59AWHPC0","34YB12FSQ0UNC3QFUXQ0ZMRIMW0MG6","model","mismatch","uniform","","","","","","","","224498","226509","","","","","","","","","","","","8","","stimuli/stars_8.png","103","","","","","stimuli/HM07_CC.jpg","",""
"explore-choice","75","226563","0.0-75.0","p423806","AVD6HMIO1HLFI","3RZS0FBRWLGDTA9TUPH81F59AWHPC0","34YB12FSQ0UNC3QFUXQ0ZMRIMW0MG6","model","mismatch","uniform","","","","","","","1514","226509","228023","[""stimuli/AF02_SUR.jpg"",""stimuli/HM07_SC.jpg"",""stimuli/AM06_DO.jpg"",""stimuli/HF04_CC.jpg""]","stimuli/AF02_SUR.jpg","stimuli/HM07_SC.jpg","stimuli/AM06_DO.jpg","stimuli/HF04_CC.jpg","pos2","stimuli/HM07_SC.jpg","SC","HM07","1","3","6","6","stimuli/stars_6.png","106","[""SUR"",""SC"",""DO"",""CC""]","[""AF02"",""HM07"",""AM06"",""HF04""]","[6,6,2,5]","[8,6,2,4]","","",""
"show-reward","76","228572","0.0-76.0","p423806","AVD6HMIO1HLFI","3RZS0FBRWLGDTA9TUPH81F59AWHPC0","34YB12FSQ0UNC3QFUXQ0ZMRIMW0MG6","model","mismatch","uniform","","","","","","","","228527","230536","","","","","","","","","","","","6","","stimuli/stars_6.png","106","","","","","stimuli/HM07_SC.jpg","",""
"explore-choice","77","230897","0.0-77.0","p423806","AVD6HMIO1HLFI","3RZS0FBRWLGDTA9TUPH81F59AWHPC0","34YB12FSQ0UNC3QFUXQ0ZMRIMW0MG6","model","mismatch","uniform","","","","","","","1824","230536","232360","[""stimuli/AM06_CC.jpg"",""stimuli/HF04_DO.jpg"",""stimuli/HM07_SC.jpg"",""stimuli/AF02_SUR.jpg""]","stimuli/AM06_CC.jpg","stimuli/HF04_DO.jpg","stimuli/HM07_SC.jpg","stimuli/AF02_SUR.jpg","pos3","stimuli/HM07_SC.jpg","SC","HM07","2","2","4","6","stimuli/stars_4.png","108","[""CC"",""DO"",""SC"",""SUR""]","[""AM06"",""HF04"",""HM07"",""AF02""]","[4,5,4,9]","[2,4,6,8]","","",""
"show-reward","78","232911","0.0-78.0","p423806","AVD6HMIO1HLFI","3RZS0FBRWLGDTA9TUPH81F59AWHPC0","34YB12FSQ0UNC3QFUXQ0ZMRIMW0MG6","model","mismatch","uniform","","","","","","","","232862","234875","","","","","","","","","","","","4","","stimuli/stars_4.png","108","","","","","stimuli/HM07_SC.jpg","",""
"explore-choice","79","234832","0.0-79.0","p423806","AVD6HMIO1HLFI","3RZS0FBRWLGDTA9TUPH81F59AWHPC0","34YB12FSQ0UNC3QFUXQ0ZMRIMW0MG6","model","mismatch","uniform","","","","","","","1406","234875","236281","[""stimuli/AM06_CC.jpg"",""stimuli/HM07_SC.jpg"",""stimuli/HF04_SUR.jpg"",""stimuli/AF02_DO.jpg""]","stimuli/AM06_CC.jpg","stimuli/HM07_SC.jpg","stimuli/HF04_SUR.jpg","stimuli/AF02_DO.jpg","pos4","stimuli/AF02_DO.jpg","DO","AF02","3","3","6","8","stimuli/stars_6.png","111","[""CC"",""SC"",""SUR"",""DO""]","[""AM06"",""HM07"",""HF04"",""AF02""]","[1,7,6,6]","[2,6,4,8]","","",""
"show-reward","80","236842","0.0-80.0","p423806","AVD6HMIO1HLFI","3RZS0FBRWLGDTA9TUPH81F59AWHPC0","34YB12FSQ0UNC3QFUXQ0ZMRIMW0MG6","model","mismatch","uniform","","","","","","","","236797","238806","","","","","","","","","","","","6","","stimuli/stars_6.png","111","","","","","stimuli/AF02_DO.jpg","",""
"explore-choice","81","238826","0.0-81.0","p423806","AVD6HMIO1HLFI","3RZS0FBRWLGDTA9TUPH81F59AWHPC0","34YB12FSQ0UNC3QFUXQ0ZMRIMW0MG6","model","mismatch","uniform","","","","","","","1473","238807","240280","[""stimuli/HF04_SC.jpg"",""stimuli/HM07_DO.jpg"",""stimuli/AF02_CC.jpg"",""stimuli/AM06_SUR.jpg""]","stimuli/HF04_SC.jpg","stimuli/HM07_DO.jpg","stimuli/AF02_CC.jpg","stimuli/AM06_SUR.jpg","pos3","stimuli/AF02_CC.jpg","CC","AF02","2","3","6","8","stimuli/stars_6.png","114","[""SC"",""DO"",""CC"",""SUR""]","[""HF04"",""HM07"",""AF02"",""AM06""]","[5,8,6,1]","[4,6,8,2]","","",""
"show-reward","82","240832","0.0-82.0","p423806","AVD6HMIO1HLFI","3RZS0FBRWLGDTA9TUPH81F59AWHPC0","34YB12FSQ0UNC3QFUXQ0ZMRIMW0MG6","model","mismatch","uniform","","","","","","","","240791","242796","","","","","","","","","","","","6","","stimuli/stars_6.png","114","","","","","stimuli/AF02_CC.jpg","",""
"explore-choice","83","243031","0.0-83.0","p423806","AVD6HMIO1HLFI","3RZS0FBRWLGDTA9TUPH81F59AWHPC0","34YB12FSQ0UNC3QFUXQ0ZMRIMW0MG6","model","mismatch","uniform","","","","","","","1686","242796","244482","[""stimuli/HM07_DO.jpg"",""stimuli/HF04_CC.jpg"",""stimuli/AM06_SC.jpg"",""stimuli/AF02_SUR.jpg""]","stimuli/HM07_DO.jpg","stimuli/HF04_CC.jpg","stimuli/AM06_SC.jpg","stimuli/AF02_SUR.jpg","pos4","stimuli/AF02_SUR.jpg","SUR","AF02","3","5","10","8","stimuli/stars_10.png","119","[""DO"",""CC"",""SC"",""SUR""]","[""HM07"",""HF04"",""AM06"",""AF02""]","[4,2,4,10]","[6,4,2,8]","","",""
"show-reward","84","245034","0.0-84.0","p423806","AVD6HMIO1HLFI","3RZS0FBRWLGDTA9TUPH81F59AWHPC0","34YB12FSQ0UNC3QFUXQ0ZMRIMW0MG6","model","mismatch","uniform","","","","","","","","244996","246998","","","","","","","","","","","","10","","stimuli/stars_10.png","119","","","","","stimuli/AF02_SUR.jpg","",""
"explore-choice","85","247442","0.0-85.0","p423806","AVD6HMIO1HLFI","3RZS0FBRWLGDTA9TUPH81F59AWHPC0","34YB12FSQ0UNC3QFUXQ0ZMRIMW0MG6","model","mismatch","uniform","","","","","","","1896","246998","248894","[""stimuli/HF04_CC.jpg"",""stimuli/AM06_SUR.jpg"",""stimuli/AF02_SC.jpg"",""stimuli/HM07_DO.jpg""]","stimuli/HF04_CC.jpg","stimuli/AM06_SUR.jpg","stimuli/AF02_SC.jpg","stimuli/HM07_DO.jpg","pos3","stimuli/AF02_SC.jpg","SC","AF02","2","5","10","8","stimuli/stars_10.png","124","[""CC"",""SUR"",""SC"",""DO""]","[""HF04"",""AM06"",""AF02"",""HM07""]","[5,3,10,8]","[4,2,8,6]","","",""
"show-reward","86","249457","0.0-86.0","p423806","AVD6HMIO1HLFI","3RZS0FBRWLGDTA9TUPH81F59AWHPC0","34YB12FSQ0UNC3QFUXQ0ZMRIMW0MG6","model","mismatch","uniform","","","","","","","","249406","251420","","","","","","","","","","","","10","","stimuli/stars_10.png","124","","","","","stimuli/AF02_SC.jpg","",""
"explore-choice","87","252223","0.0-87.0","p423806","AVD6HMIO1HLFI","3RZS0FBRWLGDTA9TUPH81F59AWHPC0","34YB12FSQ0UNC3QFUXQ0ZMRIMW0MG6","model","mismatch","uniform","","","","","","","2258","251420","253678","[""stimuli/HM07_CC.jpg"",""stimuli/AF02_DO.jpg"",""stimuli/AM06_SUR.jpg"",""stimuli/HF04_SC.jpg""]","stimuli/HM07_CC.jpg","stimuli/AF02_DO.jpg","stimuli/AM06_SUR.jpg","stimuli/HF04_SC.jpg","pos1","stimuli/HM07_CC.jpg","CC","HM07","0","2","4","6","stimuli/stars_4.png","126","[""CC"",""DO"",""SUR"",""SC""]","[""HM07"",""AF02"",""AM06"",""HF04""]","[4,6,2,4]","[6,8,2,4]","","",""
"show-reward","88","254233","0.0-88.0","p423806","AVD6HMIO1HLFI","3RZS0FBRWLGDTA9TUPH81F59AWHPC0","34YB12FSQ0UNC3QFUXQ0ZMRIMW0MG6","model","mismatch","uniform","","","","","","","","254188","256197","","","","","","","","","","","","4","","stimuli/stars_4.png","126","","","","","stimuli/HM07_CC.jpg","",""
"explore-choice","89","255449","0.0-89.0","p423806","AVD6HMIO1HLFI","3RZS0FBRWLGDTA9TUPH81F59AWHPC0","34YB12FSQ0UNC3QFUXQ0ZMRIMW0MG6","model","mismatch","uniform","","","","","","","705","256198","256903","[""stimuli/AF02_DO.jpg"",""stimuli/HM07_SUR.jpg"",""stimuli/HF04_SC.jpg"",""stimuli/AM06_CC.jpg""]","stimuli/AF02_DO.jpg","stimuli/HM07_SUR.jpg","stimuli/HF04_SC.jpg","stimuli/AM06_CC.jpg","pos1","stimuli/AF02_DO.jpg","DO","AF02","0","4.5","9","8","stimuli/stars_9.png","130.5","[""DO"",""SUR"",""SC"",""CC""]","[""AF02"",""HM07"",""HF04"",""AM06""]","[9,8,2,1]","[8,6,4,2]","","",""
"show-reward","90","257458","0.0-90.0","p423806","AVD6HMIO1HLFI","3RZS0FBRWLGDTA9TUPH81F59AWHPC0","34YB12FSQ0UNC3QFUXQ0ZMRIMW0MG6","model","mismatch","uniform","","","","","","","","257413","259422","","","","","","","","","","","","9","","stimuli/stars_9.png","130.5","","","","","stimuli/AF02_DO.jpg","",""
"explore-choice","91","259376","0.0-91.0","p423806","AVD6HMIO1HLFI","3RZS0FBRWLGDTA9TUPH81F59AWHPC0","34YB12FSQ0UNC3QFUXQ0ZMRIMW0MG6","model","mismatch","uniform","","","","","","","1413","259422","260835","[""stimuli/AM06_SC.jpg"",""stimuli/HM07_SUR.jpg"",""stimuli/HF04_DO.jpg"",""stimuli/AF02_CC.jpg""]","stimuli/AM06_SC.jpg","stimuli/HM07_SUR.jpg","stimuli/HF04_DO.jpg","stimuli/AF02_CC.jpg","pos4","stimuli/AF02_CC.jpg","CC","AF02","3","3","6","8","stimuli/stars_6.png","133.5","[""SC"",""SUR"",""DO"",""CC""]","[""AM06"",""HM07"",""HF04"",""AF02""]","[2,5,3,6]","[2,6,4,8]","","",""
"show-reward","92","261378","0.0-92.0","p423806","AVD6HMIO1HLFI","3RZS0FBRWLGDTA9TUPH81F59AWHPC0","34YB12FSQ0UNC3QFUXQ0ZMRIMW0MG6","model","mismatch","uniform","","","","","","","","261341","263341","","","","","","","","","","","","6","","stimuli/stars_6.png","133.5","","","","","stimuli/AF02_CC.jpg","",""
"explore-choice","93","262684","0.0-93.0","p423806","AVD6HMIO1HLFI","3RZS0FBRWLGDTA9TUPH81F59AWHPC0","34YB12FSQ0UNC3QFUXQ0ZMRIMW0MG6","model","mismatch","uniform","","","","","","","801","263342","264143","[""stimuli/AF02_SUR.jpg"",""stimuli/AM06_SC.jpg"",""stimuli/HF04_DO.jpg"",""stimuli/HM07_CC.jpg""]","stimuli/AF02_SUR.jpg","stimuli/AM06_SC.jpg","stimuli/HF04_DO.jpg","stimuli/HM07_CC.jpg","pos1","stimuli/AF02_SUR.jpg","SUR","AF02","0","3.5","7","8","stimuli/stars_7.png","137","[""SUR"",""SC"",""DO"",""CC""]","[""AF02"",""AM06"",""HF04"",""HM07""]","[7,2,5,6]","[8,2,4,6]","","",""
"show-reward","94","264692","0.0-94.0","p423806","AVD6HMIO1HLFI","3RZS0FBRWLGDTA9TUPH81F59AWHPC0","34YB12FSQ0UNC3QFUXQ0ZMRIMW0MG6","model","mismatch","uniform","","","","","","","","264648","266655","","","","","","","","","","","","7","","stimuli/stars_7.png","137","","","","","stimuli/AF02_SUR.jpg","",""
"explore-choice","95","266660","0.0-95.0","p423806","AVD6HMIO1HLFI","3RZS0FBRWLGDTA9TUPH81F59AWHPC0","34YB12FSQ0UNC3QFUXQ0ZMRIMW0MG6","model","mismatch","uniform","","","","","","","1461","266655","268116","[""stimuli/HF04_SUR.jpg"",""stimuli/HM07_CC.jpg"",""stimuli/AM06_DO.jpg"",""stimuli/AF02_SC.jpg""]","stimuli/HF04_SUR.jpg","stimuli/HM07_CC.jpg","stimuli/AM06_DO.jpg","stimuli/AF02_SC.jpg","pos4","stimuli/AF02_SC.jpg","SC","AF02","3","3","6","8","stimuli/stars_6.png","140","[""SUR"",""CC"",""DO"",""SC""]","[""HF04"",""HM07"",""AM06"",""AF02""]","[5,7,1,6]","[4,6,2,8]","","",""
"show-reward","96","268673","0.0-96.0","p423806","AVD6HMIO1HLFI","3RZS0FBRWLGDTA9TUPH81F59AWHPC0","34YB12FSQ0UNC3QFUXQ0ZMRIMW0MG6","model","mismatch","uniform","","","","","","","","268624","270636","","","","","","","","","","","","6","","stimuli/stars_6.png","140","","","","","stimuli/AF02_SC.jpg","",""
"explore-choice","97","270168","0.0-97.0","p423806","AVD6HMIO1HLFI","3RZS0FBRWLGDTA9TUPH81F59AWHPC0","34YB12FSQ0UNC3QFUXQ0ZMRIMW0MG6","model","mismatch","uniform","","","","","","","985","270636","271621","[""stimuli/AF02_DO.jpg"",""stimuli/AM06_SC.jpg"",""stimuli/HM07_SUR.jpg"",""stimuli/HF04_CC.jpg""]","stimuli/AF02_DO.jpg","stimuli/AM06_SC.jpg","stimuli/HM07_SUR.jpg","stimuli/HF04_CC.jpg","pos1","stimuli/AF02_DO.jpg","DO","AF02","0","4","8","8","stimuli/stars_8.png","144","[""DO"",""SC"",""SUR"",""CC""]","[""AF02"",""AM06"",""HM07"",""HF04""]","[8,2,5,5]","[8,2,6,4]","","",""
"show-reward","98","272180","0.0-98.0","p423806","AVD6HMIO1HLFI","3RZS0FBRWLGDTA9TUPH81F59AWHPC0","34YB12FSQ0UNC3QFUXQ0ZMRIMW0MG6","model","mismatch","uniform","","","","","","","","272133","274144","","","","","","","","","","","","8","","stimuli/stars_8.png","144","","","","","stimuli/AF02_DO.jpg","",""
"explore-choice","99","273950","0.0-99.0","p423806","AVD6HMIO1HLFI","3RZS0FBRWLGDTA9TUPH81F59AWHPC0","34YB12FSQ0UNC3QFUXQ0ZMRIMW0MG6","model","mismatch","uniform","","","","","","","1257","274145","275402","[""stimuli/AM06_SUR.jpg"",""stimuli/AF02_CC.jpg"",""stimuli/HF04_DO.jpg"",""stimuli/HM07_SC.jpg""]","stimuli/AM06_SUR.jpg","stimuli/AF02_CC.jpg","stimuli/HF04_DO.jpg","stimuli/HM07_SC.jpg","pos2","stimuli/AF02_CC.jpg","CC","AF02","1","3","6","8","stimuli/stars_6.png","147","[""SUR"",""CC"",""DO"",""SC""]","[""AM06"",""AF02"",""HF04"",""HM07""]","[4,6,3,5]","[2,8,4,6]","","",""
"show-reward","100","275965","0.0-100.0","p423806","AVD6HMIO1HLFI","3RZS0FBRWLGDTA9TUPH81F59AWHPC0","34YB12FSQ0UNC3QFUXQ0ZMRIMW0MG6","model","mismatch","uniform","","","","","","","","275915","277929","","","","","","","","","","","","6","","stimuli/stars_6.png","147","","","","","stimuli/AF02_CC.jpg","",""
"explore-choice","101","277847","0.0-101.0","p423806","AVD6HMIO1HLFI","3RZS0FBRWLGDTA9TUPH81F59AWHPC0","34YB12FSQ0UNC3QFUXQ0ZMRIMW0MG6","model","mismatch","uniform","","","","","","","1367","277930","279297","[""stimuli/AF02_SC.jpg"",""stimuli/HM07_SUR.jpg"",""stimuli/AM06_CC.jpg"",""stimuli/HF04_DO.jpg""]","stimuli/AF02_SC.jpg","stimuli/HM07_SUR.jpg","stimuli/AM06_CC.jpg","stimuli/HF04_DO.jpg","pos1","stimuli/AF02_SC.jpg","SC","AF02","0","3.5","7","8","stimuli/stars_7.png","150.5","[""SC"",""SUR"",""CC"",""DO""]","[""AF02"",""HM07"",""AM06"",""HF04""]","[7,7,0,3]","[8,6,2,4]","","",""
"show-reward","102","279859","0.0-102.0","p423806","AVD6HMIO1HLFI","3RZS0FBRWLGDTA9TUPH81F59AWHPC0","34YB12FSQ0UNC3QFUXQ0ZMRIMW0MG6","model","mismatch","uniform","","","","","","","","279811","281822","","","","","","","","","","","","7","","stimuli/stars_7.png","150.5","","","","","stimuli/AF02_SC.jpg","",""
"explore-choice","103","284503","0.0-103.0","p423806","AVD6HMIO1HLFI","3RZS0FBRWLGDTA9TUPH81F59AWHPC0","34YB12FSQ0UNC3QFUXQ0ZMRIMW0MG6","model","mismatch","uniform","","","","","","","4131","281823","285954","[""stimuli/WM07_HE.jpg"",""stimuli/AM05_HO.jpg"",""stimuli/HM02_FO.jpg"",""stimuli/WF14_AO.jpg""]","stimuli/WM07_HE.jpg","stimuli/AM05_HO.jpg","stimuli/HM02_FO.jpg","stimuli/WF14_AO.jpg","pos2","stimuli/AM05_HO.jpg","HO","AM05","1","2.5","5","4","stimuli/stars_5.png","153","[""HE"",""HO"",""FO"",""AO""]","[""WM07"",""AM05"",""HM02"",""WF14""]","[6,5,6,4]","[8,4,6,2]","","",""
"show-reward","104","286504","0.0-104.0","p423806","AVD6HMIO1HLFI","3RZS0FBRWLGDTA9TUPH81F59AWHPC0","34YB12FSQ0UNC3QFUXQ0ZMRIMW0MG6","model","mismatch","uniform","","","","","","","","286467","288468","","","","","","","","","","","","5","","stimuli/stars_5.png","153","","","","","stimuli/AM05_HO.jpg","",""
"explore-choice","105","288565","0.0-105.0","p423806","AVD6HMIO1HLFI","3RZS0FBRWLGDTA9TUPH81F59AWHPC0","34YB12FSQ0UNC3QFUXQ0ZMRIMW0MG6","model","mismatch","uniform","","","","","","","1547","288468","290015","[""stimuli/WM07_HE.jpg"",""stimuli/AM05_AO.jpg"",""stimuli/WF14_HO.jpg"",""stimuli/HM02_FO.jpg""]","stimuli/WM07_HE.jpg","stimuli/AM05_AO.jpg","stimuli/WF14_HO.jpg","stimuli/HM02_FO.jpg","pos1","stimuli/WM07_HE.jpg","HE","WM07","0","5","10","8","stimuli/stars_10.png","158","[""HE"",""AO"",""HO"",""FO""]","[""WM07"",""AM05"",""WF14"",""HM02""]","[10,3,2,5]","[8,2,4,6]","","",""
"show-reward","106","290574","0.0-106.0","p423806","AVD6HMIO1HLFI","3RZS0FBRWLGDTA9TUPH81F59AWHPC0","34YB12FSQ0UNC3QFUXQ0ZMRIMW0MG6","model","mismatch","uniform","","","","","","","","290529","292538","","","","","","","","","","","","10","","stimuli/stars_10.png","158","","","","","stimuli/WM07_HE.jpg","",""
"explore-choice","107","292675","0.0-107.0","p423806","AVD6HMIO1HLFI","3RZS0FBRWLGDTA9TUPH81F59AWHPC0","34YB12FSQ0UNC3QFUXQ0ZMRIMW0MG6","model","mismatch","uniform","","","","","","","1594","292538","294132","[""stimuli/AM05_HO.jpg"",""stimuli/WF14_HE.jpg"",""stimuli/WM07_AO.jpg"",""stimuli/HM02_FO.jpg""]","stimuli/AM05_HO.jpg","stimuli/WF14_HE.jpg","stimuli/WM07_AO.jpg","stimuli/HM02_FO.jpg","pos3","stimuli/WM07_AO.jpg","AO","WM07","2","0","0","2","stimuli/stars_0.png","158","[""HO"",""HE"",""AO"",""FO""]","[""AM05"",""WF14"",""WM07"",""HM02""]","[6,6,0,7]","[4,8,2,6]","","",""
"show-reward","108","294677","0.0-108.0","p423806","AVD6HMIO1HLFI","3RZS0FBRWLGDTA9TUPH81F59AWHPC0","34YB12FSQ0UNC3QFUXQ0ZMRIMW0MG6","model","mismatch","uniform","","","","","","","","294639","296640","","","","","","","","","","","","0","","stimuli/stars_0.png","158","","","","","stimuli/WM07_AO.jpg","",""
"explore-choice","109","296177","0.0-109.0","p423806","AVD6HMIO1HLFI","3RZS0FBRWLGDTA9TUPH81F59AWHPC0","34YB12FSQ0UNC3QFUXQ0ZMRIMW0MG6","model","mismatch","uniform","","","","","","","989","296641","297630","[""stimuli/HM02_AO.jpg"",""stimuli/WM07_HE.jpg"",""stimuli/WF14_HO.jpg"",""stimuli/AM05_FO.jpg""]","stimuli/HM02_AO.jpg","stimuli/WM07_HE.jpg","stimuli/WF14_HO.jpg","stimuli/AM05_FO.jpg","pos2","stimuli/WM07_HE.jpg","HE","WM07","1","3.5","7","8","stimuli/stars_7.png","161.5","[""AO"",""HE"",""HO"",""FO""]","[""HM02"",""WM07"",""WF14"",""AM05""]","[0,7,4,8]","[2,8,4,6]","","",""
"show-reward","110","298189","0.0-110.0","p423806","AVD6HMIO1HLFI","3RZS0FBRWLGDTA9TUPH81F59AWHPC0","34YB12FSQ0UNC3QFUXQ0ZMRIMW0MG6","model","mismatch","uniform","","","","","","","","298141","300153","","","","","","","","","","","","7","","stimuli/stars_7.png","161.5","","","","","stimuli/WM07_HE.jpg","",""
"explore-choice","111","300165","0.0-111.0","p423806","AVD6HMIO1HLFI","3RZS0FBRWLGDTA9TUPH81F59AWHPC0","34YB12FSQ0UNC3QFUXQ0ZMRIMW0MG6","model","mismatch","uniform","","","","","","","1467","300153","301620","[""stimuli/HM02_AO.jpg"",""stimuli/WF14_HE.jpg"",""stimuli/AM05_HO.jpg"",""stimuli/WM07_FO.jpg""]","stimuli/HM02_AO.jpg","stimuli/WF14_HE.jpg","stimuli/AM05_HO.jpg","stimuli/WM07_FO.jpg","pos4","stimuli/WM07_FO.jpg","FO","WM07","3","4","8","6","stimuli/stars_8.png","165.5","[""AO"",""HE"",""HO"",""FO""]","[""HM02"",""WF14"",""AM05"",""WM07""]","[0,6,3,8]","[2,8,4,6]","","",""
"show-reward","112","302175","0.0-112.0","p423806","AVD6HMIO1HLFI","3RZS0FBRWLGDTA9TUPH81F59AWHPC0","34YB12FSQ0UNC3QFUXQ0ZMRIMW0MG6","model","mismatch","uniform","","","","","","","","302128","304138","","","","","","","","","","","","8","","stimuli/stars_8.png","165.5","","","","","stimuli/WM07_FO.jpg","",""
"explore-choice","113","303863","0.0-113.0","p423806","AVD6HMIO1HLFI","3RZS0FBRWLGDTA9TUPH81F59AWHPC0","34YB12FSQ0UNC3QFUXQ0ZMRIMW0MG6","model","mismatch","uniform","","","","","","","1186","304139","305325","[""stimuli/WF14_HO.jpg"",""stimuli/HM02_FO.jpg"",""stimuli/WM07_AO.jpg"",""stimuli/AM05_HE.jpg""]","stimuli/WF14_HO.jpg","stimuli/HM02_FO.jpg","stimuli/WM07_AO.jpg","stimuli/AM05_HE.jpg","pos3","stimuli/WM07_AO.jpg","AO","WM07","2","1.5","3","2","stimuli/stars_3.png","167","[""HO"",""FO"",""AO"",""HE""]","[""WF14"",""HM02"",""WM07"",""AM05""]","[3,5,3,8]","[4,6,2,8]","","",""
"show-reward","114","305870","0.0-114.0","p423806","AVD6HMIO1HLFI","3RZS0FBRWLGDTA9TUPH81F59AWHPC0","34YB12FSQ0UNC3QFUXQ0ZMRIMW0MG6","model","mismatch","uniform","","","","","","","","305827","307834","","","","","","","","","","","","3","","stimuli/stars_3.png","167","","","","","stimuli/WM07_AO.jpg","",""
"explore-choice","115","308128","0.0-115.0","p423806","AVD6HMIO1HLFI","3RZS0FBRWLGDTA9TUPH81F59AWHPC0","34YB12FSQ0UNC3QFUXQ0ZMRIMW0MG6","model","mismatch","uniform","","","","","","","1743","307834","309577","[""stimuli/WM07_FO.jpg"",""stimuli/HM02_HO.jpg"",""stimuli/AM05_AO.jpg"",""stimuli/WF14_HE.jpg""]","stimuli/WM07_FO.jpg","stimuli/HM02_HO.jpg","stimuli/AM05_AO.jpg","stimuli/WF14_HE.jpg","pos1","stimuli/WM07_FO.jpg","FO","WM07","0","4","8","6","stimuli/stars_8.png","171","[""FO"",""HO"",""AO"",""HE""]","[""WM07"",""HM02"",""AM05"",""WF14""]","[8,4,3,8]","[6,4,2,8]","","",""
"show-reward","116","310129","0.0-116.0","p423806","AVD6HMIO1HLFI","3RZS0FBRWLGDTA9TUPH81F59AWHPC0","34YB12FSQ0UNC3QFUXQ0ZMRIMW0MG6","model","mismatch","uniform","","","","","","","","310092","312093","","","","","","","","","","","","8","","stimuli/stars_8.png","171","","","","","stimuli/WM07_FO.jpg","",""
"explore-choice","117","312112","0.0-117.0","p423806","AVD6HMIO1HLFI","3RZS0FBRWLGDTA9TUPH81F59AWHPC0","34YB12FSQ0UNC3QFUXQ0ZMRIMW0MG6","model","mismatch","uniform","","","","","","","1478","312093","313571","[""stimuli/HM02_HO.jpg"",""stimuli/WM07_HE.jpg"",""stimuli/AM05_AO.jpg"",""stimuli/WF14_FO.jpg""]","stimuli/HM02_HO.jpg","stimuli/WM07_HE.jpg","stimuli/AM05_AO.jpg","stimuli/WF14_FO.jpg","pos2","stimuli/WM07_HE.jpg","HE","WM07","1","5","10","8","stimuli/stars_10.png","176","[""HO"",""HE"",""AO"",""FO""]","[""HM02"",""WM07"",""AM05"",""WF14""]","[3,10,0,8]","[4,8,2,6]","","",""
"show-reward","118","314114","0.0-118.0","p423806","AVD6HMIO1HLFI","3RZS0FBRWLGDTA9TUPH81F59AWHPC0","34YB12FSQ0UNC3QFUXQ0ZMRIMW0MG6","model","mismatch","uniform","","","","","","","","314077","316078","","","","","","","","","","","","10","","stimuli/stars_10.png","176","","","","","stimuli/WM07_HE.jpg","",""
"explore-choice","119","317157","0.0-119.0","p423806","AVD6HMIO1HLFI","3RZS0FBRWLGDTA9TUPH81F59AWHPC0","34YB12FSQ0UNC3QFUXQ0ZMRIMW0MG6","model","mismatch","uniform","","","","","","","2529","316078","318607","[""stimuli/WM07_AO.jpg"",""stimuli/HM02_HE.jpg"",""stimuli/WF14_FO.jpg"",""stimuli/AM05_HO.jpg""]","stimuli/WM07_AO.jpg","stimuli/HM02_HE.jpg","stimuli/WF14_FO.jpg","stimuli/AM05_HO.jpg","pos1","stimuli/WM07_AO.jpg","AO","WM07","0","1","2","2","stimuli/stars_2.png","177","[""AO"",""HE"",""FO"",""HO""]","[""WM07"",""HM02"",""WF14"",""AM05""]","[2,6,7,6]","[2,8,6,4]","","",""
"show-reward","120","319161","0.0-120.0","p423806","AVD6HMIO1HLFI","3RZS0FBRWLGDTA9TUPH81F59AWHPC0","34YB12FSQ0UNC3QFUXQ0ZMRIMW0MG6","model","mismatch","uniform","","","","","","","","319121","321125","","","","","","","","","","","","2","","stimuli/stars_2.png","177","","","","","stimuli/WM07_AO.jpg","",""
"explore-choice","121","320577","0.0-121.0","p423806","AVD6HMIO1HLFI","3RZS0FBRWLGDTA9TUPH81F59AWHPC0","34YB12FSQ0UNC3QFUXQ0ZMRIMW0MG6","model","mismatch","uniform","","","","","","","900","321126","322026","[""stimuli/WM07_HO.jpg"",""stimuli/HM02_AO.jpg"",""stimuli/WF14_FO.jpg"",""stimuli/AM05_HE.jpg""]","stimuli/WM07_HO.jpg","stimuli/HM02_AO.jpg","stimuli/WF14_FO.jpg","stimuli/AM05_HE.jpg","pos1","stimuli/WM07_HO.jpg","HO","WM07","0","2","4","4","stimuli/stars_4.png","179","[""HO"",""AO"",""FO"",""HE""]","[""WM07"",""HM02"",""WF14"",""AM05""]","[4,0,6,7]","[4,2,6,8]","","",""
"show-reward","122","322592","0.0-122.0","p423806","AVD6HMIO1HLFI","3RZS0FBRWLGDTA9TUPH81F59AWHPC0","34YB12FSQ0UNC3QFUXQ0ZMRIMW0MG6","model","mismatch","uniform","","","","","","","","322541","324555","","","","","","","","","","","","4","","stimuli/stars_4.png","179","","","","","stimuli/WM07_HO.jpg","",""
"explore-choice","123","325363","0.0-123.0","p423806","AVD6HMIO1HLFI","3RZS0FBRWLGDTA9TUPH81F59AWHPC0","34YB12FSQ0UNC3QFUXQ0ZMRIMW0MG6","model","mismatch","uniform","","","","","","","2257","324556","326813","[""stimuli/WF14_AO.jpg"",""stimuli/WM07_HO.jpg"",""stimuli/HM02_FO.jpg"",""stimuli/AM05_HE.jpg""]","stimuli/WF14_AO.jpg","stimuli/WM07_HO.jpg","stimuli/HM02_FO.jpg","stimuli/AM05_HE.jpg","pos3","stimuli/HM02_FO.jpg","FO","HM02","2","3.5","7","6","stimuli/stars_7.png","182.5","[""AO"",""HO"",""FO"",""HE""]","[""WF14"",""WM07"",""HM02"",""AM05""]","[4,5,7,9]","[2,4,6,8]","","",""
"show-reward","124","327379","0.0-124.0","p423806","AVD6HMIO1HLFI","3RZS0FBRWLGDTA9TUPH81F59AWHPC0","34YB12FSQ0UNC3QFUXQ0ZMRIMW0MG6","model","mismatch","uniform","","","","","","","","327327","329343","","","","","","","","","","","","7","","stimuli/stars_7.png","182.5","","","","","stimuli/HM02_FO.jpg","",""
"explore-choice","125","329045","0.0-125.0","p423806","AVD6HMIO1HLFI","3RZS0FBRWLGDTA9TUPH81F59AWHPC0","34YB12FSQ0UNC3QFUXQ0ZMRIMW0MG6","model","mismatch","uniform","","","","","","","1154","329343","330497","[""stimuli/AM05_AO.jpg"",""stimuli/WM07_HO.jpg"",""stimuli/HM02_HE.jpg"",""stimuli/WF14_FO.jpg""]","stimuli/AM05_AO.jpg","stimuli/WM07_HO.jpg","stimuli/HM02_HE.jpg","stimuli/WF14_FO.jpg","pos3","stimuli/HM02_HE.jpg","HE","HM02","2","5","10","8","stimuli/stars_10.png","187.5","[""AO"",""HO"",""HE"",""FO""]","[""AM05"",""WM07"",""HM02"",""WF14""]","[2,4,10,7]","[2,4,8,6]","","",""
"show-reward","126","331046","0.0-126.0","p423806","AVD6HMIO1HLFI","3RZS0FBRWLGDTA9TUPH81F59AWHPC0","34YB12FSQ0UNC3QFUXQ0ZMRIMW0MG6","model","mismatch","uniform","","","","","","","","331008","333010","","","","","","","","","","","","10","","stimuli/stars_10.png","187.5","","","","","stimuli/HM02_HE.jpg","",""
"explore-choice","127","332608","0.0-127.0","p423806","AVD6HMIO1HLFI","3RZS0FBRWLGDTA9TUPH81F59AWHPC0","34YB12FSQ0UNC3QFUXQ0ZMRIMW0MG6","model","mismatch","uniform","","","","","","","1057","333010","334067","[""stimuli/WF14_HO.jpg"",""stimuli/AM05_FO.jpg"",""stimuli/WM07_AO.jpg"",""stimuli/HM02_HE.jpg""]","stimuli/WF14_HO.jpg","stimuli/AM05_FO.jpg","stimuli/WM07_AO.jpg","stimuli/HM02_HE.jpg","pos4","stimuli/HM02_HE.jpg","HE","HM02","3","4.5","9","8","stimuli/stars_9.png","192","[""HO"",""FO"",""AO"",""HE""]","[""WF14"",""AM05"",""WM07"",""HM02""]","[3,8,3,9]","[4,6,2,8]","","",""
"show-reward","128","334614","0.0-128.0","p423806","AVD6HMIO1HLFI","3RZS0FBRWLGDTA9TUPH81F59AWHPC0","34YB12FSQ0UNC3QFUXQ0ZMRIMW0MG6","model","mismatch","uniform","","","","","","","","334573","336578","","","","","","","","","","","","9","","stimuli/stars_9.png","192","","","","","stimuli/HM02_HE.jpg","",""
"explore-choice","129","336865","0.0-129.0","p423806","AVD6HMIO1HLFI","3RZS0FBRWLGDTA9TUPH81F59AWHPC0","34YB12FSQ0UNC3QFUXQ0ZMRIMW0MG6","model","mismatch","uniform","","","","","","","1736","336578","338314","[""stimuli/WM07_HO.jpg"",""stimuli/HM02_FO.jpg"",""stimuli/WF14_HE.jpg"",""stimuli/AM05_AO.jpg""]","stimuli/WM07_HO.jpg","stimuli/HM02_FO.jpg","stimuli/WF14_HE.jpg","stimuli/AM05_AO.jpg","pos2","stimuli/HM02_FO.jpg","FO","HM02","1","2.5","5","6","stimuli/stars_5.png","194.5","[""HO"",""FO"",""HE"",""AO""]","[""WM07"",""HM02"",""WF14"",""AM05""]","[6,5,9,3]","[4,6,8,2]","","",""
"show-reward","130","338879","0.0-130.0","p423806","AVD6HMIO1HLFI","3RZS0FBRWLGDTA9TUPH81F59AWHPC0","34YB12FSQ0UNC3QFUXQ0ZMRIMW0MG6","model","mismatch","uniform","","","","","","","","338829","340843","","","","","","","","","","","","5","","stimuli/stars_5.png","194.5","","","","","stimuli/HM02_FO.jpg","",""
"explore-choice","131","341049","0.0-131.0","p423806","AVD6HMIO1HLFI","3RZS0FBRWLGDTA9TUPH81F59AWHPC0","34YB12FSQ0UNC3QFUXQ0ZMRIMW0MG6","model","mismatch","uniform","","","","","","","1665","340843","342508","[""stimuli/WF14_FO.jpg"",""stimuli/HM02_AO.jpg"",""stimuli/WM07_HE.jpg"",""stimuli/AM05_HO.jpg""]","stimuli/WF14_FO.jpg","stimuli/HM02_AO.jpg","stimuli/WM07_HE.jpg","stimuli/AM05_HO.jpg","pos3","stimuli/WM07_HE.jpg","HE","WM07","2","4.5","9","8","stimuli/stars_9.png","199","[""FO"",""AO"",""HE"",""HO""]","[""WF14"",""HM02"",""WM07"",""AM05""]","[4,3,9,2]","[6,2,8,4]","","",""
"show-reward","132","343051","0.0-132.0","p423806","AVD6HMIO1HLFI","3RZS0FBRWLGDTA9TUPH81F59AWHPC0","34YB12FSQ0UNC3QFUXQ0ZMRIMW0MG6","model","mismatch","uniform","","","","","","","","343013","345015","","","","","","","","","","","","9","","stimuli/stars_9.png","199","","","","","stimuli/WM07_HE.jpg","",""
"explore-choice","133","345908","0.0-133.0","p423806","AVD6HMIO1HLFI","3RZS0FBRWLGDTA9TUPH81F59AWHPC0","34YB12FSQ0UNC3QFUXQ0ZMRIMW0MG6","model","mismatch","uniform","","","","","","","2353","345015","347368","[""stimuli/HM02_HO.jpg"",""stimuli/WM07_FO.jpg"",""stimuli/WF14_AO.jpg"",""stimuli/AM05_HE.jpg""]","stimuli/HM02_HO.jpg","stimuli/WM07_FO.jpg","stimuli/WF14_AO.jpg","stimuli/AM05_HE.jpg","pos1","stimuli/HM02_HO.jpg","HO","HM02","0","2.5","5","4","stimuli/stars_5.png","201.5","[""HO"",""FO"",""AO"",""HE""]","[""HM02"",""WM07"",""WF14"",""AM05""]","[5,7,2,10]","[4,6,2,8]","","",""
"show-reward","134","347910","0.0-134.0","p423806","AVD6HMIO1HLFI","3RZS0FBRWLGDTA9TUPH81F59AWHPC0","34YB12FSQ0UNC3QFUXQ0ZMRIMW0MG6","model","mismatch","uniform","","","","","","","","347873","349875","","","","","","","","","","","","5","","stimuli/stars_5.png","201.5","","","","","stimuli/HM02_HO.jpg","",""
"explore-choice","135","350673","0.0-135.0","p423806","AVD6HMIO1HLFI","3RZS0FBRWLGDTA9TUPH81F59AWHPC0","34YB12FSQ0UNC3QFUXQ0ZMRIMW0MG6","model","mismatch","uniform","","","","","","","2249","349875","352124","[""stimuli/WM07_FO.jpg"",""stimuli/AM05_AO.jpg"",""stimuli/WF14_HO.jpg"",""stimuli/HM02_HE.jpg""]","stimuli/WM07_FO.jpg","stimuli/AM05_AO.jpg","stimuli/WF14_HO.jpg","stimuli/HM02_HE.jpg","pos3","stimuli/WF14_HO.jpg","HO","WF14","2","1.5","3","4","stimuli/stars_3.png","203","[""FO"",""AO"",""HO"",""HE""]","[""WM07"",""AM05"",""WF14"",""HM02""]","[7,4,3,7]","[6,2,4,8]","","",""
"show-reward","136","352688","0.0-136.0","p423806","AVD6HMIO1HLFI","3RZS0FBRWLGDTA9TUPH81F59AWHPC0","34YB12FSQ0UNC3QFUXQ0ZMRIMW0MG6","model","mismatch","uniform","","","","","","","","352637","354652","","","","","","","","","","","","3","","stimuli/stars_3.png","203","","","","","stimuli/WF14_HO.jpg","",""
"explore-choice","137","356246","0.0-137.0","p423806","AVD6HMIO1HLFI","3RZS0FBRWLGDTA9TUPH81F59AWHPC0","34YB12FSQ0UNC3QFUXQ0ZMRIMW0MG6","model","mismatch","uniform","","","","","","","3054","354652","357706","[""stimuli/WF14_AO.jpg"",""stimuli/HM02_HE.jpg"",""stimuli/WM07_FO.jpg"",""stimuli/AM05_HO.jpg""]","stimuli/WF14_AO.jpg","stimuli/HM02_HE.jpg","stimuli/WM07_FO.jpg","stimuli/AM05_HO.jpg","pos2","stimuli/HM02_HE.jpg","HE","HM02","1","5","10","8","stimuli/stars_10.png","208","[""AO"",""HE"",""FO"",""HO""]","[""WF14"",""HM02"",""WM07"",""AM05""]","[0,10,5,2]","[2,8,6,4]","","",""
"show-reward","138","358252","0.0-138.0","p423806","AVD6HMIO1HLFI","3RZS0FBRWLGDTA9TUPH81F59AWHPC0","34YB12FSQ0UNC3QFUXQ0ZMRIMW0MG6","model","mismatch","uniform","","","","","","","","358210","360216","","","","","","","","","","","","10","","stimuli/stars_10.png","208","","","","","stimuli/HM02_HE.jpg","",""
"explore-choice","139","361182","0.0-139.0","p423806","AVD6HMIO1HLFI","3RZS0FBRWLGDTA9TUPH81F59AWHPC0","34YB12FSQ0UNC3QFUXQ0ZMRIMW0MG6","model","mismatch","uniform","","","","","","","2422","360217","362639","[""stimuli/HM02_HO.jpg"",""stimuli/WF14_AO.jpg"",""stimuli/WM07_HE.jpg"",""stimuli/AM05_FO.jpg""]","stimuli/HM02_HO.jpg","stimuli/WF14_AO.jpg","stimuli/WM07_HE.jpg","stimuli/AM05_FO.jpg","pos3","stimuli/WM07_HE.jpg","HE","WM07","2","4","8","8","stimuli/stars_8.png","212","[""HO"",""AO"",""HE"",""FO""]","[""HM02"",""WF14"",""WM07"",""AM05""]","[3,3,8,6]","[4,2,8,6]","","",""
"show-reward","140","363191","0.0-140.0","p423806","AVD6HMIO1HLFI","3RZS0FBRWLGDTA9TUPH81F59AWHPC0","34YB12FSQ0UNC3QFUXQ0ZMRIMW0MG6","model","mismatch","uniform","","","","","","","","363147","365154","","","","","","","","","","","","8","","stimuli/stars_8.png","212","","","","","stimuli/WM07_HE.jpg","",""
"explore-choice","141","365005","0.0-141.0","p423806","AVD6HMIO1HLFI","3RZS0FBRWLGDTA9TUPH81F59AWHPC0","34YB12FSQ0UNC3QFUXQ0ZMRIMW0MG6","model","mismatch","uniform","","","","","","","1312","365155","366467","[""stimuli/WM07_FO.jpg"",""stimuli/AM05_HE.jpg"",""stimuli/HM02_AO.jpg"",""stimuli/WF14_HO.jpg""]","stimuli/WM07_FO.jpg","stimuli/AM05_HE.jpg","stimuli/HM02_AO.jpg","stimuli/WF14_HO.jpg","pos3","stimuli/HM02_AO.jpg","AO","HM02","2","0","0","2","stimuli/stars_0.png","212","[""FO"",""HE"",""AO"",""HO""]","[""WM07"",""AM05"",""HM02"",""WF14""]","[4,9,0,5]","[6,8,2,4]","","",""
"show-reward","142","367016","0.0-142.0","p423806","AVD6HMIO1HLFI","3RZS0FBRWLGDTA9TUPH81F59AWHPC0","34YB12FSQ0UNC3QFUXQ0ZMRIMW0MG6","model","mismatch","uniform","","","","","","","","366969","368980","","","","","","","","","","","","0","","stimuli/stars_0.png","212","","","","","stimuli/HM02_AO.jpg","",""
"explore-choice","143","369342","0.0-143.0","p423806","AVD6HMIO1HLFI","3RZS0FBRWLGDTA9TUPH81F59AWHPC0","34YB12FSQ0UNC3QFUXQ0ZMRIMW0MG6","model","mismatch","uniform","","","","","","","1824","368980","370804","[""stimuli/AM05_HE.jpg"",""stimuli/HM02_HO.jpg"",""stimuli/WM07_AO.jpg"",""stimuli/WF14_FO.jpg""]","stimuli/AM05_HE.jpg","stimuli/HM02_HO.jpg","stimuli/WM07_AO.jpg","stimuli/WF14_FO.jpg","pos2","stimuli/HM02_HO.jpg","HO","HM02","1","1.5","3","4","stimuli/stars_3.png","213.5","[""HE"",""HO"",""AO"",""FO""]","[""AM05"",""HM02"",""WM07"",""WF14""]","[7,3,3,5]","[8,4,2,6]","","",""
"show-reward","144","371347","0.0-144.0","p423806","AVD6HMIO1HLFI","3RZS0FBRWLGDTA9TUPH81F59AWHPC0","34YB12FSQ0UNC3QFUXQ0ZMRIMW0MG6","model","mismatch","uniform","","","","","","","","371307","373312","","","","","","","","","","","","3","","stimuli/stars_3.png","213.5","","","","","stimuli/HM02_HO.jpg","",""
"explore-choice","145","373926","0.0-145.0","p423806","AVD6HMIO1HLFI","3RZS0FBRWLGDTA9TUPH81F59AWHPC0","34YB12FSQ0UNC3QFUXQ0ZMRIMW0MG6","model","mismatch","uniform","","","","","","","2071","373312","375383","[""stimuli/WF14_HE.jpg"",""stimuli/HM02_HO.jpg"",""stimuli/WM07_AO.jpg"",""stimuli/AM05_FO.jpg""]","stimuli/WF14_HE.jpg","stimuli/HM02_HO.jpg","stimuli/WM07_AO.jpg","stimuli/AM05_FO.jpg","pos2","stimuli/HM02_HO.jpg","HO","HM02","1","1","2","4","stimuli/stars_2.png","214.5","[""HE"",""HO"",""AO"",""FO""]","[""WF14"",""HM02"",""WM07"",""AM05""]","[10,2,3,4]","[8,4,2,6]","","",""
"show-reward","146","375936","0.0-146.0","p423806","AVD6HMIO1HLFI","3RZS0FBRWLGDTA9TUPH81F59AWHPC0","34YB12FSQ0UNC3QFUXQ0ZMRIMW0MG6","model","mismatch","uniform","","","","","","","","375891","377900","","","","","","","","","","","","2","","stimuli/stars_2.png","214.5","","","","","stimuli/HM02_HO.jpg","",""
"explore-choice","147","379288","0.0-147.0","p423806","AVD6HMIO1HLFI","3RZS0FBRWLGDTA9TUPH81F59AWHPC0","34YB12FSQ0UNC3QFUXQ0ZMRIMW0MG6","model","mismatch","uniform","","","","","","","2848","377900","380748","[""stimuli/HM02_AO.jpg"",""stimuli/AM05_FO.jpg"",""stimuli/WF14_HE.jpg"",""stimuli/WM07_HO.jpg""]","stimuli/HM02_AO.jpg","stimuli/AM05_FO.jpg","stimuli/WF14_HE.jpg","stimuli/WM07_HO.jpg","pos4","stimuli/WM07_HO.jpg","HO","WM07","3","2.5","5","4","stimuli/stars_5.png","217","[""AO"",""FO"",""HE"",""HO""]","[""HM02"",""AM05"",""WF14"",""WM07""]","[1,6,9,5]","[2,6,8,4]","","",""
"show-reward","148","381295","0.0-148.0","p423806","AVD6HMIO1HLFI","3RZS0FBRWLGDTA9TUPH81F59AWHPC0","34YB12FSQ0UNC3QFUXQ0ZMRIMW0MG6","model","mismatch","uniform","","","","","","","","381252","383258","","","","","","","","","","","","5","","stimuli/stars_5.png","217","","","","","stimuli/WM07_HO.jpg","",""
"explore-choice","149","383630","0.0-149.0","p423806","AVD6HMIO1HLFI","3RZS0FBRWLGDTA9TUPH81F59AWHPC0","34YB12FSQ0UNC3QFUXQ0ZMRIMW0MG6","model","mismatch","uniform","","","","","","","1835","383258","385093","[""stimuli/WF14_AO.jpg"",""stimuli/WM07_HO.jpg"",""stimuli/AM05_FO.jpg"",""stimuli/HM02_HE.jpg""]","stimuli/WF14_AO.jpg","stimuli/WM07_HO.jpg","stimuli/AM05_FO.jpg","stimuli/HM02_HE.jpg","pos4","stimuli/HM02_HE.jpg","HE","HM02","3","4","8","8","stimuli/stars_8.png","221","[""AO"",""HO"",""FO"",""HE""]","[""WF14"",""WM07"",""AM05"",""HM02""]","[4,6,4,8]","[2,4,6,8]","","",""
"show-reward","150","385641","0.0-150.0","p423806","AVD6HMIO1HLFI","3RZS0FBRWLGDTA9TUPH81F59AWHPC0","34YB12FSQ0UNC3QFUXQ0ZMRIMW0MG6","model","mismatch","uniform","","","","","","","","385594","387605","","","","","","","","","","","","8","","stimuli/stars_8.png","221","","","","","stimuli/HM02_HE.jpg","",""
"explore-choice","151","387372","0.0-151.0","p423806","AVD6HMIO1HLFI","3RZS0FBRWLGDTA9TUPH81F59AWHPC0","34YB12FSQ0UNC3QFUXQ0ZMRIMW0MG6","model","mismatch","uniform","","","","","","","1229","387605","388834","[""stimuli/AM05_HO.jpg"",""stimuli/HM02_HE.jpg"",""stimuli/WF14_FO.jpg"",""stimuli/WM07_AO.jpg""]","stimuli/AM05_HO.jpg","stimuli/HM02_HE.jpg","stimuli/WF14_FO.jpg","stimuli/WM07_AO.jpg","pos2","stimuli/HM02_HE.jpg","HE","HM02","1","3","6","8","stimuli/stars_6.png","224","[""HO"",""HE"",""FO"",""AO""]","[""AM05"",""HM02"",""WF14"",""WM07""]","[6,6,7,2]","[4,8,6,2]","","",""
"show-reward","152","389378","0.0-152.0","p423806","AVD6HMIO1HLFI","3RZS0FBRWLGDTA9TUPH81F59AWHPC0","34YB12FSQ0UNC3QFUXQ0ZMRIMW0MG6","model","mismatch","uniform","","","","","","","","389337","391342","","","","","","","","","","","","6","","stimuli/stars_6.png","224","","","","","stimuli/HM02_HE.jpg","",""
"explore-choice","153","391846","0.0-153.0","p423806","AVD6HMIO1HLFI","3RZS0FBRWLGDTA9TUPH81F59AWHPC0","34YB12FSQ0UNC3QFUXQ0ZMRIMW0MG6","model","mismatch","uniform","","","","","","","1957","391343","393300","[""stimuli/WF14_HO.jpg"",""stimuli/WM07_FO.jpg"",""stimuli/AM05_AO.jpg"",""stimuli/HM02_HE.jpg""]","stimuli/WF14_HO.jpg","stimuli/WM07_FO.jpg","stimuli/AM05_AO.jpg","stimuli/HM02_HE.jpg","pos4","stimuli/HM02_HE.jpg","HE","HM02","3","3.5","7","8","stimuli/stars_7.png","227.5","[""HO"",""FO"",""AO"",""HE""]","[""WF14"",""WM07"",""AM05"",""HM02""]","[3,7,4,7]","[4,6,2,8]","","",""
"show-reward","154","393848","0.0-154.0","p423806","AVD6HMIO1HLFI","3RZS0FBRWLGDTA9TUPH81F59AWHPC0","34YB12FSQ0UNC3QFUXQ0ZMRIMW0MG6","model","mismatch","uniform","","","","","","","","393810","395812","","","","","","","","","","","","7","","stimuli/stars_7.png","227.5","","","","","stimuli/HM02_HE.jpg","",""
"explore-choice","155","395765","0.0-155.0","p423806","AVD6HMIO1HLFI","3RZS0FBRWLGDTA9TUPH81F59AWHPC0","34YB12FSQ0UNC3QFUXQ0ZMRIMW0MG6","model","mismatch","uniform","","","","","","","1414","395812","397226","[""stimuli/WM07_FO.jpg"",""stimuli/HM02_HO.jpg"",""stimuli/WF14_AO.jpg"",""stimuli/AM05_HE.jpg""]","stimuli/WM07_FO.jpg","stimuli/HM02_HO.jpg","stimuli/WF14_AO.jpg","stimuli/AM05_HE.jpg","pos2","stimuli/HM02_HO.jpg","HO","HM02","1","2.5","5","4","stimuli/stars_5.png","230","[""FO"",""HO"",""AO"",""HE""]","[""WM07"",""HM02"",""WF14"",""AM05""]","[7,5,2,10]","[6,4,2,8]","","",""
"show-reward","156","397767","0.0-156.0","p423806","AVD6HMIO1HLFI","3RZS0FBRWLGDTA9TUPH81F59AWHPC0","34YB12FSQ0UNC3QFUXQ0ZMRIMW0MG6","model","mismatch","uniform","","","","","","","","397730","399731","","","","","","","","","","","","5","","stimuli/stars_5.png","230","","","","","stimuli/HM02_HO.jpg","",""
"explore-choice","157","401376","0.0-157.0","p423806","AVD6HMIO1HLFI","3RZS0FBRWLGDTA9TUPH81F59AWHPC0","34YB12FSQ0UNC3QFUXQ0ZMRIMW0MG6","model","mismatch","uniform","","","","","","","3106","399732","402838","[""stimuli/WF14_AO.jpg"",""stimuli/HM02_FO.jpg"",""stimuli/WM07_HO.jpg"",""stimuli/AM05_HE.jpg""]","stimuli/WF14_AO.jpg","stimuli/HM02_FO.jpg","stimuli/WM07_HO.jpg","stimuli/AM05_HE.jpg","pos1","stimuli/WF14_AO.jpg","AO","WF14","0","2","4","2","stimuli/stars_4.png","232","[""AO"",""FO"",""HO"",""HE""]","[""WF14"",""HM02"",""WM07"",""AM05""]","[4,7,5,9]","[2,6,4,8]","","",""
"show-reward","158","403391","0.0-158.0","p423806","AVD6HMIO1HLFI","3RZS0FBRWLGDTA9TUPH81F59AWHPC0","34YB12FSQ0UNC3QFUXQ0ZMRIMW0MG6","model","mismatch","uniform","","","","","","","","403340","405355","","","","","","","","","","","","4","","stimuli/stars_4.png","232","","","","","stimuli/WF14_AO.jpg","",""
"explore-choice","159","406363","0.0-159.0","p423806","AVD6HMIO1HLFI","3RZS0FBRWLGDTA9TUPH81F59AWHPC0","34YB12FSQ0UNC3QFUXQ0ZMRIMW0MG6","model","mismatch","uniform","","","","","","","2460","405355","407815","[""stimuli/WM07_AO.jpg"",""stimuli/HM02_HO.jpg"",""stimuli/WF14_HE.jpg"",""stimuli/AM05_FO.jpg""]","stimuli/WM07_AO.jpg","stimuli/HM02_HO.jpg","stimuli/WF14_HE.jpg","stimuli/AM05_FO.jpg","pos2","stimuli/HM02_HO.jpg","HO","HM02","1","1","2","4","stimuli/stars_2.png","233","[""AO"",""HO"",""HE"",""FO""]","[""WM07"",""HM02"",""WF14"",""AM05""]","[3,2,10,4]","[2,4,8,6]","","",""
"show-reward","160","408374","0.0-160.0","p423806","AVD6HMIO1HLFI","3RZS0FBRWLGDTA9TUPH81F59AWHPC0","34YB12FSQ0UNC3QFUXQ0ZMRIMW0MG6","model","mismatch","uniform","","","","","","","","408327","410339","","","","","","","","","","","","2","","stimuli/stars_2.png","233","","","","","stimuli/HM02_HO.jpg","",""
"explore-choice","161","410129","0.0-161.0","p423806","AVD6HMIO1HLFI","3RZS0FBRWLGDTA9TUPH81F59AWHPC0","34YB12FSQ0UNC3QFUXQ0ZMRIMW0MG6","model","mismatch","uniform","","","","","","","1241","410339","411580","[""stimuli/WM07_HE.jpg"",""stimuli/AM05_FO.jpg"",""stimuli/HM02_AO.jpg"",""stimuli/WF14_HO.jpg""]","stimuli/WM07_HE.jpg","stimuli/AM05_FO.jpg","stimuli/HM02_AO.jpg","stimuli/WF14_HO.jpg","pos1","stimuli/WM07_HE.jpg","HE","WM07","0","3.5","7","8","stimuli/stars_7.png","236.5","[""HE"",""FO"",""AO"",""HO""]","[""WM07"",""AM05"",""HM02"",""WF14""]","[7,8,0,4]","[8,6,2,4]","","",""
"show-reward","162","412138","0.0-162.0","p423806","AVD6HMIO1HLFI","3RZS0FBRWLGDTA9TUPH81F59AWHPC0","34YB12FSQ0UNC3QFUXQ0ZMRIMW0MG6","model","mismatch","uniform","","","","","","","","412093","414103","","","","","","","","","","","","7","","stimuli/stars_7.png","236.5","","","","","stimuli/WM07_HE.jpg","",""
"explore-choice","163","413893","0.0-163.0","p423806","AVD6HMIO1HLFI","3RZS0FBRWLGDTA9TUPH81F59AWHPC0","34YB12FSQ0UNC3QFUXQ0ZMRIMW0MG6","model","mismatch","uniform","","","","","","","1243","414103","415346","[""stimuli/HM02_FO.jpg"",""stimuli/AM05_AO.jpg"",""stimuli/WF14_HO.jpg"",""stimuli/WM07_HE.jpg""]","stimuli/HM02_FO.jpg","stimuli/AM05_AO.jpg","stimuli/WF14_HO.jpg","stimuli/WM07_HE.jpg","pos4","stimuli/WM07_HE.jpg","HE","WM07","3","5","10","8","stimuli/stars_10.png","241.5","[""FO"",""AO"",""HO"",""HE""]","[""HM02"",""AM05"",""WF14"",""WM07""]","[5,3,2,10]","[6,2,4,8]","","",""
"show-reward","164","415896","0.0-164.0","p423806","AVD6HMIO1HLFI","3RZS0FBRWLGDTA9TUPH81F59AWHPC0","34YB12FSQ0UNC3QFUXQ0ZMRIMW0MG6","model","mismatch","uniform","","","","","","","","415858","417860","","","","","","","","","","","","10","","stimuli/stars_10.png","241.5","","","","","stimuli/WM07_HE.jpg","",""
"explore-choice","165","417627","0.0-165.0","p423806","AVD6HMIO1HLFI","3RZS0FBRWLGDTA9TUPH81F59AWHPC0","34YB12FSQ0UNC3QFUXQ0ZMRIMW0MG6","model","mismatch","uniform","","","","","","","1225","417860","419085","[""stimuli/HM02_AO.jpg"",""stimuli/WM07_HO.jpg"",""stimuli/AM05_HE.jpg"",""stimuli/WF14_FO.jpg""]","stimuli/HM02_AO.jpg","stimuli/WM07_HO.jpg","stimuli/AM05_HE.jpg","stimuli/WF14_FO.jpg","pos2","stimuli/WM07_HO.jpg","HO","WM07","1","2","4","4","stimuli/stars_4.png","243.5","[""AO"",""HO"",""HE"",""FO""]","[""HM02"",""WM07"",""AM05"",""WF14""]","[0,4,7,6]","[2,4,8,6]","","",""
"show-reward","166","419642","0.0-166.0","p423806","AVD6HMIO1HLFI","3RZS0FBRWLGDTA9TUPH81F59AWHPC0","34YB12FSQ0UNC3QFUXQ0ZMRIMW0MG6","model","mismatch","uniform","","","","","","","","419591","421606","","","","","","","","","","","","4","","stimuli/stars_4.png","243.5","","","","","stimuli/WM07_HO.jpg","",""
"explore-choice","167","421795","0.0-167.0","p423806","AVD6HMIO1HLFI","3RZS0FBRWLGDTA9TUPH81F59AWHPC0","34YB12FSQ0UNC3QFUXQ0ZMRIMW0MG6","model","mismatch","uniform","","","","","","","1639","421606","423245","[""stimuli/AM05_HE.jpg"",""stimuli/WM07_AO.jpg"",""stimuli/WF14_FO.jpg"",""stimuli/HM02_HO.jpg""]","stimuli/AM05_HE.jpg","stimuli/WM07_AO.jpg","stimuli/WF14_FO.jpg","stimuli/HM02_HO.jpg","pos4","stimuli/HM02_HO.jpg","HO","HM02","3","1.5","3","4","stimuli/stars_3.png","245","[""HE"",""AO"",""FO"",""HO""]","[""AM05"",""WM07"",""WF14"",""HM02""]","[7,3,5,3]","[8,2,6,4]","","",""
"show-reward","168","423798","0.0-168.0","p423806","AVD6HMIO1HLFI","3RZS0FBRWLGDTA9TUPH81F59AWHPC0","34YB12FSQ0UNC3QFUXQ0ZMRIMW0MG6","model","mismatch","uniform","","","","","","","","423759","425762","","","","","","","","","","","","3","","stimuli/stars_3.png","245","","","","","stimuli/HM02_HO.jpg","",""
"explore-choice","169","426676","0.0-169.0","p423806","AVD6HMIO1HLFI","3RZS0FBRWLGDTA9TUPH81F59AWHPC0","34YB12FSQ0UNC3QFUXQ0ZMRIMW0MG6","model","mismatch","uniform","","","","","","","2376","425762","428138","[""stimuli/WF14_HE.jpg"",""stimuli/HM02_AO.jpg"",""stimuli/WM07_HO.jpg"",""stimuli/AM05_FO.jpg""]","stimuli/WF14_HE.jpg","stimuli/HM02_AO.jpg","stimuli/WM07_HO.jpg","stimuli/AM05_FO.jpg","pos4","stimuli/AM05_FO.jpg","FO","AM05","3","3","6","6","stimuli/stars_6.png","248","[""HE"",""AO"",""HO"",""FO""]","[""WF14"",""HM02"",""WM07"",""AM05""]","[9,1,5,6]","[8,2,4,6]","","",""
"show-reward","170","428689","0.0-170.0","p423806","AVD6HMIO1HLFI","3RZS0FBRWLGDTA9TUPH81F59AWHPC0","34YB12FSQ0UNC3QFUXQ0ZMRIMW0MG6","model","mismatch","uniform","","","","","","","","428640","430653","","","","","","","","","","","","6","","stimuli/stars_6.png","248","","","","","stimuli/AM05_FO.jpg","",""
"explore-choice","171","430515","0.0-171.0","p423806","AVD6HMIO1HLFI","3RZS0FBRWLGDTA9TUPH81F59AWHPC0","34YB12FSQ0UNC3QFUXQ0ZMRIMW0MG6","model","mismatch","uniform","","","","","","","1318","430654","431972","[""stimuli/WF14_AO.jpg"",""stimuli/AM05_FO.jpg"",""stimuli/WM07_HE.jpg"",""stimuli/HM02_HO.jpg""]","stimuli/WF14_AO.jpg","stimuli/AM05_FO.jpg","stimuli/WM07_HE.jpg","stimuli/HM02_HO.jpg","pos4","stimuli/HM02_HO.jpg","HO","HM02","3","1.5","3","4","stimuli/stars_3.png","249.5","[""AO"",""FO"",""HE"",""HO""]","[""WF14"",""AM05"",""WM07"",""HM02""]","[3,6,8,3]","[2,6,8,4]","","",""
"show-reward","172","432529","0.0-172.0","p423806","AVD6HMIO1HLFI","3RZS0FBRWLGDTA9TUPH81F59AWHPC0","34YB12FSQ0UNC3QFUXQ0ZMRIMW0MG6","model","mismatch","uniform","","","","","","","","432479","434493","","","","","","","","","","","","3","","stimuli/stars_3.png","249.5","","","","","stimuli/HM02_HO.jpg","",""
"explore-choice","173","434738","0.0-173.0","p423806","AVD6HMIO1HLFI","3RZS0FBRWLGDTA9TUPH81F59AWHPC0","34YB12FSQ0UNC3QFUXQ0ZMRIMW0MG6","model","mismatch","uniform","","","","","","","1700","434493","436193","[""stimuli/HM02_HE.jpg"",""stimuli/WM07_HO.jpg"",""stimuli/AM05_AO.jpg"",""stimuli/WF14_FO.jpg""]","stimuli/HM02_HE.jpg","stimuli/WM07_HO.jpg","stimuli/AM05_AO.jpg","stimuli/WF14_FO.jpg","pos4","stimuli/WF14_FO.jpg","FO","WF14","3","3.5","7","6","stimuli/stars_7.png","253","[""HE"",""HO"",""AO"",""FO""]","[""HM02"",""WM07"",""AM05"",""WF14""]","[10,4,2,7]","[8,4,2,6]","","",""
"show-reward","174","436739","0.0-174.0","p423806","AVD6HMIO1HLFI","3RZS0FBRWLGDTA9TUPH81F59AWHPC0","34YB12FSQ0UNC3QFUXQ0ZMRIMW0MG6","model","mismatch","uniform","","","","","","","","436702","438703","","","","","","","","","","","","7","","stimuli/stars_7.png","253","","","","","stimuli/WF14_FO.jpg","",""
"explore-choice","175","439643","0.0-175.0","p423806","AVD6HMIO1HLFI","3RZS0FBRWLGDTA9TUPH81F59AWHPC0","34YB12FSQ0UNC3QFUXQ0ZMRIMW0MG6","model","mismatch","uniform","","","","","","","2394","438703","441097","[""stimuli/WM07_FO.jpg"",""stimuli/AM05_AO.jpg"",""stimuli/WF14_HE.jpg"",""stimuli/HM02_HO.jpg""]","stimuli/WM07_FO.jpg","stimuli/AM05_AO.jpg","stimuli/WF14_HE.jpg","stimuli/HM02_HO.jpg","pos4","stimuli/HM02_HO.jpg","HO","HM02","3","2","4","4","stimuli/stars_4.png","255","[""FO"",""AO"",""HE"",""HO""]","[""WM07"",""AM05"",""WF14"",""HM02""]","[8,3,8,4]","[6,2,8,4]","","",""
"show-reward","176","441649","0.0-176.0","p423806","AVD6HMIO1HLFI","3RZS0FBRWLGDTA9TUPH81F59AWHPC0","34YB12FSQ0UNC3QFUXQ0ZMRIMW0MG6","model","mismatch","uniform","","","","","","","","441608","443613","","","","","","","","","","","","4","","stimuli/stars_4.png","255","","","","","stimuli/HM02_HO.jpg","",""
"explore-choice","177","445360","0.0-177.0","p423806","AVD6HMIO1HLFI","3RZS0FBRWLGDTA9TUPH81F59AWHPC0","34YB12FSQ0UNC3QFUXQ0ZMRIMW0MG6","model","mismatch","uniform","","","","","","","3209","443613","446822","[""stimuli/AM05_HE.jpg"",""stimuli/WF14_HO.jpg"",""stimuli/HM02_AO.jpg"",""stimuli/WM07_FO.jpg""]","stimuli/AM05_HE.jpg","stimuli/WF14_HO.jpg","stimuli/HM02_AO.jpg","stimuli/WM07_FO.jpg","pos2","stimuli/WF14_HO.jpg","HO","WF14","1","2.5","5","4","stimuli/stars_5.png","257.5","[""HE"",""HO"",""AO"",""FO""]","[""AM05"",""WF14"",""HM02"",""WM07""]","[9,5,0,4]","[8,4,2,6]","","",""
"show-reward","178","447361","0.0-178.0","p423806","AVD6HMIO1HLFI","3RZS0FBRWLGDTA9TUPH81F59AWHPC0","34YB12FSQ0UNC3QFUXQ0ZMRIMW0MG6","model","mismatch","uniform","","","","","","","","447325","449325","","","","","","","","","","","","5","","stimuli/stars_5.png","257.5","","","","","stimuli/WF14_HO.jpg","",""
"explore-choice","179","451392","0.0-179.0","p423806","AVD6HMIO1HLFI","3RZS0FBRWLGDTA9TUPH81F59AWHPC0","34YB12FSQ0UNC3QFUXQ0ZMRIMW0MG6","model","mismatch","uniform","","","","","","","3522","449325","452847","[""stimuli/WF14_HO.jpg"",""stimuli/HM02_HE.jpg"",""stimuli/AM05_FO.jpg"",""stimuli/WM07_AO.jpg""]","stimuli/WF14_HO.jpg","stimuli/HM02_HE.jpg","stimuli/AM05_FO.jpg","stimuli/WM07_AO.jpg","pos2","stimuli/HM02_HE.jpg","HE","HM02","1","4.5","9","8","stimuli/stars_9.png","262","[""HO"",""HE"",""FO"",""AO""]","[""WF14"",""HM02"",""AM05"",""WM07""]","[3,9,8,3]","[4,8,6,2]","","",""
"show-reward","180","453394","0.0-180.0","p423806","AVD6HMIO1HLFI","3RZS0FBRWLGDTA9TUPH81F59AWHPC0","34YB12FSQ0UNC3QFUXQ0ZMRIMW0MG6","model","mismatch","uniform","","","","","","","","453356","455357","","","","","","","","","","","","9","","stimuli/stars_9.png","262","","","","","stimuli/HM02_HE.jpg","",""
"explore-choice","181","457675","0.0-181.0","p423806","AVD6HMIO1HLFI","3RZS0FBRWLGDTA9TUPH81F59AWHPC0","34YB12FSQ0UNC3QFUXQ0ZMRIMW0MG6","model","mismatch","uniform","","","","","","","3781","455357","459138","[""stimuli/WM07_AO.jpg"",""stimuli/WF14_HE.jpg"",""stimuli/AM05_HO.jpg"",""stimuli/HM02_FO.jpg""]","stimuli/WM07_AO.jpg","stimuli/WF14_HE.jpg","stimuli/AM05_HO.jpg","stimuli/HM02_FO.jpg","pos3","stimuli/AM05_HO.jpg","HO","AM05","2","3","6","4","stimuli/stars_6.png","265","[""AO"",""HE"",""HO"",""FO""]","[""WM07"",""WF14"",""AM05"",""HM02""]","[0,6,6,7]","[2,8,4,6]","","",""
"show-reward","182","459686","0.0-182.0","p423806","AVD6HMIO1HLFI","3RZS0FBRWLGDTA9TUPH81F59AWHPC0","34YB12FSQ0UNC3QFUXQ0ZMRIMW0MG6","model","mismatch","uniform","","","","","","","","459639","461650","","","","","","","","","","","","6","","stimuli/stars_6.png","265","","","","","stimuli/AM05_HO.jpg","",""
"explore-choice","183","461345","0.0-183.0","p423806","AVD6HMIO1HLFI","3RZS0FBRWLGDTA9TUPH81F59AWHPC0","34YB12FSQ0UNC3QFUXQ0ZMRIMW0MG6","model","mismatch","uniform","","","","","","","1147","461650","462797","[""stimuli/WM07_HE.jpg"",""stimuli/AM05_HO.jpg"",""stimuli/HM02_AO.jpg"",""stimuli/WF14_FO.jpg""]","stimuli/WM07_HE.jpg","stimuli/AM05_HO.jpg","stimuli/HM02_AO.jpg","stimuli/WF14_FO.jpg","pos1","stimuli/WM07_HE.jpg","HE","WM07","0","4.5","9","8","stimuli/stars_9.png","269.5","[""HE"",""HO"",""AO"",""FO""]","[""WM07"",""AM05"",""HM02"",""WF14""]","[9,2,3,4]","[8,4,2,6]","","",""
"show-reward","184","463346","0.0-184.0","p423806","AVD6HMIO1HLFI","3RZS0FBRWLGDTA9TUPH81F59AWHPC0","34YB12FSQ0UNC3QFUXQ0ZMRIMW0MG6","model","mismatch","uniform","","","","","","","","463308","465309","","","","","","","","","","","","9","","stimuli/stars_9.png","269.5","","","","","stimuli/WM07_HE.jpg","",""
"explore-choice","185","466862","0.0-185.0","p423806","AVD6HMIO1HLFI","3RZS0FBRWLGDTA9TUPH81F59AWHPC0","34YB12FSQ0UNC3QFUXQ0ZMRIMW0MG6","model","mismatch","uniform","","","","","","","3004","465310","468314","[""stimuli/WM07_AO.jpg"",""stimuli/AM05_HE.jpg"",""stimuli/HM02_FO.jpg"",""stimuli/WF14_HO.jpg""]","stimuli/WM07_AO.jpg","stimuli/AM05_HE.jpg","stimuli/HM02_FO.jpg","stimuli/WF14_HO.jpg","pos4","stimuli/WF14_HO.jpg","HO","WF14","3","1.5","3","4","stimuli/stars_3.png","271","[""AO"",""HE"",""FO"",""HO""]","[""WM07"",""AM05"",""HM02"",""WF14""]","[3,8,5,3]","[2,8,6,4]","","",""
"show-reward","186","468871","0.0-186.0","p423806","AVD6HMIO1HLFI","3RZS0FBRWLGDTA9TUPH81F59AWHPC0","34YB12FSQ0UNC3QFUXQ0ZMRIMW0MG6","model","mismatch","uniform","","","","","","","","468827","470836","","","","","","","","","","","","3","","stimuli/stars_3.png","271","","","","","stimuli/WF14_HO.jpg","",""
"explore-choice","187","471174","0.0-187.0","p423806","AVD6HMIO1HLFI","3RZS0FBRWLGDTA9TUPH81F59AWHPC0","34YB12FSQ0UNC3QFUXQ0ZMRIMW0MG6","model","mismatch","uniform","","","","","","","1797","470836","472633","[""stimuli/AM05_HO.jpg"",""stimuli/WF14_AO.jpg"",""stimuli/HM02_HE.jpg"",""stimuli/WM07_FO.jpg""]","stimuli/AM05_HO.jpg","stimuli/WF14_AO.jpg","stimuli/HM02_HE.jpg","stimuli/WM07_FO.jpg","pos3","stimuli/HM02_HE.jpg","HE","HM02","2","5","10","8","stimuli/stars_10.png","276","[""HO"",""AO"",""HE"",""FO""]","[""AM05"",""WF14"",""HM02"",""WM07""]","[2,0,10,5]","[4,2,8,6]","","",""
"show-reward","188","473180","0.0-188.0","p423806","AVD6HMIO1HLFI","3RZS0FBRWLGDTA9TUPH81F59AWHPC0","34YB12FSQ0UNC3QFUXQ0ZMRIMW0MG6","model","mismatch","uniform","","","","","","","","473137","475145","","","","","","","","","","","","10","","stimuli/stars_10.png","276","","","","","stimuli/HM02_HE.jpg","",""
"explore-choice","189","476114","0.0-189.0","p423806","AVD6HMIO1HLFI","3RZS0FBRWLGDTA9TUPH81F59AWHPC0","34YB12FSQ0UNC3QFUXQ0ZMRIMW0MG6","model","mismatch","uniform","","","","","","","2428","475145","477573","[""stimuli/WM07_HE.jpg"",""stimuli/AM05_AO.jpg"",""stimuli/HM02_HO.jpg"",""stimuli/WF14_FO.jpg""]","stimuli/WM07_HE.jpg","stimuli/AM05_AO.jpg","stimuli/HM02_HO.jpg","stimuli/WF14_FO.jpg","pos1","stimuli/WM07_HE.jpg","HE","WM07","0","5","10","8","stimuli/stars_10.png","281","[""HE"",""AO"",""HO"",""FO""]","[""WM07"",""AM05"",""HM02"",""WF14""]","[10,0,3,8]","[8,2,4,6]","","",""
"show-reward","190","478117","0.0-190.0","p423806","AVD6HMIO1HLFI","3RZS0FBRWLGDTA9TUPH81F59AWHPC0","34YB12FSQ0UNC3QFUXQ0ZMRIMW0MG6","model","mismatch","uniform","","","","","","","","478077","480081","","","","","","","","","","","","10","","stimuli/stars_10.png","281","","","","","stimuli/WM07_HE.jpg","",""
"explore-choice","191","481304","0.0-191.0","p423806","AVD6HMIO1HLFI","3RZS0FBRWLGDTA9TUPH81F59AWHPC0","34YB12FSQ0UNC3QFUXQ0ZMRIMW0MG6","model","mismatch","uniform","","","","","","","2675","480082","482757","[""stimuli/HM02_FO.jpg"",""stimuli/AM05_AO.jpg"",""stimuli/WF14_HE.jpg"",""stimuli/WM07_HO.jpg""]","stimuli/HM02_FO.jpg","stimuli/AM05_AO.jpg","stimuli/WF14_HE.jpg","stimuli/WM07_HO.jpg","pos1","stimuli/HM02_FO.jpg","FO","HM02","0","2.5","5","6","stimuli/stars_5.png","283.5","[""FO"",""AO"",""HE"",""HO""]","[""HM02"",""AM05"",""WF14"",""WM07""]","[5,3,9,6]","[6,2,8,4]","","",""
"show-reward","192","483311","0.0-192.0","p423806","AVD6HMIO1HLFI","3RZS0FBRWLGDTA9TUPH81F59AWHPC0","34YB12FSQ0UNC3QFUXQ0ZMRIMW0MG6","model","mismatch","uniform","","","","","","","","483269","485275","","","","","","","","","","","","5","","stimuli/stars_5.png","283.5","","","","","stimuli/HM02_FO.jpg","",""
"explore-choice","193","486662","0.0-193.0","p423806","AVD6HMIO1HLFI","3RZS0FBRWLGDTA9TUPH81F59AWHPC0","34YB12FSQ0UNC3QFUXQ0ZMRIMW0MG6","model","mismatch","uniform","","","","","","","2839","485275","488114","[""stimuli/WM07_HE.jpg"",""stimuli/HM02_FO.jpg"",""stimuli/AM05_HO.jpg"",""stimuli/WF14_AO.jpg""]","stimuli/WM07_HE.jpg","stimuli/HM02_FO.jpg","stimuli/AM05_HO.jpg","stimuli/WF14_AO.jpg","pos1","stimuli/WM07_HE.jpg","HE","WM07","0","3","6","8","stimuli/stars_6.png","286.5","[""HE"",""FO"",""HO"",""AO""]","[""WM07"",""HM02"",""AM05"",""WF14""]","[6,6,5,4]","[8,6,4,2]","","",""
"show-reward","194","488676","0.0-194.0","p423806","AVD6HMIO1HLFI","3RZS0FBRWLGDTA9TUPH81F59AWHPC0","34YB12FSQ0UNC3QFUXQ0ZMRIMW0MG6","model","mismatch","uniform","","","","","","","","488626","490640","","","","","","","","","","","","6","","stimuli/stars_6.png","286.5","","","","","stimuli/WM07_HE.jpg","",""
"explore-choice","195","492266","0.0-195.0","p423806","AVD6HMIO1HLFI","3RZS0FBRWLGDTA9TUPH81F59AWHPC0","34YB12FSQ0UNC3QFUXQ0ZMRIMW0MG6","model","mismatch","uniform","","","","","","","3087","490640","493727","[""stimuli/HM02_AO.jpg"",""stimuli/WM07_FO.jpg"",""stimuli/AM05_HO.jpg"",""stimuli/WF14_HE.jpg""]","stimuli/HM02_AO.jpg","stimuli/WM07_FO.jpg","stimuli/AM05_HO.jpg","stimuli/WF14_HE.jpg","pos4","stimuli/WF14_HE.jpg","HE","WF14","3","3","6","8","stimuli/stars_6.png","289.5","[""AO"",""FO"",""HO"",""HE""]","[""HM02"",""WM07"",""AM05"",""WF14""]","[0,8,3,6]","[2,6,4,8]","","",""
"show-reward","196","494270","0.0-196.0","p423806","AVD6HMIO1HLFI","3RZS0FBRWLGDTA9TUPH81F59AWHPC0","34YB12FSQ0UNC3QFUXQ0ZMRIMW0MG6","model","mismatch","uniform","","","","","","","","494230","496234","","","","","","","","","","","","6","","stimuli/stars_6.png","289.5","","","","","stimuli/WF14_HE.jpg","",""
"explore-choice","197","497738","0.0-197.0","p423806","AVD6HMIO1HLFI","3RZS0FBRWLGDTA9TUPH81F59AWHPC0","34YB12FSQ0UNC3QFUXQ0ZMRIMW0MG6","model","mismatch","uniform","","","","","","","2960","496234","499194","[""stimuli/AM05_FO.jpg"",""stimuli/WF14_AO.jpg"",""stimuli/WM07_HO.jpg"",""stimuli/HM02_HE.jpg""]","stimuli/AM05_FO.jpg","stimuli/WF14_AO.jpg","stimuli/WM07_HO.jpg","stimuli/HM02_HE.jpg","pos4","stimuli/HM02_HE.jpg","HE","HM02","3","4","8","8","stimuli/stars_8.png","293.5","[""FO"",""AO"",""HO"",""HE""]","[""AM05"",""WF14"",""WM07"",""HM02""]","[4,4,6,8]","[6,2,4,8]","","",""
"show-reward","198","499753","0.0-198.0","p423806","AVD6HMIO1HLFI","3RZS0FBRWLGDTA9TUPH81F59AWHPC0","34YB12FSQ0UNC3QFUXQ0ZMRIMW0MG6","model","mismatch","uniform","","","","","","","","499702","501717","","","","","","","","","","","","8","","stimuli/stars_8.png","293.5","","","","","stimuli/HM02_HE.jpg","",""
"instructions","199","505269","0.0-199.0","p423806","AVD6HMIO1HLFI","3RZS0FBRWLGDTA9TUPH81F59AWHPC0","34YB12FSQ0UNC3QFUXQ0ZMRIMW0MG6","model","mismatch","uniform","","","","","","[{""page_index"":0,""viewing_time"":5516}]","5516","","","","","","","","","","","","","","","","","","","","","","","",""
"survey-text","200","509390","0.0-200.0-0.0","p423806","AVD6HMIO1HLFI","3RZS0FBRWLGDTA9TUPH81F59AWHPC0","34YB12FSQ0UNC3QFUXQ0ZMRIMW0MG6","model","mismatch","uniform","","","","","","","4119","","","","","","","","","","","","","","","","","","","","","","","{""age"":""33""}",""
"survey-text","201","512878","0.0-200.0-1.0","p423806","AVD6HMIO1HLFI","3RZS0FBRWLGDTA9TUPH81F59AWHPC0","34YB12FSQ0UNC3QFUXQ0ZMRIMW0MG6","model","mismatch","uniform","","","","","","","3487","","","","","","","","","","","","","","","","","","","","","","","{""gender"":""Male""}",""
"survey-text","202","518018","0.0-200.0-2.0","p423806","AVD6HMIO1HLFI","3RZS0FBRWLGDTA9TUPH81F59AWHPC0","34YB12FSQ0UNC3QFUXQ0ZMRIMW0MG6","model","mismatch","uniform","","","","","","","5139","","","","","","","","","","","","","","","","","","","","","","","{""country"":""United States""}",""
"survey-text","203","523175","0.0-200.0-3.0","p423806","AVD6HMIO1HLFI","3RZS0FBRWLGDTA9TUPH81F59AWHPC0","34YB12FSQ0UNC3QFUXQ0ZMRIMW0MG6","model","mismatch","uniform","","","","","","","5154","","","","","","","","","","","","","","","","","","","","","","","{""language"":""English"",""other_languages"":""""}",""
"survey-multi-select","204","525229","0.0-201.0","p423806","AVD6HMIO1HLFI","3RZS0FBRWLGDTA9TUPH81F59AWHPC0","34YB12FSQ0UNC3QFUXQ0ZMRIMW0MG6","model","mismatch","uniform","","","","","","","2052","","","","","","","","","","","","","","","","","","","","","","","{""race"":[""White""]}","[0]"
"survey-multi-choice","205","527031","0.0-202.0","p423806","AVD6HMIO1HLFI","3RZS0FBRWLGDTA9TUPH81F59AWHPC0","34YB12FSQ0UNC3QFUXQ0ZMRIMW0MG6","model","mismatch","uniform","","","","","","","1802","","","","","","","","","","","","","","","","","","","","","","","{""education"":""High school""}","[0]"
"survey-text","206","559416","0.0-203.0","p423806","AVD6HMIO1HLFI","3RZS0FBRWLGDTA9TUPH81F59AWHPC0","34YB12FSQ0UNC3QFUXQ0ZMRIMW0MG6","model","mismatch","uniform","","","","","","","32382","","","","","","","","","","","","","","","","","","","","","","","{""patterns"":""Not sure."",""strategy"":""Not really.  Just tested some different faces and tried to remember the combinations that gave the most points."",""comments"":""""}",""
