"trial_type","trial_index","time_elapsed","internal_node_id","subject","workerId","hitId","assignmentId","structure_condition","match_condition","noise_type","success","timeout","failed_images","failed_audio","failed_video","view_history","rt","start_time","end_time","stimuli","image1","image2","image3","image4","choiceLocation","choiceImage","choiceEmotion","choiceModel","choice_index","reward_score","reward","reward_score_unadjusted","reward_image","score_after_trial","emotions","models","rewards","rewards_unadjusted","stimulus","response","question_order"
"pavlovia","0","1","0.0-0.0","p282703","A9LSEP71DNP4O","3RZS0FBRWLGDTA9TUPH81F59AWHPC0","39DD6S19JRHPRWT73RQ67L2FOJVZE9","model","mismatch","uniform","","","","","","","","","","","","","","","","","","","","","","","","","","","","","","",""
"preload","1","51304","0.0-1.0","p282703","A9LSEP71DNP4O","3RZS0FBRWLGDTA9TUPH81F59AWHPC0","39DD6S19JRHPRWT73RQ67L2FOJVZE9","model","mismatch","uniform","true","false","[]","[]","[]","","","","","","","","","","","","","","","","","","","","","","","","","",""
"fullscreen","2","54681","0.0-2.0","p282703","A9LSEP71DNP4O","3RZS0FBRWLGDTA9TUPH81F59AWHPC0","39DD6S19JRHPRWT73RQ67L2FOJVZE9","model","mismatch","uniform","true","","","","","","","","","","","","","","","","","","","","","","","","","","","","","",""
"instructions","3","57421","0.0-3.0","p282703","A9LSEP71DNP4O","3RZS0FBRWLGDTA9TUPH81F59AWHPC0","39DD6S19JRHPRWT73RQ67L2FOJVZE9","model","mismatch","uniform","","","","","","[{""page_index"":0,""viewing_time"":2739.900000002235}]","2740.10000000149","","","","","","","","","","","","","","","","","","","","","","","",""
"explore-choice","4","59513","0.0-4.0","p282703","A9LSEP71DNP4O","3RZS0FBRWLGDTA9TUPH81F59AWHPC0","39DD6S19JRHPRWT73RQ67L2FOJVZE9","model","mismatch","uniform","","","","","","","1585.699999999255","57824.300000000745","59410","[""stimuli/sheep.jpg"",""stimuli/hammer.jpg"",""stimuli/basketball.jpg"",""stimuli/horse.jpg""]","stimuli/sheep.jpg","stimuli/hammer.jpg","stimuli/basketball.jpg","stimuli/horse.jpg","pos4","stimuli/horse.jpg","","","3","64","64","64","stimuli/stars_8.png","65","","","","","","",""
"explore-choice","5","60881","0.0-5.0","p282703","A9LSEP71DNP4O","3RZS0FBRWLGDTA9TUPH81F59AWHPC0","39DD6S19JRHPRWT73RQ67L2FOJVZE9","model","mismatch","uniform","","","","","","","860.8000000007451","59916.10000000149","60776.900000002235","[""stimuli/hammer.jpg"",""stimuli/basketball.jpg"",""stimuli/horse.jpg"",""stimuli/sheep.jpg""]","stimuli/hammer.jpg","stimuli/basketball.jpg","stimuli/horse.jpg","stimuli/sheep.jpg","pos1","stimuli/hammer.jpg","","","0","8","8","8","stimuli/stars_2.png","9","","","","","","",""
"instructions","6","63690","0.0-6.0","p282703","A9LSEP71DNP4O","3RZS0FBRWLGDTA9TUPH81F59AWHPC0","39DD6S19JRHPRWT73RQ67L2FOJVZE9","model","mismatch","uniform","","","","","","[{""page_index"":0,""viewing_time"":2807.89999999851}]","2808","","","","","","","","","","","","","","","","","","","","","","","",""
"explore-choice","7","69233","0.0-7.0","p282703","A9LSEP71DNP4O","3RZS0FBRWLGDTA9TUPH81F59AWHPC0","39DD6S19JRHPRWT73RQ67L2FOJVZE9","model","mismatch","uniform","","","","","","","5034.800000000745","64092.800000000745","69127.60000000149","[""stimuli/AM06_DO.jpg"",""stimuli/HM07_SC.jpg"",""stimuli/HM02_FO.jpg"",""stimuli/HM10_HE.jpg""]","stimuli/AM06_DO.jpg","stimuli/HM07_SC.jpg","stimuli/HM02_FO.jpg","stimuli/HM10_HE.jpg","pos4","stimuli/HM10_HE.jpg","HE","HM10","3","0.5","1","2","stimuli/stars_1.png","1.5","[""DO"",""SC"",""FO"",""HE""]","[""AM06"",""HM07"",""HM02"",""HM10""]","[5,4,9,1]","[4,6,8,2]","","",""
"show-reward","8","71241","0.0-8.0","p282703","A9LSEP71DNP4O","3RZS0FBRWLGDTA9TUPH81F59AWHPC0","39DD6S19JRHPRWT73RQ67L2FOJVZE9","model","mismatch","uniform","","","","","","","","69636.40000000224","71642.80000000075","","","","","","","","","","","","1","","stimuli/stars_1.png","1.5","","","","","stimuli/HM10_HE.jpg","",""
"explore-choice","9","73744","0.0-9.0","p282703","A9LSEP71DNP4O","3RZS0FBRWLGDTA9TUPH81F59AWHPC0","39DD6S19JRHPRWT73RQ67L2FOJVZE9","model","mismatch","uniform","","","","","","","2000.6000000014901","71643.5","73644.10000000149","[""stimuli/HM07_SC.jpg"",""stimuli/AM06_HE.jpg"",""stimuli/HM10_DO.jpg"",""stimuli/HM02_FO.jpg""]","stimuli/HM07_SC.jpg","stimuli/AM06_HE.jpg","stimuli/HM10_DO.jpg","stimuli/HM02_FO.jpg","pos3","stimuli/HM10_DO.jpg","DO","HM10","2","0","0","2","stimuli/stars_0.png","1.5","[""SC"",""HE"",""DO"",""FO""]","[""HM07"",""AM06"",""HM10"",""HM02""]","[8,2,0,10]","[6,4,2,8]","","",""
"show-reward","10","75752","0.0-10.0","p282703","A9LSEP71DNP4O","3RZS0FBRWLGDTA9TUPH81F59AWHPC0","39DD6S19JRHPRWT73RQ67L2FOJVZE9","model","mismatch","uniform","","","","","","","","74147","76154.30000000075","","","","","","","","","","","","0","","stimuli/stars_0.png","1.5","","","","","stimuli/HM10_DO.jpg","",""
"explore-choice","11","77993","0.0-11.0","p282703","A9LSEP71DNP4O","3RZS0FBRWLGDTA9TUPH81F59AWHPC0","39DD6S19JRHPRWT73RQ67L2FOJVZE9","model","mismatch","uniform","","","","","","","1733","76154.80000000075","77887.80000000075","[""stimuli/HM10_DO.jpg"",""stimuli/HM07_HE.jpg"",""stimuli/AM06_FO.jpg"",""stimuli/HM02_SC.jpg""]","stimuli/HM10_DO.jpg","stimuli/HM07_HE.jpg","stimuli/AM06_FO.jpg","stimuli/HM02_SC.jpg","pos2","stimuli/HM07_HE.jpg","HE","HM07","1","3","6","6","stimuli/stars_6.png","4.5","[""DO"",""HE"",""FO"",""SC""]","[""HM10"",""HM07"",""AM06"",""HM02""]","[2,6,3,7]","[2,6,4,8]","","",""
"show-reward","12","80000","0.0-12.0","p282703","A9LSEP71DNP4O","3RZS0FBRWLGDTA9TUPH81F59AWHPC0","39DD6S19JRHPRWT73RQ67L2FOJVZE9","model","mismatch","uniform","","","","","","","","78395.30000000075","80402.60000000149","","","","","","","","","","","","6","","stimuli/stars_6.png","4.5","","","","","stimuli/HM07_HE.jpg","",""
"explore-choice","13","81928","0.0-13.0","p282703","A9LSEP71DNP4O","3RZS0FBRWLGDTA9TUPH81F59AWHPC0","39DD6S19JRHPRWT73RQ67L2FOJVZE9","model","mismatch","uniform","","","","","","","1422.8999999985099","80403.10000000149","81826","[""stimuli/HM02_SC.jpg"",""stimuli/AM06_DO.jpg"",""stimuli/HM10_FO.jpg"",""stimuli/HM07_HE.jpg""]","stimuli/HM02_SC.jpg","stimuli/AM06_DO.jpg","stimuli/HM10_FO.jpg","stimuli/HM07_HE.jpg","pos4","stimuli/HM07_HE.jpg","HE","HM07","3","4","8","6","stimuli/stars_8.png","8.5","[""SC"",""DO"",""FO"",""HE""]","[""HM02"",""AM06"",""HM10"",""HM07""]","[7,2,2,8]","[8,4,2,6]","","",""
"show-reward","14","83936","0.0-14.0","p282703","A9LSEP71DNP4O","3RZS0FBRWLGDTA9TUPH81F59AWHPC0","39DD6S19JRHPRWT73RQ67L2FOJVZE9","model","mismatch","uniform","","","","","","","","82330.60000000149","84338.60000000149","","","","","","","","","","","","8","","stimuli/stars_8.png","8.5","","","","","stimuli/HM07_HE.jpg","",""
"explore-choice","15","86137","0.0-15.0","p282703","A9LSEP71DNP4O","3RZS0FBRWLGDTA9TUPH81F59AWHPC0","39DD6S19JRHPRWT73RQ67L2FOJVZE9","model","mismatch","uniform","","","","","","","1695.2000000029802","84339.19999999925","86034.40000000224","[""stimuli/HM07_FO.jpg"",""stimuli/HM02_DO.jpg"",""stimuli/AM06_HE.jpg"",""stimuli/HM10_SC.jpg""]","stimuli/HM07_FO.jpg","stimuli/HM02_DO.jpg","stimuli/AM06_HE.jpg","stimuli/HM10_SC.jpg","pos3","stimuli/AM06_HE.jpg","HE","AM06","2","2","4","4","stimuli/stars_4.png","10.5","[""FO"",""DO"",""HE"",""SC""]","[""HM07"",""HM02"",""AM06"",""HM10""]","[4,8,4,2]","[6,8,4,2]","","",""
"show-reward","16","88144","0.0-16.0","p282703","A9LSEP71DNP4O","3RZS0FBRWLGDTA9TUPH81F59AWHPC0","39DD6S19JRHPRWT73RQ67L2FOJVZE9","model","mismatch","uniform","","","","","","","","86540","88546.69999999925","","","","","","","","","","","","4","","stimuli/stars_4.png","10.5","","","","","stimuli/AM06_HE.jpg","",""
"explore-choice","17","90714","0.0-17.0","p282703","A9LSEP71DNP4O","3RZS0FBRWLGDTA9TUPH81F59AWHPC0","39DD6S19JRHPRWT73RQ67L2FOJVZE9","model","mismatch","uniform","","","","","","","2060.2000000029802","88547.19999999925","90607.40000000224","[""stimuli/HM02_HE.jpg"",""stimuli/HM07_DO.jpg"",""stimuli/AM06_FO.jpg"",""stimuli/HM10_SC.jpg""]","stimuli/HM02_HE.jpg","stimuli/HM07_DO.jpg","stimuli/AM06_FO.jpg","stimuli/HM10_SC.jpg","pos1","stimuli/HM02_HE.jpg","HE","HM02","0","4.5","9","8","stimuli/stars_9.png","15","[""HE"",""DO"",""FO"",""SC""]","[""HM02"",""HM07"",""AM06"",""HM10""]","[9,6,3,4]","[8,6,4,2]","","",""
"show-reward","18","92720","0.0-18.0","p282703","A9LSEP71DNP4O","3RZS0FBRWLGDTA9TUPH81F59AWHPC0","39DD6S19JRHPRWT73RQ67L2FOJVZE9","model","mismatch","uniform","","","","","","","","91116.80000000075","93122.30000000075","","","","","","","","","","","","9","","stimuli/stars_9.png","15","","","","","stimuli/HM02_HE.jpg","",""
"explore-choice","19","94072","0.0-19.0","p282703","A9LSEP71DNP4O","3RZS0FBRWLGDTA9TUPH81F59AWHPC0","39DD6S19JRHPRWT73RQ67L2FOJVZE9","model","mismatch","uniform","","","","","","","850.3000000007451","93122.80000000075","93973.10000000149","[""stimuli/AM06_HE.jpg"",""stimuli/HM02_SC.jpg"",""stimuli/HM07_FO.jpg"",""stimuli/HM10_DO.jpg""]","stimuli/AM06_HE.jpg","stimuli/HM02_SC.jpg","stimuli/HM07_FO.jpg","stimuli/HM10_DO.jpg","pos1","stimuli/AM06_HE.jpg","HE","AM06","0","3","6","4","stimuli/stars_6.png","18","[""HE"",""SC"",""FO"",""DO""]","[""AM06"",""HM02"",""HM07"",""HM10""]","[6,9,7,4]","[4,8,6,2]","","",""
"show-reward","20","96080","0.0-20.0","p282703","A9LSEP71DNP4O","3RZS0FBRWLGDTA9TUPH81F59AWHPC0","39DD6S19JRHPRWT73RQ67L2FOJVZE9","model","mismatch","uniform","","","","","","","","94474.90000000224","96482.40000000224","","","","","","","","","","","","6","","stimuli/stars_6.png","18","","","","","stimuli/AM06_HE.jpg","",""
"explore-choice","21","97596","0.0-21.0","p282703","A9LSEP71DNP4O","3RZS0FBRWLGDTA9TUPH81F59AWHPC0","39DD6S19JRHPRWT73RQ67L2FOJVZE9","model","mismatch","uniform","","","","","","","1012.5999999977648","96483.10000000149","97495.69999999925","[""stimuli/HM02_FO.jpg"",""stimuli/HM07_DO.jpg"",""stimuli/HM10_HE.jpg"",""stimuli/AM06_SC.jpg""]","stimuli/HM02_FO.jpg","stimuli/HM07_DO.jpg","stimuli/HM10_HE.jpg","stimuli/AM06_SC.jpg","pos3","stimuli/HM10_HE.jpg","HE","HM10","2","1.5","3","2","stimuli/stars_3.png","19.5","[""FO"",""DO"",""HE"",""SC""]","[""HM02"",""HM07"",""HM10"",""AM06""]","[8,7,3,3]","[8,6,2,4]","","",""
"show-reward","22","99600","0.0-22.0","p282703","A9LSEP71DNP4O","3RZS0FBRWLGDTA9TUPH81F59AWHPC0","39DD6S19JRHPRWT73RQ67L2FOJVZE9","model","mismatch","uniform","","","","","","","","97998.90000000224","100002.60000000149","","","","","","","","","","","","3","","stimuli/stars_3.png","19.5","","","","","stimuli/HM10_HE.jpg","",""
"explore-choice","23","101048","0.0-23.0","p282703","A9LSEP71DNP4O","3RZS0FBRWLGDTA9TUPH81F59AWHPC0","39DD6S19JRHPRWT73RQ67L2FOJVZE9","model","mismatch","uniform","","","","","","","944","100003.10000000149","100947.10000000149","[""stimuli/HM02_DO.jpg"",""stimuli/AM06_FO.jpg"",""stimuli/HM10_HE.jpg"",""stimuli/HM07_SC.jpg""]","stimuli/HM02_DO.jpg","stimuli/AM06_FO.jpg","stimuli/HM10_HE.jpg","stimuli/HM07_SC.jpg","pos3","stimuli/HM10_HE.jpg","HE","HM10","2","1.5","3","2","stimuli/stars_3.png","21","[""DO"",""FO"",""HE"",""SC""]","[""HM02"",""AM06"",""HM10"",""HM07""]","[8,2,3,5]","[8,4,2,6]","","",""
"show-reward","24","103056","0.0-24.0","p282703","A9LSEP71DNP4O","3RZS0FBRWLGDTA9TUPH81F59AWHPC0","39DD6S19JRHPRWT73RQ67L2FOJVZE9","model","mismatch","uniform","","","","","","","","101450.90000000224","103458.19999999925","","","","","","","","","","","","3","","stimuli/stars_3.png","21","","","","","stimuli/HM10_HE.jpg","",""
"explore-choice","25","104780","0.0-25.0","p282703","A9LSEP71DNP4O","3RZS0FBRWLGDTA9TUPH81F59AWHPC0","39DD6S19JRHPRWT73RQ67L2FOJVZE9","model","mismatch","uniform","","","","","","","1221.7000000029802","103458.69999999925","104680.40000000224","[""stimuli/HM02_DO.jpg"",""stimuli/AM06_FO.jpg"",""stimuli/HM07_HE.jpg"",""stimuli/HM10_SC.jpg""]","stimuli/HM02_DO.jpg","stimuli/AM06_FO.jpg","stimuli/HM07_HE.jpg","stimuli/HM10_SC.jpg","pos3","stimuli/HM07_HE.jpg","HE","HM07","2","4","8","6","stimuli/stars_8.png","25","[""DO"",""FO"",""HE"",""SC""]","[""HM02"",""AM06"",""HM07"",""HM10""]","[7,4,8,3]","[8,4,6,2]","","",""
"show-reward","26","106784","0.0-26.0","p282703","A9LSEP71DNP4O","3RZS0FBRWLGDTA9TUPH81F59AWHPC0","39DD6S19JRHPRWT73RQ67L2FOJVZE9","model","mismatch","uniform","","","","","","","","105182.30000000075","107186.69999999925","","","","","","","","","","","","8","","stimuli/stars_8.png","25","","","","","stimuli/HM07_HE.jpg","",""
"explore-choice","27","107952","0.0-27.0","p282703","A9LSEP71DNP4O","3RZS0FBRWLGDTA9TUPH81F59AWHPC0","39DD6S19JRHPRWT73RQ67L2FOJVZE9","model","mismatch","uniform","","","","","","","662.1999999992549","107187.30000000075","107849.5","[""stimuli/HM10_HE.jpg"",""stimuli/AM06_SC.jpg"",""stimuli/HM02_DO.jpg"",""stimuli/HM07_FO.jpg""]","stimuli/HM10_HE.jpg","stimuli/AM06_SC.jpg","stimuli/HM02_DO.jpg","stimuli/HM07_FO.jpg","pos1","stimuli/HM10_HE.jpg","HE","HM10","0","0.5","1","2","stimuli/stars_1.png","25.5","[""HE"",""SC"",""DO"",""FO""]","[""HM10"",""AM06"",""HM02"",""HM07""]","[1,4,10,7]","[2,4,8,6]","","",""
"show-reward","28","109961","0.0-28.0","p282703","A9LSEP71DNP4O","3RZS0FBRWLGDTA9TUPH81F59AWHPC0","39DD6S19JRHPRWT73RQ67L2FOJVZE9","model","mismatch","uniform","","","","","","","","108354.90000000224","110363.30000000075","","","","","","","","","","","","1","","stimuli/stars_1.png","25.5","","","","","stimuli/HM10_HE.jpg","",""
"explore-choice","29","111432","0.0-29.0","p282703","A9LSEP71DNP4O","3RZS0FBRWLGDTA9TUPH81F59AWHPC0","39DD6S19JRHPRWT73RQ67L2FOJVZE9","model","mismatch","uniform","","","","","","","965.3000000007451","110363.80000000075","111329.10000000149","[""stimuli/HM10_DO.jpg"",""stimuli/AM06_FO.jpg"",""stimuli/HM02_HE.jpg"",""stimuli/HM07_SC.jpg""]","stimuli/HM10_DO.jpg","stimuli/AM06_FO.jpg","stimuli/HM02_HE.jpg","stimuli/HM07_SC.jpg","pos3","stimuli/HM02_HE.jpg","HE","HM02","2","4.5","9","8","stimuli/stars_9.png","30","[""DO"",""FO"",""HE"",""SC""]","[""HM10"",""AM06"",""HM02"",""HM07""]","[1,6,9,8]","[2,4,8,6]","","",""
"show-reward","30","113439","0.0-30.0","p282703","A9LSEP71DNP4O","3RZS0FBRWLGDTA9TUPH81F59AWHPC0","39DD6S19JRHPRWT73RQ67L2FOJVZE9","model","mismatch","uniform","","","","","","","","111834.90000000224","113841.60000000149","","","","","","","","","","","","9","","stimuli/stars_9.png","30","","","","","stimuli/HM02_HE.jpg","",""
"explore-choice","31","116669","0.0-31.0","p282703","A9LSEP71DNP4O","3RZS0FBRWLGDTA9TUPH81F59AWHPC0","39DD6S19JRHPRWT73RQ67L2FOJVZE9","model","mismatch","uniform","","","","","","","2729.5","113842","116571.5","[""stimuli/AM06_DO.jpg"",""stimuli/HM07_FO.jpg"",""stimuli/HM10_HE.jpg"",""stimuli/HM02_SC.jpg""]","stimuli/AM06_DO.jpg","stimuli/HM07_FO.jpg","stimuli/HM10_HE.jpg","stimuli/HM02_SC.jpg","pos2","stimuli/HM07_FO.jpg","FO","HM07","1","4","8","6","stimuli/stars_8.png","34","[""DO"",""FO"",""HE"",""SC""]","[""AM06"",""HM07"",""HM10"",""HM02""]","[2,8,4,9]","[4,6,2,8]","","",""
"show-reward","32","118672","0.0-32.0","p282703","A9LSEP71DNP4O","3RZS0FBRWLGDTA9TUPH81F59AWHPC0","39DD6S19JRHPRWT73RQ67L2FOJVZE9","model","mismatch","uniform","","","","","","","","117072.10000000149","119074.69999999925","","","","","","","","","","","","8","","stimuli/stars_8.png","34","","","","","stimuli/HM07_FO.jpg","",""
"explore-choice","33","121592","0.0-33.0","p282703","A9LSEP71DNP4O","3RZS0FBRWLGDTA9TUPH81F59AWHPC0","39DD6S19JRHPRWT73RQ67L2FOJVZE9","model","mismatch","uniform","","","","","","","2412.10000000149","119075.19999999925","121487.30000000075","[""stimuli/HM02_HE.jpg"",""stimuli/HM10_FO.jpg"",""stimuli/HM07_DO.jpg"",""stimuli/AM06_SC.jpg""]","stimuli/HM02_HE.jpg","stimuli/HM10_FO.jpg","stimuli/HM07_DO.jpg","stimuli/AM06_SC.jpg","pos1","stimuli/HM02_HE.jpg","HE","HM02","0","4.5","9","8","stimuli/stars_9.png","38.5","[""HE"",""FO"",""DO"",""SC""]","[""HM02"",""HM10"",""HM07"",""AM06""]","[9,0,7,2]","[8,2,6,4]","","",""
"show-reward","34","123601","0.0-34.0","p282703","A9LSEP71DNP4O","3RZS0FBRWLGDTA9TUPH81F59AWHPC0","39DD6S19JRHPRWT73RQ67L2FOJVZE9","model","mismatch","uniform","","","","","","","","121995.19999999925","124003.69999999925","","","","","","","","","","","","9","","stimuli/stars_9.png","38.5","","","","","stimuli/HM02_HE.jpg","",""
"explore-choice","35","126337","0.0-35.0","p282703","A9LSEP71DNP4O","3RZS0FBRWLGDTA9TUPH81F59AWHPC0","39DD6S19JRHPRWT73RQ67L2FOJVZE9","model","mismatch","uniform","","","","","","","2229.400000002235","124004.19999999925","126233.60000000149","[""stimuli/HM10_DO.jpg"",""stimuli/HM07_HE.jpg"",""stimuli/HM02_FO.jpg"",""stimuli/AM06_SC.jpg""]","stimuli/HM10_DO.jpg","stimuli/HM07_HE.jpg","stimuli/HM02_FO.jpg","stimuli/AM06_SC.jpg","pos2","stimuli/HM07_HE.jpg","HE","HM07","1","2","4","6","stimuli/stars_4.png","40.5","[""DO"",""HE"",""FO"",""SC""]","[""HM10"",""HM07"",""HM02"",""AM06""]","[0,4,8,2]","[2,6,8,4]","","",""
"show-reward","36","128344","0.0-36.0","p282703","A9LSEP71DNP4O","3RZS0FBRWLGDTA9TUPH81F59AWHPC0","39DD6S19JRHPRWT73RQ67L2FOJVZE9","model","mismatch","uniform","","","","","","","","126739.69999999925","128746.80000000075","","","","","","","","","","","","4","","stimuli/stars_4.png","40.5","","","","","stimuli/HM07_HE.jpg","",""
"explore-choice","37","132040","0.0-37.0","p282703","A9LSEP71DNP4O","3RZS0FBRWLGDTA9TUPH81F59AWHPC0","39DD6S19JRHPRWT73RQ67L2FOJVZE9","model","mismatch","uniform","","","","","","","3191.89999999851","128747.40000000224","131939.30000000075","[""stimuli/AM06_DO.jpg"",""stimuli/HM10_FO.jpg"",""stimuli/HM02_HE.jpg"",""stimuli/HM07_SC.jpg""]","stimuli/AM06_DO.jpg","stimuli/HM10_FO.jpg","stimuli/HM02_HE.jpg","stimuli/HM07_SC.jpg","pos2","stimuli/HM10_FO.jpg","FO","HM10","1","0.5","1","2","stimuli/stars_1.png","41","[""DO"",""FO"",""HE"",""SC""]","[""AM06"",""HM10"",""HM02"",""HM07""]","[3,1,6,8]","[4,2,8,6]","","",""
"show-reward","38","134047","0.0-38.0","p282703","A9LSEP71DNP4O","3RZS0FBRWLGDTA9TUPH81F59AWHPC0","39DD6S19JRHPRWT73RQ67L2FOJVZE9","model","mismatch","uniform","","","","","","","","132443.40000000224","134449.5","","","","","","","","","","","","1","","stimuli/stars_1.png","41","","","","","stimuli/HM10_FO.jpg","",""
"explore-choice","39","136809","0.0-39.0","p282703","A9LSEP71DNP4O","3RZS0FBRWLGDTA9TUPH81F59AWHPC0","39DD6S19JRHPRWT73RQ67L2FOJVZE9","model","mismatch","uniform","","","","","","","2258.89999999851","134449.90000000224","136708.80000000075","[""stimuli/HM07_FO.jpg"",""stimuli/HM10_SC.jpg"",""stimuli/AM06_DO.jpg"",""stimuli/HM02_HE.jpg""]","stimuli/HM07_FO.jpg","stimuli/HM10_SC.jpg","stimuli/AM06_DO.jpg","stimuli/HM02_HE.jpg","pos1","stimuli/HM07_FO.jpg","FO","HM07","0","2.5","5","6","stimuli/stars_5.png","43.5","[""FO"",""SC"",""DO"",""HE""]","[""HM07"",""HM10"",""AM06"",""HM02""]","[5,0,5,7]","[6,2,4,8]","","",""
"show-reward","40","138816","0.0-40.0","p282703","A9LSEP71DNP4O","3RZS0FBRWLGDTA9TUPH81F59AWHPC0","39DD6S19JRHPRWT73RQ67L2FOJVZE9","model","mismatch","uniform","","","","","","","","137211.6000000015","139218.6000000015","","","","","","","","","","","","5","","stimuli/stars_5.png","43.5","","","","","stimuli/HM07_FO.jpg","",""
"explore-choice","41","140868","0.0-41.0","p282703","A9LSEP71DNP4O","3RZS0FBRWLGDTA9TUPH81F59AWHPC0","39DD6S19JRHPRWT73RQ67L2FOJVZE9","model","mismatch","uniform","","","","","","","1549.9000000022352","139219.19999999925","140769.1000000015","[""stimuli/HM07_HE.jpg"",""stimuli/HM02_DO.jpg"",""stimuli/HM10_FO.jpg"",""stimuli/AM06_SC.jpg""]","stimuli/HM07_HE.jpg","stimuli/HM02_DO.jpg","stimuli/HM10_FO.jpg","stimuli/AM06_SC.jpg","pos1","stimuli/HM07_HE.jpg","HE","HM07","0","3.5","7","6","stimuli/stars_7.png","47","[""HE"",""DO"",""FO"",""SC""]","[""HM07"",""HM02"",""HM10"",""AM06""]","[7,6,3,5]","[6,8,2,4]","","",""
"show-reward","42","142872","0.0-42.0","p282703","A9LSEP71DNP4O","3RZS0FBRWLGDTA9TUPH81F59AWHPC0","39DD6S19JRHPRWT73RQ67L2FOJVZE9","model","mismatch","uniform","","","","","","","","141270.90000000224","143274.5","","","","","","","","","","","","7","","stimuli/stars_7.png","47","","","","","stimuli/HM07_HE.jpg","",""
"explore-choice","43","145697","0.0-43.0","p282703","A9LSEP71DNP4O","3RZS0FBRWLGDTA9TUPH81F59AWHPC0","39DD6S19JRHPRWT73RQ67L2FOJVZE9","model","mismatch","uniform","","","","","","","2319.5","143275","145594.5","[""stimuli/HM07_SC.jpg"",""stimuli/HM02_DO.jpg"",""stimuli/HM10_FO.jpg"",""stimuli/AM06_HE.jpg""]","stimuli/HM07_SC.jpg","stimuli/HM02_DO.jpg","stimuli/HM10_FO.jpg","stimuli/AM06_HE.jpg","pos1","stimuli/HM07_SC.jpg","SC","HM07","0","3.5","7","6","stimuli/stars_7.png","50.5","[""SC"",""DO"",""FO"",""HE""]","[""HM07"",""HM02"",""HM10"",""AM06""]","[7,9,3,5]","[6,8,2,4]","","",""
"show-reward","44","147704","0.0-44.0","p282703","A9LSEP71DNP4O","3RZS0FBRWLGDTA9TUPH81F59AWHPC0","39DD6S19JRHPRWT73RQ67L2FOJVZE9","model","mismatch","uniform","","","","","","","","146099.30000000075","148106.30000000075","","","","","","","","","","","","7","","stimuli/stars_7.png","50.5","","","","","stimuli/HM07_SC.jpg","",""
"explore-choice","45","149252","0.0-45.0","p282703","A9LSEP71DNP4O","3RZS0FBRWLGDTA9TUPH81F59AWHPC0","39DD6S19JRHPRWT73RQ67L2FOJVZE9","model","mismatch","uniform","","","","","","","1047.300000000745","148106.80000000075","149154.1000000015","[""stimuli/HM02_FO.jpg"",""stimuli/AM06_HE.jpg"",""stimuli/HM10_SC.jpg"",""stimuli/HM07_DO.jpg""]","stimuli/HM02_FO.jpg","stimuli/AM06_HE.jpg","stimuli/HM10_SC.jpg","stimuli/HM07_DO.jpg","pos4","stimuli/HM07_DO.jpg","DO","HM07","3","2","4","6","stimuli/stars_4.png","52.5","[""FO"",""HE"",""SC"",""DO""]","[""HM02"",""AM06"",""HM10"",""HM07""]","[6,2,2,4]","[8,4,2,6]","","",""
"show-reward","46","151256","0.0-46.0","p282703","A9LSEP71DNP4O","3RZS0FBRWLGDTA9TUPH81F59AWHPC0","39DD6S19JRHPRWT73RQ67L2FOJVZE9","model","mismatch","uniform","","","","","","","","149654.90000000224","151658","","","","","","","","","","","","4","","stimuli/stars_4.png","52.5","","","","","stimuli/HM07_DO.jpg","",""
"explore-choice","47","152401","0.0-47.0","p282703","A9LSEP71DNP4O","3RZS0FBRWLGDTA9TUPH81F59AWHPC0","39DD6S19JRHPRWT73RQ67L2FOJVZE9","model","mismatch","uniform","","","","","","","637.9000000022352","151658.5","152296.40000000224","[""stimuli/HM07_DO.jpg"",""stimuli/AM06_HE.jpg"",""stimuli/HM02_SC.jpg"",""stimuli/HM10_FO.jpg""]","stimuli/HM07_DO.jpg","stimuli/AM06_HE.jpg","stimuli/HM02_SC.jpg","stimuli/HM10_FO.jpg","pos1","stimuli/HM07_DO.jpg","DO","HM07","0","2.5","5","6","stimuli/stars_5.png","55","[""DO"",""HE"",""SC"",""FO""]","[""HM07"",""AM06"",""HM02"",""HM10""]","[5,3,8,2]","[6,4,8,2]","","",""
"show-reward","48","154409","0.0-48.0","p282703","A9LSEP71DNP4O","3RZS0FBRWLGDTA9TUPH81F59AWHPC0","39DD6S19JRHPRWT73RQ67L2FOJVZE9","model","mismatch","uniform","","","","","","","","152803.40000000224","154811.1000000015","","","","","","","","","","","","5","","stimuli/stars_5.png","55","","","","","stimuli/HM07_DO.jpg","",""
"explore-choice","49","155818","0.0-49.0","p282703","A9LSEP71DNP4O","3RZS0FBRWLGDTA9TUPH81F59AWHPC0","39DD6S19JRHPRWT73RQ67L2FOJVZE9","model","mismatch","uniform","","","","","","","908.1999999992549","154811.5","155719.69999999925","[""stimuli/HM02_SC.jpg"",""stimuli/HM10_HE.jpg"",""stimuli/AM06_FO.jpg"",""stimuli/HM07_DO.jpg""]","stimuli/HM02_SC.jpg","stimuli/HM10_HE.jpg","stimuli/AM06_FO.jpg","stimuli/HM07_DO.jpg","pos4","stimuli/HM07_DO.jpg","DO","HM07","3","4","8","6","stimuli/stars_8.png","59","[""SC"",""HE"",""FO"",""DO""]","[""HM02"",""HM10"",""AM06"",""HM07""]","[7,0,3,8]","[8,2,4,6]","","",""
"show-reward","50","157824","0.0-50.0","p282703","A9LSEP71DNP4O","3RZS0FBRWLGDTA9TUPH81F59AWHPC0","39DD6S19JRHPRWT73RQ67L2FOJVZE9","model","mismatch","uniform","","","","","","","","156220.6000000015","158226.40000000224","","","","","","","","","","","","8","","stimuli/stars_8.png","59","","","","","stimuli/HM07_DO.jpg","",""
"explore-choice","51","158984","0.0-51.0","p282703","A9LSEP71DNP4O","3RZS0FBRWLGDTA9TUPH81F59AWHPC0","39DD6S19JRHPRWT73RQ67L2FOJVZE9","model","mismatch","uniform","","","","","","","657.1000000014901","158226.80000000075","158883.90000000224","[""stimuli/HM07_HE.jpg"",""stimuli/HM02_FO.jpg"",""stimuli/AM06_DO.jpg"",""stimuli/HM10_SC.jpg""]","stimuli/HM07_HE.jpg","stimuli/HM02_FO.jpg","stimuli/AM06_DO.jpg","stimuli/HM10_SC.jpg","pos1","stimuli/HM07_HE.jpg","HE","HM07","0","2.5","5","6","stimuli/stars_5.png","61.5","[""HE"",""FO"",""DO"",""SC""]","[""HM07"",""HM02"",""AM06"",""HM10""]","[5,6,3,1]","[6,8,4,2]","","",""
"show-reward","52","160987","0.0-52.0","p282703","A9LSEP71DNP4O","3RZS0FBRWLGDTA9TUPH81F59AWHPC0","39DD6S19JRHPRWT73RQ67L2FOJVZE9","model","mismatch","uniform","","","","","","","","159386.90000000224","161389.5","","","","","","","","","","","","5","","stimuli/stars_5.png","61.5","","","","","stimuli/HM07_HE.jpg","",""
"explore-choice","53","162217","0.0-53.0","p282703","A9LSEP71DNP4O","3RZS0FBRWLGDTA9TUPH81F59AWHPC0","39DD6S19JRHPRWT73RQ67L2FOJVZE9","model","mismatch","uniform","","","","","","","727.1999999992549","161390","162117.19999999925","[""stimuli/HM07_FO.jpg"",""stimuli/AM06_SC.jpg"",""stimuli/HM02_HE.jpg"",""stimuli/HM10_DO.jpg""]","stimuli/HM07_FO.jpg","stimuli/AM06_SC.jpg","stimuli/HM02_HE.jpg","stimuli/HM10_DO.jpg","pos1","stimuli/HM07_FO.jpg","FO","HM07","0","4","8","6","stimuli/stars_8.png","65.5","[""FO"",""SC"",""HE"",""DO""]","[""HM07"",""AM06"",""HM02"",""HM10""]","[8,6,8,1]","[6,4,8,2]","","",""
"show-reward","54","164224","0.0-54.0","p282703","A9LSEP71DNP4O","3RZS0FBRWLGDTA9TUPH81F59AWHPC0","39DD6S19JRHPRWT73RQ67L2FOJVZE9","model","mismatch","uniform","","","","","","","","162619.69999999925","164626.19999999925","","","","","","","","","","","","8","","stimuli/stars_8.png","65.5","","","","","stimuli/HM07_FO.jpg","",""
"explore-choice","55","165401","0.0-55.0","p282703","A9LSEP71DNP4O","3RZS0FBRWLGDTA9TUPH81F59AWHPC0","39DD6S19JRHPRWT73RQ67L2FOJVZE9","model","mismatch","uniform","","","","","","","670.8999999985099","164626.6000000015","165297.5","[""stimuli/HM07_FO.jpg"",""stimuli/HM10_HE.jpg"",""stimuli/HM02_SC.jpg"",""stimuli/AM06_DO.jpg""]","stimuli/HM07_FO.jpg","stimuli/HM10_HE.jpg","stimuli/HM02_SC.jpg","stimuli/AM06_DO.jpg","pos1","stimuli/HM07_FO.jpg","FO","HM07","0","4","8","6","stimuli/stars_8.png","69.5","[""FO"",""HE"",""SC"",""DO""]","[""HM07"",""HM10"",""HM02"",""AM06""]","[8,4,9,2]","[6,2,8,4]","","",""
"show-reward","56","167409","0.0-56.0","p282703","A9LSEP71DNP4O","3RZS0FBRWLGDTA9TUPH81F59AWHPC0","39DD6S19JRHPRWT73RQ67L2FOJVZE9","model","mismatch","uniform","","","","","","","","165803.80000000075","167810.90000000224","","","","","","","","","","","","8","","stimuli/stars_8.png","69.5","","","","","stimuli/HM07_FO.jpg","",""
"explore-choice","57","168465","0.0-57.0","p282703","A9LSEP71DNP4O","3RZS0FBRWLGDTA9TUPH81F59AWHPC0","39DD6S19JRHPRWT73RQ67L2FOJVZE9","model","mismatch","uniform","","","","","","","551.8000000007451","167811.30000000075","168363.1000000015","[""stimuli/HM07_FO.jpg"",""stimuli/HM10_DO.jpg"",""stimuli/AM06_HE.jpg"",""stimuli/HM02_SC.jpg""]","stimuli/HM07_FO.jpg","stimuli/HM10_DO.jpg","stimuli/AM06_HE.jpg","stimuli/HM02_SC.jpg","pos1","stimuli/HM07_FO.jpg","FO","HM07","0","3.5","7","6","stimuli/stars_7.png","73","[""FO"",""DO"",""HE"",""SC""]","[""HM07"",""HM10"",""AM06"",""HM02""]","[7,4,6,9]","[6,2,4,8]","","",""
"show-reward","58","170470","0.0-58.0","p282703","A9LSEP71DNP4O","3RZS0FBRWLGDTA9TUPH81F59AWHPC0","39DD6S19JRHPRWT73RQ67L2FOJVZE9","model","mismatch","uniform","","","","","","","","168867.19999999925","170872.6000000015","","","","","","","","","","","","7","","stimuli/stars_7.png","73","","","","","stimuli/HM07_FO.jpg","",""
"explore-choice","59","171864","0.0-59.0","p282703","A9LSEP71DNP4O","3RZS0FBRWLGDTA9TUPH81F59AWHPC0","39DD6S19JRHPRWT73RQ67L2FOJVZE9","model","mismatch","uniform","","","","","","","893","170873.1000000015","171766.1000000015","[""stimuli/HM10_FO.jpg"",""stimuli/AM06_DO.jpg"",""stimuli/HM02_SC.jpg"",""stimuli/HM07_HE.jpg""]","stimuli/HM10_FO.jpg","stimuli/AM06_DO.jpg","stimuli/HM02_SC.jpg","stimuli/HM07_HE.jpg","pos4","stimuli/HM07_HE.jpg","HE","HM07","3","4","8","6","stimuli/stars_8.png","77","[""FO"",""DO"",""SC"",""HE""]","[""HM10"",""AM06"",""HM02"",""HM07""]","[2,2,7,8]","[2,4,8,6]","","",""
"show-reward","60","173872","0.0-60.0","p282703","A9LSEP71DNP4O","3RZS0FBRWLGDTA9TUPH81F59AWHPC0","39DD6S19JRHPRWT73RQ67L2FOJVZE9","model","mismatch","uniform","","","","","","","","172266.80000000075","174274.1000000015","","","","","","","","","","","","8","","stimuli/stars_8.png","77","","","","","stimuli/HM07_HE.jpg","",""
"explore-choice","61","174977","0.0-61.0","p282703","A9LSEP71DNP4O","3RZS0FBRWLGDTA9TUPH81F59AWHPC0","39DD6S19JRHPRWT73RQ67L2FOJVZE9","model","mismatch","uniform","","","","","","","597.8000000007451","174274.80000000075","174872.6000000015","[""stimuli/HM02_DO.jpg"",""stimuli/HM07_SC.jpg"",""stimuli/HM10_HE.jpg"",""stimuli/AM06_FO.jpg""]","stimuli/HM02_DO.jpg","stimuli/HM07_SC.jpg","stimuli/HM10_HE.jpg","stimuli/AM06_FO.jpg","pos2","stimuli/HM07_SC.jpg","SC","HM07","1","2.5","5","6","stimuli/stars_5.png","79.5","[""DO"",""SC"",""HE"",""FO""]","[""HM02"",""HM07"",""HM10"",""AM06""]","[8,5,3,2]","[8,6,2,4]","","",""
"show-reward","62","176984","0.0-62.0","p282703","A9LSEP71DNP4O","3RZS0FBRWLGDTA9TUPH81F59AWHPC0","39DD6S19JRHPRWT73RQ67L2FOJVZE9","model","mismatch","uniform","","","","","","","","175379.30000000075","177386.5","","","","","","","","","","","","5","","stimuli/stars_5.png","79.5","","","","","stimuli/HM07_SC.jpg","",""
"explore-choice","63","178136","0.0-63.0","p282703","A9LSEP71DNP4O","3RZS0FBRWLGDTA9TUPH81F59AWHPC0","39DD6S19JRHPRWT73RQ67L2FOJVZE9","model","mismatch","uniform","","","","","","","648.9000000022352","177387","178035.90000000224","[""stimuli/HM10_DO.jpg"",""stimuli/HM02_HE.jpg"",""stimuli/HM07_FO.jpg"",""stimuli/AM06_SC.jpg""]","stimuli/HM10_DO.jpg","stimuli/HM02_HE.jpg","stimuli/HM07_FO.jpg","stimuli/AM06_SC.jpg","pos3","stimuli/HM07_FO.jpg","FO","HM07","2","4","8","6","stimuli/stars_8.png","83.5","[""DO"",""HE"",""FO"",""SC""]","[""HM10"",""HM02"",""HM07"",""AM06""]","[1,8,8,6]","[2,8,6,4]","","",""
"show-reward","64","180144","0.0-64.0","p282703","A9LSEP71DNP4O","3RZS0FBRWLGDTA9TUPH81F59AWHPC0","39DD6S19JRHPRWT73RQ67L2FOJVZE9","model","mismatch","uniform","","","","","","","","178539","180545.90000000224","","","","","","","","","","","","8","","stimuli/stars_8.png","83.5","","","","","stimuli/HM07_FO.jpg","",""
"explore-choice","65","181313","0.0-65.0","p282703","A9LSEP71DNP4O","3RZS0FBRWLGDTA9TUPH81F59AWHPC0","39DD6S19JRHPRWT73RQ67L2FOJVZE9","model","mismatch","uniform","","","","","","","667.5999999977648","180546.40000000224","181214","[""stimuli/HM02_HE.jpg"",""stimuli/HM07_SC.jpg"",""stimuli/AM06_FO.jpg"",""stimuli/HM10_DO.jpg""]","stimuli/HM02_HE.jpg","stimuli/HM07_SC.jpg","stimuli/AM06_FO.jpg","stimuli/HM10_DO.jpg","pos2","stimuli/HM07_SC.jpg","SC","HM07","1","4","8","6","stimuli/stars_8.png","87.5","[""HE"",""SC"",""FO"",""DO""]","[""HM02"",""HM07"",""AM06"",""HM10""]","[9,8,6,1]","[8,6,4,2]","","",""
"show-reward","66","183320","0.0-66.0","p282703","A9LSEP71DNP4O","3RZS0FBRWLGDTA9TUPH81F59AWHPC0","39DD6S19JRHPRWT73RQ67L2FOJVZE9","model","mismatch","uniform","","","","","","","","181715.5","183721.80000000075","","","","","","","","","","","","8","","stimuli/stars_8.png","87.5","","","","","stimuli/HM07_SC.jpg","",""
"explore-choice","67","184616","0.0-67.0","p282703","A9LSEP71DNP4O","3RZS0FBRWLGDTA9TUPH81F59AWHPC0","39DD6S19JRHPRWT73RQ67L2FOJVZE9","model","mismatch","uniform","","","","","","","790.2999999970198","183722.40000000224","184512.69999999925","[""stimuli/HM10_SC.jpg"",""stimuli/HM02_HE.jpg"",""stimuli/AM06_FO.jpg"",""stimuli/HM07_DO.jpg""]","stimuli/HM10_SC.jpg","stimuli/HM02_HE.jpg","stimuli/AM06_FO.jpg","stimuli/HM07_DO.jpg","pos4","stimuli/HM07_DO.jpg","DO","HM07","3","3","6","6","stimuli/stars_6.png","90.5","[""SC"",""HE"",""FO"",""DO""]","[""HM10"",""HM02"",""AM06"",""HM07""]","[4,9,3,6]","[2,8,4,6]","","",""
"show-reward","68","186624","0.0-68.0","p282703","A9LSEP71DNP4O","3RZS0FBRWLGDTA9TUPH81F59AWHPC0","39DD6S19JRHPRWT73RQ67L2FOJVZE9","model","mismatch","uniform","","","","","","","","185018.80000000075","187025.90000000224","","","","","","","","","","","","6","","stimuli/stars_6.png","90.5","","","","","stimuli/HM07_DO.jpg","",""
"explore-choice","69","187825","0.0-69.0","p282703","A9LSEP71DNP4O","3RZS0FBRWLGDTA9TUPH81F59AWHPC0","39DD6S19JRHPRWT73RQ67L2FOJVZE9","model","mismatch","uniform","","","","","","","698.5","187026.5","187725","[""stimuli/AM06_FO.jpg"",""stimuli/HM10_DO.jpg"",""stimuli/HM07_HE.jpg"",""stimuli/HM02_SC.jpg""]","stimuli/AM06_FO.jpg","stimuli/HM10_DO.jpg","stimuli/HM07_HE.jpg","stimuli/HM02_SC.jpg","pos3","stimuli/HM07_HE.jpg","HE","HM07","2","3","6","6","stimuli/stars_6.png","93.5","[""FO"",""DO"",""HE"",""SC""]","[""AM06"",""HM10"",""HM07"",""HM02""]","[3,2,6,7]","[4,2,6,8]","","",""
"show-reward","70","189829","0.0-70.0","p282703","A9LSEP71DNP4O","3RZS0FBRWLGDTA9TUPH81F59AWHPC0","39DD6S19JRHPRWT73RQ67L2FOJVZE9","model","mismatch","uniform","","","","","","","","188227.30000000075","190231","","","","","","","","","","","","6","","stimuli/stars_6.png","93.5","","","","","stimuli/HM07_HE.jpg","",""
"explore-choice","71","191468","0.0-71.0","p282703","A9LSEP71DNP4O","3RZS0FBRWLGDTA9TUPH81F59AWHPC0","39DD6S19JRHPRWT73RQ67L2FOJVZE9","model","mismatch","uniform","","","","","","","1135.699999999255","190231.5","191367.19999999925","[""stimuli/HM02_FO.jpg"",""stimuli/AM06_DO.jpg"",""stimuli/HM10_SC.jpg"",""stimuli/HM07_HE.jpg""]","stimuli/HM02_FO.jpg","stimuli/AM06_DO.jpg","stimuli/HM10_SC.jpg","stimuli/HM07_HE.jpg","pos4","stimuli/HM07_HE.jpg","HE","HM07","3","2.5","5","6","stimuli/stars_5.png","96","[""FO"",""DO"",""SC"",""HE""]","[""HM02"",""AM06"",""HM10"",""HM07""]","[6,3,1,5]","[8,4,2,6]","","",""
"show-reward","72","193472","0.0-72.0","p282703","A9LSEP71DNP4O","3RZS0FBRWLGDTA9TUPH81F59AWHPC0","39DD6S19JRHPRWT73RQ67L2FOJVZE9","model","mismatch","uniform","","","","","","","","191870.80000000075","193874.30000000075","","","","","","","","","","","","5","","stimuli/stars_5.png","96","","","","","stimuli/HM07_HE.jpg","",""
"explore-choice","73","194577","0.0-73.0","p282703","A9LSEP71DNP4O","3RZS0FBRWLGDTA9TUPH81F59AWHPC0","39DD6S19JRHPRWT73RQ67L2FOJVZE9","model","mismatch","uniform","","","","","","","599.6999999992549","193874.90000000224","194474.6000000015","[""stimuli/HM07_HE.jpg"",""stimuli/HM10_SC.jpg"",""stimuli/AM06_FO.jpg"",""stimuli/HM02_DO.jpg""]","stimuli/HM07_HE.jpg","stimuli/HM10_SC.jpg","stimuli/AM06_FO.jpg","stimuli/HM02_DO.jpg","pos1","stimuli/HM07_HE.jpg","HE","HM07","0","4","8","6","stimuli/stars_8.png","100","[""HE"",""SC"",""FO"",""DO""]","[""HM07"",""HM10"",""AM06"",""HM02""]","[8,3,4,7]","[6,2,4,8]","","",""
"show-reward","74","196580","0.0-74.0","p282703","A9LSEP71DNP4O","3RZS0FBRWLGDTA9TUPH81F59AWHPC0","39DD6S19JRHPRWT73RQ67L2FOJVZE9","model","mismatch","uniform","","","","","","","","194979.90000000224","196982.30000000075","","","","","","","","","","","","8","","stimuli/stars_8.png","100","","","","","stimuli/HM07_HE.jpg","",""
"explore-choice","75","197782","0.0-75.0","p282703","A9LSEP71DNP4O","3RZS0FBRWLGDTA9TUPH81F59AWHPC0","39DD6S19JRHPRWT73RQ67L2FOJVZE9","model","mismatch","uniform","","","","","","","699.3000000007451","196982.6000000015","197681.90000000224","[""stimuli/AM06_HE.jpg"",""stimuli/HM07_DO.jpg"",""stimuli/HM02_SC.jpg"",""stimuli/HM10_FO.jpg""]","stimuli/AM06_HE.jpg","stimuli/HM07_DO.jpg","stimuli/HM02_SC.jpg","stimuli/HM10_FO.jpg","pos2","stimuli/HM07_DO.jpg","DO","HM07","1","2.5","5","6","stimuli/stars_5.png","102.5","[""HE"",""DO"",""SC"",""FO""]","[""AM06"",""HM07"",""HM02"",""HM10""]","[3,5,8,2]","[4,6,8,2]","","",""
"show-reward","76","199784","0.0-76.0","p282703","A9LSEP71DNP4O","3RZS0FBRWLGDTA9TUPH81F59AWHPC0","39DD6S19JRHPRWT73RQ67L2FOJVZE9","model","mismatch","uniform","","","","","","","","198184.6000000015","200186","","","","","","","","","","","","5","","stimuli/stars_5.png","102.5","","","","","stimuli/HM07_DO.jpg","",""
"explore-choice","77","201833","0.0-77.0","p282703","A9LSEP71DNP4O","3RZS0FBRWLGDTA9TUPH81F59AWHPC0","39DD6S19JRHPRWT73RQ67L2FOJVZE9","model","mismatch","uniform","","","","","","","1542.699999999255","200186.5","201729.19999999925","[""stimuli/HM02_DO.jpg"",""stimuli/HM07_FO.jpg"",""stimuli/AM06_HE.jpg"",""stimuli/HM10_SC.jpg""]","stimuli/HM02_DO.jpg","stimuli/HM07_FO.jpg","stimuli/AM06_HE.jpg","stimuli/HM10_SC.jpg","pos2","stimuli/HM07_FO.jpg","FO","HM07","1","2","4","6","stimuli/stars_4.png","104.5","[""DO"",""FO"",""HE"",""SC""]","[""HM02"",""HM07"",""AM06"",""HM10""]","[8,4,4,2]","[8,6,4,2]","","",""
"show-reward","78","203839","0.0-78.0","p282703","A9LSEP71DNP4O","3RZS0FBRWLGDTA9TUPH81F59AWHPC0","39DD6S19JRHPRWT73RQ67L2FOJVZE9","model","mismatch","uniform","","","","","","","","202235.5","204240.80000000075","","","","","","","","","","","","4","","stimuli/stars_4.png","104.5","","","","","stimuli/HM07_FO.jpg","",""
"explore-choice","79","205041","0.0-79.0","p282703","A9LSEP71DNP4O","3RZS0FBRWLGDTA9TUPH81F59AWHPC0","39DD6S19JRHPRWT73RQ67L2FOJVZE9","model","mismatch","uniform","","","","","","","701.3999999985099","204241.30000000075","204942.69999999925","[""stimuli/HM10_DO.jpg"",""stimuli/HM07_HE.jpg"",""stimuli/HM02_FO.jpg"",""stimuli/AM06_SC.jpg""]","stimuli/HM10_DO.jpg","stimuli/HM07_HE.jpg","stimuli/HM02_FO.jpg","stimuli/AM06_SC.jpg","pos2","stimuli/HM07_HE.jpg","HE","HM07","1","2","4","6","stimuli/stars_4.png","106.5","[""DO"",""HE"",""FO"",""SC""]","[""HM10"",""HM07"",""HM02"",""AM06""]","[0,4,8,2]","[2,6,8,4]","","",""
"show-reward","80","207049","0.0-80.0","p282703","A9LSEP71DNP4O","3RZS0FBRWLGDTA9TUPH81F59AWHPC0","39DD6S19JRHPRWT73RQ67L2FOJVZE9","model","mismatch","uniform","","","","","","","","205443.90000000224","207451.40000000224","","","","","","","","","","","","4","","stimuli/stars_4.png","106.5","","","","","stimuli/HM07_HE.jpg","",""
"explore-choice","81","208632","0.0-81.0","p282703","A9LSEP71DNP4O","3RZS0FBRWLGDTA9TUPH81F59AWHPC0","39DD6S19JRHPRWT73RQ67L2FOJVZE9","model","mismatch","uniform","","","","","","","1081.0999999977648","207451.90000000224","208533","[""stimuli/HM10_FO.jpg"",""stimuli/AM06_DO.jpg"",""stimuli/HM02_HE.jpg"",""stimuli/HM07_SC.jpg""]","stimuli/HM10_FO.jpg","stimuli/AM06_DO.jpg","stimuli/HM02_HE.jpg","stimuli/HM07_SC.jpg","pos4","stimuli/HM07_SC.jpg","SC","HM07","3","4","8","6","stimuli/stars_8.png","110.5","[""FO"",""DO"",""HE"",""SC""]","[""HM10"",""AM06"",""HM02"",""HM07""]","[1,3,6,8]","[2,4,8,6]","","",""
"show-reward","82","210638","0.0-82.0","p282703","A9LSEP71DNP4O","3RZS0FBRWLGDTA9TUPH81F59AWHPC0","39DD6S19JRHPRWT73RQ67L2FOJVZE9","model","mismatch","uniform","","","","","","","","209035.1000000015","211040.40000000224","","","","","","","","","","","","8","","stimuli/stars_8.png","110.5","","","","","stimuli/HM07_SC.jpg","",""
"explore-choice","83","212137","0.0-83.0","p282703","A9LSEP71DNP4O","3RZS0FBRWLGDTA9TUPH81F59AWHPC0","39DD6S19JRHPRWT73RQ67L2FOJVZE9","model","mismatch","uniform","","","","","","","995.6999999992549","211040.90000000224","212036.6000000015","[""stimuli/HM02_FO.jpg"",""stimuli/AM06_HE.jpg"",""stimuli/HM07_DO.jpg"",""stimuli/HM10_SC.jpg""]","stimuli/HM02_FO.jpg","stimuli/AM06_HE.jpg","stimuli/HM07_DO.jpg","stimuli/HM10_SC.jpg","pos3","stimuli/HM07_DO.jpg","DO","HM07","2","2","4","6","stimuli/stars_4.png","112.5","[""FO"",""HE"",""DO"",""SC""]","[""HM02"",""AM06"",""HM07"",""HM10""]","[6,2,4,2]","[8,4,6,2]","","",""
"show-reward","84","214143","0.0-84.0","p282703","A9LSEP71DNP4O","3RZS0FBRWLGDTA9TUPH81F59AWHPC0","39DD6S19JRHPRWT73RQ67L2FOJVZE9","model","mismatch","uniform","","","","","","","","212539.80000000075","214545.40000000224","","","","","","","","","","","","4","","stimuli/stars_4.png","112.5","","","","","stimuli/HM07_DO.jpg","",""
"explore-choice","85","216601","0.0-85.0","p282703","A9LSEP71DNP4O","3RZS0FBRWLGDTA9TUPH81F59AWHPC0","39DD6S19JRHPRWT73RQ67L2FOJVZE9","model","mismatch","uniform","","","","","","","1951.8999999985099","214545.90000000224","216497.80000000075","[""stimuli/HM02_SC.jpg"",""stimuli/AM06_FO.jpg"",""stimuli/HM07_DO.jpg"",""stimuli/HM10_HE.jpg""]","stimuli/HM02_SC.jpg","stimuli/AM06_FO.jpg","stimuli/HM07_DO.jpg","stimuli/HM10_HE.jpg","pos1","stimuli/HM02_SC.jpg","SC","HM02","0","3.5","7","8","stimuli/stars_7.png","116","[""SC"",""FO"",""DO"",""HE""]","[""HM02"",""AM06"",""HM07"",""HM10""]","[7,3,8,0]","[8,4,6,2]","","",""
"show-reward","86","218608","0.0-86.0","p282703","A9LSEP71DNP4O","3RZS0FBRWLGDTA9TUPH81F59AWHPC0","39DD6S19JRHPRWT73RQ67L2FOJVZE9","model","mismatch","uniform","","","","","","","","217004","219010.5","","","","","","","","","","","","7","","stimuli/stars_7.png","116","","","","","stimuli/HM02_SC.jpg","",""
"explore-choice","87","220047","0.0-87.0","p282703","A9LSEP71DNP4O","3RZS0FBRWLGDTA9TUPH81F59AWHPC0","39DD6S19JRHPRWT73RQ67L2FOJVZE9","model","mismatch","uniform","","","","","","","932.3999999985099","219010.90000000224","219943.30000000075","[""stimuli/HM10_FO.jpg"",""stimuli/AM06_SC.jpg"",""stimuli/HM07_DO.jpg"",""stimuli/HM02_HE.jpg""]","stimuli/HM10_FO.jpg","stimuli/AM06_SC.jpg","stimuli/HM07_DO.jpg","stimuli/HM02_HE.jpg","pos3","stimuli/HM07_DO.jpg","DO","HM07","2","3.5","7","6","stimuli/stars_7.png","119.5","[""FO"",""SC"",""DO"",""HE""]","[""HM10"",""AM06"",""HM07"",""HM02""]","[0,2,7,9]","[2,4,6,8]","","",""
"show-reward","88","222050","0.0-88.0","p282703","A9LSEP71DNP4O","3RZS0FBRWLGDTA9TUPH81F59AWHPC0","39DD6S19JRHPRWT73RQ67L2FOJVZE9","model","mismatch","uniform","","","","","","","","220449.40000000224","222452.6000000015","","","","","","","","","","","","7","","stimuli/stars_7.png","119.5","","","","","stimuli/HM07_DO.jpg","",""
"explore-choice","89","223217","0.0-89.0","p282703","A9LSEP71DNP4O","3RZS0FBRWLGDTA9TUPH81F59AWHPC0","39DD6S19JRHPRWT73RQ67L2FOJVZE9","model","mismatch","uniform","","","","","","","663.4000000022352","222453.19999999925","223116.6000000015","[""stimuli/HM02_HE.jpg"",""stimuli/HM10_SC.jpg"",""stimuli/AM06_DO.jpg"",""stimuli/HM07_FO.jpg""]","stimuli/HM02_HE.jpg","stimuli/HM10_SC.jpg","stimuli/AM06_DO.jpg","stimuli/HM07_FO.jpg","pos1","stimuli/HM02_HE.jpg","HE","HM02","0","3.5","7","8","stimuli/stars_7.png","123","[""HE"",""SC"",""DO"",""FO""]","[""HM02"",""HM10"",""AM06"",""HM07""]","[7,0,5,5]","[8,2,4,6]","","",""
"show-reward","90","225225","0.0-90.0","p282703","A9LSEP71DNP4O","3RZS0FBRWLGDTA9TUPH81F59AWHPC0","39DD6S19JRHPRWT73RQ67L2FOJVZE9","model","mismatch","uniform","","","","","","","","223619.6000000015","225627.1000000015","","","","","","","","","","","","7","","stimuli/stars_7.png","123","","","","","stimuli/HM02_HE.jpg","",""
"explore-choice","91","226607","0.0-91.0","p282703","A9LSEP71DNP4O","3RZS0FBRWLGDTA9TUPH81F59AWHPC0","39DD6S19JRHPRWT73RQ67L2FOJVZE9","model","mismatch","uniform","","","","","","","877.3999999985099","225627.6000000015","226505","[""stimuli/HM02_DO.jpg"",""stimuli/HM07_FO.jpg"",""stimuli/HM10_HE.jpg"",""stimuli/AM06_SC.jpg""]","stimuli/HM02_DO.jpg","stimuli/HM07_FO.jpg","stimuli/HM10_HE.jpg","stimuli/AM06_SC.jpg","pos2","stimuli/HM07_FO.jpg","FO","HM07","1","3.5","7","6","stimuli/stars_7.png","126.5","[""DO"",""FO"",""HE"",""SC""]","[""HM02"",""HM07"",""HM10"",""AM06""]","[10,7,1,4]","[8,6,2,4]","","",""
"show-reward","92","228610","0.0-92.0","p282703","A9LSEP71DNP4O","3RZS0FBRWLGDTA9TUPH81F59AWHPC0","39DD6S19JRHPRWT73RQ67L2FOJVZE9","model","mismatch","uniform","","","","","","","","227009.5","229012.80000000075","","","","","","","","","","","","7","","stimuli/stars_7.png","126.5","","","","","stimuli/HM07_FO.jpg","",""
"explore-choice","93","229833","0.0-93.0","p282703","A9LSEP71DNP4O","3RZS0FBRWLGDTA9TUPH81F59AWHPC0","39DD6S19JRHPRWT73RQ67L2FOJVZE9","model","mismatch","uniform","","","","","","","715.8999999985099","229013.40000000224","229729.30000000075","[""stimuli/HM07_SC.jpg"",""stimuli/HM10_FO.jpg"",""stimuli/AM06_HE.jpg"",""stimuli/HM02_DO.jpg""]","stimuli/HM07_SC.jpg","stimuli/HM10_FO.jpg","stimuli/AM06_HE.jpg","stimuli/HM02_DO.jpg","pos1","stimuli/HM07_SC.jpg","SC","HM07","0","3.5","7","6","stimuli/stars_7.png","130","[""SC"",""FO"",""HE"",""DO""]","[""HM07"",""HM10"",""AM06"",""HM02""]","[7,3,5,9]","[6,2,4,8]","","",""
"show-reward","94","231840","0.0-94.0","p282703","A9LSEP71DNP4O","3RZS0FBRWLGDTA9TUPH81F59AWHPC0","39DD6S19JRHPRWT73RQ67L2FOJVZE9","model","mismatch","uniform","","","","","","","","230235.80000000075","232242.30000000075","","","","","","","","","","","","7","","stimuli/stars_7.png","130","","","","","stimuli/HM07_SC.jpg","",""
"explore-choice","95","233736","0.0-95.0","p282703","A9LSEP71DNP4O","3RZS0FBRWLGDTA9TUPH81F59AWHPC0","39DD6S19JRHPRWT73RQ67L2FOJVZE9","model","mismatch","uniform","","","","","","","1387.699999999255","232242.80000000075","233630.5","[""stimuli/HM02_DO.jpg"",""stimuli/HM07_HE.jpg"",""stimuli/HM10_FO.jpg"",""stimuli/AM06_SC.jpg""]","stimuli/HM02_DO.jpg","stimuli/HM07_HE.jpg","stimuli/HM10_FO.jpg","stimuli/AM06_SC.jpg","pos2","stimuli/HM07_HE.jpg","HE","HM07","1","3.5","7","6","stimuli/stars_7.png","133.5","[""DO"",""HE"",""FO"",""SC""]","[""HM02"",""HM07"",""HM10"",""AM06""]","[6,7,3,5]","[8,6,2,4]","","",""
"show-reward","96","235740","0.0-96.0","p282703","A9LSEP71DNP4O","3RZS0FBRWLGDTA9TUPH81F59AWHPC0","39DD6S19JRHPRWT73RQ67L2FOJVZE9","model","mismatch","uniform","","","","","","","","234139.1000000015","236142.19999999925","","","","","","","","","","","","7","","stimuli/stars_7.png","133.5","","","","","stimuli/HM07_HE.jpg","",""
"explore-choice","97","237824","0.0-97.0","p282703","A9LSEP71DNP4O","3RZS0FBRWLGDTA9TUPH81F59AWHPC0","39DD6S19JRHPRWT73RQ67L2FOJVZE9","model","mismatch","uniform","","","","","","","1578.5","236142.69999999925","237721.19999999925","[""stimuli/HM07_DO.jpg"",""stimuli/HM10_HE.jpg"",""stimuli/AM06_SC.jpg"",""stimuli/HM02_FO.jpg""]","stimuli/HM07_DO.jpg","stimuli/HM10_HE.jpg","stimuli/AM06_SC.jpg","stimuli/HM02_FO.jpg","pos4","stimuli/HM02_FO.jpg","FO","HM02","3","4","8","8","stimuli/stars_8.png","137.5","[""DO"",""HE"",""SC"",""FO""]","[""HM07"",""HM10"",""AM06"",""HM02""]","[7,3,3,8]","[6,2,4,8]","","",""
"show-reward","98","239832","0.0-98.0","p282703","A9LSEP71DNP4O","3RZS0FBRWLGDTA9TUPH81F59AWHPC0","39DD6S19JRHPRWT73RQ67L2FOJVZE9","model","mismatch","uniform","","","","","","","","238227.30000000075","240234.19999999925","","","","","","","","","","","","8","","stimuli/stars_8.png","137.5","","","","","stimuli/HM02_FO.jpg","",""
"explore-choice","99","240976","0.0-99.0","p282703","A9LSEP71DNP4O","3RZS0FBRWLGDTA9TUPH81F59AWHPC0","39DD6S19JRHPRWT73RQ67L2FOJVZE9","model","mismatch","uniform","","","","","","","636.6000000014901","240234.80000000075","240871.40000000224","[""stimuli/AM06_DO.jpg"",""stimuli/HM02_FO.jpg"",""stimuli/HM10_HE.jpg"",""stimuli/HM07_SC.jpg""]","stimuli/AM06_DO.jpg","stimuli/HM02_FO.jpg","stimuli/HM10_HE.jpg","stimuli/HM07_SC.jpg","pos2","stimuli/HM02_FO.jpg","FO","HM02","1","4.5","9","8","stimuli/stars_9.png","142","[""DO"",""FO"",""HE"",""SC""]","[""AM06"",""HM02"",""HM10"",""HM07""]","[5,9,1,4]","[4,8,2,6]","","",""
"show-reward","100","242984","0.0-100.0","p282703","A9LSEP71DNP4O","3RZS0FBRWLGDTA9TUPH81F59AWHPC0","39DD6S19JRHPRWT73RQ67L2FOJVZE9","model","mismatch","uniform","","","","","","","","241379.1000000015","243386","","","","","","","","","","","","9","","stimuli/stars_9.png","142","","","","","stimuli/HM02_FO.jpg","",""
"explore-choice","101","244353","0.0-101.0","p282703","A9LSEP71DNP4O","3RZS0FBRWLGDTA9TUPH81F59AWHPC0","39DD6S19JRHPRWT73RQ67L2FOJVZE9","model","mismatch","uniform","","","","","","","866.0999999977648","243386.6000000015","244252.69999999925","[""stimuli/AM06_HE.jpg"",""stimuli/HM02_FO.jpg"",""stimuli/HM07_SC.jpg"",""stimuli/HM10_DO.jpg""]","stimuli/AM06_HE.jpg","stimuli/HM02_FO.jpg","stimuli/HM07_SC.jpg","stimuli/HM10_DO.jpg","pos2","stimuli/HM02_FO.jpg","FO","HM02","1","5","10","8","stimuli/stars_10.png","147","[""HE"",""FO"",""SC"",""DO""]","[""AM06"",""HM02"",""HM07"",""HM10""]","[2,10,8,0]","[4,8,6,2]","","",""
"show-reward","102","246360","0.0-102.0","p282703","A9LSEP71DNP4O","3RZS0FBRWLGDTA9TUPH81F59AWHPC0","39DD6S19JRHPRWT73RQ67L2FOJVZE9","model","mismatch","uniform","","","","","","","","244756.19999999925","246762.40000000224","","","","","","","","","","","","10","","stimuli/stars_10.png","147","","","","","stimuli/HM02_FO.jpg","",""
"explore-choice","103","248581","0.0-103.0","p282703","A9LSEP71DNP4O","3RZS0FBRWLGDTA9TUPH81F59AWHPC0","39DD6S19JRHPRWT73RQ67L2FOJVZE9","model","mismatch","uniform","","","","","","","1717.5","246763","248480.5","[""stimuli/BM03_HO.jpg"",""stimuli/AM03_SUR.jpg"",""stimuli/AF10_AO.jpg"",""stimuli/AF09_CC.jpg""]","stimuli/BM03_HO.jpg","stimuli/AM03_SUR.jpg","stimuli/AF10_AO.jpg","stimuli/AF09_CC.jpg","pos1","stimuli/BM03_HO.jpg","HO","BM03","0","4","8","8","stimuli/stars_8.png","151","[""HO"",""SUR"",""AO"",""CC""]","[""BM03"",""AM03"",""AF10"",""AF09""]","[8,0,6,8]","[8,2,4,6]","","",""
"show-reward","104","250584","0.0-104.0","p282703","A9LSEP71DNP4O","3RZS0FBRWLGDTA9TUPH81F59AWHPC0","39DD6S19JRHPRWT73RQ67L2FOJVZE9","model","mismatch","uniform","","","","","","","","248983.6000000015","250986.69999999925","","","","","","","","","","","","8","","stimuli/stars_8.png","151","","","","","stimuli/BM03_HO.jpg","",""
"explore-choice","105","251832","0.0-105.0","p282703","A9LSEP71DNP4O","3RZS0FBRWLGDTA9TUPH81F59AWHPC0","39DD6S19JRHPRWT73RQ67L2FOJVZE9","model","mismatch","uniform","","","","","","","742.2000000029802","250987.19999999925","251729.40000000224","[""stimuli/AF10_HO.jpg"",""stimuli/BM03_SUR.jpg"",""stimuli/AM03_AO.jpg"",""stimuli/AF09_CC.jpg""]","stimuli/AF10_HO.jpg","stimuli/BM03_SUR.jpg","stimuli/AM03_AO.jpg","stimuli/AF09_CC.jpg","pos2","stimuli/BM03_SUR.jpg","SUR","BM03","1","0.5","1","2","stimuli/stars_1.png","151.5","[""HO"",""SUR"",""AO"",""CC""]","[""AF10"",""BM03"",""AM03"",""AF09""]","[8,1,6,7]","[8,2,4,6]","","",""
"show-reward","106","253841","0.0-106.0","p282703","A9LSEP71DNP4O","3RZS0FBRWLGDTA9TUPH81F59AWHPC0","39DD6S19JRHPRWT73RQ67L2FOJVZE9","model","mismatch","uniform","","","","","","","","252234.80000000075","254243.69999999925","","","","","","","","","","","","1","","stimuli/stars_1.png","151.5","","","","","stimuli/BM03_SUR.jpg","",""
"explore-choice","107","254992","0.0-107.0","p282703","A9LSEP71DNP4O","3RZS0FBRWLGDTA9TUPH81F59AWHPC0","39DD6S19JRHPRWT73RQ67L2FOJVZE9","model","mismatch","uniform","","","","","","","648.7000000029802","254244.19999999925","254892.90000000224","[""stimuli/BM03_AO.jpg"",""stimuli/AF10_SUR.jpg"",""stimuli/AM03_HO.jpg"",""stimuli/AF09_CC.jpg""]","stimuli/BM03_AO.jpg","stimuli/AF10_SUR.jpg","stimuli/AM03_HO.jpg","stimuli/AF09_CC.jpg","pos1","stimuli/BM03_AO.jpg","AO","BM03","0","2.5","5","4","stimuli/stars_5.png","154","[""AO"",""SUR"",""HO"",""CC""]","[""BM03"",""AF10"",""AM03"",""AF09""]","[5,3,10,8]","[4,2,8,6]","","",""
"show-reward","108","257001","0.0-108.0","p282703","A9LSEP71DNP4O","3RZS0FBRWLGDTA9TUPH81F59AWHPC0","39DD6S19JRHPRWT73RQ67L2FOJVZE9","model","mismatch","uniform","","","","","","","","255394.80000000075","257403","","","","","","","","","","","","5","","stimuli/stars_5.png","154","","","","","stimuli/BM03_AO.jpg","",""
"explore-choice","109","258432","0.0-109.0","p282703","A9LSEP71DNP4O","3RZS0FBRWLGDTA9TUPH81F59AWHPC0","39DD6S19JRHPRWT73RQ67L2FOJVZE9","model","mismatch","uniform","","","","","","","926.6999999992549","257403.6000000015","258330.30000000075","[""stimuli/AM03_AO.jpg"",""stimuli/BM03_HO.jpg"",""stimuli/AF10_CC.jpg"",""stimuli/AF09_SUR.jpg""]","stimuli/AM03_AO.jpg","stimuli/BM03_HO.jpg","stimuli/AF10_CC.jpg","stimuli/AF09_SUR.jpg","pos1","stimuli/AM03_AO.jpg","AO","AM03","0","3","6","4","stimuli/stars_6.png","157","[""AO"",""HO"",""CC"",""SUR""]","[""AM03"",""BM03"",""AF10"",""AF09""]","[6,6,8,1]","[4,8,6,2]","","",""
"show-reward","110","260434","0.0-110.0","p282703","A9LSEP71DNP4O","3RZS0FBRWLGDTA9TUPH81F59AWHPC0","39DD6S19JRHPRWT73RQ67L2FOJVZE9","model","mismatch","uniform","","","","","","","","258835.19999999925","260836.80000000075","","","","","","","","","","","","6","","stimuli/stars_6.png","157","","","","","stimuli/AM03_AO.jpg","",""
"explore-choice","111","261616","0.0-111.0","p282703","A9LSEP71DNP4O","3RZS0FBRWLGDTA9TUPH81F59AWHPC0","39DD6S19JRHPRWT73RQ67L2FOJVZE9","model","mismatch","uniform","","","","","","","673.1999999992549","260837.30000000075","261510.5","[""stimuli/BM03_CC.jpg"",""stimuli/AF09_HO.jpg"",""stimuli/AM03_AO.jpg"",""stimuli/AF10_SUR.jpg""]","stimuli/BM03_CC.jpg","stimuli/AF09_HO.jpg","stimuli/AM03_AO.jpg","stimuli/AF10_SUR.jpg","pos3","stimuli/AM03_AO.jpg","AO","AM03","2","2.5","5","4","stimuli/stars_5.png","159.5","[""CC"",""HO"",""AO"",""SUR""]","[""BM03"",""AF09"",""AM03"",""AF10""]","[6,8,5,2]","[6,8,4,2]","","",""
"show-reward","112","263621","0.0-112.0","p282703","A9LSEP71DNP4O","3RZS0FBRWLGDTA9TUPH81F59AWHPC0","39DD6S19JRHPRWT73RQ67L2FOJVZE9","model","mismatch","uniform","","","","","","","","262018.6000000015","264023.40000000224","","","","","","","","","","","","5","","stimuli/stars_5.png","159.5","","","","","stimuli/AM03_AO.jpg","",""
"explore-choice","113","264593","0.0-113.0","p282703","A9LSEP71DNP4O","3RZS0FBRWLGDTA9TUPH81F59AWHPC0","39DD6S19JRHPRWT73RQ67L2FOJVZE9","model","mismatch","uniform","","","","","","","470","264023.90000000224","264493.90000000224","[""stimuli/AF09_HO.jpg"",""stimuli/BM03_CC.jpg"",""stimuli/AF10_AO.jpg"",""stimuli/AM03_SUR.jpg""]","stimuli/AF09_HO.jpg","stimuli/BM03_CC.jpg","stimuli/AF10_AO.jpg","stimuli/AM03_SUR.jpg","pos4","stimuli/AM03_SUR.jpg","SUR","AM03","3","2","4","2","stimuli/stars_4.png","161.5","[""HO"",""CC"",""AO"",""SUR""]","[""AF09"",""BM03"",""AF10"",""AM03""]","[7,4,4,4]","[8,6,4,2]","","",""
"show-reward","114","266595","0.0-114.0","p282703","A9LSEP71DNP4O","3RZS0FBRWLGDTA9TUPH81F59AWHPC0","39DD6S19JRHPRWT73RQ67L2FOJVZE9","model","mismatch","uniform","","","","","","","","264996.30000000075","266997.40000000224","","","","","","","","","","","","4","","stimuli/stars_4.png","161.5","","","","","stimuli/AM03_SUR.jpg","",""
"explore-choice","115","267872","0.0-115.0","p282703","A9LSEP71DNP4O","3RZS0FBRWLGDTA9TUPH81F59AWHPC0","39DD6S19JRHPRWT73RQ67L2FOJVZE9","model","mismatch","uniform","","","","","","","771.2999999970198","266997.90000000224","267769.19999999925","[""stimuli/AM03_CC.jpg"",""stimuli/BM03_AO.jpg"",""stimuli/AF09_SUR.jpg"",""stimuli/AF10_HO.jpg""]","stimuli/AM03_CC.jpg","stimuli/BM03_AO.jpg","stimuli/AF09_SUR.jpg","stimuli/AF10_HO.jpg","pos3","stimuli/AF09_SUR.jpg","SUR","AF09","2","0","0","2","stimuli/stars_0.png","161.5","[""CC"",""AO"",""SUR"",""HO""]","[""AM03"",""BM03"",""AF09"",""AF10""]","[8,4,0,8]","[6,4,2,8]","","",""
"show-reward","116","269879","0.0-116.0","p282703","A9LSEP71DNP4O","3RZS0FBRWLGDTA9TUPH81F59AWHPC0","39DD6S19JRHPRWT73RQ67L2FOJVZE9","model","mismatch","uniform","","","","","","","","268274.69999999925","270281.1000000015","","","","","","","","","","","","0","","stimuli/stars_0.png","161.5","","","","","stimuli/AF09_SUR.jpg","",""
"explore-choice","117","271033","0.0-117.0","p282703","A9LSEP71DNP4O","3RZS0FBRWLGDTA9TUPH81F59AWHPC0","39DD6S19JRHPRWT73RQ67L2FOJVZE9","model","mismatch","uniform","","","","","","","646.8999999985099","270281.6000000015","270928.5","[""stimuli/AF10_SUR.jpg"",""stimuli/BM03_CC.jpg"",""stimuli/AF09_AO.jpg"",""stimuli/AM03_HO.jpg""]","stimuli/AF10_SUR.jpg","stimuli/BM03_CC.jpg","stimuli/AF09_AO.jpg","stimuli/AM03_HO.jpg","pos3","stimuli/AF09_AO.jpg","AO","AF09","2","1","2","4","stimuli/stars_2.png","162.5","[""SUR"",""CC"",""AO"",""HO""]","[""AF10"",""BM03"",""AF09"",""AM03""]","[4,6,2,9]","[2,6,4,8]","","",""
"show-reward","118","273034","0.0-118.0","p282703","A9LSEP71DNP4O","3RZS0FBRWLGDTA9TUPH81F59AWHPC0","39DD6S19JRHPRWT73RQ67L2FOJVZE9","model","mismatch","uniform","","","","","","","","271436","273436.69999999925","","","","","","","","","","","","2","","stimuli/stars_2.png","162.5","","","","","stimuli/AF09_AO.jpg","",""
"explore-choice","119","274104","0.0-119.0","p282703","A9LSEP71DNP4O","3RZS0FBRWLGDTA9TUPH81F59AWHPC0","39DD6S19JRHPRWT73RQ67L2FOJVZE9","model","mismatch","uniform","","","","","","","566.5","273437.30000000075","274003.80000000075","[""stimuli/AF10_AO.jpg"",""stimuli/BM03_SUR.jpg"",""stimuli/AF09_CC.jpg"",""stimuli/AM03_HO.jpg""]","stimuli/AF10_AO.jpg","stimuli/BM03_SUR.jpg","stimuli/AF09_CC.jpg","stimuli/AM03_HO.jpg","pos1","stimuli/AF10_AO.jpg","AO","AF10","0","2","4","4","stimuli/stars_4.png","164.5","[""AO"",""SUR"",""CC"",""HO""]","[""AF10"",""BM03"",""AF09"",""AM03""]","[4,4,4,8]","[4,2,6,8]","","",""
"show-reward","120","276112","0.0-120.0","p282703","A9LSEP71DNP4O","3RZS0FBRWLGDTA9TUPH81F59AWHPC0","39DD6S19JRHPRWT73RQ67L2FOJVZE9","model","mismatch","uniform","","","","","","","","274507.1000000015","276514.40000000224","","","","","","","","","","","","4","","stimuli/stars_4.png","164.5","","","","","stimuli/AF10_AO.jpg","",""
"explore-choice","121","277737","0.0-121.0","p282703","A9LSEP71DNP4O","3RZS0FBRWLGDTA9TUPH81F59AWHPC0","39DD6S19JRHPRWT73RQ67L2FOJVZE9","model","mismatch","uniform","","","","","","","1123.2999999970198","276514.90000000224","277638.19999999925","[""stimuli/AM03_AO.jpg"",""stimuli/AF10_SUR.jpg"",""stimuli/AF09_CC.jpg"",""stimuli/BM03_HO.jpg""]","stimuli/AM03_AO.jpg","stimuli/AF10_SUR.jpg","stimuli/AF09_CC.jpg","stimuli/BM03_HO.jpg","pos2","stimuli/AF10_SUR.jpg","SUR","AF10","1","1","2","2","stimuli/stars_2.png","165.5","[""AO"",""SUR"",""CC"",""HO""]","[""AM03"",""AF10"",""AF09"",""BM03""]","[6,2,8,8]","[4,2,6,8]","","",""
"show-reward","122","279739","0.0-122.0","p282703","A9LSEP71DNP4O","3RZS0FBRWLGDTA9TUPH81F59AWHPC0","39DD6S19JRHPRWT73RQ67L2FOJVZE9","model","mismatch","uniform","","","","","","","","278140.19999999925","280141.80000000075","","","","","","","","","","","","2","","stimuli/stars_2.png","165.5","","","","","stimuli/AF10_SUR.jpg","",""
"explore-choice","123","281800","0.0-123.0","p282703","A9LSEP71DNP4O","3RZS0FBRWLGDTA9TUPH81F59AWHPC0","39DD6S19JRHPRWT73RQ67L2FOJVZE9","model","mismatch","uniform","","","","","","","1554.199999999255","280142.40000000224","281696.6000000015","[""stimuli/AF10_HO.jpg"",""stimuli/AM03_AO.jpg"",""stimuli/BM03_CC.jpg"",""stimuli/AF09_SUR.jpg""]","stimuli/AF10_HO.jpg","stimuli/AM03_AO.jpg","stimuli/BM03_CC.jpg","stimuli/AF09_SUR.jpg","pos2","stimuli/AM03_AO.jpg","AO","AM03","1","1","2","4","stimuli/stars_2.png","166.5","[""HO"",""AO"",""CC"",""SUR""]","[""AF10"",""AM03"",""BM03"",""AF09""]","[7,2,5,1]","[8,4,6,2]","","",""
"show-reward","124","283805","0.0-124.0","p282703","A9LSEP71DNP4O","3RZS0FBRWLGDTA9TUPH81F59AWHPC0","39DD6S19JRHPRWT73RQ67L2FOJVZE9","model","mismatch","uniform","","","","","","","","282202.90000000224","284207.40000000224","","","","","","","","","","","","2","","stimuli/stars_2.png","166.5","","","","","stimuli/AM03_AO.jpg","",""
"explore-choice","125","284752","0.0-125.0","p282703","A9LSEP71DNP4O","3RZS0FBRWLGDTA9TUPH81F59AWHPC0","39DD6S19JRHPRWT73RQ67L2FOJVZE9","model","mismatch","uniform","","","","","","","442.19999999925494","284207.80000000075","284650","[""stimuli/AM03_SUR.jpg"",""stimuli/AF09_AO.jpg"",""stimuli/BM03_CC.jpg"",""stimuli/AF10_HO.jpg""]","stimuli/AM03_SUR.jpg","stimuli/AF09_AO.jpg","stimuli/BM03_CC.jpg","stimuli/AF10_HO.jpg","pos3","stimuli/BM03_CC.jpg","CC","BM03","2","3","6","6","stimuli/stars_6.png","169.5","[""SUR"",""AO"",""CC"",""HO""]","[""AM03"",""AF09"",""BM03"",""AF10""]","[0,4,6,8]","[2,4,6,8]","","",""
"show-reward","126","286757","0.0-126.0","p282703","A9LSEP71DNP4O","3RZS0FBRWLGDTA9TUPH81F59AWHPC0","39DD6S19JRHPRWT73RQ67L2FOJVZE9","model","mismatch","uniform","","","","","","","","285154.6000000015","287159.69999999925","","","","","","","","","","","","6","","stimuli/stars_6.png","169.5","","","","","stimuli/BM03_CC.jpg","",""
"explore-choice","127","288032","0.0-127.0","p282703","A9LSEP71DNP4O","3RZS0FBRWLGDTA9TUPH81F59AWHPC0","39DD6S19JRHPRWT73RQ67L2FOJVZE9","model","mismatch","uniform","","","","","","","773.0999999977648","287160.1000000015","287933.19999999925","[""stimuli/AM03_SUR.jpg"",""stimuli/AF09_CC.jpg"",""stimuli/AF10_HO.jpg"",""stimuli/BM03_AO.jpg""]","stimuli/AM03_SUR.jpg","stimuli/AF09_CC.jpg","stimuli/AF10_HO.jpg","stimuli/BM03_AO.jpg","pos4","stimuli/BM03_AO.jpg","AO","BM03","3","1.5","3","4","stimuli/stars_3.png","171","[""SUR"",""CC"",""HO"",""AO""]","[""AM03"",""AF09"",""AF10"",""BM03""]","[0,7,10,3]","[2,6,8,4]","","",""
"show-reward","128","290035","0.0-128.0","p282703","A9LSEP71DNP4O","3RZS0FBRWLGDTA9TUPH81F59AWHPC0","39DD6S19JRHPRWT73RQ67L2FOJVZE9","model","mismatch","uniform","","","","","","","","288435.19999999925","290437.6000000015","","","","","","","","","","","","3","","stimuli/stars_3.png","171","","","","","stimuli/BM03_AO.jpg","",""
"explore-choice","129","291073","0.0-129.0","p282703","A9LSEP71DNP4O","3RZS0FBRWLGDTA9TUPH81F59AWHPC0","39DD6S19JRHPRWT73RQ67L2FOJVZE9","model","mismatch","uniform","","","","","","","533.5","290438.19999999925","290971.69999999925","[""stimuli/BM03_HO.jpg"",""stimuli/AM03_SUR.jpg"",""stimuli/AF09_AO.jpg"",""stimuli/AF10_CC.jpg""]","stimuli/BM03_HO.jpg","stimuli/AM03_SUR.jpg","stimuli/AF09_AO.jpg","stimuli/AF10_CC.jpg","pos1","stimuli/BM03_HO.jpg","HO","BM03","0","4","8","8","stimuli/stars_8.png","175","[""HO"",""SUR"",""AO"",""CC""]","[""BM03"",""AM03"",""AF09"",""AF10""]","[8,3,2,8]","[8,2,4,6]","","",""
"show-reward","130","293081","0.0-130.0","p282703","A9LSEP71DNP4O","3RZS0FBRWLGDTA9TUPH81F59AWHPC0","39DD6S19JRHPRWT73RQ67L2FOJVZE9","model","mismatch","uniform","","","","","","","","291476","293482.90000000224","","","","","","","","","","","","8","","stimuli/stars_8.png","175","","","","","stimuli/BM03_HO.jpg","",""
"explore-choice","131","294161","0.0-131.0","p282703","A9LSEP71DNP4O","3RZS0FBRWLGDTA9TUPH81F59AWHPC0","39DD6S19JRHPRWT73RQ67L2FOJVZE9","model","mismatch","uniform","","","","","","","575.5","293483.5","294059","[""stimuli/AF10_AO.jpg"",""stimuli/AF09_HO.jpg"",""stimuli/BM03_SUR.jpg"",""stimuli/AM03_CC.jpg""]","stimuli/AF10_AO.jpg","stimuli/AF09_HO.jpg","stimuli/BM03_SUR.jpg","stimuli/AM03_CC.jpg","pos3","stimuli/BM03_SUR.jpg","SUR","BM03","2","0","0","2","stimuli/stars_0.png","175","[""AO"",""HO"",""SUR"",""CC""]","[""AF10"",""AF09"",""BM03"",""AM03""]","[4,9,0,7]","[4,8,2,6]","","",""
"show-reward","132","296168","0.0-132.0","p282703","A9LSEP71DNP4O","3RZS0FBRWLGDTA9TUPH81F59AWHPC0","39DD6S19JRHPRWT73RQ67L2FOJVZE9","model","mismatch","uniform","","","","","","","","294563.5","296570.40000000224","","","","","","","","","","","","0","","stimuli/stars_0.png","175","","","","","stimuli/BM03_SUR.jpg","",""
"explore-choice","133","297489","0.0-133.0","p282703","A9LSEP71DNP4O","3RZS0FBRWLGDTA9TUPH81F59AWHPC0","39DD6S19JRHPRWT73RQ67L2FOJVZE9","model","mismatch","uniform","","","","","","","815.1999999992549","296570.90000000224","297386.1000000015","[""stimuli/AM03_HO.jpg"",""stimuli/BM03_SUR.jpg"",""stimuli/AF10_CC.jpg"",""stimuli/AF09_AO.jpg""]","stimuli/AM03_HO.jpg","stimuli/BM03_SUR.jpg","stimuli/AF10_CC.jpg","stimuli/AF09_AO.jpg","pos2","stimuli/BM03_SUR.jpg","SUR","BM03","1","2","4","2","stimuli/stars_4.png","177","[""HO"",""SUR"",""CC"",""AO""]","[""AM03"",""BM03"",""AF10"",""AF09""]","[6,4,8,5]","[8,2,6,4]","","",""
"show-reward","134","299496","0.0-134.0","p282703","A9LSEP71DNP4O","3RZS0FBRWLGDTA9TUPH81F59AWHPC0","39DD6S19JRHPRWT73RQ67L2FOJVZE9","model","mismatch","uniform","","","","","","","","297891.6000000015","299898.6000000015","","","","","","","","","","","","4","","stimuli/stars_4.png","177","","","","","stimuli/BM03_SUR.jpg","",""
"explore-choice","135","301558","0.0-135.0","p282703","A9LSEP71DNP4O","3RZS0FBRWLGDTA9TUPH81F59AWHPC0","39DD6S19JRHPRWT73RQ67L2FOJVZE9","model","mismatch","uniform","","","","","","","1556.5999999977648","299899.1000000015","301455.69999999925","[""stimuli/BM03_SUR.jpg"",""stimuli/AF09_HO.jpg"",""stimuli/AF10_CC.jpg"",""stimuli/AM03_AO.jpg""]","stimuli/BM03_SUR.jpg","stimuli/AF09_HO.jpg","stimuli/AF10_CC.jpg","stimuli/AM03_AO.jpg","pos1","stimuli/BM03_SUR.jpg","SUR","BM03","0","1","2","2","stimuli/stars_2.png","178","[""SUR"",""HO"",""CC"",""AO""]","[""BM03"",""AF09"",""AF10"",""AM03""]","[2,6,7,4]","[2,8,6,4]","","",""
"show-reward","136","303563","0.0-136.0","p282703","A9LSEP71DNP4O","3RZS0FBRWLGDTA9TUPH81F59AWHPC0","39DD6S19JRHPRWT73RQ67L2FOJVZE9","model","mismatch","uniform","","","","","","","","301961.30000000075","303965.30000000075","","","","","","","","","","","","2","","stimuli/stars_2.png","178","","","","","stimuli/BM03_SUR.jpg","",""
"explore-choice","137","304849","0.0-137.0","p282703","A9LSEP71DNP4O","3RZS0FBRWLGDTA9TUPH81F59AWHPC0","39DD6S19JRHPRWT73RQ67L2FOJVZE9","model","mismatch","uniform","","","","","","","778.3000000007451","303965.69999999925","304744","[""stimuli/AF10_HO.jpg"",""stimuli/AF09_AO.jpg"",""stimuli/BM03_SUR.jpg"",""stimuli/AM03_CC.jpg""]","stimuli/AF10_HO.jpg","stimuli/AF09_AO.jpg","stimuli/BM03_SUR.jpg","stimuli/AM03_CC.jpg","pos4","stimuli/AM03_CC.jpg","CC","AM03","3","2","4","6","stimuli/stars_4.png","180","[""HO"",""AO"",""SUR"",""CC""]","[""AF10"",""AF09"",""BM03"",""AM03""]","[7,6,3,4]","[8,4,2,6]","","",""
"show-reward","138","306854","0.0-138.0","p282703","A9LSEP71DNP4O","3RZS0FBRWLGDTA9TUPH81F59AWHPC0","39DD6S19JRHPRWT73RQ67L2FOJVZE9","model","mismatch","uniform","","","","","","","","305252.30000000075","307256.80000000075","","","","","","","","","","","","4","","stimuli/stars_4.png","180","","","","","stimuli/AM03_CC.jpg","",""
"explore-choice","139","307977","0.0-139.0","p282703","A9LSEP71DNP4O","3RZS0FBRWLGDTA9TUPH81F59AWHPC0","39DD6S19JRHPRWT73RQ67L2FOJVZE9","model","mismatch","uniform","","","","","","","618","307257.30000000075","307875.30000000075","[""stimuli/AF09_SUR.jpg"",""stimuli/AM03_CC.jpg"",""stimuli/AF10_AO.jpg"",""stimuli/BM03_HO.jpg""]","stimuli/AF09_SUR.jpg","stimuli/AM03_CC.jpg","stimuli/AF10_AO.jpg","stimuli/BM03_HO.jpg","pos4","stimuli/BM03_HO.jpg","HO","BM03","3","4","8","8","stimuli/stars_8.png","184","[""SUR"",""CC"",""AO"",""HO""]","[""AF09"",""AM03"",""AF10"",""BM03""]","[1,8,6,8]","[2,6,4,8]","","",""
"show-reward","140","309984","0.0-140.0","p282703","A9LSEP71DNP4O","3RZS0FBRWLGDTA9TUPH81F59AWHPC0","39DD6S19JRHPRWT73RQ67L2FOJVZE9","model","mismatch","uniform","","","","","","","","308379.80000000075","310386.19999999925","","","","","","","","","","","","8","","stimuli/stars_8.png","184","","","","","stimuli/BM03_HO.jpg","",""
"explore-choice","141","311072","0.0-141.0","p282703","A9LSEP71DNP4O","3RZS0FBRWLGDTA9TUPH81F59AWHPC0","39DD6S19JRHPRWT73RQ67L2FOJVZE9","model","mismatch","uniform","","","","","","","584.2000000029802","310386.69999999925","310970.90000000224","[""stimuli/AM03_SUR.jpg"",""stimuli/AF10_CC.jpg"",""stimuli/AF09_HO.jpg"",""stimuli/BM03_AO.jpg""]","stimuli/AM03_SUR.jpg","stimuli/AF10_CC.jpg","stimuli/AF09_HO.jpg","stimuli/BM03_AO.jpg","pos2","stimuli/AF10_CC.jpg","CC","AF10","1","3.5","7","6","stimuli/stars_7.png","187.5","[""SUR"",""CC"",""HO"",""AO""]","[""AM03"",""AF10"",""AF09"",""BM03""]","[2,7,6,4]","[2,6,8,4]","","",""
"show-reward","142","313075","0.0-142.0","p282703","A9LSEP71DNP4O","3RZS0FBRWLGDTA9TUPH81F59AWHPC0","39DD6S19JRHPRWT73RQ67L2FOJVZE9","model","mismatch","uniform","","","","","","","","311474.90000000224","313477","","","","","","","","","","","","7","","stimuli/stars_7.png","187.5","","","","","stimuli/AF10_CC.jpg","",""
"explore-choice","143","314207","0.0-143.0","p282703","A9LSEP71DNP4O","3RZS0FBRWLGDTA9TUPH81F59AWHPC0","39DD6S19JRHPRWT73RQ67L2FOJVZE9","model","mismatch","uniform","","","","","","","627.5","313477.40000000224","314104.90000000224","[""stimuli/AF10_SUR.jpg"",""stimuli/AF09_AO.jpg"",""stimuli/BM03_HO.jpg"",""stimuli/AM03_CC.jpg""]","stimuli/AF10_SUR.jpg","stimuli/AF09_AO.jpg","stimuli/BM03_HO.jpg","stimuli/AM03_CC.jpg","pos1","stimuli/AF10_SUR.jpg","SUR","AF10","0","0","0","2","stimuli/stars_0.png","187.5","[""SUR"",""AO"",""HO"",""CC""]","[""AF10"",""AF09"",""BM03"",""AM03""]","[0,4,10,5]","[2,4,8,6]","","",""
"show-reward","144","316217","0.0-144.0","p282703","A9LSEP71DNP4O","3RZS0FBRWLGDTA9TUPH81F59AWHPC0","39DD6S19JRHPRWT73RQ67L2FOJVZE9","model","mismatch","uniform","","","","","","","","314609.6000000015","316619.80000000075","","","","","","","","","","","","0","","stimuli/stars_0.png","187.5","","","","","stimuli/AF10_SUR.jpg","",""
"explore-choice","145","317449","0.0-145.0","p282703","A9LSEP71DNP4O","3RZS0FBRWLGDTA9TUPH81F59AWHPC0","39DD6S19JRHPRWT73RQ67L2FOJVZE9","model","mismatch","uniform","","","","","","","724","316620.30000000075","317344.30000000075","[""stimuli/BM03_AO.jpg"",""stimuli/AF10_SUR.jpg"",""stimuli/AF09_HO.jpg"",""stimuli/AM03_CC.jpg""]","stimuli/BM03_AO.jpg","stimuli/AF10_SUR.jpg","stimuli/AF09_HO.jpg","stimuli/AM03_CC.jpg","pos2","stimuli/AF10_SUR.jpg","SUR","AF10","1","1","2","2","stimuli/stars_2.png","188.5","[""AO"",""SUR"",""HO"",""CC""]","[""BM03"",""AF10"",""AF09"",""AM03""]","[4,2,6,5]","[4,2,8,6]","","",""
"show-reward","146","319451","0.0-146.0","p282703","A9LSEP71DNP4O","3RZS0FBRWLGDTA9TUPH81F59AWHPC0","39DD6S19JRHPRWT73RQ67L2FOJVZE9","model","mismatch","uniform","","","","","","","","317851.40000000224","319853.1000000015","","","","","","","","","","","","2","","stimuli/stars_2.png","188.5","","","","","stimuli/AF10_SUR.jpg","",""
"explore-choice","147","320706","0.0-147.0","p282703","A9LSEP71DNP4O","3RZS0FBRWLGDTA9TUPH81F59AWHPC0","39DD6S19JRHPRWT73RQ67L2FOJVZE9","model","mismatch","uniform","","","","","","","748","319853.80000000075","320601.80000000075","[""stimuli/BM03_AO.jpg"",""stimuli/AF10_CC.jpg"",""stimuli/AM03_HO.jpg"",""stimuli/AF09_SUR.jpg""]","stimuli/BM03_AO.jpg","stimuli/AF10_CC.jpg","stimuli/AM03_HO.jpg","stimuli/AF09_SUR.jpg","pos2","stimuli/AF10_CC.jpg","CC","AF10","1","3","6","6","stimuli/stars_6.png","191.5","[""AO"",""CC"",""HO"",""SUR""]","[""BM03"",""AF10"",""AM03"",""AF09""]","[4,6,10,0]","[4,6,8,2]","","",""
"show-reward","148","322712","0.0-148.0","p282703","A9LSEP71DNP4O","3RZS0FBRWLGDTA9TUPH81F59AWHPC0","39DD6S19JRHPRWT73RQ67L2FOJVZE9","model","mismatch","uniform","","","","","","","","321108.69999999925","323114.5","","","","","","","","","","","","6","","stimuli/stars_6.png","191.5","","","","","stimuli/AF10_CC.jpg","",""
"explore-choice","149","324341","0.0-149.0","p282703","A9LSEP71DNP4O","3RZS0FBRWLGDTA9TUPH81F59AWHPC0","39DD6S19JRHPRWT73RQ67L2FOJVZE9","model","mismatch","uniform","","","","","","","1126","323115","324241","[""stimuli/AF10_AO.jpg"",""stimuli/AF09_SUR.jpg"",""stimuli/BM03_CC.jpg"",""stimuli/AM03_HO.jpg""]","stimuli/AF10_AO.jpg","stimuli/AF09_SUR.jpg","stimuli/BM03_CC.jpg","stimuli/AM03_HO.jpg","pos4","stimuli/AM03_HO.jpg","HO","AM03","3","5","10","8","stimuli/stars_10.png","196.5","[""AO"",""SUR"",""CC"",""HO""]","[""AF10"",""AF09"",""BM03"",""AM03""]","[5,4,4,10]","[4,2,6,8]","","",""
"show-reward","150","326342","0.0-150.0","p282703","A9LSEP71DNP4O","3RZS0FBRWLGDTA9TUPH81F59AWHPC0","39DD6S19JRHPRWT73RQ67L2FOJVZE9","model","mismatch","uniform","","","","","","","","324743.5","326744.80000000075","","","","","","","","","","","","10","","stimuli/stars_10.png","196.5","","","","","stimuli/AM03_HO.jpg","",""
"explore-choice","151","327770","0.0-151.0","p282703","A9LSEP71DNP4O","3RZS0FBRWLGDTA9TUPH81F59AWHPC0","39DD6S19JRHPRWT73RQ67L2FOJVZE9","model","mismatch","uniform","","","","","","","918.7000000029802","326745.19999999925","327663.90000000224","[""stimuli/BM03_AO.jpg"",""stimuli/AF09_HO.jpg"",""stimuli/AF10_CC.jpg"",""stimuli/AM03_SUR.jpg""]","stimuli/BM03_AO.jpg","stimuli/AF09_HO.jpg","stimuli/AF10_CC.jpg","stimuli/AM03_SUR.jpg","pos2","stimuli/AF09_HO.jpg","HO","AF09","1","3","6","8","stimuli/stars_6.png","199.5","[""AO"",""HO"",""CC"",""SUR""]","[""BM03"",""AF09"",""AF10"",""AM03""]","[4,6,7,2]","[4,8,6,2]","","",""
"show-reward","152","329772","0.0-152.0","p282703","A9LSEP71DNP4O","3RZS0FBRWLGDTA9TUPH81F59AWHPC0","39DD6S19JRHPRWT73RQ67L2FOJVZE9","model","mismatch","uniform","","","","","","","","328172.6000000015","330174.40000000224","","","","","","","","","","","","6","","stimuli/stars_6.png","199.5","","","","","stimuli/AF09_HO.jpg","",""
"explore-choice","153","330807","0.0-153.0","p282703","A9LSEP71DNP4O","3RZS0FBRWLGDTA9TUPH81F59AWHPC0","39DD6S19JRHPRWT73RQ67L2FOJVZE9","model","mismatch","uniform","","","","","","","533.1999999992549","330174.90000000224","330708.1000000015","[""stimuli/AM03_HO.jpg"",""stimuli/BM03_SUR.jpg"",""stimuli/AF10_CC.jpg"",""stimuli/AF09_AO.jpg""]","stimuli/AM03_HO.jpg","stimuli/BM03_SUR.jpg","stimuli/AF10_CC.jpg","stimuli/AF09_AO.jpg","pos2","stimuli/BM03_SUR.jpg","SUR","BM03","1","2","4","2","stimuli/stars_4.png","201.5","[""HO"",""SUR"",""CC"",""AO""]","[""AM03"",""BM03"",""AF10"",""AF09""]","[6,4,8,5]","[8,2,6,4]","","",""
"show-reward","154","332809","0.0-154.0","p282703","A9LSEP71DNP4O","3RZS0FBRWLGDTA9TUPH81F59AWHPC0","39DD6S19JRHPRWT73RQ67L2FOJVZE9","model","mismatch","uniform","","","","","","","","331210","333211","","","","","","","","","","","","4","","stimuli/stars_4.png","201.5","","","","","stimuli/BM03_SUR.jpg","",""
"explore-choice","155","334607","0.0-155.0","p282703","A9LSEP71DNP4O","3RZS0FBRWLGDTA9TUPH81F59AWHPC0","39DD6S19JRHPRWT73RQ67L2FOJVZE9","model","mismatch","uniform","","","","","","","1294.300000000745","333211.69999999925","334506","[""stimuli/BM03_SUR.jpg"",""stimuli/AF10_CC.jpg"",""stimuli/AM03_AO.jpg"",""stimuli/AF09_HO.jpg""]","stimuli/BM03_SUR.jpg","stimuli/AF10_CC.jpg","stimuli/AM03_AO.jpg","stimuli/AF09_HO.jpg","pos4","stimuli/AF09_HO.jpg","HO","AF09","3","3","6","8","stimuli/stars_6.png","204.5","[""SUR"",""CC"",""AO"",""HO""]","[""BM03"",""AF10"",""AM03"",""AF09""]","[2,7,4,6]","[2,6,4,8]","","",""
"show-reward","156","336612","0.0-156.0","p282703","A9LSEP71DNP4O","3RZS0FBRWLGDTA9TUPH81F59AWHPC0","39DD6S19JRHPRWT73RQ67L2FOJVZE9","model","mismatch","uniform","","","","","","","","335009.40000000224","337014.90000000224","","","","","","","","","","","","6","","stimuli/stars_6.png","204.5","","","","","stimuli/AF09_HO.jpg","",""
"explore-choice","157","337706","0.0-157.0","p282703","A9LSEP71DNP4O","3RZS0FBRWLGDTA9TUPH81F59AWHPC0","39DD6S19JRHPRWT73RQ67L2FOJVZE9","model","mismatch","uniform","","","","","","","585.1999999992549","337015.40000000224","337600.6000000015","[""stimuli/BM03_CC.jpg"",""stimuli/AF09_SUR.jpg"",""stimuli/AM03_AO.jpg"",""stimuli/AF10_HO.jpg""]","stimuli/BM03_CC.jpg","stimuli/AF09_SUR.jpg","stimuli/AM03_AO.jpg","stimuli/AF10_HO.jpg","pos1","stimuli/BM03_CC.jpg","CC","BM03","0","2.5","5","6","stimuli/stars_5.png","207","[""CC"",""SUR"",""AO"",""HO""]","[""BM03"",""AF09"",""AM03"",""AF10""]","[5,1,2,7]","[6,2,4,8]","","",""
"show-reward","158","339711","0.0-158.0","p282703","A9LSEP71DNP4O","3RZS0FBRWLGDTA9TUPH81F59AWHPC0","39DD6S19JRHPRWT73RQ67L2FOJVZE9","model","mismatch","uniform","","","","","","","","338108.6000000015","340113.19999999925","","","","","","","","","","","","5","","stimuli/stars_5.png","207","","","","","stimuli/BM03_CC.jpg","",""
"explore-choice","159","340809","0.0-159.0","p282703","A9LSEP71DNP4O","3RZS0FBRWLGDTA9TUPH81F59AWHPC0","39DD6S19JRHPRWT73RQ67L2FOJVZE9","model","mismatch","uniform","","","","","","","589","340113.6000000015","340702.6000000015","[""stimuli/AM03_CC.jpg"",""stimuli/AF10_HO.jpg"",""stimuli/AF09_SUR.jpg"",""stimuli/BM03_AO.jpg""]","stimuli/AM03_CC.jpg","stimuli/AF10_HO.jpg","stimuli/AF09_SUR.jpg","stimuli/BM03_AO.jpg","pos2","stimuli/AF10_HO.jpg","HO","AF10","1","4","8","8","stimuli/stars_8.png","211","[""CC"",""HO"",""SUR"",""AO""]","[""AM03"",""AF10"",""AF09"",""BM03""]","[8,8,0,4]","[6,8,2,4]","","",""
"show-reward","160","342812","0.0-160.0","p282703","A9LSEP71DNP4O","3RZS0FBRWLGDTA9TUPH81F59AWHPC0","39DD6S19JRHPRWT73RQ67L2FOJVZE9","model","mismatch","uniform","","","","","","","","341211.6000000015","343214.5","","","","","","","","","","","","8","","stimuli/stars_8.png","211","","","","","stimuli/AF10_HO.jpg","",""
"explore-choice","161","343736","0.0-161.0","p282703","A9LSEP71DNP4O","3RZS0FBRWLGDTA9TUPH81F59AWHPC0","39DD6S19JRHPRWT73RQ67L2FOJVZE9","model","mismatch","uniform","","","","","","","421.9000000022352","343215","343636.90000000224","[""stimuli/AM03_SUR.jpg"",""stimuli/AF09_CC.jpg"",""stimuli/AF10_AO.jpg"",""stimuli/BM03_HO.jpg""]","stimuli/AM03_SUR.jpg","stimuli/AF09_CC.jpg","stimuli/AF10_AO.jpg","stimuli/BM03_HO.jpg","pos2","stimuli/AF09_CC.jpg","CC","AF09","1","4","8","6","stimuli/stars_8.png","215","[""SUR"",""CC"",""AO"",""HO""]","[""AM03"",""AF09"",""AF10"",""BM03""]","[0,8,6,8]","[2,6,4,8]","","",""
"show-reward","162","345740","0.0-162.0","p282703","A9LSEP71DNP4O","3RZS0FBRWLGDTA9TUPH81F59AWHPC0","39DD6S19JRHPRWT73RQ67L2FOJVZE9","model","mismatch","uniform","","","","","","","","344138.90000000224","346142.80000000075","","","","","","","","","","","","8","","stimuli/stars_8.png","215","","","","","stimuli/AF09_CC.jpg","",""
"explore-choice","163","347136","0.0-163.0","p282703","A9LSEP71DNP4O","3RZS0FBRWLGDTA9TUPH81F59AWHPC0","39DD6S19JRHPRWT73RQ67L2FOJVZE9","model","mismatch","uniform","","","","","","","891","346143.30000000075","347034.30000000075","[""stimuli/BM03_HO.jpg"",""stimuli/AM03_AO.jpg"",""stimuli/AF09_CC.jpg"",""stimuli/AF10_SUR.jpg""]","stimuli/BM03_HO.jpg","stimuli/AM03_AO.jpg","stimuli/AF09_CC.jpg","stimuli/AF10_SUR.jpg","pos4","stimuli/AF10_SUR.jpg","SUR","AF10","3","1","2","2","stimuli/stars_2.png","216","[""HO"",""AO"",""CC"",""SUR""]","[""BM03"",""AM03"",""AF09"",""AF10""]","[8,6,8,2]","[8,4,6,2]","","",""
"show-reward","164","349138","0.0-164.0","p282703","A9LSEP71DNP4O","3RZS0FBRWLGDTA9TUPH81F59AWHPC0","39DD6S19JRHPRWT73RQ67L2FOJVZE9","model","mismatch","uniform","","","","","","","","347538.80000000075","349540.1000000015","","","","","","","","","","","","2","","stimuli/stars_2.png","216","","","","","stimuli/AF10_SUR.jpg","",""
"explore-choice","165","350112","0.0-165.0","p282703","A9LSEP71DNP4O","3RZS0FBRWLGDTA9TUPH81F59AWHPC0","39DD6S19JRHPRWT73RQ67L2FOJVZE9","model","mismatch","uniform","","","","","","","470.19999999925494","349540.5","350010.69999999925","[""stimuli/AF10_SUR.jpg"",""stimuli/BM03_CC.jpg"",""stimuli/AM03_AO.jpg"",""stimuli/AF09_HO.jpg""]","stimuli/AF10_SUR.jpg","stimuli/BM03_CC.jpg","stimuli/AM03_AO.jpg","stimuli/AF09_HO.jpg","pos2","stimuli/BM03_CC.jpg","CC","BM03","1","3","6","6","stimuli/stars_6.png","219","[""SUR"",""CC"",""AO"",""HO""]","[""AF10"",""BM03"",""AM03"",""AF09""]","[2,6,5,8]","[2,6,4,8]","","",""
"show-reward","166","352114","0.0-166.0","p282703","A9LSEP71DNP4O","3RZS0FBRWLGDTA9TUPH81F59AWHPC0","39DD6S19JRHPRWT73RQ67L2FOJVZE9","model","mismatch","uniform","","","","","","","","350515.1000000015","352516.6000000015","","","","","","","","","","","","6","","stimuli/stars_6.png","219","","","","","stimuli/BM03_CC.jpg","",""
"explore-choice","167","352865","0.0-167.0","p282703","A9LSEP71DNP4O","3RZS0FBRWLGDTA9TUPH81F59AWHPC0","39DD6S19JRHPRWT73RQ67L2FOJVZE9","model","mismatch","uniform","","","","","","","246.80000000074506","352517.19999999925","352764","[""stimuli/AM03_SUR.jpg"",""stimuli/AF09_HO.jpg"",""stimuli/BM03_CC.jpg"",""stimuli/AF10_AO.jpg""]","stimuli/AM03_SUR.jpg","stimuli/AF09_HO.jpg","stimuli/BM03_CC.jpg","stimuli/AF10_AO.jpg","pos2","stimuli/AF09_HO.jpg","HO","AF09","1","3.5","7","8","stimuli/stars_7.png","222.5","[""SUR"",""HO"",""CC"",""AO""]","[""AM03"",""AF09"",""BM03"",""AF10""]","[4,7,4,4]","[2,8,6,4]","","",""
"show-reward","168","354868","0.0-168.0","p282703","A9LSEP71DNP4O","3RZS0FBRWLGDTA9TUPH81F59AWHPC0","39DD6S19JRHPRWT73RQ67L2FOJVZE9","model","mismatch","uniform","","","","","","","","353268","355270.69999999925","","","","","","","","","","","","7","","stimuli/stars_7.png","222.5","","","","","stimuli/AF09_HO.jpg","",""
"explore-choice","169","355698","0.0-169.0","p282703","A9LSEP71DNP4O","3RZS0FBRWLGDTA9TUPH81F59AWHPC0","39DD6S19JRHPRWT73RQ67L2FOJVZE9","model","mismatch","uniform","","","","","","","325.30000000074506","355271.1000000015","355596.40000000224","[""stimuli/AF10_AO.jpg"",""stimuli/AM03_HO.jpg"",""stimuli/BM03_CC.jpg"",""stimuli/AF09_SUR.jpg""]","stimuli/AF10_AO.jpg","stimuli/AM03_HO.jpg","stimuli/BM03_CC.jpg","stimuli/AF09_SUR.jpg","pos2","stimuli/AM03_HO.jpg","HO","AM03","1","5","10","8","stimuli/stars_10.png","227.5","[""AO"",""HO"",""CC"",""SUR""]","[""AF10"",""AM03"",""BM03"",""AF09""]","[5,10,4,4]","[4,8,6,2]","","",""
"show-reward","170","357701","0.0-170.0","p282703","A9LSEP71DNP4O","3RZS0FBRWLGDTA9TUPH81F59AWHPC0","39DD6S19JRHPRWT73RQ67L2FOJVZE9","model","mismatch","uniform","","","","","","","","356100.40000000224","358103.40000000224","","","","","","","","","","","","10","","stimuli/stars_10.png","227.5","","","","","stimuli/AM03_HO.jpg","",""
"explore-choice","171","358480","0.0-171.0","p282703","A9LSEP71DNP4O","3RZS0FBRWLGDTA9TUPH81F59AWHPC0","39DD6S19JRHPRWT73RQ67L2FOJVZE9","model","mismatch","uniform","","","","","","","272.69999999925494","358103.90000000224","358376.6000000015","[""stimuli/AF10_CC.jpg"",""stimuli/AM03_SUR.jpg"",""stimuli/AF09_AO.jpg"",""stimuli/BM03_HO.jpg""]","stimuli/AF10_CC.jpg","stimuli/AM03_SUR.jpg","stimuli/AF09_AO.jpg","stimuli/BM03_HO.jpg","pos2","stimuli/AM03_SUR.jpg","SUR","AM03","1","1.5","3","2","stimuli/stars_3.png","229","[""CC"",""SUR"",""AO"",""HO""]","[""AF10"",""AM03"",""AF09"",""BM03""]","[8,3,2,8]","[6,2,4,8]","","",""
"show-reward","172","360488","0.0-172.0","p282703","A9LSEP71DNP4O","3RZS0FBRWLGDTA9TUPH81F59AWHPC0","39DD6S19JRHPRWT73RQ67L2FOJVZE9","model","mismatch","uniform","","","","","","","","358883.19999999925","360890.19999999925","","","","","","","","","","","","3","","stimuli/stars_3.png","229","","","","","stimuli/AM03_SUR.jpg","",""
"explore-choice","173","361273","0.0-173.0","p282703","A9LSEP71DNP4O","3RZS0FBRWLGDTA9TUPH81F59AWHPC0","39DD6S19JRHPRWT73RQ67L2FOJVZE9","model","mismatch","uniform","","","","","","","281.20000000298023","360890.69999999925","361171.90000000224","[""stimuli/AF10_AO.jpg"",""stimuli/BM03_SUR.jpg"",""stimuli/AF09_CC.jpg"",""stimuli/AM03_HO.jpg""]","stimuli/AF10_AO.jpg","stimuli/BM03_SUR.jpg","stimuli/AF09_CC.jpg","stimuli/AM03_HO.jpg","pos2","stimuli/BM03_SUR.jpg","SUR","BM03","1","2","4","2","stimuli/stars_4.png","231","[""AO"",""SUR"",""CC"",""HO""]","[""AF10"",""BM03"",""AF09"",""AM03""]","[4,4,4,8]","[4,2,6,8]","","",""
"show-reward","174","363279","0.0-174.0","p282703","A9LSEP71DNP4O","3RZS0FBRWLGDTA9TUPH81F59AWHPC0","39DD6S19JRHPRWT73RQ67L2FOJVZE9","model","mismatch","uniform","","","","","","","","361675.80000000075","363680.90000000224","","","","","","","","","","","","4","","stimuli/stars_4.png","231","","","","","stimuli/BM03_SUR.jpg","",""
"explore-choice","175","364089","0.0-175.0","p282703","A9LSEP71DNP4O","3RZS0FBRWLGDTA9TUPH81F59AWHPC0","39DD6S19JRHPRWT73RQ67L2FOJVZE9","model","mismatch","uniform","","","","","","","307.29999999701977","363681.40000000224","363988.69999999925","[""stimuli/BM03_HO.jpg"",""stimuli/AF09_SUR.jpg"",""stimuli/AM03_CC.jpg"",""stimuli/AF10_AO.jpg""]","stimuli/BM03_HO.jpg","stimuli/AF09_SUR.jpg","stimuli/AM03_CC.jpg","stimuli/AF10_AO.jpg","pos2","stimuli/AF09_SUR.jpg","SUR","AF09","1","0.5","1","2","stimuli/stars_1.png","231.5","[""HO"",""SUR"",""CC"",""AO""]","[""BM03"",""AF09"",""AM03"",""AF10""]","[8,1,8,6]","[8,2,6,4]","","",""
"show-reward","176","366092","0.0-176.0","p282703","A9LSEP71DNP4O","3RZS0FBRWLGDTA9TUPH81F59AWHPC0","39DD6S19JRHPRWT73RQ67L2FOJVZE9","model","mismatch","uniform","","","","","","","","364491.69999999925","366494","","","","","","","","","","","","1","","stimuli/stars_1.png","231.5","","","","","stimuli/AF09_SUR.jpg","",""
"explore-choice","177","366929","0.0-177.0","p282703","A9LSEP71DNP4O","3RZS0FBRWLGDTA9TUPH81F59AWHPC0","39DD6S19JRHPRWT73RQ67L2FOJVZE9","model","mismatch","uniform","","","","","","","331.9000000022352","366494.5","366826.40000000224","[""stimuli/AM03_HO.jpg"",""stimuli/AF09_CC.jpg"",""stimuli/AF10_SUR.jpg"",""stimuli/BM03_AO.jpg""]","stimuli/AM03_HO.jpg","stimuli/AF09_CC.jpg","stimuli/AF10_SUR.jpg","stimuli/BM03_AO.jpg","pos2","stimuli/AF09_CC.jpg","CC","AF09","1","4","8","6","stimuli/stars_8.png","235.5","[""HO"",""CC"",""SUR"",""AO""]","[""AM03"",""AF09"",""AF10"",""BM03""]","[10,8,3,5]","[8,6,2,4]","","",""
"show-reward","178","368932","0.0-178.0","p282703","A9LSEP71DNP4O","3RZS0FBRWLGDTA9TUPH81F59AWHPC0","39DD6S19JRHPRWT73RQ67L2FOJVZE9","model","mismatch","uniform","","","","","","","","367332","369334.80000000075","","","","","","","","","","","","8","","stimuli/stars_8.png","235.5","","","","","stimuli/AF09_CC.jpg","",""
"explore-choice","179","369689","0.0-179.0","p282703","A9LSEP71DNP4O","3RZS0FBRWLGDTA9TUPH81F59AWHPC0","39DD6S19JRHPRWT73RQ67L2FOJVZE9","model","mismatch","uniform","","","","","","","252.39999999850988","369335.40000000224","369587.80000000075","[""stimuli/AF10_HO.jpg"",""stimuli/AM03_SUR.jpg"",""stimuli/AF09_AO.jpg"",""stimuli/BM03_CC.jpg""]","stimuli/AF10_HO.jpg","stimuli/AM03_SUR.jpg","stimuli/AF09_AO.jpg","stimuli/BM03_CC.jpg","pos2","stimuli/AM03_SUR.jpg","SUR","AM03","1","0","0","2","stimuli/stars_0.png","235.5","[""HO"",""SUR"",""AO"",""CC""]","[""AF10"",""AM03"",""AF09"",""BM03""]","[8,0,4,6]","[8,2,4,6]","","",""
"show-reward","180","371691","0.0-180.0","p282703","A9LSEP71DNP4O","3RZS0FBRWLGDTA9TUPH81F59AWHPC0","39DD6S19JRHPRWT73RQ67L2FOJVZE9","model","mismatch","uniform","","","","","","","","370091.6000000015","372093.40000000224","","","","","","","","","","","","0","","stimuli/stars_0.png","235.5","","","","","stimuli/AM03_SUR.jpg","",""
"explore-choice","181","372593","0.0-181.0","p282703","A9LSEP71DNP4O","3RZS0FBRWLGDTA9TUPH81F59AWHPC0","39DD6S19JRHPRWT73RQ67L2FOJVZE9","model","mismatch","uniform","","","","","","","394.19999999925494","372093.90000000224","372488.1000000015","[""stimuli/AF09_HO.jpg"",""stimuli/AF10_SUR.jpg"",""stimuli/AM03_CC.jpg"",""stimuli/BM03_AO.jpg""]","stimuli/AF09_HO.jpg","stimuli/AF10_SUR.jpg","stimuli/AM03_CC.jpg","stimuli/BM03_AO.jpg","pos2","stimuli/AF10_SUR.jpg","SUR","AF10","1","1","2","2","stimuli/stars_2.png","236.5","[""HO"",""SUR"",""CC"",""AO""]","[""AF09"",""AF10"",""AM03"",""BM03""]","[6,2,5,4]","[8,2,6,4]","","",""
"show-reward","182","374600","0.0-182.0","p282703","A9LSEP71DNP4O","3RZS0FBRWLGDTA9TUPH81F59AWHPC0","39DD6S19JRHPRWT73RQ67L2FOJVZE9","model","mismatch","uniform","","","","","","","","372995.90000000224","375002.5","","","","","","","","","","","","2","","stimuli/stars_2.png","236.5","","","","","stimuli/AF10_SUR.jpg","",""
"explore-choice","183","375441","0.0-183.0","p282703","A9LSEP71DNP4O","3RZS0FBRWLGDTA9TUPH81F59AWHPC0","39DD6S19JRHPRWT73RQ67L2FOJVZE9","model","mismatch","uniform","","","","","","","332.5","375003","375335.5","[""stimuli/AF10_SUR.jpg"",""stimuli/BM03_CC.jpg"",""stimuli/AF09_AO.jpg"",""stimuli/AM03_HO.jpg""]","stimuli/AF10_SUR.jpg","stimuli/BM03_CC.jpg","stimuli/AF09_AO.jpg","stimuli/AM03_HO.jpg","pos2","stimuli/BM03_CC.jpg","CC","BM03","1","3","6","6","stimuli/stars_6.png","239.5","[""SUR"",""CC"",""AO"",""HO""]","[""AF10"",""BM03"",""AF09"",""AM03""]","[4,6,2,9]","[2,6,4,8]","","",""
"show-reward","184","377448","0.0-184.0","p282703","A9LSEP71DNP4O","3RZS0FBRWLGDTA9TUPH81F59AWHPC0","39DD6S19JRHPRWT73RQ67L2FOJVZE9","model","mismatch","uniform","","","","","","","","375843.6000000015","377850.1000000015","","","","","","","","","","","","6","","stimuli/stars_6.png","239.5","","","","","stimuli/BM03_CC.jpg","",""
"explore-choice","185","378992","0.0-185.0","p282703","A9LSEP71DNP4O","3RZS0FBRWLGDTA9TUPH81F59AWHPC0","39DD6S19JRHPRWT73RQ67L2FOJVZE9","model","mismatch","uniform","","","","","","","1036.9000000022352","377850.69999999925","378887.6000000015","[""stimuli/AM03_SUR.jpg"",""stimuli/AF09_CC.jpg"",""stimuli/BM03_AO.jpg"",""stimuli/AF10_HO.jpg""]","stimuli/AM03_SUR.jpg","stimuli/AF09_CC.jpg","stimuli/BM03_AO.jpg","stimuli/AF10_HO.jpg","pos1","stimuli/AM03_SUR.jpg","SUR","AM03","0","0","0","2","stimuli/stars_0.png","239.5","[""SUR"",""CC"",""AO"",""HO""]","[""AM03"",""AF09"",""BM03"",""AF10""]","[0,7,3,10]","[2,6,4,8]","","",""
"show-reward","186","380997","0.0-186.0","p282703","A9LSEP71DNP4O","3RZS0FBRWLGDTA9TUPH81F59AWHPC0","39DD6S19JRHPRWT73RQ67L2FOJVZE9","model","mismatch","uniform","","","","","","","","379394.69999999925","381399.69999999925","","","","","","","","","","","","0","","stimuli/stars_0.png","239.5","","","","","stimuli/AM03_SUR.jpg","",""
"explore-choice","187","382121","0.0-187.0","p282703","A9LSEP71DNP4O","3RZS0FBRWLGDTA9TUPH81F59AWHPC0","39DD6S19JRHPRWT73RQ67L2FOJVZE9","model","mismatch","uniform","","","","","","","615","381400.19999999925","382015.19999999925","[""stimuli/BM03_SUR.jpg"",""stimuli/AF09_AO.jpg"",""stimuli/AF10_HO.jpg"",""stimuli/AM03_CC.jpg""]","stimuli/BM03_SUR.jpg","stimuli/AF09_AO.jpg","stimuli/AF10_HO.jpg","stimuli/AM03_CC.jpg","pos2","stimuli/AF09_AO.jpg","AO","AF09","1","3","6","4","stimuli/stars_6.png","242.5","[""SUR"",""AO"",""HO"",""CC""]","[""BM03"",""AF09"",""AF10"",""AM03""]","[3,6,7,4]","[2,4,8,6]","","",""
"show-reward","188","384126","0.0-188.0","p282703","A9LSEP71DNP4O","3RZS0FBRWLGDTA9TUPH81F59AWHPC0","39DD6S19JRHPRWT73RQ67L2FOJVZE9","model","mismatch","uniform","","","","","","","","382523.69999999925","384528.80000000075","","","","","","","","","","","","6","","stimuli/stars_6.png","242.5","","","","","stimuli/AF09_AO.jpg","",""
"explore-choice","189","385656","0.0-189.0","p282703","A9LSEP71DNP4O","3RZS0FBRWLGDTA9TUPH81F59AWHPC0","39DD6S19JRHPRWT73RQ67L2FOJVZE9","model","mismatch","uniform","","","","","","","1027.1000000014901","384529.30000000075","385556.40000000224","[""stimuli/BM03_HO.jpg"",""stimuli/AF09_AO.jpg"",""stimuli/AM03_CC.jpg"",""stimuli/AF10_SUR.jpg""]","stimuli/BM03_HO.jpg","stimuli/AF09_AO.jpg","stimuli/AM03_CC.jpg","stimuli/AF10_SUR.jpg","pos1","stimuli/BM03_HO.jpg","HO","BM03","0","5","10","8","stimuli/stars_10.png","247.5","[""HO"",""AO"",""CC"",""SUR""]","[""BM03"",""AF09"",""AM03"",""AF10""]","[10,4,5,0]","[8,4,6,2]","","",""
"show-reward","190","387664","0.0-190.0","p282703","A9LSEP71DNP4O","3RZS0FBRWLGDTA9TUPH81F59AWHPC0","39DD6S19JRHPRWT73RQ67L2FOJVZE9","model","mismatch","uniform","","","","","","","","386058.69999999925","388066.40000000224","","","","","","","","","","","","10","","stimuli/stars_10.png","247.5","","","","","stimuli/BM03_HO.jpg","",""
"explore-choice","191","388752","0.0-191.0","p282703","A9LSEP71DNP4O","3RZS0FBRWLGDTA9TUPH81F59AWHPC0","39DD6S19JRHPRWT73RQ67L2FOJVZE9","model","mismatch","uniform","","","","","","","584.7999999970198","388066.90000000224","388651.69999999925","[""stimuli/AF09_HO.jpg"",""stimuli/AF10_AO.jpg"",""stimuli/AM03_CC.jpg"",""stimuli/BM03_SUR.jpg""]","stimuli/AF09_HO.jpg","stimuli/AF10_AO.jpg","stimuli/AM03_CC.jpg","stimuli/BM03_SUR.jpg","pos3","stimuli/AM03_CC.jpg","CC","AM03","2","3.5","7","6","stimuli/stars_7.png","251","[""HO"",""AO"",""CC"",""SUR""]","[""AF09"",""AF10"",""AM03"",""BM03""]","[9,4,7,0]","[8,4,6,2]","","",""
"show-reward","192","390761","0.0-192.0","p282703","A9LSEP71DNP4O","3RZS0FBRWLGDTA9TUPH81F59AWHPC0","39DD6S19JRHPRWT73RQ67L2FOJVZE9","model","mismatch","uniform","","","","","","","","389154.6000000015","391163","","","","","","","","","","","","7","","stimuli/stars_7.png","251","","","","","stimuli/AM03_CC.jpg","",""
"explore-choice","193","391488","0.0-193.0","p282703","A9LSEP71DNP4O","3RZS0FBRWLGDTA9TUPH81F59AWHPC0","39DD6S19JRHPRWT73RQ67L2FOJVZE9","model","mismatch","uniform","","","","","","","221.79999999701977","391163.40000000224","391385.19999999925","[""stimuli/AM03_HO.jpg"",""stimuli/AF10_CC.jpg"",""stimuli/BM03_AO.jpg"",""stimuli/AF09_SUR.jpg""]","stimuli/AM03_HO.jpg","stimuli/AF10_CC.jpg","stimuli/BM03_AO.jpg","stimuli/AF09_SUR.jpg","pos4","stimuli/AF09_SUR.jpg","SUR","AF09","3","0","0","2","stimuli/stars_0.png","251","[""HO"",""CC"",""AO"",""SUR""]","[""AM03"",""AF10"",""BM03"",""AF09""]","[10,6,4,0]","[8,6,4,2]","","",""
"show-reward","194","393493","0.0-194.0","p282703","A9LSEP71DNP4O","3RZS0FBRWLGDTA9TUPH81F59AWHPC0","39DD6S19JRHPRWT73RQ67L2FOJVZE9","model","mismatch","uniform","","","","","","","","391891.19999999925","393895.40000000224","","","","","","","","","","","","0","","stimuli/stars_0.png","251","","","","","stimuli/AF09_SUR.jpg","",""
"explore-choice","195","394369","0.0-195.0","p282703","A9LSEP71DNP4O","3RZS0FBRWLGDTA9TUPH81F59AWHPC0","39DD6S19JRHPRWT73RQ67L2FOJVZE9","model","mismatch","uniform","","","","","","","370.69999999925494","393895.90000000224","394266.6000000015","[""stimuli/BM03_SUR.jpg"",""stimuli/AF10_HO.jpg"",""stimuli/AM03_AO.jpg"",""stimuli/AF09_CC.jpg""]","stimuli/BM03_SUR.jpg","stimuli/AF10_HO.jpg","stimuli/AM03_AO.jpg","stimuli/AF09_CC.jpg","pos2","stimuli/AF10_HO.jpg","HO","AF10","1","4","8","8","stimuli/stars_8.png","255","[""SUR"",""HO"",""AO"",""CC""]","[""BM03"",""AF10"",""AM03"",""AF09""]","[1,8,6,7]","[2,8,4,6]","","",""
"show-reward","196","396375","0.0-196.0","p282703","A9LSEP71DNP4O","3RZS0FBRWLGDTA9TUPH81F59AWHPC0","39DD6S19JRHPRWT73RQ67L2FOJVZE9","model","mismatch","uniform","","","","","","","","394771.6000000015","396777.6000000015","","","","","","","","","","","","8","","stimuli/stars_8.png","255","","","","","stimuli/AF10_HO.jpg","",""
"explore-choice","197","397065","0.0-197.0","p282703","A9LSEP71DNP4O","3RZS0FBRWLGDTA9TUPH81F59AWHPC0","39DD6S19JRHPRWT73RQ67L2FOJVZE9","model","mismatch","uniform","","","","","","","181","396778.1000000015","396959.1000000015","[""stimuli/AF09_SUR.jpg"",""stimuli/BM03_HO.jpg"",""stimuli/AF10_CC.jpg"",""stimuli/AM03_AO.jpg""]","stimuli/AF09_SUR.jpg","stimuli/BM03_HO.jpg","stimuli/AF10_CC.jpg","stimuli/AM03_AO.jpg","pos1","stimuli/AF09_SUR.jpg","SUR","AF09","0","0.5","1","2","stimuli/stars_1.png","255.5","[""SUR"",""HO"",""CC"",""AO""]","[""AF09"",""BM03"",""AF10"",""AM03""]","[1,6,8,6]","[2,8,6,4]","","",""
"show-reward","198","399070","0.0-198.0","p282703","A9LSEP71DNP4O","3RZS0FBRWLGDTA9TUPH81F59AWHPC0","39DD6S19JRHPRWT73RQ67L2FOJVZE9","model","mismatch","uniform","","","","","","","","397467.30000000075","399472.6000000015","","","","","","","","","","","","1","","stimuli/stars_1.png","255.5","","","","","stimuli/AF09_SUR.jpg","",""
"instructions","199","402956","0.0-199.0","p282703","A9LSEP71DNP4O","3RZS0FBRWLGDTA9TUPH81F59AWHPC0","39DD6S19JRHPRWT73RQ67L2FOJVZE9","model","mismatch","uniform","","","","","","[{""page_index"":0,""viewing_time"":3885.5}]","3885.7000000029802","","","","","","","","","","","","","","","","","","","","","","","",""
"survey-text","200","405470","0.0-200.0-0.0","p282703","A9LSEP71DNP4O","3RZS0FBRWLGDTA9TUPH81F59AWHPC0","39DD6S19JRHPRWT73RQ67L2FOJVZE9","model","mismatch","uniform","","","","","","","2511.5","","","","","","","","","","","","","","","","","","","","","","","{""age"":""37""}",""
"survey-text","201","409208","0.0-200.0-1.0","p282703","A9LSEP71DNP4O","3RZS0FBRWLGDTA9TUPH81F59AWHPC0","39DD6S19JRHPRWT73RQ67L2FOJVZE9","model","mismatch","uniform","","","","","","","3735.89999999851","","","","","","","","","","","","","","","","","","","","","","","{""gender"":""Male""}",""
"survey-text","202","413074","0.0-200.0-2.0","p282703","A9LSEP71DNP4O","3RZS0FBRWLGDTA9TUPH81F59AWHPC0","39DD6S19JRHPRWT73RQ67L2FOJVZE9","model","mismatch","uniform","","","","","","","3864.400000002235","","","","","","","","","","","","","","","","","","","","","","","{""country"":""United States""}",""
"survey-text","203","419059","0.0-200.0-3.0","p282703","A9LSEP71DNP4O","3RZS0FBRWLGDTA9TUPH81F59AWHPC0","39DD6S19JRHPRWT73RQ67L2FOJVZE9","model","mismatch","uniform","","","","","","","5983.39999999851","","","","","","","","","","","","","","","","","","","","","","","{""language"":""English"",""other_languages"":""None""}",""
"survey-multi-select","204","423267","0.0-201.0","p282703","A9LSEP71DNP4O","3RZS0FBRWLGDTA9TUPH81F59AWHPC0","39DD6S19JRHPRWT73RQ67L2FOJVZE9","model","mismatch","uniform","","","","","","","4206","","","","","","","","","","","","","","","","","","","","","","","{""race"":[""Asian""]}","[0]"
"survey-multi-choice","205","425349","0.0-202.0","p282703","A9LSEP71DNP4O","3RZS0FBRWLGDTA9TUPH81F59AWHPC0","39DD6S19JRHPRWT73RQ67L2FOJVZE9","model","mismatch","uniform","","","","","","","2080.7000000029802","","","","","","","","","","","","","","","","","","","","","","","{""education"":""Some college/ university""}","[0]"
"survey-text","206","445030","0.0-203.0","p282703","A9LSEP71DNP4O","3RZS0FBRWLGDTA9TUPH81F59AWHPC0","39DD6S19JRHPRWT73RQ67L2FOJVZE9","model","mismatch","uniform","","","","","","","19678","","","","","","","","","","","","","","","","","","","","","","","{""patterns"":""I didn't notice any patterns"",""strategy"":""I didn't use any strategy."",""comments"":""None""}",""
