"trial_type","trial_index","time_elapsed","internal_node_id","subject","workerId","hitId","assignmentId","structure_condition","match_condition","noise_type","success","timeout","failed_images","failed_audio","failed_video","view_history","rt","start_time","end_time","stimuli","image1","image2","image3","image4","choiceLocation","choiceImage","choiceEmotion","choiceModel","choice_index","reward_score","reward","reward_score_unadjusted","reward_image","score_after_trial","emotions","models","rewards","rewards_unadjusted","stimulus","response","question_order"
"pavlovia","0","82","0.0-0.0","p96379","A279YSE7NB16M0","3OWZNK3RYMVDNXPNEIRWZ8JM6MU2UY","3H7XDTSHKEXJHFKTYZWN8KT9KXCWG3","model","match","uniform","","","","","","","","","","","","","","","","","","","","","","","","","","","","","","",""
"preload","1","3401","0.0-1.0","p96379","A279YSE7NB16M0","3OWZNK3RYMVDNXPNEIRWZ8JM6MU2UY","3H7XDTSHKEXJHFKTYZWN8KT9KXCWG3","model","match","uniform","true","false","[]","[]","[]","","","","","","","","","","","","","","","","","","","","","","","","","",""
"fullscreen","2","10318","0.0-2.0","p96379","A279YSE7NB16M0","3OWZNK3RYMVDNXPNEIRWZ8JM6MU2UY","3H7XDTSHKEXJHFKTYZWN8KT9KXCWG3","model","match","uniform","true","","","","","","","","","","","","","","","","","","","","","","","","","","","","","",""
"instructions","3","21754","0.0-3.0","p96379","A279YSE7NB16M0","3OWZNK3RYMVDNXPNEIRWZ8JM6MU2UY","3H7XDTSHKEXJHFKTYZWN8KT9KXCWG3","model","match","uniform","","","","","","[{""page_index"":0,""viewing_time"":11435}]","11436","","","","","","","","","","","","","","","","","","","","","","","",""
"explore-choice","4","24900","0.0-4.0","p96379","A279YSE7NB16M0","3OWZNK3RYMVDNXPNEIRWZ8JM6MU2UY","3H7XDTSHKEXJHFKTYZWN8KT9KXCWG3","model","match","uniform","","","","","","","2634","23703","26337","[""stimuli/sheep.jpg"",""stimuli/hammer.jpg"",""stimuli/basketball.jpg"",""stimuli/horse.jpg""]","stimuli/sheep.jpg","stimuli/hammer.jpg","stimuli/basketball.jpg","stimuli/horse.jpg","pos4","stimuli/horse.jpg","","","3","64","64","64","stimuli/stars_8.png","65","","","","","","",""
"explore-choice","5","27573","0.0-5.0","p96379","A279YSE7NB16M0","3OWZNK3RYMVDNXPNEIRWZ8JM6MU2UY","3H7XDTSHKEXJHFKTYZWN8KT9KXCWG3","model","match","uniform","","","","","","","2168","26849","29017","[""stimuli/hammer.jpg"",""stimuli/basketball.jpg"",""stimuli/horse.jpg"",""stimuli/sheep.jpg""]","stimuli/hammer.jpg","stimuli/basketball.jpg","stimuli/horse.jpg","stimuli/sheep.jpg","pos1","stimuli/hammer.jpg","","","0","8","8","8","stimuli/stars_2.png","9","","","","","","",""
"instructions","6","60143","0.0-6.0","p96379","A279YSE7NB16M0","3OWZNK3RYMVDNXPNEIRWZ8JM6MU2UY","3H7XDTSHKEXJHFKTYZWN8KT9KXCWG3","model","match","uniform","","","","","","[{""page_index"":0,""viewing_time"":32570}]","32570","","","","","","","","","","","","","","","","","","","","","","","",""
"explore-choice","7","65973","0.0-7.0","p96379","A279YSE7NB16M0","3OWZNK3RYMVDNXPNEIRWZ8JM6MU2UY","3H7XDTSHKEXJHFKTYZWN8KT9KXCWG3","model","match","uniform","","","","","","","5323","62093","67416","[""stimuli/AM09_DO.jpg"",""stimuli/AF09_CC.jpg"",""stimuli/WM13_SUR.jpg"",""stimuli/WM07_AO.jpg""]","stimuli/AM09_DO.jpg","stimuli/AF09_CC.jpg","stimuli/WM13_SUR.jpg","stimuli/WM07_AO.jpg","pos2","stimuli/AF09_CC.jpg","CC","AF09","1","3.5","7","8","stimuli/stars_7.png","4.5","[""DO"",""CC"",""SUR"",""AO""]","[""AM09"",""AF09"",""WM13"",""WM07""]","[6,7,3,3]","[6,8,4,2]","","",""
"show-reward","8","67979","0.0-8.0","p96379","A279YSE7NB16M0","3OWZNK3RYMVDNXPNEIRWZ8JM6MU2UY","3H7XDTSHKEXJHFKTYZWN8KT9KXCWG3","model","match","uniform","","","","","","","","67922","69927","","","","","","","","","","","","7","","stimuli/stars_7.png","4.5","","","","","stimuli/AF09_CC.jpg","",""
"explore-choice","9","70629","0.0-9.0","p96379","A279YSE7NB16M0","3OWZNK3RYMVDNXPNEIRWZ8JM6MU2UY","3H7XDTSHKEXJHFKTYZWN8KT9KXCWG3","model","match","uniform","","","","","","","2136","69927","72063","[""stimuli/AF09_DO.jpg"",""stimuli/WM07_CC.jpg"",""stimuli/WM13_SUR.jpg"",""stimuli/AM09_AO.jpg""]","stimuli/AF09_DO.jpg","stimuli/WM07_CC.jpg","stimuli/WM13_SUR.jpg","stimuli/AM09_AO.jpg","pos1","stimuli/AF09_DO.jpg","DO","AF09","0","5","10","8","stimuli/stars_10.png","9.5","[""DO"",""CC"",""SUR"",""AO""]","[""AF09"",""WM07"",""WM13"",""AM09""]","[10,4,5,5]","[8,2,4,6]","","",""
"show-reward","10","72632","0.0-10.0","p96379","A279YSE7NB16M0","3OWZNK3RYMVDNXPNEIRWZ8JM6MU2UY","3H7XDTSHKEXJHFKTYZWN8KT9KXCWG3","model","match","uniform","","","","","","","","72577","74580","","","","","","","","","","","","10","","stimuli/stars_10.png","9.5","","","","","stimuli/AF09_DO.jpg","",""
"explore-choice","11","74042","0.0-11.0","p96379","A279YSE7NB16M0","3OWZNK3RYMVDNXPNEIRWZ8JM6MU2UY","3H7XDTSHKEXJHFKTYZWN8KT9KXCWG3","model","match","uniform","","","","","","","895","74580","75475","[""stimuli/AF09_DO.jpg"",""stimuli/WM13_CC.jpg"",""stimuli/WM07_AO.jpg"",""stimuli/AM09_SUR.jpg""]","stimuli/AF09_DO.jpg","stimuli/WM13_CC.jpg","stimuli/WM07_AO.jpg","stimuli/AM09_SUR.jpg","pos1","stimuli/AF09_DO.jpg","DO","AF09","0","5","10","8","stimuli/stars_10.png","14.5","[""DO"",""CC"",""AO"",""SUR""]","[""AF09"",""WM13"",""WM07"",""AM09""]","[10,2,1,4]","[8,4,2,6]","","",""
"show-reward","12","76045","0.0-12.0","p96379","A279YSE7NB16M0","3OWZNK3RYMVDNXPNEIRWZ8JM6MU2UY","3H7XDTSHKEXJHFKTYZWN8KT9KXCWG3","model","match","uniform","","","","","","","","75990","77993","","","","","","","","","","","","10","","stimuli/stars_10.png","14.5","","","","","stimuli/AF09_DO.jpg","",""
"explore-choice","13","77925","0.0-13.0","p96379","A279YSE7NB16M0","3OWZNK3RYMVDNXPNEIRWZ8JM6MU2UY","3H7XDTSHKEXJHFKTYZWN8KT9KXCWG3","model","match","uniform","","","","","","","1372","77993","79365","[""stimuli/AM09_SUR.jpg"",""stimuli/WM13_DO.jpg"",""stimuli/WM07_CC.jpg"",""stimuli/AF09_AO.jpg""]","stimuli/AM09_SUR.jpg","stimuli/WM13_DO.jpg","stimuli/WM07_CC.jpg","stimuli/AF09_AO.jpg","pos4","stimuli/AF09_AO.jpg","AO","AF09","3","3","6","8","stimuli/stars_6.png","17.5","[""SUR"",""DO"",""CC"",""AO""]","[""AM09"",""WM13"",""WM07"",""AF09""]","[7,5,4,6]","[6,4,2,8]","","",""
"show-reward","14","79936","0.0-14.0","p96379","A279YSE7NB16M0","3OWZNK3RYMVDNXPNEIRWZ8JM6MU2UY","3H7XDTSHKEXJHFKTYZWN8KT9KXCWG3","model","match","uniform","","","","","","","","79873","81884","","","","","","","","","","","","6","","stimuli/stars_6.png","17.5","","","","","stimuli/AF09_AO.jpg","",""
"explore-choice","15","83266","0.0-15.0","p96379","A279YSE7NB16M0","3OWZNK3RYMVDNXPNEIRWZ8JM6MU2UY","3H7XDTSHKEXJHFKTYZWN8KT9KXCWG3","model","match","uniform","","","","","","","2829","81884","84713","[""stimuli/WM07_AO.jpg"",""stimuli/AM09_CC.jpg"",""stimuli/WM13_DO.jpg"",""stimuli/AF09_SUR.jpg""]","stimuli/WM07_AO.jpg","stimuli/AM09_CC.jpg","stimuli/WM13_DO.jpg","stimuli/AF09_SUR.jpg","pos3","stimuli/WM13_DO.jpg","DO","WM13","2","1","2","4","stimuli/stars_2.png","18.5","[""AO"",""CC"",""DO"",""SUR""]","[""WM07"",""AM09"",""WM13"",""AF09""]","[0,4,2,6]","[2,6,4,8]","","",""
"show-reward","16","85280","0.0-16.0","p96379","A279YSE7NB16M0","3OWZNK3RYMVDNXPNEIRWZ8JM6MU2UY","3H7XDTSHKEXJHFKTYZWN8KT9KXCWG3","model","match","uniform","","","","","","","","85214","87227","","","","","","","","","","","","2","","stimuli/stars_2.png","18.5","","","","","stimuli/WM13_DO.jpg","",""
"explore-choice","17","86996","0.0-17.0","p96379","A279YSE7NB16M0","3OWZNK3RYMVDNXPNEIRWZ8JM6MU2UY","3H7XDTSHKEXJHFKTYZWN8KT9KXCWG3","model","match","uniform","","","","","","","1212","87227","88439","[""stimuli/WM07_CC.jpg"",""stimuli/AM09_DO.jpg"",""stimuli/AF09_SUR.jpg"",""stimuli/WM13_AO.jpg""]","stimuli/WM07_CC.jpg","stimuli/AM09_DO.jpg","stimuli/AF09_SUR.jpg","stimuli/WM13_AO.jpg","pos3","stimuli/AF09_SUR.jpg","SUR","AF09","2","3.5","7","8","stimuli/stars_7.png","22","[""CC"",""DO"",""SUR"",""AO""]","[""WM07"",""AM09"",""AF09"",""WM13""]","[3,6,7,5]","[2,6,8,4]","","",""
"show-reward","18","89002","0.0-18.0","p96379","A279YSE7NB16M0","3OWZNK3RYMVDNXPNEIRWZ8JM6MU2UY","3H7XDTSHKEXJHFKTYZWN8KT9KXCWG3","model","match","uniform","","","","","","","","88943","90949","","","","","","","","","","","","7","","stimuli/stars_7.png","22","","","","","stimuli/AF09_SUR.jpg","",""
"explore-choice","19","90283","0.0-19.0","p96379","A279YSE7NB16M0","3OWZNK3RYMVDNXPNEIRWZ8JM6MU2UY","3H7XDTSHKEXJHFKTYZWN8KT9KXCWG3","model","match","uniform","","","","","","","774","90949","91723","[""stimuli/WM13_AO.jpg"",""stimuli/AM09_SUR.jpg"",""stimuli/AF09_DO.jpg"",""stimuli/WM07_CC.jpg""]","stimuli/WM13_AO.jpg","stimuli/AM09_SUR.jpg","stimuli/AF09_DO.jpg","stimuli/WM07_CC.jpg","pos3","stimuli/AF09_DO.jpg","DO","AF09","2","3.5","7","8","stimuli/stars_7.png","25.5","[""AO"",""SUR"",""DO"",""CC""]","[""WM13"",""AM09"",""AF09"",""WM07""]","[6,8,7,0]","[4,6,8,2]","","",""
"show-reward","20","92289","0.0-20.0","p96379","A279YSE7NB16M0","3OWZNK3RYMVDNXPNEIRWZ8JM6MU2UY","3H7XDTSHKEXJHFKTYZWN8KT9KXCWG3","model","match","uniform","","","","","","","","92230","94235","","","","","","","","","","","","7","","stimuli/stars_7.png","25.5","","","","","stimuli/AF09_DO.jpg","",""
"explore-choice","21","93570","0.0-21.0","p96379","A279YSE7NB16M0","3OWZNK3RYMVDNXPNEIRWZ8JM6MU2UY","3H7XDTSHKEXJHFKTYZWN8KT9KXCWG3","model","match","uniform","","","","","","","781","94236","95017","[""stimuli/WM07_AO.jpg"",""stimuli/AM09_DO.jpg"",""stimuli/AF09_SUR.jpg"",""stimuli/WM13_CC.jpg""]","stimuli/WM07_AO.jpg","stimuli/AM09_DO.jpg","stimuli/AF09_SUR.jpg","stimuli/WM13_CC.jpg","pos3","stimuli/AF09_SUR.jpg","SUR","AF09","2","4.5","9","8","stimuli/stars_9.png","30","[""AO"",""DO"",""SUR"",""CC""]","[""WM07"",""AM09"",""AF09"",""WM13""]","[0,6,9,2]","[2,6,8,4]","","",""
"show-reward","22","95578","0.0-22.0","p96379","A279YSE7NB16M0","3OWZNK3RYMVDNXPNEIRWZ8JM6MU2UY","3H7XDTSHKEXJHFKTYZWN8KT9KXCWG3","model","match","uniform","","","","","","","","95517","97525","","","","","","","","","","","","9","","stimuli/stars_9.png","30","","","","","stimuli/AF09_SUR.jpg","",""
"explore-choice","23","97411","0.0-23.0","p96379","A279YSE7NB16M0","3OWZNK3RYMVDNXPNEIRWZ8JM6MU2UY","3H7XDTSHKEXJHFKTYZWN8KT9KXCWG3","model","match","uniform","","","","","","","1318","97525","98843","[""stimuli/AF09_SUR.jpg"",""stimuli/WM07_CC.jpg"",""stimuli/WM13_DO.jpg"",""stimuli/AM09_AO.jpg""]","stimuli/AF09_SUR.jpg","stimuli/WM07_CC.jpg","stimuli/WM13_DO.jpg","stimuli/AM09_AO.jpg","pos1","stimuli/AF09_SUR.jpg","SUR","AF09","0","4.5","9","8","stimuli/stars_9.png","34.5","[""SUR"",""CC"",""DO"",""AO""]","[""AF09"",""WM07"",""WM13"",""AM09""]","[9,2,6,6]","[8,2,4,6]","","",""
"show-reward","24","99415","0.0-24.0","p96379","A279YSE7NB16M0","3OWZNK3RYMVDNXPNEIRWZ8JM6MU2UY","3H7XDTSHKEXJHFKTYZWN8KT9KXCWG3","model","match","uniform","","","","","","","","99358","101361","","","","","","","","","","","","9","","stimuli/stars_9.png","34.5","","","","","stimuli/AF09_SUR.jpg","",""
"explore-choice","25","101363","0.0-25.0","p96379","A279YSE7NB16M0","3OWZNK3RYMVDNXPNEIRWZ8JM6MU2UY","3H7XDTSHKEXJHFKTYZWN8KT9KXCWG3","model","match","uniform","","","","","","","1435","101362","102797","[""stimuli/WM07_DO.jpg"",""stimuli/AM09_SUR.jpg"",""stimuli/WM13_CC.jpg"",""stimuli/AF09_AO.jpg""]","stimuli/WM07_DO.jpg","stimuli/AM09_SUR.jpg","stimuli/WM13_CC.jpg","stimuli/AF09_AO.jpg","pos4","stimuli/AF09_AO.jpg","AO","AF09","3","4","8","8","stimuli/stars_8.png","38.5","[""DO"",""SUR"",""CC"",""AO""]","[""WM07"",""AM09"",""WM13"",""AF09""]","[4,7,6,8]","[2,6,4,8]","","",""
"show-reward","26","103375","0.0-26.0","p96379","A279YSE7NB16M0","3OWZNK3RYMVDNXPNEIRWZ8JM6MU2UY","3H7XDTSHKEXJHFKTYZWN8KT9KXCWG3","model","match","uniform","","","","","","","","103310","105322","","","","","","","","","","","","8","","stimuli/stars_8.png","38.5","","","","","stimuli/AF09_AO.jpg","",""
"explore-choice","27","105344","0.0-27.0","p96379","A279YSE7NB16M0","3OWZNK3RYMVDNXPNEIRWZ8JM6MU2UY","3H7XDTSHKEXJHFKTYZWN8KT9KXCWG3","model","match","uniform","","","","","","","1461","105322","106783","[""stimuli/AM09_CC.jpg"",""stimuli/WM07_DO.jpg"",""stimuli/AF09_AO.jpg"",""stimuli/WM13_SUR.jpg""]","stimuli/AM09_CC.jpg","stimuli/WM07_DO.jpg","stimuli/AF09_AO.jpg","stimuli/WM13_SUR.jpg","pos1","stimuli/AM09_CC.jpg","CC","AM09","0","4","8","6","stimuli/stars_8.png","42.5","[""CC"",""DO"",""AO"",""SUR""]","[""AM09"",""WM07"",""AF09"",""WM13""]","[8,0,6,6]","[6,2,8,4]","","",""
"show-reward","28","107357","0.0-28.0","p96379","A279YSE7NB16M0","3OWZNK3RYMVDNXPNEIRWZ8JM6MU2UY","3H7XDTSHKEXJHFKTYZWN8KT9KXCWG3","model","match","uniform","","","","","","","","107291","109304","","","","","","","","","","","","8","","stimuli/stars_8.png","42.5","","","","","stimuli/AM09_CC.jpg","",""
"explore-choice","29","109528","0.0-29.0","p96379","A279YSE7NB16M0","3OWZNK3RYMVDNXPNEIRWZ8JM6MU2UY","3H7XDTSHKEXJHFKTYZWN8KT9KXCWG3","model","match","uniform","","","","","","","1669","109304","110973","[""stimuli/WM07_DO.jpg"",""stimuli/AM09_CC.jpg"",""stimuli/WM13_AO.jpg"",""stimuli/AF09_SUR.jpg""]","stimuli/WM07_DO.jpg","stimuli/AM09_CC.jpg","stimuli/WM13_AO.jpg","stimuli/AF09_SUR.jpg","pos2","stimuli/AM09_CC.jpg","CC","AM09","1","3","6","6","stimuli/stars_6.png","45.5","[""DO"",""CC"",""AO"",""SUR""]","[""WM07"",""AM09"",""WM13"",""AF09""]","[4,6,6,7]","[2,6,4,8]","","",""
"show-reward","30","111540","0.0-30.0","p96379","A279YSE7NB16M0","3OWZNK3RYMVDNXPNEIRWZ8JM6MU2UY","3H7XDTSHKEXJHFKTYZWN8KT9KXCWG3","model","match","uniform","","","","","","","","111475","113486","","","","","","","","","","","","6","","stimuli/stars_6.png","45.5","","","","","stimuli/AM09_CC.jpg","",""
"explore-choice","31","113402","0.0-31.0","p96379","A279YSE7NB16M0","3OWZNK3RYMVDNXPNEIRWZ8JM6MU2UY","3H7XDTSHKEXJHFKTYZWN8KT9KXCWG3","model","match","uniform","","","","","","","1354","113487","114841","[""stimuli/AF09_CC.jpg"",""stimuli/WM07_SUR.jpg"",""stimuli/AM09_AO.jpg"",""stimuli/WM13_DO.jpg""]","stimuli/AF09_CC.jpg","stimuli/WM07_SUR.jpg","stimuli/AM09_AO.jpg","stimuli/WM13_DO.jpg","pos1","stimuli/AF09_CC.jpg","CC","AF09","0","4","8","8","stimuli/stars_8.png","49.5","[""CC"",""SUR"",""AO"",""DO""]","[""AF09"",""WM07"",""AM09"",""WM13""]","[8,2,5,4]","[8,2,6,4]","","",""
"show-reward","32","115408","0.0-32.0","p96379","A279YSE7NB16M0","3OWZNK3RYMVDNXPNEIRWZ8JM6MU2UY","3H7XDTSHKEXJHFKTYZWN8KT9KXCWG3","model","match","uniform","","","","","","","","115349","117355","","","","","","","","","","","","8","","stimuli/stars_8.png","49.5","","","","","stimuli/AF09_CC.jpg","",""
"explore-choice","33","116709","0.0-33.0","p96379","A279YSE7NB16M0","3OWZNK3RYMVDNXPNEIRWZ8JM6MU2UY","3H7XDTSHKEXJHFKTYZWN8KT9KXCWG3","model","match","uniform","","","","","","","786","117355","118141","[""stimuli/AF09_AO.jpg"",""stimuli/AM09_DO.jpg"",""stimuli/WM13_CC.jpg"",""stimuli/WM07_SUR.jpg""]","stimuli/AF09_AO.jpg","stimuli/AM09_DO.jpg","stimuli/WM13_CC.jpg","stimuli/WM07_SUR.jpg","pos1","stimuli/AF09_AO.jpg","AO","AF09","0","3","6","8","stimuli/stars_6.png","52.5","[""AO"",""DO"",""CC"",""SUR""]","[""AF09"",""AM09"",""WM13"",""WM07""]","[6,8,5,1]","[8,6,4,2]","","",""
"show-reward","34","118713","0.0-34.0","p96379","A279YSE7NB16M0","3OWZNK3RYMVDNXPNEIRWZ8JM6MU2UY","3H7XDTSHKEXJHFKTYZWN8KT9KXCWG3","model","match","uniform","","","","","","","","118656","120660","","","","","","","","","","","","6","","stimuli/stars_6.png","52.5","","","","","stimuli/AF09_AO.jpg","",""
"explore-choice","35","119928","0.0-35.0","p96379","A279YSE7NB16M0","3OWZNK3RYMVDNXPNEIRWZ8JM6MU2UY","3H7XDTSHKEXJHFKTYZWN8KT9KXCWG3","model","match","uniform","","","","","","","711","120660","121371","[""stimuli/AF09_DO.jpg"",""stimuli/AM09_AO.jpg"",""stimuli/WM07_SUR.jpg"",""stimuli/WM13_CC.jpg""]","stimuli/AF09_DO.jpg","stimuli/AM09_AO.jpg","stimuli/WM07_SUR.jpg","stimuli/WM13_CC.jpg","pos1","stimuli/AF09_DO.jpg","DO","AF09","0","3.5","7","8","stimuli/stars_7.png","56","[""DO"",""AO"",""SUR"",""CC""]","[""AF09"",""AM09"",""WM07"",""WM13""]","[7,5,4,3]","[8,6,2,4]","","",""
"show-reward","36","121939","0.0-36.0","p96379","A279YSE7NB16M0","3OWZNK3RYMVDNXPNEIRWZ8JM6MU2UY","3H7XDTSHKEXJHFKTYZWN8KT9KXCWG3","model","match","uniform","","","","","","","","121875","123886","","","","","","","","","","","","7","","stimuli/stars_7.png","56","","","","","stimuli/AF09_DO.jpg","",""
"explore-choice","37","123345","0.0-37.0","p96379","A279YSE7NB16M0","3OWZNK3RYMVDNXPNEIRWZ8JM6MU2UY","3H7XDTSHKEXJHFKTYZWN8KT9KXCWG3","model","match","uniform","","","","","","","893","123886","124779","[""stimuli/AF09_CC.jpg"",""stimuli/AM09_SUR.jpg"",""stimuli/WM07_DO.jpg"",""stimuli/WM13_AO.jpg""]","stimuli/AF09_CC.jpg","stimuli/AM09_SUR.jpg","stimuli/WM07_DO.jpg","stimuli/WM13_AO.jpg","pos1","stimuli/AF09_CC.jpg","CC","AF09","0","3","6","8","stimuli/stars_6.png","59","[""CC"",""SUR"",""DO"",""AO""]","[""AF09"",""AM09"",""WM07"",""WM13""]","[6,7,3,4]","[8,6,2,4]","","",""
"show-reward","38","125347","0.0-38.0","p96379","A279YSE7NB16M0","3OWZNK3RYMVDNXPNEIRWZ8JM6MU2UY","3H7XDTSHKEXJHFKTYZWN8KT9KXCWG3","model","match","uniform","","","","","","","","125292","127294","","","","","","","","","","","","6","","stimuli/stars_6.png","59","","","","","stimuli/AF09_CC.jpg","",""
"explore-choice","39","126680","0.0-39.0","p96379","A279YSE7NB16M0","3OWZNK3RYMVDNXPNEIRWZ8JM6MU2UY","3H7XDTSHKEXJHFKTYZWN8KT9KXCWG3","model","match","uniform","","","","","","","820","127295","128115","[""stimuli/AF09_DO.jpg"",""stimuli/AM09_CC.jpg"",""stimuli/WM13_SUR.jpg"",""stimuli/WM07_AO.jpg""]","stimuli/AF09_DO.jpg","stimuli/AM09_CC.jpg","stimuli/WM13_SUR.jpg","stimuli/WM07_AO.jpg","pos3","stimuli/WM13_SUR.jpg","SUR","WM13","2","1","2","4","stimuli/stars_2.png","60","[""DO"",""CC"",""SUR"",""AO""]","[""AF09"",""AM09"",""WM13"",""WM07""]","[9,8,2,3]","[8,6,4,2]","","",""
"show-reward","40","128683","0.0-40.0","p96379","A279YSE7NB16M0","3OWZNK3RYMVDNXPNEIRWZ8JM6MU2UY","3H7XDTSHKEXJHFKTYZWN8KT9KXCWG3","model","match","uniform","","","","","","","","128627","130630","","","","","","","","","","","","2","","stimuli/stars_2.png","60","","","","","stimuli/WM13_SUR.jpg","",""
"explore-choice","41","130093","0.0-41.0","p96379","A279YSE7NB16M0","3OWZNK3RYMVDNXPNEIRWZ8JM6MU2UY","3H7XDTSHKEXJHFKTYZWN8KT9KXCWG3","model","match","uniform","","","","","","","909","130630","131539","[""stimuli/WM13_SUR.jpg"",""stimuli/WM07_DO.jpg"",""stimuli/AF09_CC.jpg"",""stimuli/AM09_AO.jpg""]","stimuli/WM13_SUR.jpg","stimuli/WM07_DO.jpg","stimuli/AF09_CC.jpg","stimuli/AM09_AO.jpg","pos4","stimuli/AM09_AO.jpg","AO","AM09","3","3","6","6","stimuli/stars_6.png","63","[""SUR"",""DO"",""CC"",""AO""]","[""WM13"",""WM07"",""AF09"",""AM09""]","[2,4,6,6]","[4,2,8,6]","","",""
"show-reward","42","132107","0.0-42.0","p96379","A279YSE7NB16M0","3OWZNK3RYMVDNXPNEIRWZ8JM6MU2UY","3H7XDTSHKEXJHFKTYZWN8KT9KXCWG3","model","match","uniform","","","","","","","","132040","134054","","","","","","","","","","","","6","","stimuli/stars_6.png","63","","","","","stimuli/AM09_AO.jpg","",""
"explore-choice","43","133524","0.0-43.0","p96379","A279YSE7NB16M0","3OWZNK3RYMVDNXPNEIRWZ8JM6MU2UY","3H7XDTSHKEXJHFKTYZWN8KT9KXCWG3","model","match","uniform","","","","","","","915","134054","134969","[""stimuli/WM13_DO.jpg"",""stimuli/WM07_SUR.jpg"",""stimuli/AF09_AO.jpg"",""stimuli/AM09_CC.jpg""]","stimuli/WM13_DO.jpg","stimuli/WM07_SUR.jpg","stimuli/AF09_AO.jpg","stimuli/AM09_CC.jpg","pos2","stimuli/WM07_SUR.jpg","SUR","WM07","1","1.5","3","2","stimuli/stars_3.png","64.5","[""DO"",""SUR"",""AO"",""CC""]","[""WM13"",""WM07"",""AF09"",""AM09""]","[4,3,6,4]","[4,2,8,6]","","",""
"show-reward","44","135529","0.0-44.0","p96379","A279YSE7NB16M0","3OWZNK3RYMVDNXPNEIRWZ8JM6MU2UY","3H7XDTSHKEXJHFKTYZWN8KT9KXCWG3","model","match","uniform","","","","","","","","135471","137476","","","","","","","","","","","","3","","stimuli/stars_3.png","64.5","","","","","stimuli/WM07_SUR.jpg","",""
"explore-choice","45","137027","0.0-45.0","p96379","A279YSE7NB16M0","3OWZNK3RYMVDNXPNEIRWZ8JM6MU2UY","3H7XDTSHKEXJHFKTYZWN8KT9KXCWG3","model","match","uniform","","","","","","","995","137476","138471","[""stimuli/AF09_SUR.jpg"",""stimuli/WM13_CC.jpg"",""stimuli/AM09_AO.jpg"",""stimuli/WM07_DO.jpg""]","stimuli/AF09_SUR.jpg","stimuli/WM13_CC.jpg","stimuli/AM09_AO.jpg","stimuli/WM07_DO.jpg","pos1","stimuli/AF09_SUR.jpg","SUR","AF09","0","3","6","8","stimuli/stars_6.png","67.5","[""SUR"",""CC"",""AO"",""DO""]","[""AF09"",""WM13"",""AM09"",""WM07""]","[6,6,6,2]","[8,4,6,2]","","",""
"show-reward","46","139041","0.0-46.0","p96379","A279YSE7NB16M0","3OWZNK3RYMVDNXPNEIRWZ8JM6MU2UY","3H7XDTSHKEXJHFKTYZWN8KT9KXCWG3","model","match","uniform","","","","","","","","138974","140988","","","","","","","","","","","","6","","stimuli/stars_6.png","67.5","","","","","stimuli/AF09_SUR.jpg","",""
"explore-choice","47","140559","0.0-47.0","p96379","A279YSE7NB16M0","3OWZNK3RYMVDNXPNEIRWZ8JM6MU2UY","3H7XDTSHKEXJHFKTYZWN8KT9KXCWG3","model","match","uniform","","","","","","","1015","140988","142003","[""stimuli/WM13_AO.jpg"",""stimuli/AM09_CC.jpg"",""stimuli/AF09_DO.jpg"",""stimuli/WM07_SUR.jpg""]","stimuli/WM13_AO.jpg","stimuli/AM09_CC.jpg","stimuli/AF09_DO.jpg","stimuli/WM07_SUR.jpg","pos3","stimuli/AF09_DO.jpg","DO","AF09","2","4","8","8","stimuli/stars_8.png","71.5","[""AO"",""CC"",""DO"",""SUR""]","[""WM13"",""AM09"",""AF09"",""WM07""]","[3,6,8,0]","[4,6,8,2]","","",""
"show-reward","48","142576","0.0-48.0","p96379","A279YSE7NB16M0","3OWZNK3RYMVDNXPNEIRWZ8JM6MU2UY","3H7XDTSHKEXJHFKTYZWN8KT9KXCWG3","model","match","uniform","","","","","","","","142506","144523","","","","","","","","","","","","8","","stimuli/stars_8.png","71.5","","","","","stimuli/AF09_DO.jpg","",""
"explore-choice","49","144131","0.0-49.0","p96379","A279YSE7NB16M0","3OWZNK3RYMVDNXPNEIRWZ8JM6MU2UY","3H7XDTSHKEXJHFKTYZWN8KT9KXCWG3","model","match","uniform","","","","","","","1042","144523","145565","[""stimuli/AM09_DO.jpg"",""stimuli/WM07_SUR.jpg"",""stimuli/WM13_AO.jpg"",""stimuli/AF09_CC.jpg""]","stimuli/AM09_DO.jpg","stimuli/WM07_SUR.jpg","stimuli/WM13_AO.jpg","stimuli/AF09_CC.jpg","pos4","stimuli/AF09_CC.jpg","CC","AF09","3","3","6","8","stimuli/stars_6.png","74.5","[""DO"",""SUR"",""AO"",""CC""]","[""AM09"",""WM07"",""WM13"",""AF09""]","[8,4,6,6]","[6,2,4,8]","","",""
"show-reward","50","146146","0.0-50.0","p96379","A279YSE7NB16M0","3OWZNK3RYMVDNXPNEIRWZ8JM6MU2UY","3H7XDTSHKEXJHFKTYZWN8KT9KXCWG3","model","match","uniform","","","","","","","","146078","148093","","","","","","","","","","","","6","","stimuli/stars_6.png","74.5","","","","","stimuli/AF09_CC.jpg","",""
"explore-choice","51","147486","0.0-51.0","p96379","A279YSE7NB16M0","3OWZNK3RYMVDNXPNEIRWZ8JM6MU2UY","3H7XDTSHKEXJHFKTYZWN8KT9KXCWG3","model","match","uniform","","","","","","","840","148093","148933","[""stimuli/WM07_CC.jpg"",""stimuli/WM13_SUR.jpg"",""stimuli/AM09_DO.jpg"",""stimuli/AF09_AO.jpg""]","stimuli/WM07_CC.jpg","stimuli/WM13_SUR.jpg","stimuli/AM09_DO.jpg","stimuli/AF09_AO.jpg","pos4","stimuli/AF09_AO.jpg","AO","AF09","3","3","6","8","stimuli/stars_6.png","77.5","[""CC"",""SUR"",""DO"",""AO""]","[""WM07"",""WM13"",""AM09"",""AF09""]","[2,2,4,6]","[2,4,6,8]","","",""
"show-reward","52","149498","0.0-52.0","p96379","A279YSE7NB16M0","3OWZNK3RYMVDNXPNEIRWZ8JM6MU2UY","3H7XDTSHKEXJHFKTYZWN8KT9KXCWG3","model","match","uniform","","","","","","","","149434","151445","","","","","","","","","","","","6","","stimuli/stars_6.png","77.5","","","","","stimuli/AF09_AO.jpg","",""
"explore-choice","53","151121","0.0-53.0","p96379","A279YSE7NB16M0","3OWZNK3RYMVDNXPNEIRWZ8JM6MU2UY","3H7XDTSHKEXJHFKTYZWN8KT9KXCWG3","model","match","uniform","","","","","","","1114","151445","152559","[""stimuli/AM09_SUR.jpg"",""stimuli/WM13_DO.jpg"",""stimuli/AF09_CC.jpg"",""stimuli/WM07_AO.jpg""]","stimuli/AM09_SUR.jpg","stimuli/WM13_DO.jpg","stimuli/AF09_CC.jpg","stimuli/WM07_AO.jpg","pos3","stimuli/AF09_CC.jpg","CC","AF09","2","3","6","8","stimuli/stars_6.png","80.5","[""SUR"",""DO"",""CC"",""AO""]","[""AM09"",""WM13"",""AF09"",""WM07""]","[8,3,6,3]","[6,4,8,2]","","",""
"show-reward","54","153136","0.0-54.0","p96379","A279YSE7NB16M0","3OWZNK3RYMVDNXPNEIRWZ8JM6MU2UY","3H7XDTSHKEXJHFKTYZWN8KT9KXCWG3","model","match","uniform","","","","","","","","153068","155083","","","","","","","","","","","","6","","stimuli/stars_6.png","80.5","","","","","stimuli/AF09_CC.jpg","",""
"explore-choice","55","154654","0.0-55.0","p96379","A279YSE7NB16M0","3OWZNK3RYMVDNXPNEIRWZ8JM6MU2UY","3H7XDTSHKEXJHFKTYZWN8KT9KXCWG3","model","match","uniform","","","","","","","1016","155083","156099","[""stimuli/WM13_SUR.jpg"",""stimuli/WM07_CC.jpg"",""stimuli/AF09_AO.jpg"",""stimuli/AM09_DO.jpg""]","stimuli/WM13_SUR.jpg","stimuli/WM07_CC.jpg","stimuli/AF09_AO.jpg","stimuli/AM09_DO.jpg","pos3","stimuli/AF09_AO.jpg","AO","AF09","2","3","6","8","stimuli/stars_6.png","83.5","[""SUR"",""CC"",""AO"",""DO""]","[""WM13"",""WM07"",""AF09"",""AM09""]","[2,2,6,4]","[4,2,8,6]","","",""
"show-reward","56","156671","0.0-56.0","p96379","A279YSE7NB16M0","3OWZNK3RYMVDNXPNEIRWZ8JM6MU2UY","3H7XDTSHKEXJHFKTYZWN8KT9KXCWG3","model","match","uniform","","","","","","","","156601","158618","","","","","","","","","","","","6","","stimuli/stars_6.png","83.5","","","","","stimuli/AF09_AO.jpg","",""
"explore-choice","57","158110","0.0-57.0","p96379","A279YSE7NB16M0","3OWZNK3RYMVDNXPNEIRWZ8JM6MU2UY","3H7XDTSHKEXJHFKTYZWN8KT9KXCWG3","model","match","uniform","","","","","","","927","158618","159545","[""stimuli/AM09_SUR.jpg"",""stimuli/WM13_DO.jpg"",""stimuli/WM07_AO.jpg"",""stimuli/AF09_CC.jpg""]","stimuli/AM09_SUR.jpg","stimuli/WM13_DO.jpg","stimuli/WM07_AO.jpg","stimuli/AF09_CC.jpg","pos4","stimuli/AF09_CC.jpg","CC","AF09","3","3","6","8","stimuli/stars_6.png","86.5","[""SUR"",""DO"",""AO"",""CC""]","[""AM09"",""WM13"",""WM07"",""AF09""]","[8,3,3,6]","[6,4,2,8]","","",""
"show-reward","58","160114","0.0-58.0","p96379","A279YSE7NB16M0","3OWZNK3RYMVDNXPNEIRWZ8JM6MU2UY","3H7XDTSHKEXJHFKTYZWN8KT9KXCWG3","model","match","uniform","","","","","","","","160057","162060","","","","","","","","","","","","6","","stimuli/stars_6.png","86.5","","","","","stimuli/AF09_CC.jpg","",""
"explore-choice","59","161600","0.0-59.0","p96379","A279YSE7NB16M0","3OWZNK3RYMVDNXPNEIRWZ8JM6MU2UY","3H7XDTSHKEXJHFKTYZWN8KT9KXCWG3","model","match","uniform","","","","","","","974","162061","163035","[""stimuli/WM07_AO.jpg"",""stimuli/AF09_SUR.jpg"",""stimuli/WM13_DO.jpg"",""stimuli/AM09_CC.jpg""]","stimuli/WM07_AO.jpg","stimuli/AF09_SUR.jpg","stimuli/WM13_DO.jpg","stimuli/AM09_CC.jpg","pos4","stimuli/AM09_CC.jpg","CC","AM09","3","2","4","6","stimuli/stars_4.png","88.5","[""AO"",""SUR"",""DO"",""CC""]","[""WM07"",""AF09"",""WM13"",""AM09""]","[0,6,2,4]","[2,8,4,6]","","",""
"show-reward","60","163615","0.0-60.0","p96379","A279YSE7NB16M0","3OWZNK3RYMVDNXPNEIRWZ8JM6MU2UY","3H7XDTSHKEXJHFKTYZWN8KT9KXCWG3","model","match","uniform","","","","","","","","163547","165562","","","","","","","","","","","","4","","stimuli/stars_4.png","88.5","","","","","stimuli/AM09_CC.jpg","",""
"explore-choice","61","165204","0.0-61.0","p96379","A279YSE7NB16M0","3OWZNK3RYMVDNXPNEIRWZ8JM6MU2UY","3H7XDTSHKEXJHFKTYZWN8KT9KXCWG3","model","match","uniform","","","","","","","1083","165562","166645","[""stimuli/AM09_DO.jpg"",""stimuli/AF09_CC.jpg"",""stimuli/WM13_SUR.jpg"",""stimuli/WM07_AO.jpg""]","stimuli/AM09_DO.jpg","stimuli/AF09_CC.jpg","stimuli/WM13_SUR.jpg","stimuli/WM07_AO.jpg","pos2","stimuli/AF09_CC.jpg","CC","AF09","1","3.5","7","8","stimuli/stars_7.png","92","[""DO"",""CC"",""SUR"",""AO""]","[""AM09"",""AF09"",""WM13"",""WM07""]","[6,7,3,3]","[6,8,4,2]","","",""
"show-reward","62","167212","0.0-62.0","p96379","A279YSE7NB16M0","3OWZNK3RYMVDNXPNEIRWZ8JM6MU2UY","3H7XDTSHKEXJHFKTYZWN8KT9KXCWG3","model","match","uniform","","","","","","","","167151","169158","","","","","","","","","","","","7","","stimuli/stars_7.png","92","","","","","stimuli/AF09_CC.jpg","",""
"explore-choice","63","168866","0.0-63.0","p96379","A279YSE7NB16M0","3OWZNK3RYMVDNXPNEIRWZ8JM6MU2UY","3H7XDTSHKEXJHFKTYZWN8KT9KXCWG3","model","match","uniform","","","","","","","1142","169159","170301","[""stimuli/AM09_SUR.jpg"",""stimuli/WM07_DO.jpg"",""stimuli/AF09_CC.jpg"",""stimuli/WM13_AO.jpg""]","stimuli/AM09_SUR.jpg","stimuli/WM07_DO.jpg","stimuli/AF09_CC.jpg","stimuli/WM13_AO.jpg","pos3","stimuli/AF09_CC.jpg","CC","AF09","2","3","6","8","stimuli/stars_6.png","95","[""SUR"",""DO"",""CC"",""AO""]","[""AM09"",""WM07"",""AF09"",""WM13""]","[7,3,6,4]","[6,2,8,4]","","",""
"show-reward","64","170880","0.0-64.0","p96379","A279YSE7NB16M0","3OWZNK3RYMVDNXPNEIRWZ8JM6MU2UY","3H7XDTSHKEXJHFKTYZWN8KT9KXCWG3","model","match","uniform","","","","","","","","170813","172827","","","","","","","","","","","","6","","stimuli/stars_6.png","95","","","","","stimuli/AF09_CC.jpg","",""
"explore-choice","65","172501","0.0-65.0","p96379","A279YSE7NB16M0","3OWZNK3RYMVDNXPNEIRWZ8JM6MU2UY","3H7XDTSHKEXJHFKTYZWN8KT9KXCWG3","model","match","uniform","","","","","","","1105","172828","173933","[""stimuli/WM07_DO.jpg"",""stimuli/AM09_AO.jpg"",""stimuli/WM13_CC.jpg"",""stimuli/AF09_SUR.jpg""]","stimuli/WM07_DO.jpg","stimuli/AM09_AO.jpg","stimuli/WM13_CC.jpg","stimuli/AF09_SUR.jpg","pos1","stimuli/WM07_DO.jpg","DO","WM07","0","1","2","2","stimuli/stars_2.png","96","[""DO"",""AO"",""CC"",""SUR""]","[""WM07"",""AM09"",""WM13"",""AF09""]","[2,6,6,6]","[2,6,4,8]","","",""
"show-reward","66","174508","0.0-66.0","p96379","A279YSE7NB16M0","3OWZNK3RYMVDNXPNEIRWZ8JM6MU2UY","3H7XDTSHKEXJHFKTYZWN8KT9KXCWG3","model","match","uniform","","","","","","","","174448","176455","","","","","","","","","","","","2","","stimuli/stars_2.png","96","","","","","stimuli/WM07_DO.jpg","",""
"explore-choice","67","176759","0.0-67.0","p96379","A279YSE7NB16M0","3OWZNK3RYMVDNXPNEIRWZ8JM6MU2UY","3H7XDTSHKEXJHFKTYZWN8KT9KXCWG3","model","match","uniform","","","","","","","1742","176455","178197","[""stimuli/WM13_CC.jpg"",""stimuli/AF09_AO.jpg"",""stimuli/WM07_DO.jpg"",""stimuli/AM09_SUR.jpg""]","stimuli/WM13_CC.jpg","stimuli/AF09_AO.jpg","stimuli/WM07_DO.jpg","stimuli/AM09_SUR.jpg","pos2","stimuli/AF09_AO.jpg","AO","AF09","1","4","8","8","stimuli/stars_8.png","100","[""CC"",""AO"",""DO"",""SUR""]","[""WM13"",""AF09"",""WM07"",""AM09""]","[6,8,4,7]","[4,8,2,6]","","",""
"show-reward","68","178763","0.0-68.0","p96379","A279YSE7NB16M0","3OWZNK3RYMVDNXPNEIRWZ8JM6MU2UY","3H7XDTSHKEXJHFKTYZWN8KT9KXCWG3","model","match","uniform","","","","","","","","178706","180710","","","","","","","","","","","","8","","stimuli/stars_8.png","100","","","","","stimuli/AF09_AO.jpg","",""
"explore-choice","69","180514","0.0-69.0","p96379","A279YSE7NB16M0","3OWZNK3RYMVDNXPNEIRWZ8JM6MU2UY","3H7XDTSHKEXJHFKTYZWN8KT9KXCWG3","model","match","uniform","","","","","","","1239","180710","181949","[""stimuli/AM09_AO.jpg"",""stimuli/WM13_DO.jpg"",""stimuli/WM07_SUR.jpg"",""stimuli/AF09_CC.jpg""]","stimuli/AM09_AO.jpg","stimuli/WM13_DO.jpg","stimuli/WM07_SUR.jpg","stimuli/AF09_CC.jpg","pos4","stimuli/AF09_CC.jpg","CC","AF09","3","4","8","8","stimuli/stars_8.png","104","[""AO"",""DO"",""SUR"",""CC""]","[""AM09"",""WM13"",""WM07"",""AF09""]","[5,4,2,8]","[6,4,2,8]","","",""
"show-reward","70","182524","0.0-70.0","p96379","A279YSE7NB16M0","3OWZNK3RYMVDNXPNEIRWZ8JM6MU2UY","3H7XDTSHKEXJHFKTYZWN8KT9KXCWG3","model","match","uniform","","","","","","","","182461","184471","","","","","","","","","","","","8","","stimuli/stars_8.png","104","","","","","stimuli/AF09_CC.jpg","",""
"explore-choice","71","186442","0.0-71.0","p96379","A279YSE7NB16M0","3OWZNK3RYMVDNXPNEIRWZ8JM6MU2UY","3H7XDTSHKEXJHFKTYZWN8KT9KXCWG3","model","match","uniform","","","","","","","3416","184471","187887","[""stimuli/WM07_SUR.jpg"",""stimuli/AF09_AO.jpg"",""stimuli/WM13_CC.jpg"",""stimuli/AM09_DO.jpg""]","stimuli/WM07_SUR.jpg","stimuli/AF09_AO.jpg","stimuli/WM13_CC.jpg","stimuli/AM09_DO.jpg","pos2","stimuli/AF09_AO.jpg","AO","AF09","1","3","6","8","stimuli/stars_6.png","107","[""SUR"",""AO"",""CC"",""DO""]","[""WM07"",""AF09"",""WM13"",""AM09""]","[1,6,5,8]","[2,8,4,6]","","",""
"show-reward","72","188444","0.0-72.0","p96379","A279YSE7NB16M0","3OWZNK3RYMVDNXPNEIRWZ8JM6MU2UY","3H7XDTSHKEXJHFKTYZWN8KT9KXCWG3","model","match","uniform","","","","","","","","188390","190391","","","","","","","","","","","","6","","stimuli/stars_6.png","107","","","","","stimuli/AF09_AO.jpg","",""
"explore-choice","73","189858","0.0-73.0","p96379","A279YSE7NB16M0","3OWZNK3RYMVDNXPNEIRWZ8JM6MU2UY","3H7XDTSHKEXJHFKTYZWN8KT9KXCWG3","model","match","uniform","","","","","","","900","190391","191291","[""stimuli/WM13_DO.jpg"",""stimuli/AM09_CC.jpg"",""stimuli/WM07_SUR.jpg"",""stimuli/AF09_AO.jpg""]","stimuli/WM13_DO.jpg","stimuli/AM09_CC.jpg","stimuli/WM07_SUR.jpg","stimuli/AF09_AO.jpg","pos4","stimuli/AF09_AO.jpg","AO","AF09","3","3","6","8","stimuli/stars_6.png","110","[""DO"",""CC"",""SUR"",""AO""]","[""WM13"",""AM09"",""WM07"",""AF09""]","[4,4,3,6]","[4,6,2,8]","","",""
"show-reward","74","191866","0.0-74.0","p96379","A279YSE7NB16M0","3OWZNK3RYMVDNXPNEIRWZ8JM6MU2UY","3H7XDTSHKEXJHFKTYZWN8KT9KXCWG3","model","match","uniform","","","","","","","","191805","193813","","","","","","","","","","","","6","","stimuli/stars_6.png","110","","","","","stimuli/AF09_AO.jpg","",""
"explore-choice","75","193420","0.0-75.0","p96379","A279YSE7NB16M0","3OWZNK3RYMVDNXPNEIRWZ8JM6MU2UY","3H7XDTSHKEXJHFKTYZWN8KT9KXCWG3","model","match","uniform","","","","","","","1040","193813","194853","[""stimuli/WM07_AO.jpg"",""stimuli/AM09_SUR.jpg"",""stimuli/AF09_DO.jpg"",""stimuli/WM13_CC.jpg""]","stimuli/WM07_AO.jpg","stimuli/AM09_SUR.jpg","stimuli/AF09_DO.jpg","stimuli/WM13_CC.jpg","pos3","stimuli/AF09_DO.jpg","DO","AF09","2","5","10","8","stimuli/stars_10.png","115","[""AO"",""SUR"",""DO"",""CC""]","[""WM07"",""AM09"",""AF09"",""WM13""]","[1,4,10,2]","[2,6,8,4]","","",""
"show-reward","76","195432","0.0-76.0","p96379","A279YSE7NB16M0","3OWZNK3RYMVDNXPNEIRWZ8JM6MU2UY","3H7XDTSHKEXJHFKTYZWN8KT9KXCWG3","model","match","uniform","","","","","","","","195367","197379","","","","","","","","","","","","10","","stimuli/stars_10.png","115","","","","","stimuli/AF09_DO.jpg","",""
"explore-choice","77","197287","0.0-77.0","p96379","A279YSE7NB16M0","3OWZNK3RYMVDNXPNEIRWZ8JM6MU2UY","3H7XDTSHKEXJHFKTYZWN8KT9KXCWG3","model","match","uniform","","","","","","","1350","197379","198729","[""stimuli/AF09_SUR.jpg"",""stimuli/WM07_AO.jpg"",""stimuli/AM09_DO.jpg"",""stimuli/WM13_CC.jpg""]","stimuli/AF09_SUR.jpg","stimuli/WM07_AO.jpg","stimuli/AM09_DO.jpg","stimuli/WM13_CC.jpg","pos1","stimuli/AF09_SUR.jpg","SUR","AF09","0","4.5","9","8","stimuli/stars_9.png","119.5","[""SUR"",""AO"",""DO"",""CC""]","[""AF09"",""WM07"",""AM09"",""WM13""]","[9,0,6,2]","[8,2,6,4]","","",""
"show-reward","78","199301","0.0-78.0","p96379","A279YSE7NB16M0","3OWZNK3RYMVDNXPNEIRWZ8JM6MU2UY","3H7XDTSHKEXJHFKTYZWN8KT9KXCWG3","model","match","uniform","","","","","","","","199234","201247","","","","","","","","","","","","9","","stimuli/stars_9.png","119.5","","","","","stimuli/AF09_SUR.jpg","",""
"explore-choice","79","201235","0.0-79.0","p96379","A279YSE7NB16M0","3OWZNK3RYMVDNXPNEIRWZ8JM6MU2UY","3H7XDTSHKEXJHFKTYZWN8KT9KXCWG3","model","match","uniform","","","","","","","1425","201248","202673","[""stimuli/AM09_AO.jpg"",""stimuli/AF09_SUR.jpg"",""stimuli/WM07_CC.jpg"",""stimuli/WM13_DO.jpg""]","stimuli/AM09_AO.jpg","stimuli/AF09_SUR.jpg","stimuli/WM07_CC.jpg","stimuli/WM13_DO.jpg","pos2","stimuli/AF09_SUR.jpg","SUR","AF09","1","4.5","9","8","stimuli/stars_9.png","124","[""AO"",""SUR"",""CC"",""DO""]","[""AM09"",""AF09"",""WM07"",""WM13""]","[6,9,2,6]","[6,8,2,4]","","",""
"show-reward","80","203241","0.0-80.0","p96379","A279YSE7NB16M0","3OWZNK3RYMVDNXPNEIRWZ8JM6MU2UY","3H7XDTSHKEXJHFKTYZWN8KT9KXCWG3","model","match","uniform","","","","","","","","203182","205188","","","","","","","","","","","","9","","stimuli/stars_9.png","124","","","","","stimuli/AF09_SUR.jpg","",""
"explore-choice","81","204664","0.0-81.0","p96379","A279YSE7NB16M0","3OWZNK3RYMVDNXPNEIRWZ8JM6MU2UY","3H7XDTSHKEXJHFKTYZWN8KT9KXCWG3","model","match","uniform","","","","","","","911","205189","206100","[""stimuli/AM09_AO.jpg"",""stimuli/AF09_DO.jpg"",""stimuli/WM13_SUR.jpg"",""stimuli/WM07_CC.jpg""]","stimuli/AM09_AO.jpg","stimuli/AF09_DO.jpg","stimuli/WM13_SUR.jpg","stimuli/WM07_CC.jpg","pos2","stimuli/AF09_DO.jpg","DO","AF09","1","5","10","8","stimuli/stars_10.png","129","[""AO"",""DO"",""SUR"",""CC""]","[""AM09"",""AF09"",""WM13"",""WM07""]","[5,10,5,4]","[6,8,4,2]","","",""
"show-reward","82","206678","0.0-82.0","p96379","A279YSE7NB16M0","3OWZNK3RYMVDNXPNEIRWZ8JM6MU2UY","3H7XDTSHKEXJHFKTYZWN8KT9KXCWG3","model","match","uniform","","","","","","","","206611","208625","","","","","","","","","","","","10","","stimuli/stars_10.png","129","","","","","stimuli/AF09_DO.jpg","",""
"explore-choice","83","208511","0.0-83.0","p96379","A279YSE7NB16M0","3OWZNK3RYMVDNXPNEIRWZ8JM6MU2UY","3H7XDTSHKEXJHFKTYZWN8KT9KXCWG3","model","match","uniform","","","","","","","1319","208626","209945","[""stimuli/WM13_AO.jpg"",""stimuli/WM07_CC.jpg"",""stimuli/AM09_DO.jpg"",""stimuli/AF09_SUR.jpg""]","stimuli/WM13_AO.jpg","stimuli/WM07_CC.jpg","stimuli/AM09_DO.jpg","stimuli/AF09_SUR.jpg","pos4","stimuli/AF09_SUR.jpg","SUR","AF09","3","3.5","7","8","stimuli/stars_7.png","132.5","[""AO"",""CC"",""DO"",""SUR""]","[""WM13"",""WM07"",""AM09"",""AF09""]","[5,3,6,7]","[4,2,6,8]","","",""
"show-reward","84","210516","0.0-84.0","p96379","A279YSE7NB16M0","3OWZNK3RYMVDNXPNEIRWZ8JM6MU2UY","3H7XDTSHKEXJHFKTYZWN8KT9KXCWG3","model","match","uniform","","","","","","","","210458","212463","","","","","","","","","","","","7","","stimuli/stars_7.png","132.5","","","","","stimuli/AF09_SUR.jpg","",""
"explore-choice","85","212113","0.0-85.0","p96379","A279YSE7NB16M0","3OWZNK3RYMVDNXPNEIRWZ8JM6MU2UY","3H7XDTSHKEXJHFKTYZWN8KT9KXCWG3","model","match","uniform","","","","","","","1088","212463","213551","[""stimuli/WM07_SUR.jpg"",""stimuli/WM13_CC.jpg"",""stimuli/AF09_DO.jpg"",""stimuli/AM09_AO.jpg""]","stimuli/WM07_SUR.jpg","stimuli/WM13_CC.jpg","stimuli/AF09_DO.jpg","stimuli/AM09_AO.jpg","pos3","stimuli/AF09_DO.jpg","DO","AF09","2","3.5","7","8","stimuli/stars_7.png","136","[""SUR"",""CC"",""DO"",""AO""]","[""WM07"",""WM13"",""AF09"",""AM09""]","[4,3,7,5]","[2,4,8,6]","","",""
"show-reward","86","214115","0.0-86.0","p96379","A279YSE7NB16M0","3OWZNK3RYMVDNXPNEIRWZ8JM6MU2UY","3H7XDTSHKEXJHFKTYZWN8KT9KXCWG3","model","match","uniform","","","","","","","","214060","216062","","","","","","","","","","","","7","","stimuli/stars_7.png","136","","","","","stimuli/AF09_DO.jpg","",""
"explore-choice","87","215928","0.0-87.0","p96379","A279YSE7NB16M0","3OWZNK3RYMVDNXPNEIRWZ8JM6MU2UY","3H7XDTSHKEXJHFKTYZWN8KT9KXCWG3","model","match","uniform","","","","","","","1300","216062","217362","[""stimuli/AM09_DO.jpg"",""stimuli/AF09_CC.jpg"",""stimuli/WM13_AO.jpg"",""stimuli/WM07_SUR.jpg""]","stimuli/AM09_DO.jpg","stimuli/AF09_CC.jpg","stimuli/WM13_AO.jpg","stimuli/WM07_SUR.jpg","pos2","stimuli/AF09_CC.jpg","CC","AF09","1","3","6","8","stimuli/stars_6.png","139","[""DO"",""CC"",""AO"",""SUR""]","[""AM09"",""AF09"",""WM13"",""WM07""]","[8,6,6,4]","[6,8,4,2]","","",""
"show-reward","88","217930","0.0-88.0","p96379","A279YSE7NB16M0","3OWZNK3RYMVDNXPNEIRWZ8JM6MU2UY","3H7XDTSHKEXJHFKTYZWN8KT9KXCWG3","model","match","uniform","","","","","","","","217875","219876","","","","","","","","","","","","6","","stimuli/stars_6.png","139","","","","","stimuli/AF09_CC.jpg","",""
"explore-choice","89","220104","0.0-89.0","p96379","A279YSE7NB16M0","3OWZNK3RYMVDNXPNEIRWZ8JM6MU2UY","3H7XDTSHKEXJHFKTYZWN8KT9KXCWG3","model","match","uniform","","","","","","","1660","219877","221537","[""stimuli/AF09_SUR.jpg"",""stimuli/WM07_DO.jpg"",""stimuli/AM09_CC.jpg"",""stimuli/WM13_AO.jpg""]","stimuli/AF09_SUR.jpg","stimuli/WM07_DO.jpg","stimuli/AM09_CC.jpg","stimuli/WM13_AO.jpg","pos1","stimuli/AF09_SUR.jpg","SUR","AF09","0","3.5","7","8","stimuli/stars_7.png","142.5","[""SUR"",""DO"",""CC"",""AO""]","[""AF09"",""WM07"",""AM09"",""WM13""]","[7,4,6,6]","[8,2,6,4]","","",""
"show-reward","90","222120","0.0-90.0","p96379","A279YSE7NB16M0","3OWZNK3RYMVDNXPNEIRWZ8JM6MU2UY","3H7XDTSHKEXJHFKTYZWN8KT9KXCWG3","model","match","uniform","","","","","","","","222051","224066","","","","","","","","","","","","7","","stimuli/stars_7.png","142.5","","","","","stimuli/AF09_SUR.jpg","",""
"explore-choice","91","223873","0.0-91.0","p96379","A279YSE7NB16M0","3OWZNK3RYMVDNXPNEIRWZ8JM6MU2UY","3H7XDTSHKEXJHFKTYZWN8KT9KXCWG3","model","match","uniform","","","","","","","1242","224067","225309","[""stimuli/WM07_DO.jpg"",""stimuli/AM09_CC.jpg"",""stimuli/AF09_AO.jpg"",""stimuli/WM13_SUR.jpg""]","stimuli/WM07_DO.jpg","stimuli/AM09_CC.jpg","stimuli/AF09_AO.jpg","stimuli/WM13_SUR.jpg","pos3","stimuli/AF09_AO.jpg","AO","AF09","2","3","6","8","stimuli/stars_6.png","145.5","[""DO"",""CC"",""AO"",""SUR""]","[""WM07"",""AM09"",""AF09"",""WM13""]","[0,8,6,6]","[2,6,8,4]","","",""
"show-reward","92","225889","0.0-92.0","p96379","A279YSE7NB16M0","3OWZNK3RYMVDNXPNEIRWZ8JM6MU2UY","3H7XDTSHKEXJHFKTYZWN8KT9KXCWG3","model","match","uniform","","","","","","","","225820","227836","","","","","","","","","","","","6","","stimuli/stars_6.png","145.5","","","","","stimuli/AF09_AO.jpg","",""
"explore-choice","93","227747","0.0-93.0","p96379","A279YSE7NB16M0","3OWZNK3RYMVDNXPNEIRWZ8JM6MU2UY","3H7XDTSHKEXJHFKTYZWN8KT9KXCWG3","model","match","uniform","","","","","","","1341","227836","229177","[""stimuli/AF09_CC.jpg"",""stimuli/AM09_AO.jpg"",""stimuli/WM13_SUR.jpg"",""stimuli/WM07_DO.jpg""]","stimuli/AF09_CC.jpg","stimuli/AM09_AO.jpg","stimuli/WM13_SUR.jpg","stimuli/WM07_DO.jpg","pos1","stimuli/AF09_CC.jpg","CC","AF09","0","3","6","8","stimuli/stars_6.png","148.5","[""CC"",""AO"",""SUR"",""DO""]","[""AF09"",""AM09"",""WM13"",""WM07""]","[6,6,2,4]","[8,6,4,2]","","",""
"show-reward","94","229763","0.0-94.0","p96379","A279YSE7NB16M0","3OWZNK3RYMVDNXPNEIRWZ8JM6MU2UY","3H7XDTSHKEXJHFKTYZWN8KT9KXCWG3","model","match","uniform","","","","","","","","229694","231709","","","","","","","","","","","","6","","stimuli/stars_6.png","148.5","","","","","stimuli/AF09_CC.jpg","",""
"explore-choice","95","231678","0.0-95.0","p96379","A279YSE7NB16M0","3OWZNK3RYMVDNXPNEIRWZ8JM6MU2UY","3H7XDTSHKEXJHFKTYZWN8KT9KXCWG3","model","match","uniform","","","","","","","1405","231710","233115","[""stimuli/AM09_SUR.jpg"",""stimuli/WM07_CC.jpg"",""stimuli/AF09_DO.jpg"",""stimuli/WM13_AO.jpg""]","stimuli/AM09_SUR.jpg","stimuli/WM07_CC.jpg","stimuli/AF09_DO.jpg","stimuli/WM13_AO.jpg","pos3","stimuli/AF09_DO.jpg","DO","AF09","2","3.5","7","8","stimuli/stars_7.png","152","[""SUR"",""CC"",""DO"",""AO""]","[""AM09"",""WM07"",""AF09"",""WM13""]","[8,0,7,6]","[6,2,8,4]","","",""
"show-reward","96","233687","0.0-96.0","p96379","A279YSE7NB16M0","3OWZNK3RYMVDNXPNEIRWZ8JM6MU2UY","3H7XDTSHKEXJHFKTYZWN8KT9KXCWG3","model","match","uniform","","","","","","","","233625","235633","","","","","","","","","","","","7","","stimuli/stars_7.png","152","","","","","stimuli/AF09_DO.jpg","",""
"explore-choice","97","235249","0.0-97.0","p96379","A279YSE7NB16M0","3OWZNK3RYMVDNXPNEIRWZ8JM6MU2UY","3H7XDTSHKEXJHFKTYZWN8KT9KXCWG3","model","match","uniform","","","","","","","1049","235634","236683","[""stimuli/WM13_AO.jpg"",""stimuli/WM07_SUR.jpg"",""stimuli/AF09_DO.jpg"",""stimuli/AM09_CC.jpg""]","stimuli/WM13_AO.jpg","stimuli/WM07_SUR.jpg","stimuli/AF09_DO.jpg","stimuli/AM09_CC.jpg","pos3","stimuli/AF09_DO.jpg","DO","AF09","2","4","8","8","stimuli/stars_8.png","156","[""AO"",""SUR"",""DO"",""CC""]","[""WM13"",""WM07"",""AF09"",""AM09""]","[3,0,8,6]","[4,2,8,6]","","",""
"show-reward","98","237262","0.0-98.0","p96379","A279YSE7NB16M0","3OWZNK3RYMVDNXPNEIRWZ8JM6MU2UY","3H7XDTSHKEXJHFKTYZWN8KT9KXCWG3","model","match","uniform","","","","","","","","237196","239209","","","","","","","","","","","","8","","stimuli/stars_8.png","156","","","","","stimuli/AF09_DO.jpg","",""
"explore-choice","99","239090","0.0-99.0","p96379","A279YSE7NB16M0","3OWZNK3RYMVDNXPNEIRWZ8JM6MU2UY","3H7XDTSHKEXJHFKTYZWN8KT9KXCWG3","model","match","uniform","","","","","","","1326","239209","240535","[""stimuli/AF09_DO.jpg"",""stimuli/WM13_SUR.jpg"",""stimuli/WM07_AO.jpg"",""stimuli/AM09_CC.jpg""]","stimuli/AF09_DO.jpg","stimuli/WM13_SUR.jpg","stimuli/WM07_AO.jpg","stimuli/AM09_CC.jpg","pos1","stimuli/AF09_DO.jpg","DO","AF09","0","4.5","9","8","stimuli/stars_9.png","160.5","[""DO"",""SUR"",""AO"",""CC""]","[""AF09"",""WM13"",""WM07"",""AM09""]","[9,2,3,8]","[8,4,2,6]","","",""
"show-reward","100","241095","0.0-100.0","p96379","A279YSE7NB16M0","3OWZNK3RYMVDNXPNEIRWZ8JM6MU2UY","3H7XDTSHKEXJHFKTYZWN8KT9KXCWG3","model","match","uniform","","","","","","","","241037","243042","","","","","","","","","","","","9","","stimuli/stars_9.png","160.5","","","","","stimuli/AF09_DO.jpg","",""
"explore-choice","101","242974","0.0-101.0","p96379","A279YSE7NB16M0","3OWZNK3RYMVDNXPNEIRWZ8JM6MU2UY","3H7XDTSHKEXJHFKTYZWN8KT9KXCWG3","model","match","uniform","","","","","","","1369","243042","244411","[""stimuli/AM09_SUR.jpg"",""stimuli/WM13_DO.jpg"",""stimuli/AF09_AO.jpg"",""stimuli/WM07_CC.jpg""]","stimuli/AM09_SUR.jpg","stimuli/WM13_DO.jpg","stimuli/AF09_AO.jpg","stimuli/WM07_CC.jpg","pos3","stimuli/AF09_AO.jpg","AO","AF09","2","3","6","8","stimuli/stars_6.png","163.5","[""SUR"",""DO"",""AO"",""CC""]","[""AM09"",""WM13"",""AF09"",""WM07""]","[7,5,6,4]","[6,4,8,2]","","",""
"show-reward","102","244980","0.0-102.0","p96379","A279YSE7NB16M0","3OWZNK3RYMVDNXPNEIRWZ8JM6MU2UY","3H7XDTSHKEXJHFKTYZWN8KT9KXCWG3","model","match","uniform","","","","","","","","244921","246927","","","","","","","","","","","","6","","stimuli/stars_6.png","163.5","","","","","stimuli/AF09_AO.jpg","",""
"explore-choice","103","247885","0.0-103.0","p96379","A279YSE7NB16M0","3OWZNK3RYMVDNXPNEIRWZ8JM6MU2UY","3H7XDTSHKEXJHFKTYZWN8KT9KXCWG3","model","match","uniform","","","","","","","2395","246928","249323","[""stimuli/AM05_SC.jpg"",""stimuli/BF05_FO.jpg"",""stimuli/BM07_HE.jpg"",""stimuli/AF02_HO.jpg""]","stimuli/AM05_SC.jpg","stimuli/BF05_FO.jpg","stimuli/BM07_HE.jpg","stimuli/AF02_HO.jpg","pos4","stimuli/AF02_HO.jpg","HO","AF02","3","3","6","8","stimuli/stars_6.png","166.5","[""SC"",""FO"",""HE"",""HO""]","[""AM05"",""BF05"",""BM07"",""AF02""]","[5,6,3,6]","[6,4,2,8]","","",""
"show-reward","104","249899","0.0-104.0","p96379","A279YSE7NB16M0","3OWZNK3RYMVDNXPNEIRWZ8JM6MU2UY","3H7XDTSHKEXJHFKTYZWN8KT9KXCWG3","model","match","uniform","","","","","","","","249832","251846","","","","","","","","","","","","6","","stimuli/stars_6.png","166.5","","","","","stimuli/AF02_HO.jpg","",""
"explore-choice","105","252403","0.0-105.0","p96379","A279YSE7NB16M0","3OWZNK3RYMVDNXPNEIRWZ8JM6MU2UY","3H7XDTSHKEXJHFKTYZWN8KT9KXCWG3","model","match","uniform","","","","","","","1995","251846","253841","[""stimuli/BF05_HO.jpg"",""stimuli/AF02_HE.jpg"",""stimuli/BM07_FO.jpg"",""stimuli/AM05_SC.jpg""]","stimuli/BF05_HO.jpg","stimuli/AF02_HE.jpg","stimuli/BM07_FO.jpg","stimuli/AM05_SC.jpg","pos2","stimuli/AF02_HE.jpg","HE","AF02","1","4","8","8","stimuli/stars_8.png","170.5","[""HO"",""HE"",""FO"",""SC""]","[""BF05"",""AF02"",""BM07"",""AM05""]","[5,8,1,6]","[4,8,2,6]","","",""
"show-reward","106","254415","0.0-106.0","p96379","A279YSE7NB16M0","3OWZNK3RYMVDNXPNEIRWZ8JM6MU2UY","3H7XDTSHKEXJHFKTYZWN8KT9KXCWG3","model","match","uniform","","","","","","","","254350","256362","","","","","","","","","","","","8","","stimuli/stars_8.png","170.5","","","","","stimuli/AF02_HE.jpg","",""
"explore-choice","107","256362","0.0-107.0","p96379","A279YSE7NB16M0","3OWZNK3RYMVDNXPNEIRWZ8JM6MU2UY","3H7XDTSHKEXJHFKTYZWN8KT9KXCWG3","model","match","uniform","","","","","","","1447","256362","257809","[""stimuli/AF02_FO.jpg"",""stimuli/BF05_HE.jpg"",""stimuli/BM07_SC.jpg"",""stimuli/AM05_HO.jpg""]","stimuli/AF02_FO.jpg","stimuli/BF05_HE.jpg","stimuli/BM07_SC.jpg","stimuli/AM05_HO.jpg","pos1","stimuli/AF02_FO.jpg","FO","AF02","0","3","6","8","stimuli/stars_6.png","173.5","[""FO"",""HE"",""SC"",""HO""]","[""AF02"",""BF05"",""BM07"",""AM05""]","[6,2,3,7]","[8,4,2,6]","","",""
"show-reward","108","258374","0.0-108.0","p96379","A279YSE7NB16M0","3OWZNK3RYMVDNXPNEIRWZ8JM6MU2UY","3H7XDTSHKEXJHFKTYZWN8KT9KXCWG3","model","match","uniform","","","","","","","","258309","260321","","","","","","","","","","","","6","","stimuli/stars_6.png","173.5","","","","","stimuli/AF02_FO.jpg","",""
"explore-choice","109","260253","0.0-109.0","p96379","A279YSE7NB16M0","3OWZNK3RYMVDNXPNEIRWZ8JM6MU2UY","3H7XDTSHKEXJHFKTYZWN8KT9KXCWG3","model","match","uniform","","","","","","","1368","260321","261689","[""stimuli/BF05_SC.jpg"",""stimuli/AF02_HE.jpg"",""stimuli/AM05_FO.jpg"",""stimuli/BM07_HO.jpg""]","stimuli/BF05_SC.jpg","stimuli/AF02_HE.jpg","stimuli/AM05_FO.jpg","stimuli/BM07_HO.jpg","pos2","stimuli/AF02_HE.jpg","HE","AF02","1","4.5","9","8","stimuli/stars_9.png","178","[""SC"",""HE"",""FO"",""HO""]","[""BF05"",""AF02"",""AM05"",""BM07""]","[2,9,7,2]","[4,8,6,2]","","",""
"show-reward","110","262268","0.0-110.0","p96379","A279YSE7NB16M0","3OWZNK3RYMVDNXPNEIRWZ8JM6MU2UY","3H7XDTSHKEXJHFKTYZWN8KT9KXCWG3","model","match","uniform","","","","","","","","262200","264215","","","","","","","","","","","","9","","stimuli/stars_9.png","178","","","","","stimuli/AF02_HE.jpg","",""
"explore-choice","111","263898","0.0-111.0","p96379","A279YSE7NB16M0","3OWZNK3RYMVDNXPNEIRWZ8JM6MU2UY","3H7XDTSHKEXJHFKTYZWN8KT9KXCWG3","model","match","uniform","","","","","","","1120","264215","265335","[""stimuli/AF02_HO.jpg"",""stimuli/AM05_FO.jpg"",""stimuli/BM07_HE.jpg"",""stimuli/BF05_SC.jpg""]","stimuli/AF02_HO.jpg","stimuli/AM05_FO.jpg","stimuli/BM07_HE.jpg","stimuli/BF05_SC.jpg","pos1","stimuli/AF02_HO.jpg","HO","AF02","0","3.5","7","8","stimuli/stars_7.png","181.5","[""HO"",""FO"",""HE"",""SC""]","[""AF02"",""AM05"",""BM07"",""BF05""]","[7,7,2,6]","[8,6,2,4]","","",""
"show-reward","112","265900","0.0-112.0","p96379","A279YSE7NB16M0","3OWZNK3RYMVDNXPNEIRWZ8JM6MU2UY","3H7XDTSHKEXJHFKTYZWN8KT9KXCWG3","model","match","uniform","","","","","","","","265845","267847","","","","","","","","","","","","7","","stimuli/stars_7.png","181.5","","","","","stimuli/AF02_HO.jpg","",""
"explore-choice","113","267880","0.0-113.0","p96379","A279YSE7NB16M0","3OWZNK3RYMVDNXPNEIRWZ8JM6MU2UY","3H7XDTSHKEXJHFKTYZWN8KT9KXCWG3","model","match","uniform","","","","","","","1476","267847","269323","[""stimuli/AM05_HO.jpg"",""stimuli/BM07_FO.jpg"",""stimuli/BF05_HE.jpg"",""stimuli/AF02_SC.jpg""]","stimuli/AM05_HO.jpg","stimuli/BM07_FO.jpg","stimuli/BF05_HE.jpg","stimuli/AF02_SC.jpg","pos4","stimuli/AF02_SC.jpg","SC","AF02","3","5","10","8","stimuli/stars_10.png","186.5","[""HO"",""FO"",""HE"",""SC""]","[""AM05"",""BM07"",""BF05"",""AF02""]","[4,4,2,10]","[6,2,4,8]","","",""
"show-reward","114","269887","0.0-114.0","p96379","A279YSE7NB16M0","3OWZNK3RYMVDNXPNEIRWZ8JM6MU2UY","3H7XDTSHKEXJHFKTYZWN8KT9KXCWG3","model","match","uniform","","","","","","","","269827","271834","","","","","","","","","","","","10","","stimuli/stars_10.png","186.5","","","","","stimuli/AF02_SC.jpg","",""
"explore-choice","115","271527","0.0-115.0","p96379","A279YSE7NB16M0","3OWZNK3RYMVDNXPNEIRWZ8JM6MU2UY","3H7XDTSHKEXJHFKTYZWN8KT9KXCWG3","model","match","uniform","","","","","","","1139","271834","272973","[""stimuli/BM07_FO.jpg"",""stimuli/BF05_HO.jpg"",""stimuli/AF02_SC.jpg"",""stimuli/AM05_HE.jpg""]","stimuli/BM07_FO.jpg","stimuli/BF05_HO.jpg","stimuli/AF02_SC.jpg","stimuli/AM05_HE.jpg","pos3","stimuli/AF02_SC.jpg","SC","AF02","2","5","10","8","stimuli/stars_10.png","191.5","[""FO"",""HO"",""SC"",""HE""]","[""BM07"",""BF05"",""AF02"",""AM05""]","[1,6,10,5]","[2,4,8,6]","","",""
"show-reward","116","273540","0.0-116.0","p96379","A279YSE7NB16M0","3OWZNK3RYMVDNXPNEIRWZ8JM6MU2UY","3H7XDTSHKEXJHFKTYZWN8KT9KXCWG3","model","match","uniform","","","","","","","","273474","275486","","","","","","","","","","","","10","","stimuli/stars_10.png","191.5","","","","","stimuli/AF02_SC.jpg","",""
"explore-choice","117","274985","0.0-117.0","p96379","A279YSE7NB16M0","3OWZNK3RYMVDNXPNEIRWZ8JM6MU2UY","3H7XDTSHKEXJHFKTYZWN8KT9KXCWG3","model","match","uniform","","","","","","","940","275487","276427","[""stimuli/BF05_HO.jpg"",""stimuli/AM05_SC.jpg"",""stimuli/BM07_HE.jpg"",""stimuli/AF02_FO.jpg""]","stimuli/BF05_HO.jpg","stimuli/AM05_SC.jpg","stimuli/BM07_HE.jpg","stimuli/AF02_FO.jpg","pos4","stimuli/AF02_FO.jpg","FO","AF02","3","3","6","8","stimuli/stars_6.png","194.5","[""HO"",""SC"",""HE"",""FO""]","[""BF05"",""AM05"",""BM07"",""AF02""]","[3,5,1,6]","[4,6,2,8]","","",""
"show-reward","118","276993","0.0-118.0","p96379","A279YSE7NB16M0","3OWZNK3RYMVDNXPNEIRWZ8JM6MU2UY","3H7XDTSHKEXJHFKTYZWN8KT9KXCWG3","model","match","uniform","","","","","","","","276932","278940","","","","","","","","","","","","6","","stimuli/stars_6.png","194.5","","","","","stimuli/AF02_FO.jpg","",""
"explore-choice","119","278817","0.0-119.0","p96379","A279YSE7NB16M0","3OWZNK3RYMVDNXPNEIRWZ8JM6MU2UY","3H7XDTSHKEXJHFKTYZWN8KT9KXCWG3","model","match","uniform","","","","","","","1317","278940","280257","[""stimuli/BF05_FO.jpg"",""stimuli/AF02_HE.jpg"",""stimuli/BM07_SC.jpg"",""stimuli/AM05_HO.jpg""]","stimuli/BF05_FO.jpg","stimuli/AF02_HE.jpg","stimuli/BM07_SC.jpg","stimuli/AM05_HO.jpg","pos2","stimuli/AF02_HE.jpg","HE","AF02","1","4.5","9","8","stimuli/stars_9.png","199","[""FO"",""HE"",""SC"",""HO""]","[""BF05"",""AF02"",""BM07"",""AM05""]","[2,9,3,5]","[4,8,2,6]","","",""
"show-reward","120","280832","0.0-120.0","p96379","A279YSE7NB16M0","3OWZNK3RYMVDNXPNEIRWZ8JM6MU2UY","3H7XDTSHKEXJHFKTYZWN8KT9KXCWG3","model","match","uniform","","","","","","","","280764","282779","","","","","","","","","","","","9","","stimuli/stars_9.png","199","","","","","stimuli/AF02_HE.jpg","",""
"explore-choice","121","282549","0.0-121.0","p96379","A279YSE7NB16M0","3OWZNK3RYMVDNXPNEIRWZ8JM6MU2UY","3H7XDTSHKEXJHFKTYZWN8KT9KXCWG3","model","match","uniform","","","","","","","1204","282779","283983","[""stimuli/BM07_HE.jpg"",""stimuli/BF05_HO.jpg"",""stimuli/AF02_SC.jpg"",""stimuli/AM05_FO.jpg""]","stimuli/BM07_HE.jpg","stimuli/BF05_HO.jpg","stimuli/AF02_SC.jpg","stimuli/AM05_FO.jpg","pos3","stimuli/AF02_SC.jpg","SC","AF02","2","4","8","8","stimuli/stars_8.png","203","[""HE"",""HO"",""SC"",""FO""]","[""BM07"",""BF05"",""AF02"",""AM05""]","[3,4,8,7]","[2,4,8,6]","","",""
"show-reward","122","284563","0.0-122.0","p96379","A279YSE7NB16M0","3OWZNK3RYMVDNXPNEIRWZ8JM6MU2UY","3H7XDTSHKEXJHFKTYZWN8KT9KXCWG3","model","match","uniform","","","","","","","","284496","286510","","","","","","","","","","","","8","","stimuli/stars_8.png","203","","","","","stimuli/AF02_SC.jpg","",""
"explore-choice","123","286009","0.0-123.0","p96379","A279YSE7NB16M0","3OWZNK3RYMVDNXPNEIRWZ8JM6MU2UY","3H7XDTSHKEXJHFKTYZWN8KT9KXCWG3","model","match","uniform","","","","","","","943","286510","287453","[""stimuli/AM05_FO.jpg"",""stimuli/BM07_SC.jpg"",""stimuli/AF02_HE.jpg"",""stimuli/BF05_HO.jpg""]","stimuli/AM05_FO.jpg","stimuli/BM07_SC.jpg","stimuli/AF02_HE.jpg","stimuli/BF05_HO.jpg","pos3","stimuli/AF02_HE.jpg","HE","AF02","2","4","8","8","stimuli/stars_8.png","207","[""FO"",""SC"",""HE"",""HO""]","[""AM05"",""BM07"",""AF02"",""BF05""]","[8,3,8,4]","[6,2,8,4]","","",""
"show-reward","124","288026","0.0-124.0","p96379","A279YSE7NB16M0","3OWZNK3RYMVDNXPNEIRWZ8JM6MU2UY","3H7XDTSHKEXJHFKTYZWN8KT9KXCWG3","model","match","uniform","","","","","","","","287956","289972","","","","","","","","","","","","8","","stimuli/stars_8.png","207","","","","","stimuli/AF02_HE.jpg","",""
"explore-choice","125","290058","0.0-125.0","p96379","A279YSE7NB16M0","3OWZNK3RYMVDNXPNEIRWZ8JM6MU2UY","3H7XDTSHKEXJHFKTYZWN8KT9KXCWG3","model","match","uniform","","","","","","","1520","289973","291493","[""stimuli/AF02_SC.jpg"",""stimuli/BF05_FO.jpg"",""stimuli/AM05_HO.jpg"",""stimuli/BM07_HE.jpg""]","stimuli/AF02_SC.jpg","stimuli/BF05_FO.jpg","stimuli/AM05_HO.jpg","stimuli/BM07_HE.jpg","pos1","stimuli/AF02_SC.jpg","SC","AF02","0","4.5","9","8","stimuli/stars_9.png","211.5","[""SC"",""FO"",""HO"",""HE""]","[""AF02"",""BF05"",""AM05"",""BM07""]","[9,5,4,0]","[8,4,6,2]","","",""
"show-reward","126","292076","0.0-126.0","p96379","A279YSE7NB16M0","3OWZNK3RYMVDNXPNEIRWZ8JM6MU2UY","3H7XDTSHKEXJHFKTYZWN8KT9KXCWG3","model","match","uniform","","","","","","","","292005","294022","","","","","","","","","","","","9","","stimuli/stars_9.png","211.5","","","","","stimuli/AF02_SC.jpg","",""
"explore-choice","127","293574","0.0-127.0","p96379","A279YSE7NB16M0","3OWZNK3RYMVDNXPNEIRWZ8JM6MU2UY","3H7XDTSHKEXJHFKTYZWN8KT9KXCWG3","model","match","uniform","","","","","","","984","294023","295007","[""stimuli/AF02_FO.jpg"",""stimuli/AM05_SC.jpg"",""stimuli/BM07_HO.jpg"",""stimuli/BF05_HE.jpg""]","stimuli/AF02_FO.jpg","stimuli/AM05_SC.jpg","stimuli/BM07_HO.jpg","stimuli/BF05_HE.jpg","pos1","stimuli/AF02_FO.jpg","FO","AF02","0","3","6","8","stimuli/stars_6.png","214.5","[""FO"",""SC"",""HO"",""HE""]","[""AF02"",""AM05"",""BM07"",""BF05""]","[6,7,1,3]","[8,6,2,4]","","",""
"show-reward","128","295580","0.0-128.0","p96379","A279YSE7NB16M0","3OWZNK3RYMVDNXPNEIRWZ8JM6MU2UY","3H7XDTSHKEXJHFKTYZWN8KT9KXCWG3","model","match","uniform","","","","","","","","295521","297527","","","","","","","","","","","","6","","stimuli/stars_6.png","214.5","","","","","stimuli/AF02_FO.jpg","",""
"explore-choice","129","297910","0.0-129.0","p96379","A279YSE7NB16M0","3OWZNK3RYMVDNXPNEIRWZ8JM6MU2UY","3H7XDTSHKEXJHFKTYZWN8KT9KXCWG3","model","match","uniform","","","","","","","1822","297527","299349","[""stimuli/AM05_HE.jpg"",""stimuli/BF05_SC.jpg"",""stimuli/BM07_FO.jpg"",""stimuli/AF02_HO.jpg""]","stimuli/AM05_HE.jpg","stimuli/BF05_SC.jpg","stimuli/BM07_FO.jpg","stimuli/AF02_HO.jpg","pos3","stimuli/BM07_FO.jpg","FO","BM07","2","1.5","3","2","stimuli/stars_3.png","216","[""HE"",""SC"",""FO"",""HO""]","[""AM05"",""BF05"",""BM07"",""AF02""]","[7,4,3,8]","[6,4,2,8]","","",""
"show-reward","130","299927","0.0-130.0","p96379","A279YSE7NB16M0","3OWZNK3RYMVDNXPNEIRWZ8JM6MU2UY","3H7XDTSHKEXJHFKTYZWN8KT9KXCWG3","model","match","uniform","","","","","","","","299858","301874","","","","","","","","","","","","3","","stimuli/stars_3.png","216","","","","","stimuli/BM07_FO.jpg","",""
"explore-choice","131","301890","0.0-131.0","p96379","A279YSE7NB16M0","3OWZNK3RYMVDNXPNEIRWZ8JM6MU2UY","3H7XDTSHKEXJHFKTYZWN8KT9KXCWG3","model","match","uniform","","","","","","","1461","301875","303336","[""stimuli/BM07_HO.jpg"",""stimuli/AM05_HE.jpg"",""stimuli/AF02_SC.jpg"",""stimuli/BF05_FO.jpg""]","stimuli/BM07_HO.jpg","stimuli/AM05_HE.jpg","stimuli/AF02_SC.jpg","stimuli/BF05_FO.jpg","pos2","stimuli/AM05_HE.jpg","HE","AM05","1","2","4","6","stimuli/stars_4.png","218","[""HO"",""HE"",""SC"",""FO""]","[""BM07"",""AM05"",""AF02"",""BF05""]","[1,4,7,4]","[2,6,8,4]","","",""
"show-reward","132","303897","0.0-132.0","p96379","A279YSE7NB16M0","3OWZNK3RYMVDNXPNEIRWZ8JM6MU2UY","3H7XDTSHKEXJHFKTYZWN8KT9KXCWG3","model","match","uniform","","","","","","","","303838","305844","","","","","","","","","","","","4","","stimuli/stars_4.png","218","","","","","stimuli/AM05_HE.jpg","",""
"explore-choice","133","306540","0.0-133.0","p96379","A279YSE7NB16M0","3OWZNK3RYMVDNXPNEIRWZ8JM6MU2UY","3H7XDTSHKEXJHFKTYZWN8KT9KXCWG3","model","match","uniform","","","","","","","2128","305845","307973","[""stimuli/AM05_HE.jpg"",""stimuli/BF05_SC.jpg"",""stimuli/BM07_HO.jpg"",""stimuli/AF02_FO.jpg""]","stimuli/AM05_HE.jpg","stimuli/BF05_SC.jpg","stimuli/BM07_HO.jpg","stimuli/AF02_FO.jpg","pos4","stimuli/AF02_FO.jpg","FO","AF02","3","5","10","8","stimuli/stars_10.png","223","[""HE"",""SC"",""HO"",""FO""]","[""AM05"",""BF05"",""BM07"",""AF02""]","[6,2,2,10]","[6,4,2,8]","","",""
"show-reward","134","308542","0.0-134.0","p96379","A279YSE7NB16M0","3OWZNK3RYMVDNXPNEIRWZ8JM6MU2UY","3H7XDTSHKEXJHFKTYZWN8KT9KXCWG3","model","match","uniform","","","","","","","","308487","310489","","","","","","","","","","","","10","","stimuli/stars_10.png","223","","","","","stimuli/AF02_FO.jpg","",""
"explore-choice","135","309283","0.0-135.0","p96379","A279YSE7NB16M0","3OWZNK3RYMVDNXPNEIRWZ8JM6MU2UY","3H7XDTSHKEXJHFKTYZWN8KT9KXCWG3","model","match","uniform","","","","","","","226","310489","310715","[""stimuli/BF05_SC.jpg"",""stimuli/AM05_HO.jpg"",""stimuli/BM07_HE.jpg"",""stimuli/AF02_FO.jpg""]","stimuli/BF05_SC.jpg","stimuli/AM05_HO.jpg","stimuli/BM07_HE.jpg","stimuli/AF02_FO.jpg","pos4","stimuli/AF02_FO.jpg","FO","AF02","3","3.5","7","8","stimuli/stars_7.png","226.5","[""SC"",""HO"",""HE"",""FO""]","[""BF05"",""AM05"",""BM07"",""AF02""]","[3,8,4,7]","[4,6,2,8]","","",""
"show-reward","136","311286","0.0-136.0","p96379","A279YSE7NB16M0","3OWZNK3RYMVDNXPNEIRWZ8JM6MU2UY","3H7XDTSHKEXJHFKTYZWN8KT9KXCWG3","model","match","uniform","","","","","","","","311230","313233","","","","","","","","","","","","7","","stimuli/stars_7.png","226.5","","","","","stimuli/AF02_FO.jpg","",""
"explore-choice","137","313206","0.0-137.0","p96379","A279YSE7NB16M0","3OWZNK3RYMVDNXPNEIRWZ8JM6MU2UY","3H7XDTSHKEXJHFKTYZWN8KT9KXCWG3","model","match","uniform","","","","","","","1408","313233","314641","[""stimuli/AM05_HE.jpg"",""stimuli/AF02_HO.jpg"",""stimuli/BM07_SC.jpg"",""stimuli/BF05_FO.jpg""]","stimuli/AM05_HE.jpg","stimuli/AF02_HO.jpg","stimuli/BM07_SC.jpg","stimuli/BF05_FO.jpg","pos2","stimuli/AF02_HO.jpg","HO","AF02","1","5","10","8","stimuli/stars_10.png","231.5","[""HE"",""HO"",""SC"",""FO""]","[""AM05"",""AF02"",""BM07"",""BF05""]","[5,10,1,6]","[6,8,2,4]","","",""
"show-reward","138","315223","0.0-138.0","p96379","A279YSE7NB16M0","3OWZNK3RYMVDNXPNEIRWZ8JM6MU2UY","3H7XDTSHKEXJHFKTYZWN8KT9KXCWG3","model","match","uniform","","","","","","","","315154","317170","","","","","","","","","","","","10","","stimuli/stars_10.png","231.5","","","","","stimuli/AF02_HO.jpg","",""
"explore-choice","139","316711","0.0-139.0","p96379","A279YSE7NB16M0","3OWZNK3RYMVDNXPNEIRWZ8JM6MU2UY","3H7XDTSHKEXJHFKTYZWN8KT9KXCWG3","model","match","uniform","","","","","","","973","317170","318143","[""stimuli/AM05_SC.jpg"",""stimuli/BM07_FO.jpg"",""stimuli/BF05_HE.jpg"",""stimuli/AF02_HO.jpg""]","stimuli/AM05_SC.jpg","stimuli/BM07_FO.jpg","stimuli/BF05_HE.jpg","stimuli/AF02_HO.jpg","pos4","stimuli/AF02_HO.jpg","HO","AF02","3","5","10","8","stimuli/stars_10.png","236.5","[""SC"",""FO"",""HE"",""HO""]","[""AM05"",""BM07"",""BF05"",""AF02""]","[8,3,5,10]","[6,2,4,8]","","",""
"show-reward","140","318712","0.0-140.0","p96379","A279YSE7NB16M0","3OWZNK3RYMVDNXPNEIRWZ8JM6MU2UY","3H7XDTSHKEXJHFKTYZWN8KT9KXCWG3","model","match","uniform","","","","","","","","318658","320658","","","","","","","","","","","","10","","stimuli/stars_10.png","236.5","","","","","stimuli/AF02_HO.jpg","",""
"explore-choice","141","320304","0.0-141.0","p96379","A279YSE7NB16M0","3OWZNK3RYMVDNXPNEIRWZ8JM6MU2UY","3H7XDTSHKEXJHFKTYZWN8KT9KXCWG3","model","match","uniform","","","","","","","1086","320659","321745","[""stimuli/AM05_FO.jpg"",""stimuli/AF02_HO.jpg"",""stimuli/BF05_HE.jpg"",""stimuli/BM07_SC.jpg""]","stimuli/AM05_FO.jpg","stimuli/AF02_HO.jpg","stimuli/BF05_HE.jpg","stimuli/BM07_SC.jpg","pos2","stimuli/AF02_HO.jpg","HO","AF02","1","5","10","8","stimuli/stars_10.png","241.5","[""FO"",""HO"",""HE"",""SC""]","[""AM05"",""AF02"",""BF05"",""BM07""]","[8,10,5,1]","[6,8,4,2]","","",""
"show-reward","142","322311","0.0-142.0","p96379","A279YSE7NB16M0","3OWZNK3RYMVDNXPNEIRWZ8JM6MU2UY","3H7XDTSHKEXJHFKTYZWN8KT9KXCWG3","model","match","uniform","","","","","","","","322252","324257","","","","","","","","","","","","10","","stimuli/stars_10.png","241.5","","","","","stimuli/AF02_HO.jpg","",""
"explore-choice","143","325551","0.0-143.0","p96379","A279YSE7NB16M0","3OWZNK3RYMVDNXPNEIRWZ8JM6MU2UY","3H7XDTSHKEXJHFKTYZWN8KT9KXCWG3","model","match","uniform","","","","","","","2737","324258","326995","[""stimuli/BM07_FO.jpg"",""stimuli/BF05_SC.jpg"",""stimuli/AM05_HO.jpg"",""stimuli/AF02_HE.jpg""]","stimuli/BM07_FO.jpg","stimuli/BF05_SC.jpg","stimuli/AM05_HO.jpg","stimuli/AF02_HE.jpg","pos4","stimuli/AF02_HE.jpg","HE","AF02","3","5","10","8","stimuli/stars_10.png","246.5","[""FO"",""SC"",""HO"",""HE""]","[""BM07"",""BF05"",""AM05"",""AF02""]","[1,2,5,10]","[2,4,6,8]","","",""
"show-reward","144","327564","0.0-144.0","p96379","A279YSE7NB16M0","3OWZNK3RYMVDNXPNEIRWZ8JM6MU2UY","3H7XDTSHKEXJHFKTYZWN8KT9KXCWG3","model","match","uniform","","","","","","","","327499","329510","","","","","","","","","","","","10","","stimuli/stars_10.png","246.5","","","","","stimuli/AF02_HE.jpg","",""
"explore-choice","145","329170","0.0-145.0","p96379","A279YSE7NB16M0","3OWZNK3RYMVDNXPNEIRWZ8JM6MU2UY","3H7XDTSHKEXJHFKTYZWN8KT9KXCWG3","model","match","uniform","","","","","","","1094","329511","330605","[""stimuli/BM07_SC.jpg"",""stimuli/BF05_HO.jpg"",""stimuli/AF02_FO.jpg"",""stimuli/AM05_HE.jpg""]","stimuli/BM07_SC.jpg","stimuli/BF05_HO.jpg","stimuli/AF02_FO.jpg","stimuli/AM05_HE.jpg","pos3","stimuli/AF02_FO.jpg","FO","AF02","2","5","10","8","stimuli/stars_10.png","251.5","[""SC"",""HO"",""FO"",""HE""]","[""BM07"",""BF05"",""AF02"",""AM05""]","[3,6,10,8]","[2,4,8,6]","","",""
"show-reward","146","331187","0.0-146.0","p96379","A279YSE7NB16M0","3OWZNK3RYMVDNXPNEIRWZ8JM6MU2UY","3H7XDTSHKEXJHFKTYZWN8KT9KXCWG3","model","match","uniform","","","","","","","","331117","333133","","","","","","","","","","","","10","","stimuli/stars_10.png","251.5","","","","","stimuli/AF02_FO.jpg","",""
"explore-choice","147","332939","0.0-147.0","p96379","A279YSE7NB16M0","3OWZNK3RYMVDNXPNEIRWZ8JM6MU2UY","3H7XDTSHKEXJHFKTYZWN8KT9KXCWG3","model","match","uniform","","","","","","","1239","333134","334373","[""stimuli/AF02_HE.jpg"",""stimuli/AM05_SC.jpg"",""stimuli/BM07_HO.jpg"",""stimuli/BF05_FO.jpg""]","stimuli/AF02_HE.jpg","stimuli/AM05_SC.jpg","stimuli/BM07_HO.jpg","stimuli/BF05_FO.jpg","pos1","stimuli/AF02_HE.jpg","HE","AF02","0","3","6","8","stimuli/stars_6.png","254.5","[""HE"",""SC"",""HO"",""FO""]","[""AF02"",""AM05"",""BM07"",""BF05""]","[6,7,4,3]","[8,6,2,4]","","",""
"show-reward","148","334955","0.0-148.0","p96379","A279YSE7NB16M0","3OWZNK3RYMVDNXPNEIRWZ8JM6MU2UY","3H7XDTSHKEXJHFKTYZWN8KT9KXCWG3","model","match","uniform","","","","","","","","334886","336902","","","","","","","","","","","","6","","stimuli/stars_6.png","254.5","","","","","stimuli/AF02_HE.jpg","",""
"explore-choice","149","336752","0.0-149.0","p96379","A279YSE7NB16M0","3OWZNK3RYMVDNXPNEIRWZ8JM6MU2UY","3H7XDTSHKEXJHFKTYZWN8KT9KXCWG3","model","match","uniform","","","","","","","1293","336902","338195","[""stimuli/BM07_HO.jpg"",""stimuli/AF02_SC.jpg"",""stimuli/AM05_FO.jpg"",""stimuli/BF05_HE.jpg""]","stimuli/BM07_HO.jpg","stimuli/AF02_SC.jpg","stimuli/AM05_FO.jpg","stimuli/BF05_HE.jpg","pos2","stimuli/AF02_SC.jpg","SC","AF02","1","4.5","9","8","stimuli/stars_9.png","259","[""HO"",""SC"",""FO"",""HE""]","[""BM07"",""AF02"",""AM05"",""BF05""]","[0,9,6,3]","[2,8,6,4]","","",""
"show-reward","150","338768","0.0-150.0","p96379","A279YSE7NB16M0","3OWZNK3RYMVDNXPNEIRWZ8JM6MU2UY","3H7XDTSHKEXJHFKTYZWN8KT9KXCWG3","model","match","uniform","","","","","","","","338699","340715","","","","","","","","","","","","9","","stimuli/stars_9.png","259","","","","","stimuli/AF02_SC.jpg","",""
"explore-choice","151","340435","0.0-151.0","p96379","A279YSE7NB16M0","3OWZNK3RYMVDNXPNEIRWZ8JM6MU2UY","3H7XDTSHKEXJHFKTYZWN8KT9KXCWG3","model","match","uniform","","","","","","","1166","340715","341881","[""stimuli/BF05_HE.jpg"",""stimuli/AM05_SC.jpg"",""stimuli/BM07_FO.jpg"",""stimuli/AF02_HO.jpg""]","stimuli/BF05_HE.jpg","stimuli/AM05_SC.jpg","stimuli/BM07_FO.jpg","stimuli/AF02_HO.jpg","pos4","stimuli/AF02_HO.jpg","HO","AF02","3","5","10","8","stimuli/stars_10.png","264","[""HE"",""SC"",""FO"",""HO""]","[""BF05"",""AM05"",""BM07"",""AF02""]","[5,8,3,10]","[4,6,2,8]","","",""
"show-reward","152","342440","0.0-152.0","p96379","A279YSE7NB16M0","3OWZNK3RYMVDNXPNEIRWZ8JM6MU2UY","3H7XDTSHKEXJHFKTYZWN8KT9KXCWG3","model","match","uniform","","","","","","","","342382","344387","","","","","","","","","","","","10","","stimuli/stars_10.png","264","","","","","stimuli/AF02_HO.jpg","",""
"explore-choice","153","343925","0.0-153.0","p96379","A279YSE7NB16M0","3OWZNK3RYMVDNXPNEIRWZ8JM6MU2UY","3H7XDTSHKEXJHFKTYZWN8KT9KXCWG3","model","match","uniform","","","","","","","984","344387","345371","[""stimuli/BF05_SC.jpg"",""stimuli/BM07_FO.jpg"",""stimuli/AF02_HO.jpg"",""stimuli/AM05_HE.jpg""]","stimuli/BF05_SC.jpg","stimuli/BM07_FO.jpg","stimuli/AF02_HO.jpg","stimuli/AM05_HE.jpg","pos3","stimuli/AF02_HO.jpg","HO","AF02","2","4","8","8","stimuli/stars_8.png","268","[""SC"",""FO"",""HO"",""HE""]","[""BF05"",""BM07"",""AF02"",""AM05""]","[4,3,8,7]","[4,2,8,6]","","",""
"show-reward","154","345931","0.0-154.0","p96379","A279YSE7NB16M0","3OWZNK3RYMVDNXPNEIRWZ8JM6MU2UY","3H7XDTSHKEXJHFKTYZWN8KT9KXCWG3","model","match","uniform","","","","","","","","345873","347878","","","","","","","","","","","","8","","stimuli/stars_8.png","268","","","","","stimuli/AF02_HO.jpg","",""
"explore-choice","155","347289","0.0-155.0","p96379","A279YSE7NB16M0","3OWZNK3RYMVDNXPNEIRWZ8JM6MU2UY","3H7XDTSHKEXJHFKTYZWN8KT9KXCWG3","model","match","uniform","","","","","","","847","347878","348725","[""stimuli/AM05_SC.jpg"",""stimuli/BF05_HO.jpg"",""stimuli/AF02_FO.jpg"",""stimuli/BM07_HE.jpg""]","stimuli/AM05_SC.jpg","stimuli/BF05_HO.jpg","stimuli/AF02_FO.jpg","stimuli/BM07_HE.jpg","pos3","stimuli/AF02_FO.jpg","FO","AF02","2","3","6","8","stimuli/stars_6.png","271","[""SC"",""HO"",""FO"",""HE""]","[""AM05"",""BF05"",""AF02"",""BM07""]","[5,3,6,1]","[6,4,8,2]","","",""
"show-reward","156","349292","0.0-156.0","p96379","A279YSE7NB16M0","3OWZNK3RYMVDNXPNEIRWZ8JM6MU2UY","3H7XDTSHKEXJHFKTYZWN8KT9KXCWG3","model","match","uniform","","","","","","","","349236","351239","","","","","","","","","","","","6","","stimuli/stars_6.png","271","","","","","stimuli/AF02_FO.jpg","",""
"explore-choice","157","350698","0.0-157.0","p96379","A279YSE7NB16M0","3OWZNK3RYMVDNXPNEIRWZ8JM6MU2UY","3H7XDTSHKEXJHFKTYZWN8KT9KXCWG3","model","match","uniform","","","","","","","892","351239","352131","[""stimuli/BM07_FO.jpg"",""stimuli/AM05_HO.jpg"",""stimuli/AF02_SC.jpg"",""stimuli/BF05_HE.jpg""]","stimuli/BM07_FO.jpg","stimuli/AM05_HO.jpg","stimuli/AF02_SC.jpg","stimuli/BF05_HE.jpg","pos3","stimuli/AF02_SC.jpg","SC","AF02","2","5","10","8","stimuli/stars_10.png","276","[""FO"",""HO"",""SC"",""HE""]","[""BM07"",""AM05"",""AF02"",""BF05""]","[4,4,10,2]","[2,6,8,4]","","",""
"show-reward","158","352713","0.0-158.0","p96379","A279YSE7NB16M0","3OWZNK3RYMVDNXPNEIRWZ8JM6MU2UY","3H7XDTSHKEXJHFKTYZWN8KT9KXCWG3","model","match","uniform","","","","","","","","352645","354660","","","","","","","","","","","","10","","stimuli/stars_10.png","276","","","","","stimuli/AF02_SC.jpg","",""
"explore-choice","159","353992","0.0-159.0","p96379","A279YSE7NB16M0","3OWZNK3RYMVDNXPNEIRWZ8JM6MU2UY","3H7XDTSHKEXJHFKTYZWN8KT9KXCWG3","model","match","uniform","","","","","","","773","354660","355433","[""stimuli/BF05_SC.jpg"",""stimuli/BM07_HE.jpg"",""stimuli/AF02_FO.jpg"",""stimuli/AM05_HO.jpg""]","stimuli/BF05_SC.jpg","stimuli/BM07_HE.jpg","stimuli/AF02_FO.jpg","stimuli/AM05_HO.jpg","pos3","stimuli/AF02_FO.jpg","FO","AF02","2","3.5","7","8","stimuli/stars_7.png","279.5","[""SC"",""HE"",""FO"",""HO""]","[""BF05"",""BM07"",""AF02"",""AM05""]","[3,4,7,8]","[4,2,8,6]","","",""
"show-reward","160","356006","0.0-160.0","p96379","A279YSE7NB16M0","3OWZNK3RYMVDNXPNEIRWZ8JM6MU2UY","3H7XDTSHKEXJHFKTYZWN8KT9KXCWG3","model","match","uniform","","","","","","","","355939","357952","","","","","","","","","","","","7","","stimuli/stars_7.png","279.5","","","","","stimuli/AF02_FO.jpg","",""
"explore-choice","161","358228","0.0-161.0","p96379","A279YSE7NB16M0","3OWZNK3RYMVDNXPNEIRWZ8JM6MU2UY","3H7XDTSHKEXJHFKTYZWN8KT9KXCWG3","model","match","uniform","","","","","","","1708","357953","359661","[""stimuli/BM07_HE.jpg"",""stimuli/AF02_SC.jpg"",""stimuli/BF05_HO.jpg"",""stimuli/AM05_FO.jpg""]","stimuli/BM07_HE.jpg","stimuli/AF02_SC.jpg","stimuli/BF05_HO.jpg","stimuli/AM05_FO.jpg","pos2","stimuli/AF02_SC.jpg","SC","AF02","1","4","8","8","stimuli/stars_8.png","283.5","[""HE"",""SC"",""HO"",""FO""]","[""BM07"",""AF02"",""BF05"",""AM05""]","[3,8,4,7]","[2,8,4,6]","","",""
"show-reward","162","360229","0.0-162.0","p96379","A279YSE7NB16M0","3OWZNK3RYMVDNXPNEIRWZ8JM6MU2UY","3H7XDTSHKEXJHFKTYZWN8KT9KXCWG3","model","match","uniform","","","","","","","","360175","362176","","","","","","","","","","","","8","","stimuli/stars_8.png","283.5","","","","","stimuli/AF02_SC.jpg","",""
"explore-choice","163","362252","0.0-163.0","p96379","A279YSE7NB16M0","3OWZNK3RYMVDNXPNEIRWZ8JM6MU2UY","3H7XDTSHKEXJHFKTYZWN8KT9KXCWG3","model","match","uniform","","","","","","","1519","362176","363695","[""stimuli/AM05_HE.jpg"",""stimuli/BM07_HO.jpg"",""stimuli/AF02_SC.jpg"",""stimuli/BF05_FO.jpg""]","stimuli/AM05_HE.jpg","stimuli/BM07_HO.jpg","stimuli/AF02_SC.jpg","stimuli/BF05_FO.jpg","pos3","stimuli/AF02_SC.jpg","SC","AF02","2","3.5","7","8","stimuli/stars_7.png","287","[""HE"",""HO"",""SC"",""FO""]","[""AM05"",""BM07"",""AF02"",""BF05""]","[4,1,7,4]","[6,2,8,4]","","",""
"show-reward","164","364261","0.0-164.0","p96379","A279YSE7NB16M0","3OWZNK3RYMVDNXPNEIRWZ8JM6MU2UY","3H7XDTSHKEXJHFKTYZWN8KT9KXCWG3","model","match","uniform","","","","","","","","364199","366207","","","","","","","","","","","","7","","stimuli/stars_7.png","287","","","","","stimuli/AF02_SC.jpg","",""
"explore-choice","165","365856","0.0-165.0","p96379","A279YSE7NB16M0","3OWZNK3RYMVDNXPNEIRWZ8JM6MU2UY","3H7XDTSHKEXJHFKTYZWN8KT9KXCWG3","model","match","uniform","","","","","","","1089","366208","367297","[""stimuli/AM05_SC.jpg"",""stimuli/AF02_FO.jpg"",""stimuli/BM07_HO.jpg"",""stimuli/BF05_HE.jpg""]","stimuli/AM05_SC.jpg","stimuli/AF02_FO.jpg","stimuli/BM07_HO.jpg","stimuli/BF05_HE.jpg","pos2","stimuli/AF02_FO.jpg","FO","AF02","1","3","6","8","stimuli/stars_6.png","290","[""SC"",""FO"",""HO"",""HE""]","[""AM05"",""AF02"",""BM07"",""BF05""]","[7,6,1,3]","[6,8,2,4]","","",""
"show-reward","166","367871","0.0-166.0","p96379","A279YSE7NB16M0","3OWZNK3RYMVDNXPNEIRWZ8JM6MU2UY","3H7XDTSHKEXJHFKTYZWN8KT9KXCWG3","model","match","uniform","","","","","","","","367803","369818","","","","","","","","","","","","6","","stimuli/stars_6.png","290","","","","","stimuli/AF02_FO.jpg","",""
"explore-choice","167","369944","0.0-167.0","p96379","A279YSE7NB16M0","3OWZNK3RYMVDNXPNEIRWZ8JM6MU2UY","3H7XDTSHKEXJHFKTYZWN8KT9KXCWG3","model","match","uniform","","","","","","","1557","369818","371375","[""stimuli/BF05_HE.jpg"",""stimuli/AM05_FO.jpg"",""stimuli/BM07_HO.jpg"",""stimuli/AF02_SC.jpg""]","stimuli/BF05_HE.jpg","stimuli/AM05_FO.jpg","stimuli/BM07_HO.jpg","stimuli/AF02_SC.jpg","pos4","stimuli/AF02_SC.jpg","SC","AF02","3","4.5","9","8","stimuli/stars_9.png","294.5","[""HE"",""FO"",""HO"",""SC""]","[""BF05"",""AM05"",""BM07"",""AF02""]","[3,6,0,9]","[4,6,2,8]","","",""
"show-reward","168","371951","0.0-168.0","p96379","A279YSE7NB16M0","3OWZNK3RYMVDNXPNEIRWZ8JM6MU2UY","3H7XDTSHKEXJHFKTYZWN8KT9KXCWG3","model","match","uniform","","","","","","","","371891","373898","","","","","","","","","","","","9","","stimuli/stars_9.png","294.5","","","","","stimuli/AF02_SC.jpg","",""
"explore-choice","169","373135","0.0-169.0","p96379","A279YSE7NB16M0","3OWZNK3RYMVDNXPNEIRWZ8JM6MU2UY","3H7XDTSHKEXJHFKTYZWN8KT9KXCWG3","model","match","uniform","","","","","","","681","373898","374579","[""stimuli/AM05_HO.jpg"",""stimuli/BM07_HE.jpg"",""stimuli/AF02_SC.jpg"",""stimuli/BF05_FO.jpg""]","stimuli/AM05_HO.jpg","stimuli/BM07_HE.jpg","stimuli/AF02_SC.jpg","stimuli/BF05_FO.jpg","pos4","stimuli/BF05_FO.jpg","FO","BF05","3","2.5","5","4","stimuli/stars_5.png","297","[""HO"",""HE"",""SC"",""FO""]","[""AM05"",""BM07"",""AF02"",""BF05""]","[4,0,9,5]","[6,2,8,4]","","",""
"show-reward","170","375152","0.0-170.0","p96379","A279YSE7NB16M0","3OWZNK3RYMVDNXPNEIRWZ8JM6MU2UY","3H7XDTSHKEXJHFKTYZWN8KT9KXCWG3","model","match","uniform","","","","","","","","375082","377099","","","","","","","","","","","","5","","stimuli/stars_5.png","297","","","","","stimuli/BF05_FO.jpg","",""
"explore-choice","171","376668","0.0-171.0","p96379","A279YSE7NB16M0","3OWZNK3RYMVDNXPNEIRWZ8JM6MU2UY","3H7XDTSHKEXJHFKTYZWN8KT9KXCWG3","model","match","uniform","","","","","","","1012","377099","378111","[""stimuli/BM07_SC.jpg"",""stimuli/AM05_HE.jpg"",""stimuli/BF05_FO.jpg"",""stimuli/AF02_HO.jpg""]","stimuli/BM07_SC.jpg","stimuli/AM05_HE.jpg","stimuli/BF05_FO.jpg","stimuli/AF02_HO.jpg","pos4","stimuli/AF02_HO.jpg","HO","AF02","3","5","10","8","stimuli/stars_10.png","302","[""SC"",""HE"",""FO"",""HO""]","[""BM07"",""AM05"",""BF05"",""AF02""]","[1,5,6,10]","[2,6,4,8]","","",""
"show-reward","172","378682","0.0-172.0","p96379","A279YSE7NB16M0","3OWZNK3RYMVDNXPNEIRWZ8JM6MU2UY","3H7XDTSHKEXJHFKTYZWN8KT9KXCWG3","model","match","uniform","","","","","","","","378615","380629","","","","","","","","","","","","10","","stimuli/stars_10.png","302","","","","","stimuli/AF02_HO.jpg","",""
"explore-choice","173","380593","0.0-173.0","p96379","A279YSE7NB16M0","3OWZNK3RYMVDNXPNEIRWZ8JM6MU2UY","3H7XDTSHKEXJHFKTYZWN8KT9KXCWG3","model","match","uniform","","","","","","","1396","380629","382025","[""stimuli/AF02_HE.jpg"",""stimuli/BF05_SC.jpg"",""stimuli/AM05_HO.jpg"",""stimuli/BM07_FO.jpg""]","stimuli/AF02_HE.jpg","stimuli/BF05_SC.jpg","stimuli/AM05_HO.jpg","stimuli/BM07_FO.jpg","pos1","stimuli/AF02_HE.jpg","HE","AF02","0","5","10","8","stimuli/stars_10.png","307","[""HE"",""SC"",""HO"",""FO""]","[""AF02"",""BF05"",""AM05"",""BM07""]","[10,2,5,1]","[8,4,6,2]","","",""
"show-reward","174","382602","0.0-174.0","p96379","A279YSE7NB16M0","3OWZNK3RYMVDNXPNEIRWZ8JM6MU2UY","3H7XDTSHKEXJHFKTYZWN8KT9KXCWG3","model","match","uniform","","","","","","","","382540","384549","","","","","","","","","","","","10","","stimuli/stars_10.png","307","","","","","stimuli/AF02_HE.jpg","",""
"explore-choice","175","384375","0.0-175.0","p96379","A279YSE7NB16M0","3OWZNK3RYMVDNXPNEIRWZ8JM6MU2UY","3H7XDTSHKEXJHFKTYZWN8KT9KXCWG3","model","match","uniform","","","","","","","1262","384549","385811","[""stimuli/AF02_HO.jpg"",""stimuli/BF05_SC.jpg"",""stimuli/BM07_HE.jpg"",""stimuli/AM05_FO.jpg""]","stimuli/AF02_HO.jpg","stimuli/BF05_SC.jpg","stimuli/BM07_HE.jpg","stimuli/AM05_FO.jpg","pos1","stimuli/AF02_HO.jpg","HO","AF02","0","3.5","7","8","stimuli/stars_7.png","310.5","[""HO"",""SC"",""HE"",""FO""]","[""AF02"",""BF05"",""BM07"",""AM05""]","[7,6,2,7]","[8,4,2,6]","","",""
"show-reward","176","386381","0.0-176.0","p96379","A279YSE7NB16M0","3OWZNK3RYMVDNXPNEIRWZ8JM6MU2UY","3H7XDTSHKEXJHFKTYZWN8KT9KXCWG3","model","match","uniform","","","","","","","","386322","388328","","","","","","","","","","","","7","","stimuli/stars_7.png","310.5","","","","","stimuli/AF02_HO.jpg","",""
"explore-choice","177","388255","0.0-177.0","p96379","A279YSE7NB16M0","3OWZNK3RYMVDNXPNEIRWZ8JM6MU2UY","3H7XDTSHKEXJHFKTYZWN8KT9KXCWG3","model","match","uniform","","","","","","","1373","388328","389701","[""stimuli/AM05_HE.jpg"",""stimuli/AF02_FO.jpg"",""stimuli/BF05_HO.jpg"",""stimuli/BM07_SC.jpg""]","stimuli/AM05_HE.jpg","stimuli/AF02_FO.jpg","stimuli/BF05_HO.jpg","stimuli/BM07_SC.jpg","pos2","stimuli/AF02_FO.jpg","FO","AF02","1","5","10","8","stimuli/stars_10.png","315.5","[""HE"",""FO"",""HO"",""SC""]","[""AM05"",""AF02"",""BF05"",""BM07""]","[8,10,6,3]","[6,8,4,2]","","",""
"show-reward","178","390265","0.0-178.0","p96379","A279YSE7NB16M0","3OWZNK3RYMVDNXPNEIRWZ8JM6MU2UY","3H7XDTSHKEXJHFKTYZWN8KT9KXCWG3","model","match","uniform","","","","","","","","390202","392212","","","","","","","","","","","","10","","stimuli/stars_10.png","315.5","","","","","stimuli/AF02_FO.jpg","",""
"explore-choice","179","392425","0.0-179.0","p96379","A279YSE7NB16M0","3OWZNK3RYMVDNXPNEIRWZ8JM6MU2UY","3H7XDTSHKEXJHFKTYZWN8KT9KXCWG3","model","match","uniform","","","","","","","1654","392212","393866","[""stimuli/BF05_HO.jpg"",""stimuli/AF02_HE.jpg"",""stimuli/BM07_FO.jpg"",""stimuli/AM05_SC.jpg""]","stimuli/BF05_HO.jpg","stimuli/AF02_HE.jpg","stimuli/BM07_FO.jpg","stimuli/AM05_SC.jpg","pos2","stimuli/AF02_HE.jpg","HE","AF02","1","4","8","8","stimuli/stars_8.png","319.5","[""HO"",""HE"",""FO"",""SC""]","[""BF05"",""AF02"",""BM07"",""AM05""]","[5,8,1,6]","[4,8,2,6]","","",""
"show-reward","180","394439","0.0-180.0","p96379","A279YSE7NB16M0","3OWZNK3RYMVDNXPNEIRWZ8JM6MU2UY","3H7XDTSHKEXJHFKTYZWN8KT9KXCWG3","model","match","uniform","","","","","","","","394373","396385","","","","","","","","","","","","8","","stimuli/stars_8.png","319.5","","","","","stimuli/AF02_HE.jpg","",""
"explore-choice","181","396021","0.0-181.0","p96379","A279YSE7NB16M0","3OWZNK3RYMVDNXPNEIRWZ8JM6MU2UY","3H7XDTSHKEXJHFKTYZWN8KT9KXCWG3","model","match","uniform","","","","","","","1071","396386","397457","[""stimuli/AF02_HE.jpg"",""stimuli/BF05_SC.jpg"",""stimuli/BM07_HO.jpg"",""stimuli/AM05_FO.jpg""]","stimuli/AF02_HE.jpg","stimuli/BF05_SC.jpg","stimuli/BM07_HO.jpg","stimuli/AM05_FO.jpg","pos1","stimuli/AF02_HE.jpg","HE","AF02","0","4.5","9","8","stimuli/stars_9.png","324","[""HE"",""SC"",""HO"",""FO""]","[""AF02"",""BF05"",""BM07"",""AM05""]","[9,2,2,7]","[8,4,2,6]","","",""
"show-reward","182","398025","0.0-182.0","p96379","A279YSE7NB16M0","3OWZNK3RYMVDNXPNEIRWZ8JM6MU2UY","3H7XDTSHKEXJHFKTYZWN8KT9KXCWG3","model","match","uniform","","","","","","","","397968","399972","","","","","","","","","","","","9","","stimuli/stars_9.png","324","","","","","stimuli/AF02_HE.jpg","",""
"explore-choice","183","399701","0.0-183.0","p96379","A279YSE7NB16M0","3OWZNK3RYMVDNXPNEIRWZ8JM6MU2UY","3H7XDTSHKEXJHFKTYZWN8KT9KXCWG3","model","match","uniform","","","","","","","1161","399972","401133","[""stimuli/AM05_HE.jpg"",""stimuli/BF05_HO.jpg"",""stimuli/BM07_FO.jpg"",""stimuli/AF02_SC.jpg""]","stimuli/AM05_HE.jpg","stimuli/BF05_HO.jpg","stimuli/BM07_FO.jpg","stimuli/AF02_SC.jpg","pos4","stimuli/AF02_SC.jpg","SC","AF02","3","5","10","8","stimuli/stars_10.png","329","[""HE"",""HO"",""FO"",""SC""]","[""AM05"",""BF05"",""BM07"",""AF02""]","[5,6,1,10]","[6,4,2,8]","","",""
"show-reward","184","401710","0.0-184.0","p96379","A279YSE7NB16M0","3OWZNK3RYMVDNXPNEIRWZ8JM6MU2UY","3H7XDTSHKEXJHFKTYZWN8KT9KXCWG3","model","match","uniform","","","","","","","","401648","403656","","","","","","","","","","","","10","","stimuli/stars_10.png","329","","","","","stimuli/AF02_SC.jpg","",""
"explore-choice","185","403251","0.0-185.0","p96379","A279YSE7NB16M0","3OWZNK3RYMVDNXPNEIRWZ8JM6MU2UY","3H7XDTSHKEXJHFKTYZWN8KT9KXCWG3","model","match","uniform","","","","","","","1034","403657","404691","[""stimuli/BF05_FO.jpg"",""stimuli/BM07_HE.jpg"",""stimuli/AF02_HO.jpg"",""stimuli/AM05_SC.jpg""]","stimuli/BF05_FO.jpg","stimuli/BM07_HE.jpg","stimuli/AF02_HO.jpg","stimuli/AM05_SC.jpg","pos3","stimuli/AF02_HO.jpg","HO","AF02","2","3","6","8","stimuli/stars_6.png","332","[""FO"",""HE"",""HO"",""SC""]","[""BF05"",""BM07"",""AF02"",""AM05""]","[6,3,6,5]","[4,2,8,6]","","",""
"show-reward","186","405266","0.0-186.0","p96379","A279YSE7NB16M0","3OWZNK3RYMVDNXPNEIRWZ8JM6MU2UY","3H7XDTSHKEXJHFKTYZWN8KT9KXCWG3","model","match","uniform","","","","","","","","405199","407213","","","","","","","","","","","","6","","stimuli/stars_6.png","332","","","","","stimuli/AF02_HO.jpg","",""
"explore-choice","187","406641","0.0-187.0","p96379","A279YSE7NB16M0","3OWZNK3RYMVDNXPNEIRWZ8JM6MU2UY","3H7XDTSHKEXJHFKTYZWN8KT9KXCWG3","model","match","uniform","","","","","","","868","407213","408081","[""stimuli/AM05_FO.jpg"",""stimuli/BM07_SC.jpg"",""stimuli/AF02_HE.jpg"",""stimuli/BF05_HO.jpg""]","stimuli/AM05_FO.jpg","stimuli/BM07_SC.jpg","stimuli/AF02_HE.jpg","stimuli/BF05_HO.jpg","pos3","stimuli/AF02_HE.jpg","HE","AF02","2","4","8","8","stimuli/stars_8.png","336","[""FO"",""SC"",""HE"",""HO""]","[""AM05"",""BM07"",""AF02"",""BF05""]","[8,3,8,4]","[6,2,8,4]","","",""
"show-reward","188","408652","0.0-188.0","p96379","A279YSE7NB16M0","3OWZNK3RYMVDNXPNEIRWZ8JM6MU2UY","3H7XDTSHKEXJHFKTYZWN8KT9KXCWG3","model","match","uniform","","","","","","","","408588","410598","","","","","","","","","","","","8","","stimuli/stars_8.png","336","","","","","stimuli/AF02_HE.jpg","",""
"explore-choice","189","410611","0.0-189.0","p96379","A279YSE7NB16M0","3OWZNK3RYMVDNXPNEIRWZ8JM6MU2UY","3H7XDTSHKEXJHFKTYZWN8KT9KXCWG3","model","match","uniform","","","","","","","1458","410599","412057","[""stimuli/AF02_HE.jpg"",""stimuli/AM05_HO.jpg"",""stimuli/BF05_FO.jpg"",""stimuli/BM07_SC.jpg""]","stimuli/AF02_HE.jpg","stimuli/AM05_HO.jpg","stimuli/BF05_FO.jpg","stimuli/BM07_SC.jpg","pos1","stimuli/AF02_HE.jpg","HE","AF02","0","4.5","9","8","stimuli/stars_9.png","340.5","[""HE"",""HO"",""FO"",""SC""]","[""AF02"",""AM05"",""BF05"",""BM07""]","[9,5,2,3]","[8,6,4,2]","","",""
"show-reward","190","412612","0.0-190.0","p96379","A279YSE7NB16M0","3OWZNK3RYMVDNXPNEIRWZ8JM6MU2UY","3H7XDTSHKEXJHFKTYZWN8KT9KXCWG3","model","match","uniform","","","","","","","","412558","414559","","","","","","","","","","","","9","","stimuli/stars_9.png","340.5","","","","","stimuli/AF02_HE.jpg","",""
"explore-choice","191","414235","0.0-191.0","p96379","A279YSE7NB16M0","3OWZNK3RYMVDNXPNEIRWZ8JM6MU2UY","3H7XDTSHKEXJHFKTYZWN8KT9KXCWG3","model","match","uniform","","","","","","","1116","414559","415675","[""stimuli/AF02_FO.jpg"",""stimuli/BM07_SC.jpg"",""stimuli/AM05_HO.jpg"",""stimuli/BF05_HE.jpg""]","stimuli/AF02_FO.jpg","stimuli/BM07_SC.jpg","stimuli/AM05_HO.jpg","stimuli/BF05_HE.jpg","pos1","stimuli/AF02_FO.jpg","FO","AF02","0","3","6","8","stimuli/stars_6.png","343.5","[""FO"",""SC"",""HO"",""HE""]","[""AF02"",""BM07"",""AM05"",""BF05""]","[6,3,7,2]","[8,2,6,4]","","",""
"show-reward","192","416247","0.0-192.0","p96379","A279YSE7NB16M0","3OWZNK3RYMVDNXPNEIRWZ8JM6MU2UY","3H7XDTSHKEXJHFKTYZWN8KT9KXCWG3","model","match","uniform","","","","","","","","416182","418194","","","","","","","","","","","","6","","stimuli/stars_6.png","343.5","","","","","stimuli/AF02_FO.jpg","",""
"explore-choice","193","418088","0.0-193.0","p96379","A279YSE7NB16M0","3OWZNK3RYMVDNXPNEIRWZ8JM6MU2UY","3H7XDTSHKEXJHFKTYZWN8KT9KXCWG3","model","match","uniform","","","","","","","1341","418194","419535","[""stimuli/BF05_FO.jpg"",""stimuli/BM07_HO.jpg"",""stimuli/AF02_HE.jpg"",""stimuli/AM05_SC.jpg""]","stimuli/BF05_FO.jpg","stimuli/BM07_HO.jpg","stimuli/AF02_HE.jpg","stimuli/AM05_SC.jpg","pos3","stimuli/AF02_HE.jpg","HE","AF02","2","3","6","8","stimuli/stars_6.png","346.5","[""FO"",""HO"",""HE"",""SC""]","[""BF05"",""BM07"",""AF02"",""AM05""]","[3,4,6,7]","[4,2,8,6]","","",""
"show-reward","194","420102","0.0-194.0","p96379","A279YSE7NB16M0","3OWZNK3RYMVDNXPNEIRWZ8JM6MU2UY","3H7XDTSHKEXJHFKTYZWN8KT9KXCWG3","model","match","uniform","","","","","","","","420035","422049","","","","","","","","","","","","6","","stimuli/stars_6.png","346.5","","","","","stimuli/AF02_HE.jpg","",""
"explore-choice","195","422021","0.0-195.0","p96379","A279YSE7NB16M0","3OWZNK3RYMVDNXPNEIRWZ8JM6MU2UY","3H7XDTSHKEXJHFKTYZWN8KT9KXCWG3","model","match","uniform","","","","","","","1407","422049","423456","[""stimuli/AF02_HO.jpg"",""stimuli/AM05_FO.jpg"",""stimuli/BM07_SC.jpg"",""stimuli/BF05_HE.jpg""]","stimuli/AF02_HO.jpg","stimuli/AM05_FO.jpg","stimuli/BM07_SC.jpg","stimuli/BF05_HE.jpg","pos1","stimuli/AF02_HO.jpg","HO","AF02","0","5","10","8","stimuli/stars_10.png","351.5","[""HO"",""FO"",""SC"",""HE""]","[""AF02"",""AM05"",""BM07"",""BF05""]","[10,8,1,5]","[8,6,2,4]","","",""
"show-reward","196","424024","0.0-196.0","p96379","A279YSE7NB16M0","3OWZNK3RYMVDNXPNEIRWZ8JM6MU2UY","3H7XDTSHKEXJHFKTYZWN8KT9KXCWG3","model","match","uniform","","","","","","","","423968","425970","","","","","","","","","","","","10","","stimuli/stars_10.png","351.5","","","","","stimuli/AF02_HO.jpg","",""
"explore-choice","197","425305","0.0-197.0","p96379","A279YSE7NB16M0","3OWZNK3RYMVDNXPNEIRWZ8JM6MU2UY","3H7XDTSHKEXJHFKTYZWN8KT9KXCWG3","model","match","uniform","","","","","","","778","425971","426749","[""stimuli/AF02_FO.jpg"",""stimuli/BF05_SC.jpg"",""stimuli/BM07_HO.jpg"",""stimuli/AM05_HE.jpg""]","stimuli/AF02_FO.jpg","stimuli/BF05_SC.jpg","stimuli/BM07_HO.jpg","stimuli/AM05_HE.jpg","pos1","stimuli/AF02_FO.jpg","FO","AF02","0","5","10","8","stimuli/stars_10.png","356.5","[""FO"",""SC"",""HO"",""HE""]","[""AF02"",""BF05"",""BM07"",""AM05""]","[10,2,2,6]","[8,4,2,6]","","",""
"show-reward","198","427308","0.0-198.0","p96379","A279YSE7NB16M0","3OWZNK3RYMVDNXPNEIRWZ8JM6MU2UY","3H7XDTSHKEXJHFKTYZWN8KT9KXCWG3","model","match","uniform","","","","","","","","427252","429254","","","","","","","","","","","","10","","stimuli/stars_10.png","356.5","","","","","stimuli/AF02_FO.jpg","",""
"instructions","199","437322","0.0-199.0","p96379","A279YSE7NB16M0","3OWZNK3RYMVDNXPNEIRWZ8JM6MU2UY","3H7XDTSHKEXJHFKTYZWN8KT9KXCWG3","model","match","uniform","","","","","","[{""page_index"":0,""viewing_time"":10014}]","10014","","","","","","","","","","","","","","","","","","","","","","","",""
"survey-text","200","441535","0.0-200.0-0.0","p96379","A279YSE7NB16M0","3OWZNK3RYMVDNXPNEIRWZ8JM6MU2UY","3H7XDTSHKEXJHFKTYZWN8KT9KXCWG3","model","match","uniform","","","","","","","4207","","","","","","","","","","","","","","","","","","","","","","","{""age"":""41""}",""
"survey-text","201","446958","0.0-200.0-1.0","p96379","A279YSE7NB16M0","3OWZNK3RYMVDNXPNEIRWZ8JM6MU2UY","3H7XDTSHKEXJHFKTYZWN8KT9KXCWG3","model","match","uniform","","","","","","","5419","","","","","","","","","","","","","","","","","","","","","","","{""gender"":""male""}",""
"survey-text","202","452028","0.0-200.0-2.0","p96379","A279YSE7NB16M0","3OWZNK3RYMVDNXPNEIRWZ8JM6MU2UY","3H7XDTSHKEXJHFKTYZWN8KT9KXCWG3","model","match","uniform","","","","","","","5066","","","","","","","","","","","","","","","","","","","","","","","{""country"":""us""}",""
"survey-text","203","459814","0.0-200.0-3.0","p96379","A279YSE7NB16M0","3OWZNK3RYMVDNXPNEIRWZ8JM6MU2UY","3H7XDTSHKEXJHFKTYZWN8KT9KXCWG3","model","match","uniform","","","","","","","7781","","","","","","","","","","","","","","","","","","","","","","","{""language"":""english"",""other_languages"":""""}",""
"survey-multi-select","204","462804","0.0-201.0","p96379","A279YSE7NB16M0","3OWZNK3RYMVDNXPNEIRWZ8JM6MU2UY","3H7XDTSHKEXJHFKTYZWN8KT9KXCWG3","model","match","uniform","","","","","","","2982","","","","","","","","","","","","","","","","","","","","","","","{""race"":[""White""]}","[0]"
"survey-multi-choice","205","467186","0.0-202.0","p96379","A279YSE7NB16M0","3OWZNK3RYMVDNXPNEIRWZ8JM6MU2UY","3H7XDTSHKEXJHFKTYZWN8KT9KXCWG3","model","match","uniform","","","","","","","4379","","","","","","","","","","","","","","","","","","","","","","","{""education"":""Bachelor's degree""}","[0]"
"survey-text","206","509323","0.0-203.0","p96379","A279YSE7NB16M0","3OWZNK3RYMVDNXPNEIRWZ8JM6MU2UY","3H7XDTSHKEXJHFKTYZWN8KT9KXCWG3","model","match","uniform","","","","","","","42132","","","","","","","","","","","","","","","","","","","","","","","{""patterns"":""girl best"",""strategy"":""girl gave best results"",""comments"":""""}",""
