"trial_type","trial_index","time_elapsed","internal_node_id","subject","workerId","hitId","assignmentId","structure_condition","match_condition","noise_type","success","timeout","failed_images","failed_audio","failed_video","view_history","rt","start_time","end_time","stimuli","image1","image2","image3","image4","choiceLocation","choiceImage","choiceEmotion","choiceModel","choice_index","reward_score","reward","reward_score_unadjusted","reward_image","score_after_trial","emotions","models","rewards","rewards_unadjusted","stimulus","response","question_order"
"pavlovia","0","16","0.0-0.0","p531096","A2ISLV6X3Q81MS","3WPCIUYH1BELQU8EB2L3QVOOKYBTD4","3WETL7AQWVEOAKTL7J2UZQRNWVB35T","model","mismatch","uniform","","","","","","","","","","","","","","","","","","","","","","","","","","","","","","",""
"preload","1","10030","0.0-1.0","p531096","A2ISLV6X3Q81MS","3WPCIUYH1BELQU8EB2L3QVOOKYBTD4","3WETL7AQWVEOAKTL7J2UZQRNWVB35T","model","mismatch","uniform","true","false","[]","[]","[]","","","","","","","","","","","","","","","","","","","","","","","","","",""
"fullscreen","2","15217","0.0-2.0","p531096","A2ISLV6X3Q81MS","3WPCIUYH1BELQU8EB2L3QVOOKYBTD4","3WETL7AQWVEOAKTL7J2UZQRNWVB35T","model","mismatch","uniform","true","","","","","","","","","","","","","","","","","","","","","","","","","","","","","",""
"instructions","3","18883","0.0-3.0","p531096","A2ISLV6X3Q81MS","3WPCIUYH1BELQU8EB2L3QVOOKYBTD4","3WETL7AQWVEOAKTL7J2UZQRNWVB35T","model","mismatch","uniform","","","","","","[{""page_index"":0,""viewing_time"":3648}]","3650","","","","","","","","","","","","","","","","","","","","","","","",""
"explore-choice","4","23975","0.0-4.0","p531096","A2ISLV6X3Q81MS","3WPCIUYH1BELQU8EB2L3QVOOKYBTD4","3WETL7AQWVEOAKTL7J2UZQRNWVB35T","model","mismatch","uniform","","","","","","","4588","21868","26456","[""stimuli/sheep.jpg"",""stimuli/hammer.jpg"",""stimuli/basketball.jpg"",""stimuli/horse.jpg""]","stimuli/sheep.jpg","stimuli/hammer.jpg","stimuli/basketball.jpg","stimuli/horse.jpg","pos4","stimuli/horse.jpg","","","3","64","64","64","stimuli/stars_8.png","65","","","","","","",""
"explore-choice","5","26365","0.0-5.0","p531096","A2ISLV6X3Q81MS","3WPCIUYH1BELQU8EB2L3QVOOKYBTD4","3WETL7AQWVEOAKTL7J2UZQRNWVB35T","model","mismatch","uniform","","","","","","","1881","26961","28842","[""stimuli/hammer.jpg"",""stimuli/basketball.jpg"",""stimuli/horse.jpg"",""stimuli/sheep.jpg""]","stimuli/hammer.jpg","stimuli/basketball.jpg","stimuli/horse.jpg","stimuli/sheep.jpg","pos1","stimuli/hammer.jpg","","","0","8","8","8","stimuli/stars_2.png","9","","","","","","",""
"instructions","6","34481","0.0-6.0","p531096","A2ISLV6X3Q81MS","3WPCIUYH1BELQU8EB2L3QVOOKYBTD4","3WETL7AQWVEOAKTL7J2UZQRNWVB35T","model","mismatch","uniform","","","","","","[{""page_index"":0,""viewing_time"":8107}]","8109","","","","","","","","","","","","","","","","","","","","","","","",""
"explore-choice","7","42119","0.0-7.0","p531096","A2ISLV6X3Q81MS","3WPCIUYH1BELQU8EB2L3QVOOKYBTD4","3WETL7AQWVEOAKTL7J2UZQRNWVB35T","model","mismatch","uniform","","","","","","","7130","37470","44600","[""stimuli/WF04_FO.jpg"",""stimuli/BM16_CC.jpg"",""stimuli/WM11_HE.jpg"",""stimuli/BM04_SUR.jpg""]","stimuli/WF04_FO.jpg","stimuli/BM16_CC.jpg","stimuli/WM11_HE.jpg","stimuli/BM04_SUR.jpg","pos2","stimuli/BM16_CC.jpg","CC","BM16","1","5","10","8","stimuli/stars_10.png","6","[""FO"",""CC"",""HE"",""SUR""]","[""WF04"",""BM16"",""WM11"",""BM04""]","[1,10,6,7]","[2,8,4,6]","","",""
"show-reward","8","44131","0.0-8.0","p531096","A2ISLV6X3Q81MS","3WPCIUYH1BELQU8EB2L3QVOOKYBTD4","3WETL7AQWVEOAKTL7J2UZQRNWVB35T","model","mismatch","uniform","","","","","","","","45107","47113","","","","","","","","","","","","10","","stimuli/stars_10.png","6","","","","","stimuli/BM16_CC.jpg","",""
"explore-choice","9","47081","0.0-9.0","p531096","A2ISLV6X3Q81MS","3WPCIUYH1BELQU8EB2L3QVOOKYBTD4","3WETL7AQWVEOAKTL7J2UZQRNWVB35T","model","mismatch","uniform","","","","","","","2444","47116","49560","[""stimuli/WF04_HE.jpg"",""stimuli/BM04_FO.jpg"",""stimuli/WM11_SUR.jpg"",""stimuli/BM16_CC.jpg""]","stimuli/WF04_HE.jpg","stimuli/BM04_FO.jpg","stimuli/WM11_SUR.jpg","stimuli/BM16_CC.jpg","pos1","stimuli/WF04_HE.jpg","HE","WF04","0","0","0","2","stimuli/stars_0.png","6","[""HE"",""FO"",""SUR"",""CC""]","[""WF04"",""BM04"",""WM11"",""BM16""]","[0,7,5,8]","[2,6,4,8]","","",""
"show-reward","10","49089","0.0-10.0","p531096","A2ISLV6X3Q81MS","3WPCIUYH1BELQU8EB2L3QVOOKYBTD4","3WETL7AQWVEOAKTL7J2UZQRNWVB35T","model","mismatch","uniform","","","","","","","","50067","52071","","","","","","","","","","","","0","","stimuli/stars_0.png","6","","","","","stimuli/WF04_HE.jpg","",""
"explore-choice","11","52597","0.0-11.0","p531096","A2ISLV6X3Q81MS","3WPCIUYH1BELQU8EB2L3QVOOKYBTD4","3WETL7AQWVEOAKTL7J2UZQRNWVB35T","model","mismatch","uniform","","","","","","","3005","52074","55079","[""stimuli/BM04_SUR.jpg"",""stimuli/BM16_FO.jpg"",""stimuli/WF04_CC.jpg"",""stimuli/WM11_HE.jpg""]","stimuli/BM04_SUR.jpg","stimuli/BM16_FO.jpg","stimuli/WF04_CC.jpg","stimuli/WM11_HE.jpg","pos4","stimuli/WM11_HE.jpg","HE","WM11","3","3","6","4","stimuli/stars_6.png","9","[""SUR"",""FO"",""CC"",""HE""]","[""BM04"",""BM16"",""WF04"",""WM11""]","[6,10,4,6]","[6,8,2,4]","","",""
"show-reward","12","54600","0.0-12.0","p531096","A2ISLV6X3Q81MS","3WPCIUYH1BELQU8EB2L3QVOOKYBTD4","3WETL7AQWVEOAKTL7J2UZQRNWVB35T","model","mismatch","uniform","","","","","","","","55581","57583","","","","","","","","","","","","6","","stimuli/stars_6.png","9","","","","","stimuli/WM11_HE.jpg","",""
"explore-choice","13","59304","0.0-13.0","p531096","A2ISLV6X3Q81MS","3WPCIUYH1BELQU8EB2L3QVOOKYBTD4","3WETL7AQWVEOAKTL7J2UZQRNWVB35T","model","mismatch","uniform","","","","","","","4200","57585","61785","[""stimuli/BM04_FO.jpg"",""stimuli/WF04_SUR.jpg"",""stimuli/WM11_CC.jpg"",""stimuli/BM16_HE.jpg""]","stimuli/BM04_FO.jpg","stimuli/WF04_SUR.jpg","stimuli/WM11_CC.jpg","stimuli/BM16_HE.jpg","pos2","stimuli/WF04_SUR.jpg","SUR","WF04","1","0.5","1","2","stimuli/stars_1.png","9.5","[""FO"",""SUR"",""CC"",""HE""]","[""BM04"",""WF04"",""WM11"",""BM16""]","[5,1,4,10]","[6,2,4,8]","","",""
"show-reward","14","61328","0.0-14.0","p531096","A2ISLV6X3Q81MS","3WPCIUYH1BELQU8EB2L3QVOOKYBTD4","3WETL7AQWVEOAKTL7J2UZQRNWVB35T","model","mismatch","uniform","","","","","","","","62289","64311","","","","","","","","","","","","1","","stimuli/stars_1.png","9.5","","","","","stimuli/WF04_SUR.jpg","",""
"explore-choice","15","65200","0.0-15.0","p531096","A2ISLV6X3Q81MS","3WPCIUYH1BELQU8EB2L3QVOOKYBTD4","3WETL7AQWVEOAKTL7J2UZQRNWVB35T","model","mismatch","uniform","","","","","","","3368","64315","67683","[""stimuli/WM11_HE.jpg"",""stimuli/BM16_SUR.jpg"",""stimuli/BM04_FO.jpg"",""stimuli/WF04_CC.jpg""]","stimuli/WM11_HE.jpg","stimuli/BM16_SUR.jpg","stimuli/BM04_FO.jpg","stimuli/WF04_CC.jpg","pos1","stimuli/WM11_HE.jpg","HE","WM11","0","2.5","5","4","stimuli/stars_5.png","12","[""HE"",""SUR"",""FO"",""CC""]","[""WM11"",""BM16"",""BM04"",""WF04""]","[5,9,6,4]","[4,8,6,2]","","",""
"show-reward","16","67206","0.0-16.0","p531096","A2ISLV6X3Q81MS","3WPCIUYH1BELQU8EB2L3QVOOKYBTD4","3WETL7AQWVEOAKTL7J2UZQRNWVB35T","model","mismatch","uniform","","","","","","","","68185","70189","","","","","","","","","","","","5","","stimuli/stars_5.png","12","","","","","stimuli/WM11_HE.jpg","",""
"explore-choice","17","70718","0.0-17.0","p531096","A2ISLV6X3Q81MS","3WPCIUYH1BELQU8EB2L3QVOOKYBTD4","3WETL7AQWVEOAKTL7J2UZQRNWVB35T","model","mismatch","uniform","","","","","","","3006","70192","73198","[""stimuli/WM11_HE.jpg"",""stimuli/BM16_CC.jpg"",""stimuli/BM04_FO.jpg"",""stimuli/WF04_SUR.jpg""]","stimuli/WM11_HE.jpg","stimuli/BM16_CC.jpg","stimuli/BM04_FO.jpg","stimuli/WF04_SUR.jpg","pos2","stimuli/BM16_CC.jpg","CC","BM16","1","4.5","9","8","stimuli/stars_9.png","16.5","[""HE"",""CC"",""FO"",""SUR""]","[""WM11"",""BM16"",""BM04"",""WF04""]","[6,9,8,4]","[4,8,6,2]","","",""
"show-reward","18","72729","0.0-18.0","p531096","A2ISLV6X3Q81MS","3WPCIUYH1BELQU8EB2L3QVOOKYBTD4","3WETL7AQWVEOAKTL7J2UZQRNWVB35T","model","mismatch","uniform","","","","","","","","73704","75710","","","","","","","","","","","","9","","stimuli/stars_9.png","16.5","","","","","stimuli/BM16_CC.jpg","",""
"explore-choice","19","75776","0.0-19.0","p531096","A2ISLV6X3Q81MS","3WPCIUYH1BELQU8EB2L3QVOOKYBTD4","3WETL7AQWVEOAKTL7J2UZQRNWVB35T","model","mismatch","uniform","","","","","","","2542","75715","78257","[""stimuli/BM16_SUR.jpg"",""stimuli/BM04_CC.jpg"",""stimuli/WF04_FO.jpg"",""stimuli/WM11_HE.jpg""]","stimuli/BM16_SUR.jpg","stimuli/BM04_CC.jpg","stimuli/WF04_FO.jpg","stimuli/WM11_HE.jpg","pos1","stimuli/BM16_SUR.jpg","SUR","BM16","0","5","10","8","stimuli/stars_10.png","21.5","[""SUR"",""CC"",""FO"",""HE""]","[""BM16"",""BM04"",""WF04"",""WM11""]","[10,6,2,2]","[8,6,2,4]","","",""
"show-reward","20","77782","0.0-20.0","p531096","A2ISLV6X3Q81MS","3WPCIUYH1BELQU8EB2L3QVOOKYBTD4","3WETL7AQWVEOAKTL7J2UZQRNWVB35T","model","mismatch","uniform","","","","","","","","78760","80764","","","","","","","","","","","","10","","stimuli/stars_10.png","21.5","","","","","stimuli/BM16_SUR.jpg","",""
"explore-choice","21","80644","0.0-21.0","p531096","A2ISLV6X3Q81MS","3WPCIUYH1BELQU8EB2L3QVOOKYBTD4","3WETL7AQWVEOAKTL7J2UZQRNWVB35T","model","mismatch","uniform","","","","","","","2357","80768","83125","[""stimuli/WF04_HE.jpg"",""stimuli/BM04_FO.jpg"",""stimuli/BM16_SUR.jpg"",""stimuli/WM11_CC.jpg""]","stimuli/WF04_HE.jpg","stimuli/BM04_FO.jpg","stimuli/BM16_SUR.jpg","stimuli/WM11_CC.jpg","pos1","stimuli/WF04_HE.jpg","HE","WF04","0","1","2","2","stimuli/stars_2.png","22.5","[""HE"",""FO"",""SUR"",""CC""]","[""WF04"",""BM04"",""BM16"",""WM11""]","[2,5,10,4]","[2,6,8,4]","","",""
"show-reward","22","82651","0.0-22.0","p531096","A2ISLV6X3Q81MS","3WPCIUYH1BELQU8EB2L3QVOOKYBTD4","3WETL7AQWVEOAKTL7J2UZQRNWVB35T","model","mismatch","uniform","","","","","","","","83630","85633","","","","","","","","","","","","2","","stimuli/stars_2.png","22.5","","","","","stimuli/WF04_HE.jpg","",""
"explore-choice","23","88503","0.0-23.0","p531096","A2ISLV6X3Q81MS","3WPCIUYH1BELQU8EB2L3QVOOKYBTD4","3WETL7AQWVEOAKTL7J2UZQRNWVB35T","model","mismatch","uniform","","","","","","","5349","85636","90985","[""stimuli/BM16_FO.jpg"",""stimuli/BM04_CC.jpg"",""stimuli/WF04_HE.jpg"",""stimuli/WM11_SUR.jpg""]","stimuli/BM16_FO.jpg","stimuli/BM04_CC.jpg","stimuli/WF04_HE.jpg","stimuli/WM11_SUR.jpg","pos4","stimuli/WM11_SUR.jpg","SUR","WM11","3","1.5","3","4","stimuli/stars_3.png","24","[""FO"",""CC"",""HE"",""SUR""]","[""BM16"",""BM04"",""WF04"",""WM11""]","[10,8,3,3]","[8,6,2,4]","","",""
"show-reward","24","90508","0.0-24.0","p531096","A2ISLV6X3Q81MS","3WPCIUYH1BELQU8EB2L3QVOOKYBTD4","3WETL7AQWVEOAKTL7J2UZQRNWVB35T","model","mismatch","uniform","","","","","","","","91487","93490","","","","","","","","","","","","3","","stimuli/stars_3.png","24","","","","","stimuli/WM11_SUR.jpg","",""
"explore-choice","25","92922","0.0-25.0","p531096","A2ISLV6X3Q81MS","3WPCIUYH1BELQU8EB2L3QVOOKYBTD4","3WETL7AQWVEOAKTL7J2UZQRNWVB35T","model","mismatch","uniform","","","","","","","1911","93493","95404","[""stimuli/WF04_HE.jpg"",""stimuli/WM11_CC.jpg"",""stimuli/BM04_SUR.jpg"",""stimuli/BM16_FO.jpg""]","stimuli/WF04_HE.jpg","stimuli/WM11_CC.jpg","stimuli/BM04_SUR.jpg","stimuli/BM16_FO.jpg","pos3","stimuli/BM04_SUR.jpg","SUR","BM04","2","2.5","5","6","stimuli/stars_5.png","26.5","[""HE"",""CC"",""SUR"",""FO""]","[""WF04"",""WM11"",""BM04"",""BM16""]","[1,2,5,6]","[2,4,6,8]","","",""
"show-reward","26","94930","0.0-26.0","p531096","A2ISLV6X3Q81MS","3WPCIUYH1BELQU8EB2L3QVOOKYBTD4","3WETL7AQWVEOAKTL7J2UZQRNWVB35T","model","mismatch","uniform","","","","","","","","95907","97912","","","","","","","","","","","","5","","stimuli/stars_5.png","26.5","","","","","stimuli/BM04_SUR.jpg","",""
"explore-choice","27","96699","0.0-27.0","p531096","A2ISLV6X3Q81MS","3WPCIUYH1BELQU8EB2L3QVOOKYBTD4","3WETL7AQWVEOAKTL7J2UZQRNWVB35T","model","mismatch","uniform","","","","","","","1266","97915","99181","[""stimuli/BM16_SUR.jpg"",""stimuli/BM04_HE.jpg"",""stimuli/WM11_CC.jpg"",""stimuli/WF04_FO.jpg""]","stimuli/BM16_SUR.jpg","stimuli/BM04_HE.jpg","stimuli/WM11_CC.jpg","stimuli/WF04_FO.jpg","pos1","stimuli/BM16_SUR.jpg","SUR","BM16","0","4","8","8","stimuli/stars_8.png","30.5","[""SUR"",""HE"",""CC"",""FO""]","[""BM16"",""BM04"",""WM11"",""WF04""]","[8,4,6,1]","[8,6,4,2]","","",""
"show-reward","28","98706","0.0-28.0","p531096","A2ISLV6X3Q81MS","3WPCIUYH1BELQU8EB2L3QVOOKYBTD4","3WETL7AQWVEOAKTL7J2UZQRNWVB35T","model","mismatch","uniform","","","","","","","","99687","101689","","","","","","","","","","","","8","","stimuli/stars_8.png","30.5","","","","","stimuli/BM16_SUR.jpg","",""
"explore-choice","29","100395","0.0-29.0","p531096","A2ISLV6X3Q81MS","3WPCIUYH1BELQU8EB2L3QVOOKYBTD4","3WETL7AQWVEOAKTL7J2UZQRNWVB35T","model","mismatch","uniform","","","","","","","1185","101691","102876","[""stimuli/BM04_SUR.jpg"",""stimuli/WM11_CC.jpg"",""stimuli/WF04_FO.jpg"",""stimuli/BM16_HE.jpg""]","stimuli/BM04_SUR.jpg","stimuli/WM11_CC.jpg","stimuli/WF04_FO.jpg","stimuli/BM16_HE.jpg","pos2","stimuli/WM11_CC.jpg","CC","WM11","1","1.5","3","4","stimuli/stars_3.png","32","[""SUR"",""CC"",""FO"",""HE""]","[""BM04"",""WM11"",""WF04"",""BM16""]","[6,3,2,6]","[6,4,2,8]","","",""
"show-reward","30","102403","0.0-30.0","p531096","A2ISLV6X3Q81MS","3WPCIUYH1BELQU8EB2L3QVOOKYBTD4","3WETL7AQWVEOAKTL7J2UZQRNWVB35T","model","mismatch","uniform","","","","","","","","103380","105386","","","","","","","","","","","","3","","stimuli/stars_3.png","32","","","","","stimuli/WM11_CC.jpg","",""
"explore-choice","31","105071","0.0-31.0","p531096","A2ISLV6X3Q81MS","3WPCIUYH1BELQU8EB2L3QVOOKYBTD4","3WETL7AQWVEOAKTL7J2UZQRNWVB35T","model","mismatch","uniform","","","","","","","2165","105387","107552","[""stimuli/WF04_FO.jpg"",""stimuli/WM11_SUR.jpg"",""stimuli/BM04_CC.jpg"",""stimuli/BM16_HE.jpg""]","stimuli/WF04_FO.jpg","stimuli/WM11_SUR.jpg","stimuli/BM04_CC.jpg","stimuli/BM16_HE.jpg","pos4","stimuli/BM16_HE.jpg","HE","BM16","3","3.5","7","8","stimuli/stars_7.png","35.5","[""FO"",""SUR"",""CC"",""HE""]","[""WF04"",""WM11"",""BM04"",""BM16""]","[0,4,6,7]","[2,4,6,8]","","",""
"show-reward","32","107087","0.0-32.0","p531096","A2ISLV6X3Q81MS","3WPCIUYH1BELQU8EB2L3QVOOKYBTD4","3WETL7AQWVEOAKTL7J2UZQRNWVB35T","model","mismatch","uniform","","","","","","","","108058","110069","","","","","","","","","","","","7","","stimuli/stars_7.png","35.5","","","","","stimuli/BM16_HE.jpg","",""
"explore-choice","33","122943","0.0-33.0","p531096","A2ISLV6X3Q81MS","3WPCIUYH1BELQU8EB2L3QVOOKYBTD4","3WETL7AQWVEOAKTL7J2UZQRNWVB35T","model","mismatch","uniform","","","","","","","15353","110071","125424","[""stimuli/BM16_CC.jpg"",""stimuli/WM11_FO.jpg"",""stimuli/WF04_SUR.jpg"",""stimuli/BM04_HE.jpg""]","stimuli/BM16_CC.jpg","stimuli/WM11_FO.jpg","stimuli/WF04_SUR.jpg","stimuli/BM04_HE.jpg","pos3","stimuli/WF04_SUR.jpg","SUR","WF04","2","1.5","3","2","stimuli/stars_3.png","37","[""CC"",""FO"",""SUR"",""HE""]","[""BM16"",""WM11"",""WF04"",""BM04""]","[6,3,3,5]","[8,4,2,6]","","",""
"show-reward","34","124950","0.0-34.0","p531096","A2ISLV6X3Q81MS","3WPCIUYH1BELQU8EB2L3QVOOKYBTD4","3WETL7AQWVEOAKTL7J2UZQRNWVB35T","model","mismatch","uniform","","","","","","","","125928","127932","","","","","","","","","","","","3","","stimuli/stars_3.png","37","","","","","stimuli/WF04_SUR.jpg","",""
"explore-choice","35","126910","0.0-35.0","p531096","A2ISLV6X3Q81MS","3WPCIUYH1BELQU8EB2L3QVOOKYBTD4","3WETL7AQWVEOAKTL7J2UZQRNWVB35T","model","mismatch","uniform","","","","","","","1457","127933","129390","[""stimuli/BM04_SUR.jpg"",""stimuli/BM16_CC.jpg"",""stimuli/WM11_FO.jpg"",""stimuli/WF04_HE.jpg""]","stimuli/BM04_SUR.jpg","stimuli/BM16_CC.jpg","stimuli/WM11_FO.jpg","stimuli/WF04_HE.jpg","pos1","stimuli/BM04_SUR.jpg","SUR","BM04","0","2","4","6","stimuli/stars_4.png","39","[""SUR"",""CC"",""FO"",""HE""]","[""BM04"",""BM16"",""WM11"",""WF04""]","[4,9,3,4]","[6,8,4,2]","","",""
"show-reward","36","128916","0.0-36.0","p531096","A2ISLV6X3Q81MS","3WPCIUYH1BELQU8EB2L3QVOOKYBTD4","3WETL7AQWVEOAKTL7J2UZQRNWVB35T","model","mismatch","uniform","","","","","","","","129895","131899","","","","","","","","","","","","4","","stimuli/stars_4.png","39","","","","","stimuli/BM04_SUR.jpg","",""
"explore-choice","37","130912","0.0-37.0","p531096","A2ISLV6X3Q81MS","3WPCIUYH1BELQU8EB2L3QVOOKYBTD4","3WETL7AQWVEOAKTL7J2UZQRNWVB35T","model","mismatch","uniform","","","","","","","1492","131902","133394","[""stimuli/WM11_FO.jpg"",""stimuli/BM04_CC.jpg"",""stimuli/BM16_SUR.jpg"",""stimuli/WF04_HE.jpg""]","stimuli/WM11_FO.jpg","stimuli/BM04_CC.jpg","stimuli/BM16_SUR.jpg","stimuli/WF04_HE.jpg","pos2","stimuli/BM04_CC.jpg","CC","BM04","1","2","4","6","stimuli/stars_4.png","41","[""FO"",""CC"",""SUR"",""HE""]","[""WM11"",""BM04"",""BM16"",""WF04""]","[6,4,9,3]","[4,6,8,2]","","",""
"show-reward","38","132919","0.0-38.0","p531096","A2ISLV6X3Q81MS","3WPCIUYH1BELQU8EB2L3QVOOKYBTD4","3WETL7AQWVEOAKTL7J2UZQRNWVB35T","model","mismatch","uniform","","","","","","","","133896","135901","","","","","","","","","","","","4","","stimuli/stars_4.png","41","","","","","stimuli/BM04_CC.jpg","",""
"explore-choice","39","134540","0.0-39.0","p531096","A2ISLV6X3Q81MS","3WPCIUYH1BELQU8EB2L3QVOOKYBTD4","3WETL7AQWVEOAKTL7J2UZQRNWVB35T","model","mismatch","uniform","","","","","","","1116","135904","137020","[""stimuli/WM11_FO.jpg"",""stimuli/BM16_HE.jpg"",""stimuli/BM04_CC.jpg"",""stimuli/WF04_SUR.jpg""]","stimuli/WM11_FO.jpg","stimuli/BM16_HE.jpg","stimuli/BM04_CC.jpg","stimuli/WF04_SUR.jpg","pos3","stimuli/BM04_CC.jpg","CC","BM04","2","2.5","5","6","stimuli/stars_5.png","43.5","[""FO"",""HE"",""CC"",""SUR""]","[""WM11"",""BM16"",""BM04"",""WF04""]","[6,6,5,1]","[4,8,6,2]","","",""
"show-reward","40","136565","0.0-40.0","p531096","A2ISLV6X3Q81MS","3WPCIUYH1BELQU8EB2L3QVOOKYBTD4","3WETL7AQWVEOAKTL7J2UZQRNWVB35T","model","mismatch","uniform","","","","","","","","137526","139548","","","","","","","","","","","","5","","stimuli/stars_5.png","43.5","","","","","stimuli/BM04_CC.jpg","",""
"explore-choice","41","140765","0.0-41.0","p531096","A2ISLV6X3Q81MS","3WPCIUYH1BELQU8EB2L3QVOOKYBTD4","3WETL7AQWVEOAKTL7J2UZQRNWVB35T","model","mismatch","uniform","","","","","","","3697","139550","143247","[""stimuli/WF04_CC.jpg"",""stimuli/BM16_HE.jpg"",""stimuli/WM11_SUR.jpg"",""stimuli/BM04_FO.jpg""]","stimuli/WF04_CC.jpg","stimuli/BM16_HE.jpg","stimuli/WM11_SUR.jpg","stimuli/BM04_FO.jpg","pos2","stimuli/BM16_HE.jpg","HE","BM16","1","4","8","8","stimuli/stars_8.png","47.5","[""CC"",""HE"",""SUR"",""FO""]","[""WF04"",""BM16"",""WM11"",""BM04""]","[3,8,3,6]","[2,8,4,6]","","",""
"show-reward","42","142773","0.0-42.0","p531096","A2ISLV6X3Q81MS","3WPCIUYH1BELQU8EB2L3QVOOKYBTD4","3WETL7AQWVEOAKTL7J2UZQRNWVB35T","model","mismatch","uniform","","","","","","","","143751","145755","","","","","","","","","","","","8","","stimuli/stars_8.png","47.5","","","","","stimuli/BM16_HE.jpg","",""
"explore-choice","43","144938","0.0-43.0","p531096","A2ISLV6X3Q81MS","3WPCIUYH1BELQU8EB2L3QVOOKYBTD4","3WETL7AQWVEOAKTL7J2UZQRNWVB35T","model","mismatch","uniform","","","","","","","1659","145760","147419","[""stimuli/BM04_HE.jpg"",""stimuli/WF04_CC.jpg"",""stimuli/BM16_FO.jpg"",""stimuli/WM11_SUR.jpg""]","stimuli/BM04_HE.jpg","stimuli/WF04_CC.jpg","stimuli/BM16_FO.jpg","stimuli/WM11_SUR.jpg","pos3","stimuli/BM16_FO.jpg","FO","BM16","2","3.5","7","8","stimuli/stars_7.png","51","[""HE"",""CC"",""FO"",""SUR""]","[""BM04"",""WF04"",""BM16"",""WM11""]","[8,4,7,2]","[6,2,8,4]","","",""
"show-reward","44","146945","0.0-44.0","p531096","A2ISLV6X3Q81MS","3WPCIUYH1BELQU8EB2L3QVOOKYBTD4","3WETL7AQWVEOAKTL7J2UZQRNWVB35T","model","mismatch","uniform","","","","","","","","147922","149927","","","","","","","","","","","","7","","stimuli/stars_7.png","51","","","","","stimuli/BM16_FO.jpg","",""
"explore-choice","45","148537","0.0-45.0","p531096","A2ISLV6X3Q81MS","3WPCIUYH1BELQU8EB2L3QVOOKYBTD4","3WETL7AQWVEOAKTL7J2UZQRNWVB35T","model","mismatch","uniform","","","","","","","1084","149931","151015","[""stimuli/WM11_FO.jpg"",""stimuli/WF04_CC.jpg"",""stimuli/BM04_HE.jpg"",""stimuli/BM16_SUR.jpg""]","stimuli/WM11_FO.jpg","stimuli/WF04_CC.jpg","stimuli/BM04_HE.jpg","stimuli/BM16_SUR.jpg","pos2","stimuli/WF04_CC.jpg","CC","WF04","1","2","4","2","stimuli/stars_4.png","53","[""FO"",""CC"",""HE"",""SUR""]","[""WM11"",""WF04"",""BM04"",""BM16""]","[5,4,4,9]","[4,2,6,8]","","",""
"show-reward","46","150546","0.0-46.0","p531096","A2ISLV6X3Q81MS","3WPCIUYH1BELQU8EB2L3QVOOKYBTD4","3WETL7AQWVEOAKTL7J2UZQRNWVB35T","model","mismatch","uniform","","","","","","","","151523","153528","","","","","","","","","","","","4","","stimuli/stars_4.png","53","","","","","stimuli/WF04_CC.jpg","",""
"explore-choice","47","152662","0.0-47.0","p531096","A2ISLV6X3Q81MS","3WPCIUYH1BELQU8EB2L3QVOOKYBTD4","3WETL7AQWVEOAKTL7J2UZQRNWVB35T","model","mismatch","uniform","","","","","","","1613","153531","155144","[""stimuli/WM11_CC.jpg"",""stimuli/BM16_FO.jpg"",""stimuli/BM04_HE.jpg"",""stimuli/WF04_SUR.jpg""]","stimuli/WM11_CC.jpg","stimuli/BM16_FO.jpg","stimuli/BM04_HE.jpg","stimuli/WF04_SUR.jpg","pos4","stimuli/WF04_SUR.jpg","SUR","WF04","3","0","0","2","stimuli/stars_0.png","53","[""CC"",""FO"",""HE"",""SUR""]","[""WM11"",""BM16"",""BM04"",""WF04""]","[3,6,5,0]","[4,8,6,2]","","",""
"show-reward","48","154668","0.0-48.0","p531096","A2ISLV6X3Q81MS","3WPCIUYH1BELQU8EB2L3QVOOKYBTD4","3WETL7AQWVEOAKTL7J2UZQRNWVB35T","model","mismatch","uniform","","","","","","","","155646","157650","","","","","","","","","","","","0","","stimuli/stars_0.png","53","","","","","stimuli/WF04_SUR.jpg","",""
"explore-choice","49","157361","0.0-49.0","p531096","A2ISLV6X3Q81MS","3WPCIUYH1BELQU8EB2L3QVOOKYBTD4","3WETL7AQWVEOAKTL7J2UZQRNWVB35T","model","mismatch","uniform","","","","","","","2187","157654","159841","[""stimuli/BM04_CC.jpg"",""stimuli/WF04_SUR.jpg"",""stimuli/WM11_HE.jpg"",""stimuli/BM16_FO.jpg""]","stimuli/BM04_CC.jpg","stimuli/WF04_SUR.jpg","stimuli/WM11_HE.jpg","stimuli/BM16_FO.jpg","pos1","stimuli/BM04_CC.jpg","CC","BM04","0","3.5","7","6","stimuli/stars_7.png","56.5","[""CC"",""SUR"",""HE"",""FO""]","[""BM04"",""WF04"",""WM11"",""BM16""]","[7,4,5,10]","[6,2,4,8]","","",""
"show-reward","50","159367","0.0-50.0","p531096","A2ISLV6X3Q81MS","3WPCIUYH1BELQU8EB2L3QVOOKYBTD4","3WETL7AQWVEOAKTL7J2UZQRNWVB35T","model","mismatch","uniform","","","","","","","","160347","162349","","","","","","","","","","","","7","","stimuli/stars_7.png","56.5","","","","","stimuli/BM04_CC.jpg","",""
"explore-choice","51","161731","0.0-51.0","p531096","A2ISLV6X3Q81MS","3WPCIUYH1BELQU8EB2L3QVOOKYBTD4","3WETL7AQWVEOAKTL7J2UZQRNWVB35T","model","mismatch","uniform","","","","","","","1861","162352","164213","[""stimuli/BM04_HE.jpg"",""stimuli/WF04_FO.jpg"",""stimuli/WM11_SUR.jpg"",""stimuli/BM16_CC.jpg""]","stimuli/BM04_HE.jpg","stimuli/WF04_FO.jpg","stimuli/WM11_SUR.jpg","stimuli/BM16_CC.jpg","pos3","stimuli/WM11_SUR.jpg","SUR","WM11","2","1.5","3","4","stimuli/stars_3.png","58","[""HE"",""FO"",""SUR"",""CC""]","[""BM04"",""WF04"",""WM11"",""BM16""]","[5,3,3,8]","[6,2,4,8]","","",""
"show-reward","52","163735","0.0-52.0","p531096","A2ISLV6X3Q81MS","3WPCIUYH1BELQU8EB2L3QVOOKYBTD4","3WETL7AQWVEOAKTL7J2UZQRNWVB35T","model","mismatch","uniform","","","","","","","","164715","166718","","","","","","","","","","","","3","","stimuli/stars_3.png","58","","","","","stimuli/WM11_SUR.jpg","",""
"explore-choice","53","165910","0.0-53.0","p531096","A2ISLV6X3Q81MS","3WPCIUYH1BELQU8EB2L3QVOOKYBTD4","3WETL7AQWVEOAKTL7J2UZQRNWVB35T","model","mismatch","uniform","","","","","","","1671","166720","168391","[""stimuli/BM16_HE.jpg"",""stimuli/WF04_CC.jpg"",""stimuli/BM04_SUR.jpg"",""stimuli/WM11_FO.jpg""]","stimuli/BM16_HE.jpg","stimuli/WF04_CC.jpg","stimuli/BM04_SUR.jpg","stimuli/WM11_FO.jpg","pos4","stimuli/WM11_FO.jpg","FO","WM11","3","1","2","4","stimuli/stars_2.png","59","[""HE"",""CC"",""SUR"",""FO""]","[""BM16"",""WF04"",""BM04"",""WM11""]","[9,4,4,2]","[8,2,6,4]","","",""
"show-reward","54","167916","0.0-54.0","p531096","A2ISLV6X3Q81MS","3WPCIUYH1BELQU8EB2L3QVOOKYBTD4","3WETL7AQWVEOAKTL7J2UZQRNWVB35T","model","mismatch","uniform","","","","","","","","168894","170895","","","","","","","","","","","","2","","stimuli/stars_2.png","59","","","","","stimuli/WM11_FO.jpg","",""
"explore-choice","55","169961","0.0-55.0","p531096","A2ISLV6X3Q81MS","3WPCIUYH1BELQU8EB2L3QVOOKYBTD4","3WETL7AQWVEOAKTL7J2UZQRNWVB35T","model","mismatch","uniform","","","","","","","1535","170900","172435","[""stimuli/WF04_CC.jpg"",""stimuli/BM04_HE.jpg"",""stimuli/BM16_SUR.jpg"",""stimuli/WM11_FO.jpg""]","stimuli/WF04_CC.jpg","stimuli/BM04_HE.jpg","stimuli/BM16_SUR.jpg","stimuli/WM11_FO.jpg","pos2","stimuli/BM04_HE.jpg","HE","BM04","1","2","4","6","stimuli/stars_4.png","61","[""CC"",""HE"",""SUR"",""FO""]","[""WF04"",""BM04"",""BM16"",""WM11""]","[4,4,9,5]","[2,6,8,4]","","",""
"show-reward","56","171964","0.0-56.0","p531096","A2ISLV6X3Q81MS","3WPCIUYH1BELQU8EB2L3QVOOKYBTD4","3WETL7AQWVEOAKTL7J2UZQRNWVB35T","model","mismatch","uniform","","","","","","","","172945","174946","","","","","","","","","","","","4","","stimuli/stars_4.png","61","","","","","stimuli/BM04_HE.jpg","",""
"explore-choice","57","173756","0.0-57.0","p531096","A2ISLV6X3Q81MS","3WPCIUYH1BELQU8EB2L3QVOOKYBTD4","3WETL7AQWVEOAKTL7J2UZQRNWVB35T","model","mismatch","uniform","","","","","","","1289","174949","176238","[""stimuli/BM16_CC.jpg"",""stimuli/WM11_FO.jpg"",""stimuli/WF04_HE.jpg"",""stimuli/BM04_SUR.jpg""]","stimuli/BM16_CC.jpg","stimuli/WM11_FO.jpg","stimuli/WF04_HE.jpg","stimuli/BM04_SUR.jpg","pos3","stimuli/WF04_HE.jpg","HE","WF04","2","2","4","2","stimuli/stars_4.png","63","[""CC"",""FO"",""HE"",""SUR""]","[""BM16"",""WM11"",""WF04"",""BM04""]","[9,3,4,4]","[8,4,2,6]","","",""
"show-reward","58","175784","0.0-58.0","p531096","A2ISLV6X3Q81MS","3WPCIUYH1BELQU8EB2L3QVOOKYBTD4","3WETL7AQWVEOAKTL7J2UZQRNWVB35T","model","mismatch","uniform","","","","","","","","176742","178766","","","","","","","","","","","","4","","stimuli/stars_4.png","63","","","","","stimuli/WF04_HE.jpg","",""
"explore-choice","59","178291","0.0-59.0","p531096","A2ISLV6X3Q81MS","3WPCIUYH1BELQU8EB2L3QVOOKYBTD4","3WETL7AQWVEOAKTL7J2UZQRNWVB35T","model","mismatch","uniform","","","","","","","2000","178769","180769","[""stimuli/WM11_CC.jpg"",""stimuli/WF04_FO.jpg"",""stimuli/BM04_SUR.jpg"",""stimuli/BM16_HE.jpg""]","stimuli/WM11_CC.jpg","stimuli/WF04_FO.jpg","stimuli/BM04_SUR.jpg","stimuli/BM16_HE.jpg","pos4","stimuli/BM16_HE.jpg","HE","BM16","3","3","6","8","stimuli/stars_6.png","66","[""CC"",""FO"",""SUR"",""HE""]","[""WM11"",""WF04"",""BM04"",""BM16""]","[3,2,6,6]","[4,2,6,8]","","",""
"show-reward","60","180302","0.0-60.0","p531096","A2ISLV6X3Q81MS","3WPCIUYH1BELQU8EB2L3QVOOKYBTD4","3WETL7AQWVEOAKTL7J2UZQRNWVB35T","model","mismatch","uniform","","","","","","","","181279","183285","","","","","","","","","","","","6","","stimuli/stars_6.png","66","","","","","stimuli/BM16_HE.jpg","",""
"explore-choice","61","182629","0.0-61.0","p531096","A2ISLV6X3Q81MS","3WPCIUYH1BELQU8EB2L3QVOOKYBTD4","3WETL7AQWVEOAKTL7J2UZQRNWVB35T","model","mismatch","uniform","","","","","","","1823","183288","185111","[""stimuli/WM11_HE.jpg"",""stimuli/WF04_SUR.jpg"",""stimuli/BM04_FO.jpg"",""stimuli/BM16_CC.jpg""]","stimuli/WM11_HE.jpg","stimuli/WF04_SUR.jpg","stimuli/BM04_FO.jpg","stimuli/BM16_CC.jpg","pos1","stimuli/WM11_HE.jpg","HE","WM11","0","3","6","4","stimuli/stars_6.png","69","[""HE"",""SUR"",""FO"",""CC""]","[""WM11"",""WF04"",""BM04"",""BM16""]","[6,4,8,9]","[4,2,6,8]","","",""
"show-reward","62","184639","0.0-62.0","p531096","A2ISLV6X3Q81MS","3WPCIUYH1BELQU8EB2L3QVOOKYBTD4","3WETL7AQWVEOAKTL7J2UZQRNWVB35T","model","mismatch","uniform","","","","","","","","185615","187622","","","","","","","","","","","","6","","stimuli/stars_6.png","69","","","","","stimuli/WM11_HE.jpg","",""
"explore-choice","63","187287","0.0-63.0","p531096","A2ISLV6X3Q81MS","3WPCIUYH1BELQU8EB2L3QVOOKYBTD4","3WETL7AQWVEOAKTL7J2UZQRNWVB35T","model","mismatch","uniform","","","","","","","2145","187623","189768","[""stimuli/WF04_CC.jpg"",""stimuli/BM04_HE.jpg"",""stimuli/WM11_SUR.jpg"",""stimuli/BM16_FO.jpg""]","stimuli/WF04_CC.jpg","stimuli/BM04_HE.jpg","stimuli/WM11_SUR.jpg","stimuli/BM16_FO.jpg","pos4","stimuli/BM16_FO.jpg","FO","BM16","3","3.5","7","8","stimuli/stars_7.png","72.5","[""CC"",""HE"",""SUR"",""FO""]","[""WF04"",""BM04"",""WM11"",""BM16""]","[4,8,2,7]","[2,6,4,8]","","",""
"show-reward","64","189297","0.0-64.0","p531096","A2ISLV6X3Q81MS","3WPCIUYH1BELQU8EB2L3QVOOKYBTD4","3WETL7AQWVEOAKTL7J2UZQRNWVB35T","model","mismatch","uniform","","","","","","","","190274","192279","","","","","","","","","","","","7","","stimuli/stars_7.png","72.5","","","","","stimuli/BM16_FO.jpg","",""
"explore-choice","65","191712","0.0-65.0","p531096","A2ISLV6X3Q81MS","3WPCIUYH1BELQU8EB2L3QVOOKYBTD4","3WETL7AQWVEOAKTL7J2UZQRNWVB35T","model","mismatch","uniform","","","","","","","1911","192282","194193","[""stimuli/WM11_HE.jpg"",""stimuli/WF04_FO.jpg"",""stimuli/BM16_SUR.jpg"",""stimuli/BM04_CC.jpg""]","stimuli/WM11_HE.jpg","stimuli/WF04_FO.jpg","stimuli/BM16_SUR.jpg","stimuli/BM04_CC.jpg","pos3","stimuli/BM16_SUR.jpg","SUR","BM16","2","5","10","8","stimuli/stars_10.png","77.5","[""HE"",""FO"",""SUR"",""CC""]","[""WM11"",""WF04"",""BM16"",""BM04""]","[2,2,10,6]","[4,2,8,6]","","",""
"show-reward","66","193718","0.0-66.0","p531096","A2ISLV6X3Q81MS","3WPCIUYH1BELQU8EB2L3QVOOKYBTD4","3WETL7AQWVEOAKTL7J2UZQRNWVB35T","model","mismatch","uniform","","","","","","","","194697","196701","","","","","","","","","","","","10","","stimuli/stars_10.png","77.5","","","","","stimuli/BM16_SUR.jpg","",""
"explore-choice","67","195742","0.0-67.0","p531096","A2ISLV6X3Q81MS","3WPCIUYH1BELQU8EB2L3QVOOKYBTD4","3WETL7AQWVEOAKTL7J2UZQRNWVB35T","model","mismatch","uniform","","","","","","","1522","196702","198224","[""stimuli/WF04_FO.jpg"",""stimuli/WM11_CC.jpg"",""stimuli/BM04_HE.jpg"",""stimuli/BM16_SUR.jpg""]","stimuli/WF04_FO.jpg","stimuli/WM11_CC.jpg","stimuli/BM04_HE.jpg","stimuli/BM16_SUR.jpg","pos4","stimuli/BM16_SUR.jpg","SUR","BM16","3","4","8","8","stimuli/stars_8.png","81.5","[""FO"",""CC"",""HE"",""SUR""]","[""WF04"",""WM11"",""BM04"",""BM16""]","[1,6,4,8]","[2,4,6,8]","","",""
"show-reward","68","197749","0.0-68.0","p531096","A2ISLV6X3Q81MS","3WPCIUYH1BELQU8EB2L3QVOOKYBTD4","3WETL7AQWVEOAKTL7J2UZQRNWVB35T","model","mismatch","uniform","","","","","","","","198727","200731","","","","","","","","","","","","8","","stimuli/stars_8.png","81.5","","","","","stimuli/BM16_SUR.jpg","",""
"explore-choice","69","199964","0.0-69.0","p531096","A2ISLV6X3Q81MS","3WPCIUYH1BELQU8EB2L3QVOOKYBTD4","3WETL7AQWVEOAKTL7J2UZQRNWVB35T","model","mismatch","uniform","","","","","","","1713","200734","202447","[""stimuli/WM11_HE.jpg"",""stimuli/WF04_FO.jpg"",""stimuli/BM04_SUR.jpg"",""stimuli/BM16_CC.jpg""]","stimuli/WM11_HE.jpg","stimuli/WF04_FO.jpg","stimuli/BM04_SUR.jpg","stimuli/BM16_CC.jpg","pos4","stimuli/BM16_CC.jpg","CC","BM16","3","5","10","8","stimuli/stars_10.png","86.5","[""HE"",""FO"",""SUR"",""CC""]","[""WM11"",""WF04"",""BM04"",""BM16""]","[6,1,7,10]","[4,2,6,8]","","",""
"show-reward","70","201972","0.0-70.0","p531096","A2ISLV6X3Q81MS","3WPCIUYH1BELQU8EB2L3QVOOKYBTD4","3WETL7AQWVEOAKTL7J2UZQRNWVB35T","model","mismatch","uniform","","","","","","","","202949","204953","","","","","","","","","","","","10","","stimuli/stars_10.png","86.5","","","","","stimuli/BM16_CC.jpg","",""
"explore-choice","71","203953","0.0-71.0","p531096","A2ISLV6X3Q81MS","3WPCIUYH1BELQU8EB2L3QVOOKYBTD4","3WETL7AQWVEOAKTL7J2UZQRNWVB35T","model","mismatch","uniform","","","","","","","1477","204956","206433","[""stimuli/BM04_SUR.jpg"",""stimuli/WM11_CC.jpg"",""stimuli/WF04_HE.jpg"",""stimuli/BM16_FO.jpg""]","stimuli/BM04_SUR.jpg","stimuli/WM11_CC.jpg","stimuli/WF04_HE.jpg","stimuli/BM16_FO.jpg","pos4","stimuli/BM16_FO.jpg","FO","BM16","3","3","6","8","stimuli/stars_6.png","89.5","[""SUR"",""CC"",""HE"",""FO""]","[""BM04"",""WM11"",""WF04"",""BM16""]","[5,2,1,6]","[6,4,2,8]","","",""
"show-reward","72","205963","0.0-72.0","p531096","A2ISLV6X3Q81MS","3WPCIUYH1BELQU8EB2L3QVOOKYBTD4","3WETL7AQWVEOAKTL7J2UZQRNWVB35T","model","mismatch","uniform","","","","","","","","206937","208945","","","","","","","","","","","","6","","stimuli/stars_6.png","89.5","","","","","stimuli/BM16_FO.jpg","",""
"explore-choice","73","208185","0.0-73.0","p531096","A2ISLV6X3Q81MS","3WPCIUYH1BELQU8EB2L3QVOOKYBTD4","3WETL7AQWVEOAKTL7J2UZQRNWVB35T","model","mismatch","uniform","","","","","","","1667","208948","210615","[""stimuli/BM04_FO.jpg"",""stimuli/WM11_CC.jpg"",""stimuli/WF04_HE.jpg"",""stimuli/BM16_SUR.jpg""]","stimuli/BM04_FO.jpg","stimuli/WM11_CC.jpg","stimuli/WF04_HE.jpg","stimuli/BM16_SUR.jpg","pos4","stimuli/BM16_SUR.jpg","SUR","BM16","3","5","10","8","stimuli/stars_10.png","94.5","[""FO"",""CC"",""HE"",""SUR""]","[""BM04"",""WM11"",""WF04"",""BM16""]","[5,4,2,10]","[6,4,2,8]","","",""
"show-reward","74","210195","0.0-74.0","p531096","A2ISLV6X3Q81MS","3WPCIUYH1BELQU8EB2L3QVOOKYBTD4","3WETL7AQWVEOAKTL7J2UZQRNWVB35T","model","mismatch","uniform","","","","","","","","211173","213177","","","","","","","","","","","","10","","stimuli/stars_10.png","94.5","","","","","stimuli/BM16_SUR.jpg","",""
"explore-choice","75","212333","0.0-75.0","p531096","A2ISLV6X3Q81MS","3WPCIUYH1BELQU8EB2L3QVOOKYBTD4","3WETL7AQWVEOAKTL7J2UZQRNWVB35T","model","mismatch","uniform","","","","","","","1634","213182","214816","[""stimuli/BM04_SUR.jpg"",""stimuli/WM11_FO.jpg"",""stimuli/WF04_CC.jpg"",""stimuli/BM16_HE.jpg""]","stimuli/BM04_SUR.jpg","stimuli/WM11_FO.jpg","stimuli/WF04_CC.jpg","stimuli/BM16_HE.jpg","pos4","stimuli/BM16_HE.jpg","HE","BM16","3","4.5","9","8","stimuli/stars_9.png","99","[""SUR"",""FO"",""CC"",""HE""]","[""BM04"",""WM11"",""WF04"",""BM16""]","[4,2,4,9]","[6,4,2,8]","","",""
"show-reward","76","214340","0.0-76.0","p531096","A2ISLV6X3Q81MS","3WPCIUYH1BELQU8EB2L3QVOOKYBTD4","3WETL7AQWVEOAKTL7J2UZQRNWVB35T","model","mismatch","uniform","","","","","","","","215319","217323","","","","","","","","","","","","9","","stimuli/stars_9.png","99","","","","","stimuli/BM16_HE.jpg","",""
"explore-choice","77","216676","0.0-77.0","p531096","A2ISLV6X3Q81MS","3WPCIUYH1BELQU8EB2L3QVOOKYBTD4","3WETL7AQWVEOAKTL7J2UZQRNWVB35T","model","mismatch","uniform","","","","","","","1834","217325","219159","[""stimuli/WM11_FO.jpg"",""stimuli/BM16_CC.jpg"",""stimuli/WF04_SUR.jpg"",""stimuli/BM04_HE.jpg""]","stimuli/WM11_FO.jpg","stimuli/BM16_CC.jpg","stimuli/WF04_SUR.jpg","stimuli/BM04_HE.jpg","pos4","stimuli/BM04_HE.jpg","HE","BM04","3","2.5","5","6","stimuli/stars_5.png","101.5","[""FO"",""CC"",""SUR"",""HE""]","[""WM11"",""BM16"",""WF04"",""BM04""]","[3,6,3,5]","[4,8,2,6]","","",""
"show-reward","78","218683","0.0-78.0","p531096","A2ISLV6X3Q81MS","3WPCIUYH1BELQU8EB2L3QVOOKYBTD4","3WETL7AQWVEOAKTL7J2UZQRNWVB35T","model","mismatch","uniform","","","","","","","","219662","221666","","","","","","","","","","","","5","","stimuli/stars_5.png","101.5","","","","","stimuli/BM04_HE.jpg","",""
"explore-choice","79","221125","0.0-79.0","p531096","A2ISLV6X3Q81MS","3WPCIUYH1BELQU8EB2L3QVOOKYBTD4","3WETL7AQWVEOAKTL7J2UZQRNWVB35T","model","mismatch","uniform","","","","","","","1937","221670","223607","[""stimuli/BM04_CC.jpg"",""stimuli/WM11_FO.jpg"",""stimuli/WF04_SUR.jpg"",""stimuli/BM16_HE.jpg""]","stimuli/BM04_CC.jpg","stimuli/WM11_FO.jpg","stimuli/WF04_SUR.jpg","stimuli/BM16_HE.jpg","pos4","stimuli/BM16_HE.jpg","HE","BM16","3","3","6","8","stimuli/stars_6.png","104.5","[""CC"",""FO"",""SUR"",""HE""]","[""BM04"",""WM11"",""WF04"",""BM16""]","[5,6,1,6]","[6,4,2,8]","","",""
"show-reward","80","223135","0.0-80.0","p531096","A2ISLV6X3Q81MS","3WPCIUYH1BELQU8EB2L3QVOOKYBTD4","3WETL7AQWVEOAKTL7J2UZQRNWVB35T","model","mismatch","uniform","","","","","","","","224113","226118","","","","","","","","","","","","6","","stimuli/stars_6.png","104.5","","","","","stimuli/BM16_HE.jpg","",""
"explore-choice","81","226074","0.0-81.0","p531096","A2ISLV6X3Q81MS","3WPCIUYH1BELQU8EB2L3QVOOKYBTD4","3WETL7AQWVEOAKTL7J2UZQRNWVB35T","model","mismatch","uniform","","","","","","","2434","226122","228556","[""stimuli/WM11_SUR.jpg"",""stimuli/BM16_CC.jpg"",""stimuli/BM04_HE.jpg"",""stimuli/WF04_FO.jpg""]","stimuli/WM11_SUR.jpg","stimuli/BM16_CC.jpg","stimuli/BM04_HE.jpg","stimuli/WF04_FO.jpg","pos2","stimuli/BM16_CC.jpg","CC","BM16","1","4","8","8","stimuli/stars_8.png","108.5","[""SUR"",""CC"",""HE"",""FO""]","[""WM11"",""BM16"",""BM04"",""WF04""]","[3,8,5,3]","[4,8,6,2]","","",""
"show-reward","82","228195","0.0-82.0","p531096","A2ISLV6X3Q81MS","3WPCIUYH1BELQU8EB2L3QVOOKYBTD4","3WETL7AQWVEOAKTL7J2UZQRNWVB35T","model","mismatch","uniform","","","","","","","","229058","231179","","","","","","","","","","","","8","","stimuli/stars_8.png","108.5","","","","","stimuli/BM16_CC.jpg","",""
"explore-choice","83","231047","0.0-83.0","p531096","A2ISLV6X3Q81MS","3WPCIUYH1BELQU8EB2L3QVOOKYBTD4","3WETL7AQWVEOAKTL7J2UZQRNWVB35T","model","mismatch","uniform","","","","","","","2348","231182","233530","[""stimuli/WM11_SUR.jpg"",""stimuli/WF04_HE.jpg"",""stimuli/BM04_FO.jpg"",""stimuli/BM16_CC.jpg""]","stimuli/WM11_SUR.jpg","stimuli/WF04_HE.jpg","stimuli/BM04_FO.jpg","stimuli/BM16_CC.jpg","pos3","stimuli/BM04_FO.jpg","FO","BM04","2","3.5","7","6","stimuli/stars_7.png","112","[""SUR"",""HE"",""FO"",""CC""]","[""WM11"",""WF04"",""BM04"",""BM16""]","[5,0,7,8]","[4,2,6,8]","","",""
"show-reward","84","233056","0.0-84.0","p531096","A2ISLV6X3Q81MS","3WPCIUYH1BELQU8EB2L3QVOOKYBTD4","3WETL7AQWVEOAKTL7J2UZQRNWVB35T","model","mismatch","uniform","","","","","","","","234034","236039","","","","","","","","","","","","7","","stimuli/stars_7.png","112","","","","","stimuli/BM04_FO.jpg","",""
"explore-choice","85","235214","0.0-85.0","p531096","A2ISLV6X3Q81MS","3WPCIUYH1BELQU8EB2L3QVOOKYBTD4","3WETL7AQWVEOAKTL7J2UZQRNWVB35T","model","mismatch","uniform","","","","","","","1656","236040","237696","[""stimuli/WM11_SUR.jpg"",""stimuli/BM16_HE.jpg"",""stimuli/WF04_CC.jpg"",""stimuli/BM04_FO.jpg""]","stimuli/WM11_SUR.jpg","stimuli/BM16_HE.jpg","stimuli/WF04_CC.jpg","stimuli/BM04_FO.jpg","pos2","stimuli/BM16_HE.jpg","HE","BM16","1","4","8","8","stimuli/stars_8.png","116","[""SUR"",""HE"",""CC"",""FO""]","[""WM11"",""BM16"",""WF04"",""BM04""]","[3,8,3,6]","[4,8,2,6]","","",""
"show-reward","86","237224","0.0-86.0","p531096","A2ISLV6X3Q81MS","3WPCIUYH1BELQU8EB2L3QVOOKYBTD4","3WETL7AQWVEOAKTL7J2UZQRNWVB35T","model","mismatch","uniform","","","","","","","","238201","240207","","","","","","","","","","","","8","","stimuli/stars_8.png","116","","","","","stimuli/BM16_HE.jpg","",""
"explore-choice","87","239134","0.0-87.0","p531096","A2ISLV6X3Q81MS","3WPCIUYH1BELQU8EB2L3QVOOKYBTD4","3WETL7AQWVEOAKTL7J2UZQRNWVB35T","model","mismatch","uniform","","","","","","","1408","240209","241617","[""stimuli/BM04_CC.jpg"",""stimuli/BM16_FO.jpg"",""stimuli/WF04_HE.jpg"",""stimuli/WM11_SUR.jpg""]","stimuli/BM04_CC.jpg","stimuli/BM16_FO.jpg","stimuli/WF04_HE.jpg","stimuli/WM11_SUR.jpg","pos2","stimuli/BM16_FO.jpg","FO","BM16","1","5","10","8","stimuli/stars_10.png","121","[""CC"",""FO"",""HE"",""SUR""]","[""BM04"",""BM16"",""WF04"",""WM11""]","[8,10,3,3]","[6,8,2,4]","","",""
"show-reward","88","241143","0.0-88.0","p531096","A2ISLV6X3Q81MS","3WPCIUYH1BELQU8EB2L3QVOOKYBTD4","3WETL7AQWVEOAKTL7J2UZQRNWVB35T","model","mismatch","uniform","","","","","","","","242120","244125","","","","","","","","","","","","10","","stimuli/stars_10.png","121","","","","","stimuli/BM16_FO.jpg","",""
"explore-choice","89","243491","0.0-89.0","p531096","A2ISLV6X3Q81MS","3WPCIUYH1BELQU8EB2L3QVOOKYBTD4","3WETL7AQWVEOAKTL7J2UZQRNWVB35T","model","mismatch","uniform","","","","","","","1841","244133","245974","[""stimuli/BM16_SUR.jpg"",""stimuli/WF04_CC.jpg"",""stimuli/BM04_FO.jpg"",""stimuli/WM11_HE.jpg""]","stimuli/BM16_SUR.jpg","stimuli/WF04_CC.jpg","stimuli/BM04_FO.jpg","stimuli/WM11_HE.jpg","pos1","stimuli/BM16_SUR.jpg","SUR","BM16","0","4.5","9","8","stimuli/stars_9.png","125.5","[""SUR"",""CC"",""FO"",""HE""]","[""BM16"",""WF04"",""BM04"",""WM11""]","[9,4,6,5]","[8,2,6,4]","","",""
"show-reward","90","245505","0.0-90.0","p531096","A2ISLV6X3Q81MS","3WPCIUYH1BELQU8EB2L3QVOOKYBTD4","3WETL7AQWVEOAKTL7J2UZQRNWVB35T","model","mismatch","uniform","","","","","","","","246478","248487","","","","","","","","","","","","9","","stimuli/stars_9.png","125.5","","","","","stimuli/BM16_SUR.jpg","",""
"explore-choice","91","248102","0.0-91.0","p531096","A2ISLV6X3Q81MS","3WPCIUYH1BELQU8EB2L3QVOOKYBTD4","3WETL7AQWVEOAKTL7J2UZQRNWVB35T","model","mismatch","uniform","","","","","","","2093","248491","250584","[""stimuli/WM11_FO.jpg"",""stimuli/WF04_HE.jpg"",""stimuli/BM04_CC.jpg"",""stimuli/BM16_SUR.jpg""]","stimuli/WM11_FO.jpg","stimuli/WF04_HE.jpg","stimuli/BM04_CC.jpg","stimuli/BM16_SUR.jpg","pos4","stimuli/BM16_SUR.jpg","SUR","BM16","3","4.5","9","8","stimuli/stars_9.png","130","[""FO"",""HE"",""CC"",""SUR""]","[""WM11"",""WF04"",""BM04"",""BM16""]","[6,3,4,9]","[4,2,6,8]","","",""
"show-reward","92","250108","0.0-92.0","p531096","A2ISLV6X3Q81MS","3WPCIUYH1BELQU8EB2L3QVOOKYBTD4","3WETL7AQWVEOAKTL7J2UZQRNWVB35T","model","mismatch","uniform","","","","","","","","251087","253091","","","","","","","","","","","","9","","stimuli/stars_9.png","130","","","","","stimuli/BM16_SUR.jpg","",""
"explore-choice","93","252643","0.0-93.0","p531096","A2ISLV6X3Q81MS","3WPCIUYH1BELQU8EB2L3QVOOKYBTD4","3WETL7AQWVEOAKTL7J2UZQRNWVB35T","model","mismatch","uniform","","","","","","","2032","253093","255125","[""stimuli/BM16_FO.jpg"",""stimuli/WF04_SUR.jpg"",""stimuli/WM11_HE.jpg"",""stimuli/BM04_CC.jpg""]","stimuli/BM16_FO.jpg","stimuli/WF04_SUR.jpg","stimuli/WM11_HE.jpg","stimuli/BM04_CC.jpg","pos1","stimuli/BM16_FO.jpg","FO","BM16","0","5","10","8","stimuli/stars_10.png","135","[""FO"",""SUR"",""HE"",""CC""]","[""BM16"",""WF04"",""WM11"",""BM04""]","[10,4,5,7]","[8,2,4,6]","","",""
"show-reward","94","254650","0.0-94.0","p531096","A2ISLV6X3Q81MS","3WPCIUYH1BELQU8EB2L3QVOOKYBTD4","3WETL7AQWVEOAKTL7J2UZQRNWVB35T","model","mismatch","uniform","","","","","","","","255630","257633","","","","","","","","","","","","10","","stimuli/stars_10.png","135","","","","","stimuli/BM16_FO.jpg","",""
"explore-choice","95","257080","0.0-95.0","p531096","A2ISLV6X3Q81MS","3WPCIUYH1BELQU8EB2L3QVOOKYBTD4","3WETL7AQWVEOAKTL7J2UZQRNWVB35T","model","mismatch","uniform","","","","","","","1927","257636","259563","[""stimuli/BM16_HE.jpg"",""stimuli/WF04_FO.jpg"",""stimuli/BM04_CC.jpg"",""stimuli/WM11_SUR.jpg""]","stimuli/BM16_HE.jpg","stimuli/WF04_FO.jpg","stimuli/BM04_CC.jpg","stimuli/WM11_SUR.jpg","pos1","stimuli/BM16_HE.jpg","HE","BM16","0","3.5","7","8","stimuli/stars_7.png","138.5","[""HE"",""FO"",""CC"",""SUR""]","[""BM16"",""WF04"",""BM04"",""WM11""]","[7,0,6,4]","[8,2,6,4]","","",""
"show-reward","96","259085","0.0-96.0","p531096","A2ISLV6X3Q81MS","3WPCIUYH1BELQU8EB2L3QVOOKYBTD4","3WETL7AQWVEOAKTL7J2UZQRNWVB35T","model","mismatch","uniform","","","","","","","","260066","262069","","","","","","","","","","","","7","","stimuli/stars_7.png","138.5","","","","","stimuli/BM16_HE.jpg","",""
"explore-choice","97","260621","0.0-97.0","p531096","A2ISLV6X3Q81MS","3WPCIUYH1BELQU8EB2L3QVOOKYBTD4","3WETL7AQWVEOAKTL7J2UZQRNWVB35T","model","mismatch","uniform","","","","","","","1035","262070","263105","[""stimuli/BM16_FO.jpg"",""stimuli/WF04_CC.jpg"",""stimuli/BM04_SUR.jpg"",""stimuli/WM11_HE.jpg""]","stimuli/BM16_FO.jpg","stimuli/WF04_CC.jpg","stimuli/BM04_SUR.jpg","stimuli/WM11_HE.jpg","pos1","stimuli/BM16_FO.jpg","FO","BM16","0","5","10","8","stimuli/stars_10.png","143.5","[""FO"",""CC"",""SUR"",""HE""]","[""BM16"",""WF04"",""BM04"",""WM11""]","[10,4,6,6]","[8,2,6,4]","","",""
"show-reward","98","262627","0.0-98.0","p531096","A2ISLV6X3Q81MS","3WPCIUYH1BELQU8EB2L3QVOOKYBTD4","3WETL7AQWVEOAKTL7J2UZQRNWVB35T","model","mismatch","uniform","","","","","","","","263607","265610","","","","","","","","","","","","10","","stimuli/stars_10.png","143.5","","","","","stimuli/BM16_FO.jpg","",""
"explore-choice","99","264155","0.0-99.0","p531096","A2ISLV6X3Q81MS","3WPCIUYH1BELQU8EB2L3QVOOKYBTD4","3WETL7AQWVEOAKTL7J2UZQRNWVB35T","model","mismatch","uniform","","","","","","","1022","265612","266634","[""stimuli/BM16_HE.jpg"",""stimuli/BM04_FO.jpg"",""stimuli/WM11_CC.jpg"",""stimuli/WF04_SUR.jpg""]","stimuli/BM16_HE.jpg","stimuli/BM04_FO.jpg","stimuli/WM11_CC.jpg","stimuli/WF04_SUR.jpg","pos1","stimuli/BM16_HE.jpg","HE","BM16","0","5","10","8","stimuli/stars_10.png","148.5","[""HE"",""FO"",""CC"",""SUR""]","[""BM16"",""BM04"",""WM11"",""WF04""]","[10,5,4,1]","[8,6,4,2]","","",""
"show-reward","100","266194","0.0-100.0","p531096","A2ISLV6X3Q81MS","3WPCIUYH1BELQU8EB2L3QVOOKYBTD4","3WETL7AQWVEOAKTL7J2UZQRNWVB35T","model","mismatch","uniform","","","","","","","","267142","269176","","","","","","","","","","","","10","","stimuli/stars_10.png","148.5","","","","","stimuli/BM16_HE.jpg","",""
"explore-choice","101","269147","0.0-101.0","p531096","A2ISLV6X3Q81MS","3WPCIUYH1BELQU8EB2L3QVOOKYBTD4","3WETL7AQWVEOAKTL7J2UZQRNWVB35T","model","mismatch","uniform","","","","","","","2450","269179","271629","[""stimuli/BM04_HE.jpg"",""stimuli/BM16_FO.jpg"",""stimuli/WF04_SUR.jpg"",""stimuli/WM11_CC.jpg""]","stimuli/BM04_HE.jpg","stimuli/BM16_FO.jpg","stimuli/WF04_SUR.jpg","stimuli/WM11_CC.jpg","pos2","stimuli/BM16_FO.jpg","FO","BM16","1","3","6","8","stimuli/stars_6.png","151.5","[""HE"",""FO"",""SUR"",""CC""]","[""BM04"",""BM16"",""WF04"",""WM11""]","[5,6,0,3]","[6,8,2,4]","","",""
"show-reward","102","271153","0.0-102.0","p531096","A2ISLV6X3Q81MS","3WPCIUYH1BELQU8EB2L3QVOOKYBTD4","3WETL7AQWVEOAKTL7J2UZQRNWVB35T","model","mismatch","uniform","","","","","","","","272133","274136","","","","","","","","","","","","6","","stimuli/stars_6.png","151.5","","","","","stimuli/BM16_FO.jpg","",""
"explore-choice","103","277381","0.0-103.0","p531096","A2ISLV6X3Q81MS","3WPCIUYH1BELQU8EB2L3QVOOKYBTD4","3WETL7AQWVEOAKTL7J2UZQRNWVB35T","model","mismatch","uniform","","","","","","","5724","274138","279862","[""stimuli/HF04_HO.jpg"",""stimuli/WM07_DO.jpg"",""stimuli/AF11_SC.jpg"",""stimuli/AF10_AO.jpg""]","stimuli/HF04_HO.jpg","stimuli/WM07_DO.jpg","stimuli/AF11_SC.jpg","stimuli/AF10_AO.jpg","pos1","stimuli/HF04_HO.jpg","HO","HF04","0","3","6","8","stimuli/stars_6.png","154.5","[""HO"",""DO"",""SC"",""AO""]","[""HF04"",""WM07"",""AF11"",""AF10""]","[6,2,4,4]","[8,4,6,2]","","",""
"show-reward","104","279390","0.0-104.0","p531096","A2ISLV6X3Q81MS","3WPCIUYH1BELQU8EB2L3QVOOKYBTD4","3WETL7AQWVEOAKTL7J2UZQRNWVB35T","model","mismatch","uniform","","","","","","","","280368","282373","","","","","","","","","","","","6","","stimuli/stars_6.png","154.5","","","","","stimuli/HF04_HO.jpg","",""
"explore-choice","105","283854","0.0-105.0","p531096","A2ISLV6X3Q81MS","3WPCIUYH1BELQU8EB2L3QVOOKYBTD4","3WETL7AQWVEOAKTL7J2UZQRNWVB35T","model","mismatch","uniform","","","","","","","3962","282375","286337","[""stimuli/WM07_HO.jpg"",""stimuli/HF04_DO.jpg"",""stimuli/AF11_SC.jpg"",""stimuli/AF10_AO.jpg""]","stimuli/WM07_HO.jpg","stimuli/HF04_DO.jpg","stimuli/AF11_SC.jpg","stimuli/AF10_AO.jpg","pos1","stimuli/WM07_HO.jpg","HO","WM07","0","3.5","7","8","stimuli/stars_7.png","158","[""HO"",""DO"",""SC"",""AO""]","[""WM07"",""HF04"",""AF11"",""AF10""]","[7,4,5,4]","[8,4,6,2]","","",""
"show-reward","106","285860","0.0-106.0","p531096","A2ISLV6X3Q81MS","3WPCIUYH1BELQU8EB2L3QVOOKYBTD4","3WETL7AQWVEOAKTL7J2UZQRNWVB35T","model","mismatch","uniform","","","","","","","","286840","288843","","","","","","","","","","","","7","","stimuli/stars_7.png","158","","","","","stimuli/WM07_HO.jpg","",""
"explore-choice","107","290104","0.0-107.0","p531096","A2ISLV6X3Q81MS","3WPCIUYH1BELQU8EB2L3QVOOKYBTD4","3WETL7AQWVEOAKTL7J2UZQRNWVB35T","model","mismatch","uniform","","","","","","","3740","288846","292586","[""stimuli/HF04_DO.jpg"",""stimuli/WM07_AO.jpg"",""stimuli/AF11_HO.jpg"",""stimuli/AF10_SC.jpg""]","stimuli/HF04_DO.jpg","stimuli/WM07_AO.jpg","stimuli/AF11_HO.jpg","stimuli/AF10_SC.jpg","pos3","stimuli/AF11_HO.jpg","HO","AF11","2","3.5","7","8","stimuli/stars_7.png","161.5","[""DO"",""AO"",""HO"",""SC""]","[""HF04"",""WM07"",""AF11"",""AF10""]","[4,2,7,7]","[4,2,8,6]","","",""
"show-reward","108","292114","0.0-108.0","p531096","A2ISLV6X3Q81MS","3WPCIUYH1BELQU8EB2L3QVOOKYBTD4","3WETL7AQWVEOAKTL7J2UZQRNWVB35T","model","mismatch","uniform","","","","","","","","293090","295097","","","","","","","","","","","","7","","stimuli/stars_7.png","161.5","","","","","stimuli/AF11_HO.jpg","",""
"explore-choice","109","294729","0.0-109.0","p531096","A2ISLV6X3Q81MS","3WPCIUYH1BELQU8EB2L3QVOOKYBTD4","3WETL7AQWVEOAKTL7J2UZQRNWVB35T","model","mismatch","uniform","","","","","","","2112","295099","297211","[""stimuli/HF04_AO.jpg"",""stimuli/WM07_SC.jpg"",""stimuli/AF10_DO.jpg"",""stimuli/AF11_HO.jpg""]","stimuli/HF04_AO.jpg","stimuli/WM07_SC.jpg","stimuli/AF10_DO.jpg","stimuli/AF11_HO.jpg","pos4","stimuli/AF11_HO.jpg","HO","AF11","3","3","6","8","stimuli/stars_6.png","164.5","[""AO"",""SC"",""DO"",""HO""]","[""HF04"",""WM07"",""AF10"",""AF11""]","[0,5,2,6]","[2,6,4,8]","","",""
"show-reward","110","296737","0.0-110.0","p531096","A2ISLV6X3Q81MS","3WPCIUYH1BELQU8EB2L3QVOOKYBTD4","3WETL7AQWVEOAKTL7J2UZQRNWVB35T","model","mismatch","uniform","","","","","","","","297715","299720","","","","","","","","","","","","6","","stimuli/stars_6.png","164.5","","","","","stimuli/AF11_HO.jpg","",""
"explore-choice","111","300028","0.0-111.0","p531096","A2ISLV6X3Q81MS","3WPCIUYH1BELQU8EB2L3QVOOKYBTD4","3WETL7AQWVEOAKTL7J2UZQRNWVB35T","model","mismatch","uniform","","","","","","","2783","299728","302511","[""stimuli/WM07_AO.jpg"",""stimuli/AF10_HO.jpg"",""stimuli/HF04_SC.jpg"",""stimuli/AF11_DO.jpg""]","stimuli/WM07_AO.jpg","stimuli/AF10_HO.jpg","stimuli/HF04_SC.jpg","stimuli/AF11_DO.jpg","pos1","stimuli/WM07_AO.jpg","AO","WM07","0","1","2","2","stimuli/stars_2.png","165.5","[""AO"",""HO"",""SC"",""DO""]","[""WM07"",""AF10"",""HF04"",""AF11""]","[2,9,8,3]","[2,8,6,4]","","",""
"show-reward","112","302031","0.0-112.0","p531096","A2ISLV6X3Q81MS","3WPCIUYH1BELQU8EB2L3QVOOKYBTD4","3WETL7AQWVEOAKTL7J2UZQRNWVB35T","model","mismatch","uniform","","","","","","","","303013","305015","","","","","","","","","","","","2","","stimuli/stars_2.png","165.5","","","","","stimuli/WM07_AO.jpg","",""
"explore-choice","113","304500","0.0-113.0","p531096","A2ISLV6X3Q81MS","3WPCIUYH1BELQU8EB2L3QVOOKYBTD4","3WETL7AQWVEOAKTL7J2UZQRNWVB35T","model","mismatch","uniform","","","","","","","1959","305024","306983","[""stimuli/WM07_HO.jpg"",""stimuli/HF04_SC.jpg"",""stimuli/AF11_DO.jpg"",""stimuli/AF10_AO.jpg""]","stimuli/WM07_HO.jpg","stimuli/HF04_SC.jpg","stimuli/AF11_DO.jpg","stimuli/AF10_AO.jpg","pos1","stimuli/WM07_HO.jpg","HO","WM07","0","4","8","8","stimuli/stars_8.png","169.5","[""HO"",""SC"",""DO"",""AO""]","[""WM07"",""HF04"",""AF11"",""AF10""]","[8,8,6,3]","[8,6,4,2]","","",""
"show-reward","114","306505","0.0-114.0","p531096","A2ISLV6X3Q81MS","3WPCIUYH1BELQU8EB2L3QVOOKYBTD4","3WETL7AQWVEOAKTL7J2UZQRNWVB35T","model","mismatch","uniform","","","","","","","","307486","309488","","","","","","","","","","","","8","","stimuli/stars_8.png","169.5","","","","","stimuli/WM07_HO.jpg","",""
"explore-choice","115","309142","0.0-115.0","p531096","A2ISLV6X3Q81MS","3WPCIUYH1BELQU8EB2L3QVOOKYBTD4","3WETL7AQWVEOAKTL7J2UZQRNWVB35T","model","mismatch","uniform","","","","","","","2108","309491","311599","[""stimuli/WM07_DO.jpg"",""stimuli/AF11_HO.jpg"",""stimuli/AF10_AO.jpg"",""stimuli/HF04_SC.jpg""]","stimuli/WM07_DO.jpg","stimuli/AF11_HO.jpg","stimuli/AF10_AO.jpg","stimuli/HF04_SC.jpg","pos2","stimuli/AF11_HO.jpg","HO","AF11","1","4","8","8","stimuli/stars_8.png","173.5","[""DO"",""HO"",""AO"",""SC""]","[""WM07"",""AF11"",""AF10"",""HF04""]","[4,8,2,5]","[4,8,2,6]","","",""
"show-reward","116","311161","0.0-116.0","p531096","A2ISLV6X3Q81MS","3WPCIUYH1BELQU8EB2L3QVOOKYBTD4","3WETL7AQWVEOAKTL7J2UZQRNWVB35T","model","mismatch","uniform","","","","","","","","312128","314145","","","","","","","","","","","","8","","stimuli/stars_8.png","173.5","","","","","stimuli/AF11_HO.jpg","",""
"explore-choice","117","313963","0.0-117.0","p531096","A2ISLV6X3Q81MS","3WPCIUYH1BELQU8EB2L3QVOOKYBTD4","3WETL7AQWVEOAKTL7J2UZQRNWVB35T","model","mismatch","uniform","","","","","","","2285","314162","316447","[""stimuli/HF04_AO.jpg"",""stimuli/AF11_DO.jpg"",""stimuli/AF10_HO.jpg"",""stimuli/WM07_SC.jpg""]","stimuli/HF04_AO.jpg","stimuli/AF11_DO.jpg","stimuli/AF10_HO.jpg","stimuli/WM07_SC.jpg","pos3","stimuli/AF10_HO.jpg","HO","AF10","2","4.5","9","8","stimuli/stars_9.png","178","[""AO"",""DO"",""HO"",""SC""]","[""HF04"",""AF11"",""AF10"",""WM07""]","[3,2,9,8]","[2,4,8,6]","","",""
"show-reward","118","315970","0.0-118.0","p531096","A2ISLV6X3Q81MS","3WPCIUYH1BELQU8EB2L3QVOOKYBTD4","3WETL7AQWVEOAKTL7J2UZQRNWVB35T","model","mismatch","uniform","","","","","","","","316949","318952","","","","","","","","","","","","9","","stimuli/stars_9.png","178","","","","","stimuli/AF10_HO.jpg","",""
"explore-choice","119","318713","0.0-119.0","p531096","A2ISLV6X3Q81MS","3WPCIUYH1BELQU8EB2L3QVOOKYBTD4","3WETL7AQWVEOAKTL7J2UZQRNWVB35T","model","mismatch","uniform","","","","","","","2239","318957","321196","[""stimuli/WM07_DO.jpg"",""stimuli/AF10_SC.jpg"",""stimuli/AF11_HO.jpg"",""stimuli/HF04_AO.jpg""]","stimuli/WM07_DO.jpg","stimuli/AF10_SC.jpg","stimuli/AF11_HO.jpg","stimuli/HF04_AO.jpg","pos3","stimuli/AF11_HO.jpg","HO","AF11","2","4.5","9","8","stimuli/stars_9.png","182.5","[""DO"",""SC"",""HO"",""AO""]","[""WM07"",""AF10"",""AF11"",""HF04""]","[5,4,9,4]","[4,6,8,2]","","",""
"show-reward","120","320720","0.0-120.0","p531096","A2ISLV6X3Q81MS","3WPCIUYH1BELQU8EB2L3QVOOKYBTD4","3WETL7AQWVEOAKTL7J2UZQRNWVB35T","model","mismatch","uniform","","","","","","","","321699","323702","","","","","","","","","","","","9","","stimuli/stars_9.png","182.5","","","","","stimuli/AF11_HO.jpg","",""
"explore-choice","121","323014","0.0-121.0","p531096","A2ISLV6X3Q81MS","3WPCIUYH1BELQU8EB2L3QVOOKYBTD4","3WETL7AQWVEOAKTL7J2UZQRNWVB35T","model","mismatch","uniform","","","","","","","1789","323709","325498","[""stimuli/AF10_DO.jpg"",""stimuli/HF04_SC.jpg"",""stimuli/WM07_AO.jpg"",""stimuli/AF11_HO.jpg""]","stimuli/AF10_DO.jpg","stimuli/HF04_SC.jpg","stimuli/WM07_AO.jpg","stimuli/AF11_HO.jpg","pos4","stimuli/AF11_HO.jpg","HO","AF11","3","3.5","7","8","stimuli/stars_7.png","186","[""DO"",""SC"",""AO"",""HO""]","[""AF10"",""HF04"",""WM07"",""AF11""]","[3,5,4,7]","[4,6,2,8]","","",""
"show-reward","122","325018","0.0-122.0","p531096","A2ISLV6X3Q81MS","3WPCIUYH1BELQU8EB2L3QVOOKYBTD4","3WETL7AQWVEOAKTL7J2UZQRNWVB35T","model","mismatch","uniform","","","","","","","","326000","328002","","","","","","","","","","","","7","","stimuli/stars_7.png","186","","","","","stimuli/AF11_HO.jpg","",""
"explore-choice","123","327425","0.0-123.0","p531096","A2ISLV6X3Q81MS","3WPCIUYH1BELQU8EB2L3QVOOKYBTD4","3WETL7AQWVEOAKTL7J2UZQRNWVB35T","model","mismatch","uniform","","","","","","","1902","328002","329904","[""stimuli/AF11_DO.jpg"",""stimuli/HF04_AO.jpg"",""stimuli/WM07_HO.jpg"",""stimuli/AF10_SC.jpg""]","stimuli/AF11_DO.jpg","stimuli/HF04_AO.jpg","stimuli/WM07_HO.jpg","stimuli/AF10_SC.jpg","pos3","stimuli/WM07_HO.jpg","HO","WM07","2","3.5","7","8","stimuli/stars_7.png","189.5","[""DO"",""AO"",""HO"",""SC""]","[""AF11"",""HF04"",""WM07"",""AF10""]","[5,4,7,5]","[4,2,8,6]","","",""
"show-reward","124","329456","0.0-124.0","p531096","A2ISLV6X3Q81MS","3WPCIUYH1BELQU8EB2L3QVOOKYBTD4","3WETL7AQWVEOAKTL7J2UZQRNWVB35T","model","mismatch","uniform","","","","","","","","330424","332439","","","","","","","","","","","","7","","stimuli/stars_7.png","189.5","","","","","stimuli/WM07_HO.jpg","",""
"explore-choice","125","331873","0.0-125.0","p531096","A2ISLV6X3Q81MS","3WPCIUYH1BELQU8EB2L3QVOOKYBTD4","3WETL7AQWVEOAKTL7J2UZQRNWVB35T","model","mismatch","uniform","","","","","","","1912","332442","334354","[""stimuli/WM07_AO.jpg"",""stimuli/HF04_HO.jpg"",""stimuli/AF11_DO.jpg"",""stimuli/AF10_SC.jpg""]","stimuli/WM07_AO.jpg","stimuli/HF04_HO.jpg","stimuli/AF11_DO.jpg","stimuli/AF10_SC.jpg","pos2","stimuli/HF04_HO.jpg","HO","HF04","1","3","6","8","stimuli/stars_6.png","192.5","[""AO"",""HO"",""DO"",""SC""]","[""WM07"",""HF04"",""AF11"",""AF10""]","[3,6,2,5]","[2,8,4,6]","","",""
"show-reward","126","333877","0.0-126.0","p531096","A2ISLV6X3Q81MS","3WPCIUYH1BELQU8EB2L3QVOOKYBTD4","3WETL7AQWVEOAKTL7J2UZQRNWVB35T","model","mismatch","uniform","","","","","","","","334857","336859","","","","","","","","","","","","6","","stimuli/stars_6.png","192.5","","","","","stimuli/HF04_HO.jpg","",""
"explore-choice","127","335893","0.0-127.0","p531096","A2ISLV6X3Q81MS","3WPCIUYH1BELQU8EB2L3QVOOKYBTD4","3WETL7AQWVEOAKTL7J2UZQRNWVB35T","model","mismatch","uniform","","","","","","","1514","336862","338376","[""stimuli/WM07_AO.jpg"",""stimuli/AF10_DO.jpg"",""stimuli/HF04_HO.jpg"",""stimuli/AF11_SC.jpg""]","stimuli/WM07_AO.jpg","stimuli/AF10_DO.jpg","stimuli/HF04_HO.jpg","stimuli/AF11_SC.jpg","pos3","stimuli/HF04_HO.jpg","HO","HF04","2","4","8","8","stimuli/stars_8.png","196.5","[""AO"",""DO"",""HO"",""SC""]","[""WM07"",""AF10"",""HF04"",""AF11""]","[2,4,8,8]","[2,4,8,6]","","",""
"show-reward","128","337900","0.0-128.0","p531096","A2ISLV6X3Q81MS","3WPCIUYH1BELQU8EB2L3QVOOKYBTD4","3WETL7AQWVEOAKTL7J2UZQRNWVB35T","model","mismatch","uniform","","","","","","","","338878","340883","","","","","","","","","","","","8","","stimuli/stars_8.png","196.5","","","","","stimuli/HF04_HO.jpg","",""
"explore-choice","129","340338","0.0-129.0","p531096","A2ISLV6X3Q81MS","3WPCIUYH1BELQU8EB2L3QVOOKYBTD4","3WETL7AQWVEOAKTL7J2UZQRNWVB35T","model","mismatch","uniform","","","","","","","1934","340885","342819","[""stimuli/AF10_DO.jpg"",""stimuli/AF11_AO.jpg"",""stimuli/HF04_SC.jpg"",""stimuli/WM07_HO.jpg""]","stimuli/AF10_DO.jpg","stimuli/AF11_AO.jpg","stimuli/HF04_SC.jpg","stimuli/WM07_HO.jpg","pos4","stimuli/WM07_HO.jpg","HO","WM07","3","4","8","8","stimuli/stars_8.png","200.5","[""DO"",""AO"",""SC"",""HO""]","[""AF10"",""AF11"",""HF04"",""WM07""]","[5,1,7,8]","[4,2,6,8]","","",""
"show-reward","130","342346","0.0-130.0","p531096","A2ISLV6X3Q81MS","3WPCIUYH1BELQU8EB2L3QVOOKYBTD4","3WETL7AQWVEOAKTL7J2UZQRNWVB35T","model","mismatch","uniform","","","","","","","","343323","345327","","","","","","","","","","","","8","","stimuli/stars_8.png","200.5","","","","","stimuli/WM07_HO.jpg","",""
"explore-choice","131","345085","0.0-131.0","p531096","A2ISLV6X3Q81MS","3WPCIUYH1BELQU8EB2L3QVOOKYBTD4","3WETL7AQWVEOAKTL7J2UZQRNWVB35T","model","mismatch","uniform","","","","","","","2236","345332","347568","[""stimuli/AF11_AO.jpg"",""stimuli/WM07_DO.jpg"",""stimuli/AF10_HO.jpg"",""stimuli/HF04_SC.jpg""]","stimuli/AF11_AO.jpg","stimuli/WM07_DO.jpg","stimuli/AF10_HO.jpg","stimuli/HF04_SC.jpg","pos3","stimuli/AF10_HO.jpg","HO","AF10","2","4","8","8","stimuli/stars_8.png","204.5","[""AO"",""DO"",""HO"",""SC""]","[""AF11"",""WM07"",""AF10"",""HF04""]","[1,5,8,6]","[2,4,8,6]","","",""
"show-reward","132","347092","0.0-132.0","p531096","A2ISLV6X3Q81MS","3WPCIUYH1BELQU8EB2L3QVOOKYBTD4","3WETL7AQWVEOAKTL7J2UZQRNWVB35T","model","mismatch","uniform","","","","","","","","348070","350075","","","","","","","","","","","","8","","stimuli/stars_8.png","204.5","","","","","stimuli/AF10_HO.jpg","",""
"explore-choice","133","350905","0.0-133.0","p531096","A2ISLV6X3Q81MS","3WPCIUYH1BELQU8EB2L3QVOOKYBTD4","3WETL7AQWVEOAKTL7J2UZQRNWVB35T","model","mismatch","uniform","","","","","","","3309","350078","353387","[""stimuli/AF11_AO.jpg"",""stimuli/HF04_HO.jpg"",""stimuli/AF10_DO.jpg"",""stimuli/WM07_SC.jpg""]","stimuli/AF11_AO.jpg","stimuli/HF04_HO.jpg","stimuli/AF10_DO.jpg","stimuli/WM07_SC.jpg","pos3","stimuli/AF10_DO.jpg","DO","AF10","2","1","2","4","stimuli/stars_2.png","205.5","[""AO"",""HO"",""DO"",""SC""]","[""AF11"",""HF04"",""AF10"",""WM07""]","[3,7,2,8]","[2,8,4,6]","","",""
"show-reward","134","352914","0.0-134.0","p531096","A2ISLV6X3Q81MS","3WPCIUYH1BELQU8EB2L3QVOOKYBTD4","3WETL7AQWVEOAKTL7J2UZQRNWVB35T","model","mismatch","uniform","","","","","","","","353891","355896","","","","","","","","","","","","2","","stimuli/stars_2.png","205.5","","","","","stimuli/AF10_DO.jpg","",""
"explore-choice","135","355310","0.0-135.0","p531096","A2ISLV6X3Q81MS","3WPCIUYH1BELQU8EB2L3QVOOKYBTD4","3WETL7AQWVEOAKTL7J2UZQRNWVB35T","model","mismatch","uniform","","","","","","","1893","355899","357792","[""stimuli/AF11_SC.jpg"",""stimuli/AF10_HO.jpg"",""stimuli/HF04_AO.jpg"",""stimuli/WM07_DO.jpg""]","stimuli/AF11_SC.jpg","stimuli/AF10_HO.jpg","stimuli/HF04_AO.jpg","stimuli/WM07_DO.jpg","pos2","stimuli/AF10_HO.jpg","HO","AF10","1","3.5","7","8","stimuli/stars_7.png","209","[""SC"",""HO"",""AO"",""DO""]","[""AF11"",""AF10"",""HF04"",""WM07""]","[4,7,4,5]","[6,8,2,4]","","",""
"show-reward","136","357316","0.0-136.0","p531096","A2ISLV6X3Q81MS","3WPCIUYH1BELQU8EB2L3QVOOKYBTD4","3WETL7AQWVEOAKTL7J2UZQRNWVB35T","model","mismatch","uniform","","","","","","","","358295","360299","","","","","","","","","","","","7","","stimuli/stars_7.png","209","","","","","stimuli/AF10_HO.jpg","",""
"explore-choice","137","359725","0.0-137.0","p531096","A2ISLV6X3Q81MS","3WPCIUYH1BELQU8EB2L3QVOOKYBTD4","3WETL7AQWVEOAKTL7J2UZQRNWVB35T","model","mismatch","uniform","","","","","","","1899","360307","362206","[""stimuli/WM07_DO.jpg"",""stimuli/HF04_HO.jpg"",""stimuli/AF11_AO.jpg"",""stimuli/AF10_SC.jpg""]","stimuli/WM07_DO.jpg","stimuli/HF04_HO.jpg","stimuli/AF11_AO.jpg","stimuli/AF10_SC.jpg","pos2","stimuli/HF04_HO.jpg","HO","HF04","1","3.5","7","8","stimuli/stars_7.png","212.5","[""DO"",""HO"",""AO"",""SC""]","[""WM07"",""HF04"",""AF11"",""AF10""]","[2,7,2,8]","[4,8,2,6]","","",""
"show-reward","138","361729","0.0-138.0","p531096","A2ISLV6X3Q81MS","3WPCIUYH1BELQU8EB2L3QVOOKYBTD4","3WETL7AQWVEOAKTL7J2UZQRNWVB35T","model","mismatch","uniform","","","","","","","","362709","364711","","","","","","","","","","","","7","","stimuli/stars_7.png","212.5","","","","","stimuli/HF04_HO.jpg","",""
"explore-choice","139","364055","0.0-139.0","p531096","A2ISLV6X3Q81MS","3WPCIUYH1BELQU8EB2L3QVOOKYBTD4","3WETL7AQWVEOAKTL7J2UZQRNWVB35T","model","mismatch","uniform","","","","","","","1824","364713","366537","[""stimuli/AF10_HO.jpg"",""stimuli/WM07_SC.jpg"",""stimuli/HF04_DO.jpg"",""stimuli/AF11_AO.jpg""]","stimuli/AF10_HO.jpg","stimuli/WM07_SC.jpg","stimuli/HF04_DO.jpg","stimuli/AF11_AO.jpg","pos1","stimuli/AF10_HO.jpg","HO","AF10","0","5","10","8","stimuli/stars_10.png","217.5","[""HO"",""SC"",""DO"",""AO""]","[""AF10"",""WM07"",""HF04"",""AF11""]","[10,5,3,2]","[8,6,4,2]","","",""
"show-reward","140","366060","0.0-140.0","p531096","A2ISLV6X3Q81MS","3WPCIUYH1BELQU8EB2L3QVOOKYBTD4","3WETL7AQWVEOAKTL7J2UZQRNWVB35T","model","mismatch","uniform","","","","","","","","367040","369043","","","","","","","","","","","","10","","stimuli/stars_10.png","217.5","","","","","stimuli/AF10_HO.jpg","",""
"explore-choice","141","368855","0.0-141.0","p531096","A2ISLV6X3Q81MS","3WPCIUYH1BELQU8EB2L3QVOOKYBTD4","3WETL7AQWVEOAKTL7J2UZQRNWVB35T","model","mismatch","uniform","","","","","","","2291","369046","371337","[""stimuli/WM07_AO.jpg"",""stimuli/AF11_SC.jpg"",""stimuli/HF04_DO.jpg"",""stimuli/AF10_HO.jpg""]","stimuli/WM07_AO.jpg","stimuli/AF11_SC.jpg","stimuli/HF04_DO.jpg","stimuli/AF10_HO.jpg","pos4","stimuli/AF10_HO.jpg","HO","AF10","3","4.5","9","8","stimuli/stars_9.png","222","[""AO"",""SC"",""DO"",""HO""]","[""WM07"",""AF11"",""HF04"",""AF10""]","[3,8,5,9]","[2,6,4,8]","","",""
"show-reward","142","370864","0.0-142.0","p531096","A2ISLV6X3Q81MS","3WPCIUYH1BELQU8EB2L3QVOOKYBTD4","3WETL7AQWVEOAKTL7J2UZQRNWVB35T","model","mismatch","uniform","","","","","","","","371841","373844","","","","","","","","","","","","9","","stimuli/stars_9.png","222","","","","","stimuli/AF10_HO.jpg","",""
"explore-choice","143","373475","0.0-143.0","p531096","A2ISLV6X3Q81MS","3WPCIUYH1BELQU8EB2L3QVOOKYBTD4","3WETL7AQWVEOAKTL7J2UZQRNWVB35T","model","mismatch","uniform","","","","","","","2105","373851","375956","[""stimuli/AF11_AO.jpg"",""stimuli/AF10_SC.jpg"",""stimuli/HF04_DO.jpg"",""stimuli/WM07_HO.jpg""]","stimuli/AF11_AO.jpg","stimuli/AF10_SC.jpg","stimuli/HF04_DO.jpg","stimuli/WM07_HO.jpg","pos3","stimuli/HF04_DO.jpg","DO","HF04","2","3","6","4","stimuli/stars_6.png","225","[""AO"",""SC"",""DO"",""HO""]","[""AF11"",""AF10"",""HF04"",""WM07""]","[2,5,6,8]","[2,6,4,8]","","",""
"show-reward","144","375531","0.0-144.0","p531096","A2ISLV6X3Q81MS","3WPCIUYH1BELQU8EB2L3QVOOKYBTD4","3WETL7AQWVEOAKTL7J2UZQRNWVB35T","model","mismatch","uniform","","","","","","","","376462","378513","","","","","","","","","","","","6","","stimuli/stars_6.png","225","","","","","stimuli/HF04_DO.jpg","",""
"explore-choice","145","377511","0.0-145.0","p531096","A2ISLV6X3Q81MS","3WPCIUYH1BELQU8EB2L3QVOOKYBTD4","3WETL7AQWVEOAKTL7J2UZQRNWVB35T","model","mismatch","uniform","","","","","","","1478","378515","379993","[""stimuli/AF11_SC.jpg"",""stimuli/HF04_AO.jpg"",""stimuli/AF10_DO.jpg"",""stimuli/WM07_HO.jpg""]","stimuli/AF11_SC.jpg","stimuli/HF04_AO.jpg","stimuli/AF10_DO.jpg","stimuli/WM07_HO.jpg","pos4","stimuli/WM07_HO.jpg","HO","WM07","3","4","8","8","stimuli/stars_8.png","229","[""SC"",""AO"",""DO"",""HO""]","[""AF11"",""HF04"",""AF10"",""WM07""]","[7,1,3,8]","[6,2,4,8]","","",""
"show-reward","146","379513","0.0-146.0","p531096","A2ISLV6X3Q81MS","3WPCIUYH1BELQU8EB2L3QVOOKYBTD4","3WETL7AQWVEOAKTL7J2UZQRNWVB35T","model","mismatch","uniform","","","","","","","","380494","382496","","","","","","","","","","","","8","","stimuli/stars_8.png","229","","","","","stimuli/WM07_HO.jpg","",""
"explore-choice","147","383168","0.0-147.0","p531096","A2ISLV6X3Q81MS","3WPCIUYH1BELQU8EB2L3QVOOKYBTD4","3WETL7AQWVEOAKTL7J2UZQRNWVB35T","model","mismatch","uniform","","","","","","","3151","382498","385649","[""stimuli/HF04_HO.jpg"",""stimuli/AF11_DO.jpg"",""stimuli/AF10_AO.jpg"",""stimuli/WM07_SC.jpg""]","stimuli/HF04_HO.jpg","stimuli/AF11_DO.jpg","stimuli/AF10_AO.jpg","stimuli/WM07_SC.jpg","pos1","stimuli/HF04_HO.jpg","HO","HF04","0","3","6","8","stimuli/stars_6.png","232","[""HO"",""DO"",""AO"",""SC""]","[""HF04"",""AF11"",""AF10"",""WM07""]","[6,2,1,6]","[8,4,2,6]","","",""
"show-reward","148","385171","0.0-148.0","p531096","A2ISLV6X3Q81MS","3WPCIUYH1BELQU8EB2L3QVOOKYBTD4","3WETL7AQWVEOAKTL7J2UZQRNWVB35T","model","mismatch","uniform","","","","","","","","386152","388153","","","","","","","","","","","","6","","stimuli/stars_6.png","232","","","","","stimuli/HF04_HO.jpg","",""
"explore-choice","149","386700","0.0-149.0","p531096","A2ISLV6X3Q81MS","3WPCIUYH1BELQU8EB2L3QVOOKYBTD4","3WETL7AQWVEOAKTL7J2UZQRNWVB35T","model","mismatch","uniform","","","","","","","1026","388155","389181","[""stimuli/WM07_SC.jpg"",""stimuli/AF10_AO.jpg"",""stimuli/HF04_DO.jpg"",""stimuli/AF11_HO.jpg""]","stimuli/WM07_SC.jpg","stimuli/AF10_AO.jpg","stimuli/HF04_DO.jpg","stimuli/AF11_HO.jpg","pos1","stimuli/WM07_SC.jpg","SC","WM07","0","3","6","6","stimuli/stars_6.png","235","[""SC"",""AO"",""DO"",""HO""]","[""WM07"",""AF10"",""HF04"",""AF11""]","[6,1,2,6]","[6,2,4,8]","","",""
"show-reward","150","388704","0.0-150.0","p531096","A2ISLV6X3Q81MS","3WPCIUYH1BELQU8EB2L3QVOOKYBTD4","3WETL7AQWVEOAKTL7J2UZQRNWVB35T","model","mismatch","uniform","","","","","","","","389685","391687","","","","","","","","","","","","6","","stimuli/stars_6.png","235","","","","","stimuli/WM07_SC.jpg","",""
"explore-choice","151","390493","0.0-151.0","p531096","A2ISLV6X3Q81MS","3WPCIUYH1BELQU8EB2L3QVOOKYBTD4","3WETL7AQWVEOAKTL7J2UZQRNWVB35T","model","mismatch","uniform","","","","","","","1286","391689","392975","[""stimuli/WM07_AO.jpg"",""stimuli/AF11_SC.jpg"",""stimuli/AF10_HO.jpg"",""stimuli/HF04_DO.jpg""]","stimuli/WM07_AO.jpg","stimuli/AF11_SC.jpg","stimuli/AF10_HO.jpg","stimuli/HF04_DO.jpg","pos1","stimuli/WM07_AO.jpg","AO","WM07","0","1.5","3","2","stimuli/stars_3.png","236.5","[""AO"",""SC"",""HO"",""DO""]","[""WM07"",""AF11"",""AF10"",""HF04""]","[3,8,9,5]","[2,6,8,4]","","",""
"show-reward","152","392556","0.0-152.0","p531096","A2ISLV6X3Q81MS","3WPCIUYH1BELQU8EB2L3QVOOKYBTD4","3WETL7AQWVEOAKTL7J2UZQRNWVB35T","model","mismatch","uniform","","","","","","","","393477","395537","","","","","","","","","","","","3","","stimuli/stars_3.png","236.5","","","","","stimuli/WM07_AO.jpg","",""
"explore-choice","153","394247","0.0-153.0","p531096","A2ISLV6X3Q81MS","3WPCIUYH1BELQU8EB2L3QVOOKYBTD4","3WETL7AQWVEOAKTL7J2UZQRNWVB35T","model","mismatch","uniform","","","","","","","1158","395571","396729","[""stimuli/WM07_HO.jpg"",""stimuli/AF11_AO.jpg"",""stimuli/AF10_DO.jpg"",""stimuli/HF04_SC.jpg""]","stimuli/WM07_HO.jpg","stimuli/AF11_AO.jpg","stimuli/AF10_DO.jpg","stimuli/HF04_SC.jpg","pos2","stimuli/AF11_AO.jpg","AO","AF11","1","0.5","1","2","stimuli/stars_1.png","237","[""HO"",""AO"",""DO"",""SC""]","[""WM07"",""AF11"",""AF10"",""HF04""]","[8,1,5,7]","[8,2,4,6]","","",""
"show-reward","154","396286","0.0-154.0","p531096","A2ISLV6X3Q81MS","3WPCIUYH1BELQU8EB2L3QVOOKYBTD4","3WETL7AQWVEOAKTL7J2UZQRNWVB35T","model","mismatch","uniform","","","","","","","","397234","399262","","","","","","","","","","","","1","","stimuli/stars_1.png","237","","","","","stimuli/AF11_AO.jpg","",""
"explore-choice","155","399269","0.0-155.0","p531096","A2ISLV6X3Q81MS","3WPCIUYH1BELQU8EB2L3QVOOKYBTD4","3WETL7AQWVEOAKTL7J2UZQRNWVB35T","model","mismatch","uniform","","","","","","","2467","399285","401752","[""stimuli/WM07_HO.jpg"",""stimuli/AF10_SC.jpg"",""stimuli/AF11_AO.jpg"",""stimuli/HF04_DO.jpg""]","stimuli/WM07_HO.jpg","stimuli/AF10_SC.jpg","stimuli/AF11_AO.jpg","stimuli/HF04_DO.jpg","pos4","stimuli/HF04_DO.jpg","DO","HF04","3","3","6","4","stimuli/stars_6.png","240","[""HO"",""SC"",""AO"",""DO""]","[""WM07"",""AF10"",""AF11"",""HF04""]","[8,5,2,6]","[8,6,2,4]","","",""
"show-reward","156","401273","0.0-156.0","p531096","A2ISLV6X3Q81MS","3WPCIUYH1BELQU8EB2L3QVOOKYBTD4","3WETL7AQWVEOAKTL7J2UZQRNWVB35T","model","mismatch","uniform","","","","","","","","402255","404257","","","","","","","","","","","","6","","stimuli/stars_6.png","240","","","","","stimuli/HF04_DO.jpg","",""
"explore-choice","157","403510","0.0-157.0","p531096","A2ISLV6X3Q81MS","3WPCIUYH1BELQU8EB2L3QVOOKYBTD4","3WETL7AQWVEOAKTL7J2UZQRNWVB35T","model","mismatch","uniform","","","","","","","1735","404258","405993","[""stimuli/WM07_AO.jpg"",""stimuli/HF04_SC.jpg"",""stimuli/AF10_DO.jpg"",""stimuli/AF11_HO.jpg""]","stimuli/WM07_AO.jpg","stimuli/HF04_SC.jpg","stimuli/AF10_DO.jpg","stimuli/AF11_HO.jpg","pos4","stimuli/AF11_HO.jpg","HO","AF11","3","3.5","7","8","stimuli/stars_7.png","243.5","[""AO"",""SC"",""DO"",""HO""]","[""WM07"",""HF04"",""AF10"",""AF11""]","[4,5,3,7]","[2,6,4,8]","","",""
"show-reward","158","405519","0.0-158.0","p531096","A2ISLV6X3Q81MS","3WPCIUYH1BELQU8EB2L3QVOOKYBTD4","3WETL7AQWVEOAKTL7J2UZQRNWVB35T","model","mismatch","uniform","","","","","","","","406496","408501","","","","","","","","","","","","7","","stimuli/stars_7.png","243.5","","","","","stimuli/AF11_HO.jpg","",""
"explore-choice","159","408087","0.0-159.0","p531096","A2ISLV6X3Q81MS","3WPCIUYH1BELQU8EB2L3QVOOKYBTD4","3WETL7AQWVEOAKTL7J2UZQRNWVB35T","model","mismatch","uniform","","","","","","","2062","408507","410569","[""stimuli/WM07_SC.jpg"",""stimuli/HF04_HO.jpg"",""stimuli/AF11_DO.jpg"",""stimuli/AF10_AO.jpg""]","stimuli/WM07_SC.jpg","stimuli/HF04_HO.jpg","stimuli/AF11_DO.jpg","stimuli/AF10_AO.jpg","pos2","stimuli/HF04_HO.jpg","HO","HF04","1","3","6","8","stimuli/stars_6.png","246.5","[""SC"",""HO"",""DO"",""AO""]","[""WM07"",""HF04"",""AF11"",""AF10""]","[6,6,2,1]","[6,8,4,2]","","",""
"show-reward","160","410094","0.0-160.0","p531096","A2ISLV6X3Q81MS","3WPCIUYH1BELQU8EB2L3QVOOKYBTD4","3WETL7AQWVEOAKTL7J2UZQRNWVB35T","model","mismatch","uniform","","","","","","","","411073","413076","","","","","","","","","","","","6","","stimuli/stars_6.png","246.5","","","","","stimuli/HF04_HO.jpg","",""
"explore-choice","161","412000","0.0-161.0","p531096","A2ISLV6X3Q81MS","3WPCIUYH1BELQU8EB2L3QVOOKYBTD4","3WETL7AQWVEOAKTL7J2UZQRNWVB35T","model","mismatch","uniform","","","","","","","1402","413081","414483","[""stimuli/WM07_AO.jpg"",""stimuli/AF10_HO.jpg"",""stimuli/AF11_DO.jpg"",""stimuli/HF04_SC.jpg""]","stimuli/WM07_AO.jpg","stimuli/AF10_HO.jpg","stimuli/AF11_DO.jpg","stimuli/HF04_SC.jpg","pos2","stimuli/AF10_HO.jpg","HO","AF10","1","4.5","9","8","stimuli/stars_9.png","251","[""AO"",""HO"",""DO"",""SC""]","[""WM07"",""AF10"",""AF11"",""HF04""]","[2,9,3,8]","[2,8,4,6]","","",""
"show-reward","162","414005","0.0-162.0","p531096","A2ISLV6X3Q81MS","3WPCIUYH1BELQU8EB2L3QVOOKYBTD4","3WETL7AQWVEOAKTL7J2UZQRNWVB35T","model","mismatch","uniform","","","","","","","","414985","416987","","","","","","","","","","","","9","","stimuli/stars_9.png","251","","","","","stimuli/AF10_HO.jpg","",""
"explore-choice","163","417267","0.0-163.0","p531096","A2ISLV6X3Q81MS","3WPCIUYH1BELQU8EB2L3QVOOKYBTD4","3WETL7AQWVEOAKTL7J2UZQRNWVB35T","model","mismatch","uniform","","","","","","","2756","416994","419750","[""stimuli/AF11_AO.jpg"",""stimuli/WM07_SC.jpg"",""stimuli/HF04_HO.jpg"",""stimuli/AF10_DO.jpg""]","stimuli/AF11_AO.jpg","stimuli/WM07_SC.jpg","stimuli/HF04_HO.jpg","stimuli/AF10_DO.jpg","pos3","stimuli/HF04_HO.jpg","HO","HF04","2","3.5","7","8","stimuli/stars_7.png","254.5","[""AO"",""SC"",""HO"",""DO""]","[""AF11"",""WM07"",""HF04"",""AF10""]","[3,8,7,2]","[2,6,8,4]","","",""
"show-reward","164","419279","0.0-164.0","p531096","A2ISLV6X3Q81MS","3WPCIUYH1BELQU8EB2L3QVOOKYBTD4","3WETL7AQWVEOAKTL7J2UZQRNWVB35T","model","mismatch","uniform","","","","","","","","420258","422261","","","","","","","","","","","","7","","stimuli/stars_7.png","254.5","","","","","stimuli/HF04_HO.jpg","",""
"explore-choice","165","421868","0.0-165.0","p531096","A2ISLV6X3Q81MS","3WPCIUYH1BELQU8EB2L3QVOOKYBTD4","3WETL7AQWVEOAKTL7J2UZQRNWVB35T","model","mismatch","uniform","","","","","","","2085","422265","424350","[""stimuli/WM07_SC.jpg"",""stimuli/HF04_AO.jpg"",""stimuli/AF10_DO.jpg"",""stimuli/AF11_HO.jpg""]","stimuli/WM07_SC.jpg","stimuli/HF04_AO.jpg","stimuli/AF10_DO.jpg","stimuli/AF11_HO.jpg","pos4","stimuli/AF11_HO.jpg","HO","AF11","3","3","6","8","stimuli/stars_6.png","257.5","[""SC"",""AO"",""DO"",""HO""]","[""WM07"",""HF04"",""AF10"",""AF11""]","[5,0,2,6]","[6,2,4,8]","","",""
"show-reward","166","423873","0.0-166.0","p531096","A2ISLV6X3Q81MS","3WPCIUYH1BELQU8EB2L3QVOOKYBTD4","3WETL7AQWVEOAKTL7J2UZQRNWVB35T","model","mismatch","uniform","","","","","","","","424854","426857","","","","","","","","","","","","6","","stimuli/stars_6.png","257.5","","","","","stimuli/AF11_HO.jpg","",""
"explore-choice","167","427980","0.0-167.0","p531096","A2ISLV6X3Q81MS","3WPCIUYH1BELQU8EB2L3QVOOKYBTD4","3WETL7AQWVEOAKTL7J2UZQRNWVB35T","model","mismatch","uniform","","","","","","","3583","426860","430443","[""stimuli/AF10_AO.jpg"",""stimuli/HF04_SC.jpg"",""stimuli/WM07_HO.jpg"",""stimuli/AF11_DO.jpg""]","stimuli/AF10_AO.jpg","stimuli/HF04_SC.jpg","stimuli/WM07_HO.jpg","stimuli/AF11_DO.jpg","pos3","stimuli/WM07_HO.jpg","HO","WM07","2","4","8","8","stimuli/stars_8.png","261.5","[""AO"",""SC"",""HO"",""DO""]","[""AF10"",""HF04"",""WM07"",""AF11""]","[3,8,8,6]","[2,6,8,4]","","",""
"show-reward","168","430030","0.0-168.0","p531096","A2ISLV6X3Q81MS","3WPCIUYH1BELQU8EB2L3QVOOKYBTD4","3WETL7AQWVEOAKTL7J2UZQRNWVB35T","model","mismatch","uniform","","","","","","","","430994","433013","","","","","","","","","","","","8","","stimuli/stars_8.png","261.5","","","","","stimuli/WM07_HO.jpg","",""
"explore-choice","169","433248","0.0-169.0","p531096","A2ISLV6X3Q81MS","3WPCIUYH1BELQU8EB2L3QVOOKYBTD4","3WETL7AQWVEOAKTL7J2UZQRNWVB35T","model","mismatch","uniform","","","","","","","2714","433015","435729","[""stimuli/HF04_AO.jpg"",""stimuli/AF11_HO.jpg"",""stimuli/AF10_SC.jpg"",""stimuli/WM07_DO.jpg""]","stimuli/HF04_AO.jpg","stimuli/AF11_HO.jpg","stimuli/AF10_SC.jpg","stimuli/WM07_DO.jpg","pos2","stimuli/AF11_HO.jpg","HO","AF11","1","4.5","9","8","stimuli/stars_9.png","266","[""AO"",""HO"",""SC"",""DO""]","[""HF04"",""AF11"",""AF10"",""WM07""]","[4,9,4,5]","[2,8,6,4]","","",""
"show-reward","170","435257","0.0-170.0","p531096","A2ISLV6X3Q81MS","3WPCIUYH1BELQU8EB2L3QVOOKYBTD4","3WETL7AQWVEOAKTL7J2UZQRNWVB35T","model","mismatch","uniform","","","","","","","","436233","438240","","","","","","","","","","","","9","","stimuli/stars_9.png","266","","","","","stimuli/AF11_HO.jpg","",""
"explore-choice","171","437790","0.0-171.0","p531096","A2ISLV6X3Q81MS","3WPCIUYH1BELQU8EB2L3QVOOKYBTD4","3WETL7AQWVEOAKTL7J2UZQRNWVB35T","model","mismatch","uniform","","","","","","","2031","438242","440273","[""stimuli/AF10_HO.jpg"",""stimuli/AF11_SC.jpg"",""stimuli/WM07_DO.jpg"",""stimuli/HF04_AO.jpg""]","stimuli/AF10_HO.jpg","stimuli/AF11_SC.jpg","stimuli/WM07_DO.jpg","stimuli/HF04_AO.jpg","pos1","stimuli/AF10_HO.jpg","HO","AF10","0","3.5","7","8","stimuli/stars_7.png","269.5","[""HO"",""SC"",""DO"",""AO""]","[""AF10"",""AF11"",""WM07"",""HF04""]","[7,4,5,4]","[8,6,4,2]","","",""
"show-reward","172","439796","0.0-172.0","p531096","A2ISLV6X3Q81MS","3WPCIUYH1BELQU8EB2L3QVOOKYBTD4","3WETL7AQWVEOAKTL7J2UZQRNWVB35T","model","mismatch","uniform","","","","","","","","440776","442780","","","","","","","","","","","","7","","stimuli/stars_7.png","269.5","","","","","stimuli/AF10_HO.jpg","",""
"explore-choice","173","442467","0.0-173.0","p531096","A2ISLV6X3Q81MS","3WPCIUYH1BELQU8EB2L3QVOOKYBTD4","3WETL7AQWVEOAKTL7J2UZQRNWVB35T","model","mismatch","uniform","","","","","","","2166","442783","444949","[""stimuli/AF10_AO.jpg"",""stimuli/HF04_SC.jpg"",""stimuli/AF11_HO.jpg"",""stimuli/WM07_DO.jpg""]","stimuli/AF10_AO.jpg","stimuli/HF04_SC.jpg","stimuli/AF11_HO.jpg","stimuli/WM07_DO.jpg","pos3","stimuli/AF11_HO.jpg","HO","AF11","2","4","8","8","stimuli/stars_8.png","273.5","[""AO"",""SC"",""HO"",""DO""]","[""AF10"",""HF04"",""AF11"",""WM07""]","[2,5,8,4]","[2,6,8,4]","","",""
"show-reward","174","444476","0.0-174.0","p531096","A2ISLV6X3Q81MS","3WPCIUYH1BELQU8EB2L3QVOOKYBTD4","3WETL7AQWVEOAKTL7J2UZQRNWVB35T","model","mismatch","uniform","","","","","","","","445452","447460","","","","","","","","","","","","8","","stimuli/stars_8.png","273.5","","","","","stimuli/AF11_HO.jpg","",""
"explore-choice","175","447734","0.0-175.0","p531096","A2ISLV6X3Q81MS","3WPCIUYH1BELQU8EB2L3QVOOKYBTD4","3WETL7AQWVEOAKTL7J2UZQRNWVB35T","model","mismatch","uniform","","","","","","","2754","447462","450216","[""stimuli/AF11_SC.jpg"",""stimuli/HF04_HO.jpg"",""stimuli/WM07_DO.jpg"",""stimuli/AF10_AO.jpg""]","stimuli/AF11_SC.jpg","stimuli/HF04_HO.jpg","stimuli/WM07_DO.jpg","stimuli/AF10_AO.jpg","pos2","stimuli/HF04_HO.jpg","HO","HF04","1","3","6","8","stimuli/stars_6.png","276.5","[""SC"",""HO"",""DO"",""AO""]","[""AF11"",""HF04"",""WM07"",""AF10""]","[4,6,2,4]","[6,8,4,2]","","",""
"show-reward","176","449781","0.0-176.0","p531096","A2ISLV6X3Q81MS","3WPCIUYH1BELQU8EB2L3QVOOKYBTD4","3WETL7AQWVEOAKTL7J2UZQRNWVB35T","model","mismatch","uniform","","","","","","","","450721","452759","","","","","","","","","","","","6","","stimuli/stars_6.png","276.5","","","","","stimuli/HF04_HO.jpg","",""
"explore-choice","177","452104","0.0-177.0","p531096","A2ISLV6X3Q81MS","3WPCIUYH1BELQU8EB2L3QVOOKYBTD4","3WETL7AQWVEOAKTL7J2UZQRNWVB35T","model","mismatch","uniform","","","","","","","1799","452766","454565","[""stimuli/HF04_SC.jpg"",""stimuli/AF11_AO.jpg"",""stimuli/AF10_HO.jpg"",""stimuli/WM07_DO.jpg""]","stimuli/HF04_SC.jpg","stimuli/AF11_AO.jpg","stimuli/AF10_HO.jpg","stimuli/WM07_DO.jpg","pos3","stimuli/AF10_HO.jpg","HO","AF10","2","4","8","8","stimuli/stars_8.png","280.5","[""SC"",""AO"",""HO"",""DO""]","[""HF04"",""AF11"",""AF10"",""WM07""]","[6,1,8,5]","[6,2,8,4]","","",""
"show-reward","178","454220","0.0-178.0","p531096","A2ISLV6X3Q81MS","3WPCIUYH1BELQU8EB2L3QVOOKYBTD4","3WETL7AQWVEOAKTL7J2UZQRNWVB35T","model","mismatch","uniform","","","","","","","","455106","457203","","","","","","","","","","","","8","","stimuli/stars_8.png","280.5","","","","","stimuli/AF10_HO.jpg","",""
"explore-choice","179","456469","0.0-179.0","p531096","A2ISLV6X3Q81MS","3WPCIUYH1BELQU8EB2L3QVOOKYBTD4","3WETL7AQWVEOAKTL7J2UZQRNWVB35T","model","mismatch","uniform","","","","","","","1748","457205","458953","[""stimuli/AF11_DO.jpg"",""stimuli/WM07_AO.jpg"",""stimuli/HF04_HO.jpg"",""stimuli/AF10_SC.jpg""]","stimuli/AF11_DO.jpg","stimuli/WM07_AO.jpg","stimuli/HF04_HO.jpg","stimuli/AF10_SC.jpg","pos3","stimuli/HF04_HO.jpg","HO","HF04","2","3","6","8","stimuli/stars_6.png","283.5","[""DO"",""AO"",""HO"",""SC""]","[""AF11"",""WM07"",""HF04"",""AF10""]","[2,3,6,5]","[4,2,8,6]","","",""
"show-reward","180","458475","0.0-180.0","p531096","A2ISLV6X3Q81MS","3WPCIUYH1BELQU8EB2L3QVOOKYBTD4","3WETL7AQWVEOAKTL7J2UZQRNWVB35T","model","mismatch","uniform","","","","","","","","459455","461459","","","","","","","","","","","","6","","stimuli/stars_6.png","283.5","","","","","stimuli/HF04_HO.jpg","",""
"explore-choice","181","461255","0.0-181.0","p531096","A2ISLV6X3Q81MS","3WPCIUYH1BELQU8EB2L3QVOOKYBTD4","3WETL7AQWVEOAKTL7J2UZQRNWVB35T","model","mismatch","uniform","","","","","","","2275","461462","463737","[""stimuli/AF11_AO.jpg"",""stimuli/AF10_SC.jpg"",""stimuli/WM07_DO.jpg"",""stimuli/HF04_HO.jpg""]","stimuli/AF11_AO.jpg","stimuli/AF10_SC.jpg","stimuli/WM07_DO.jpg","stimuli/HF04_HO.jpg","pos4","stimuli/HF04_HO.jpg","HO","HF04","3","3.5","7","8","stimuli/stars_7.png","287","[""AO"",""SC"",""DO"",""HO""]","[""AF11"",""AF10"",""WM07"",""HF04""]","[2,8,2,7]","[2,6,4,8]","","",""
"show-reward","182","463259","0.0-182.0","p531096","A2ISLV6X3Q81MS","3WPCIUYH1BELQU8EB2L3QVOOKYBTD4","3WETL7AQWVEOAKTL7J2UZQRNWVB35T","model","mismatch","uniform","","","","","","","","464240","466242","","","","","","","","","","","","7","","stimuli/stars_7.png","287","","","","","stimuli/HF04_HO.jpg","",""
"explore-choice","183","466199","0.0-183.0","p531096","A2ISLV6X3Q81MS","3WPCIUYH1BELQU8EB2L3QVOOKYBTD4","3WETL7AQWVEOAKTL7J2UZQRNWVB35T","model","mismatch","uniform","","","","","","","2437","466245","468682","[""stimuli/WM07_HO.jpg"",""stimuli/HF04_DO.jpg"",""stimuli/AF11_SC.jpg"",""stimuli/AF10_AO.jpg""]","stimuli/WM07_HO.jpg","stimuli/HF04_DO.jpg","stimuli/AF11_SC.jpg","stimuli/AF10_AO.jpg","pos1","stimuli/WM07_HO.jpg","HO","WM07","0","3.5","7","8","stimuli/stars_7.png","290.5","[""HO"",""DO"",""SC"",""AO""]","[""WM07"",""HF04"",""AF11"",""AF10""]","[7,4,5,4]","[8,4,6,2]","","",""
"show-reward","184","468202","0.0-184.0","p531096","A2ISLV6X3Q81MS","3WPCIUYH1BELQU8EB2L3QVOOKYBTD4","3WETL7AQWVEOAKTL7J2UZQRNWVB35T","model","mismatch","uniform","","","","","","","","469184","471186","","","","","","","","","","","","7","","stimuli/stars_7.png","290.5","","","","","stimuli/WM07_HO.jpg","",""
"explore-choice","185","469994","0.0-185.0","p531096","A2ISLV6X3Q81MS","3WPCIUYH1BELQU8EB2L3QVOOKYBTD4","3WETL7AQWVEOAKTL7J2UZQRNWVB35T","model","mismatch","uniform","","","","","","","1287","471188","472475","[""stimuli/AF11_HO.jpg"",""stimuli/AF10_AO.jpg"",""stimuli/HF04_DO.jpg"",""stimuli/WM07_SC.jpg""]","stimuli/AF11_HO.jpg","stimuli/AF10_AO.jpg","stimuli/HF04_DO.jpg","stimuli/WM07_SC.jpg","pos1","stimuli/AF11_HO.jpg","HO","AF11","0","3","6","8","stimuli/stars_6.png","293.5","[""HO"",""AO"",""DO"",""SC""]","[""AF11"",""AF10"",""HF04"",""WM07""]","[6,1,2,6]","[8,2,4,6]","","",""
"show-reward","186","472072","0.0-186.0","p531096","A2ISLV6X3Q81MS","3WPCIUYH1BELQU8EB2L3QVOOKYBTD4","3WETL7AQWVEOAKTL7J2UZQRNWVB35T","model","mismatch","uniform","","","","","","","","472979","475055","","","","","","","","","","","","6","","stimuli/stars_6.png","293.5","","","","","stimuli/AF11_HO.jpg","",""
"explore-choice","187","474120","0.0-187.0","p531096","A2ISLV6X3Q81MS","3WPCIUYH1BELQU8EB2L3QVOOKYBTD4","3WETL7AQWVEOAKTL7J2UZQRNWVB35T","model","mismatch","uniform","","","","","","","1542","475058","476600","[""stimuli/WM07_HO.jpg"",""stimuli/AF10_DO.jpg"",""stimuli/HF04_AO.jpg"",""stimuli/AF11_SC.jpg""]","stimuli/WM07_HO.jpg","stimuli/AF10_DO.jpg","stimuli/HF04_AO.jpg","stimuli/AF11_SC.jpg","pos1","stimuli/WM07_HO.jpg","HO","WM07","0","4","8","8","stimuli/stars_8.png","297.5","[""HO"",""DO"",""AO"",""SC""]","[""WM07"",""AF10"",""HF04"",""AF11""]","[8,3,1,7]","[8,4,2,6]","","",""
"show-reward","188","476151","0.0-188.0","p531096","A2ISLV6X3Q81MS","3WPCIUYH1BELQU8EB2L3QVOOKYBTD4","3WETL7AQWVEOAKTL7J2UZQRNWVB35T","model","mismatch","uniform","","","","","","","","477127","479133","","","","","","","","","","","","8","","stimuli/stars_8.png","297.5","","","","","stimuli/WM07_HO.jpg","",""
"explore-choice","189","478638","0.0-189.0","p531096","A2ISLV6X3Q81MS","3WPCIUYH1BELQU8EB2L3QVOOKYBTD4","3WETL7AQWVEOAKTL7J2UZQRNWVB35T","model","mismatch","uniform","","","","","","","1985","479136","481121","[""stimuli/WM07_AO.jpg"",""stimuli/HF04_DO.jpg"",""stimuli/AF10_SC.jpg"",""stimuli/AF11_HO.jpg""]","stimuli/WM07_AO.jpg","stimuli/HF04_DO.jpg","stimuli/AF10_SC.jpg","stimuli/AF11_HO.jpg","pos4","stimuli/AF11_HO.jpg","HO","AF11","3","3.5","7","8","stimuli/stars_7.png","301","[""AO"",""DO"",""SC"",""HO""]","[""WM07"",""HF04"",""AF10"",""AF11""]","[2,4,7,7]","[2,4,6,8]","","",""
"show-reward","190","480644","0.0-190.0","p531096","A2ISLV6X3Q81MS","3WPCIUYH1BELQU8EB2L3QVOOKYBTD4","3WETL7AQWVEOAKTL7J2UZQRNWVB35T","model","mismatch","uniform","","","","","","","","481623","483627","","","","","","","","","","","","7","","stimuli/stars_7.png","301","","","","","stimuli/AF11_HO.jpg","",""
"explore-choice","191","482670","0.0-191.0","p531096","A2ISLV6X3Q81MS","3WPCIUYH1BELQU8EB2L3QVOOKYBTD4","3WETL7AQWVEOAKTL7J2UZQRNWVB35T","model","mismatch","uniform","","","","","","","1523","483630","485153","[""stimuli/HF04_HO.jpg"",""stimuli/AF11_SC.jpg"",""stimuli/AF10_DO.jpg"",""stimuli/WM07_AO.jpg""]","stimuli/HF04_HO.jpg","stimuli/AF11_SC.jpg","stimuli/AF10_DO.jpg","stimuli/WM07_AO.jpg","pos1","stimuli/HF04_HO.jpg","HO","HF04","0","4","8","8","stimuli/stars_8.png","305","[""HO"",""SC"",""DO"",""AO""]","[""HF04"",""AF11"",""AF10"",""WM07""]","[8,8,4,2]","[8,6,4,2]","","",""
"show-reward","192","484705","0.0-192.0","p531096","A2ISLV6X3Q81MS","3WPCIUYH1BELQU8EB2L3QVOOKYBTD4","3WETL7AQWVEOAKTL7J2UZQRNWVB35T","model","mismatch","uniform","","","","","","","","485657","487688","","","","","","","","","","","","8","","stimuli/stars_8.png","305","","","","","stimuli/HF04_HO.jpg","",""
"explore-choice","193","487172","0.0-193.0","p531096","A2ISLV6X3Q81MS","3WPCIUYH1BELQU8EB2L3QVOOKYBTD4","3WETL7AQWVEOAKTL7J2UZQRNWVB35T","model","mismatch","uniform","","","","","","","1966","487689","489655","[""stimuli/AF11_DO.jpg"",""stimuli/WM07_HO.jpg"",""stimuli/HF04_AO.jpg"",""stimuli/AF10_SC.jpg""]","stimuli/AF11_DO.jpg","stimuli/WM07_HO.jpg","stimuli/HF04_AO.jpg","stimuli/AF10_SC.jpg","pos2","stimuli/WM07_HO.jpg","HO","WM07","1","3.5","7","8","stimuli/stars_7.png","308.5","[""DO"",""HO"",""AO"",""SC""]","[""AF11"",""WM07"",""HF04"",""AF10""]","[5,7,4,5]","[4,8,2,6]","","",""
"show-reward","194","489176","0.0-194.0","p531096","A2ISLV6X3Q81MS","3WPCIUYH1BELQU8EB2L3QVOOKYBTD4","3WETL7AQWVEOAKTL7J2UZQRNWVB35T","model","mismatch","uniform","","","","","","","","490158","492160","","","","","","","","","","","","7","","stimuli/stars_7.png","308.5","","","","","stimuli/WM07_HO.jpg","",""
"explore-choice","195","492175","0.0-195.0","p531096","A2ISLV6X3Q81MS","3WPCIUYH1BELQU8EB2L3QVOOKYBTD4","3WETL7AQWVEOAKTL7J2UZQRNWVB35T","model","mismatch","uniform","","","","","","","2486","492163","494649","[""stimuli/AF11_AO.jpg"",""stimuli/WM07_SC.jpg"",""stimuli/HF04_DO.jpg"",""stimuli/AF10_HO.jpg""]","stimuli/AF11_AO.jpg","stimuli/WM07_SC.jpg","stimuli/HF04_DO.jpg","stimuli/AF10_HO.jpg","pos4","stimuli/AF10_HO.jpg","HO","AF10","3","5","10","8","stimuli/stars_10.png","313.5","[""AO"",""SC"",""DO"",""HO""]","[""AF11"",""WM07"",""HF04"",""AF10""]","[2,5,3,10]","[2,6,4,8]","","",""
"show-reward","196","494280","0.0-196.0","p531096","A2ISLV6X3Q81MS","3WPCIUYH1BELQU8EB2L3QVOOKYBTD4","3WETL7AQWVEOAKTL7J2UZQRNWVB35T","model","mismatch","uniform","","","","","","","","495161","497264","","","","","","","","","","","","10","","stimuli/stars_10.png","313.5","","","","","stimuli/AF10_HO.jpg","",""
"explore-choice","197","497268","0.0-197.0","p531096","A2ISLV6X3Q81MS","3WPCIUYH1BELQU8EB2L3QVOOKYBTD4","3WETL7AQWVEOAKTL7J2UZQRNWVB35T","model","mismatch","uniform","","","","","","","2486","497265","499751","[""stimuli/AF11_DO.jpg"",""stimuli/WM07_SC.jpg"",""stimuli/HF04_AO.jpg"",""stimuli/AF10_HO.jpg""]","stimuli/AF11_DO.jpg","stimuli/WM07_SC.jpg","stimuli/HF04_AO.jpg","stimuli/AF10_HO.jpg","pos4","stimuli/AF10_HO.jpg","HO","AF10","3","4.5","9","8","stimuli/stars_9.png","318","[""DO"",""SC"",""AO"",""HO""]","[""AF11"",""WM07"",""HF04"",""AF10""]","[2,8,3,9]","[4,6,2,8]","","",""
"show-reward","198","499273","0.0-198.0","p531096","A2ISLV6X3Q81MS","3WPCIUYH1BELQU8EB2L3QVOOKYBTD4","3WETL7AQWVEOAKTL7J2UZQRNWVB35T","model","mismatch","uniform","","","","","","","","500253","502256","","","","","","","","","","","","9","","stimuli/stars_9.png","318","","","","","stimuli/AF10_HO.jpg","",""
"instructions","199","518416","0.0-199.0","p531096","A2ISLV6X3Q81MS","3WPCIUYH1BELQU8EB2L3QVOOKYBTD4","3WETL7AQWVEOAKTL7J2UZQRNWVB35T","model","mismatch","uniform","","","","","","[{""page_index"":0,""viewing_time"":19133}]","19137","","","","","","","","","","","","","","","","","","","","","","","",""
"survey-text","200","529842","0.0-200.0-0.0","p531096","A2ISLV6X3Q81MS","3WPCIUYH1BELQU8EB2L3QVOOKYBTD4","3WETL7AQWVEOAKTL7J2UZQRNWVB35T","model","mismatch","uniform","","","","","","","11405","","","","","","","","","","","","","","","","","","","","","","","{""age"":""57""}",""
"survey-text","201","539021","0.0-200.0-1.0","p531096","A2ISLV6X3Q81MS","3WPCIUYH1BELQU8EB2L3QVOOKYBTD4","3WETL7AQWVEOAKTL7J2UZQRNWVB35T","model","mismatch","uniform","","","","","","","9173","","","","","","","","","","","","","","","","","","","","","","","{""gender"":""female""}",""
"survey-text","202","553657","0.0-200.0-2.0","p531096","A2ISLV6X3Q81MS","3WPCIUYH1BELQU8EB2L3QVOOKYBTD4","3WETL7AQWVEOAKTL7J2UZQRNWVB35T","model","mismatch","uniform","","","","","","","14628","","","","","","","","","","","","","","","","","","","","","","","{""country"":""united states""}",""
"survey-text","203","575725","0.0-200.0-3.0","p531096","A2ISLV6X3Q81MS","3WPCIUYH1BELQU8EB2L3QVOOKYBTD4","3WETL7AQWVEOAKTL7J2UZQRNWVB35T","model","mismatch","uniform","","","","","","","22055","","","","","","","","","","","","","","","","","","","","","","","{""language"":""english"",""other_languages"":""english""}",""
"survey-multi-select","204","579436","0.0-201.0","p531096","A2ISLV6X3Q81MS","3WPCIUYH1BELQU8EB2L3QVOOKYBTD4","3WETL7AQWVEOAKTL7J2UZQRNWVB35T","model","mismatch","uniform","","","","","","","3692","","","","","","","","","","","","","","","","","","","","","","","{""race"":[""White""]}","[0]"
"survey-multi-choice","205","584864","0.0-202.0","p531096","A2ISLV6X3Q81MS","3WPCIUYH1BELQU8EB2L3QVOOKYBTD4","3WETL7AQWVEOAKTL7J2UZQRNWVB35T","model","mismatch","uniform","","","","","","","5422","","","","","","","","","","","","","","","","","","","","","","","{""education"":""Master's degree""}","[0]"
"survey-text","206","761254","0.0-203.0","p531096","A2ISLV6X3Q81MS","3WPCIUYH1BELQU8EB2L3QVOOKYBTD4","3WETL7AQWVEOAKTL7J2UZQRNWVB35T","model","mismatch","uniform","","","","","","","176379","","","","","","","","","","","","","","","","","","","","","","","{""patterns"":""yes. face reactions."",""strategy"":""yes. face reaction and smile."",""comments"":""all are good""}",""
