"trial_type","trial_index","time_elapsed","internal_node_id","subject","workerId","hitId","assignmentId","structure_condition","match_condition","noise_type","success","timeout","failed_images","failed_audio","failed_video","view_history","rt","start_time","end_time","stimuli","image1","image2","image3","image4","choiceLocation","choiceImage","choiceEmotion","choiceModel","choice_index","reward_score","reward","reward_score_unadjusted","reward_image","score_after_trial","emotions","models","rewards","rewards_unadjusted","stimulus","response","question_order"
"pavlovia","0","9","0.0-0.0","p565497","A2V27A9GZA1NR2","3WPCIUYH1BELQU8EB2L3QVOOKYBTD4","3GS6S824SS3PR71FL39IY426L8OWNZ","emotion","match","uniform","","","","","","","","","","","","","","","","","","","","","","","","","","","","","","",""
"preload","1","3454","0.0-1.0","p565497","A2V27A9GZA1NR2","3WPCIUYH1BELQU8EB2L3QVOOKYBTD4","3GS6S824SS3PR71FL39IY426L8OWNZ","emotion","match","uniform","true","false","[]","[]","[]","","","","","","","","","","","","","","","","","","","","","","","","","",""
"fullscreen","2","9019","0.0-2.0","p565497","A2V27A9GZA1NR2","3WPCIUYH1BELQU8EB2L3QVOOKYBTD4","3GS6S824SS3PR71FL39IY426L8OWNZ","emotion","match","uniform","true","","","","","","","","","","","","","","","","","","","","","","","","","","","","","",""
"instructions","3","9863","0.0-3.0","p565497","A2V27A9GZA1NR2","3WPCIUYH1BELQU8EB2L3QVOOKYBTD4","3GS6S824SS3PR71FL39IY426L8OWNZ","emotion","match","uniform","","","","","","[{""page_index"":0,""viewing_time"":842.3999999761581}]","842.6999999880791","","","","","","","","","","","","","","","","","","","","","","","",""
"explore-choice","4","13447","0.0-4.0","p565497","A2V27A9GZA1NR2","3WPCIUYH1BELQU8EB2L3QVOOKYBTD4","3GS6S824SS3PR71FL39IY426L8OWNZ","emotion","match","uniform","","","","","","","3068.699999988079","10876.800000011921","13945.5","[""stimuli/sheep.jpg"",""stimuli/hammer.jpg"",""stimuli/basketball.jpg"",""stimuli/horse.jpg""]","stimuli/sheep.jpg","stimuli/hammer.jpg","stimuli/basketball.jpg","stimuli/horse.jpg","pos4","stimuli/horse.jpg","","","3","64","64","64","stimuli/stars_8.png","65","","","","","","",""
"explore-choice","5","15699","0.0-5.0","p565497","A2V27A9GZA1NR2","3WPCIUYH1BELQU8EB2L3QVOOKYBTD4","3GS6S824SS3PR71FL39IY426L8OWNZ","emotion","match","uniform","","","","","","","1751.5999999642372","14460.900000035763","16212.5","[""stimuli/hammer.jpg"",""stimuli/basketball.jpg"",""stimuli/horse.jpg"",""stimuli/sheep.jpg""]","stimuli/hammer.jpg","stimuli/basketball.jpg","stimuli/horse.jpg","stimuli/sheep.jpg","pos1","stimuli/hammer.jpg","","","0","8","8","8","stimuli/stars_2.png","9","","","","","","",""
"instructions","6","51549","0.0-6.0","p565497","A2V27A9GZA1NR2","3WPCIUYH1BELQU8EB2L3QVOOKYBTD4","3GS6S824SS3PR71FL39IY426L8OWNZ","emotion","match","uniform","","","","","","[{""page_index"":0,""viewing_time"":35848.60000002384}]","35849.10000002384","","","","","","","","","","","","","","","","","","","","","","","",""
"explore-choice","7","53760","0.0-7.0","p565497","A2V27A9GZA1NR2","3WPCIUYH1BELQU8EB2L3QVOOKYBTD4","3GS6S824SS3PR71FL39IY426L8OWNZ","emotion","match","uniform","","","","","","","1702.199999988079","52564","54266.19999998808","[""stimuli/HF04_SUR.jpg"",""stimuli/WF04_SC.jpg"",""stimuli/AM06_FO.jpg"",""stimuli/BM04_HO.jpg""]","stimuli/HF04_SUR.jpg","stimuli/WF04_SC.jpg","stimuli/AM06_FO.jpg","stimuli/BM04_HO.jpg","pos4","stimuli/BM04_HO.jpg","HO","BM04","3","2","4","6","stimuli/stars_4.png","3","[""SUR"",""SC"",""FO"",""HO""]","[""HF04"",""WF04"",""AM06"",""BM04""]","[1,9,2,4]","[2,8,4,6]","","",""
"show-reward","8","55765","0.0-8.0","p565497","A2V27A9GZA1NR2","3WPCIUYH1BELQU8EB2L3QVOOKYBTD4","3GS6S824SS3PR71FL39IY426L8OWNZ","emotion","match","uniform","","","","","","","","54776","56778.60000002384","","","","","","","","","","","","4","","stimuli/stars_4.png","3","","","","","stimuli/BM04_HO.jpg","",""
"explore-choice","9","57355","0.0-9.0","p565497","A2V27A9GZA1NR2","3WPCIUYH1BELQU8EB2L3QVOOKYBTD4","3GS6S824SS3PR71FL39IY426L8OWNZ","emotion","match","uniform","","","","","","","1089.1000000238419","56779.5","57868.60000002384","[""stimuli/HF04_SUR.jpg"",""stimuli/BM04_HO.jpg"",""stimuli/WF04_FO.jpg"",""stimuli/AM06_SC.jpg""]","stimuli/HF04_SUR.jpg","stimuli/BM04_HO.jpg","stimuli/WF04_FO.jpg","stimuli/AM06_SC.jpg","pos1","stimuli/HF04_SUR.jpg","SUR","HF04","0","0.5","1","2","stimuli/stars_1.png","3.5","[""SUR"",""HO"",""FO"",""SC""]","[""HF04"",""BM04"",""WF04"",""AM06""]","[1,5,3,7]","[2,6,4,8]","","",""
"show-reward","10","59363","0.0-10.0","p565497","A2V27A9GZA1NR2","3WPCIUYH1BELQU8EB2L3QVOOKYBTD4","3GS6S824SS3PR71FL39IY426L8OWNZ","emotion","match","uniform","","","","","","","","58370.5","60377.10000002384","","","","","","","","","","","","1","","stimuli/stars_1.png","3.5","","","","","stimuli/HF04_SUR.jpg","",""
"explore-choice","11","61246","0.0-11.0","p565497","A2V27A9GZA1NR2","3WPCIUYH1BELQU8EB2L3QVOOKYBTD4","3GS6S824SS3PR71FL39IY426L8OWNZ","emotion","match","uniform","","","","","","","1367","60377.90000003576","61744.90000003576","[""stimuli/AM06_HO.jpg"",""stimuli/BM04_FO.jpg"",""stimuli/HF04_SUR.jpg"",""stimuli/WF04_SC.jpg""]","stimuli/AM06_HO.jpg","stimuli/BM04_FO.jpg","stimuli/HF04_SUR.jpg","stimuli/WF04_SC.jpg","pos4","stimuli/WF04_SC.jpg","SC","WF04","3","3","6","8","stimuli/stars_6.png","6.5","[""HO"",""FO"",""SUR"",""SC""]","[""AM06"",""BM04"",""HF04"",""WF04""]","[4,4,3,6]","[6,4,2,8]","","",""
"show-reward","12","63249","0.0-12.0","p565497","A2V27A9GZA1NR2","3WPCIUYH1BELQU8EB2L3QVOOKYBTD4","3GS6S824SS3PR71FL39IY426L8OWNZ","emotion","match","uniform","","","","","","","","62260.5","64262.90000003576","","","","","","","","","","","","6","","stimuli/stars_6.png","6.5","","","","","stimuli/WF04_SC.jpg","",""
"explore-choice","13","64891","0.0-13.0","p565497","A2V27A9GZA1NR2","3WPCIUYH1BELQU8EB2L3QVOOKYBTD4","3GS6S824SS3PR71FL39IY426L8OWNZ","emotion","match","uniform","","","","","","","1141","64263.5","65404.5","[""stimuli/WF04_SC.jpg"",""stimuli/HF04_FO.jpg"",""stimuli/BM04_SUR.jpg"",""stimuli/AM06_HO.jpg""]","stimuli/WF04_SC.jpg","stimuli/HF04_FO.jpg","stimuli/BM04_SUR.jpg","stimuli/AM06_HO.jpg","pos1","stimuli/WF04_SC.jpg","SC","WF04","0","3","6","8","stimuli/stars_6.png","9.5","[""SC"",""FO"",""SUR"",""HO""]","[""WF04"",""HF04"",""BM04"",""AM06""]","[6,5,1,5]","[8,4,2,6]","","",""
"show-reward","14","66896","0.0-14.0","p565497","A2V27A9GZA1NR2","3WPCIUYH1BELQU8EB2L3QVOOKYBTD4","3GS6S824SS3PR71FL39IY426L8OWNZ","emotion","match","uniform","","","","","","","","65905.30000001192","67910.5","","","","","","","","","","","","6","","stimuli/stars_6.png","9.5","","","","","stimuli/WF04_SC.jpg","",""
"explore-choice","15","68561","0.0-15.0","p565497","A2V27A9GZA1NR2","3WPCIUYH1BELQU8EB2L3QVOOKYBTD4","3GS6S824SS3PR71FL39IY426L8OWNZ","emotion","match","uniform","","","","","","","1151.5","67911.40000003576","69062.90000003576","[""stimuli/HF04_SUR.jpg"",""stimuli/AM06_HO.jpg"",""stimuli/WF04_FO.jpg"",""stimuli/BM04_SC.jpg""]","stimuli/HF04_SUR.jpg","stimuli/AM06_HO.jpg","stimuli/WF04_FO.jpg","stimuli/BM04_SC.jpg","pos3","stimuli/WF04_FO.jpg","FO","WF04","2","3","6","4","stimuli/stars_6.png","12.5","[""SUR"",""HO"",""FO"",""SC""]","[""HF04"",""AM06"",""WF04"",""BM04""]","[1,5,6,10]","[2,6,4,8]","","",""
"show-reward","16","70564","0.0-16.0","p565497","A2V27A9GZA1NR2","3WPCIUYH1BELQU8EB2L3QVOOKYBTD4","3GS6S824SS3PR71FL39IY426L8OWNZ","emotion","match","uniform","","","","","","","","69575.80000001192","71577.80000001192","","","","","","","","","","","","6","","stimuli/stars_6.png","12.5","","","","","stimuli/WF04_FO.jpg","",""
"explore-choice","17","72009","0.0-17.0","p565497","A2V27A9GZA1NR2","3WPCIUYH1BELQU8EB2L3QVOOKYBTD4","3GS6S824SS3PR71FL39IY426L8OWNZ","emotion","match","uniform","","","","","","","933.8000000119209","71578.60000002384","72512.40000003576","[""stimuli/AM06_FO.jpg"",""stimuli/WF04_SUR.jpg"",""stimuli/HF04_SC.jpg"",""stimuli/BM04_HO.jpg""]","stimuli/AM06_FO.jpg","stimuli/WF04_SUR.jpg","stimuli/HF04_SC.jpg","stimuli/BM04_HO.jpg","pos2","stimuli/WF04_SUR.jpg","SUR","WF04","1","0.5","1","2","stimuli/stars_1.png","13","[""FO"",""SUR"",""SC"",""HO""]","[""AM06"",""WF04"",""HF04"",""BM04""]","[5,1,9,7]","[4,2,8,6]","","",""
"show-reward","18","74011","0.0-18.0","p565497","A2V27A9GZA1NR2","3WPCIUYH1BELQU8EB2L3QVOOKYBTD4","3GS6S824SS3PR71FL39IY426L8OWNZ","emotion","match","uniform","","","","","","","","73023.40000003576","75025","","","","","","","","","","","","1","","stimuli/stars_1.png","13","","","","","stimuli/WF04_SUR.jpg","",""
"explore-choice","19","75964","0.0-19.0","p565497","A2V27A9GZA1NR2","3WPCIUYH1BELQU8EB2L3QVOOKYBTD4","3GS6S824SS3PR71FL39IY426L8OWNZ","emotion","match","uniform","","","","","","","1451.699999988079","75025.80000001192","76477.5","[""stimuli/AM06_SUR.jpg"",""stimuli/HF04_HO.jpg"",""stimuli/BM04_FO.jpg"",""stimuli/WF04_SC.jpg""]","stimuli/AM06_SUR.jpg","stimuli/HF04_HO.jpg","stimuli/BM04_FO.jpg","stimuli/WF04_SC.jpg","pos4","stimuli/WF04_SC.jpg","SC","WF04","3","4.5","9","8","stimuli/stars_9.png","17.5","[""SUR"",""HO"",""FO"",""SC""]","[""AM06"",""HF04"",""BM04"",""WF04""]","[2,8,6,9]","[2,6,4,8]","","",""
"show-reward","20","77966","0.0-20.0","p565497","A2V27A9GZA1NR2","3WPCIUYH1BELQU8EB2L3QVOOKYBTD4","3GS6S824SS3PR71FL39IY426L8OWNZ","emotion","match","uniform","","","","","","","","76978.69999998808","78980.30000001192","","","","","","","","","","","","9","","stimuli/stars_9.png","17.5","","","","","stimuli/WF04_SC.jpg","",""
"explore-choice","21","80167","0.0-21.0","p565497","A2V27A9GZA1NR2","3WPCIUYH1BELQU8EB2L3QVOOKYBTD4","3GS6S824SS3PR71FL39IY426L8OWNZ","emotion","match","uniform","","","","","","","1687.699999988079","78981.10000002384","80668.80000001192","[""stimuli/WF04_SUR.jpg"",""stimuli/BM04_SC.jpg"",""stimuli/HF04_FO.jpg"",""stimuli/AM06_HO.jpg""]","stimuli/WF04_SUR.jpg","stimuli/BM04_SC.jpg","stimuli/HF04_FO.jpg","stimuli/AM06_HO.jpg","pos2","stimuli/BM04_SC.jpg","SC","BM04","1","3.5","7","8","stimuli/stars_7.png","21","[""SUR"",""SC"",""FO"",""HO""]","[""WF04"",""BM04"",""HF04"",""AM06""]","[0,7,2,7]","[2,8,4,6]","","",""
"show-reward","22","82181","0.0-22.0","p565497","A2V27A9GZA1NR2","3WPCIUYH1BELQU8EB2L3QVOOKYBTD4","3GS6S824SS3PR71FL39IY426L8OWNZ","emotion","match","uniform","","","","","","","","81181.80000001192","83194.69999998808","","","","","","","","","","","","7","","stimuli/stars_7.png","21","","","","","stimuli/BM04_SC.jpg","",""
"explore-choice","23","84386","0.0-23.0","p565497","A2V27A9GZA1NR2","3WPCIUYH1BELQU8EB2L3QVOOKYBTD4","3GS6S824SS3PR71FL39IY426L8OWNZ","emotion","match","uniform","","","","","","","1704.800000011921","83195.5","84900.30000001192","[""stimuli/BM04_SC.jpg"",""stimuli/HF04_SUR.jpg"",""stimuli/WF04_HO.jpg"",""stimuli/AM06_FO.jpg""]","stimuli/BM04_SC.jpg","stimuli/HF04_SUR.jpg","stimuli/WF04_HO.jpg","stimuli/AM06_FO.jpg","pos1","stimuli/BM04_SC.jpg","SC","BM04","0","4.5","9","8","stimuli/stars_9.png","25.5","[""SC"",""SUR"",""HO"",""FO""]","[""BM04"",""HF04"",""WF04"",""AM06""]","[9,3,5,6]","[8,2,6,4]","","",""
"show-reward","24","86389","0.0-24.0","p565497","A2V27A9GZA1NR2","3WPCIUYH1BELQU8EB2L3QVOOKYBTD4","3GS6S824SS3PR71FL39IY426L8OWNZ","emotion","match","uniform","","","","","","","","85401.30000001192","87403.19999998808","","","","","","","","","","","","9","","stimuli/stars_9.png","25.5","","","","","stimuli/BM04_SC.jpg","",""
"explore-choice","25","89110","0.0-25.0","p565497","A2V27A9GZA1NR2","3WPCIUYH1BELQU8EB2L3QVOOKYBTD4","3GS6S824SS3PR71FL39IY426L8OWNZ","emotion","match","uniform","","","","","","","2219.899999976158","87403.90000003576","89623.80000001192","[""stimuli/AM06_FO.jpg"",""stimuli/WF04_SUR.jpg"",""stimuli/HF04_HO.jpg"",""stimuli/BM04_SC.jpg""]","stimuli/AM06_FO.jpg","stimuli/WF04_SUR.jpg","stimuli/HF04_HO.jpg","stimuli/BM04_SC.jpg","pos4","stimuli/BM04_SC.jpg","SC","BM04","3","3.5","7","8","stimuli/stars_7.png","29","[""FO"",""SUR"",""HO"",""SC""]","[""AM06"",""WF04"",""HF04"",""BM04""]","[3,2,5,7]","[4,2,6,8]","","",""
"show-reward","26","91120","0.0-26.0","p565497","A2V27A9GZA1NR2","3WPCIUYH1BELQU8EB2L3QVOOKYBTD4","3GS6S824SS3PR71FL39IY426L8OWNZ","emotion","match","uniform","","","","","","","","90124.69999998808","92134.5","","","","","","","","","","","","7","","stimuli/stars_7.png","29","","","","","stimuli/BM04_SC.jpg","",""
"explore-choice","27","93510","0.0-27.0","p565497","A2V27A9GZA1NR2","3WPCIUYH1BELQU8EB2L3QVOOKYBTD4","3GS6S824SS3PR71FL39IY426L8OWNZ","emotion","match","uniform","","","","","","","1888.9000000357628","92135.19999998808","94024.10000002384","[""stimuli/HF04_HO.jpg"",""stimuli/WF04_SUR.jpg"",""stimuli/BM04_FO.jpg"",""stimuli/AM06_SC.jpg""]","stimuli/HF04_HO.jpg","stimuli/WF04_SUR.jpg","stimuli/BM04_FO.jpg","stimuli/AM06_SC.jpg","pos3","stimuli/BM04_FO.jpg","FO","BM04","2","1.5","3","4","stimuli/stars_3.png","30.5","[""HO"",""SUR"",""FO"",""SC""]","[""HF04"",""WF04"",""BM04"",""AM06""]","[5,4,3,6]","[6,2,4,8]","","",""
"show-reward","28","95514","0.0-28.0","p565497","A2V27A9GZA1NR2","3WPCIUYH1BELQU8EB2L3QVOOKYBTD4","3GS6S824SS3PR71FL39IY426L8OWNZ","emotion","match","uniform","","","","","","","","94525.19999998808","96528.19999998808","","","","","","","","","","","","3","","stimuli/stars_3.png","30.5","","","","","stimuli/BM04_FO.jpg","",""
"explore-choice","29","97070","0.0-29.0","p565497","A2V27A9GZA1NR2","3WPCIUYH1BELQU8EB2L3QVOOKYBTD4","3GS6S824SS3PR71FL39IY426L8OWNZ","emotion","match","uniform","","","","","","","1054.5","96529","97583.5","[""stimuli/WF04_FO.jpg"",""stimuli/BM04_SUR.jpg"",""stimuli/AM06_SC.jpg"",""stimuli/HF04_HO.jpg""]","stimuli/WF04_FO.jpg","stimuli/BM04_SUR.jpg","stimuli/AM06_SC.jpg","stimuli/HF04_HO.jpg","pos1","stimuli/WF04_FO.jpg","FO","WF04","0","3","6","4","stimuli/stars_6.png","33.5","[""FO"",""SUR"",""SC"",""HO""]","[""WF04"",""BM04"",""AM06"",""HF04""]","[6,2,7,4]","[4,2,8,6]","","",""
"show-reward","30","99072","0.0-30.0","p565497","A2V27A9GZA1NR2","3WPCIUYH1BELQU8EB2L3QVOOKYBTD4","3GS6S824SS3PR71FL39IY426L8OWNZ","emotion","match","uniform","","","","","","","","98084.60000002384","100086.5","","","","","","","","","","","","6","","stimuli/stars_6.png","33.5","","","","","stimuli/WF04_FO.jpg","",""
"explore-choice","31","101496","0.0-31.0","p565497","A2V27A9GZA1NR2","3WPCIUYH1BELQU8EB2L3QVOOKYBTD4","3GS6S824SS3PR71FL39IY426L8OWNZ","emotion","match","uniform","","","","","","","1922.7000000476837","100087.19999998808","102009.90000003576","[""stimuli/BM04_FO.jpg"",""stimuli/WF04_HO.jpg"",""stimuli/HF04_SUR.jpg"",""stimuli/AM06_SC.jpg""]","stimuli/BM04_FO.jpg","stimuli/WF04_HO.jpg","stimuli/HF04_SUR.jpg","stimuli/AM06_SC.jpg","pos1","stimuli/BM04_FO.jpg","FO","BM04","0","1.5","3","4","stimuli/stars_3.png","35","[""FO"",""HO"",""SUR"",""SC""]","[""BM04"",""WF04"",""HF04"",""AM06""]","[3,4,3,10]","[4,6,2,8]","","",""
"show-reward","32","103509","0.0-32.0","p565497","A2V27A9GZA1NR2","3WPCIUYH1BELQU8EB2L3QVOOKYBTD4","3GS6S824SS3PR71FL39IY426L8OWNZ","emotion","match","uniform","","","","","","","","102511.10000002384","104523.5","","","","","","","","","","","","3","","stimuli/stars_3.png","35","","","","","stimuli/BM04_FO.jpg","",""
"explore-choice","33","106582","0.0-33.0","p565497","A2V27A9GZA1NR2","3WPCIUYH1BELQU8EB2L3QVOOKYBTD4","3GS6S824SS3PR71FL39IY426L8OWNZ","emotion","match","uniform","","","","","","","2567.400000035763","104524.19999998808","107091.60000002384","[""stimuli/HF04_FO.jpg"",""stimuli/AM06_SC.jpg"",""stimuli/WF04_SUR.jpg"",""stimuli/BM04_HO.jpg""]","stimuli/HF04_FO.jpg","stimuli/AM06_SC.jpg","stimuli/WF04_SUR.jpg","stimuli/BM04_HO.jpg","pos2","stimuli/AM06_SC.jpg","SC","AM06","1","3.5","7","8","stimuli/stars_7.png","38.5","[""FO"",""SC"",""SUR"",""HO""]","[""HF04"",""AM06"",""WF04"",""BM04""]","[2,7,2,8]","[4,8,2,6]","","",""
"show-reward","34","108587","0.0-34.0","p565497","A2V27A9GZA1NR2","3WPCIUYH1BELQU8EB2L3QVOOKYBTD4","3GS6S824SS3PR71FL39IY426L8OWNZ","emotion","match","uniform","","","","","","","","107597.30000001192","109601.10000002384","","","","","","","","","","","","7","","stimuli/stars_7.png","38.5","","","","","stimuli/AM06_SC.jpg","",""
"explore-choice","35","111901","0.0-35.0","p565497","A2V27A9GZA1NR2","3WPCIUYH1BELQU8EB2L3QVOOKYBTD4","3GS6S824SS3PR71FL39IY426L8OWNZ","emotion","match","uniform","","","","","","","2812.5","109601.69999998808","112414.19999998808","[""stimuli/WF04_FO.jpg"",""stimuli/HF04_SC.jpg"",""stimuli/BM04_HO.jpg"",""stimuli/AM06_SUR.jpg""]","stimuli/WF04_FO.jpg","stimuli/HF04_SC.jpg","stimuli/BM04_HO.jpg","stimuli/AM06_SUR.jpg","pos2","stimuli/HF04_SC.jpg","SC","HF04","1","5","10","8","stimuli/stars_10.png","43.5","[""FO"",""SC"",""HO"",""SUR""]","[""WF04"",""HF04"",""BM04"",""AM06""]","[4,10,7,1]","[4,8,6,2]","","",""
"show-reward","36","113904","0.0-36.0","p565497","A2V27A9GZA1NR2","3WPCIUYH1BELQU8EB2L3QVOOKYBTD4","3GS6S824SS3PR71FL39IY426L8OWNZ","emotion","match","uniform","","","","","","","","112916","114917.80000001192","","","","","","","","","","","","10","","stimuli/stars_10.png","43.5","","","","","stimuli/HF04_SC.jpg","",""
"explore-choice","37","116285","0.0-37.0","p565497","A2V27A9GZA1NR2","3WPCIUYH1BELQU8EB2L3QVOOKYBTD4","3GS6S824SS3PR71FL39IY426L8OWNZ","emotion","match","uniform","","","","","","","1880","114918.40000003576","116798.40000003576","[""stimuli/AM06_HO.jpg"",""stimuli/BM04_SUR.jpg"",""stimuli/HF04_SC.jpg"",""stimuli/WF04_FO.jpg""]","stimuli/AM06_HO.jpg","stimuli/BM04_SUR.jpg","stimuli/HF04_SC.jpg","stimuli/WF04_FO.jpg","pos3","stimuli/HF04_SC.jpg","SC","HF04","2","3.5","7","8","stimuli/stars_7.png","47","[""HO"",""SUR"",""SC"",""FO""]","[""AM06"",""BM04"",""HF04"",""WF04""]","[5,3,7,5]","[6,2,8,4]","","",""
"show-reward","38","118288","0.0-38.0","p565497","A2V27A9GZA1NR2","3WPCIUYH1BELQU8EB2L3QVOOKYBTD4","3GS6S824SS3PR71FL39IY426L8OWNZ","emotion","match","uniform","","","","","","","","117299.90000003576","119302.5","","","","","","","","","","","","7","","stimuli/stars_7.png","47","","","","","stimuli/HF04_SC.jpg","",""
"explore-choice","39","120705","0.0-39.0","p565497","A2V27A9GZA1NR2","3WPCIUYH1BELQU8EB2L3QVOOKYBTD4","3GS6S824SS3PR71FL39IY426L8OWNZ","emotion","match","uniform","","","","","","","1914.699999988079","119303.10000002384","121217.80000001192","[""stimuli/HF04_SC.jpg"",""stimuli/AM06_FO.jpg"",""stimuli/WF04_HO.jpg"",""stimuli/BM04_SUR.jpg""]","stimuli/HF04_SC.jpg","stimuli/AM06_FO.jpg","stimuli/WF04_HO.jpg","stimuli/BM04_SUR.jpg","pos1","stimuli/HF04_SC.jpg","SC","HF04","0","4.5","9","8","stimuli/stars_9.png","51.5","[""SC"",""FO"",""HO"",""SUR""]","[""HF04"",""AM06"",""WF04"",""BM04""]","[9,2,8,4]","[8,4,6,2]","","",""
"show-reward","40","122707","0.0-40.0","p565497","A2V27A9GZA1NR2","3WPCIUYH1BELQU8EB2L3QVOOKYBTD4","3GS6S824SS3PR71FL39IY426L8OWNZ","emotion","match","uniform","","","","","","","","121719.19999998808","123721.19999998808","","","","","","","","","","","","9","","stimuli/stars_9.png","51.5","","","","","stimuli/HF04_SC.jpg","",""
"explore-choice","41","125131","0.0-41.0","p565497","A2V27A9GZA1NR2","3WPCIUYH1BELQU8EB2L3QVOOKYBTD4","3GS6S824SS3PR71FL39IY426L8OWNZ","emotion","match","uniform","","","","","","","1922.5","123721.80000001192","125644.30000001192","[""stimuli/BM04_FO.jpg"",""stimuli/WF04_SUR.jpg"",""stimuli/HF04_SC.jpg"",""stimuli/AM06_HO.jpg""]","stimuli/BM04_FO.jpg","stimuli/WF04_SUR.jpg","stimuli/HF04_SC.jpg","stimuli/AM06_HO.jpg","pos3","stimuli/HF04_SC.jpg","SC","HF04","2","4","8","8","stimuli/stars_8.png","55.5","[""FO"",""SUR"",""SC"",""HO""]","[""BM04"",""WF04"",""HF04"",""AM06""]","[4,1,8,8]","[4,2,8,6]","","",""
"show-reward","42","127133","0.0-42.0","p565497","A2V27A9GZA1NR2","3WPCIUYH1BELQU8EB2L3QVOOKYBTD4","3GS6S824SS3PR71FL39IY426L8OWNZ","emotion","match","uniform","","","","","","","","126145.60000002384","128147","","","","","","","","","","","","8","","stimuli/stars_8.png","55.5","","","","","stimuli/HF04_SC.jpg","",""
"explore-choice","43","129436","0.0-43.0","p565497","A2V27A9GZA1NR2","3WPCIUYH1BELQU8EB2L3QVOOKYBTD4","3GS6S824SS3PR71FL39IY426L8OWNZ","emotion","match","uniform","","","","","","","1796","128147.69999998808","129943.69999998808","[""stimuli/AM06_SUR.jpg"",""stimuli/BM04_FO.jpg"",""stimuli/WF04_HO.jpg"",""stimuli/HF04_SC.jpg""]","stimuli/AM06_SUR.jpg","stimuli/BM04_FO.jpg","stimuli/WF04_HO.jpg","stimuli/HF04_SC.jpg","pos4","stimuli/HF04_SC.jpg","SC","HF04","3","3","6","8","stimuli/stars_6.png","58.5","[""SUR"",""FO"",""HO"",""SC""]","[""AM06"",""BM04"",""WF04"",""HF04""]","[4,5,6,6]","[2,4,6,8]","","",""
"show-reward","44","131438","0.0-44.0","p565497","A2V27A9GZA1NR2","3WPCIUYH1BELQU8EB2L3QVOOKYBTD4","3GS6S824SS3PR71FL39IY426L8OWNZ","emotion","match","uniform","","","","","","","","130450.30000001192","132452.30000001192","","","","","","","","","","","","6","","stimuli/stars_6.png","58.5","","","","","stimuli/HF04_SC.jpg","",""
"explore-choice","45","134335","0.0-45.0","p565497","A2V27A9GZA1NR2","3WPCIUYH1BELQU8EB2L3QVOOKYBTD4","3GS6S824SS3PR71FL39IY426L8OWNZ","emotion","match","uniform","","","","","","","2395.099999964237","132453.10000002384","134848.19999998808","[""stimuli/HF04_HO.jpg"",""stimuli/AM06_SUR.jpg"",""stimuli/WF04_FO.jpg"",""stimuli/BM04_SC.jpg""]","stimuli/HF04_HO.jpg","stimuli/AM06_SUR.jpg","stimuli/WF04_FO.jpg","stimuli/BM04_SC.jpg","pos4","stimuli/BM04_SC.jpg","SC","BM04","3","4.5","9","8","stimuli/stars_9.png","63","[""HO"",""SUR"",""FO"",""SC""]","[""HF04"",""AM06"",""WF04"",""BM04""]","[5,3,5,9]","[6,2,4,8]","","",""
"show-reward","46","136337","0.0-46.0","p565497","A2V27A9GZA1NR2","3WPCIUYH1BELQU8EB2L3QVOOKYBTD4","3GS6S824SS3PR71FL39IY426L8OWNZ","emotion","match","uniform","","","","","","","","135349.10000002384","137351.19999998808","","","","","","","","","","","","9","","stimuli/stars_9.png","63","","","","","stimuli/BM04_SC.jpg","",""
"explore-choice","47","138807","0.0-47.0","p565497","A2V27A9GZA1NR2","3WPCIUYH1BELQU8EB2L3QVOOKYBTD4","3GS6S824SS3PR71FL39IY426L8OWNZ","emotion","match","uniform","","","","","","","1968.7999999523163","137351.90000003576","139320.69999998808","[""stimuli/HF04_FO.jpg"",""stimuli/WF04_HO.jpg"",""stimuli/BM04_SUR.jpg"",""stimuli/AM06_SC.jpg""]","stimuli/HF04_FO.jpg","stimuli/WF04_HO.jpg","stimuli/BM04_SUR.jpg","stimuli/AM06_SC.jpg","pos4","stimuli/AM06_SC.jpg","SC","AM06","3","4.5","9","8","stimuli/stars_9.png","67.5","[""FO"",""HO"",""SUR"",""SC""]","[""HF04"",""WF04"",""BM04"",""AM06""]","[4,7,4,9]","[4,6,2,8]","","",""
"show-reward","48","140810","0.0-48.0","p565497","A2V27A9GZA1NR2","3WPCIUYH1BELQU8EB2L3QVOOKYBTD4","3GS6S824SS3PR71FL39IY426L8OWNZ","emotion","match","uniform","","","","","","","","139821.90000003576","141823.90000003576","","","","","","","","","","","","9","","stimuli/stars_9.png","67.5","","","","","stimuli/AM06_SC.jpg","",""
"explore-choice","49","144148","0.0-49.0","p565497","A2V27A9GZA1NR2","3WPCIUYH1BELQU8EB2L3QVOOKYBTD4","3GS6S824SS3PR71FL39IY426L8OWNZ","emotion","match","uniform","","","","","","","2836.600000023842","141824.69999998808","144661.30000001192","[""stimuli/BM04_SC.jpg"",""stimuli/AM06_SUR.jpg"",""stimuli/HF04_FO.jpg"",""stimuli/WF04_HO.jpg""]","stimuli/BM04_SC.jpg","stimuli/AM06_SUR.jpg","stimuli/HF04_FO.jpg","stimuli/WF04_HO.jpg","pos1","stimuli/BM04_SC.jpg","SC","BM04","0","5","10","8","stimuli/stars_10.png","72.5","[""SC"",""SUR"",""FO"",""HO""]","[""BM04"",""AM06"",""HF04"",""WF04""]","[10,3,5,8]","[8,2,4,6]","","",""
"show-reward","50","146151","0.0-50.0","p565497","A2V27A9GZA1NR2","3WPCIUYH1BELQU8EB2L3QVOOKYBTD4","3GS6S824SS3PR71FL39IY426L8OWNZ","emotion","match","uniform","","","","","","","","145162.5","147165.19999998808","","","","","","","","","","","","10","","stimuli/stars_10.png","72.5","","","","","stimuli/BM04_SC.jpg","",""
"explore-choice","51","148655","0.0-51.0","p565497","A2V27A9GZA1NR2","3WPCIUYH1BELQU8EB2L3QVOOKYBTD4","3GS6S824SS3PR71FL39IY426L8OWNZ","emotion","match","uniform","","","","","","","2002.5","147166","149168.5","[""stimuli/BM04_HO.jpg"",""stimuli/AM06_SUR.jpg"",""stimuli/HF04_FO.jpg"",""stimuli/WF04_SC.jpg""]","stimuli/BM04_HO.jpg","stimuli/AM06_SUR.jpg","stimuli/HF04_FO.jpg","stimuli/WF04_SC.jpg","pos4","stimuli/WF04_SC.jpg","SC","WF04","3","4","8","8","stimuli/stars_8.png","76.5","[""HO"",""SUR"",""FO"",""SC""]","[""BM04"",""AM06"",""HF04"",""WF04""]","[5,0,4,8]","[6,2,4,8]","","",""
"show-reward","52","150658","0.0-52.0","p565497","A2V27A9GZA1NR2","3WPCIUYH1BELQU8EB2L3QVOOKYBTD4","3GS6S824SS3PR71FL39IY426L8OWNZ","emotion","match","uniform","","","","","","","","149669.90000003576","151672.10000002384","","","","","","","","","","","","8","","stimuli/stars_8.png","76.5","","","","","stimuli/WF04_SC.jpg","",""
"explore-choice","53","153022","0.0-53.0","p565497","A2V27A9GZA1NR2","3WPCIUYH1BELQU8EB2L3QVOOKYBTD4","3GS6S824SS3PR71FL39IY426L8OWNZ","emotion","match","uniform","","","","","","","1862.199999988079","151672.90000003576","153535.10000002384","[""stimuli/WF04_SC.jpg"",""stimuli/AM06_FO.jpg"",""stimuli/HF04_HO.jpg"",""stimuli/BM04_SUR.jpg""]","stimuli/WF04_SC.jpg","stimuli/AM06_FO.jpg","stimuli/HF04_HO.jpg","stimuli/BM04_SUR.jpg","pos1","stimuli/WF04_SC.jpg","SC","WF04","0","3","6","8","stimuli/stars_6.png","79.5","[""SC"",""FO"",""HO"",""SUR""]","[""WF04"",""AM06"",""HF04"",""BM04""]","[6,5,4,4]","[8,4,6,2]","","",""
"show-reward","54","155024","0.0-54.0","p565497","A2V27A9GZA1NR2","3WPCIUYH1BELQU8EB2L3QVOOKYBTD4","3GS6S824SS3PR71FL39IY426L8OWNZ","emotion","match","uniform","","","","","","","","154036.30000001192","156037.90000003576","","","","","","","","","","","","6","","stimuli/stars_6.png","79.5","","","","","stimuli/WF04_SC.jpg","",""
"explore-choice","55","157651","0.0-55.0","p565497","A2V27A9GZA1NR2","3WPCIUYH1BELQU8EB2L3QVOOKYBTD4","3GS6S824SS3PR71FL39IY426L8OWNZ","emotion","match","uniform","","","","","","","2112.899999976158","156038.60000002384","158151.5","[""stimuli/HF04_HO.jpg"",""stimuli/WF04_FO.jpg"",""stimuli/AM06_SUR.jpg"",""stimuli/BM04_SC.jpg""]","stimuli/HF04_HO.jpg","stimuli/WF04_FO.jpg","stimuli/AM06_SUR.jpg","stimuli/BM04_SC.jpg","pos4","stimuli/BM04_SC.jpg","SC","BM04","3","4.5","9","8","stimuli/stars_9.png","84","[""HO"",""FO"",""SUR"",""SC""]","[""HF04"",""WF04"",""AM06"",""BM04""]","[5,5,3,9]","[6,4,2,8]","","",""
"show-reward","56","159654","0.0-56.0","p565497","A2V27A9GZA1NR2","3WPCIUYH1BELQU8EB2L3QVOOKYBTD4","3GS6S824SS3PR71FL39IY426L8OWNZ","emotion","match","uniform","","","","","","","","158665.19999998808","160667.69999998808","","","","","","","","","","","","9","","stimuli/stars_9.png","84","","","","","stimuli/BM04_SC.jpg","",""
"explore-choice","57","161706","0.0-57.0","p565497","A2V27A9GZA1NR2","3WPCIUYH1BELQU8EB2L3QVOOKYBTD4","3GS6S824SS3PR71FL39IY426L8OWNZ","emotion","match","uniform","","","","","","","1550.5999999642372","160668.40000003576","162219","[""stimuli/BM04_FO.jpg"",""stimuli/HF04_SC.jpg"",""stimuli/AM06_HO.jpg"",""stimuli/WF04_SUR.jpg""]","stimuli/BM04_FO.jpg","stimuli/HF04_SC.jpg","stimuli/AM06_HO.jpg","stimuli/WF04_SUR.jpg","pos2","stimuli/HF04_SC.jpg","SC","HF04","1","4","8","8","stimuli/stars_8.png","88","[""FO"",""SC"",""HO"",""SUR""]","[""BM04"",""HF04"",""AM06"",""WF04""]","[4,8,8,1]","[4,8,6,2]","","",""
"show-reward","58","163709","0.0-58.0","p565497","A2V27A9GZA1NR2","3WPCIUYH1BELQU8EB2L3QVOOKYBTD4","3GS6S824SS3PR71FL39IY426L8OWNZ","emotion","match","uniform","","","","","","","","162720.5","164722.90000003576","","","","","","","","","","","","8","","stimuli/stars_8.png","88","","","","","stimuli/HF04_SC.jpg","",""
"explore-choice","59","166298","0.0-59.0","p565497","A2V27A9GZA1NR2","3WPCIUYH1BELQU8EB2L3QVOOKYBTD4","3GS6S824SS3PR71FL39IY426L8OWNZ","emotion","match","uniform","","","","","","","2087.800000011921","164723.60000002384","166811.40000003576","[""stimuli/WF04_FO.jpg"",""stimuli/AM06_SC.jpg"",""stimuli/BM04_HO.jpg"",""stimuli/HF04_SUR.jpg""]","stimuli/WF04_FO.jpg","stimuli/AM06_SC.jpg","stimuli/BM04_HO.jpg","stimuli/HF04_SUR.jpg","pos2","stimuli/AM06_SC.jpg","SC","AM06","1","3.5","7","8","stimuli/stars_7.png","91.5","[""FO"",""SC"",""HO"",""SUR""]","[""WF04"",""AM06"",""BM04"",""HF04""]","[3,7,5,1]","[4,8,6,2]","","",""
"show-reward","60","168301","0.0-60.0","p565497","A2V27A9GZA1NR2","3WPCIUYH1BELQU8EB2L3QVOOKYBTD4","3GS6S824SS3PR71FL39IY426L8OWNZ","emotion","match","uniform","","","","","","","","167312.69999998808","169314.80000001192","","","","","","","","","","","","7","","stimuli/stars_7.png","91.5","","","","","stimuli/AM06_SC.jpg","",""
"explore-choice","61","171611","0.0-61.0","p565497","A2V27A9GZA1NR2","3WPCIUYH1BELQU8EB2L3QVOOKYBTD4","3GS6S824SS3PR71FL39IY426L8OWNZ","emotion","match","uniform","","","","","","","2809.5","169315.40000003576","172124.90000003576","[""stimuli/AM06_HO.jpg"",""stimuli/BM04_SC.jpg"",""stimuli/WF04_FO.jpg"",""stimuli/HF04_SUR.jpg""]","stimuli/AM06_HO.jpg","stimuli/BM04_SC.jpg","stimuli/WF04_FO.jpg","stimuli/HF04_SUR.jpg","pos2","stimuli/BM04_SC.jpg","SC","BM04","1","5","10","8","stimuli/stars_10.png","96.5","[""HO"",""SC"",""FO"",""SUR""]","[""AM06"",""BM04"",""WF04"",""HF04""]","[5,10,6,1]","[6,8,4,2]","","",""
"show-reward","62","173618","0.0-62.0","p565497","A2V27A9GZA1NR2","3WPCIUYH1BELQU8EB2L3QVOOKYBTD4","3GS6S824SS3PR71FL39IY426L8OWNZ","emotion","match","uniform","","","","","","","","172625.80000001192","174631.80000001192","","","","","","","","","","","","10","","stimuli/stars_10.png","96.5","","","","","stimuli/BM04_SC.jpg","",""
"explore-choice","63","175571","0.0-63.0","p565497","A2V27A9GZA1NR2","3WPCIUYH1BELQU8EB2L3QVOOKYBTD4","3GS6S824SS3PR71FL39IY426L8OWNZ","emotion","match","uniform","","","","","","","1452.699999988079","174632.5","176085.19999998808","[""stimuli/HF04_FO.jpg"",""stimuli/WF04_HO.jpg"",""stimuli/AM06_SUR.jpg"",""stimuli/BM04_SC.jpg""]","stimuli/HF04_FO.jpg","stimuli/WF04_HO.jpg","stimuli/AM06_SUR.jpg","stimuli/BM04_SC.jpg","pos4","stimuli/BM04_SC.jpg","SC","BM04","3","5","10","8","stimuli/stars_10.png","101.5","[""FO"",""HO"",""SUR"",""SC""]","[""HF04"",""WF04"",""AM06"",""BM04""]","[5,8,3,10]","[4,6,2,8]","","",""
"show-reward","64","177582","0.0-64.0","p565497","A2V27A9GZA1NR2","3WPCIUYH1BELQU8EB2L3QVOOKYBTD4","3GS6S824SS3PR71FL39IY426L8OWNZ","emotion","match","uniform","","","","","","","","176586.30000001192","178596.40000003576","","","","","","","","","","","","10","","stimuli/stars_10.png","101.5","","","","","stimuli/BM04_SC.jpg","",""
"explore-choice","65","180376","0.0-65.0","p565497","A2V27A9GZA1NR2","3WPCIUYH1BELQU8EB2L3QVOOKYBTD4","3GS6S824SS3PR71FL39IY426L8OWNZ","emotion","match","uniform","","","","","","","2292.800000011921","178597","180889.80000001192","[""stimuli/AM06_SC.jpg"",""stimuli/HF04_HO.jpg"",""stimuli/BM04_SUR.jpg"",""stimuli/WF04_FO.jpg""]","stimuli/AM06_SC.jpg","stimuli/HF04_HO.jpg","stimuli/BM04_SUR.jpg","stimuli/WF04_FO.jpg","pos1","stimuli/AM06_SC.jpg","SC","AM06","0","3.5","7","8","stimuli/stars_7.png","105","[""SC"",""HO"",""SUR"",""FO""]","[""AM06"",""HF04"",""BM04"",""WF04""]","[7,4,2,6]","[8,6,2,4]","","",""
"show-reward","66","182379","0.0-66.0","p565497","A2V27A9GZA1NR2","3WPCIUYH1BELQU8EB2L3QVOOKYBTD4","3GS6S824SS3PR71FL39IY426L8OWNZ","emotion","match","uniform","","","","","","","","181391.19999998808","183393.5","","","","","","","","","","","","7","","stimuli/stars_7.png","105","","","","","stimuli/AM06_SC.jpg","",""
"explore-choice","67","184285","0.0-67.0","p565497","A2V27A9GZA1NR2","3WPCIUYH1BELQU8EB2L3QVOOKYBTD4","3GS6S824SS3PR71FL39IY426L8OWNZ","emotion","match","uniform","","","","","","","1404.9000000357628","183394.19999998808","184799.10000002384","[""stimuli/HF04_SC.jpg"",""stimuli/AM06_FO.jpg"",""stimuli/BM04_HO.jpg"",""stimuli/WF04_SUR.jpg""]","stimuli/HF04_SC.jpg","stimuli/AM06_FO.jpg","stimuli/BM04_HO.jpg","stimuli/WF04_SUR.jpg","pos1","stimuli/HF04_SC.jpg","SC","HF04","0","4.5","9","8","stimuli/stars_9.png","109.5","[""SC"",""FO"",""HO"",""SUR""]","[""HF04"",""AM06"",""BM04"",""WF04""]","[9,5,7,1]","[8,4,6,2]","","",""
"show-reward","68","186288","0.0-68.0","p565497","A2V27A9GZA1NR2","3WPCIUYH1BELQU8EB2L3QVOOKYBTD4","3GS6S824SS3PR71FL39IY426L8OWNZ","emotion","match","uniform","","","","","","","","185300","187302.19999998808","","","","","","","","","","","","9","","stimuli/stars_9.png","109.5","","","","","stimuli/HF04_SC.jpg","",""
"explore-choice","69","188383","0.0-69.0","p565497","A2V27A9GZA1NR2","3WPCIUYH1BELQU8EB2L3QVOOKYBTD4","3GS6S824SS3PR71FL39IY426L8OWNZ","emotion","match","uniform","","","","","","","1593.699999988079","187302.90000003576","188896.60000002384","[""stimuli/AM06_SUR.jpg"",""stimuli/WF04_FO.jpg"",""stimuli/HF04_SC.jpg"",""stimuli/BM04_HO.jpg""]","stimuli/AM06_SUR.jpg","stimuli/WF04_FO.jpg","stimuli/HF04_SC.jpg","stimuli/BM04_HO.jpg","pos3","stimuli/HF04_SC.jpg","SC","HF04","2","5","10","8","stimuli/stars_10.png","114.5","[""SUR"",""FO"",""SC"",""HO""]","[""AM06"",""WF04"",""HF04"",""BM04""]","[1,4,10,7]","[2,4,8,6]","","",""
"show-reward","70","190386","0.0-70.0","p565497","A2V27A9GZA1NR2","3WPCIUYH1BELQU8EB2L3QVOOKYBTD4","3GS6S824SS3PR71FL39IY426L8OWNZ","emotion","match","uniform","","","","","","","","189398.19999998808","191400.10000002384","","","","","","","","","","","","10","","stimuli/stars_10.png","114.5","","","","","stimuli/HF04_SC.jpg","",""
"explore-choice","71","193397","0.0-71.0","p565497","A2V27A9GZA1NR2","3WPCIUYH1BELQU8EB2L3QVOOKYBTD4","3GS6S824SS3PR71FL39IY426L8OWNZ","emotion","match","uniform","","","","","","","2509.300000011921","191400.80000001192","193910.10000002384","[""stimuli/BM04_SC.jpg"",""stimuli/HF04_SUR.jpg"",""stimuli/AM06_FO.jpg"",""stimuli/WF04_HO.jpg""]","stimuli/BM04_SC.jpg","stimuli/HF04_SUR.jpg","stimuli/AM06_FO.jpg","stimuli/WF04_HO.jpg","pos1","stimuli/BM04_SC.jpg","SC","BM04","0","4.5","9","8","stimuli/stars_9.png","119","[""SC"",""SUR"",""FO"",""HO""]","[""BM04"",""HF04"",""AM06"",""WF04""]","[9,3,6,5]","[8,2,4,6]","","",""
"show-reward","72","195400","0.0-72.0","p565497","A2V27A9GZA1NR2","3WPCIUYH1BELQU8EB2L3QVOOKYBTD4","3GS6S824SS3PR71FL39IY426L8OWNZ","emotion","match","uniform","","","","","","","","194411.60000002384","196414.10000002384","","","","","","","","","","","","9","","stimuli/stars_9.png","119","","","","","stimuli/BM04_SC.jpg","",""
"explore-choice","73","198655","0.0-73.0","p565497","A2V27A9GZA1NR2","3WPCIUYH1BELQU8EB2L3QVOOKYBTD4","3GS6S824SS3PR71FL39IY426L8OWNZ","emotion","match","uniform","","","","","","","2753.5","196414.90000003576","199168.40000003576","[""stimuli/WF04_SC.jpg"",""stimuli/AM06_HO.jpg"",""stimuli/HF04_FO.jpg"",""stimuli/BM04_SUR.jpg""]","stimuli/WF04_SC.jpg","stimuli/AM06_HO.jpg","stimuli/HF04_FO.jpg","stimuli/BM04_SUR.jpg","pos1","stimuli/WF04_SC.jpg","SC","WF04","0","3","6","8","stimuli/stars_6.png","122","[""SC"",""HO"",""FO"",""SUR""]","[""WF04"",""AM06"",""HF04"",""BM04""]","[6,5,5,1]","[8,6,4,2]","","",""
"show-reward","74","200658","0.0-74.0","p565497","A2V27A9GZA1NR2","3WPCIUYH1BELQU8EB2L3QVOOKYBTD4","3GS6S824SS3PR71FL39IY426L8OWNZ","emotion","match","uniform","","","","","","","","199669.90000003576","201672.19999998808","","","","","","","","","","","","6","","stimuli/stars_6.png","122","","","","","stimuli/WF04_SC.jpg","",""
"explore-choice","75","204592","0.0-75.0","p565497","A2V27A9GZA1NR2","3WPCIUYH1BELQU8EB2L3QVOOKYBTD4","3GS6S824SS3PR71FL39IY426L8OWNZ","emotion","match","uniform","","","","","","","3433.399999976158","201672.90000003576","205106.30000001192","[""stimuli/AM06_SC.jpg"",""stimuli/HF04_FO.jpg"",""stimuli/BM04_HO.jpg"",""stimuli/WF04_SUR.jpg""]","stimuli/AM06_SC.jpg","stimuli/HF04_FO.jpg","stimuli/BM04_HO.jpg","stimuli/WF04_SUR.jpg","pos1","stimuli/AM06_SC.jpg","SC","AM06","0","3.5","7","8","stimuli/stars_7.png","125.5","[""SC"",""FO"",""HO"",""SUR""]","[""AM06"",""HF04"",""BM04"",""WF04""]","[7,2,8,2]","[8,4,6,2]","","",""
"show-reward","76","206595","0.0-76.0","p565497","A2V27A9GZA1NR2","3WPCIUYH1BELQU8EB2L3QVOOKYBTD4","3GS6S824SS3PR71FL39IY426L8OWNZ","emotion","match","uniform","","","","","","","","205607.19999998808","207609.5","","","","","","","","","","","","7","","stimuli/stars_7.png","125.5","","","","","stimuli/AM06_SC.jpg","",""
"explore-choice","77","208665","0.0-77.0","p565497","A2V27A9GZA1NR2","3WPCIUYH1BELQU8EB2L3QVOOKYBTD4","3GS6S824SS3PR71FL39IY426L8OWNZ","emotion","match","uniform","","","","","","","1568.7000000476837","207610.19999998808","209178.90000003576","[""stimuli/AM06_SC.jpg"",""stimuli/WF04_HO.jpg"",""stimuli/HF04_FO.jpg"",""stimuli/BM04_SUR.jpg""]","stimuli/AM06_SC.jpg","stimuli/WF04_HO.jpg","stimuli/HF04_FO.jpg","stimuli/BM04_SUR.jpg","pos1","stimuli/AM06_SC.jpg","SC","AM06","0","4.5","9","8","stimuli/stars_9.png","130","[""SC"",""HO"",""FO"",""SUR""]","[""AM06"",""WF04"",""HF04"",""BM04""]","[9,7,4,4]","[8,6,4,2]","","",""
"show-reward","78","210669","0.0-78.0","p565497","A2V27A9GZA1NR2","3WPCIUYH1BELQU8EB2L3QVOOKYBTD4","3GS6S824SS3PR71FL39IY426L8OWNZ","emotion","match","uniform","","","","","","","","209680.30000001192","211683.19999998808","","","","","","","","","","","","9","","stimuli/stars_9.png","130","","","","","stimuli/AM06_SC.jpg","",""
"explore-choice","79","212856","0.0-79.0","p565497","A2V27A9GZA1NR2","3WPCIUYH1BELQU8EB2L3QVOOKYBTD4","3GS6S824SS3PR71FL39IY426L8OWNZ","emotion","match","uniform","","","","","","","1683.199999988079","211684","213367.19999998808","[""stimuli/WF04_SC.jpg"",""stimuli/HF04_SUR.jpg"",""stimuli/AM06_FO.jpg"",""stimuli/BM04_HO.jpg""]","stimuli/WF04_SC.jpg","stimuli/HF04_SUR.jpg","stimuli/AM06_FO.jpg","stimuli/BM04_HO.jpg","pos1","stimuli/WF04_SC.jpg","SC","WF04","0","4.5","9","8","stimuli/stars_9.png","134.5","[""SC"",""SUR"",""FO"",""HO""]","[""WF04"",""HF04"",""AM06"",""BM04""]","[9,1,2,4]","[8,2,4,6]","","",""
"show-reward","80","214859","0.0-80.0","p565497","A2V27A9GZA1NR2","3WPCIUYH1BELQU8EB2L3QVOOKYBTD4","3GS6S824SS3PR71FL39IY426L8OWNZ","emotion","match","uniform","","","","","","","","213870.90000003576","215873.10000002384","","","","","","","","","","","","9","","stimuli/stars_9.png","134.5","","","","","stimuli/WF04_SC.jpg","",""
"explore-choice","81","217195","0.0-81.0","p565497","A2V27A9GZA1NR2","3WPCIUYH1BELQU8EB2L3QVOOKYBTD4","3GS6S824SS3PR71FL39IY426L8OWNZ","emotion","match","uniform","","","","","","","1835.800000011921","215873.69999998808","217709.5","[""stimuli/AM06_FO.jpg"",""stimuli/BM04_SUR.jpg"",""stimuli/WF04_HO.jpg"",""stimuli/HF04_SC.jpg""]","stimuli/AM06_FO.jpg","stimuli/BM04_SUR.jpg","stimuli/WF04_HO.jpg","stimuli/HF04_SC.jpg","pos4","stimuli/HF04_SC.jpg","SC","HF04","3","4.5","9","8","stimuli/stars_9.png","139","[""FO"",""SUR"",""HO"",""SC""]","[""AM06"",""BM04"",""WF04"",""HF04""]","[2,4,8,9]","[4,2,6,8]","","",""
"show-reward","82","219209","0.0-82.0","p565497","A2V27A9GZA1NR2","3WPCIUYH1BELQU8EB2L3QVOOKYBTD4","3GS6S824SS3PR71FL39IY426L8OWNZ","emotion","match","uniform","","","","","","","","218210.19999998808","220223.40000003576","","","","","","","","","","","","9","","stimuli/stars_9.png","139","","","","","stimuli/HF04_SC.jpg","",""
"explore-choice","83","222632","0.0-83.0","p565497","A2V27A9GZA1NR2","3WPCIUYH1BELQU8EB2L3QVOOKYBTD4","3GS6S824SS3PR71FL39IY426L8OWNZ","emotion","match","uniform","","","","","","","2922.099999964237","220224.10000002384","223146.19999998808","[""stimuli/AM06_SUR.jpg"",""stimuli/HF04_SC.jpg"",""stimuli/WF04_HO.jpg"",""stimuli/BM04_FO.jpg""]","stimuli/AM06_SUR.jpg","stimuli/HF04_SC.jpg","stimuli/WF04_HO.jpg","stimuli/BM04_FO.jpg","pos2","stimuli/HF04_SC.jpg","SC","HF04","1","3","6","8","stimuli/stars_6.png","142","[""SUR"",""SC"",""HO"",""FO""]","[""AM06"",""HF04"",""WF04"",""BM04""]","[4,6,6,5]","[2,8,6,4]","","",""
"show-reward","84","224635","0.0-84.0","p565497","A2V27A9GZA1NR2","3WPCIUYH1BELQU8EB2L3QVOOKYBTD4","3GS6S824SS3PR71FL39IY426L8OWNZ","emotion","match","uniform","","","","","","","","223647.40000003576","225649.60000002384","","","","","","","","","","","","6","","stimuli/stars_6.png","142","","","","","stimuli/HF04_SC.jpg","",""
"explore-choice","85","227048","0.0-85.0","p565497","A2V27A9GZA1NR2","3WPCIUYH1BELQU8EB2L3QVOOKYBTD4","3GS6S824SS3PR71FL39IY426L8OWNZ","emotion","match","uniform","","","","","","","1911.300000011921","225650.30000001192","227561.60000002384","[""stimuli/AM06_SUR.jpg"",""stimuli/HF04_HO.jpg"",""stimuli/BM04_FO.jpg"",""stimuli/WF04_SC.jpg""]","stimuli/AM06_SUR.jpg","stimuli/HF04_HO.jpg","stimuli/BM04_FO.jpg","stimuli/WF04_SC.jpg","pos4","stimuli/WF04_SC.jpg","SC","WF04","3","4.5","9","8","stimuli/stars_9.png","146.5","[""SUR"",""HO"",""FO"",""SC""]","[""AM06"",""HF04"",""BM04"",""WF04""]","[2,8,6,9]","[2,6,4,8]","","",""
"show-reward","86","229050","0.0-86.0","p565497","A2V27A9GZA1NR2","3WPCIUYH1BELQU8EB2L3QVOOKYBTD4","3GS6S824SS3PR71FL39IY426L8OWNZ","emotion","match","uniform","","","","","","","","228062.69999998808","230064.19999998808","","","","","","","","","","","","9","","stimuli/stars_9.png","146.5","","","","","stimuli/WF04_SC.jpg","",""
"explore-choice","87","231988","0.0-87.0","p565497","A2V27A9GZA1NR2","3WPCIUYH1BELQU8EB2L3QVOOKYBTD4","3GS6S824SS3PR71FL39IY426L8OWNZ","emotion","match","uniform","","","","","","","2437.300000011921","230064.80000001192","232502.10000002384","[""stimuli/WF04_SC.jpg"",""stimuli/HF04_SUR.jpg"",""stimuli/AM06_HO.jpg"",""stimuli/BM04_FO.jpg""]","stimuli/WF04_SC.jpg","stimuli/HF04_SUR.jpg","stimuli/AM06_HO.jpg","stimuli/BM04_FO.jpg","pos1","stimuli/WF04_SC.jpg","SC","WF04","0","3","6","8","stimuli/stars_6.png","149.5","[""SC"",""SUR"",""HO"",""FO""]","[""WF04"",""HF04"",""AM06"",""BM04""]","[6,3,4,4]","[8,2,6,4]","","",""
"show-reward","88","233991","0.0-88.0","p565497","A2V27A9GZA1NR2","3WPCIUYH1BELQU8EB2L3QVOOKYBTD4","3GS6S824SS3PR71FL39IY426L8OWNZ","emotion","match","uniform","","","","","","","","233003.69999998808","235005.40000003576","","","","","","","","","","","","6","","stimuli/stars_6.png","149.5","","","","","stimuli/WF04_SC.jpg","",""
"explore-choice","89","236889","0.0-89.0","p565497","A2V27A9GZA1NR2","3WPCIUYH1BELQU8EB2L3QVOOKYBTD4","3GS6S824SS3PR71FL39IY426L8OWNZ","emotion","match","uniform","","","","","","","2396.5","235006.10000002384","237402.60000002384","[""stimuli/AM06_SC.jpg"",""stimuli/BM04_FO.jpg"",""stimuli/HF04_SUR.jpg"",""stimuli/WF04_HO.jpg""]","stimuli/AM06_SC.jpg","stimuli/BM04_FO.jpg","stimuli/HF04_SUR.jpg","stimuli/WF04_HO.jpg","pos1","stimuli/AM06_SC.jpg","SC","AM06","0","5","10","8","stimuli/stars_10.png","154.5","[""SC"",""FO"",""SUR"",""HO""]","[""AM06"",""BM04"",""HF04"",""WF04""]","[10,3,3,4]","[8,4,2,6]","","",""
"show-reward","90","238892","0.0-90.0","p565497","A2V27A9GZA1NR2","3WPCIUYH1BELQU8EB2L3QVOOKYBTD4","3GS6S824SS3PR71FL39IY426L8OWNZ","emotion","match","uniform","","","","","","","","237904.40000003576","239906.69999998808","","","","","","","","","","","","10","","stimuli/stars_10.png","154.5","","","","","stimuli/AM06_SC.jpg","",""
"explore-choice","91","241874","0.0-91.0","p565497","A2V27A9GZA1NR2","3WPCIUYH1BELQU8EB2L3QVOOKYBTD4","3GS6S824SS3PR71FL39IY426L8OWNZ","emotion","match","uniform","","","","","","","2480.699999988079","239907.40000003576","242388.10000002384","[""stimuli/AM06_SC.jpg"",""stimuli/BM04_FO.jpg"",""stimuli/WF04_SUR.jpg"",""stimuli/HF04_HO.jpg""]","stimuli/AM06_SC.jpg","stimuli/BM04_FO.jpg","stimuli/WF04_SUR.jpg","stimuli/HF04_HO.jpg","pos1","stimuli/AM06_SC.jpg","SC","AM06","0","3","6","8","stimuli/stars_6.png","157.5","[""SC"",""FO"",""SUR"",""HO""]","[""AM06"",""BM04"",""WF04"",""HF04""]","[6,3,4,5]","[8,4,2,6]","","",""
"show-reward","92","243877","0.0-92.0","p565497","A2V27A9GZA1NR2","3WPCIUYH1BELQU8EB2L3QVOOKYBTD4","3GS6S824SS3PR71FL39IY426L8OWNZ","emotion","match","uniform","","","","","","","","242889.5","244891.60000002384","","","","","","","","","","","","6","","stimuli/stars_6.png","157.5","","","","","stimuli/AM06_SC.jpg","",""
"explore-choice","93","246128","0.0-93.0","p565497","A2V27A9GZA1NR2","3WPCIUYH1BELQU8EB2L3QVOOKYBTD4","3GS6S824SS3PR71FL39IY426L8OWNZ","emotion","match","uniform","","","","","","","1748.199999988079","244892.30000001192","246640.5","[""stimuli/HF04_HO.jpg"",""stimuli/AM06_FO.jpg"",""stimuli/BM04_SC.jpg"",""stimuli/WF04_SUR.jpg""]","stimuli/HF04_HO.jpg","stimuli/AM06_FO.jpg","stimuli/BM04_SC.jpg","stimuli/WF04_SUR.jpg","pos3","stimuli/BM04_SC.jpg","SC","BM04","2","3.5","7","8","stimuli/stars_7.png","161","[""HO"",""FO"",""SC"",""SUR""]","[""HF04"",""AM06"",""BM04"",""WF04""]","[5,3,7,2]","[6,4,8,2]","","",""
"show-reward","94","248131","0.0-94.0","p565497","A2V27A9GZA1NR2","3WPCIUYH1BELQU8EB2L3QVOOKYBTD4","3GS6S824SS3PR71FL39IY426L8OWNZ","emotion","match","uniform","","","","","","","","247143.19999998808","249145","","","","","","","","","","","","7","","stimuli/stars_7.png","161","","","","","stimuli/BM04_SC.jpg","",""
"explore-choice","95","249854","0.0-95.0","p565497","A2V27A9GZA1NR2","3WPCIUYH1BELQU8EB2L3QVOOKYBTD4","3GS6S824SS3PR71FL39IY426L8OWNZ","emotion","match","uniform","","","","","","","1221.8999999761581","249145.80000001192","250367.69999998808","[""stimuli/BM04_SUR.jpg"",""stimuli/HF04_SC.jpg"",""stimuli/AM06_HO.jpg"",""stimuli/WF04_FO.jpg""]","stimuli/BM04_SUR.jpg","stimuli/HF04_SC.jpg","stimuli/AM06_HO.jpg","stimuli/WF04_FO.jpg","pos2","stimuli/HF04_SC.jpg","SC","HF04","1","3.5","7","8","stimuli/stars_7.png","164.5","[""SUR"",""SC"",""HO"",""FO""]","[""BM04"",""HF04"",""AM06"",""WF04""]","[3,7,5,5]","[2,8,6,4]","","",""
"show-reward","96","251859","0.0-96.0","p565497","A2V27A9GZA1NR2","3WPCIUYH1BELQU8EB2L3QVOOKYBTD4","3GS6S824SS3PR71FL39IY426L8OWNZ","emotion","match","uniform","","","","","","","","250868.69999998808","252873.90000003576","","","","","","","","","","","","7","","stimuli/stars_7.png","164.5","","","","","stimuli/HF04_SC.jpg","",""
"explore-choice","97","254771","0.0-97.0","p565497","A2V27A9GZA1NR2","3WPCIUYH1BELQU8EB2L3QVOOKYBTD4","3GS6S824SS3PR71FL39IY426L8OWNZ","emotion","match","uniform","","","","","","","2410.400000035763","252874.69999998808","255285.10000002384","[""stimuli/AM06_FO.jpg"",""stimuli/WF04_SC.jpg"",""stimuli/HF04_HO.jpg"",""stimuli/BM04_SUR.jpg""]","stimuli/AM06_FO.jpg","stimuli/WF04_SC.jpg","stimuli/HF04_HO.jpg","stimuli/BM04_SUR.jpg","pos2","stimuli/WF04_SC.jpg","SC","WF04","1","3","6","8","stimuli/stars_6.png","167.5","[""FO"",""SC"",""HO"",""SUR""]","[""AM06"",""WF04"",""HF04"",""BM04""]","[5,6,4,4]","[4,8,6,2]","","",""
"show-reward","98","256774","0.0-98.0","p565497","A2V27A9GZA1NR2","3WPCIUYH1BELQU8EB2L3QVOOKYBTD4","3GS6S824SS3PR71FL39IY426L8OWNZ","emotion","match","uniform","","","","","","","","255786.19999998808","257788.5","","","","","","","","","","","","6","","stimuli/stars_6.png","167.5","","","","","stimuli/WF04_SC.jpg","",""
"explore-choice","99","260717","0.0-99.0","p565497","A2V27A9GZA1NR2","3WPCIUYH1BELQU8EB2L3QVOOKYBTD4","3GS6S824SS3PR71FL39IY426L8OWNZ","emotion","match","uniform","","","","","","","3441.5","257789.30000001192","261230.80000001192","[""stimuli/HF04_FO.jpg"",""stimuli/AM06_SUR.jpg"",""stimuli/WF04_SC.jpg"",""stimuli/BM04_HO.jpg""]","stimuli/HF04_FO.jpg","stimuli/AM06_SUR.jpg","stimuli/WF04_SC.jpg","stimuli/BM04_HO.jpg","pos3","stimuli/WF04_SC.jpg","SC","WF04","2","4","8","8","stimuli/stars_8.png","171.5","[""FO"",""SUR"",""SC"",""HO""]","[""HF04"",""AM06"",""WF04"",""BM04""]","[4,0,8,5]","[4,2,8,6]","","",""
"show-reward","100","262719","0.0-100.0","p565497","A2V27A9GZA1NR2","3WPCIUYH1BELQU8EB2L3QVOOKYBTD4","3GS6S824SS3PR71FL39IY426L8OWNZ","emotion","match","uniform","","","","","","","","261732.10000002384","263733.90000003576","","","","","","","","","","","","8","","stimuli/stars_8.png","171.5","","","","","stimuli/WF04_SC.jpg","",""
"explore-choice","101","266097","0.0-101.0","p565497","A2V27A9GZA1NR2","3WPCIUYH1BELQU8EB2L3QVOOKYBTD4","3GS6S824SS3PR71FL39IY426L8OWNZ","emotion","match","uniform","","","","","","","2876.600000023842","263734.6999999881","266611.3000000119","[""stimuli/WF04_SUR.jpg"",""stimuli/BM04_SC.jpg"",""stimuli/AM06_HO.jpg"",""stimuli/HF04_FO.jpg""]","stimuli/WF04_SUR.jpg","stimuli/BM04_SC.jpg","stimuli/AM06_HO.jpg","stimuli/HF04_FO.jpg","pos2","stimuli/BM04_SC.jpg","SC","BM04","1","3.5","7","8","stimuli/stars_7.png","175","[""SUR"",""SC"",""HO"",""FO""]","[""WF04"",""BM04"",""AM06"",""HF04""]","[0,7,7,2]","[2,8,6,4]","","",""
"show-reward","102","268100","0.0-102.0","p565497","A2V27A9GZA1NR2","3WPCIUYH1BELQU8EB2L3QVOOKYBTD4","3GS6S824SS3PR71FL39IY426L8OWNZ","emotion","match","uniform","","","","","","","","267112.5","269114.10000002384","","","","","","","","","","","","7","","stimuli/stars_7.png","175","","","","","stimuli/BM04_SC.jpg","",""
"explore-choice","103","273366","0.0-103.0","p565497","A2V27A9GZA1NR2","3WPCIUYH1BELQU8EB2L3QVOOKYBTD4","3GS6S824SS3PR71FL39IY426L8OWNZ","emotion","match","uniform","","","","","","","4763.5","269114.90000003576","273878.40000003576","[""stimuli/BF04_AO.jpg"",""stimuli/WM09_HE.jpg"",""stimuli/BM03_DO.jpg"",""stimuli/AF02_CC.jpg""]","stimuli/BF04_AO.jpg","stimuli/WM09_HE.jpg","stimuli/BM03_DO.jpg","stimuli/AF02_CC.jpg","pos3","stimuli/BM03_DO.jpg","DO","BM03","2","1","2","4","stimuli/stars_2.png","176","[""AO"",""HE"",""DO"",""CC""]","[""BF04"",""WM09"",""BM03"",""AF02""]","[7,6,2,1]","[8,6,4,2]","","",""
"show-reward","104","275369","0.0-104.0","p565497","A2V27A9GZA1NR2","3WPCIUYH1BELQU8EB2L3QVOOKYBTD4","3GS6S824SS3PR71FL39IY426L8OWNZ","emotion","match","uniform","","","","","","","","274381.8000000119","276383.40000003576","","","","","","","","","","","","2","","stimuli/stars_2.png","176","","","","","stimuli/BM03_DO.jpg","",""
"explore-choice","105","277891","0.0-105.0","p565497","A2V27A9GZA1NR2","3WPCIUYH1BELQU8EB2L3QVOOKYBTD4","3GS6S824SS3PR71FL39IY426L8OWNZ","emotion","match","uniform","","","","","","","2013.5","276384.10000002384","278397.60000002384","[""stimuli/BM03_HE.jpg"",""stimuli/BF04_AO.jpg"",""stimuli/WM09_CC.jpg"",""stimuli/AF02_DO.jpg""]","stimuli/BM03_HE.jpg","stimuli/BF04_AO.jpg","stimuli/WM09_CC.jpg","stimuli/AF02_DO.jpg","pos1","stimuli/BM03_HE.jpg","HE","BM03","0","4","8","6","stimuli/stars_8.png","180","[""HE"",""AO"",""CC"",""DO""]","[""BM03"",""BF04"",""WM09"",""AF02""]","[8,7,0,2]","[6,8,2,4]","","",""
"show-reward","106","279906","0.0-106.0","p565497","A2V27A9GZA1NR2","3WPCIUYH1BELQU8EB2L3QVOOKYBTD4","3GS6S824SS3PR71FL39IY426L8OWNZ","emotion","match","uniform","","","","","","","","278906.3000000119","280920.40000003576","","","","","","","","","","","","8","","stimuli/stars_8.png","180","","","","","stimuli/BM03_HE.jpg","",""
"explore-choice","107","283377","0.0-107.0","p565497","A2V27A9GZA1NR2","3WPCIUYH1BELQU8EB2L3QVOOKYBTD4","3GS6S824SS3PR71FL39IY426L8OWNZ","emotion","match","uniform","","","","","","","2969.899999976158","280921.10000002384","283891","[""stimuli/AF02_AO.jpg"",""stimuli/BM03_HE.jpg"",""stimuli/WM09_CC.jpg"",""stimuli/BF04_DO.jpg""]","stimuli/AF02_AO.jpg","stimuli/BM03_HE.jpg","stimuli/WM09_CC.jpg","stimuli/BF04_DO.jpg","pos2","stimuli/BM03_HE.jpg","HE","BM03","1","3","6","6","stimuli/stars_6.png","183","[""AO"",""HE"",""CC"",""DO""]","[""AF02"",""BM03"",""WM09"",""BF04""]","[7,6,4,2]","[8,6,2,4]","","",""
"show-reward","108","285379","0.0-108.0","p565497","A2V27A9GZA1NR2","3WPCIUYH1BELQU8EB2L3QVOOKYBTD4","3GS6S824SS3PR71FL39IY426L8OWNZ","emotion","match","uniform","","","","","","","","284392","286393.40000003576","","","","","","","","","","","","6","","stimuli/stars_6.png","183","","","","","stimuli/BM03_HE.jpg","",""
"explore-choice","109","288671","0.0-109.0","p565497","A2V27A9GZA1NR2","3WPCIUYH1BELQU8EB2L3QVOOKYBTD4","3GS6S824SS3PR71FL39IY426L8OWNZ","emotion","match","uniform","","","","","","","2786.400000035763","286394","289180.40000003576","[""stimuli/AF02_DO.jpg"",""stimuli/BM03_AO.jpg"",""stimuli/BF04_CC.jpg"",""stimuli/WM09_HE.jpg""]","stimuli/AF02_DO.jpg","stimuli/BM03_AO.jpg","stimuli/BF04_CC.jpg","stimuli/WM09_HE.jpg","pos4","stimuli/WM09_HE.jpg","HE","WM09","3","2","4","6","stimuli/stars_4.png","185","[""DO"",""AO"",""CC"",""HE""]","[""AF02"",""BM03"",""BF04"",""WM09""]","[5,10,1,4]","[4,8,2,6]","","",""
"show-reward","110","290673","0.0-110.0","p565497","A2V27A9GZA1NR2","3WPCIUYH1BELQU8EB2L3QVOOKYBTD4","3GS6S824SS3PR71FL39IY426L8OWNZ","emotion","match","uniform","","","","","","","","289686","291688","","","","","","","","","","","","4","","stimuli/stars_4.png","185","","","","","stimuli/WM09_HE.jpg","",""
"explore-choice","111","293136","0.0-111.0","p565497","A2V27A9GZA1NR2","3WPCIUYH1BELQU8EB2L3QVOOKYBTD4","3GS6S824SS3PR71FL39IY426L8OWNZ","emotion","match","uniform","","","","","","","1961.5","291688.60000002384","293650.10000002384","[""stimuli/BM03_HE.jpg"",""stimuli/BF04_CC.jpg"",""stimuli/AF02_AO.jpg"",""stimuli/WM09_DO.jpg""]","stimuli/BM03_HE.jpg","stimuli/BF04_CC.jpg","stimuli/AF02_AO.jpg","stimuli/WM09_DO.jpg","pos1","stimuli/BM03_HE.jpg","HE","BM03","0","4","8","6","stimuli/stars_8.png","189","[""HE"",""CC"",""AO"",""DO""]","[""BM03"",""BF04"",""AF02"",""WM09""]","[8,1,6,4]","[6,2,8,4]","","",""
"show-reward","112","295138","0.0-112.0","p565497","A2V27A9GZA1NR2","3WPCIUYH1BELQU8EB2L3QVOOKYBTD4","3GS6S824SS3PR71FL39IY426L8OWNZ","emotion","match","uniform","","","","","","","","294151.5","296153.1999999881","","","","","","","","","","","","8","","stimuli/stars_8.png","189","","","","","stimuli/BM03_HE.jpg","",""
"explore-choice","113","298018","0.0-113.0","p565497","A2V27A9GZA1NR2","3WPCIUYH1BELQU8EB2L3QVOOKYBTD4","3GS6S824SS3PR71FL39IY426L8OWNZ","emotion","match","uniform","","","","","","","2371.800000011921","296153.8000000119","298525.60000002384","[""stimuli/WM09_CC.jpg"",""stimuli/BM03_DO.jpg"",""stimuli/BF04_AO.jpg"",""stimuli/AF02_HE.jpg""]","stimuli/WM09_CC.jpg","stimuli/BM03_DO.jpg","stimuli/BF04_AO.jpg","stimuli/AF02_HE.jpg","pos4","stimuli/AF02_HE.jpg","HE","AF02","3","2","4","6","stimuli/stars_4.png","191","[""CC"",""DO"",""AO"",""HE""]","[""WM09"",""BM03"",""BF04"",""AF02""]","[1,6,8,4]","[2,4,8,6]","","",""
"show-reward","114","300021","0.0-114.0","p565497","A2V27A9GZA1NR2","3WPCIUYH1BELQU8EB2L3QVOOKYBTD4","3GS6S824SS3PR71FL39IY426L8OWNZ","emotion","match","uniform","","","","","","","","299033.3000000119","301035.8000000119","","","","","","","","","","","","4","","stimuli/stars_4.png","191","","","","","stimuli/AF02_HE.jpg","",""
"explore-choice","115","303366","0.0-115.0","p565497","A2V27A9GZA1NR2","3WPCIUYH1BELQU8EB2L3QVOOKYBTD4","3GS6S824SS3PR71FL39IY426L8OWNZ","emotion","match","uniform","","","","","","","2837.5","301036.40000003576","303873.90000003576","[""stimuli/WM09_AO.jpg"",""stimuli/BF04_HE.jpg"",""stimuli/BM03_DO.jpg"",""stimuli/AF02_CC.jpg""]","stimuli/WM09_AO.jpg","stimuli/BF04_HE.jpg","stimuli/BM03_DO.jpg","stimuli/AF02_CC.jpg","pos2","stimuli/BF04_HE.jpg","HE","BF04","1","2.5","5","6","stimuli/stars_5.png","193.5","[""AO"",""HE"",""DO"",""CC""]","[""WM09"",""BF04"",""BM03"",""AF02""]","[9,5,2,1]","[8,6,4,2]","","",""
"show-reward","116","305376","0.0-116.0","p565497","A2V27A9GZA1NR2","3WPCIUYH1BELQU8EB2L3QVOOKYBTD4","3GS6S824SS3PR71FL39IY426L8OWNZ","emotion","match","uniform","","","","","","","","304381.6999999881","306391.1999999881","","","","","","","","","","","","5","","stimuli/stars_5.png","193.5","","","","","stimuli/BF04_HE.jpg","",""
"explore-choice","117","308147","0.0-117.0","p565497","A2V27A9GZA1NR2","3WPCIUYH1BELQU8EB2L3QVOOKYBTD4","3GS6S824SS3PR71FL39IY426L8OWNZ","emotion","match","uniform","","","","","","","2259.599999964237","306391.90000003576","308651.5","[""stimuli/BM03_CC.jpg"",""stimuli/BF04_DO.jpg"",""stimuli/AF02_AO.jpg"",""stimuli/WM09_HE.jpg""]","stimuli/BM03_CC.jpg","stimuli/BF04_DO.jpg","stimuli/AF02_AO.jpg","stimuli/WM09_HE.jpg","pos4","stimuli/WM09_HE.jpg","HE","WM09","3","2","4","6","stimuli/stars_4.png","195.5","[""CC"",""DO"",""AO"",""HE""]","[""BM03"",""BF04"",""AF02"",""WM09""]","[2,6,9,4]","[2,4,8,6]","","",""
"show-reward","118","310149","0.0-118.0","p565497","A2V27A9GZA1NR2","3WPCIUYH1BELQU8EB2L3QVOOKYBTD4","3GS6S824SS3PR71FL39IY426L8OWNZ","emotion","match","uniform","","","","","","","","309162.60000002384","311164.40000003576","","","","","","","","","","","","4","","stimuli/stars_4.png","195.5","","","","","stimuli/WM09_HE.jpg","",""
"explore-choice","119","313517","0.0-119.0","p565497","A2V27A9GZA1NR2","3WPCIUYH1BELQU8EB2L3QVOOKYBTD4","3GS6S824SS3PR71FL39IY426L8OWNZ","emotion","match","uniform","","","","","","","2866","311165","314031","[""stimuli/BF04_HE.jpg"",""stimuli/WM09_CC.jpg"",""stimuli/BM03_AO.jpg"",""stimuli/AF02_DO.jpg""]","stimuli/BF04_HE.jpg","stimuli/WM09_CC.jpg","stimuli/BM03_AO.jpg","stimuli/AF02_DO.jpg","pos1","stimuli/BF04_HE.jpg","HE","BF04","0","2","4","6","stimuli/stars_4.png","197.5","[""HE"",""CC"",""AO"",""DO""]","[""BF04"",""WM09"",""BM03"",""AF02""]","[4,2,6,3]","[6,2,8,4]","","",""
"show-reward","120","315519","0.0-120.0","p565497","A2V27A9GZA1NR2","3WPCIUYH1BELQU8EB2L3QVOOKYBTD4","3GS6S824SS3PR71FL39IY426L8OWNZ","emotion","match","uniform","","","","","","","","314532.90000003576","316534.3000000119","","","","","","","","","","","","4","","stimuli/stars_4.png","197.5","","","","","stimuli/BF04_HE.jpg","",""
"explore-choice","121","318395","0.0-121.0","p565497","A2V27A9GZA1NR2","3WPCIUYH1BELQU8EB2L3QVOOKYBTD4","3GS6S824SS3PR71FL39IY426L8OWNZ","emotion","match","uniform","","","","","","","2363.5","316535","318898.5","[""stimuli/BF04_CC.jpg"",""stimuli/BM03_DO.jpg"",""stimuli/AF02_HE.jpg"",""stimuli/WM09_AO.jpg""]","stimuli/BF04_CC.jpg","stimuli/BM03_DO.jpg","stimuli/AF02_HE.jpg","stimuli/WM09_AO.jpg","pos4","stimuli/WM09_AO.jpg","AO","WM09","3","4.5","9","8","stimuli/stars_9.png","202","[""CC"",""DO"",""HE"",""AO""]","[""BF04"",""BM03"",""AF02"",""WM09""]","[0,4,4,9]","[2,4,6,8]","","",""
"show-reward","122","320398","0.0-122.0","p565497","A2V27A9GZA1NR2","3WPCIUYH1BELQU8EB2L3QVOOKYBTD4","3GS6S824SS3PR71FL39IY426L8OWNZ","emotion","match","uniform","","","","","","","","319410.40000003576","321412.40000003576","","","","","","","","","","","","9","","stimuli/stars_9.png","202","","","","","stimuli/WM09_AO.jpg","",""
"explore-choice","123","322865","0.0-123.0","p565497","A2V27A9GZA1NR2","3WPCIUYH1BELQU8EB2L3QVOOKYBTD4","3GS6S824SS3PR71FL39IY426L8OWNZ","emotion","match","uniform","","","","","","","1955.9000000357628","321413.1999999881","323369.10000002384","[""stimuli/WM09_HE.jpg"",""stimuli/BM03_DO.jpg"",""stimuli/BF04_CC.jpg"",""stimuli/AF02_AO.jpg""]","stimuli/WM09_HE.jpg","stimuli/BM03_DO.jpg","stimuli/BF04_CC.jpg","stimuli/AF02_AO.jpg","pos4","stimuli/AF02_AO.jpg","AO","AF02","3","4.5","9","8","stimuli/stars_9.png","206.5","[""HE"",""DO"",""CC"",""AO""]","[""WM09"",""BM03"",""BF04"",""AF02""]","[6,5,4,9]","[6,4,2,8]","","",""
"show-reward","124","324868","0.0-124.0","p565497","A2V27A9GZA1NR2","3WPCIUYH1BELQU8EB2L3QVOOKYBTD4","3GS6S824SS3PR71FL39IY426L8OWNZ","emotion","match","uniform","","","","","","","","323880.40000003576","325883","","","","","","","","","","","","9","","stimuli/stars_9.png","206.5","","","","","stimuli/AF02_AO.jpg","",""
"explore-choice","125","327358","0.0-125.0","p565497","A2V27A9GZA1NR2","3WPCIUYH1BELQU8EB2L3QVOOKYBTD4","3GS6S824SS3PR71FL39IY426L8OWNZ","emotion","match","uniform","","","","","","","1988.7000000476837","325883.6999999881","327872.40000003576","[""stimuli/BM03_CC.jpg"",""stimuli/BF04_HE.jpg"",""stimuli/AF02_AO.jpg"",""stimuli/WM09_DO.jpg""]","stimuli/BM03_CC.jpg","stimuli/BF04_HE.jpg","stimuli/AF02_AO.jpg","stimuli/WM09_DO.jpg","pos3","stimuli/AF02_AO.jpg","AO","AF02","2","4","8","8","stimuli/stars_8.png","210.5","[""CC"",""HE"",""AO"",""DO""]","[""BM03"",""BF04"",""AF02"",""WM09""]","[2,8,8,2]","[2,6,8,4]","","",""
"show-reward","126","329361","0.0-126.0","p565497","A2V27A9GZA1NR2","3WPCIUYH1BELQU8EB2L3QVOOKYBTD4","3GS6S824SS3PR71FL39IY426L8OWNZ","emotion","match","uniform","","","","","","","","328373.8000000119","330375.8000000119","","","","","","","","","","","","8","","stimuli/stars_8.png","210.5","","","","","stimuli/AF02_AO.jpg","",""
"explore-choice","127","333067","0.0-127.0","p565497","A2V27A9GZA1NR2","3WPCIUYH1BELQU8EB2L3QVOOKYBTD4","3GS6S824SS3PR71FL39IY426L8OWNZ","emotion","match","uniform","","","","","","","3204.600000023842","330376.5","333581.10000002384","[""stimuli/WM09_HE.jpg"",""stimuli/BF04_AO.jpg"",""stimuli/AF02_DO.jpg"",""stimuli/BM03_CC.jpg""]","stimuli/WM09_HE.jpg","stimuli/BF04_AO.jpg","stimuli/AF02_DO.jpg","stimuli/BM03_CC.jpg","pos2","stimuli/BF04_AO.jpg","AO","BF04","1","3.5","7","8","stimuli/stars_7.png","214","[""HE"",""AO"",""DO"",""CC""]","[""WM09"",""BF04"",""AF02"",""BM03""]","[4,7,4,3]","[6,8,4,2]","","",""
"show-reward","128","335070","0.0-128.0","p565497","A2V27A9GZA1NR2","3WPCIUYH1BELQU8EB2L3QVOOKYBTD4","3GS6S824SS3PR71FL39IY426L8OWNZ","emotion","match","uniform","","","","","","","","334082.3000000119","336084.90000003576","","","","","","","","","","","","7","","stimuli/stars_7.png","214","","","","","stimuli/BF04_AO.jpg","",""
"explore-choice","129","337959","0.0-129.0","p565497","A2V27A9GZA1NR2","3WPCIUYH1BELQU8EB2L3QVOOKYBTD4","3GS6S824SS3PR71FL39IY426L8OWNZ","emotion","match","uniform","","","","","","","2386.899999976158","336085.60000002384","338472.5","[""stimuli/AF02_CC.jpg"",""stimuli/BF04_DO.jpg"",""stimuli/BM03_HE.jpg"",""stimuli/WM09_AO.jpg""]","stimuli/AF02_CC.jpg","stimuli/BF04_DO.jpg","stimuli/BM03_HE.jpg","stimuli/WM09_AO.jpg","pos4","stimuli/WM09_AO.jpg","AO","WM09","3","4","8","8","stimuli/stars_8.png","218","[""CC"",""DO"",""HE"",""AO""]","[""AF02"",""BF04"",""BM03"",""WM09""]","[2,3,6,8]","[2,4,6,8]","","",""
"show-reward","130","339961","0.0-130.0","p565497","A2V27A9GZA1NR2","3WPCIUYH1BELQU8EB2L3QVOOKYBTD4","3GS6S824SS3PR71FL39IY426L8OWNZ","emotion","match","uniform","","","","","","","","338974.1999999881","340975.90000003576","","","","","","","","","","","","8","","stimuli/stars_8.png","218","","","","","stimuli/WM09_AO.jpg","",""
"explore-choice","131","342429","0.0-131.0","p565497","A2V27A9GZA1NR2","3WPCIUYH1BELQU8EB2L3QVOOKYBTD4","3GS6S824SS3PR71FL39IY426L8OWNZ","emotion","match","uniform","","","","","","","1966.300000011921","340976.6999999881","342943","[""stimuli/AF02_HE.jpg"",""stimuli/BF04_CC.jpg"",""stimuli/WM09_DO.jpg"",""stimuli/BM03_AO.jpg""]","stimuli/AF02_HE.jpg","stimuli/BF04_CC.jpg","stimuli/WM09_DO.jpg","stimuli/BM03_AO.jpg","pos4","stimuli/BM03_AO.jpg","AO","BM03","3","3","6","8","stimuli/stars_6.png","221","[""HE"",""CC"",""DO"",""AO""]","[""AF02"",""BF04"",""WM09"",""BM03""]","[6,4,3,6]","[6,2,4,8]","","",""
"show-reward","132","344431","0.0-132.0","p565497","A2V27A9GZA1NR2","3WPCIUYH1BELQU8EB2L3QVOOKYBTD4","3GS6S824SS3PR71FL39IY426L8OWNZ","emotion","match","uniform","","","","","","","","343444.3000000119","345446.1999999881","","","","","","","","","","","","6","","stimuli/stars_6.png","221","","","","","stimuli/BM03_AO.jpg","",""
"explore-choice","133","347671","0.0-133.0","p565497","A2V27A9GZA1NR2","3WPCIUYH1BELQU8EB2L3QVOOKYBTD4","3GS6S824SS3PR71FL39IY426L8OWNZ","emotion","match","uniform","","","","","","","2738.599999964237","345446.90000003576","348185.5","[""stimuli/WM09_AO.jpg"",""stimuli/AF02_DO.jpg"",""stimuli/BM03_CC.jpg"",""stimuli/BF04_HE.jpg""]","stimuli/WM09_AO.jpg","stimuli/AF02_DO.jpg","stimuli/BM03_CC.jpg","stimuli/BF04_HE.jpg","pos2","stimuli/AF02_DO.jpg","DO","AF02","1","2","4","4","stimuli/stars_4.png","223","[""AO"",""DO"",""CC"",""HE""]","[""WM09"",""AF02"",""BM03"",""BF04""]","[10,4,3,7]","[8,4,2,6]","","",""
"show-reward","134","349675","0.0-134.0","p565497","A2V27A9GZA1NR2","3WPCIUYH1BELQU8EB2L3QVOOKYBTD4","3GS6S824SS3PR71FL39IY426L8OWNZ","emotion","match","uniform","","","","","","","","348687","350689.90000003576","","","","","","","","","","","","4","","stimuli/stars_4.png","223","","","","","stimuli/AF02_DO.jpg","",""
"explore-choice","135","352579","0.0-135.0","p565497","A2V27A9GZA1NR2","3WPCIUYH1BELQU8EB2L3QVOOKYBTD4","3GS6S824SS3PR71FL39IY426L8OWNZ","emotion","match","uniform","","","","","","","2402.2000000476837","350690.6999999881","353092.90000003576","[""stimuli/AF02_AO.jpg"",""stimuli/WM09_CC.jpg"",""stimuli/BM03_DO.jpg"",""stimuli/BF04_HE.jpg""]","stimuli/AF02_AO.jpg","stimuli/WM09_CC.jpg","stimuli/BM03_DO.jpg","stimuli/BF04_HE.jpg","pos1","stimuli/AF02_AO.jpg","AO","AF02","0","4.5","9","8","stimuli/stars_9.png","227.5","[""AO"",""CC"",""DO"",""HE""]","[""AF02"",""WM09"",""BM03"",""BF04""]","[9,4,6,6]","[8,2,4,6]","","",""
"show-reward","136","354581","0.0-136.0","p565497","A2V27A9GZA1NR2","3WPCIUYH1BELQU8EB2L3QVOOKYBTD4","3GS6S824SS3PR71FL39IY426L8OWNZ","emotion","match","uniform","","","","","","","","353594.5","355596.10000002384","","","","","","","","","","","","9","","stimuli/stars_9.png","227.5","","","","","stimuli/AF02_AO.jpg","",""
"explore-choice","137","357778","0.0-137.0","p565497","A2V27A9GZA1NR2","3WPCIUYH1BELQU8EB2L3QVOOKYBTD4","3GS6S824SS3PR71FL39IY426L8OWNZ","emotion","match","uniform","","","","","","","2695.800000011921","355596.6999999881","358292.5","[""stimuli/BM03_AO.jpg"",""stimuli/AF02_CC.jpg"",""stimuli/WM09_HE.jpg"",""stimuli/BF04_DO.jpg""]","stimuli/BM03_AO.jpg","stimuli/AF02_CC.jpg","stimuli/WM09_HE.jpg","stimuli/BF04_DO.jpg","pos1","stimuli/BM03_AO.jpg","AO","BM03","0","4","8","8","stimuli/stars_8.png","231.5","[""AO"",""CC"",""HE"",""DO""]","[""BM03"",""AF02"",""WM09"",""BF04""]","[8,0,7,3]","[8,2,6,4]","","",""
"show-reward","138","359785","0.0-138.0","p565497","A2V27A9GZA1NR2","3WPCIUYH1BELQU8EB2L3QVOOKYBTD4","3GS6S824SS3PR71FL39IY426L8OWNZ","emotion","match","uniform","","","","","","","","358793.40000003576","360800.10000002384","","","","","","","","","","","","8","","stimuli/stars_8.png","231.5","","","","","stimuli/BM03_AO.jpg","",""
"explore-choice","139","368759","0.0-139.0","p565497","A2V27A9GZA1NR2","3WPCIUYH1BELQU8EB2L3QVOOKYBTD4","3GS6S824SS3PR71FL39IY426L8OWNZ","emotion","match","uniform","","","","","","","8472.800000011921","360800.6999999881","369273.5","[""stimuli/BF04_DO.jpg"",""stimuli/AF02_HE.jpg"",""stimuli/BM03_CC.jpg"",""stimuli/WM09_AO.jpg""]","stimuli/BF04_DO.jpg","stimuli/AF02_HE.jpg","stimuli/BM03_CC.jpg","stimuli/WM09_AO.jpg","pos4","stimuli/WM09_AO.jpg","AO","WM09","3","4.5","9","8","stimuli/stars_9.png","236","[""DO"",""HE"",""CC"",""AO""]","[""BF04"",""AF02"",""BM03"",""WM09""]","[2,7,3,9]","[4,6,2,8]","","",""
"show-reward","140","370762","0.0-140.0","p565497","A2V27A9GZA1NR2","3WPCIUYH1BELQU8EB2L3QVOOKYBTD4","3GS6S824SS3PR71FL39IY426L8OWNZ","emotion","match","uniform","","","","","","","","369775","371776.90000003576","","","","","","","","","","","","9","","stimuli/stars_9.png","236","","","","","stimuli/WM09_AO.jpg","",""
"explore-choice","141","375277","0.0-141.0","p565497","A2V27A9GZA1NR2","3WPCIUYH1BELQU8EB2L3QVOOKYBTD4","3GS6S824SS3PR71FL39IY426L8OWNZ","emotion","match","uniform","","","","","","","4013.800000011921","371777.60000002384","375791.40000003576","[""stimuli/BF04_AO.jpg"",""stimuli/WM09_DO.jpg"",""stimuli/AF02_HE.jpg"",""stimuli/BM03_CC.jpg""]","stimuli/BF04_AO.jpg","stimuli/WM09_DO.jpg","stimuli/AF02_HE.jpg","stimuli/BM03_CC.jpg","pos2","stimuli/WM09_DO.jpg","DO","WM09","1","2.5","5","4","stimuli/stars_5.png","238.5","[""AO"",""DO"",""HE"",""CC""]","[""BF04"",""WM09"",""AF02"",""BM03""]","[7,5,4,0]","[8,4,6,2]","","",""
"show-reward","142","377279","0.0-142.0","p565497","A2V27A9GZA1NR2","3WPCIUYH1BELQU8EB2L3QVOOKYBTD4","3GS6S824SS3PR71FL39IY426L8OWNZ","emotion","match","uniform","","","","","","","","376292.6999999881","378294.10000002384","","","","","","","","","","","","5","","stimuli/stars_5.png","238.5","","","","","stimuli/WM09_DO.jpg","",""
"explore-choice","143","380034","0.0-143.0","p565497","A2V27A9GZA1NR2","3WPCIUYH1BELQU8EB2L3QVOOKYBTD4","3GS6S824SS3PR71FL39IY426L8OWNZ","emotion","match","uniform","","","","","","","2242.100000023842","378294.8000000119","380536.90000003576","[""stimuli/BF04_AO.jpg"",""stimuli/WM09_DO.jpg"",""stimuli/BM03_HE.jpg"",""stimuli/AF02_CC.jpg""]","stimuli/BF04_AO.jpg","stimuli/WM09_DO.jpg","stimuli/BM03_HE.jpg","stimuli/AF02_CC.jpg","pos1","stimuli/BF04_AO.jpg","AO","BF04","0","4.5","9","8","stimuli/stars_9.png","243","[""AO"",""DO"",""HE"",""CC""]","[""BF04"",""WM09"",""BM03"",""AF02""]","[9,5,7,4]","[8,4,6,2]","","",""
"show-reward","144","382037","0.0-144.0","p565497","A2V27A9GZA1NR2","3WPCIUYH1BELQU8EB2L3QVOOKYBTD4","3GS6S824SS3PR71FL39IY426L8OWNZ","emotion","match","uniform","","","","","","","","381050.10000002384","383051.60000002384","","","","","","","","","","","","9","","stimuli/stars_9.png","243","","","","","stimuli/BF04_AO.jpg","",""
"explore-choice","145","385576","0.0-145.0","p565497","A2V27A9GZA1NR2","3WPCIUYH1BELQU8EB2L3QVOOKYBTD4","3GS6S824SS3PR71FL39IY426L8OWNZ","emotion","match","uniform","","","","","","","3036.899999976158","383052.3000000119","386089.1999999881","[""stimuli/AF02_HE.jpg"",""stimuli/BM03_AO.jpg"",""stimuli/WM09_CC.jpg"",""stimuli/BF04_DO.jpg""]","stimuli/AF02_HE.jpg","stimuli/BM03_AO.jpg","stimuli/WM09_CC.jpg","stimuli/BF04_DO.jpg","pos2","stimuli/BM03_AO.jpg","AO","BM03","1","4","8","8","stimuli/stars_8.png","247","[""HE"",""AO"",""CC"",""DO""]","[""AF02"",""BM03"",""WM09"",""BF04""]","[8,8,1,6]","[6,8,2,4]","","",""
"show-reward","146","387579","0.0-146.0","p565497","A2V27A9GZA1NR2","3WPCIUYH1BELQU8EB2L3QVOOKYBTD4","3GS6S824SS3PR71FL39IY426L8OWNZ","emotion","match","uniform","","","","","","","","386591.90000003576","388594.1999999881","","","","","","","","","","","","8","","stimuli/stars_8.png","247","","","","","stimuli/BM03_AO.jpg","",""
"explore-choice","147","391205","0.0-147.0","p565497","A2V27A9GZA1NR2","3WPCIUYH1BELQU8EB2L3QVOOKYBTD4","3GS6S824SS3PR71FL39IY426L8OWNZ","emotion","match","uniform","","","","","","","3112.899999976158","388594.90000003576","391707.8000000119","[""stimuli/AF02_CC.jpg"",""stimuli/BF04_HE.jpg"",""stimuli/WM09_DO.jpg"",""stimuli/BM03_AO.jpg""]","stimuli/AF02_CC.jpg","stimuli/BF04_HE.jpg","stimuli/WM09_DO.jpg","stimuli/BM03_AO.jpg","pos4","stimuli/BM03_AO.jpg","AO","BM03","3","3","6","8","stimuli/stars_6.png","250","[""CC"",""HE"",""DO"",""AO""]","[""AF02"",""BF04"",""WM09"",""BM03""]","[2,4,2,6]","[2,6,4,8]","","",""
"show-reward","148","393208","0.0-148.0","p565497","A2V27A9GZA1NR2","3WPCIUYH1BELQU8EB2L3QVOOKYBTD4","3GS6S824SS3PR71FL39IY426L8OWNZ","emotion","match","uniform","","","","","","","","392221","394222.8000000119","","","","","","","","","","","","6","","stimuli/stars_6.png","250","","","","","stimuli/BM03_AO.jpg","",""
"explore-choice","149","397462","0.0-149.0","p565497","A2V27A9GZA1NR2","3WPCIUYH1BELQU8EB2L3QVOOKYBTD4","3GS6S824SS3PR71FL39IY426L8OWNZ","emotion","match","uniform","","","","","","","3751","394223.40000003576","397974.40000003576","[""stimuli/BM03_HE.jpg"",""stimuli/WM09_AO.jpg"",""stimuli/BF04_CC.jpg"",""stimuli/AF02_DO.jpg""]","stimuli/BM03_HE.jpg","stimuli/WM09_AO.jpg","stimuli/BF04_CC.jpg","stimuli/AF02_DO.jpg","pos2","stimuli/WM09_AO.jpg","AO","WM09","1","3","6","8","stimuli/stars_6.png","253","[""HE"",""AO"",""CC"",""DO""]","[""BM03"",""WM09"",""BF04"",""AF02""]","[6,6,2,3]","[6,8,2,4]","","",""
"show-reward","150","399464","0.0-150.0","p565497","A2V27A9GZA1NR2","3WPCIUYH1BELQU8EB2L3QVOOKYBTD4","3GS6S824SS3PR71FL39IY426L8OWNZ","emotion","match","uniform","","","","","","","","398477.40000003576","400479.10000002384","","","","","","","","","","","","6","","stimuli/stars_6.png","253","","","","","stimuli/WM09_AO.jpg","",""
"explore-choice","151","401924","0.0-151.0","p565497","A2V27A9GZA1NR2","3WPCIUYH1BELQU8EB2L3QVOOKYBTD4","3GS6S824SS3PR71FL39IY426L8OWNZ","emotion","match","uniform","","","","","","","1958.1000000238419","400479.6999999881","402437.8000000119","[""stimuli/BM03_AO.jpg"",""stimuli/BF04_CC.jpg"",""stimuli/AF02_HE.jpg"",""stimuli/WM09_DO.jpg""]","stimuli/BM03_AO.jpg","stimuli/BF04_CC.jpg","stimuli/AF02_HE.jpg","stimuli/WM09_DO.jpg","pos1","stimuli/BM03_AO.jpg","AO","BM03","0","3","6","8","stimuli/stars_6.png","256","[""AO"",""CC"",""HE"",""DO""]","[""BM03"",""BF04"",""AF02"",""WM09""]","[6,4,6,3]","[8,2,6,4]","","",""
"show-reward","152","403926","0.0-152.0","p565497","A2V27A9GZA1NR2","3WPCIUYH1BELQU8EB2L3QVOOKYBTD4","3GS6S824SS3PR71FL39IY426L8OWNZ","emotion","match","uniform","","","","","","","","402939.3000000119","404941.1999999881","","","","","","","","","","","","6","","stimuli/stars_6.png","256","","","","","stimuli/BM03_AO.jpg","",""
"explore-choice","153","409165","0.0-153.0","p565497","A2V27A9GZA1NR2","3WPCIUYH1BELQU8EB2L3QVOOKYBTD4","3GS6S824SS3PR71FL39IY426L8OWNZ","emotion","match","uniform","","","","","","","4737.600000023842","404942","409679.60000002384","[""stimuli/BF04_CC.jpg"",""stimuli/WM09_HE.jpg"",""stimuli/AF02_DO.jpg"",""stimuli/BM03_AO.jpg""]","stimuli/BF04_CC.jpg","stimuli/WM09_HE.jpg","stimuli/AF02_DO.jpg","stimuli/BM03_AO.jpg","pos4","stimuli/BM03_AO.jpg","AO","BM03","3","5","10","8","stimuli/stars_10.png","261","[""CC"",""HE"",""DO"",""AO""]","[""BF04"",""WM09"",""AF02"",""BM03""]","[1,4,5,10]","[2,6,4,8]","","",""
"show-reward","154","411168","0.0-154.0","p565497","A2V27A9GZA1NR2","3WPCIUYH1BELQU8EB2L3QVOOKYBTD4","3GS6S824SS3PR71FL39IY426L8OWNZ","emotion","match","uniform","","","","","","","","410181.10000002384","412183","","","","","","","","","","","","10","","stimuli/stars_10.png","261","","","","","stimuli/BM03_AO.jpg","",""
"explore-choice","155","414139","0.0-155.0","p565497","A2V27A9GZA1NR2","3WPCIUYH1BELQU8EB2L3QVOOKYBTD4","3GS6S824SS3PR71FL39IY426L8OWNZ","emotion","match","uniform","","","","","","","2470.400000035763","412183.6999999881","414654.10000002384","[""stimuli/BF04_AO.jpg"",""stimuli/BM03_DO.jpg"",""stimuli/WM09_HE.jpg"",""stimuli/AF02_CC.jpg""]","stimuli/BF04_AO.jpg","stimuli/BM03_DO.jpg","stimuli/WM09_HE.jpg","stimuli/AF02_CC.jpg","pos1","stimuli/BF04_AO.jpg","AO","BF04","0","3.5","7","8","stimuli/stars_7.png","264.5","[""AO"",""DO"",""HE"",""CC""]","[""BF04"",""BM03"",""WM09"",""AF02""]","[7,2,6,1]","[8,4,6,2]","","",""
"show-reward","156","416143","0.0-156.0","p565497","A2V27A9GZA1NR2","3WPCIUYH1BELQU8EB2L3QVOOKYBTD4","3GS6S824SS3PR71FL39IY426L8OWNZ","emotion","match","uniform","","","","","","","","415155.40000003576","417158.40000003576","","","","","","","","","","","","7","","stimuli/stars_7.png","264.5","","","","","stimuli/BF04_AO.jpg","",""
"explore-choice","157","418582","0.0-157.0","p565497","A2V27A9GZA1NR2","3WPCIUYH1BELQU8EB2L3QVOOKYBTD4","3GS6S824SS3PR71FL39IY426L8OWNZ","emotion","match","uniform","","","","","","","1938.3999999761581","417159.10000002384","419097.5","[""stimuli/WM09_HE.jpg"",""stimuli/AF02_AO.jpg"",""stimuli/BM03_DO.jpg"",""stimuli/BF04_CC.jpg""]","stimuli/WM09_HE.jpg","stimuli/AF02_AO.jpg","stimuli/BM03_DO.jpg","stimuli/BF04_CC.jpg","pos2","stimuli/AF02_AO.jpg","AO","AF02","1","4.5","9","8","stimuli/stars_9.png","269","[""HE"",""AO"",""DO"",""CC""]","[""WM09"",""AF02"",""BM03"",""BF04""]","[6,9,5,4]","[6,8,4,2]","","",""
"show-reward","158","420585","0.0-158.0","p565497","A2V27A9GZA1NR2","3WPCIUYH1BELQU8EB2L3QVOOKYBTD4","3GS6S824SS3PR71FL39IY426L8OWNZ","emotion","match","uniform","","","","","","","","419598.8000000119","421600.5","","","","","","","","","","","","9","","stimuli/stars_9.png","269","","","","","stimuli/AF02_AO.jpg","",""
"explore-choice","159","423118","0.0-159.0","p565497","A2V27A9GZA1NR2","3WPCIUYH1BELQU8EB2L3QVOOKYBTD4","3GS6S824SS3PR71FL39IY426L8OWNZ","emotion","match","uniform","","","","","","","2029.800000011921","421601.1999999881","423631","[""stimuli/BM03_CC.jpg"",""stimuli/WM09_HE.jpg"",""stimuli/BF04_DO.jpg"",""stimuli/AF02_AO.jpg""]","stimuli/BM03_CC.jpg","stimuli/WM09_HE.jpg","stimuli/BF04_DO.jpg","stimuli/AF02_AO.jpg","pos4","stimuli/AF02_AO.jpg","AO","AF02","3","4.5","9","8","stimuli/stars_9.png","273.5","[""CC"",""HE"",""DO"",""AO""]","[""BM03"",""WM09"",""BF04"",""AF02""]","[2,4,6,9]","[2,6,4,8]","","",""
"show-reward","160","425130","0.0-160.0","p565497","A2V27A9GZA1NR2","3WPCIUYH1BELQU8EB2L3QVOOKYBTD4","3GS6S824SS3PR71FL39IY426L8OWNZ","emotion","match","uniform","","","","","","","","424134.8000000119","426146","","","","","","","","","","","","9","","stimuli/stars_9.png","273.5","","","","","stimuli/AF02_AO.jpg","",""
"explore-choice","161","427837","0.0-161.0","p565497","A2V27A9GZA1NR2","3WPCIUYH1BELQU8EB2L3QVOOKYBTD4","3GS6S824SS3PR71FL39IY426L8OWNZ","emotion","match","uniform","","","","","","","2204.7000000476837","426146.6999999881","428351.40000003576","[""stimuli/AF02_HE.jpg"",""stimuli/BM03_CC.jpg"",""stimuli/BF04_DO.jpg"",""stimuli/WM09_AO.jpg""]","stimuli/AF02_HE.jpg","stimuli/BM03_CC.jpg","stimuli/BF04_DO.jpg","stimuli/WM09_AO.jpg","pos4","stimuli/WM09_AO.jpg","AO","WM09","3","4.5","9","8","stimuli/stars_9.png","278","[""HE"",""CC"",""DO"",""AO""]","[""AF02"",""BM03"",""BF04"",""WM09""]","[7,3,2,9]","[6,2,4,8]","","",""
"show-reward","162","429839","0.0-162.0","p565497","A2V27A9GZA1NR2","3WPCIUYH1BELQU8EB2L3QVOOKYBTD4","3GS6S824SS3PR71FL39IY426L8OWNZ","emotion","match","uniform","","","","","","","","428853.3000000119","430855.3000000119","","","","","","","","","","","","9","","stimuli/stars_9.png","278","","","","","stimuli/WM09_AO.jpg","",""
"explore-choice","163","432226","0.0-163.0","p565497","A2V27A9GZA1NR2","3WPCIUYH1BELQU8EB2L3QVOOKYBTD4","3GS6S824SS3PR71FL39IY426L8OWNZ","emotion","match","uniform","","","","","","","1884","430856","432740","[""stimuli/BM03_AO.jpg"",""stimuli/BF04_HE.jpg"",""stimuli/AF02_CC.jpg"",""stimuli/WM09_DO.jpg""]","stimuli/BM03_AO.jpg","stimuli/BF04_HE.jpg","stimuli/AF02_CC.jpg","stimuli/WM09_DO.jpg","pos1","stimuli/BM03_AO.jpg","AO","BM03","0","3","6","8","stimuli/stars_6.png","281","[""AO"",""HE"",""CC"",""DO""]","[""BM03"",""BF04"",""AF02"",""WM09""]","[6,4,2,2]","[8,6,2,4]","","",""
"show-reward","164","434229","0.0-164.0","p565497","A2V27A9GZA1NR2","3WPCIUYH1BELQU8EB2L3QVOOKYBTD4","3GS6S824SS3PR71FL39IY426L8OWNZ","emotion","match","uniform","","","","","","","","433242.6999999881","435245.1999999881","","","","","","","","","","","","6","","stimuli/stars_6.png","281","","","","","stimuli/BM03_AO.jpg","",""
"explore-choice","165","436403","0.0-165.0","p565497","A2V27A9GZA1NR2","3WPCIUYH1BELQU8EB2L3QVOOKYBTD4","3GS6S824SS3PR71FL39IY426L8OWNZ","emotion","match","uniform","","","","","","","1671.5","435245.90000003576","436917.40000003576","[""stimuli/BF04_DO.jpg"",""stimuli/WM09_AO.jpg"",""stimuli/BM03_HE.jpg"",""stimuli/AF02_CC.jpg""]","stimuli/BF04_DO.jpg","stimuli/WM09_AO.jpg","stimuli/BM03_HE.jpg","stimuli/AF02_CC.jpg","pos2","stimuli/WM09_AO.jpg","AO","WM09","1","4","8","8","stimuli/stars_8.png","285","[""DO"",""AO"",""HE"",""CC""]","[""BF04"",""WM09"",""BM03"",""AF02""]","[3,8,6,2]","[4,8,6,2]","","",""
"show-reward","166","438405","0.0-166.0","p565497","A2V27A9GZA1NR2","3WPCIUYH1BELQU8EB2L3QVOOKYBTD4","3GS6S824SS3PR71FL39IY426L8OWNZ","emotion","match","uniform","","","","","","","","437419.1999999881","439420.60000002384","","","","","","","","","","","","8","","stimuli/stars_8.png","285","","","","","stimuli/WM09_AO.jpg","",""
"explore-choice","167","441430","0.0-167.0","p565497","A2V27A9GZA1NR2","3WPCIUYH1BELQU8EB2L3QVOOKYBTD4","3GS6S824SS3PR71FL39IY426L8OWNZ","emotion","match","uniform","","","","","","","2524.699999988079","439421.3000000119","441946","[""stimuli/BF04_AO.jpg"",""stimuli/BM03_HE.jpg"",""stimuli/AF02_CC.jpg"",""stimuli/WM09_DO.jpg""]","stimuli/BF04_AO.jpg","stimuli/BM03_HE.jpg","stimuli/AF02_CC.jpg","stimuli/WM09_DO.jpg","pos1","stimuli/BF04_AO.jpg","AO","BF04","0","4.5","9","8","stimuli/stars_9.png","289.5","[""AO"",""HE"",""CC"",""DO""]","[""BF04"",""BM03"",""AF02"",""WM09""]","[9,7,4,5]","[8,6,2,4]","","",""
"show-reward","168","443433","0.0-168.0","p565497","A2V27A9GZA1NR2","3WPCIUYH1BELQU8EB2L3QVOOKYBTD4","3GS6S824SS3PR71FL39IY426L8OWNZ","emotion","match","uniform","","","","","","","","442447.10000002384","444448.60000002384","","","","","","","","","","","","9","","stimuli/stars_9.png","289.5","","","","","stimuli/BF04_AO.jpg","",""
"explore-choice","169","446548","0.0-169.0","p565497","A2V27A9GZA1NR2","3WPCIUYH1BELQU8EB2L3QVOOKYBTD4","3GS6S824SS3PR71FL39IY426L8OWNZ","emotion","match","uniform","","","","","","","2614.2000000476837","444449.1999999881","447063.40000003576","[""stimuli/WM09_AO.jpg"",""stimuli/BM03_DO.jpg"",""stimuli/AF02_HE.jpg"",""stimuli/BF04_CC.jpg""]","stimuli/WM09_AO.jpg","stimuli/BM03_DO.jpg","stimuli/AF02_HE.jpg","stimuli/BF04_CC.jpg","pos1","stimuli/WM09_AO.jpg","AO","WM09","0","4.5","9","8","stimuli/stars_9.png","294","[""AO"",""DO"",""HE"",""CC""]","[""WM09"",""BM03"",""AF02"",""BF04""]","[9,4,4,0]","[8,4,6,2]","","",""
"show-reward","170","448550","0.0-170.0","p565497","A2V27A9GZA1NR2","3WPCIUYH1BELQU8EB2L3QVOOKYBTD4","3GS6S824SS3PR71FL39IY426L8OWNZ","emotion","match","uniform","","","","","","","","447564.40000003576","449566.1999999881","","","","","","","","","","","","9","","stimuli/stars_9.png","294","","","","","stimuli/WM09_AO.jpg","",""
"explore-choice","171","450620","0.0-171.0","p565497","A2V27A9GZA1NR2","3WPCIUYH1BELQU8EB2L3QVOOKYBTD4","3GS6S824SS3PR71FL39IY426L8OWNZ","emotion","match","uniform","","","","","","","1568.7999999523163","449566.90000003576","451135.6999999881","[""stimuli/WM09_AO.jpg"",""stimuli/BM03_DO.jpg"",""stimuli/AF02_CC.jpg"",""stimuli/BF04_HE.jpg""]","stimuli/WM09_AO.jpg","stimuli/BM03_DO.jpg","stimuli/AF02_CC.jpg","stimuli/BF04_HE.jpg","pos1","stimuli/WM09_AO.jpg","AO","WM09","0","4.5","9","8","stimuli/stars_9.png","298.5","[""AO"",""DO"",""CC"",""HE""]","[""WM09"",""BM03"",""AF02"",""BF04""]","[9,2,1,5]","[8,4,2,6]","","",""
"show-reward","172","452623","0.0-172.0","p565497","A2V27A9GZA1NR2","3WPCIUYH1BELQU8EB2L3QVOOKYBTD4","3GS6S824SS3PR71FL39IY426L8OWNZ","emotion","match","uniform","","","","","","","","451636.90000003576","453639.3000000119","","","","","","","","","","","","9","","stimuli/stars_9.png","298.5","","","","","stimuli/WM09_AO.jpg","",""
"explore-choice","173","455311","0.0-173.0","p565497","A2V27A9GZA1NR2","3WPCIUYH1BELQU8EB2L3QVOOKYBTD4","3GS6S824SS3PR71FL39IY426L8OWNZ","emotion","match","uniform","","","","","","","2185.5","453640.10000002384","455825.60000002384","[""stimuli/BM03_AO.jpg"",""stimuli/BF04_DO.jpg"",""stimuli/AF02_CC.jpg"",""stimuli/WM09_HE.jpg""]","stimuli/BM03_AO.jpg","stimuli/BF04_DO.jpg","stimuli/AF02_CC.jpg","stimuli/WM09_HE.jpg","pos1","stimuli/BM03_AO.jpg","AO","BM03","0","4","8","8","stimuli/stars_8.png","302.5","[""AO"",""DO"",""CC"",""HE""]","[""BM03"",""BF04"",""AF02"",""WM09""]","[8,3,0,7]","[8,4,2,6]","","",""
"show-reward","174","457317","0.0-174.0","p565497","A2V27A9GZA1NR2","3WPCIUYH1BELQU8EB2L3QVOOKYBTD4","3GS6S824SS3PR71FL39IY426L8OWNZ","emotion","match","uniform","","","","","","","","456327.5","458332.6999999881","","","","","","","","","","","","8","","stimuli/stars_8.png","302.5","","","","","stimuli/BM03_AO.jpg","",""
"explore-choice","175","459974","0.0-175.0","p565497","A2V27A9GZA1NR2","3WPCIUYH1BELQU8EB2L3QVOOKYBTD4","3GS6S824SS3PR71FL39IY426L8OWNZ","emotion","match","uniform","","","","","","","2156.199999988079","458333.40000003576","460489.60000002384","[""stimuli/BM03_HE.jpg"",""stimuli/BF04_DO.jpg"",""stimuli/AF02_AO.jpg"",""stimuli/WM09_CC.jpg""]","stimuli/BM03_HE.jpg","stimuli/BF04_DO.jpg","stimuli/AF02_AO.jpg","stimuli/WM09_CC.jpg","pos3","stimuli/AF02_AO.jpg","AO","AF02","2","3.5","7","8","stimuli/stars_7.png","306","[""HE"",""DO"",""AO"",""CC""]","[""BM03"",""BF04"",""AF02"",""WM09""]","[6,2,7,4]","[6,4,8,2]","","",""
"show-reward","176","461977","0.0-176.0","p565497","A2V27A9GZA1NR2","3WPCIUYH1BELQU8EB2L3QVOOKYBTD4","3GS6S824SS3PR71FL39IY426L8OWNZ","emotion","match","uniform","","","","","","","","460991","462992.60000002384","","","","","","","","","","","","7","","stimuli/stars_7.png","306","","","","","stimuli/AF02_AO.jpg","",""
"explore-choice","177","465874","0.0-177.0","p565497","A2V27A9GZA1NR2","3WPCIUYH1BELQU8EB2L3QVOOKYBTD4","3GS6S824SS3PR71FL39IY426L8OWNZ","emotion","match","uniform","","","","","","","3395.699999988079","462993.40000003576","466389.10000002384","[""stimuli/BF04_AO.jpg"",""stimuli/AF02_HE.jpg"",""stimuli/WM09_CC.jpg"",""stimuli/BM03_DO.jpg""]","stimuli/BF04_AO.jpg","stimuli/AF02_HE.jpg","stimuli/WM09_CC.jpg","stimuli/BM03_DO.jpg","pos1","stimuli/BF04_AO.jpg","AO","BF04","0","4","8","8","stimuli/stars_8.png","310","[""AO"",""HE"",""CC"",""DO""]","[""BF04"",""AF02"",""WM09"",""BM03""]","[8,4,1,6]","[8,6,2,4]","","",""
"show-reward","178","467880","0.0-178.0","p565497","A2V27A9GZA1NR2","3WPCIUYH1BELQU8EB2L3QVOOKYBTD4","3GS6S824SS3PR71FL39IY426L8OWNZ","emotion","match","uniform","","","","","","","","466890.40000003576","468895.40000003576","","","","","","","","","","","","8","","stimuli/stars_8.png","310","","","","","stimuli/BF04_AO.jpg","",""
"explore-choice","179","472540","0.0-179.0","p565497","A2V27A9GZA1NR2","3WPCIUYH1BELQU8EB2L3QVOOKYBTD4","3GS6S824SS3PR71FL39IY426L8OWNZ","emotion","match","uniform","","","","","","","4154.100000023842","468896.1999999881","473050.3000000119","[""stimuli/BM03_HE.jpg"",""stimuli/AF02_DO.jpg"",""stimuli/WM09_AO.jpg"",""stimuli/BF04_CC.jpg""]","stimuli/BM03_HE.jpg","stimuli/AF02_DO.jpg","stimuli/WM09_AO.jpg","stimuli/BF04_CC.jpg","pos2","stimuli/AF02_DO.jpg","DO","AF02","1","1.5","3","4","stimuli/stars_3.png","311.5","[""HE"",""DO"",""AO"",""CC""]","[""BM03"",""AF02"",""WM09"",""BF04""]","[6,3,6,2]","[6,4,8,2]","","",""
"show-reward","180","474542","0.0-180.0","p565497","A2V27A9GZA1NR2","3WPCIUYH1BELQU8EB2L3QVOOKYBTD4","3GS6S824SS3PR71FL39IY426L8OWNZ","emotion","match","uniform","","","","","","","","473556.5","475558.40000003576","","","","","","","","","","","","3","","stimuli/stars_3.png","311.5","","","","","stimuli/AF02_DO.jpg","",""
"explore-choice","181","476301","0.0-181.0","p565497","A2V27A9GZA1NR2","3WPCIUYH1BELQU8EB2L3QVOOKYBTD4","3GS6S824SS3PR71FL39IY426L8OWNZ","emotion","match","uniform","","","","","","","1254.300000011921","475559.10000002384","476813.40000003576","[""stimuli/AF02_AO.jpg"",""stimuli/BM03_DO.jpg"",""stimuli/WM09_CC.jpg"",""stimuli/BF04_HE.jpg""]","stimuli/AF02_AO.jpg","stimuli/BM03_DO.jpg","stimuli/WM09_CC.jpg","stimuli/BF04_HE.jpg","pos1","stimuli/AF02_AO.jpg","AO","AF02","0","4.5","9","8","stimuli/stars_9.png","316","[""AO"",""DO"",""CC"",""HE""]","[""AF02"",""BM03"",""WM09"",""BF04""]","[9,6,4,6]","[8,4,2,6]","","",""
"show-reward","182","478304","0.0-182.0","p565497","A2V27A9GZA1NR2","3WPCIUYH1BELQU8EB2L3QVOOKYBTD4","3GS6S824SS3PR71FL39IY426L8OWNZ","emotion","match","uniform","","","","","","","","477318.1999999881","479319.90000003576","","","","","","","","","","","","9","","stimuli/stars_9.png","316","","","","","stimuli/AF02_AO.jpg","",""
"explore-choice","183","482154","0.0-183.0","p565497","A2V27A9GZA1NR2","3WPCIUYH1BELQU8EB2L3QVOOKYBTD4","3GS6S824SS3PR71FL39IY426L8OWNZ","emotion","match","uniform","","","","","","","3349.300000011921","479320.60000002384","482669.90000003576","[""stimuli/BF04_DO.jpg"",""stimuli/AF02_HE.jpg"",""stimuli/WM09_CC.jpg"",""stimuli/BM03_AO.jpg""]","stimuli/BF04_DO.jpg","stimuli/AF02_HE.jpg","stimuli/WM09_CC.jpg","stimuli/BM03_AO.jpg","pos4","stimuli/BM03_AO.jpg","AO","BM03","3","4","8","8","stimuli/stars_8.png","320","[""DO"",""HE"",""CC"",""AO""]","[""BF04"",""AF02"",""WM09"",""BM03""]","[6,8,1,8]","[4,6,2,8]","","",""
"show-reward","184","484157","0.0-184.0","p565497","A2V27A9GZA1NR2","3WPCIUYH1BELQU8EB2L3QVOOKYBTD4","3GS6S824SS3PR71FL39IY426L8OWNZ","emotion","match","uniform","","","","","","","","483170.90000003576","485173","","","","","","","","","","","","8","","stimuli/stars_8.png","320","","","","","stimuli/BM03_AO.jpg","",""
"explore-choice","185","488805","0.0-185.0","p565497","A2V27A9GZA1NR2","3WPCIUYH1BELQU8EB2L3QVOOKYBTD4","3GS6S824SS3PR71FL39IY426L8OWNZ","emotion","match","uniform","","","","","","","4138.699999988079","485173.8000000119","489312.5","[""stimuli/AF02_DO.jpg"",""stimuli/BM03_CC.jpg"",""stimuli/WM09_AO.jpg"",""stimuli/BF04_HE.jpg""]","stimuli/AF02_DO.jpg","stimuli/BM03_CC.jpg","stimuli/WM09_AO.jpg","stimuli/BF04_HE.jpg","pos3","stimuli/WM09_AO.jpg","AO","WM09","2","5","10","8","stimuli/stars_10.png","325","[""DO"",""CC"",""AO"",""HE""]","[""AF02"",""BM03"",""WM09"",""BF04""]","[4,3,10,7]","[4,2,8,6]","","",""
"show-reward","186","490807","0.0-186.0","p565497","A2V27A9GZA1NR2","3WPCIUYH1BELQU8EB2L3QVOOKYBTD4","3GS6S824SS3PR71FL39IY426L8OWNZ","emotion","match","uniform","","","","","","","","489821.5","491822.90000003576","","","","","","","","","","","","10","","stimuli/stars_10.png","325","","","","","stimuli/WM09_AO.jpg","",""
"explore-choice","187","494631","0.0-187.0","p565497","A2V27A9GZA1NR2","3WPCIUYH1BELQU8EB2L3QVOOKYBTD4","3GS6S824SS3PR71FL39IY426L8OWNZ","emotion","match","uniform","","","","","","","3322.699999988079","491823.60000002384","495146.3000000119","[""stimuli/BF04_AO.jpg"",""stimuli/AF02_DO.jpg"",""stimuli/BM03_CC.jpg"",""stimuli/WM09_HE.jpg""]","stimuli/BF04_AO.jpg","stimuli/AF02_DO.jpg","stimuli/BM03_CC.jpg","stimuli/WM09_HE.jpg","pos2","stimuli/AF02_DO.jpg","DO","AF02","1","2","4","4","stimuli/stars_4.png","327","[""AO"",""DO"",""CC"",""HE""]","[""BF04"",""AF02"",""BM03"",""WM09""]","[7,4,3,4]","[8,4,2,6]","","",""
"show-reward","188","496640","0.0-188.0","p565497","A2V27A9GZA1NR2","3WPCIUYH1BELQU8EB2L3QVOOKYBTD4","3GS6S824SS3PR71FL39IY426L8OWNZ","emotion","match","uniform","","","","","","","","495647.90000003576","497655.90000003576","","","","","","","","","","","","4","","stimuli/stars_4.png","327","","","","","stimuli/AF02_DO.jpg","",""
"explore-choice","189","501824","0.0-189.0","p565497","A2V27A9GZA1NR2","3WPCIUYH1BELQU8EB2L3QVOOKYBTD4","3GS6S824SS3PR71FL39IY426L8OWNZ","emotion","match","uniform","","","","","","","4678.5","497656.60000002384","502335.10000002384","[""stimuli/BF04_AO.jpg"",""stimuli/BM03_HE.jpg"",""stimuli/AF02_DO.jpg"",""stimuli/WM09_CC.jpg""]","stimuli/BF04_AO.jpg","stimuli/BM03_HE.jpg","stimuli/AF02_DO.jpg","stimuli/WM09_CC.jpg","pos1","stimuli/BF04_AO.jpg","AO","BF04","0","3.5","7","8","stimuli/stars_7.png","330.5","[""AO"",""HE"",""DO"",""CC""]","[""BF04"",""BM03"",""AF02"",""WM09""]","[7,8,2,0]","[8,6,4,2]","","",""
"show-reward","190","503831","0.0-190.0","p565497","A2V27A9GZA1NR2","3WPCIUYH1BELQU8EB2L3QVOOKYBTD4","3GS6S824SS3PR71FL39IY426L8OWNZ","emotion","match","uniform","","","","","","","","502840.8000000119","504846.8000000119","","","","","","","","","","","","7","","stimuli/stars_7.png","330.5","","","","","stimuli/BF04_AO.jpg","",""
"explore-choice","191","506064","0.0-191.0","p565497","A2V27A9GZA1NR2","3WPCIUYH1BELQU8EB2L3QVOOKYBTD4","3GS6S824SS3PR71FL39IY426L8OWNZ","emotion","match","uniform","","","","","","","1731.8999999761581","504847.40000003576","506579.3000000119","[""stimuli/BF04_HE.jpg"",""stimuli/WM09_DO.jpg"",""stimuli/BM03_CC.jpg"",""stimuli/AF02_AO.jpg""]","stimuli/BF04_HE.jpg","stimuli/WM09_DO.jpg","stimuli/BM03_CC.jpg","stimuli/AF02_AO.jpg","pos4","stimuli/AF02_AO.jpg","AO","AF02","3","4","8","8","stimuli/stars_8.png","334.5","[""HE"",""DO"",""CC"",""AO""]","[""BF04"",""WM09"",""BM03"",""AF02""]","[8,2,2,8]","[6,4,2,8]","","",""
"show-reward","192","508067","0.0-192.0","p565497","A2V27A9GZA1NR2","3WPCIUYH1BELQU8EB2L3QVOOKYBTD4","3GS6S824SS3PR71FL39IY426L8OWNZ","emotion","match","uniform","","","","","","","","507081","509083","","","","","","","","","","","","8","","stimuli/stars_8.png","334.5","","","","","stimuli/AF02_AO.jpg","",""
"explore-choice","193","510890","0.0-193.0","p565497","A2V27A9GZA1NR2","3WPCIUYH1BELQU8EB2L3QVOOKYBTD4","3GS6S824SS3PR71FL39IY426L8OWNZ","emotion","match","uniform","","","","","","","2322.199999988079","509083.60000002384","511405.8000000119","[""stimuli/BM03_CC.jpg"",""stimuli/AF02_HE.jpg"",""stimuli/BF04_AO.jpg"",""stimuli/WM09_DO.jpg""]","stimuli/BM03_CC.jpg","stimuli/AF02_HE.jpg","stimuli/BF04_AO.jpg","stimuli/WM09_DO.jpg","pos3","stimuli/BF04_AO.jpg","AO","BF04","2","3.5","7","8","stimuli/stars_7.png","338","[""CC"",""HE"",""AO"",""DO""]","[""BM03"",""AF02"",""BF04"",""WM09""]","[0,4,7,5]","[2,6,8,4]","","",""
"show-reward","194","512892","0.0-194.0","p565497","A2V27A9GZA1NR2","3WPCIUYH1BELQU8EB2L3QVOOKYBTD4","3GS6S824SS3PR71FL39IY426L8OWNZ","emotion","match","uniform","","","","","","","","511906.6999999881","513908","","","","","","","","","","","","7","","stimuli/stars_7.png","338","","","","","stimuli/BF04_AO.jpg","",""
"explore-choice","195","518495","0.0-195.0","p565497","A2V27A9GZA1NR2","3WPCIUYH1BELQU8EB2L3QVOOKYBTD4","3GS6S824SS3PR71FL39IY426L8OWNZ","emotion","match","uniform","","","","","","","5090.5","513909.1999999881","518999.6999999881","[""stimuli/WM09_CC.jpg"",""stimuli/BM03_AO.jpg"",""stimuli/BF04_HE.jpg"",""stimuli/AF02_DO.jpg""]","stimuli/WM09_CC.jpg","stimuli/BM03_AO.jpg","stimuli/BF04_HE.jpg","stimuli/AF02_DO.jpg","pos2","stimuli/BM03_AO.jpg","AO","BM03","1","3","6","8","stimuli/stars_6.png","341","[""CC"",""AO"",""HE"",""DO""]","[""WM09"",""BM03"",""BF04"",""AF02""]","[2,6,4,3]","[2,8,6,4]","","",""
"show-reward","196","520498","0.0-196.0","p565497","A2V27A9GZA1NR2","3WPCIUYH1BELQU8EB2L3QVOOKYBTD4","3GS6S824SS3PR71FL39IY426L8OWNZ","emotion","match","uniform","","","","","","","","519511.6999999881","521513.90000003576","","","","","","","","","","","","6","","stimuli/stars_6.png","341","","","","","stimuli/BM03_AO.jpg","",""
"explore-choice","197","523522","0.0-197.0","p565497","A2V27A9GZA1NR2","3WPCIUYH1BELQU8EB2L3QVOOKYBTD4","3GS6S824SS3PR71FL39IY426L8OWNZ","emotion","match","uniform","","","","","","","2522.5","521514.60000002384","524037.10000002384","[""stimuli/BM03_HE.jpg"",""stimuli/BF04_CC.jpg"",""stimuli/AF02_AO.jpg"",""stimuli/WM09_DO.jpg""]","stimuli/BM03_HE.jpg","stimuli/BF04_CC.jpg","stimuli/AF02_AO.jpg","stimuli/WM09_DO.jpg","pos3","stimuli/AF02_AO.jpg","AO","AF02","2","3","6","8","stimuli/stars_6.png","344","[""HE"",""CC"",""AO"",""DO""]","[""BM03"",""BF04"",""AF02"",""WM09""]","[8,1,6,4]","[6,2,8,4]","","",""
"show-reward","198","525525","0.0-198.0","p565497","A2V27A9GZA1NR2","3WPCIUYH1BELQU8EB2L3QVOOKYBTD4","3GS6S824SS3PR71FL39IY426L8OWNZ","emotion","match","uniform","","","","","","","","524538.4000000358","526541","","","","","","","","","","","","6","","stimuli/stars_6.png","344","","","","","stimuli/AF02_AO.jpg","",""
"instructions","199","533851","0.0-199.0","p565497","A2V27A9GZA1NR2","3WPCIUYH1BELQU8EB2L3QVOOKYBTD4","3GS6S824SS3PR71FL39IY426L8OWNZ","emotion","match","uniform","","","","","","[{""page_index"":0,""viewing_time"":8324.199999988079}]","8325","","","","","","","","","","","","","","","","","","","","","","","",""
"survey-text","200","537940","0.0-200.0-0.0","p565497","A2V27A9GZA1NR2","3WPCIUYH1BELQU8EB2L3QVOOKYBTD4","3GS6S824SS3PR71FL39IY426L8OWNZ","emotion","match","uniform","","","","","","","4086","","","","","","","","","","","","","","","","","","","","","","","{""age"":""41""}",""
"survey-text","201","541663","0.0-200.0-1.0","p565497","A2V27A9GZA1NR2","3WPCIUYH1BELQU8EB2L3QVOOKYBTD4","3GS6S824SS3PR71FL39IY426L8OWNZ","emotion","match","uniform","","","","","","","3721.399999976158","","","","","","","","","","","","","","","","","","","","","","","{""gender"":""Male""}",""
"survey-text","202","549631","0.0-200.0-2.0","p565497","A2V27A9GZA1NR2","3WPCIUYH1BELQU8EB2L3QVOOKYBTD4","3GS6S824SS3PR71FL39IY426L8OWNZ","emotion","match","uniform","","","","","","","7965.5","","","","","","","","","","","","","","","","","","","","","","","{""country"":""USA""}",""
"survey-text","203","558998","0.0-200.0-3.0","p565497","A2V27A9GZA1NR2","3WPCIUYH1BELQU8EB2L3QVOOKYBTD4","3GS6S824SS3PR71FL39IY426L8OWNZ","emotion","match","uniform","","","","","","","9364.5","","","","","","","","","","","","","","","","","","","","","","","{""language"":""English"",""other_languages"":""n/a""}",""
"survey-multi-select","204","561632","0.0-201.0","p565497","A2V27A9GZA1NR2","3WPCIUYH1BELQU8EB2L3QVOOKYBTD4","3GS6S824SS3PR71FL39IY426L8OWNZ","emotion","match","uniform","","","","","","","2628.5","","","","","","","","","","","","","","","","","","","","","","","{""race"":[""White""]}","[0]"
"survey-multi-choice","205","564691","0.0-202.0","p565497","A2V27A9GZA1NR2","3WPCIUYH1BELQU8EB2L3QVOOKYBTD4","3GS6S824SS3PR71FL39IY426L8OWNZ","emotion","match","uniform","","","","","","","3056.7999999523163","","","","","","","","","","","","","","","","","","","","","","","{""education"":""Some college/ university""}","[0]"
"survey-text","206","598039","0.0-203.0","p565497","A2V27A9GZA1NR2","3WPCIUYH1BELQU8EB2L3QVOOKYBTD4","3GS6S824SS3PR71FL39IY426L8OWNZ","emotion","match","uniform","","","","","","","33344.10000002384","","","","","","","","","","","","","","","","","","","","","","","{""patterns"":""First part I think I should look for \""sad\"" expression and second part for \""anger\"""",""strategy"":""First part I think I should look for \""sad\"" expression and second part for \""anger\"""",""comments"":""ty""}",""
