"trial_type","trial_index","time_elapsed","internal_node_id","subject","workerId","hitId","assignmentId","structure_condition","match_condition","noise_type","success","timeout","failed_images","failed_audio","failed_video","view_history","rt","start_time","end_time","stimuli","image1","image2","image3","image4","choiceLocation","choiceImage","choiceEmotion","choiceModel","choice_index","reward_score","reward","reward_score_unadjusted","reward_image","score_after_trial","emotions","models","rewards","rewards_unadjusted","stimulus","response","question_order"
"pavlovia","0","7","0.0-0.0","p342266","A2583YP0HGTKAG","3P888QFVX40Z2B7BK75OWKP045JQOK","3JRJSWSMQJRO63MEIKVX3KX09NT3EB","model","mismatch","uniform","","","","","","","","","","","","","","","","","","","","","","","","","","","","","","",""
"preload","1","60194","0.0-1.0","p342266","A2583YP0HGTKAG","3P888QFVX40Z2B7BK75OWKP045JQOK","3JRJSWSMQJRO63MEIKVX3KX09NT3EB","model","mismatch","uniform","true","false","[]","[]","[]","","","","","","","","","","","","","","","","","","","","","","","","","",""
"fullscreen","2","74203","0.0-2.0","p342266","A2583YP0HGTKAG","3P888QFVX40Z2B7BK75OWKP045JQOK","3JRJSWSMQJRO63MEIKVX3KX09NT3EB","model","mismatch","uniform","true","","","","","","","","","","","","","","","","","","","","","","","","","","","","","",""
"instructions","3","77581","0.0-3.0","p342266","A2583YP0HGTKAG","3P888QFVX40Z2B7BK75OWKP045JQOK","3JRJSWSMQJRO63MEIKVX3KX09NT3EB","model","mismatch","uniform","","","","","","[{""page_index"":0,""viewing_time"":3377}]","3377","","","","","","","","","","","","","","","","","","","","","","","",""
"explore-choice","4","79675","0.0-4.0","p342266","A2583YP0HGTKAG","3P888QFVX40Z2B7BK75OWKP045JQOK","3JRJSWSMQJRO63MEIKVX3KX09NT3EB","model","mismatch","uniform","","","","","","","1582","79178","80760","[""stimuli/sheep.jpg"",""stimuli/hammer.jpg"",""stimuli/basketball.jpg"",""stimuli/horse.jpg""]","stimuli/sheep.jpg","stimuli/hammer.jpg","stimuli/basketball.jpg","stimuli/horse.jpg","pos4","stimuli/horse.jpg","","","3","64","64","64","stimuli/stars_8.png","65","","","","","","",""
"explore-choice","5","81347","0.0-5.0","p342266","A2583YP0HGTKAG","3P888QFVX40Z2B7BK75OWKP045JQOK","3JRJSWSMQJRO63MEIKVX3KX09NT3EB","model","mismatch","uniform","","","","","","","1170","81272","82442","[""stimuli/hammer.jpg"",""stimuli/basketball.jpg"",""stimuli/horse.jpg"",""stimuli/sheep.jpg""]","stimuli/hammer.jpg","stimuli/basketball.jpg","stimuli/horse.jpg","stimuli/sheep.jpg","pos1","stimuli/hammer.jpg","","","0","8","8","8","stimuli/stars_2.png","9","","","","","","",""
"instructions","6","91713","0.0-6.0","p342266","A2583YP0HGTKAG","3P888QFVX40Z2B7BK75OWKP045JQOK","3JRJSWSMQJRO63MEIKVX3KX09NT3EB","model","mismatch","uniform","","","","","","[{""page_index"":0,""viewing_time"":10365}]","10365","","","","","","","","","","","","","","","","","","","","","","","",""
"explore-choice","7","95571","0.0-7.0","p342266","A2583YP0HGTKAG","3P888QFVX40Z2B7BK75OWKP045JQOK","3JRJSWSMQJRO63MEIKVX3KX09NT3EB","model","mismatch","uniform","","","","","","","3349","93311","96660","[""stimuli/WM13_HE.jpg"",""stimuli/BM16_SUR.jpg"",""stimuli/HM10_SC.jpg"",""stimuli/HF02_AO.jpg""]","stimuli/WM13_HE.jpg","stimuli/BM16_SUR.jpg","stimuli/HM10_SC.jpg","stimuli/HF02_AO.jpg","pos1","stimuli/WM13_HE.jpg","HE","WM13","0","3","6","6","stimuli/stars_6.png","4","[""HE"",""SUR"",""SC"",""AO""]","[""WM13"",""BM16"",""HM10"",""HF02""]","[6,1,4,10]","[6,2,4,8]","","",""
"show-reward","8","97582","0.0-8.0","p342266","A2583YP0HGTKAG","3P888QFVX40Z2B7BK75OWKP045JQOK","3JRJSWSMQJRO63MEIKVX3KX09NT3EB","model","mismatch","uniform","","","","","","","","97169","99179","","","","","","","","","","","","6","","stimuli/stars_6.png","4","","","","","stimuli/WM13_HE.jpg","",""
"explore-choice","9","99435","0.0-9.0","p342266","A2583YP0HGTKAG","3P888QFVX40Z2B7BK75OWKP045JQOK","3JRJSWSMQJRO63MEIKVX3KX09NT3EB","model","mismatch","uniform","","","","","","","1346","99180","100526","[""stimuli/WM13_SC.jpg"",""stimuli/HM10_HE.jpg"",""stimuli/BM16_AO.jpg"",""stimuli/HF02_SUR.jpg""]","stimuli/WM13_SC.jpg","stimuli/HM10_HE.jpg","stimuli/BM16_AO.jpg","stimuli/HF02_SUR.jpg","pos2","stimuli/HM10_HE.jpg","HE","HM10","1","1.5","3","4","stimuli/stars_3.png","5.5","[""SC"",""HE"",""AO"",""SUR""]","[""WM13"",""HM10"",""BM16"",""HF02""]","[5,3,1,7]","[6,4,2,8]","","",""
"show-reward","10","101449","0.0-10.0","p342266","A2583YP0HGTKAG","3P888QFVX40Z2B7BK75OWKP045JQOK","3JRJSWSMQJRO63MEIKVX3KX09NT3EB","model","mismatch","uniform","","","","","","","","101032","103046","","","","","","","","","","","","3","","stimuli/stars_3.png","5.5","","","","","stimuli/HM10_HE.jpg","",""
"explore-choice","11","104242","0.0-11.0","p342266","A2583YP0HGTKAG","3P888QFVX40Z2B7BK75OWKP045JQOK","3JRJSWSMQJRO63MEIKVX3KX09NT3EB","model","mismatch","uniform","","","","","","","2279","103047","105326","[""stimuli/HF02_SC.jpg"",""stimuli/WM13_SUR.jpg"",""stimuli/HM10_HE.jpg"",""stimuli/BM16_AO.jpg""]","stimuli/HF02_SC.jpg","stimuli/WM13_SUR.jpg","stimuli/HM10_HE.jpg","stimuli/BM16_AO.jpg","pos2","stimuli/WM13_SUR.jpg","SUR","WM13","1","3","6","6","stimuli/stars_6.png","8.5","[""SC"",""SUR"",""HE"",""AO""]","[""HF02"",""WM13"",""HM10"",""BM16""]","[10,6,4,4]","[8,6,4,2]","","",""
"show-reward","12","106243","0.0-12.0","p342266","A2583YP0HGTKAG","3P888QFVX40Z2B7BK75OWKP045JQOK","3JRJSWSMQJRO63MEIKVX3KX09NT3EB","model","mismatch","uniform","","","","","","","","105839","107840","","","","","","","","","","","","6","","stimuli/stars_6.png","8.5","","","","","stimuli/WM13_SUR.jpg","",""
"explore-choice","13","108292","0.0-13.0","p342266","A2583YP0HGTKAG","3P888QFVX40Z2B7BK75OWKP045JQOK","3JRJSWSMQJRO63MEIKVX3KX09NT3EB","model","mismatch","uniform","","","","","","","1548","107840","109388","[""stimuli/WM13_AO.jpg"",""stimuli/BM16_SC.jpg"",""stimuli/HM10_HE.jpg"",""stimuli/HF02_SUR.jpg""]","stimuli/WM13_AO.jpg","stimuli/BM16_SC.jpg","stimuli/HM10_HE.jpg","stimuli/HF02_SUR.jpg","pos3","stimuli/HM10_HE.jpg","HE","HM10","2","1.5","3","4","stimuli/stars_3.png","10","[""AO"",""SC"",""HE"",""SUR""]","[""WM13"",""BM16"",""HM10"",""HF02""]","[6,3,3,10]","[6,2,4,8]","","",""
"show-reward","14","110303","0.0-14.0","p342266","A2583YP0HGTKAG","3P888QFVX40Z2B7BK75OWKP045JQOK","3JRJSWSMQJRO63MEIKVX3KX09NT3EB","model","mismatch","uniform","","","","","","","","109890","111900","","","","","","","","","","","","3","","stimuli/stars_3.png","10","","","","","stimuli/HM10_HE.jpg","",""
"explore-choice","15","111527","0.0-15.0","p342266","A2583YP0HGTKAG","3P888QFVX40Z2B7BK75OWKP045JQOK","3JRJSWSMQJRO63MEIKVX3KX09NT3EB","model","mismatch","uniform","","","","","","","719","111901","112620","[""stimuli/WM13_SUR.jpg"",""stimuli/BM16_HE.jpg"",""stimuli/HF02_AO.jpg"",""stimuli/HM10_SC.jpg""]","stimuli/WM13_SUR.jpg","stimuli/BM16_HE.jpg","stimuli/HF02_AO.jpg","stimuli/HM10_SC.jpg","pos1","stimuli/WM13_SUR.jpg","SUR","WM13","0","4","8","6","stimuli/stars_8.png","14","[""SUR"",""HE"",""AO"",""SC""]","[""WM13"",""BM16"",""HF02"",""HM10""]","[8,2,6,5]","[6,2,8,4]","","",""
"show-reward","16","113539","0.0-16.0","p342266","A2583YP0HGTKAG","3P888QFVX40Z2B7BK75OWKP045JQOK","3JRJSWSMQJRO63MEIKVX3KX09NT3EB","model","mismatch","uniform","","","","","","","","113124","115136","","","","","","","","","","","","8","","stimuli/stars_8.png","14","","","","","stimuli/WM13_SUR.jpg","",""
"explore-choice","17","114947","0.0-17.0","p342266","A2583YP0HGTKAG","3P888QFVX40Z2B7BK75OWKP045JQOK","3JRJSWSMQJRO63MEIKVX3KX09NT3EB","model","mismatch","uniform","","","","","","","901","115137","116038","[""stimuli/HM10_SC.jpg"",""stimuli/BM16_AO.jpg"",""stimuli/WM13_HE.jpg"",""stimuli/HF02_SUR.jpg""]","stimuli/HM10_SC.jpg","stimuli/BM16_AO.jpg","stimuli/WM13_HE.jpg","stimuli/HF02_SUR.jpg","pos3","stimuli/WM13_HE.jpg","HE","WM13","2","4","8","6","stimuli/stars_8.png","18","[""SC"",""AO"",""HE"",""SUR""]","[""HM10"",""BM16"",""WM13"",""HF02""]","[5,1,8,10]","[4,2,6,8]","","",""
"show-reward","18","116951","0.0-18.0","p342266","A2583YP0HGTKAG","3P888QFVX40Z2B7BK75OWKP045JQOK","3JRJSWSMQJRO63MEIKVX3KX09NT3EB","model","mismatch","uniform","","","","","","","","116544","118548","","","","","","","","","","","","8","","stimuli/stars_8.png","18","","","","","stimuli/WM13_HE.jpg","",""
"explore-choice","19","118477","0.0-19.0","p342266","A2583YP0HGTKAG","3P888QFVX40Z2B7BK75OWKP045JQOK","3JRJSWSMQJRO63MEIKVX3KX09NT3EB","model","mismatch","uniform","","","","","","","1026","118548","119574","[""stimuli/HF02_SUR.jpg"",""stimuli/WM13_SC.jpg"",""stimuli/BM16_HE.jpg"",""stimuli/HM10_AO.jpg""]","stimuli/HF02_SUR.jpg","stimuli/WM13_SC.jpg","stimuli/BM16_HE.jpg","stimuli/HM10_AO.jpg","pos2","stimuli/WM13_SC.jpg","SC","WM13","1","3","6","6","stimuli/stars_6.png","21","[""SUR"",""SC"",""HE"",""AO""]","[""HF02"",""WM13"",""BM16"",""HM10""]","[7,6,1,5]","[8,6,2,4]","","",""
"show-reward","20","120483","0.0-20.0","p342266","A2583YP0HGTKAG","3P888QFVX40Z2B7BK75OWKP045JQOK","3JRJSWSMQJRO63MEIKVX3KX09NT3EB","model","mismatch","uniform","","","","","","","","120074","122079","","","","","","","","","","","","6","","stimuli/stars_6.png","21","","","","","stimuli/WM13_SC.jpg","",""
"explore-choice","21","123878","0.0-21.0","p342266","A2583YP0HGTKAG","3P888QFVX40Z2B7BK75OWKP045JQOK","3JRJSWSMQJRO63MEIKVX3KX09NT3EB","model","mismatch","uniform","","","","","","","2880","122080","124960","[""stimuli/WM13_AO.jpg"",""stimuli/HF02_HE.jpg"",""stimuli/HM10_SC.jpg"",""stimuli/BM16_SUR.jpg""]","stimuli/WM13_AO.jpg","stimuli/HF02_HE.jpg","stimuli/HM10_SC.jpg","stimuli/BM16_SUR.jpg","pos2","stimuli/HF02_HE.jpg","HE","HF02","1","3.5","7","8","stimuli/stars_7.png","24.5","[""AO"",""HE"",""SC"",""SUR""]","[""WM13"",""HF02"",""HM10"",""BM16""]","[4,7,5,1]","[6,8,4,2]","","",""
"show-reward","22","125895","0.0-22.0","p342266","A2583YP0HGTKAG","3P888QFVX40Z2B7BK75OWKP045JQOK","3JRJSWSMQJRO63MEIKVX3KX09NT3EB","model","mismatch","uniform","","","","","","","","125476","127492","","","","","","","","","","","","7","","stimuli/stars_7.png","24.5","","","","","stimuli/HF02_HE.jpg","",""
"explore-choice","23","127705","0.0-23.0","p342266","A2583YP0HGTKAG","3P888QFVX40Z2B7BK75OWKP045JQOK","3JRJSWSMQJRO63MEIKVX3KX09NT3EB","model","mismatch","uniform","","","","","","","1297","127493","128790","[""stimuli/HM10_SC.jpg"",""stimuli/HF02_HE.jpg"",""stimuli/BM16_AO.jpg"",""stimuli/WM13_SUR.jpg""]","stimuli/HM10_SC.jpg","stimuli/HF02_HE.jpg","stimuli/BM16_AO.jpg","stimuli/WM13_SUR.jpg","pos3","stimuli/BM16_AO.jpg","AO","BM16","2","0","0","2","stimuli/stars_0.png","24.5","[""SC"",""HE"",""AO"",""SUR""]","[""HM10"",""HF02"",""BM16"",""WM13""]","[3,6,0,6]","[4,8,2,6]","","",""
"show-reward","24","129721","0.0-24.0","p342266","A2583YP0HGTKAG","3P888QFVX40Z2B7BK75OWKP045JQOK","3JRJSWSMQJRO63MEIKVX3KX09NT3EB","model","mismatch","uniform","","","","","","","","129302","131318","","","","","","","","","","","","0","","stimuli/stars_0.png","24.5","","","","","stimuli/BM16_AO.jpg","",""
"explore-choice","25","131479","0.0-25.0","p342266","A2583YP0HGTKAG","3P888QFVX40Z2B7BK75OWKP045JQOK","3JRJSWSMQJRO63MEIKVX3KX09NT3EB","model","mismatch","uniform","","","","","","","1246","131318","132564","[""stimuli/HF02_AO.jpg"",""stimuli/WM13_SC.jpg"",""stimuli/BM16_HE.jpg"",""stimuli/HM10_SUR.jpg""]","stimuli/HF02_AO.jpg","stimuli/WM13_SC.jpg","stimuli/BM16_HE.jpg","stimuli/HM10_SUR.jpg","pos2","stimuli/WM13_SC.jpg","SC","WM13","1","3","6","6","stimuli/stars_6.png","27.5","[""AO"",""SC"",""HE"",""SUR""]","[""HF02"",""WM13"",""BM16"",""HM10""]","[6,6,0,3]","[8,6,2,4]","","",""
"show-reward","26","133483","0.0-26.0","p342266","A2583YP0HGTKAG","3P888QFVX40Z2B7BK75OWKP045JQOK","3JRJSWSMQJRO63MEIKVX3KX09NT3EB","model","mismatch","uniform","","","","","","","","133077","135080","","","","","","","","","","","","6","","stimuli/stars_6.png","27.5","","","","","stimuli/WM13_SC.jpg","",""
"explore-choice","27","135338","0.0-27.0","p342266","A2583YP0HGTKAG","3P888QFVX40Z2B7BK75OWKP045JQOK","3JRJSWSMQJRO63MEIKVX3KX09NT3EB","model","mismatch","uniform","","","","","","","1344","135080","136424","[""stimuli/BM16_HE.jpg"",""stimuli/HF02_SC.jpg"",""stimuli/WM13_SUR.jpg"",""stimuli/HM10_AO.jpg""]","stimuli/BM16_HE.jpg","stimuli/HF02_SC.jpg","stimuli/WM13_SUR.jpg","stimuli/HM10_AO.jpg","pos2","stimuli/HF02_SC.jpg","SC","HF02","1","4.5","9","8","stimuli/stars_9.png","32","[""HE"",""SC"",""SUR"",""AO""]","[""BM16"",""HF02"",""WM13"",""HM10""]","[3,9,4,2]","[2,8,6,4]","","",""
"show-reward","28","137341","0.0-28.0","p342266","A2583YP0HGTKAG","3P888QFVX40Z2B7BK75OWKP045JQOK","3JRJSWSMQJRO63MEIKVX3KX09NT3EB","model","mismatch","uniform","","","","","","","","136935","138938","","","","","","","","","","","","9","","stimuli/stars_9.png","32","","","","","stimuli/HF02_SC.jpg","",""
"explore-choice","29","138766","0.0-29.0","p342266","A2583YP0HGTKAG","3P888QFVX40Z2B7BK75OWKP045JQOK","3JRJSWSMQJRO63MEIKVX3KX09NT3EB","model","mismatch","uniform","","","","","","","919","138938","139857","[""stimuli/WM13_AO.jpg"",""stimuli/BM16_SUR.jpg"",""stimuli/HM10_HE.jpg"",""stimuli/HF02_SC.jpg""]","stimuli/WM13_AO.jpg","stimuli/BM16_SUR.jpg","stimuli/HM10_HE.jpg","stimuli/HF02_SC.jpg","pos4","stimuli/HF02_SC.jpg","SC","HF02","3","4","8","8","stimuli/stars_8.png","36","[""AO"",""SUR"",""HE"",""SC""]","[""WM13"",""BM16"",""HM10"",""HF02""]","[8,3,3,8]","[6,2,4,8]","","",""
"show-reward","30","140781","0.0-30.0","p342266","A2583YP0HGTKAG","3P888QFVX40Z2B7BK75OWKP045JQOK","3JRJSWSMQJRO63MEIKVX3KX09NT3EB","model","mismatch","uniform","","","","","","","","140364","142378","","","","","","","","","","","","8","","stimuli/stars_8.png","36","","","","","stimuli/HF02_SC.jpg","",""
"explore-choice","31","142029","0.0-31.0","p342266","A2583YP0HGTKAG","3P888QFVX40Z2B7BK75OWKP045JQOK","3JRJSWSMQJRO63MEIKVX3KX09NT3EB","model","mismatch","uniform","","","","","","","735","142379","143114","[""stimuli/HF02_HE.jpg"",""stimuli/BM16_AO.jpg"",""stimuli/WM13_SC.jpg"",""stimuli/HM10_SUR.jpg""]","stimuli/HF02_HE.jpg","stimuli/BM16_AO.jpg","stimuli/WM13_SC.jpg","stimuli/HM10_SUR.jpg","pos1","stimuli/HF02_HE.jpg","HE","HF02","0","3.5","7","8","stimuli/stars_7.png","39.5","[""HE"",""AO"",""SC"",""SUR""]","[""HF02"",""BM16"",""WM13"",""HM10""]","[7,4,8,3]","[8,2,6,4]","","",""
"show-reward","32","144042","0.0-32.0","p342266","A2583YP0HGTKAG","3P888QFVX40Z2B7BK75OWKP045JQOK","3JRJSWSMQJRO63MEIKVX3KX09NT3EB","model","mismatch","uniform","","","","","","","","143626","145639","","","","","","","","","","","","7","","stimuli/stars_7.png","39.5","","","","","stimuli/HF02_HE.jpg","",""
"explore-choice","33","145302","0.0-33.0","p342266","A2583YP0HGTKAG","3P888QFVX40Z2B7BK75OWKP045JQOK","3JRJSWSMQJRO63MEIKVX3KX09NT3EB","model","mismatch","uniform","","","","","","","753","145639","146392","[""stimuli/BM16_SC.jpg"",""stimuli/HF02_SUR.jpg"",""stimuli/WM13_HE.jpg"",""stimuli/HM10_AO.jpg""]","stimuli/BM16_SC.jpg","stimuli/HF02_SUR.jpg","stimuli/WM13_HE.jpg","stimuli/HM10_AO.jpg","pos2","stimuli/HF02_SUR.jpg","SUR","HF02","1","4.5","9","8","stimuli/stars_9.png","44","[""SC"",""SUR"",""HE"",""AO""]","[""BM16"",""HF02"",""WM13"",""HM10""]","[4,9,8,5]","[2,8,6,4]","","",""
"show-reward","34","147304","0.0-34.0","p342266","A2583YP0HGTKAG","3P888QFVX40Z2B7BK75OWKP045JQOK","3JRJSWSMQJRO63MEIKVX3KX09NT3EB","model","mismatch","uniform","","","","","","","","146900","148902","","","","","","","","","","","","9","","stimuli/stars_9.png","44","","","","","stimuli/HF02_SUR.jpg","",""
"explore-choice","35","148622","0.0-35.0","p342266","A2583YP0HGTKAG","3P888QFVX40Z2B7BK75OWKP045JQOK","3JRJSWSMQJRO63MEIKVX3KX09NT3EB","model","mismatch","uniform","","","","","","","807","148903","149710","[""stimuli/WM13_SUR.jpg"",""stimuli/HM10_AO.jpg"",""stimuli/BM16_SC.jpg"",""stimuli/HF02_HE.jpg""]","stimuli/WM13_SUR.jpg","stimuli/HM10_AO.jpg","stimuli/BM16_SC.jpg","stimuli/HF02_HE.jpg","pos4","stimuli/HF02_HE.jpg","HE","HF02","3","4.5","9","8","stimuli/stars_9.png","48.5","[""SUR"",""AO"",""SC"",""HE""]","[""WM13"",""HM10"",""BM16"",""HF02""]","[8,4,2,9]","[6,4,2,8]","","",""
"show-reward","36","150623","0.0-36.0","p342266","A2583YP0HGTKAG","3P888QFVX40Z2B7BK75OWKP045JQOK","3JRJSWSMQJRO63MEIKVX3KX09NT3EB","model","mismatch","uniform","","","","","","","","150220","152221","","","","","","","","","","","","9","","stimuli/stars_9.png","48.5","","","","","stimuli/HF02_HE.jpg","",""
"explore-choice","37","151886","0.0-37.0","p342266","A2583YP0HGTKAG","3P888QFVX40Z2B7BK75OWKP045JQOK","3JRJSWSMQJRO63MEIKVX3KX09NT3EB","model","mismatch","uniform","","","","","","","753","152221","152974","[""stimuli/HF02_AO.jpg"",""stimuli/WM13_SUR.jpg"",""stimuli/HM10_HE.jpg"",""stimuli/BM16_SC.jpg""]","stimuli/HF02_AO.jpg","stimuli/WM13_SUR.jpg","stimuli/HM10_HE.jpg","stimuli/BM16_SC.jpg","pos1","stimuli/HF02_AO.jpg","AO","HF02","0","3.5","7","8","stimuli/stars_7.png","52","[""AO"",""SUR"",""HE"",""SC""]","[""HF02"",""WM13"",""HM10"",""BM16""]","[7,6,3,1]","[8,6,4,2]","","",""
"show-reward","38","153888","0.0-38.0","p342266","A2583YP0HGTKAG","3P888QFVX40Z2B7BK75OWKP045JQOK","3JRJSWSMQJRO63MEIKVX3KX09NT3EB","model","mismatch","uniform","","","","","","","","153484","155485","","","","","","","","","","","","7","","stimuli/stars_7.png","52","","","","","stimuli/HF02_AO.jpg","",""
"explore-choice","39","155226","0.0-39.0","p342266","A2583YP0HGTKAG","3P888QFVX40Z2B7BK75OWKP045JQOK","3JRJSWSMQJRO63MEIKVX3KX09NT3EB","model","mismatch","uniform","","","","","","","828","155486","156314","[""stimuli/WM13_AO.jpg"",""stimuli/HM10_SUR.jpg"",""stimuli/BM16_HE.jpg"",""stimuli/HF02_SC.jpg""]","stimuli/WM13_AO.jpg","stimuli/HM10_SUR.jpg","stimuli/BM16_HE.jpg","stimuli/HF02_SC.jpg","pos4","stimuli/HF02_SC.jpg","SC","HF02","3","5","10","8","stimuli/stars_10.png","57","[""AO"",""SUR"",""HE"",""SC""]","[""WM13"",""HM10"",""BM16"",""HF02""]","[4,5,1,10]","[6,4,2,8]","","",""
"show-reward","40","157237","0.0-40.0","p342266","A2583YP0HGTKAG","3P888QFVX40Z2B7BK75OWKP045JQOK","3JRJSWSMQJRO63MEIKVX3KX09NT3EB","model","mismatch","uniform","","","","","","","","156824","158833","","","","","","","","","","","","10","","stimuli/stars_10.png","57","","","","","stimuli/HF02_SC.jpg","",""
"explore-choice","41","159009","0.0-41.0","p342266","A2583YP0HGTKAG","3P888QFVX40Z2B7BK75OWKP045JQOK","3JRJSWSMQJRO63MEIKVX3KX09NT3EB","model","mismatch","uniform","","","","","","","1264","158834","160098","[""stimuli/HM10_HE.jpg"",""stimuli/BM16_SUR.jpg"",""stimuli/HF02_AO.jpg"",""stimuli/WM13_SC.jpg""]","stimuli/HM10_HE.jpg","stimuli/BM16_SUR.jpg","stimuli/HF02_AO.jpg","stimuli/WM13_SC.jpg","pos3","stimuli/HF02_AO.jpg","AO","HF02","2","4.5","9","8","stimuli/stars_9.png","61.5","[""HE"",""SUR"",""AO"",""SC""]","[""HM10"",""BM16"",""HF02"",""WM13""]","[4,1,9,4]","[4,2,8,6]","","",""
"show-reward","42","161013","0.0-42.0","p342266","A2583YP0HGTKAG","3P888QFVX40Z2B7BK75OWKP045JQOK","3JRJSWSMQJRO63MEIKVX3KX09NT3EB","model","mismatch","uniform","","","","","","","","160607","162611","","","","","","","","","","","","9","","stimuli/stars_9.png","61.5","","","","","stimuli/HF02_AO.jpg","",""
"explore-choice","43","163213","0.0-43.0","p342266","A2583YP0HGTKAG","3P888QFVX40Z2B7BK75OWKP045JQOK","3JRJSWSMQJRO63MEIKVX3KX09NT3EB","model","mismatch","uniform","","","","","","","1686","162611","164297","[""stimuli/HF02_HE.jpg"",""stimuli/HM10_SUR.jpg"",""stimuli/BM16_SC.jpg"",""stimuli/WM13_AO.jpg""]","stimuli/HF02_HE.jpg","stimuli/HM10_SUR.jpg","stimuli/BM16_SC.jpg","stimuli/WM13_AO.jpg","pos1","stimuli/HF02_HE.jpg","HE","HF02","0","4.5","9","8","stimuli/stars_9.png","66","[""HE"",""SUR"",""SC"",""AO""]","[""HF02"",""HM10"",""BM16"",""WM13""]","[9,2,3,7]","[8,4,2,6]","","",""
"show-reward","44","165230","0.0-44.0","p342266","A2583YP0HGTKAG","3P888QFVX40Z2B7BK75OWKP045JQOK","3JRJSWSMQJRO63MEIKVX3KX09NT3EB","model","mismatch","uniform","","","","","","","","164811","166826","","","","","","","","","","","","9","","stimuli/stars_9.png","66","","","","","stimuli/HF02_HE.jpg","",""
"explore-choice","45","166522","0.0-45.0","p342266","A2583YP0HGTKAG","3P888QFVX40Z2B7BK75OWKP045JQOK","3JRJSWSMQJRO63MEIKVX3KX09NT3EB","model","mismatch","uniform","","","","","","","789","166827","167616","[""stimuli/WM13_SC.jpg"",""stimuli/HM10_AO.jpg"",""stimuli/HF02_HE.jpg"",""stimuli/BM16_SUR.jpg""]","stimuli/WM13_SC.jpg","stimuli/HM10_AO.jpg","stimuli/HF02_HE.jpg","stimuli/BM16_SUR.jpg","pos3","stimuli/HF02_HE.jpg","HE","HF02","2","5","10","8","stimuli/stars_10.png","71","[""SC"",""AO"",""HE"",""SUR""]","[""WM13"",""HM10"",""HF02"",""BM16""]","[5,2,10,4]","[6,4,8,2]","","",""
"show-reward","46","168537","0.0-46.0","p342266","A2583YP0HGTKAG","3P888QFVX40Z2B7BK75OWKP045JQOK","3JRJSWSMQJRO63MEIKVX3KX09NT3EB","model","mismatch","uniform","","","","","","","","168120","170133","","","","","","","","","","","","10","","stimuli/stars_10.png","71","","","","","stimuli/HF02_HE.jpg","",""
"explore-choice","47","169737","0.0-47.0","p342266","A2583YP0HGTKAG","3P888QFVX40Z2B7BK75OWKP045JQOK","3JRJSWSMQJRO63MEIKVX3KX09NT3EB","model","mismatch","uniform","","","","","","","692","170134","170826","[""stimuli/BM16_AO.jpg"",""stimuli/WM13_HE.jpg"",""stimuli/HF02_SC.jpg"",""stimuli/HM10_SUR.jpg""]","stimuli/BM16_AO.jpg","stimuli/WM13_HE.jpg","stimuli/HF02_SC.jpg","stimuli/HM10_SUR.jpg","pos3","stimuli/HF02_SC.jpg","SC","HF02","2","4.5","9","8","stimuli/stars_9.png","75.5","[""AO"",""HE"",""SC"",""SUR""]","[""BM16"",""WM13"",""HF02"",""HM10""]","[3,5,9,2]","[2,6,8,4]","","",""
"show-reward","48","171748","0.0-48.0","p342266","A2583YP0HGTKAG","3P888QFVX40Z2B7BK75OWKP045JQOK","3JRJSWSMQJRO63MEIKVX3KX09NT3EB","model","mismatch","uniform","","","","","","","","171334","173345","","","","","","","","","","","","9","","stimuli/stars_9.png","75.5","","","","","stimuli/HF02_SC.jpg","",""
"explore-choice","49","172998","0.0-49.0","p342266","A2583YP0HGTKAG","3P888QFVX40Z2B7BK75OWKP045JQOK","3JRJSWSMQJRO63MEIKVX3KX09NT3EB","model","mismatch","uniform","","","","","","","745","173345","174090","[""stimuli/HM10_AO.jpg"",""stimuli/HF02_SC.jpg"",""stimuli/BM16_SUR.jpg"",""stimuli/WM13_HE.jpg""]","stimuli/HM10_AO.jpg","stimuli/HF02_SC.jpg","stimuli/BM16_SUR.jpg","stimuli/WM13_HE.jpg","pos2","stimuli/HF02_SC.jpg","SC","HF02","1","5","10","8","stimuli/stars_10.png","80.5","[""AO"",""SC"",""SUR"",""HE""]","[""HM10"",""HF02"",""BM16"",""WM13""]","[2,10,2,5]","[4,8,2,6]","","",""
"show-reward","50","175003","0.0-50.0","p342266","A2583YP0HGTKAG","3P888QFVX40Z2B7BK75OWKP045JQOK","3JRJSWSMQJRO63MEIKVX3KX09NT3EB","model","mismatch","uniform","","","","","","","","174596","176600","","","","","","","","","","","","10","","stimuli/stars_10.png","80.5","","","","","stimuli/HF02_SC.jpg","",""
"explore-choice","51","176232","0.0-51.0","p342266","A2583YP0HGTKAG","3P888QFVX40Z2B7BK75OWKP045JQOK","3JRJSWSMQJRO63MEIKVX3KX09NT3EB","model","mismatch","uniform","","","","","","","721","176601","177322","[""stimuli/HM10_SUR.jpg"",""stimuli/HF02_AO.jpg"",""stimuli/WM13_HE.jpg"",""stimuli/BM16_SC.jpg""]","stimuli/HM10_SUR.jpg","stimuli/HF02_AO.jpg","stimuli/WM13_HE.jpg","stimuli/BM16_SC.jpg","pos2","stimuli/HF02_AO.jpg","AO","HF02","1","5","10","8","stimuli/stars_10.png","85.5","[""SUR"",""AO"",""HE"",""SC""]","[""HM10"",""HF02"",""WM13"",""BM16""]","[5,10,5,2]","[4,8,6,2]","","",""
"show-reward","52","178242","0.0-52.0","p342266","A2583YP0HGTKAG","3P888QFVX40Z2B7BK75OWKP045JQOK","3JRJSWSMQJRO63MEIKVX3KX09NT3EB","model","mismatch","uniform","","","","","","","","177828","179839","","","","","","","","","","","","10","","stimuli/stars_10.png","85.5","","","","","stimuli/HF02_AO.jpg","",""
"explore-choice","53","179958","0.0-53.0","p342266","A2583YP0HGTKAG","3P888QFVX40Z2B7BK75OWKP045JQOK","3JRJSWSMQJRO63MEIKVX3KX09NT3EB","model","mismatch","uniform","","","","","","","1203","179839","181042","[""stimuli/WM13_AO.jpg"",""stimuli/BM16_HE.jpg"",""stimuli/HM10_SC.jpg"",""stimuli/HF02_SUR.jpg""]","stimuli/WM13_AO.jpg","stimuli/BM16_HE.jpg","stimuli/HM10_SC.jpg","stimuli/HF02_SUR.jpg","pos4","stimuli/HF02_SUR.jpg","SUR","HF02","3","3","6","8","stimuli/stars_6.png","88.5","[""AO"",""HE"",""SC"",""SUR""]","[""WM13"",""BM16"",""HM10"",""HF02""]","[6,2,4,6]","[6,2,4,8]","","",""
"show-reward","54","181975","0.0-54.0","p342266","A2583YP0HGTKAG","3P888QFVX40Z2B7BK75OWKP045JQOK","3JRJSWSMQJRO63MEIKVX3KX09NT3EB","model","mismatch","uniform","","","","","","","","181555","183572","","","","","","","","","","","","6","","stimuli/stars_6.png","88.5","","","","","stimuli/HF02_SUR.jpg","",""
"explore-choice","55","183263","0.0-55.0","p342266","A2583YP0HGTKAG","3P888QFVX40Z2B7BK75OWKP045JQOK","3JRJSWSMQJRO63MEIKVX3KX09NT3EB","model","mismatch","uniform","","","","","","","786","183573","184359","[""stimuli/HM10_HE.jpg"",""stimuli/WM13_AO.jpg"",""stimuli/HF02_SUR.jpg"",""stimuli/BM16_SC.jpg""]","stimuli/HM10_HE.jpg","stimuli/WM13_AO.jpg","stimuli/HF02_SUR.jpg","stimuli/BM16_SC.jpg","pos3","stimuli/HF02_SUR.jpg","SUR","HF02","2","5","10","8","stimuli/stars_10.png","93.5","[""HE"",""AO"",""SUR"",""SC""]","[""HM10"",""WM13"",""HF02"",""BM16""]","[3,6,10,3]","[4,6,8,2]","","",""
"show-reward","56","185273","0.0-56.0","p342266","A2583YP0HGTKAG","3P888QFVX40Z2B7BK75OWKP045JQOK","3JRJSWSMQJRO63MEIKVX3KX09NT3EB","model","mismatch","uniform","","","","","","","","184860","186870","","","","","","","","","","","","10","","stimuli/stars_10.png","93.5","","","","","stimuli/HF02_SUR.jpg","",""
"explore-choice","57","186620","0.0-57.0","p342266","A2583YP0HGTKAG","3P888QFVX40Z2B7BK75OWKP045JQOK","3JRJSWSMQJRO63MEIKVX3KX09NT3EB","model","mismatch","uniform","","","","","","","838","186870","187708","[""stimuli/HF02_HE.jpg"",""stimuli/HM10_AO.jpg"",""stimuli/WM13_SUR.jpg"",""stimuli/BM16_SC.jpg""]","stimuli/HF02_HE.jpg","stimuli/HM10_AO.jpg","stimuli/WM13_SUR.jpg","stimuli/BM16_SC.jpg","pos1","stimuli/HF02_HE.jpg","HE","HF02","0","4.5","9","8","stimuli/stars_9.png","98","[""HE"",""AO"",""SUR"",""SC""]","[""HF02"",""HM10"",""WM13"",""BM16""]","[9,4,8,2]","[8,4,6,2]","","",""
"show-reward","58","188624","0.0-58.0","p342266","A2583YP0HGTKAG","3P888QFVX40Z2B7BK75OWKP045JQOK","3JRJSWSMQJRO63MEIKVX3KX09NT3EB","model","mismatch","uniform","","","","","","","","188216","190221","","","","","","","","","","","","9","","stimuli/stars_9.png","98","","","","","stimuli/HF02_HE.jpg","",""
"explore-choice","59","189754","0.0-59.0","p342266","A2583YP0HGTKAG","3P888QFVX40Z2B7BK75OWKP045JQOK","3JRJSWSMQJRO63MEIKVX3KX09NT3EB","model","mismatch","uniform","","","","","","","627","190221","190848","[""stimuli/HF02_SUR.jpg"",""stimuli/BM16_HE.jpg"",""stimuli/WM13_SC.jpg"",""stimuli/HM10_AO.jpg""]","stimuli/HF02_SUR.jpg","stimuli/BM16_HE.jpg","stimuli/WM13_SC.jpg","stimuli/HM10_AO.jpg","pos1","stimuli/HF02_SUR.jpg","SUR","HF02","0","3.5","7","8","stimuli/stars_7.png","101.5","[""SUR"",""HE"",""SC"",""AO""]","[""HF02"",""BM16"",""WM13"",""HM10""]","[7,1,6,5]","[8,2,6,4]","","",""
"show-reward","60","191763","0.0-60.0","p342266","A2583YP0HGTKAG","3P888QFVX40Z2B7BK75OWKP045JQOK","3JRJSWSMQJRO63MEIKVX3KX09NT3EB","model","mismatch","uniform","","","","","","","","191352","193360","","","","","","","","","","","","7","","stimuli/stars_7.png","101.5","","","","","stimuli/HF02_SUR.jpg","",""
"explore-choice","61","193304","0.0-61.0","p342266","A2583YP0HGTKAG","3P888QFVX40Z2B7BK75OWKP045JQOK","3JRJSWSMQJRO63MEIKVX3KX09NT3EB","model","mismatch","uniform","","","","","","","1038","193360","194398","[""stimuli/BM16_AO.jpg"",""stimuli/HF02_HE.jpg"",""stimuli/HM10_SC.jpg"",""stimuli/WM13_SUR.jpg""]","stimuli/BM16_AO.jpg","stimuli/HF02_HE.jpg","stimuli/HM10_SC.jpg","stimuli/WM13_SUR.jpg","pos2","stimuli/HF02_HE.jpg","HE","HF02","1","3","6","8","stimuli/stars_6.png","104.5","[""AO"",""HE"",""SC"",""SUR""]","[""BM16"",""HF02"",""HM10"",""WM13""]","[0,6,3,6]","[2,8,4,6]","","",""
"show-reward","62","195308","0.0-62.0","p342266","A2583YP0HGTKAG","3P888QFVX40Z2B7BK75OWKP045JQOK","3JRJSWSMQJRO63MEIKVX3KX09NT3EB","model","mismatch","uniform","","","","","","","","194901","196905","","","","","","","","","","","","6","","stimuli/stars_6.png","104.5","","","","","stimuli/HF02_HE.jpg","",""
"explore-choice","63","197201","0.0-63.0","p342266","A2583YP0HGTKAG","3P888QFVX40Z2B7BK75OWKP045JQOK","3JRJSWSMQJRO63MEIKVX3KX09NT3EB","model","mismatch","uniform","","","","","","","1384","196906","198290","[""stimuli/WM13_SC.jpg"",""stimuli/BM16_AO.jpg"",""stimuli/HM10_SUR.jpg"",""stimuli/HF02_HE.jpg""]","stimuli/WM13_SC.jpg","stimuli/BM16_AO.jpg","stimuli/HM10_SUR.jpg","stimuli/HF02_HE.jpg","pos4","stimuli/HF02_HE.jpg","HE","HF02","3","3.5","7","8","stimuli/stars_7.png","108","[""SC"",""AO"",""SUR"",""HE""]","[""WM13"",""BM16"",""HM10"",""HF02""]","[8,4,3,7]","[6,2,4,8]","","",""
"show-reward","64","199213","0.0-64.0","p342266","A2583YP0HGTKAG","3P888QFVX40Z2B7BK75OWKP045JQOK","3JRJSWSMQJRO63MEIKVX3KX09NT3EB","model","mismatch","uniform","","","","","","","","198798","200809","","","","","","","","","","","","7","","stimuli/stars_7.png","108","","","","","stimuli/HF02_HE.jpg","",""
"explore-choice","65","200981","0.0-65.0","p342266","A2583YP0HGTKAG","3P888QFVX40Z2B7BK75OWKP045JQOK","3JRJSWSMQJRO63MEIKVX3KX09NT3EB","model","mismatch","uniform","","","","","","","1263","200810","202073","[""stimuli/HM10_SUR.jpg"",""stimuli/BM16_HE.jpg"",""stimuli/WM13_AO.jpg"",""stimuli/HF02_SC.jpg""]","stimuli/HM10_SUR.jpg","stimuli/BM16_HE.jpg","stimuli/WM13_AO.jpg","stimuli/HF02_SC.jpg","pos4","stimuli/HF02_SC.jpg","SC","HF02","3","5","10","8","stimuli/stars_10.png","113","[""SUR"",""HE"",""AO"",""SC""]","[""HM10"",""BM16"",""WM13"",""HF02""]","[5,1,4,10]","[4,2,6,8]","","",""
"show-reward","66","202992","0.0-66.0","p342266","A2583YP0HGTKAG","3P888QFVX40Z2B7BK75OWKP045JQOK","3JRJSWSMQJRO63MEIKVX3KX09NT3EB","model","mismatch","uniform","","","","","","","","202578","204589","","","","","","","","","","","","10","","stimuli/stars_10.png","113","","","","","stimuli/HF02_SC.jpg","",""
"explore-choice","67","204256","0.0-67.0","p342266","A2583YP0HGTKAG","3P888QFVX40Z2B7BK75OWKP045JQOK","3JRJSWSMQJRO63MEIKVX3KX09NT3EB","model","mismatch","uniform","","","","","","","763","204589","205352","[""stimuli/HF02_AO.jpg"",""stimuli/WM13_SC.jpg"",""stimuli/BM16_SUR.jpg"",""stimuli/HM10_HE.jpg""]","stimuli/HF02_AO.jpg","stimuli/WM13_SC.jpg","stimuli/BM16_SUR.jpg","stimuli/HM10_HE.jpg","pos1","stimuli/HF02_AO.jpg","AO","HF02","0","4.5","9","8","stimuli/stars_9.png","117.5","[""AO"",""SC"",""SUR"",""HE""]","[""HF02"",""WM13"",""BM16"",""HM10""]","[9,4,1,4]","[8,6,2,4]","","",""
"show-reward","68","206262","0.0-68.0","p342266","A2583YP0HGTKAG","3P888QFVX40Z2B7BK75OWKP045JQOK","3JRJSWSMQJRO63MEIKVX3KX09NT3EB","model","mismatch","uniform","","","","","","","","205854","207859","","","","","","","","","","","","9","","stimuli/stars_9.png","117.5","","","","","stimuli/HF02_AO.jpg","",""
"explore-choice","69","207785","0.0-69.0","p342266","A2583YP0HGTKAG","3P888QFVX40Z2B7BK75OWKP045JQOK","3JRJSWSMQJRO63MEIKVX3KX09NT3EB","model","mismatch","uniform","","","","","","","1011","207860","208871","[""stimuli/HM10_SUR.jpg"",""stimuli/HF02_AO.jpg"",""stimuli/BM16_SC.jpg"",""stimuli/WM13_HE.jpg""]","stimuli/HM10_SUR.jpg","stimuli/HF02_AO.jpg","stimuli/BM16_SC.jpg","stimuli/WM13_HE.jpg","pos2","stimuli/HF02_AO.jpg","AO","HF02","1","5","10","8","stimuli/stars_10.png","122.5","[""SUR"",""AO"",""SC"",""HE""]","[""HM10"",""HF02"",""BM16"",""WM13""]","[5,10,2,5]","[4,8,2,6]","","",""
"show-reward","70","209787","0.0-70.0","p342266","A2583YP0HGTKAG","3P888QFVX40Z2B7BK75OWKP045JQOK","3JRJSWSMQJRO63MEIKVX3KX09NT3EB","model","mismatch","uniform","","","","","","","","209382","211384","","","","","","","","","","","","10","","stimuli/stars_10.png","122.5","","","","","stimuli/HF02_AO.jpg","",""
"explore-choice","71","212487","0.0-71.0","p342266","A2583YP0HGTKAG","3P888QFVX40Z2B7BK75OWKP045JQOK","3JRJSWSMQJRO63MEIKVX3KX09NT3EB","model","mismatch","uniform","","","","","","","2186","211384","213570","[""stimuli/HF02_SC.jpg"",""stimuli/WM13_HE.jpg"",""stimuli/HM10_SUR.jpg"",""stimuli/BM16_AO.jpg""]","stimuli/HF02_SC.jpg","stimuli/WM13_HE.jpg","stimuli/HM10_SUR.jpg","stimuli/BM16_AO.jpg","pos1","stimuli/HF02_SC.jpg","SC","HF02","0","4.5","9","8","stimuli/stars_9.png","127","[""SC"",""HE"",""SUR"",""AO""]","[""HF02"",""WM13"",""HM10"",""BM16""]","[9,5,2,3]","[8,6,4,2]","","",""
"show-reward","72","214493","0.0-72.0","p342266","A2583YP0HGTKAG","3P888QFVX40Z2B7BK75OWKP045JQOK","3JRJSWSMQJRO63MEIKVX3KX09NT3EB","model","mismatch","uniform","","","","","","","","214084","216090","","","","","","","","","","","","9","","stimuli/stars_9.png","127","","","","","stimuli/HF02_SC.jpg","",""
"explore-choice","73","215760","0.0-73.0","p342266","A2583YP0HGTKAG","3P888QFVX40Z2B7BK75OWKP045JQOK","3JRJSWSMQJRO63MEIKVX3KX09NT3EB","model","mismatch","uniform","","","","","","","752","216090","216842","[""stimuli/HM10_SC.jpg"",""stimuli/BM16_HE.jpg"",""stimuli/WM13_AO.jpg"",""stimuli/HF02_SUR.jpg""]","stimuli/HM10_SC.jpg","stimuli/BM16_HE.jpg","stimuli/WM13_AO.jpg","stimuli/HF02_SUR.jpg","pos4","stimuli/HF02_SUR.jpg","SUR","HF02","3","3","6","8","stimuli/stars_6.png","130","[""SC"",""HE"",""AO"",""SUR""]","[""HM10"",""BM16"",""WM13"",""HF02""]","[4,2,6,6]","[4,2,6,8]","","",""
"show-reward","74","217768","0.0-74.0","p342266","A2583YP0HGTKAG","3P888QFVX40Z2B7BK75OWKP045JQOK","3JRJSWSMQJRO63MEIKVX3KX09NT3EB","model","mismatch","uniform","","","","","","","","217358","219365","","","","","","","","","","","","6","","stimuli/stars_6.png","130","","","","","stimuli/HF02_SUR.jpg","",""
"explore-choice","75","219079","0.0-75.0","p342266","A2583YP0HGTKAG","3P888QFVX40Z2B7BK75OWKP045JQOK","3JRJSWSMQJRO63MEIKVX3KX09NT3EB","model","mismatch","uniform","","","","","","","793","219366","220159","[""stimuli/BM16_SUR.jpg"",""stimuli/HF02_HE.jpg"",""stimuli/HM10_SC.jpg"",""stimuli/WM13_AO.jpg""]","stimuli/BM16_SUR.jpg","stimuli/HF02_HE.jpg","stimuli/HM10_SC.jpg","stimuli/WM13_AO.jpg","pos2","stimuli/HF02_HE.jpg","HE","HF02","1","3.5","7","8","stimuli/stars_7.png","133.5","[""SUR"",""HE"",""SC"",""AO""]","[""BM16"",""HF02"",""HM10"",""WM13""]","[1,7,5,4]","[2,8,4,6]","","",""
"show-reward","76","221086","0.0-76.0","p342266","A2583YP0HGTKAG","3P888QFVX40Z2B7BK75OWKP045JQOK","3JRJSWSMQJRO63MEIKVX3KX09NT3EB","model","mismatch","uniform","","","","","","","","220676","222684","","","","","","","","","","","","7","","stimuli/stars_7.png","133.5","","","","","stimuli/HF02_HE.jpg","",""
"explore-choice","77","222752","0.0-77.0","p342266","A2583YP0HGTKAG","3P888QFVX40Z2B7BK75OWKP045JQOK","3JRJSWSMQJRO63MEIKVX3KX09NT3EB","model","mismatch","uniform","","","","","","","1150","222684","223834","[""stimuli/BM16_HE.jpg"",""stimuli/HM10_SUR.jpg"",""stimuli/WM13_SC.jpg"",""stimuli/HF02_AO.jpg""]","stimuli/BM16_HE.jpg","stimuli/HM10_SUR.jpg","stimuli/WM13_SC.jpg","stimuli/HF02_AO.jpg","pos4","stimuli/HF02_AO.jpg","AO","HF02","3","3","6","8","stimuli/stars_6.png","136.5","[""HE"",""SUR"",""SC"",""AO""]","[""BM16"",""HM10"",""WM13"",""HF02""]","[0,3,6,6]","[2,4,6,8]","","",""
"show-reward","78","224758","0.0-78.0","p342266","A2583YP0HGTKAG","3P888QFVX40Z2B7BK75OWKP045JQOK","3JRJSWSMQJRO63MEIKVX3KX09NT3EB","model","mismatch","uniform","","","","","","","","224349","226356","","","","","","","","","","","","6","","stimuli/stars_6.png","136.5","","","","","stimuli/HF02_AO.jpg","",""
"explore-choice","79","225976","0.0-79.0","p342266","A2583YP0HGTKAG","3P888QFVX40Z2B7BK75OWKP045JQOK","3JRJSWSMQJRO63MEIKVX3KX09NT3EB","model","mismatch","uniform","","","","","","","710","226356","227066","[""stimuli/WM13_SC.jpg"",""stimuli/HF02_HE.jpg"",""stimuli/BM16_SUR.jpg"",""stimuli/HM10_AO.jpg""]","stimuli/WM13_SC.jpg","stimuli/HF02_HE.jpg","stimuli/BM16_SUR.jpg","stimuli/HM10_AO.jpg","pos1","stimuli/WM13_SC.jpg","SC","WM13","0","2.5","5","6","stimuli/stars_5.png","139","[""SC"",""HE"",""SUR"",""AO""]","[""WM13"",""HF02"",""BM16"",""HM10""]","[5,10,4,2]","[6,8,2,4]","","",""
"show-reward","80","227984","0.0-80.0","p342266","A2583YP0HGTKAG","3P888QFVX40Z2B7BK75OWKP045JQOK","3JRJSWSMQJRO63MEIKVX3KX09NT3EB","model","mismatch","uniform","","","","","","","","227573","229582","","","","","","","","","","","","5","","stimuli/stars_5.png","139","","","","","stimuli/WM13_SC.jpg","",""
"explore-choice","81","229221","0.0-81.0","p342266","A2583YP0HGTKAG","3P888QFVX40Z2B7BK75OWKP045JQOK","3JRJSWSMQJRO63MEIKVX3KX09NT3EB","model","mismatch","uniform","","","","","","","724","229582","230306","[""stimuli/HM10_AO.jpg"",""stimuli/BM16_HE.jpg"",""stimuli/HF02_SC.jpg"",""stimuli/WM13_SUR.jpg""]","stimuli/HM10_AO.jpg","stimuli/BM16_HE.jpg","stimuli/HF02_SC.jpg","stimuli/WM13_SUR.jpg","pos3","stimuli/HF02_SC.jpg","SC","HF02","2","4.5","9","8","stimuli/stars_9.png","143.5","[""AO"",""HE"",""SC"",""SUR""]","[""HM10"",""BM16"",""HF02"",""WM13""]","[2,3,9,4]","[4,2,8,6]","","",""
"show-reward","82","231232","0.0-82.0","p342266","A2583YP0HGTKAG","3P888QFVX40Z2B7BK75OWKP045JQOK","3JRJSWSMQJRO63MEIKVX3KX09NT3EB","model","mismatch","uniform","","","","","","","","230819","232830","","","","","","","","","","","","9","","stimuli/stars_9.png","143.5","","","","","stimuli/HF02_SC.jpg","",""
"explore-choice","83","232530","0.0-83.0","p342266","A2583YP0HGTKAG","3P888QFVX40Z2B7BK75OWKP045JQOK","3JRJSWSMQJRO63MEIKVX3KX09NT3EB","model","mismatch","uniform","","","","","","","786","232830","233616","[""stimuli/HF02_SC.jpg"",""stimuli/HM10_HE.jpg"",""stimuli/BM16_SUR.jpg"",""stimuli/WM13_AO.jpg""]","stimuli/HF02_SC.jpg","stimuli/HM10_HE.jpg","stimuli/BM16_SUR.jpg","stimuli/WM13_AO.jpg","pos1","stimuli/HF02_SC.jpg","SC","HF02","0","4","8","8","stimuli/stars_8.png","147.5","[""SC"",""HE"",""SUR"",""AO""]","[""HF02"",""HM10"",""BM16"",""WM13""]","[8,3,3,8]","[8,4,2,6]","","",""
"show-reward","84","234541","0.0-84.0","p342266","A2583YP0HGTKAG","3P888QFVX40Z2B7BK75OWKP045JQOK","3JRJSWSMQJRO63MEIKVX3KX09NT3EB","model","mismatch","uniform","","","","","","","","234128","236138","","","","","","","","","","","","8","","stimuli/stars_8.png","147.5","","","","","stimuli/HF02_SC.jpg","",""
"explore-choice","85","235700","0.0-85.0","p342266","A2583YP0HGTKAG","3P888QFVX40Z2B7BK75OWKP045JQOK","3JRJSWSMQJRO63MEIKVX3KX09NT3EB","model","mismatch","uniform","","","","","","","657","236138","236795","[""stimuli/WM13_SUR.jpg"",""stimuli/BM16_SC.jpg"",""stimuli/HF02_AO.jpg"",""stimuli/HM10_HE.jpg""]","stimuli/WM13_SUR.jpg","stimuli/BM16_SC.jpg","stimuli/HF02_AO.jpg","stimuli/HM10_HE.jpg","pos3","stimuli/HF02_AO.jpg","AO","HF02","2","3.5","7","8","stimuli/stars_7.png","151","[""SUR"",""SC"",""AO"",""HE""]","[""WM13"",""BM16"",""HF02"",""HM10""]","[6,1,7,3]","[6,2,8,4]","","",""
"show-reward","86","237703","0.0-86.0","p342266","A2583YP0HGTKAG","3P888QFVX40Z2B7BK75OWKP045JQOK","3JRJSWSMQJRO63MEIKVX3KX09NT3EB","model","mismatch","uniform","","","","","","","","237297","239300","","","","","","","","","","","","7","","stimuli/stars_7.png","151","","","","","stimuli/HF02_AO.jpg","",""
"explore-choice","87","238896","0.0-87.0","p342266","A2583YP0HGTKAG","3P888QFVX40Z2B7BK75OWKP045JQOK","3JRJSWSMQJRO63MEIKVX3KX09NT3EB","model","mismatch","uniform","","","","","","","681","239300","239981","[""stimuli/HF02_SC.jpg"",""stimuli/WM13_HE.jpg"",""stimuli/BM16_SUR.jpg"",""stimuli/HM10_AO.jpg""]","stimuli/HF02_SC.jpg","stimuli/WM13_HE.jpg","stimuli/BM16_SUR.jpg","stimuli/HM10_AO.jpg","pos1","stimuli/HF02_SC.jpg","SC","HF02","0","5","10","8","stimuli/stars_10.png","156","[""SC"",""HE"",""SUR"",""AO""]","[""HF02"",""WM13"",""BM16"",""HM10""]","[10,5,2,2]","[8,6,2,4]","","",""
"show-reward","88","240903","0.0-88.0","p342266","A2583YP0HGTKAG","3P888QFVX40Z2B7BK75OWKP045JQOK","3JRJSWSMQJRO63MEIKVX3KX09NT3EB","model","mismatch","uniform","","","","","","","","240494","242500","","","","","","","","","","","","10","","stimuli/stars_10.png","156","","","","","stimuli/HF02_SC.jpg","",""
"explore-choice","89","242138","0.0-89.0","p342266","A2583YP0HGTKAG","3P888QFVX40Z2B7BK75OWKP045JQOK","3JRJSWSMQJRO63MEIKVX3KX09NT3EB","model","mismatch","uniform","","","","","","","728","242501","243229","[""stimuli/HM10_AO.jpg"",""stimuli/BM16_SC.jpg"",""stimuli/WM13_HE.jpg"",""stimuli/HF02_SUR.jpg""]","stimuli/HM10_AO.jpg","stimuli/BM16_SC.jpg","stimuli/WM13_HE.jpg","stimuli/HF02_SUR.jpg","pos4","stimuli/HF02_SUR.jpg","SUR","HF02","3","4.5","9","8","stimuli/stars_9.png","160.5","[""AO"",""SC"",""HE"",""SUR""]","[""HM10"",""BM16"",""WM13"",""HF02""]","[5,4,8,9]","[4,2,6,8]","","",""
"show-reward","90","244150","0.0-90.0","p342266","A2583YP0HGTKAG","3P888QFVX40Z2B7BK75OWKP045JQOK","3JRJSWSMQJRO63MEIKVX3KX09NT3EB","model","mismatch","uniform","","","","","","","","243735","245747","","","","","","","","","","","","9","","stimuli/stars_9.png","160.5","","","","","stimuli/HF02_SUR.jpg","",""
"explore-choice","91","245249","0.0-91.0","p342266","A2583YP0HGTKAG","3P888QFVX40Z2B7BK75OWKP045JQOK","3JRJSWSMQJRO63MEIKVX3KX09NT3EB","model","mismatch","uniform","","","","","","","599","245747","246346","[""stimuli/HM10_SC.jpg"",""stimuli/WM13_HE.jpg"",""stimuli/HF02_AO.jpg"",""stimuli/BM16_SUR.jpg""]","stimuli/HM10_SC.jpg","stimuli/WM13_HE.jpg","stimuli/HF02_AO.jpg","stimuli/BM16_SUR.jpg","pos3","stimuli/HF02_AO.jpg","AO","HF02","2","5","10","8","stimuli/stars_10.png","165.5","[""SC"",""HE"",""AO"",""SUR""]","[""HM10"",""WM13"",""HF02"",""BM16""]","[4,6,10,1]","[4,6,8,2]","","",""
"show-reward","92","247254","0.0-92.0","p342266","A2583YP0HGTKAG","3P888QFVX40Z2B7BK75OWKP045JQOK","3JRJSWSMQJRO63MEIKVX3KX09NT3EB","model","mismatch","uniform","","","","","","","","246847","248852","","","","","","","","","","","","10","","stimuli/stars_10.png","165.5","","","","","stimuli/HF02_AO.jpg","",""
"explore-choice","93","248370","0.0-93.0","p342266","A2583YP0HGTKAG","3P888QFVX40Z2B7BK75OWKP045JQOK","3JRJSWSMQJRO63MEIKVX3KX09NT3EB","model","mismatch","uniform","","","","","","","604","248852","249456","[""stimuli/WM13_SUR.jpg"",""stimuli/HM10_SC.jpg"",""stimuli/HF02_AO.jpg"",""stimuli/BM16_HE.jpg""]","stimuli/WM13_SUR.jpg","stimuli/HM10_SC.jpg","stimuli/HF02_AO.jpg","stimuli/BM16_HE.jpg","pos3","stimuli/HF02_AO.jpg","AO","HF02","2","3","6","8","stimuli/stars_6.png","168.5","[""SUR"",""SC"",""AO"",""HE""]","[""WM13"",""HM10"",""HF02"",""BM16""]","[8,5,6,2]","[6,4,8,2]","","",""
"show-reward","94","250381","0.0-94.0","p342266","A2583YP0HGTKAG","3P888QFVX40Z2B7BK75OWKP045JQOK","3JRJSWSMQJRO63MEIKVX3KX09NT3EB","model","mismatch","uniform","","","","","","","","249968","251977","","","","","","","","","","","","6","","stimuli/stars_6.png","168.5","","","","","stimuli/HF02_AO.jpg","",""
"explore-choice","95","251525","0.0-95.0","p342266","A2583YP0HGTKAG","3P888QFVX40Z2B7BK75OWKP045JQOK","3JRJSWSMQJRO63MEIKVX3KX09NT3EB","model","mismatch","uniform","","","","","","","639","251978","252617","[""stimuli/HM10_HE.jpg"",""stimuli/BM16_AO.jpg"",""stimuli/HF02_SC.jpg"",""stimuli/WM13_SUR.jpg""]","stimuli/HM10_HE.jpg","stimuli/BM16_AO.jpg","stimuli/HF02_SC.jpg","stimuli/WM13_SUR.jpg","pos3","stimuli/HF02_SC.jpg","SC","HF02","2","5","10","8","stimuli/stars_10.png","173.5","[""HE"",""AO"",""SC"",""SUR""]","[""HM10"",""BM16"",""HF02"",""WM13""]","[4,4,10,6]","[4,2,8,6]","","",""
"show-reward","96","253533","0.0-96.0","p342266","A2583YP0HGTKAG","3P888QFVX40Z2B7BK75OWKP045JQOK","3JRJSWSMQJRO63MEIKVX3KX09NT3EB","model","mismatch","uniform","","","","","","","","253123","255130","","","","","","","","","","","","10","","stimuli/stars_10.png","173.5","","","","","stimuli/HF02_SC.jpg","",""
"explore-choice","97","254607","0.0-97.0","p342266","A2583YP0HGTKAG","3P888QFVX40Z2B7BK75OWKP045JQOK","3JRJSWSMQJRO63MEIKVX3KX09NT3EB","model","mismatch","uniform","","","","","","","574","255130","255704","[""stimuli/HM10_HE.jpg"",""stimuli/WM13_SC.jpg"",""stimuli/HF02_SUR.jpg"",""stimuli/BM16_AO.jpg""]","stimuli/HM10_HE.jpg","stimuli/WM13_SC.jpg","stimuli/HF02_SUR.jpg","stimuli/BM16_AO.jpg","pos3","stimuli/HF02_SUR.jpg","SUR","HF02","2","3.5","7","8","stimuli/stars_7.png","177","[""HE"",""SC"",""SUR"",""AO""]","[""HM10"",""WM13"",""HF02"",""BM16""]","[3,5,7,1]","[4,6,8,2]","","",""
"show-reward","98","256617","0.0-98.0","p342266","A2583YP0HGTKAG","3P888QFVX40Z2B7BK75OWKP045JQOK","3JRJSWSMQJRO63MEIKVX3KX09NT3EB","model","mismatch","uniform","","","","","","","","256204","258214","","","","","","","","","","","","7","","stimuli/stars_7.png","177","","","","","stimuli/HF02_SUR.jpg","",""
"explore-choice","99","257851","0.0-99.0","p342266","A2583YP0HGTKAG","3P888QFVX40Z2B7BK75OWKP045JQOK","3JRJSWSMQJRO63MEIKVX3KX09NT3EB","model","mismatch","uniform","","","","","","","723","258214","258937","[""stimuli/HF02_SUR.jpg"",""stimuli/HM10_SC.jpg"",""stimuli/WM13_HE.jpg"",""stimuli/BM16_AO.jpg""]","stimuli/HF02_SUR.jpg","stimuli/HM10_SC.jpg","stimuli/WM13_HE.jpg","stimuli/BM16_AO.jpg","pos1","stimuli/HF02_SUR.jpg","SUR","HF02","0","5","10","8","stimuli/stars_10.png","182","[""SUR"",""SC"",""HE"",""AO""]","[""HF02"",""HM10"",""WM13"",""BM16""]","[10,5,8,1]","[8,4,6,2]","","",""
"show-reward","100","259862","0.0-100.0","p342266","A2583YP0HGTKAG","3P888QFVX40Z2B7BK75OWKP045JQOK","3JRJSWSMQJRO63MEIKVX3KX09NT3EB","model","mismatch","uniform","","","","","","","","259448","261459","","","","","","","","","","","","10","","stimuli/stars_10.png","182","","","","","stimuli/HF02_SUR.jpg","",""
"explore-choice","101","261074","0.0-101.0","p342266","A2583YP0HGTKAG","3P888QFVX40Z2B7BK75OWKP045JQOK","3JRJSWSMQJRO63MEIKVX3KX09NT3EB","model","mismatch","uniform","","","","","","","711","261459","262170","[""stimuli/HF02_HE.jpg"",""stimuli/HM10_SUR.jpg"",""stimuli/WM13_AO.jpg"",""stimuli/BM16_SC.jpg""]","stimuli/HF02_HE.jpg","stimuli/HM10_SUR.jpg","stimuli/WM13_AO.jpg","stimuli/BM16_SC.jpg","pos1","stimuli/HF02_HE.jpg","HE","HF02","0","4.5","9","8","stimuli/stars_9.png","186.5","[""HE"",""SUR"",""AO"",""SC""]","[""HF02"",""HM10"",""WM13"",""BM16""]","[9,2,7,3]","[8,4,6,2]","","",""
"show-reward","102","263081","0.0-102.0","p342266","A2583YP0HGTKAG","3P888QFVX40Z2B7BK75OWKP045JQOK","3JRJSWSMQJRO63MEIKVX3KX09NT3EB","model","mismatch","uniform","","","","","","","","262671","264678","","","","","","","","","","","","9","","stimuli/stars_9.png","186.5","","","","","stimuli/HF02_HE.jpg","",""
"explore-choice","103","267034","0.0-103.0","p342266","A2583YP0HGTKAG","3P888QFVX40Z2B7BK75OWKP045JQOK","3JRJSWSMQJRO63MEIKVX3KX09NT3EB","model","mismatch","uniform","","","","","","","3446","264678","268124","[""stimuli/AF10_HO.jpg"",""stimuli/WF11_DO.jpg"",""stimuli/AF11_CC.jpg"",""stimuli/AF09_FO.jpg""]","stimuli/AF10_HO.jpg","stimuli/WF11_DO.jpg","stimuli/AF11_CC.jpg","stimuli/AF09_FO.jpg","pos3","stimuli/AF11_CC.jpg","CC","AF11","2","3","6","8","stimuli/stars_6.png","189.5","[""HO"",""DO"",""CC"",""FO""]","[""AF10"",""WF11"",""AF11"",""AF09""]","[1,6,6,6]","[2,4,8,6]","","",""
"show-reward","104","269047","0.0-104.0","p342266","A2583YP0HGTKAG","3P888QFVX40Z2B7BK75OWKP045JQOK","3JRJSWSMQJRO63MEIKVX3KX09NT3EB","model","mismatch","uniform","","","","","","","","268632","270644","","","","","","","","","","","","6","","stimuli/stars_6.png","189.5","","","","","stimuli/AF11_CC.jpg","",""
"explore-choice","105","270965","0.0-105.0","p342266","A2583YP0HGTKAG","3P888QFVX40Z2B7BK75OWKP045JQOK","3JRJSWSMQJRO63MEIKVX3KX09NT3EB","model","mismatch","uniform","","","","","","","1415","270644","272059","[""stimuli/AF09_DO.jpg"",""stimuli/AF10_HO.jpg"",""stimuli/AF11_CC.jpg"",""stimuli/WF11_FO.jpg""]","stimuli/AF09_DO.jpg","stimuli/AF10_HO.jpg","stimuli/AF11_CC.jpg","stimuli/WF11_FO.jpg","pos1","stimuli/AF09_DO.jpg","DO","AF09","0","2","4","4","stimuli/stars_4.png","191.5","[""DO"",""HO"",""CC"",""FO""]","[""AF09"",""AF10"",""AF11"",""WF11""]","[4,2,7,6]","[4,2,8,6]","","",""
"show-reward","106","272979","0.0-106.0","p342266","A2583YP0HGTKAG","3P888QFVX40Z2B7BK75OWKP045JQOK","3JRJSWSMQJRO63MEIKVX3KX09NT3EB","model","mismatch","uniform","","","","","","","","272563","274576","","","","","","","","","","","","4","","stimuli/stars_4.png","191.5","","","","","stimuli/AF09_DO.jpg","",""
"explore-choice","107","274397","0.0-107.0","p342266","A2583YP0HGTKAG","3P888QFVX40Z2B7BK75OWKP045JQOK","3JRJSWSMQJRO63MEIKVX3KX09NT3EB","model","mismatch","uniform","","","","","","","918","274576","275494","[""stimuli/AF09_CC.jpg"",""stimuli/AF11_FO.jpg"",""stimuli/WF11_DO.jpg"",""stimuli/AF10_HO.jpg""]","stimuli/AF09_CC.jpg","stimuli/AF11_FO.jpg","stimuli/WF11_DO.jpg","stimuli/AF10_HO.jpg","pos2","stimuli/AF11_FO.jpg","FO","AF11","1","3.5","7","6","stimuli/stars_7.png","195","[""CC"",""FO"",""DO"",""HO""]","[""AF09"",""AF11"",""WF11"",""AF10""]","[9,7,6,2]","[8,6,4,2]","","",""
"show-reward","108","276399","0.0-108.0","p342266","A2583YP0HGTKAG","3P888QFVX40Z2B7BK75OWKP045JQOK","3JRJSWSMQJRO63MEIKVX3KX09NT3EB","model","mismatch","uniform","","","","","","","","275994","277995","","","","","","","","","","","","7","","stimuli/stars_7.png","195","","","","","stimuli/AF11_FO.jpg","",""
"explore-choice","109","277699","0.0-109.0","p342266","A2583YP0HGTKAG","3P888QFVX40Z2B7BK75OWKP045JQOK","3JRJSWSMQJRO63MEIKVX3KX09NT3EB","model","mismatch","uniform","","","","","","","800","277996","278796","[""stimuli/AF09_HO.jpg"",""stimuli/AF10_CC.jpg"",""stimuli/AF11_FO.jpg"",""stimuli/WF11_DO.jpg""]","stimuli/AF09_HO.jpg","stimuli/AF10_CC.jpg","stimuli/AF11_FO.jpg","stimuli/WF11_DO.jpg","pos4","stimuli/WF11_DO.jpg","DO","WF11","3","1","2","4","stimuli/stars_2.png","196","[""HO"",""CC"",""FO"",""DO""]","[""AF09"",""AF10"",""AF11"",""WF11""]","[1,9,8,2]","[2,8,6,4]","","",""
"show-reward","110","279707","0.0-110.0","p342266","A2583YP0HGTKAG","3P888QFVX40Z2B7BK75OWKP045JQOK","3JRJSWSMQJRO63MEIKVX3KX09NT3EB","model","mismatch","uniform","","","","","","","","279296","281304","","","","","","","","","","","","2","","stimuli/stars_2.png","196","","","","","stimuli/WF11_DO.jpg","",""
"explore-choice","111","282188","0.0-111.0","p342266","A2583YP0HGTKAG","3P888QFVX40Z2B7BK75OWKP045JQOK","3JRJSWSMQJRO63MEIKVX3KX09NT3EB","model","mismatch","uniform","","","","","","","1973","281304","283277","[""stimuli/AF10_FO.jpg"",""stimuli/AF09_DO.jpg"",""stimuli/WF11_CC.jpg"",""stimuli/AF11_HO.jpg""]","stimuli/AF10_FO.jpg","stimuli/AF09_DO.jpg","stimuli/WF11_CC.jpg","stimuli/AF11_HO.jpg","pos1","stimuli/AF10_FO.jpg","FO","AF10","0","3","6","6","stimuli/stars_6.png","199","[""FO"",""DO"",""CC"",""HO""]","[""AF10"",""AF09"",""WF11"",""AF11""]","[6,2,7,4]","[6,4,8,2]","","",""
"show-reward","112","284198","0.0-112.0","p342266","A2583YP0HGTKAG","3P888QFVX40Z2B7BK75OWKP045JQOK","3JRJSWSMQJRO63MEIKVX3KX09NT3EB","model","mismatch","uniform","","","","","","","","283785","285796","","","","","","","","","","","","6","","stimuli/stars_6.png","199","","","","","stimuli/AF10_FO.jpg","",""
"explore-choice","113","285998","0.0-113.0","p342266","A2583YP0HGTKAG","3P888QFVX40Z2B7BK75OWKP045JQOK","3JRJSWSMQJRO63MEIKVX3KX09NT3EB","model","mismatch","uniform","","","","","","","1296","285796","287092","[""stimuli/AF09_CC.jpg"",""stimuli/AF10_DO.jpg"",""stimuli/AF11_FO.jpg"",""stimuli/WF11_HO.jpg""]","stimuli/AF09_CC.jpg","stimuli/AF10_DO.jpg","stimuli/AF11_FO.jpg","stimuli/WF11_HO.jpg","pos2","stimuli/AF10_DO.jpg","DO","AF10","1","1","2","4","stimuli/stars_2.png","200","[""CC"",""DO"",""FO"",""HO""]","[""AF09"",""AF10"",""AF11"",""WF11""]","[9,2,5,1]","[8,4,6,2]","","",""
"show-reward","114","288009","0.0-114.0","p342266","A2583YP0HGTKAG","3P888QFVX40Z2B7BK75OWKP045JQOK","3JRJSWSMQJRO63MEIKVX3KX09NT3EB","model","mismatch","uniform","","","","","","","","287595","289607","","","","","","","","","","","","2","","stimuli/stars_2.png","200","","","","","stimuli/AF10_DO.jpg","",""
"explore-choice","115","289451","0.0-115.0","p342266","A2583YP0HGTKAG","3P888QFVX40Z2B7BK75OWKP045JQOK","3JRJSWSMQJRO63MEIKVX3KX09NT3EB","model","mismatch","uniform","","","","","","","935","289607","290542","[""stimuli/AF09_HO.jpg"",""stimuli/AF10_DO.jpg"",""stimuli/WF11_FO.jpg"",""stimuli/AF11_CC.jpg""]","stimuli/AF09_HO.jpg","stimuli/AF10_DO.jpg","stimuli/WF11_FO.jpg","stimuli/AF11_CC.jpg","pos4","stimuli/AF11_CC.jpg","CC","AF11","3","5","10","8","stimuli/stars_10.png","205","[""HO"",""DO"",""FO"",""CC""]","[""AF09"",""AF10"",""WF11"",""AF11""]","[4,4,6,10]","[2,4,6,8]","","",""
"show-reward","116","291459","0.0-116.0","p342266","A2583YP0HGTKAG","3P888QFVX40Z2B7BK75OWKP045JQOK","3JRJSWSMQJRO63MEIKVX3KX09NT3EB","model","mismatch","uniform","","","","","","","","291048","293056","","","","","","","","","","","","10","","stimuli/stars_10.png","205","","","","","stimuli/AF11_CC.jpg","",""
"explore-choice","117","292842","0.0-117.0","p342266","A2583YP0HGTKAG","3P888QFVX40Z2B7BK75OWKP045JQOK","3JRJSWSMQJRO63MEIKVX3KX09NT3EB","model","mismatch","uniform","","","","","","","880","293056","293936","[""stimuli/AF09_DO.jpg"",""stimuli/AF11_FO.jpg"",""stimuli/AF10_HO.jpg"",""stimuli/WF11_CC.jpg""]","stimuli/AF09_DO.jpg","stimuli/AF11_FO.jpg","stimuli/AF10_HO.jpg","stimuli/WF11_CC.jpg","pos2","stimuli/AF11_FO.jpg","FO","AF11","1","3","6","6","stimuli/stars_6.png","208","[""DO"",""FO"",""HO"",""CC""]","[""AF09"",""AF11"",""AF10"",""WF11""]","[6,6,1,8]","[4,6,2,8]","","",""
"show-reward","118","294857","0.0-118.0","p342266","A2583YP0HGTKAG","3P888QFVX40Z2B7BK75OWKP045JQOK","3JRJSWSMQJRO63MEIKVX3KX09NT3EB","model","mismatch","uniform","","","","","","","","294440","296454","","","","","","","","","","","","6","","stimuli/stars_6.png","208","","","","","stimuli/AF11_FO.jpg","",""
"explore-choice","119","296451","0.0-119.0","p342266","A2583YP0HGTKAG","3P888QFVX40Z2B7BK75OWKP045JQOK","3JRJSWSMQJRO63MEIKVX3KX09NT3EB","model","mismatch","uniform","","","","","","","1086","296455","297541","[""stimuli/AF11_DO.jpg"",""stimuli/WF11_FO.jpg"",""stimuli/AF10_CC.jpg"",""stimuli/AF09_HO.jpg""]","stimuli/AF11_DO.jpg","stimuli/WF11_FO.jpg","stimuli/AF10_CC.jpg","stimuli/AF09_HO.jpg","pos1","stimuli/AF11_DO.jpg","DO","AF11","0","2.5","5","4","stimuli/stars_5.png","210.5","[""DO"",""FO"",""CC"",""HO""]","[""AF11"",""WF11"",""AF10"",""AF09""]","[5,5,10,2]","[4,6,8,2]","","",""
"show-reward","120","298463","0.0-120.0","p342266","A2583YP0HGTKAG","3P888QFVX40Z2B7BK75OWKP045JQOK","3JRJSWSMQJRO63MEIKVX3KX09NT3EB","model","mismatch","uniform","","","","","","","","298049","300060","","","","","","","","","","","","5","","stimuli/stars_5.png","210.5","","","","","stimuli/AF11_DO.jpg","",""
"explore-choice","121","300172","0.0-121.0","p342266","A2583YP0HGTKAG","3P888QFVX40Z2B7BK75OWKP045JQOK","3JRJSWSMQJRO63MEIKVX3KX09NT3EB","model","mismatch","uniform","","","","","","","1193","300060","301253","[""stimuli/WF11_CC.jpg"",""stimuli/AF09_FO.jpg"",""stimuli/AF10_DO.jpg"",""stimuli/AF11_HO.jpg""]","stimuli/WF11_CC.jpg","stimuli/AF09_FO.jpg","stimuli/AF10_DO.jpg","stimuli/AF11_HO.jpg","pos4","stimuli/AF11_HO.jpg","HO","AF11","3","2","4","2","stimuli/stars_4.png","212.5","[""CC"",""FO"",""DO"",""HO""]","[""WF11"",""AF09"",""AF10"",""AF11""]","[8,5,3,4]","[8,6,4,2]","","",""
"show-reward","122","302175","0.0-122.0","p342266","A2583YP0HGTKAG","3P888QFVX40Z2B7BK75OWKP045JQOK","3JRJSWSMQJRO63MEIKVX3KX09NT3EB","model","mismatch","uniform","","","","","","","","301769","303772","","","","","","","","","","","","4","","stimuli/stars_4.png","212.5","","","","","stimuli/AF11_HO.jpg","",""
"explore-choice","123","308347","0.0-123.0","p342266","A2583YP0HGTKAG","3P888QFVX40Z2B7BK75OWKP045JQOK","3JRJSWSMQJRO63MEIKVX3KX09NT3EB","model","mismatch","uniform","","","","","","","5670","303772","309442","[""stimuli/AF11_HO.jpg"",""stimuli/WF11_FO.jpg"",""stimuli/AF10_DO.jpg"",""stimuli/AF09_CC.jpg""]","stimuli/AF11_HO.jpg","stimuli/WF11_FO.jpg","stimuli/AF10_DO.jpg","stimuli/AF09_CC.jpg","pos1","stimuli/AF11_HO.jpg","HO","AF11","0","1","2","2","stimuli/stars_2.png","213.5","[""HO"",""FO"",""DO"",""CC""]","[""AF11"",""WF11"",""AF10"",""AF09""]","[2,8,6,8]","[2,6,4,8]","","",""
"show-reward","124","310358","0.0-124.0","p342266","A2583YP0HGTKAG","3P888QFVX40Z2B7BK75OWKP045JQOK","3JRJSWSMQJRO63MEIKVX3KX09NT3EB","model","mismatch","uniform","","","","","","","","309944","311956","","","","","","","","","","","","2","","stimuli/stars_2.png","213.5","","","","","stimuli/AF11_HO.jpg","",""
"explore-choice","125","312378","0.0-125.0","p342266","A2583YP0HGTKAG","3P888QFVX40Z2B7BK75OWKP045JQOK","3JRJSWSMQJRO63MEIKVX3KX09NT3EB","model","mismatch","uniform","","","","","","","1510","311956","313466","[""stimuli/WF11_HO.jpg"",""stimuli/AF10_DO.jpg"",""stimuli/AF09_FO.jpg"",""stimuli/AF11_CC.jpg""]","stimuli/WF11_HO.jpg","stimuli/AF10_DO.jpg","stimuli/AF09_FO.jpg","stimuli/AF11_CC.jpg","pos1","stimuli/WF11_HO.jpg","HO","WF11","0","1.5","3","2","stimuli/stars_3.png","215","[""HO"",""DO"",""FO"",""CC""]","[""WF11"",""AF10"",""AF09"",""AF11""]","[3,5,6,9]","[2,4,6,8]","","",""
"show-reward","126","314394","0.0-126.0","p342266","A2583YP0HGTKAG","3P888QFVX40Z2B7BK75OWKP045JQOK","3JRJSWSMQJRO63MEIKVX3KX09NT3EB","model","mismatch","uniform","","","","","","","","313975","315992","","","","","","","","","","","","3","","stimuli/stars_3.png","215","","","","","stimuli/WF11_HO.jpg","",""
"explore-choice","127","318370","0.0-127.0","p342266","A2583YP0HGTKAG","3P888QFVX40Z2B7BK75OWKP045JQOK","3JRJSWSMQJRO63MEIKVX3KX09NT3EB","model","mismatch","uniform","","","","","","","3459","315992","319451","[""stimuli/WF11_HO.jpg"",""stimuli/AF11_DO.jpg"",""stimuli/AF09_FO.jpg"",""stimuli/AF10_CC.jpg""]","stimuli/WF11_HO.jpg","stimuli/AF11_DO.jpg","stimuli/AF09_FO.jpg","stimuli/AF10_CC.jpg","pos4","stimuli/AF10_CC.jpg","CC","AF10","3","4","8","8","stimuli/stars_8.png","219","[""HO"",""DO"",""FO"",""CC""]","[""WF11"",""AF11"",""AF09"",""AF10""]","[4,2,6,8]","[2,4,6,8]","","",""
"show-reward","128","320379","0.0-128.0","p342266","A2583YP0HGTKAG","3P888QFVX40Z2B7BK75OWKP045JQOK","3JRJSWSMQJRO63MEIKVX3KX09NT3EB","model","mismatch","uniform","","","","","","","","319967","321977","","","","","","","","","","","","8","","stimuli/stars_8.png","219","","","","","stimuli/AF10_CC.jpg","",""
"explore-choice","129","322545","0.0-129.0","p342266","A2583YP0HGTKAG","3P888QFVX40Z2B7BK75OWKP045JQOK","3JRJSWSMQJRO63MEIKVX3KX09NT3EB","model","mismatch","uniform","","","","","","","1653","321977","323630","[""stimuli/AF09_CC.jpg"",""stimuli/AF10_FO.jpg"",""stimuli/WF11_DO.jpg"",""stimuli/AF11_HO.jpg""]","stimuli/AF09_CC.jpg","stimuli/AF10_FO.jpg","stimuli/WF11_DO.jpg","stimuli/AF11_HO.jpg","pos2","stimuli/AF10_FO.jpg","FO","AF10","1","3.5","7","6","stimuli/stars_7.png","222.5","[""CC"",""FO"",""DO"",""HO""]","[""AF09"",""AF10"",""WF11"",""AF11""]","[9,7,2,4]","[8,6,4,2]","","",""
"show-reward","130","324558","0.0-130.0","p342266","A2583YP0HGTKAG","3P888QFVX40Z2B7BK75OWKP045JQOK","3JRJSWSMQJRO63MEIKVX3KX09NT3EB","model","mismatch","uniform","","","","","","","","324143","326155","","","","","","","","","","","","7","","stimuli/stars_7.png","222.5","","","","","stimuli/AF10_FO.jpg","",""
"explore-choice","131","325832","0.0-131.0","p342266","A2583YP0HGTKAG","3P888QFVX40Z2B7BK75OWKP045JQOK","3JRJSWSMQJRO63MEIKVX3KX09NT3EB","model","mismatch","uniform","","","","","","","771","326155","326926","[""stimuli/AF10_FO.jpg"",""stimuli/AF09_HO.jpg"",""stimuli/AF11_DO.jpg"",""stimuli/WF11_CC.jpg""]","stimuli/AF10_FO.jpg","stimuli/AF09_HO.jpg","stimuli/AF11_DO.jpg","stimuli/WF11_CC.jpg","pos1","stimuli/AF10_FO.jpg","FO","AF10","0","3.5","7","6","stimuli/stars_7.png","226","[""FO"",""HO"",""DO"",""CC""]","[""AF10"",""AF09"",""AF11"",""WF11""]","[7,3,3,7]","[6,2,4,8]","","",""
"show-reward","132","327835","0.0-132.0","p342266","A2583YP0HGTKAG","3P888QFVX40Z2B7BK75OWKP045JQOK","3JRJSWSMQJRO63MEIKVX3KX09NT3EB","model","mismatch","uniform","","","","","","","","327430","329432","","","","","","","","","","","","7","","stimuli/stars_7.png","226","","","","","stimuli/AF10_FO.jpg","",""
"explore-choice","133","329435","0.0-133.0","p342266","A2583YP0HGTKAG","3P888QFVX40Z2B7BK75OWKP045JQOK","3JRJSWSMQJRO63MEIKVX3KX09NT3EB","model","mismatch","uniform","","","","","","","1089","329432","330521","[""stimuli/AF10_CC.jpg"",""stimuli/WF11_FO.jpg"",""stimuli/AF09_DO.jpg"",""stimuli/AF11_HO.jpg""]","stimuli/AF10_CC.jpg","stimuli/WF11_FO.jpg","stimuli/AF09_DO.jpg","stimuli/AF11_HO.jpg","pos1","stimuli/AF10_CC.jpg","CC","AF10","0","3.5","7","8","stimuli/stars_7.png","229.5","[""CC"",""FO"",""DO"",""HO""]","[""AF10"",""WF11"",""AF09"",""AF11""]","[7,4,4,1]","[8,6,4,2]","","",""
"show-reward","134","331445","0.0-134.0","p342266","A2583YP0HGTKAG","3P888QFVX40Z2B7BK75OWKP045JQOK","3JRJSWSMQJRO63MEIKVX3KX09NT3EB","model","mismatch","uniform","","","","","","","","331033","333041","","","","","","","","","","","","7","","stimuli/stars_7.png","229.5","","","","","stimuli/AF10_CC.jpg","",""
"explore-choice","135","332614","0.0-135.0","p342266","A2583YP0HGTKAG","3P888QFVX40Z2B7BK75OWKP045JQOK","3JRJSWSMQJRO63MEIKVX3KX09NT3EB","model","mismatch","uniform","","","","","","","666","333042","333708","[""stimuli/AF10_HO.jpg"",""stimuli/AF11_DO.jpg"",""stimuli/AF09_FO.jpg"",""stimuli/WF11_CC.jpg""]","stimuli/AF10_HO.jpg","stimuli/AF11_DO.jpg","stimuli/AF09_FO.jpg","stimuli/WF11_CC.jpg","pos1","stimuli/AF10_HO.jpg","HO","AF10","0","0.5","1","2","stimuli/stars_1.png","230","[""HO"",""DO"",""FO"",""CC""]","[""AF10"",""AF11"",""AF09"",""WF11""]","[1,4,6,7]","[2,4,6,8]","","",""
"show-reward","136","334619","0.0-136.0","p342266","A2583YP0HGTKAG","3P888QFVX40Z2B7BK75OWKP045JQOK","3JRJSWSMQJRO63MEIKVX3KX09NT3EB","model","mismatch","uniform","","","","","","","","334212","336216","","","","","","","","","","","","1","","stimuli/stars_1.png","230","","","","","stimuli/AF10_HO.jpg","",""
"explore-choice","137","338469","0.0-137.0","p342266","A2583YP0HGTKAG","3P888QFVX40Z2B7BK75OWKP045JQOK","3JRJSWSMQJRO63MEIKVX3KX09NT3EB","model","mismatch","uniform","","","","","","","3345","336217","339562","[""stimuli/WF11_FO.jpg"",""stimuli/AF11_DO.jpg"",""stimuli/AF09_CC.jpg"",""stimuli/AF10_HO.jpg""]","stimuli/WF11_FO.jpg","stimuli/AF11_DO.jpg","stimuli/AF09_CC.jpg","stimuli/AF10_HO.jpg","pos3","stimuli/AF09_CC.jpg","CC","AF09","2","4","8","8","stimuli/stars_8.png","234","[""FO"",""DO"",""CC"",""HO""]","[""WF11"",""AF11"",""AF09"",""AF10""]","[4,2,8,0]","[6,4,8,2]","","",""
"show-reward","138","340479","0.0-138.0","p342266","A2583YP0HGTKAG","3P888QFVX40Z2B7BK75OWKP045JQOK","3JRJSWSMQJRO63MEIKVX3KX09NT3EB","model","mismatch","uniform","","","","","","","","340067","342076","","","","","","","","","","","","8","","stimuli/stars_8.png","234","","","","","stimuli/AF09_CC.jpg","",""
"explore-choice","139","342120","0.0-139.0","p342266","A2583YP0HGTKAG","3P888QFVX40Z2B7BK75OWKP045JQOK","3JRJSWSMQJRO63MEIKVX3KX09NT3EB","model","mismatch","uniform","","","","","","","1136","342077","343213","[""stimuli/WF11_DO.jpg"",""stimuli/AF09_FO.jpg"",""stimuli/AF10_CC.jpg"",""stimuli/AF11_HO.jpg""]","stimuli/WF11_DO.jpg","stimuli/AF09_FO.jpg","stimuli/AF10_CC.jpg","stimuli/AF11_HO.jpg","pos3","stimuli/AF10_CC.jpg","CC","AF10","2","3.5","7","8","stimuli/stars_7.png","237.5","[""DO"",""FO"",""CC"",""HO""]","[""WF11"",""AF09"",""AF10"",""AF11""]","[6,6,7,1]","[4,6,8,2]","","",""
"show-reward","140","344123","0.0-140.0","p342266","A2583YP0HGTKAG","3P888QFVX40Z2B7BK75OWKP045JQOK","3JRJSWSMQJRO63MEIKVX3KX09NT3EB","model","mismatch","uniform","","","","","","","","343718","345720","","","","","","","","","","","","7","","stimuli/stars_7.png","237.5","","","","","stimuli/AF10_CC.jpg","",""
"explore-choice","141","346484","0.0-141.0","p342266","A2583YP0HGTKAG","3P888QFVX40Z2B7BK75OWKP045JQOK","3JRJSWSMQJRO63MEIKVX3KX09NT3EB","model","mismatch","uniform","","","","","","","1857","345720","347577","[""stimuli/AF10_FO.jpg"",""stimuli/AF09_CC.jpg"",""stimuli/WF11_HO.jpg"",""stimuli/AF11_DO.jpg""]","stimuli/AF10_FO.jpg","stimuli/AF09_CC.jpg","stimuli/WF11_HO.jpg","stimuli/AF11_DO.jpg","pos3","stimuli/WF11_HO.jpg","HO","WF11","2","0","0","2","stimuli/stars_0.png","237.5","[""FO"",""CC"",""HO"",""DO""]","[""AF10"",""AF09"",""WF11"",""AF11""]","[4,6,0,3]","[6,8,2,4]","","",""
"show-reward","142","348494","0.0-142.0","p342266","A2583YP0HGTKAG","3P888QFVX40Z2B7BK75OWKP045JQOK","3JRJSWSMQJRO63MEIKVX3KX09NT3EB","model","mismatch","uniform","","","","","","","","348081","350092","","","","","","","","","","","","0","","stimuli/stars_0.png","237.5","","","","","stimuli/WF11_HO.jpg","",""
"explore-choice","143","350213","0.0-143.0","p342266","A2583YP0HGTKAG","3P888QFVX40Z2B7BK75OWKP045JQOK","3JRJSWSMQJRO63MEIKVX3KX09NT3EB","model","mismatch","uniform","","","","","","","1216","350092","351308","[""stimuli/AF09_HO.jpg"",""stimuli/WF11_DO.jpg"",""stimuli/AF11_CC.jpg"",""stimuli/AF10_FO.jpg""]","stimuli/AF09_HO.jpg","stimuli/WF11_DO.jpg","stimuli/AF11_CC.jpg","stimuli/AF10_FO.jpg","pos3","stimuli/AF11_CC.jpg","CC","AF11","2","4.5","9","8","stimuli/stars_9.png","242","[""HO"",""DO"",""CC"",""FO""]","[""AF09"",""WF11"",""AF11"",""AF10""]","[2,3,9,4]","[2,4,8,6]","","",""
"show-reward","144","352225","0.0-144.0","p342266","A2583YP0HGTKAG","3P888QFVX40Z2B7BK75OWKP045JQOK","3JRJSWSMQJRO63MEIKVX3KX09NT3EB","model","mismatch","uniform","","","","","","","","351810","353821","","","","","","","","","","","","9","","stimuli/stars_9.png","242","","","","","stimuli/AF11_CC.jpg","",""
"explore-choice","145","354842","0.0-145.0","p342266","A2583YP0HGTKAG","3P888QFVX40Z2B7BK75OWKP045JQOK","3JRJSWSMQJRO63MEIKVX3KX09NT3EB","model","mismatch","uniform","","","","","","","2113","353823","355936","[""stimuli/AF10_DO.jpg"",""stimuli/WF11_CC.jpg"",""stimuli/AF11_FO.jpg"",""stimuli/AF09_HO.jpg""]","stimuli/AF10_DO.jpg","stimuli/WF11_CC.jpg","stimuli/AF11_FO.jpg","stimuli/AF09_HO.jpg","pos2","stimuli/WF11_CC.jpg","CC","WF11","1","4","8","8","stimuli/stars_8.png","246","[""DO"",""CC"",""FO"",""HO""]","[""AF10"",""WF11"",""AF11"",""AF09""]","[3,8,5,2]","[4,8,6,2]","","",""
"show-reward","146","356857","0.0-146.0","p342266","A2583YP0HGTKAG","3P888QFVX40Z2B7BK75OWKP045JQOK","3JRJSWSMQJRO63MEIKVX3KX09NT3EB","model","mismatch","uniform","","","","","","","","356440","358454","","","","","","","","","","","","8","","stimuli/stars_8.png","246","","","","","stimuli/WF11_CC.jpg","",""
"explore-choice","147","358887","0.0-147.0","p342266","A2583YP0HGTKAG","3P888QFVX40Z2B7BK75OWKP045JQOK","3JRJSWSMQJRO63MEIKVX3KX09NT3EB","model","mismatch","uniform","","","","","","","1522","358454","359976","[""stimuli/WF11_HO.jpg"",""stimuli/AF10_FO.jpg"",""stimuli/AF09_DO.jpg"",""stimuli/AF11_CC.jpg""]","stimuli/WF11_HO.jpg","stimuli/AF10_FO.jpg","stimuli/AF09_DO.jpg","stimuli/AF11_CC.jpg","pos4","stimuli/AF11_CC.jpg","CC","AF11","3","5","10","8","stimuli/stars_10.png","251","[""HO"",""FO"",""DO"",""CC""]","[""WF11"",""AF10"",""AF09"",""AF11""]","[3,4,3,10]","[2,6,4,8]","","",""
"show-reward","148","360899","0.0-148.0","p342266","A2583YP0HGTKAG","3P888QFVX40Z2B7BK75OWKP045JQOK","3JRJSWSMQJRO63MEIKVX3KX09NT3EB","model","mismatch","uniform","","","","","","","","360484","362495","","","","","","","","","","","","10","","stimuli/stars_10.png","251","","","","","stimuli/AF11_CC.jpg","",""
"explore-choice","149","363038","0.0-149.0","p342266","A2583YP0HGTKAG","3P888QFVX40Z2B7BK75OWKP045JQOK","3JRJSWSMQJRO63MEIKVX3KX09NT3EB","model","mismatch","uniform","","","","","","","1633","362496","364129","[""stimuli/AF11_FO.jpg"",""stimuli/AF09_DO.jpg"",""stimuli/AF10_CC.jpg"",""stimuli/WF11_HO.jpg""]","stimuli/AF11_FO.jpg","stimuli/AF09_DO.jpg","stimuli/AF10_CC.jpg","stimuli/WF11_HO.jpg","pos3","stimuli/AF10_CC.jpg","CC","AF10","2","5","10","8","stimuli/stars_10.png","256","[""FO"",""DO"",""CC"",""HO""]","[""AF11"",""AF09"",""AF10"",""WF11""]","[4,6,10,1]","[6,4,8,2]","","",""
"show-reward","150","365045","0.0-150.0","p342266","A2583YP0HGTKAG","3P888QFVX40Z2B7BK75OWKP045JQOK","3JRJSWSMQJRO63MEIKVX3KX09NT3EB","model","mismatch","uniform","","","","","","","","364636","366641","","","","","","","","","","","","10","","stimuli/stars_10.png","256","","","","","stimuli/AF10_CC.jpg","",""
"explore-choice","151","367037","0.0-151.0","p342266","A2583YP0HGTKAG","3P888QFVX40Z2B7BK75OWKP045JQOK","3JRJSWSMQJRO63MEIKVX3KX09NT3EB","model","mismatch","uniform","","","","","","","1483","366641","368124","[""stimuli/WF11_DO.jpg"",""stimuli/AF09_FO.jpg"",""stimuli/AF11_CC.jpg"",""stimuli/AF10_HO.jpg""]","stimuli/WF11_DO.jpg","stimuli/AF09_FO.jpg","stimuli/AF11_CC.jpg","stimuli/AF10_HO.jpg","pos3","stimuli/AF11_CC.jpg","CC","AF11","2","3","6","8","stimuli/stars_6.png","259","[""DO"",""FO"",""CC"",""HO""]","[""WF11"",""AF09"",""AF11"",""AF10""]","[6,6,6,1]","[4,6,8,2]","","",""
"show-reward","152","369047","0.0-152.0","p342266","A2583YP0HGTKAG","3P888QFVX40Z2B7BK75OWKP045JQOK","3JRJSWSMQJRO63MEIKVX3KX09NT3EB","model","mismatch","uniform","","","","","","","","368634","370643","","","","","","","","","","","","6","","stimuli/stars_6.png","259","","","","","stimuli/AF11_CC.jpg","",""
"explore-choice","153","371673","0.0-153.0","p342266","A2583YP0HGTKAG","3P888QFVX40Z2B7BK75OWKP045JQOK","3JRJSWSMQJRO63MEIKVX3KX09NT3EB","model","mismatch","uniform","","","","","","","2115","370644","372759","[""stimuli/WF11_CC.jpg"",""stimuli/AF09_FO.jpg"",""stimuli/AF10_DO.jpg"",""stimuli/AF11_HO.jpg""]","stimuli/WF11_CC.jpg","stimuli/AF09_FO.jpg","stimuli/AF10_DO.jpg","stimuli/AF11_HO.jpg","pos1","stimuli/WF11_CC.jpg","CC","WF11","0","4","8","8","stimuli/stars_8.png","263","[""CC"",""FO"",""DO"",""HO""]","[""WF11"",""AF09"",""AF10"",""AF11""]","[8,5,3,4]","[8,6,4,2]","","",""
"show-reward","154","373676","0.0-154.0","p342266","A2583YP0HGTKAG","3P888QFVX40Z2B7BK75OWKP045JQOK","3JRJSWSMQJRO63MEIKVX3KX09NT3EB","model","mismatch","uniform","","","","","","","","373270","375274","","","","","","","","","","","","8","","stimuli/stars_8.png","263","","","","","stimuli/WF11_CC.jpg","",""
"explore-choice","155","375976","0.0-155.0","p342266","A2583YP0HGTKAG","3P888QFVX40Z2B7BK75OWKP045JQOK","3JRJSWSMQJRO63MEIKVX3KX09NT3EB","model","mismatch","uniform","","","","","","","1796","375274","377070","[""stimuli/AF11_FO.jpg"",""stimuli/AF10_CC.jpg"",""stimuli/WF11_DO.jpg"",""stimuli/AF09_HO.jpg""]","stimuli/AF11_FO.jpg","stimuli/AF10_CC.jpg","stimuli/WF11_DO.jpg","stimuli/AF09_HO.jpg","pos2","stimuli/AF10_CC.jpg","CC","AF10","1","4.5","9","8","stimuli/stars_9.png","267.5","[""FO"",""CC"",""DO"",""HO""]","[""AF11"",""AF10"",""WF11"",""AF09""]","[8,9,2,1]","[6,8,4,2]","","",""
"show-reward","156","377986","0.0-156.0","p342266","A2583YP0HGTKAG","3P888QFVX40Z2B7BK75OWKP045JQOK","3JRJSWSMQJRO63MEIKVX3KX09NT3EB","model","mismatch","uniform","","","","","","","","377573","379583","","","","","","","","","","","","9","","stimuli/stars_9.png","267.5","","","","","stimuli/AF10_CC.jpg","",""
"explore-choice","157","379566","0.0-157.0","p342266","A2583YP0HGTKAG","3P888QFVX40Z2B7BK75OWKP045JQOK","3JRJSWSMQJRO63MEIKVX3KX09NT3EB","model","mismatch","uniform","","","","","","","1077","379583","380660","[""stimuli/AF09_HO.jpg"",""stimuli/WF11_FO.jpg"",""stimuli/AF10_CC.jpg"",""stimuli/AF11_DO.jpg""]","stimuli/AF09_HO.jpg","stimuli/WF11_FO.jpg","stimuli/AF10_CC.jpg","stimuli/AF11_DO.jpg","pos3","stimuli/AF10_CC.jpg","CC","AF10","2","5","10","8","stimuli/stars_10.png","272.5","[""HO"",""FO"",""CC"",""DO""]","[""AF09"",""WF11"",""AF10"",""AF11""]","[2,5,10,5]","[2,6,8,4]","","",""
"show-reward","158","381573","0.0-158.0","p342266","A2583YP0HGTKAG","3P888QFVX40Z2B7BK75OWKP045JQOK","3JRJSWSMQJRO63MEIKVX3KX09NT3EB","model","mismatch","uniform","","","","","","","","381164","383170","","","","","","","","","","","","10","","stimuli/stars_10.png","272.5","","","","","stimuli/AF10_CC.jpg","",""
"explore-choice","159","383383","0.0-159.0","p342266","A2583YP0HGTKAG","3P888QFVX40Z2B7BK75OWKP045JQOK","3JRJSWSMQJRO63MEIKVX3KX09NT3EB","model","mismatch","uniform","","","","","","","1296","383170","384466","[""stimuli/WF11_CC.jpg"",""stimuli/AF09_HO.jpg"",""stimuli/AF11_DO.jpg"",""stimuli/AF10_FO.jpg""]","stimuli/WF11_CC.jpg","stimuli/AF09_HO.jpg","stimuli/AF11_DO.jpg","stimuli/AF10_FO.jpg","pos1","stimuli/WF11_CC.jpg","CC","WF11","0","3.5","7","8","stimuli/stars_7.png","276","[""CC"",""HO"",""DO"",""FO""]","[""WF11"",""AF09"",""AF11"",""AF10""]","[7,3,3,7]","[8,2,4,6]","","",""
"show-reward","160","385395","0.0-160.0","p342266","A2583YP0HGTKAG","3P888QFVX40Z2B7BK75OWKP045JQOK","3JRJSWSMQJRO63MEIKVX3KX09NT3EB","model","mismatch","uniform","","","","","","","","384980","386992","","","","","","","","","","","","7","","stimuli/stars_7.png","276","","","","","stimuli/WF11_CC.jpg","",""
"explore-choice","161","387124","0.0-161.0","p342266","A2583YP0HGTKAG","3P888QFVX40Z2B7BK75OWKP045JQOK","3JRJSWSMQJRO63MEIKVX3KX09NT3EB","model","mismatch","uniform","","","","","","","1221","386992","388213","[""stimuli/WF11_FO.jpg"",""stimuli/AF10_DO.jpg"",""stimuli/AF09_HO.jpg"",""stimuli/AF11_CC.jpg""]","stimuli/WF11_FO.jpg","stimuli/AF10_DO.jpg","stimuli/AF09_HO.jpg","stimuli/AF11_CC.jpg","pos4","stimuli/AF11_CC.jpg","CC","AF11","3","5","10","8","stimuli/stars_10.png","281","[""FO"",""DO"",""HO"",""CC""]","[""WF11"",""AF10"",""AF09"",""AF11""]","[6,4,4,10]","[6,4,2,8]","","",""
"show-reward","162","389135","0.0-162.0","p342266","A2583YP0HGTKAG","3P888QFVX40Z2B7BK75OWKP045JQOK","3JRJSWSMQJRO63MEIKVX3KX09NT3EB","model","mismatch","uniform","","","","","","","","388722","390732","","","","","","","","","","","","10","","stimuli/stars_10.png","281","","","","","stimuli/AF11_CC.jpg","",""
"explore-choice","163","391325","0.0-163.0","p342266","A2583YP0HGTKAG","3P888QFVX40Z2B7BK75OWKP045JQOK","3JRJSWSMQJRO63MEIKVX3KX09NT3EB","model","mismatch","uniform","","","","","","","1690","390732","392422","[""stimuli/AF09_FO.jpg"",""stimuli/WF11_CC.jpg"",""stimuli/AF11_DO.jpg"",""stimuli/AF10_HO.jpg""]","stimuli/AF09_FO.jpg","stimuli/WF11_CC.jpg","stimuli/AF11_DO.jpg","stimuli/AF10_HO.jpg","pos2","stimuli/WF11_CC.jpg","CC","WF11","1","3.5","7","8","stimuli/stars_7.png","284.5","[""FO"",""CC"",""DO"",""HO""]","[""AF09"",""WF11"",""AF11"",""AF10""]","[6,7,4,1]","[6,8,4,2]","","",""
"show-reward","164","393341","0.0-164.0","p342266","A2583YP0HGTKAG","3P888QFVX40Z2B7BK75OWKP045JQOK","3JRJSWSMQJRO63MEIKVX3KX09NT3EB","model","mismatch","uniform","","","","","","","","392922","394938","","","","","","","","","","","","7","","stimuli/stars_7.png","284.5","","","","","stimuli/WF11_CC.jpg","",""
"explore-choice","165","395143","0.0-165.0","p342266","A2583YP0HGTKAG","3P888QFVX40Z2B7BK75OWKP045JQOK","3JRJSWSMQJRO63MEIKVX3KX09NT3EB","model","mismatch","uniform","","","","","","","1290","394938","396228","[""stimuli/AF09_FO.jpg"",""stimuli/AF11_HO.jpg"",""stimuli/WF11_DO.jpg"",""stimuli/AF10_CC.jpg""]","stimuli/AF09_FO.jpg","stimuli/AF11_HO.jpg","stimuli/WF11_DO.jpg","stimuli/AF10_CC.jpg","pos4","stimuli/AF10_CC.jpg","CC","AF10","3","3.5","7","8","stimuli/stars_7.png","288","[""FO"",""HO"",""DO"",""CC""]","[""AF09"",""AF11"",""WF11"",""AF10""]","[6,1,6,7]","[6,2,4,8]","","",""
"show-reward","166","397145","0.0-166.0","p342266","A2583YP0HGTKAG","3P888QFVX40Z2B7BK75OWKP045JQOK","3JRJSWSMQJRO63MEIKVX3KX09NT3EB","model","mismatch","uniform","","","","","","","","396740","398742","","","","","","","","","","","","7","","stimuli/stars_7.png","288","","","","","stimuli/AF10_CC.jpg","",""
"explore-choice","167","398731","0.0-167.0","p342266","A2583YP0HGTKAG","3P888QFVX40Z2B7BK75OWKP045JQOK","3JRJSWSMQJRO63MEIKVX3KX09NT3EB","model","mismatch","uniform","","","","","","","1082","398743","399825","[""stimuli/WF11_DO.jpg"",""stimuli/AF11_FO.jpg"",""stimuli/AF09_CC.jpg"",""stimuli/AF10_HO.jpg""]","stimuli/WF11_DO.jpg","stimuli/AF11_FO.jpg","stimuli/AF09_CC.jpg","stimuli/AF10_HO.jpg","pos3","stimuli/AF09_CC.jpg","CC","AF09","2","4.5","9","8","stimuli/stars_9.png","292.5","[""DO"",""FO"",""CC"",""HO""]","[""WF11"",""AF11"",""AF09"",""AF10""]","[6,7,9,2]","[4,6,8,2]","","",""
"show-reward","168","400732","0.0-168.0","p342266","A2583YP0HGTKAG","3P888QFVX40Z2B7BK75OWKP045JQOK","3JRJSWSMQJRO63MEIKVX3KX09NT3EB","model","mismatch","uniform","","","","","","","","400328","402329","","","","","","","","","","","","9","","stimuli/stars_9.png","292.5","","","","","stimuli/AF09_CC.jpg","",""
"explore-choice","169","402874","0.0-169.0","p342266","A2583YP0HGTKAG","3P888QFVX40Z2B7BK75OWKP045JQOK","3JRJSWSMQJRO63MEIKVX3KX09NT3EB","model","mismatch","uniform","","","","","","","1633","402330","403963","[""stimuli/AF10_DO.jpg"",""stimuli/AF11_CC.jpg"",""stimuli/WF11_HO.jpg"",""stimuli/AF09_FO.jpg""]","stimuli/AF10_DO.jpg","stimuli/AF11_CC.jpg","stimuli/WF11_HO.jpg","stimuli/AF09_FO.jpg","pos2","stimuli/AF11_CC.jpg","CC","AF11","1","4.5","9","8","stimuli/stars_9.png","297","[""DO"",""CC"",""HO"",""FO""]","[""AF10"",""AF11"",""WF11"",""AF09""]","[5,9,3,6]","[4,8,2,6]","","",""
"show-reward","170","404882","0.0-170.0","p342266","A2583YP0HGTKAG","3P888QFVX40Z2B7BK75OWKP045JQOK","3JRJSWSMQJRO63MEIKVX3KX09NT3EB","model","mismatch","uniform","","","","","","","","404472","406480","","","","","","","","","","","","9","","stimuli/stars_9.png","297","","","","","stimuli/AF11_CC.jpg","",""
"explore-choice","171","406623","0.0-171.0","p342266","A2583YP0HGTKAG","3P888QFVX40Z2B7BK75OWKP045JQOK","3JRJSWSMQJRO63MEIKVX3KX09NT3EB","model","mismatch","uniform","","","","","","","1230","406480","407710","[""stimuli/AF10_DO.jpg"",""stimuli/WF11_FO.jpg"",""stimuli/AF11_HO.jpg"",""stimuli/AF09_CC.jpg""]","stimuli/AF10_DO.jpg","stimuli/WF11_FO.jpg","stimuli/AF11_HO.jpg","stimuli/AF09_CC.jpg","pos4","stimuli/AF09_CC.jpg","CC","AF09","3","4","8","8","stimuli/stars_8.png","301","[""DO"",""FO"",""HO"",""CC""]","[""AF10"",""WF11"",""AF11"",""AF09""]","[6,8,2,8]","[4,6,2,8]","","",""
"show-reward","172","408630","0.0-172.0","p342266","A2583YP0HGTKAG","3P888QFVX40Z2B7BK75OWKP045JQOK","3JRJSWSMQJRO63MEIKVX3KX09NT3EB","model","mismatch","uniform","","","","","","","","408220","410227","","","","","","","","","","","","8","","stimuli/stars_8.png","301","","","","","stimuli/AF09_CC.jpg","",""
"explore-choice","173","410397","0.0-173.0","p342266","A2583YP0HGTKAG","3P888QFVX40Z2B7BK75OWKP045JQOK","3JRJSWSMQJRO63MEIKVX3KX09NT3EB","model","mismatch","uniform","","","","","","","1256","410228","411484","[""stimuli/AF09_DO.jpg"",""stimuli/AF10_CC.jpg"",""stimuli/WF11_FO.jpg"",""stimuli/AF11_HO.jpg""]","stimuli/AF09_DO.jpg","stimuli/AF10_CC.jpg","stimuli/WF11_FO.jpg","stimuli/AF11_HO.jpg","pos2","stimuli/AF10_CC.jpg","CC","AF10","1","3.5","7","8","stimuli/stars_7.png","304.5","[""DO"",""CC"",""FO"",""HO""]","[""AF09"",""AF10"",""WF11"",""AF11""]","[4,7,4,1]","[4,8,6,2]","","",""
"show-reward","174","412411","0.0-174.0","p342266","A2583YP0HGTKAG","3P888QFVX40Z2B7BK75OWKP045JQOK","3JRJSWSMQJRO63MEIKVX3KX09NT3EB","model","mismatch","uniform","","","","","","","","411994","414007","","","","","","","","","","","","7","","stimuli/stars_7.png","304.5","","","","","stimuli/AF10_CC.jpg","",""
"explore-choice","175","413863","0.0-175.0","p342266","A2583YP0HGTKAG","3P888QFVX40Z2B7BK75OWKP045JQOK","3JRJSWSMQJRO63MEIKVX3KX09NT3EB","model","mismatch","uniform","","","","","","","950","414008","414958","[""stimuli/AF11_DO.jpg"",""stimuli/WF11_HO.jpg"",""stimuli/AF10_CC.jpg"",""stimuli/AF09_FO.jpg""]","stimuli/AF11_DO.jpg","stimuli/WF11_HO.jpg","stimuli/AF10_CC.jpg","stimuli/AF09_FO.jpg","pos3","stimuli/AF10_CC.jpg","CC","AF10","2","4","8","8","stimuli/stars_8.png","308.5","[""DO"",""HO"",""CC"",""FO""]","[""AF11"",""WF11"",""AF10"",""AF09""]","[2,4,8,6]","[4,2,8,6]","","",""
"show-reward","176","415864","0.0-176.0","p342266","A2583YP0HGTKAG","3P888QFVX40Z2B7BK75OWKP045JQOK","3JRJSWSMQJRO63MEIKVX3KX09NT3EB","model","mismatch","uniform","","","","","","","","415460","417460","","","","","","","","","","","","8","","stimuli/stars_8.png","308.5","","","","","stimuli/AF10_CC.jpg","",""
"explore-choice","177","417655","0.0-177.0","p342266","A2583YP0HGTKAG","3P888QFVX40Z2B7BK75OWKP045JQOK","3JRJSWSMQJRO63MEIKVX3KX09NT3EB","model","mismatch","uniform","","","","","","","1278","417461","418739","[""stimuli/WF11_HO.jpg"",""stimuli/AF10_DO.jpg"",""stimuli/AF09_CC.jpg"",""stimuli/AF11_FO.jpg""]","stimuli/WF11_HO.jpg","stimuli/AF10_DO.jpg","stimuli/AF09_CC.jpg","stimuli/AF11_FO.jpg","pos3","stimuli/AF09_CC.jpg","CC","AF09","2","4.5","9","8","stimuli/stars_9.png","313","[""HO"",""DO"",""CC"",""FO""]","[""WF11"",""AF10"",""AF09"",""AF11""]","[1,2,9,5]","[2,4,8,6]","","",""
"show-reward","178","419668","0.0-178.0","p342266","A2583YP0HGTKAG","3P888QFVX40Z2B7BK75OWKP045JQOK","3JRJSWSMQJRO63MEIKVX3KX09NT3EB","model","mismatch","uniform","","","","","","","","419253","421265","","","","","","","","","","","","9","","stimuli/stars_9.png","313","","","","","stimuli/AF09_CC.jpg","",""
"explore-choice","179","421625","0.0-179.0","p342266","A2583YP0HGTKAG","3P888QFVX40Z2B7BK75OWKP045JQOK","3JRJSWSMQJRO63MEIKVX3KX09NT3EB","model","mismatch","uniform","","","","","","","1452","421265","422717","[""stimuli/AF10_DO.jpg"",""stimuli/AF11_FO.jpg"",""stimuli/WF11_CC.jpg"",""stimuli/AF09_HO.jpg""]","stimuli/AF10_DO.jpg","stimuli/AF11_FO.jpg","stimuli/WF11_CC.jpg","stimuli/AF09_HO.jpg","pos3","stimuli/WF11_CC.jpg","CC","WF11","2","4","8","8","stimuli/stars_8.png","317","[""DO"",""FO"",""CC"",""HO""]","[""AF10"",""AF11"",""WF11"",""AF09""]","[3,5,8,2]","[4,6,8,2]","","",""
"show-reward","180","423638","0.0-180.0","p342266","A2583YP0HGTKAG","3P888QFVX40Z2B7BK75OWKP045JQOK","3JRJSWSMQJRO63MEIKVX3KX09NT3EB","model","mismatch","uniform","","","","","","","","423222","425234","","","","","","","","","","","","8","","stimuli/stars_8.png","317","","","","","stimuli/WF11_CC.jpg","",""
"explore-choice","181","426474","0.0-181.0","p342266","A2583YP0HGTKAG","3P888QFVX40Z2B7BK75OWKP045JQOK","3JRJSWSMQJRO63MEIKVX3KX09NT3EB","model","mismatch","uniform","","","","","","","2321","425235","427556","[""stimuli/WF11_HO.jpg"",""stimuli/AF10_CC.jpg"",""stimuli/AF11_FO.jpg"",""stimuli/AF09_DO.jpg""]","stimuli/WF11_HO.jpg","stimuli/AF10_CC.jpg","stimuli/AF11_FO.jpg","stimuli/AF09_DO.jpg","pos2","stimuli/AF10_CC.jpg","CC","AF10","1","5","10","8","stimuli/stars_10.png","322","[""HO"",""CC"",""FO"",""DO""]","[""WF11"",""AF10"",""AF11"",""AF09""]","[1,10,4,6]","[2,8,6,4]","","",""
"show-reward","182","428480","0.0-182.0","p342266","A2583YP0HGTKAG","3P888QFVX40Z2B7BK75OWKP045JQOK","3JRJSWSMQJRO63MEIKVX3KX09NT3EB","model","mismatch","uniform","","","","","","","","428071","430077","","","","","","","","","","","","10","","stimuli/stars_10.png","322","","","","","stimuli/AF10_CC.jpg","",""
"explore-choice","183","429935","0.0-183.0","p342266","A2583YP0HGTKAG","3P888QFVX40Z2B7BK75OWKP045JQOK","3JRJSWSMQJRO63MEIKVX3KX09NT3EB","model","mismatch","uniform","","","","","","","950","430077","431027","[""stimuli/AF10_FO.jpg"",""stimuli/AF11_DO.jpg"",""stimuli/AF09_CC.jpg"",""stimuli/WF11_HO.jpg""]","stimuli/AF10_FO.jpg","stimuli/AF11_DO.jpg","stimuli/AF09_CC.jpg","stimuli/WF11_HO.jpg","pos3","stimuli/AF09_CC.jpg","CC","AF09","2","3","6","8","stimuli/stars_6.png","325","[""FO"",""DO"",""CC"",""HO""]","[""AF10"",""AF11"",""AF09"",""WF11""]","[4,3,6,0]","[6,4,8,2]","","",""
"show-reward","184","431938","0.0-184.0","p342266","A2583YP0HGTKAG","3P888QFVX40Z2B7BK75OWKP045JQOK","3JRJSWSMQJRO63MEIKVX3KX09NT3EB","model","mismatch","uniform","","","","","","","","431531","433536","","","","","","","","","","","","6","","stimuli/stars_6.png","325","","","","","stimuli/AF09_CC.jpg","",""
"explore-choice","185","433976","0.0-185.0","p342266","A2583YP0HGTKAG","3P888QFVX40Z2B7BK75OWKP045JQOK","3JRJSWSMQJRO63MEIKVX3KX09NT3EB","model","mismatch","uniform","","","","","","","1531","433536","435067","[""stimuli/AF09_CC.jpg"",""stimuli/AF10_FO.jpg"",""stimuli/WF11_DO.jpg"",""stimuli/AF11_HO.jpg""]","stimuli/AF09_CC.jpg","stimuli/AF10_FO.jpg","stimuli/WF11_DO.jpg","stimuli/AF11_HO.jpg","pos1","stimuli/AF09_CC.jpg","CC","AF09","0","4.5","9","8","stimuli/stars_9.png","329.5","[""CC"",""FO"",""DO"",""HO""]","[""AF09"",""AF10"",""WF11"",""AF11""]","[9,7,2,4]","[8,6,4,2]","","",""
"show-reward","186","435983","0.0-186.0","p342266","A2583YP0HGTKAG","3P888QFVX40Z2B7BK75OWKP045JQOK","3JRJSWSMQJRO63MEIKVX3KX09NT3EB","model","mismatch","uniform","","","","","","","","435573","437580","","","","","","","","","","","","9","","stimuli/stars_9.png","329.5","","","","","stimuli/AF09_CC.jpg","",""
"explore-choice","187","437795","0.0-187.0","p342266","A2583YP0HGTKAG","3P888QFVX40Z2B7BK75OWKP045JQOK","3JRJSWSMQJRO63MEIKVX3KX09NT3EB","model","mismatch","uniform","","","","","","","1302","437580","438882","[""stimuli/AF10_FO.jpg"",""stimuli/AF11_CC.jpg"",""stimuli/WF11_DO.jpg"",""stimuli/AF09_HO.jpg""]","stimuli/AF10_FO.jpg","stimuli/AF11_CC.jpg","stimuli/WF11_DO.jpg","stimuli/AF09_HO.jpg","pos2","stimuli/AF11_CC.jpg","CC","AF11","1","4.5","9","8","stimuli/stars_9.png","334","[""FO"",""CC"",""DO"",""HO""]","[""AF10"",""AF11"",""WF11"",""AF09""]","[4,9,3,2]","[6,8,4,2]","","",""
"show-reward","188","439799","0.0-188.0","p342266","A2583YP0HGTKAG","3P888QFVX40Z2B7BK75OWKP045JQOK","3JRJSWSMQJRO63MEIKVX3KX09NT3EB","model","mismatch","uniform","","","","","","","","439393","441397","","","","","","","","","","","","9","","stimuli/stars_9.png","334","","","","","stimuli/AF11_CC.jpg","",""
"explore-choice","189","441618","0.0-189.0","p342266","A2583YP0HGTKAG","3P888QFVX40Z2B7BK75OWKP045JQOK","3JRJSWSMQJRO63MEIKVX3KX09NT3EB","model","mismatch","uniform","","","","","","","1307","441397","442704","[""stimuli/AF09_DO.jpg"",""stimuli/WF11_CC.jpg"",""stimuli/AF11_HO.jpg"",""stimuli/AF10_FO.jpg""]","stimuli/AF09_DO.jpg","stimuli/WF11_CC.jpg","stimuli/AF11_HO.jpg","stimuli/AF10_FO.jpg","pos2","stimuli/WF11_CC.jpg","CC","WF11","1","3.5","7","8","stimuli/stars_7.png","337.5","[""DO"",""CC"",""HO"",""FO""]","[""AF09"",""WF11"",""AF11"",""AF10""]","[2,7,4,6]","[4,8,2,6]","","",""
"show-reward","190","443630","0.0-190.0","p342266","A2583YP0HGTKAG","3P888QFVX40Z2B7BK75OWKP045JQOK","3JRJSWSMQJRO63MEIKVX3KX09NT3EB","model","mismatch","uniform","","","","","","","","443215","445228","","","","","","","","","","","","7","","stimuli/stars_7.png","337.5","","","","","stimuli/WF11_CC.jpg","",""
"explore-choice","191","446615","0.0-191.0","p342266","A2583YP0HGTKAG","3P888QFVX40Z2B7BK75OWKP045JQOK","3JRJSWSMQJRO63MEIKVX3KX09NT3EB","model","mismatch","uniform","","","","","","","2484","445228","447712","[""stimuli/AF09_CC.jpg"",""stimuli/AF10_HO.jpg"",""stimuli/AF11_DO.jpg"",""stimuli/WF11_FO.jpg""]","stimuli/AF09_CC.jpg","stimuli/AF10_HO.jpg","stimuli/AF11_DO.jpg","stimuli/WF11_FO.jpg","pos1","stimuli/AF09_CC.jpg","CC","AF09","0","4","8","8","stimuli/stars_8.png","341.5","[""CC"",""HO"",""DO"",""FO""]","[""AF09"",""AF10"",""AF11"",""WF11""]","[8,0,2,4]","[8,2,4,6]","","",""
"show-reward","192","448617","0.0-192.0","p342266","A2583YP0HGTKAG","3P888QFVX40Z2B7BK75OWKP045JQOK","3JRJSWSMQJRO63MEIKVX3KX09NT3EB","model","mismatch","uniform","","","","","","","","448212","450214","","","","","","","","","","","","8","","stimuli/stars_8.png","341.5","","","","","stimuli/AF09_CC.jpg","",""
"explore-choice","193","450428","0.0-193.0","p342266","A2583YP0HGTKAG","3P888QFVX40Z2B7BK75OWKP045JQOK","3JRJSWSMQJRO63MEIKVX3KX09NT3EB","model","mismatch","uniform","","","","","","","1303","450215","451518","[""stimuli/WF11_HO.jpg"",""stimuli/AF10_FO.jpg"",""stimuli/AF11_CC.jpg"",""stimuli/AF09_DO.jpg""]","stimuli/WF11_HO.jpg","stimuli/AF10_FO.jpg","stimuli/AF11_CC.jpg","stimuli/AF09_DO.jpg","pos3","stimuli/AF11_CC.jpg","CC","AF11","2","5","10","8","stimuli/stars_10.png","346.5","[""HO"",""FO"",""CC"",""DO""]","[""WF11"",""AF10"",""AF11"",""AF09""]","[3,4,10,3]","[2,6,8,4]","","",""
"show-reward","194","452436","0.0-194.0","p342266","A2583YP0HGTKAG","3P888QFVX40Z2B7BK75OWKP045JQOK","3JRJSWSMQJRO63MEIKVX3KX09NT3EB","model","mismatch","uniform","","","","","","","","452025","454033","","","","","","","","","","","","10","","stimuli/stars_10.png","346.5","","","","","stimuli/AF11_CC.jpg","",""
"explore-choice","195","454538","0.0-195.0","p342266","A2583YP0HGTKAG","3P888QFVX40Z2B7BK75OWKP045JQOK","3JRJSWSMQJRO63MEIKVX3KX09NT3EB","model","mismatch","uniform","","","","","","","1593","454033","455626","[""stimuli/AF11_FO.jpg"",""stimuli/WF11_CC.jpg"",""stimuli/AF09_DO.jpg"",""stimuli/AF10_HO.jpg""]","stimuli/AF11_FO.jpg","stimuli/WF11_CC.jpg","stimuli/AF09_DO.jpg","stimuli/AF10_HO.jpg","pos2","stimuli/WF11_CC.jpg","CC","WF11","1","4","8","8","stimuli/stars_8.png","350.5","[""FO"",""CC"",""DO"",""HO""]","[""AF11"",""WF11"",""AF09"",""AF10""]","[6,8,6,1]","[6,8,4,2]","","",""
"show-reward","196","456552","0.0-196.0","p342266","A2583YP0HGTKAG","3P888QFVX40Z2B7BK75OWKP045JQOK","3JRJSWSMQJRO63MEIKVX3KX09NT3EB","model","mismatch","uniform","","","","","","","","456136","458149","","","","","","","","","","","","8","","stimuli/stars_8.png","350.5","","","","","stimuli/WF11_CC.jpg","",""
"explore-choice","197","458010","0.0-197.0","p342266","A2583YP0HGTKAG","3P888QFVX40Z2B7BK75OWKP045JQOK","3JRJSWSMQJRO63MEIKVX3KX09NT3EB","model","mismatch","uniform","","","","","","","948","458149","459097","[""stimuli/AF09_DO.jpg"",""stimuli/WF11_FO.jpg"",""stimuli/AF11_CC.jpg"",""stimuli/AF10_HO.jpg""]","stimuli/AF09_DO.jpg","stimuli/WF11_FO.jpg","stimuli/AF11_CC.jpg","stimuli/AF10_HO.jpg","pos3","stimuli/AF11_CC.jpg","CC","AF11","2","3.5","7","8","stimuli/stars_7.png","354","[""DO"",""FO"",""CC"",""HO""]","[""AF09"",""WF11"",""AF11"",""AF10""]","[4,6,7,2]","[4,6,8,2]","","",""
"show-reward","198","460013","0.0-198.0","p342266","A2583YP0HGTKAG","3P888QFVX40Z2B7BK75OWKP045JQOK","3JRJSWSMQJRO63MEIKVX3KX09NT3EB","model","mismatch","uniform","","","","","","","","459607","461610","","","","","","","","","","","","7","","stimuli/stars_7.png","354","","","","","stimuli/AF11_CC.jpg","",""
"instructions","199","462734","0.0-199.0","p342266","A2583YP0HGTKAG","3P888QFVX40Z2B7BK75OWKP045JQOK","3JRJSWSMQJRO63MEIKVX3KX09NT3EB","model","mismatch","uniform","","","","","","[{""page_index"":0,""viewing_time"":2721}]","2721","","","","","","","","","","","","","","","","","","","","","","","",""
"survey-text","200","465836","0.0-200.0-0.0","p342266","A2583YP0HGTKAG","3P888QFVX40Z2B7BK75OWKP045JQOK","3JRJSWSMQJRO63MEIKVX3KX09NT3EB","model","mismatch","uniform","","","","","","","3099","","","","","","","","","","","","","","","","","","","","","","","{""age"":""41""}",""
"survey-text","201","470277","0.0-200.0-1.0","p342266","A2583YP0HGTKAG","3P888QFVX40Z2B7BK75OWKP045JQOK","3JRJSWSMQJRO63MEIKVX3KX09NT3EB","model","mismatch","uniform","","","","","","","4439","","","","","","","","","","","","","","","","","","","","","","","{""gender"":""male""}",""
"survey-text","202","475371","0.0-200.0-2.0","p342266","A2583YP0HGTKAG","3P888QFVX40Z2B7BK75OWKP045JQOK","3JRJSWSMQJRO63MEIKVX3KX09NT3EB","model","mismatch","uniform","","","","","","","5093","","","","","","","","","","","","","","","","","","","","","","","{""country"":""United States""}",""
"survey-text","203","486953","0.0-200.0-3.0","p342266","A2583YP0HGTKAG","3P888QFVX40Z2B7BK75OWKP045JQOK","3JRJSWSMQJRO63MEIKVX3KX09NT3EB","model","mismatch","uniform","","","","","","","11581","","","","","","","","","","","","","","","","","","","","","","","{""language"":""English"",""other_languages"":""Spanish""}",""
"survey-multi-select","204","490153","0.0-201.0","p342266","A2583YP0HGTKAG","3P888QFVX40Z2B7BK75OWKP045JQOK","3JRJSWSMQJRO63MEIKVX3KX09NT3EB","model","mismatch","uniform","","","","","","","3199","","","","","","","","","","","","","","","","","","","","","","","{""race"":[""White"",""Hispanic or Latino""]}","[0]"
"survey-multi-choice","205","492967","0.0-202.0","p342266","A2583YP0HGTKAG","3P888QFVX40Z2B7BK75OWKP045JQOK","3JRJSWSMQJRO63MEIKVX3KX09NT3EB","model","mismatch","uniform","","","","","","","2813","","","","","","","","","","","","","","","","","","","","","","","{""education"":""Master's degree""}","[0]"
"survey-text","206","567997","0.0-203.0","p342266","A2583YP0HGTKAG","3P888QFVX40Z2B7BK75OWKP045JQOK","3JRJSWSMQJRO63MEIKVX3KX09NT3EB","model","mismatch","uniform","","","","","","","75028","","","","","","","","","","","","","","","","","","","","","","","{""patterns"":""at first, the white male seemed to have the most points. After that, the neutral expression on the women's faces"",""strategy"":""What i wrote above, after trial and error, the white man and then the neutral face on the women seemed to return the most stars."",""comments"":""""}",""
