"trial_type","trial_index","time_elapsed","internal_node_id","subject","workerId","hitId","assignmentId","structure_condition","match_condition","noise_type","success","timeout","failed_images","failed_audio","failed_video","view_history","rt","start_time","end_time","stimuli","image1","image2","image3","image4","choiceLocation","choiceImage","choiceEmotion","choiceModel","choice_index","reward_score","reward","reward_score_unadjusted","reward_image","score_after_trial","emotions","models","rewards","rewards_unadjusted","stimulus","response","question_order"
"pavlovia","0","15","0.0-0.0","p918927","A10DTLF1LXFY0V","3087LXLJ6NMH85PJ46SJUKP4Z1V0FD","3N8OEVH1FTWZ4JSPVWILWZPP8GYOOY","model","mismatch","uniform","","","","","","","","","","","","","","","","","","","","","","","","","","","","","","",""
"preload","1","45246","0.0-1.0","p918927","A10DTLF1LXFY0V","3087LXLJ6NMH85PJ46SJUKP4Z1V0FD","3N8OEVH1FTWZ4JSPVWILWZPP8GYOOY","model","mismatch","uniform","true","false","[]","[]","[]","","","","","","","","","","","","","","","","","","","","","","","","","",""
"fullscreen","2","51054","0.0-2.0","p918927","A10DTLF1LXFY0V","3087LXLJ6NMH85PJ46SJUKP4Z1V0FD","3N8OEVH1FTWZ4JSPVWILWZPP8GYOOY","model","mismatch","uniform","true","","","","","","","","","","","","","","","","","","","","","","","","","","","","","",""
"instructions","3","60216","0.0-3.0","p918927","A10DTLF1LXFY0V","3087LXLJ6NMH85PJ46SJUKP4Z1V0FD","3N8OEVH1FTWZ4JSPVWILWZPP8GYOOY","model","mismatch","uniform","","","","","","[{""page_index"":0,""viewing_time"":9158.60000038147}]","9160.10000038147","","","","","","","","","","","","","","","","","","","","","","","",""
"explore-choice","4","62905","0.0-4.0","p918927","A10DTLF1LXFY0V","3087LXLJ6NMH85PJ46SJUKP4Z1V0FD","3N8OEVH1FTWZ4JSPVWILWZPP8GYOOY","model","mismatch","uniform","","","","","","","2186","62689.800000190735","64875.800000190735","[""stimuli/sheep.jpg"",""stimuli/hammer.jpg"",""stimuli/basketball.jpg"",""stimuli/horse.jpg""]","stimuli/sheep.jpg","stimuli/hammer.jpg","stimuli/basketball.jpg","stimuli/horse.jpg","pos4","stimuli/horse.jpg","","","3","64","64","64","stimuli/stars_8.png","65","","","","","","",""
"explore-choice","5","64587","0.0-5.0","p918927","A10DTLF1LXFY0V","3087LXLJ6NMH85PJ46SJUKP4Z1V0FD","3N8OEVH1FTWZ4JSPVWILWZPP8GYOOY","model","mismatch","uniform","","","","","","","1180.0999999046326","65378.300000190735","66558.40000009537","[""stimuli/hammer.jpg"",""stimuli/basketball.jpg"",""stimuli/horse.jpg"",""stimuli/sheep.jpg""]","stimuli/hammer.jpg","stimuli/basketball.jpg","stimuli/horse.jpg","stimuli/sheep.jpg","pos1","stimuli/hammer.jpg","","","0","8","8","8","stimuli/stars_2.png","9","","","","","","",""
"instructions","6","91331","0.0-6.0","p918927","A10DTLF1LXFY0V","3087LXLJ6NMH85PJ46SJUKP4Z1V0FD","3N8OEVH1FTWZ4JSPVWILWZPP8GYOOY","model","mismatch","uniform","","","","","","[{""page_index"":0,""viewing_time"":26743}]","26743.5","","","","","","","","","","","","","","","","","","","","","","","",""
"explore-choice","7","96632","0.0-7.0","p918927","A10DTLF1LXFY0V","3087LXLJ6NMH85PJ46SJUKP4Z1V0FD","3N8OEVH1FTWZ4JSPVWILWZPP8GYOOY","model","mismatch","uniform","","","","","","","4784.300000190735","93808","98592.30000019073","[""stimuli/AM09_AO.jpg"",""stimuli/WM07_HE.jpg"",""stimuli/HF09_CC.jpg"",""stimuli/AM06_DO.jpg""]","stimuli/AM09_AO.jpg","stimuli/WM07_HE.jpg","stimuli/HF09_CC.jpg","stimuli/AM06_DO.jpg","pos2","stimuli/WM07_HE.jpg","HE","WM07","1","4.5","9","8","stimuli/stars_9.png","5.5","[""AO"",""HE"",""CC"",""DO""]","[""AM09"",""WM07"",""HF09"",""AM06""]","[2,9,2,6]","[4,8,2,6]","","",""
"show-reward","8","98644","0.0-8.0","p918927","A10DTLF1LXFY0V","3087LXLJ6NMH85PJ46SJUKP4Z1V0FD","3N8OEVH1FTWZ4JSPVWILWZPP8GYOOY","model","mismatch","uniform","","","","","","","","99108.5","101115.09999990463","","","","","","","","","","","","9","","stimuli/stars_9.png","5.5","","","","","stimuli/WM07_HE.jpg","",""
"explore-choice","9","103091","0.0-9.0","p918927","A10DTLF1LXFY0V","3087LXLJ6NMH85PJ46SJUKP4Z1V0FD","3N8OEVH1FTWZ4JSPVWILWZPP8GYOOY","model","mismatch","uniform","","","","","","","3930.2000002861023","101117.59999990463","105047.80000019073","[""stimuli/AM09_AO.jpg"",""stimuli/WM07_HE.jpg"",""stimuli/AM06_CC.jpg"",""stimuli/HF09_DO.jpg""]","stimuli/AM09_AO.jpg","stimuli/WM07_HE.jpg","stimuli/AM06_CC.jpg","stimuli/HF09_DO.jpg","pos2","stimuli/WM07_HE.jpg","HE","WM07","1","3.5","7","8","stimuli/stars_7.png","9","[""AO"",""HE"",""CC"",""DO""]","[""AM09"",""WM07"",""AM06"",""HF09""]","[5,7,7,4]","[4,8,6,2]","","",""
"show-reward","10","105103","0.0-10.0","p918927","A10DTLF1LXFY0V","3087LXLJ6NMH85PJ46SJUKP4Z1V0FD","3N8OEVH1FTWZ4JSPVWILWZPP8GYOOY","model","mismatch","uniform","","","","","","","","105565.09999990463","107575.30000019073","","","","","","","","","","","","7","","stimuli/stars_7.png","9","","","","","stimuli/WM07_HE.jpg","",""
"explore-choice","11","109939","0.0-11.0","p918927","A10DTLF1LXFY0V","3087LXLJ6NMH85PJ46SJUKP4Z1V0FD","3N8OEVH1FTWZ4JSPVWILWZPP8GYOOY","model","mismatch","uniform","","","","","","","4317.5","107576.90000009537","111894.40000009537","[""stimuli/HF09_HE.jpg"",""stimuli/AM06_DO.jpg"",""stimuli/WM07_CC.jpg"",""stimuli/AM09_AO.jpg""]","stimuli/HF09_HE.jpg","stimuli/AM06_DO.jpg","stimuli/WM07_CC.jpg","stimuli/AM09_AO.jpg","pos4","stimuli/AM09_AO.jpg","AO","AM09","3","2.5","5","4","stimuli/stars_5.png","11.5","[""HE"",""DO"",""CC"",""AO""]","[""HF09"",""AM06"",""WM07"",""AM09""]","[2,8,9,5]","[2,6,8,4]","","",""
"show-reward","12","111948","0.0-12.0","p918927","A10DTLF1LXFY0V","3087LXLJ6NMH85PJ46SJUKP4Z1V0FD","3N8OEVH1FTWZ4JSPVWILWZPP8GYOOY","model","mismatch","uniform","","","","","","","","112402.5","114409.5","","","","","","","","","","","","5","","stimuli/stars_5.png","11.5","","","","","stimuli/AM09_AO.jpg","",""
"explore-choice","13","117626","0.0-13.0","p918927","A10DTLF1LXFY0V","3087LXLJ6NMH85PJ46SJUKP4Z1V0FD","3N8OEVH1FTWZ4JSPVWILWZPP8GYOOY","model","mismatch","uniform","","","","","","","5173.5","114411.7000002861","119585.2000002861","[""stimuli/AM09_HE.jpg"",""stimuli/WM07_AO.jpg"",""stimuli/AM06_DO.jpg"",""stimuli/HF09_CC.jpg""]","stimuli/AM09_HE.jpg","stimuli/WM07_AO.jpg","stimuli/AM06_DO.jpg","stimuli/HF09_CC.jpg","pos4","stimuli/HF09_CC.jpg","CC","HF09","3","2","4","2","stimuli/stars_4.png","13.5","[""HE"",""AO"",""DO"",""CC""]","[""AM09"",""WM07"",""AM06"",""HF09""]","[2,7,7,4]","[4,8,6,2]","","",""
"show-reward","14","119633","0.0-14.0","p918927","A10DTLF1LXFY0V","3087LXLJ6NMH85PJ46SJUKP4Z1V0FD","3N8OEVH1FTWZ4JSPVWILWZPP8GYOOY","model","mismatch","uniform","","","","","","","","120089.7000002861","122094.5","","","","","","","","","","","","4","","stimuli/stars_4.png","13.5","","","","","stimuli/HF09_CC.jpg","",""
"explore-choice","15","124350","0.0-15.0","p918927","A10DTLF1LXFY0V","3087LXLJ6NMH85PJ46SJUKP4Z1V0FD","3N8OEVH1FTWZ4JSPVWILWZPP8GYOOY","model","mismatch","uniform","","","","","","","4200.89999961853","122096.2000002861","126297.09999990463","[""stimuli/WM07_HE.jpg"",""stimuli/HF09_AO.jpg"",""stimuli/AM06_CC.jpg"",""stimuli/AM09_DO.jpg""]","stimuli/WM07_HE.jpg","stimuli/HF09_AO.jpg","stimuli/AM06_CC.jpg","stimuli/AM09_DO.jpg","pos1","stimuli/WM07_HE.jpg","HE","WM07","0","4","8","8","stimuli/stars_8.png","17.5","[""HE"",""AO"",""CC"",""DO""]","[""WM07"",""HF09"",""AM06"",""AM09""]","[8,3,7,5]","[8,2,6,4]","","",""
"show-reward","16","126358","0.0-16.0","p918927","A10DTLF1LXFY0V","3087LXLJ6NMH85PJ46SJUKP4Z1V0FD","3N8OEVH1FTWZ4JSPVWILWZPP8GYOOY","model","mismatch","uniform","","","","","","","","126813.59999990463","128819.5","","","","","","","","","","","","8","","stimuli/stars_8.png","17.5","","","","","stimuli/WM07_HE.jpg","",""
"explore-choice","17","131591","0.0-17.0","p918927","A10DTLF1LXFY0V","3087LXLJ6NMH85PJ46SJUKP4Z1V0FD","3N8OEVH1FTWZ4JSPVWILWZPP8GYOOY","model","mismatch","uniform","","","","","","","4725.099999904633","128821.5","133546.59999990463","[""stimuli/AM09_CC.jpg"",""stimuli/HF09_HE.jpg"",""stimuli/WM07_DO.jpg"",""stimuli/AM06_AO.jpg""]","stimuli/AM09_CC.jpg","stimuli/HF09_HE.jpg","stimuli/WM07_DO.jpg","stimuli/AM06_AO.jpg","pos2","stimuli/HF09_HE.jpg","HE","HF09","1","0.5","1","2","stimuli/stars_1.png","18","[""CC"",""HE"",""DO"",""AO""]","[""AM09"",""HF09"",""WM07"",""AM06""]","[4,1,8,7]","[4,2,8,6]","","",""
"show-reward","18","133598","0.0-18.0","p918927","A10DTLF1LXFY0V","3087LXLJ6NMH85PJ46SJUKP4Z1V0FD","3N8OEVH1FTWZ4JSPVWILWZPP8GYOOY","model","mismatch","uniform","","","","","","","","134054.5","136059","","","","","","","","","","","","1","","stimuli/stars_1.png","18","","","","","stimuli/HF09_HE.jpg","",""
"explore-choice","19","137216","0.0-19.0","p918927","A10DTLF1LXFY0V","3087LXLJ6NMH85PJ46SJUKP4Z1V0FD","3N8OEVH1FTWZ4JSPVWILWZPP8GYOOY","model","mismatch","uniform","","","","","","","3104.1000003814697","136060.59999990463","139164.7000002861","[""stimuli/HF09_AO.jpg"",""stimuli/WM07_HE.jpg"",""stimuli/AM09_CC.jpg"",""stimuli/AM06_DO.jpg""]","stimuli/HF09_AO.jpg","stimuli/WM07_HE.jpg","stimuli/AM09_CC.jpg","stimuli/AM06_DO.jpg","pos2","stimuli/WM07_HE.jpg","HE","WM07","1","3","6","8","stimuli/stars_6.png","21","[""AO"",""HE"",""CC"",""DO""]","[""HF09"",""WM07"",""AM09"",""AM06""]","[0,6,6,7]","[2,8,4,6]","","",""
"show-reward","20","139235","0.0-20.0","p918927","A10DTLF1LXFY0V","3087LXLJ6NMH85PJ46SJUKP4Z1V0FD","3N8OEVH1FTWZ4JSPVWILWZPP8GYOOY","model","mismatch","uniform","","","","","","","","139679.7000002861","141696.59999990463","","","","","","","","","","","","6","","stimuli/stars_6.png","21","","","","","stimuli/WM07_HE.jpg","",""
"explore-choice","21","143433","0.0-21.0","p918927","A10DTLF1LXFY0V","3087LXLJ6NMH85PJ46SJUKP4Z1V0FD","3N8OEVH1FTWZ4JSPVWILWZPP8GYOOY","model","mismatch","uniform","","","","","","","3686.4000000953674","141698.30000019073","145384.7000002861","[""stimuli/AM09_HE.jpg"",""stimuli/WM07_AO.jpg"",""stimuli/AM06_CC.jpg"",""stimuli/HF09_DO.jpg""]","stimuli/AM09_HE.jpg","stimuli/WM07_AO.jpg","stimuli/AM06_CC.jpg","stimuli/HF09_DO.jpg","pos3","stimuli/AM06_CC.jpg","CC","AM06","2","3","6","6","stimuli/stars_6.png","24","[""HE"",""AO"",""CC"",""DO""]","[""AM09"",""WM07"",""AM06"",""HF09""]","[3,8,6,4]","[4,8,6,2]","","",""
"show-reward","22","145453","0.0-22.0","p918927","A10DTLF1LXFY0V","3087LXLJ6NMH85PJ46SJUKP4Z1V0FD","3N8OEVH1FTWZ4JSPVWILWZPP8GYOOY","model","mismatch","uniform","","","","","","","","145896.59999990463","147914.30000019073","","","","","","","","","","","","6","","stimuli/stars_6.png","24","","","","","stimuli/AM06_CC.jpg","",""
"explore-choice","23","148609","0.0-23.0","p918927","A10DTLF1LXFY0V","3087LXLJ6NMH85PJ46SJUKP4Z1V0FD","3N8OEVH1FTWZ4JSPVWILWZPP8GYOOY","model","mismatch","uniform","","","","","","","2641.9000000953674","147916.5","150558.40000009537","[""stimuli/AM06_AO.jpg"",""stimuli/WM07_CC.jpg"",""stimuli/HF09_DO.jpg"",""stimuli/AM09_HE.jpg""]","stimuli/AM06_AO.jpg","stimuli/WM07_CC.jpg","stimuli/HF09_DO.jpg","stimuli/AM09_HE.jpg","pos1","stimuli/AM06_AO.jpg","AO","AM06","0","3.5","7","6","stimuli/stars_7.png","27.5","[""AO"",""CC"",""DO"",""HE""]","[""AM06"",""WM07"",""HF09"",""AM09""]","[7,8,1,4]","[6,8,2,4]","","",""
"show-reward","24","150626","0.0-24.0","p918927","A10DTLF1LXFY0V","3087LXLJ6NMH85PJ46SJUKP4Z1V0FD","3N8OEVH1FTWZ4JSPVWILWZPP8GYOOY","model","mismatch","uniform","","","","","","","","151072.80000019073","153087.7000002861","","","","","","","","","","","","7","","stimuli/stars_7.png","27.5","","","","","stimuli/AM06_AO.jpg","",""
"explore-choice","25","154100","0.0-25.0","p918927","A10DTLF1LXFY0V","3087LXLJ6NMH85PJ46SJUKP4Z1V0FD","3N8OEVH1FTWZ4JSPVWILWZPP8GYOOY","model","mismatch","uniform","","","","","","","2962.8999996185303","153089.2000002861","156052.09999990463","[""stimuli/AM06_HE.jpg"",""stimuli/HF09_CC.jpg"",""stimuli/WM07_DO.jpg"",""stimuli/AM09_AO.jpg""]","stimuli/AM06_HE.jpg","stimuli/HF09_CC.jpg","stimuli/WM07_DO.jpg","stimuli/AM09_AO.jpg","pos1","stimuli/AM06_HE.jpg","HE","AM06","0","3","6","6","stimuli/stars_6.png","30.5","[""HE"",""CC"",""DO"",""AO""]","[""AM06"",""HF09"",""WM07"",""AM09""]","[6,2,6,6]","[6,2,8,4]","","",""
"show-reward","26","156121","0.0-26.0","p918927","A10DTLF1LXFY0V","3087LXLJ6NMH85PJ46SJUKP4Z1V0FD","3N8OEVH1FTWZ4JSPVWILWZPP8GYOOY","model","mismatch","uniform","","","","","","","","156563.5","158582.40000009537","","","","","","","","","","","","6","","stimuli/stars_6.png","30.5","","","","","stimuli/AM06_HE.jpg","",""
"explore-choice","27","159386","0.0-27.0","p918927","A10DTLF1LXFY0V","3087LXLJ6NMH85PJ46SJUKP4Z1V0FD","3N8OEVH1FTWZ4JSPVWILWZPP8GYOOY","model","mismatch","uniform","","","","","","","2756.0999999046326","158583.80000019073","161339.90000009537","[""stimuli/AM06_HE.jpg"",""stimuli/WM07_CC.jpg"",""stimuli/AM09_AO.jpg"",""stimuli/HF09_DO.jpg""]","stimuli/AM06_HE.jpg","stimuli/WM07_CC.jpg","stimuli/AM09_AO.jpg","stimuli/HF09_DO.jpg","pos2","stimuli/WM07_CC.jpg","CC","WM07","1","4","8","8","stimuli/stars_8.png","34.5","[""HE"",""CC"",""AO"",""DO""]","[""AM06"",""WM07"",""AM09"",""HF09""]","[4,8,3,2]","[6,8,4,2]","","",""
"show-reward","28","161405","0.0-28.0","p918927","A10DTLF1LXFY0V","3087LXLJ6NMH85PJ46SJUKP4Z1V0FD","3N8OEVH1FTWZ4JSPVWILWZPP8GYOOY","model","mismatch","uniform","","","","","","","","161848.5","163866.7000002861","","","","","","","","","","","","8","","stimuli/stars_8.png","34.5","","","","","stimuli/WM07_CC.jpg","",""
"explore-choice","29","168042","0.0-29.0","p918927","A10DTLF1LXFY0V","3087LXLJ6NMH85PJ46SJUKP4Z1V0FD","3N8OEVH1FTWZ4JSPVWILWZPP8GYOOY","model","mismatch","uniform","","","","","","","6123.800000190735","163868.09999990463","169991.90000009537","[""stimuli/HF09_CC.jpg"",""stimuli/AM06_AO.jpg"",""stimuli/AM09_DO.jpg"",""stimuli/WM07_HE.jpg""]","stimuli/HF09_CC.jpg","stimuli/AM06_AO.jpg","stimuli/AM09_DO.jpg","stimuli/WM07_HE.jpg","pos3","stimuli/AM09_DO.jpg","DO","AM09","2","2.5","5","4","stimuli/stars_5.png","37","[""CC"",""AO"",""DO"",""HE""]","[""HF09"",""AM06"",""AM09"",""WM07""]","[2,6,5,6]","[2,6,4,8]","","",""
"show-reward","30","170060","0.0-30.0","p918927","A10DTLF1LXFY0V","3087LXLJ6NMH85PJ46SJUKP4Z1V0FD","3N8OEVH1FTWZ4JSPVWILWZPP8GYOOY","model","mismatch","uniform","","","","","","","","170503.30000019073","172519.90000009537","","","","","","","","","","","","5","","stimuli/stars_5.png","37","","","","","stimuli/AM09_DO.jpg","",""
"explore-choice","31","173228","0.0-31.0","p918927","A10DTLF1LXFY0V","3087LXLJ6NMH85PJ46SJUKP4Z1V0FD","3N8OEVH1FTWZ4JSPVWILWZPP8GYOOY","model","mismatch","uniform","","","","","","","2666","172521.5","175187.5","[""stimuli/AM09_DO.jpg"",""stimuli/AM06_CC.jpg"",""stimuli/HF09_HE.jpg"",""stimuli/WM07_AO.jpg""]","stimuli/AM09_DO.jpg","stimuli/AM06_CC.jpg","stimuli/HF09_HE.jpg","stimuli/WM07_AO.jpg","pos4","stimuli/WM07_AO.jpg","AO","WM07","3","3","6","8","stimuli/stars_6.png","40","[""DO"",""CC"",""HE"",""AO""]","[""AM09"",""AM06"",""HF09"",""WM07""]","[3,6,0,6]","[4,6,2,8]","","",""
"show-reward","32","175248","0.0-32.0","p918927","A10DTLF1LXFY0V","3087LXLJ6NMH85PJ46SJUKP4Z1V0FD","3N8OEVH1FTWZ4JSPVWILWZPP8GYOOY","model","mismatch","uniform","","","","","","","","175689.30000019073","177708","","","","","","","","","","","","6","","stimuli/stars_6.png","40","","","","","stimuli/WM07_AO.jpg","",""
"explore-choice","33","180952","0.0-33.0","p918927","A10DTLF1LXFY0V","3087LXLJ6NMH85PJ46SJUKP4Z1V0FD","3N8OEVH1FTWZ4JSPVWILWZPP8GYOOY","model","mismatch","uniform","","","","","","","5189.800000190735","177709.40000009537","182899.2000002861","[""stimuli/AM06_HE.jpg"",""stimuli/WM07_AO.jpg"",""stimuli/AM09_DO.jpg"",""stimuli/HF09_CC.jpg""]","stimuli/AM06_HE.jpg","stimuli/WM07_AO.jpg","stimuli/AM09_DO.jpg","stimuli/HF09_CC.jpg","pos1","stimuli/AM06_HE.jpg","HE","AM06","0","3","6","6","stimuli/stars_6.png","43","[""HE"",""AO"",""DO"",""CC""]","[""AM06"",""WM07"",""AM09"",""HF09""]","[6,7,5,4]","[6,8,4,2]","","",""
"show-reward","34","182972","0.0-34.0","p918927","A10DTLF1LXFY0V","3087LXLJ6NMH85PJ46SJUKP4Z1V0FD","3N8OEVH1FTWZ4JSPVWILWZPP8GYOOY","model","mismatch","uniform","","","","","","","","183413.09999990463","185431.30000019073","","","","","","","","","","","","6","","stimuli/stars_6.png","43","","","","","stimuli/AM06_HE.jpg","",""
"explore-choice","35","185651","0.0-35.0","p918927","A10DTLF1LXFY0V","3087LXLJ6NMH85PJ46SJUKP4Z1V0FD","3N8OEVH1FTWZ4JSPVWILWZPP8GYOOY","model","mismatch","uniform","","","","","","","2161.8999996185303","185433.2000002861","187595.09999990463","[""stimuli/AM06_HE.jpg"",""stimuli/WM07_AO.jpg"",""stimuli/AM09_CC.jpg"",""stimuli/HF09_DO.jpg""]","stimuli/AM06_HE.jpg","stimuli/WM07_AO.jpg","stimuli/AM09_CC.jpg","stimuli/HF09_DO.jpg","pos2","stimuli/WM07_AO.jpg","AO","WM07","1","3.5","7","8","stimuli/stars_7.png","46.5","[""HE"",""AO"",""CC"",""DO""]","[""AM06"",""WM07"",""AM09"",""HF09""]","[7,7,5,1]","[6,8,4,2]","","",""
"show-reward","36","187669","0.0-36.0","p918927","A10DTLF1LXFY0V","3087LXLJ6NMH85PJ46SJUKP4Z1V0FD","3N8OEVH1FTWZ4JSPVWILWZPP8GYOOY","model","mismatch","uniform","","","","","","","","188111.90000009537","190128.59999990463","","","","","","","","","","","","7","","stimuli/stars_7.png","46.5","","","","","stimuli/WM07_AO.jpg","",""
"explore-choice","37","192532","0.0-37.0","p918927","A10DTLF1LXFY0V","3087LXLJ6NMH85PJ46SJUKP4Z1V0FD","3N8OEVH1FTWZ4JSPVWILWZPP8GYOOY","model","mismatch","uniform","","","","","","","4361","190130","194491","[""stimuli/WM07_HE.jpg"",""stimuli/HF09_DO.jpg"",""stimuli/AM06_AO.jpg"",""stimuli/AM09_CC.jpg""]","stimuli/WM07_HE.jpg","stimuli/HF09_DO.jpg","stimuli/AM06_AO.jpg","stimuli/AM09_CC.jpg","pos3","stimuli/AM06_AO.jpg","AO","AM06","2","3.5","7","6","stimuli/stars_7.png","50","[""HE"",""DO"",""AO"",""CC""]","[""WM07"",""HF09"",""AM06"",""AM09""]","[8,2,7,4]","[8,2,6,4]","","",""
"show-reward","38","194574","0.0-38.0","p918927","A10DTLF1LXFY0V","3087LXLJ6NMH85PJ46SJUKP4Z1V0FD","3N8OEVH1FTWZ4JSPVWILWZPP8GYOOY","model","mismatch","uniform","","","","","","","","194993.80000019073","197033.30000019073","","","","","","","","","","","","7","","stimuli/stars_7.png","50","","","","","stimuli/AM06_AO.jpg","",""
"explore-choice","39","198115","0.0-39.0","p918927","A10DTLF1LXFY0V","3087LXLJ6NMH85PJ46SJUKP4Z1V0FD","3N8OEVH1FTWZ4JSPVWILWZPP8GYOOY","model","mismatch","uniform","","","","","","","3037.7000002861023","197035","200072.7000002861","[""stimuli/AM06_AO.jpg"",""stimuli/AM09_HE.jpg"",""stimuli/WM07_DO.jpg"",""stimuli/HF09_CC.jpg""]","stimuli/AM06_AO.jpg","stimuli/AM09_HE.jpg","stimuli/WM07_DO.jpg","stimuli/HF09_CC.jpg","pos3","stimuli/WM07_DO.jpg","DO","WM07","2","4.5","9","8","stimuli/stars_9.png","54.5","[""AO"",""HE"",""DO"",""CC""]","[""AM06"",""AM09"",""WM07"",""HF09""]","[4,3,9,1]","[6,4,8,2]","","",""
"show-reward","40","200131","0.0-40.0","p918927","A10DTLF1LXFY0V","3087LXLJ6NMH85PJ46SJUKP4Z1V0FD","3N8OEVH1FTWZ4JSPVWILWZPP8GYOOY","model","mismatch","uniform","","","","","","","","200576.7000002861","202590.59999990463","","","","","","","","","","","","9","","stimuli/stars_9.png","54.5","","","","","stimuli/WM07_DO.jpg","",""
"explore-choice","41","205185","0.0-41.0","p918927","A10DTLF1LXFY0V","3087LXLJ6NMH85PJ46SJUKP4Z1V0FD","3N8OEVH1FTWZ4JSPVWILWZPP8GYOOY","model","mismatch","uniform","","","","","","","4552.699999809265","202591.90000009537","207144.59999990463","[""stimuli/WM07_AO.jpg"",""stimuli/HF09_HE.jpg"",""stimuli/AM06_DO.jpg"",""stimuli/AM09_CC.jpg""]","stimuli/WM07_AO.jpg","stimuli/HF09_HE.jpg","stimuli/AM06_DO.jpg","stimuli/AM09_CC.jpg","pos1","stimuli/WM07_AO.jpg","AO","WM07","0","4.5","9","8","stimuli/stars_9.png","59","[""AO"",""HE"",""DO"",""CC""]","[""WM07"",""HF09"",""AM06"",""AM09""]","[9,4,7,4]","[8,2,6,4]","","",""
"show-reward","42","207191","0.0-42.0","p918927","A10DTLF1LXFY0V","3087LXLJ6NMH85PJ46SJUKP4Z1V0FD","3N8OEVH1FTWZ4JSPVWILWZPP8GYOOY","model","mismatch","uniform","","","","","","","","207646.80000019073","209650.90000009537","","","","","","","","","","","","9","","stimuli/stars_9.png","59","","","","","stimuli/WM07_AO.jpg","",""
"explore-choice","43","209537","0.0-43.0","p918927","A10DTLF1LXFY0V","3087LXLJ6NMH85PJ46SJUKP4Z1V0FD","3N8OEVH1FTWZ4JSPVWILWZPP8GYOOY","model","mismatch","uniform","","","","","","","1842.2999997138977","209652.2000002861","211494.5","[""stimuli/WM07_DO.jpg"",""stimuli/AM06_HE.jpg"",""stimuli/HF09_AO.jpg"",""stimuli/AM09_CC.jpg""]","stimuli/WM07_DO.jpg","stimuli/AM06_HE.jpg","stimuli/HF09_AO.jpg","stimuli/AM09_CC.jpg","pos1","stimuli/WM07_DO.jpg","DO","WM07","0","5","10","8","stimuli/stars_10.png","64","[""DO"",""HE"",""AO"",""CC""]","[""WM07"",""AM06"",""HF09"",""AM09""]","[10,6,2,3]","[8,6,2,4]","","",""
"show-reward","44","211543","0.0-44.0","p918927","A10DTLF1LXFY0V","3087LXLJ6NMH85PJ46SJUKP4Z1V0FD","3N8OEVH1FTWZ4JSPVWILWZPP8GYOOY","model","mismatch","uniform","","","","","","","","211998","214002.5","","","","","","","","","","","","10","","stimuli/stars_10.png","64","","","","","stimuli/WM07_DO.jpg","",""
"explore-choice","45","214296","0.0-45.0","p918927","A10DTLF1LXFY0V","3087LXLJ6NMH85PJ46SJUKP4Z1V0FD","3N8OEVH1FTWZ4JSPVWILWZPP8GYOOY","model","mismatch","uniform","","","","","","","2238.4000000953674","214003.90000009537","216242.30000019073","[""stimuli/AM09_HE.jpg"",""stimuli/WM07_DO.jpg"",""stimuli/AM06_CC.jpg"",""stimuli/HF09_AO.jpg""]","stimuli/AM09_HE.jpg","stimuli/WM07_DO.jpg","stimuli/AM06_CC.jpg","stimuli/HF09_AO.jpg","pos3","stimuli/AM06_CC.jpg","CC","AM06","2","2.5","5","6","stimuli/stars_5.png","66.5","[""HE"",""DO"",""CC"",""AO""]","[""AM09"",""WM07"",""AM06"",""HF09""]","[5,8,5,1]","[4,8,6,2]","","",""
"show-reward","46","216305","0.0-46.0","p918927","A10DTLF1LXFY0V","3087LXLJ6NMH85PJ46SJUKP4Z1V0FD","3N8OEVH1FTWZ4JSPVWILWZPP8GYOOY","model","mismatch","uniform","","","","","","","","216757.40000009537","218764.80000019073","","","","","","","","","","","","5","","stimuli/stars_5.png","66.5","","","","","stimuli/AM06_CC.jpg","",""
"explore-choice","47","218834","0.0-47.0","p918927","A10DTLF1LXFY0V","3087LXLJ6NMH85PJ46SJUKP4Z1V0FD","3N8OEVH1FTWZ4JSPVWILWZPP8GYOOY","model","mismatch","uniform","","","","","","","2018.0999999046326","218766.2000002861","220784.30000019073","[""stimuli/AM09_DO.jpg"",""stimuli/AM06_AO.jpg"",""stimuli/HF09_HE.jpg"",""stimuli/WM07_CC.jpg""]","stimuli/AM09_DO.jpg","stimuli/AM06_AO.jpg","stimuli/HF09_HE.jpg","stimuli/WM07_CC.jpg","pos4","stimuli/WM07_CC.jpg","CC","WM07","3","3.5","7","8","stimuli/stars_7.png","70","[""DO"",""AO"",""HE"",""CC""]","[""AM09"",""AM06"",""HF09"",""WM07""]","[5,7,3,7]","[4,6,2,8]","","",""
"show-reward","48","220842","0.0-48.0","p918927","A10DTLF1LXFY0V","3087LXLJ6NMH85PJ46SJUKP4Z1V0FD","3N8OEVH1FTWZ4JSPVWILWZPP8GYOOY","model","mismatch","uniform","","","","","","","","221295.2000002861","223301.30000019073","","","","","","","","","","","","7","","stimuli/stars_7.png","70","","","","","stimuli/WM07_CC.jpg","",""
"explore-choice","49","223251","0.0-49.0","p918927","A10DTLF1LXFY0V","3087LXLJ6NMH85PJ46SJUKP4Z1V0FD","3N8OEVH1FTWZ4JSPVWILWZPP8GYOOY","model","mismatch","uniform","","","","","","","1891.2000002861023","223303.09999990463","225194.30000019073","[""stimuli/AM09_HE.jpg"",""stimuli/HF09_AO.jpg"",""stimuli/AM06_DO.jpg"",""stimuli/WM07_CC.jpg""]","stimuli/AM09_HE.jpg","stimuli/HF09_AO.jpg","stimuli/AM06_DO.jpg","stimuli/WM07_CC.jpg","pos1","stimuli/AM09_HE.jpg","HE","AM09","0","2","4","4","stimuli/stars_4.png","72","[""HE"",""AO"",""DO"",""CC""]","[""AM09"",""HF09"",""AM06"",""WM07""]","[4,4,6,8]","[4,2,6,8]","","",""
"show-reward","50","225271","0.0-50.0","p918927","A10DTLF1LXFY0V","3087LXLJ6NMH85PJ46SJUKP4Z1V0FD","3N8OEVH1FTWZ4JSPVWILWZPP8GYOOY","model","mismatch","uniform","","","","","","","","225712.2000002861","227731","","","","","","","","","","","","4","","stimuli/stars_4.png","72","","","","","stimuli/AM09_HE.jpg","",""
"explore-choice","51","228371","0.0-51.0","p918927","A10DTLF1LXFY0V","3087LXLJ6NMH85PJ46SJUKP4Z1V0FD","3N8OEVH1FTWZ4JSPVWILWZPP8GYOOY","model","mismatch","uniform","","","","","","","2595.5","227733.09999990463","230328.59999990463","[""stimuli/WM07_CC.jpg"",""stimuli/AM06_HE.jpg"",""stimuli/AM09_DO.jpg"",""stimuli/HF09_AO.jpg""]","stimuli/WM07_CC.jpg","stimuli/AM06_HE.jpg","stimuli/AM09_DO.jpg","stimuli/HF09_AO.jpg","pos1","stimuli/WM07_CC.jpg","CC","WM07","0","4.5","9","8","stimuli/stars_9.png","76.5","[""CC"",""HE"",""DO"",""AO""]","[""WM07"",""AM06"",""AM09"",""HF09""]","[9,8,2,1]","[8,6,4,2]","","",""
"show-reward","52","230378","0.0-52.0","p918927","A10DTLF1LXFY0V","3087LXLJ6NMH85PJ46SJUKP4Z1V0FD","3N8OEVH1FTWZ4JSPVWILWZPP8GYOOY","model","mismatch","uniform","","","","","","","","230831.59999990463","232837.2000002861","","","","","","","","","","","","9","","stimuli/stars_9.png","76.5","","","","","stimuli/WM07_CC.jpg","",""
"explore-choice","53","232445","0.0-53.0","p918927","A10DTLF1LXFY0V","3087LXLJ6NMH85PJ46SJUKP4Z1V0FD","3N8OEVH1FTWZ4JSPVWILWZPP8GYOOY","model","mismatch","uniform","","","","","","","1545.5","232838.5","234384","[""stimuli/HF09_HE.jpg"",""stimuli/AM06_CC.jpg"",""stimuli/AM09_AO.jpg"",""stimuli/WM07_DO.jpg""]","stimuli/HF09_HE.jpg","stimuli/AM06_CC.jpg","stimuli/AM09_AO.jpg","stimuli/WM07_DO.jpg","pos4","stimuli/WM07_DO.jpg","DO","WM07","3","3","6","8","stimuli/stars_6.png","79.5","[""HE"",""CC"",""AO"",""DO""]","[""HF09"",""AM06"",""AM09"",""WM07""]","[4,4,5,6]","[2,6,4,8]","","",""
"show-reward","54","234530","0.0-54.0","p918927","A10DTLF1LXFY0V","3087LXLJ6NMH85PJ46SJUKP4Z1V0FD","3N8OEVH1FTWZ4JSPVWILWZPP8GYOOY","model","mismatch","uniform","","","","","","","","234905.2000002861","236988.80000019073","","","","","","","","","","","","6","","stimuli/stars_6.png","79.5","","","","","stimuli/WM07_DO.jpg","",""
"explore-choice","55","236934","0.0-55.0","p918927","A10DTLF1LXFY0V","3087LXLJ6NMH85PJ46SJUKP4Z1V0FD","3N8OEVH1FTWZ4JSPVWILWZPP8GYOOY","model","mismatch","uniform","","","","","","","1886.9000000953674","236990.90000009537","238877.80000019073","[""stimuli/AM06_CC.jpg"",""stimuli/WM07_DO.jpg"",""stimuli/AM09_HE.jpg"",""stimuli/HF09_AO.jpg""]","stimuli/AM06_CC.jpg","stimuli/WM07_DO.jpg","stimuli/AM09_HE.jpg","stimuli/HF09_AO.jpg","pos1","stimuli/AM06_CC.jpg","CC","AM06","0","2.5","5","6","stimuli/stars_5.png","82","[""CC"",""DO"",""HE"",""AO""]","[""AM06"",""WM07"",""AM09"",""HF09""]","[5,8,5,1]","[6,8,4,2]","","",""
"show-reward","56","238949","0.0-56.0","p918927","A10DTLF1LXFY0V","3087LXLJ6NMH85PJ46SJUKP4Z1V0FD","3N8OEVH1FTWZ4JSPVWILWZPP8GYOOY","model","mismatch","uniform","","","","","","","","239395.30000019073","241408.2000002861","","","","","","","","","","","","5","","stimuli/stars_5.png","82","","","","","stimuli/AM06_CC.jpg","",""
"explore-choice","57","241226","0.0-57.0","p918927","A10DTLF1LXFY0V","3087LXLJ6NMH85PJ46SJUKP4Z1V0FD","3N8OEVH1FTWZ4JSPVWILWZPP8GYOOY","model","mismatch","uniform","","","","","","","1761.5999999046326","241410","243171.59999990463","[""stimuli/HF09_HE.jpg"",""stimuli/AM09_AO.jpg"",""stimuli/AM06_CC.jpg"",""stimuli/WM07_DO.jpg""]","stimuli/HF09_HE.jpg","stimuli/AM09_AO.jpg","stimuli/AM06_CC.jpg","stimuli/WM07_DO.jpg","pos4","stimuli/WM07_DO.jpg","DO","WM07","3","3","6","8","stimuli/stars_6.png","85","[""HE"",""AO"",""CC"",""DO""]","[""HF09"",""AM09"",""AM06"",""WM07""]","[4,5,4,6]","[2,4,6,8]","","",""
"show-reward","58","243238","0.0-58.0","p918927","A10DTLF1LXFY0V","3087LXLJ6NMH85PJ46SJUKP4Z1V0FD","3N8OEVH1FTWZ4JSPVWILWZPP8GYOOY","model","mismatch","uniform","","","","","","","","243692.7000002861","245696.90000009537","","","","","","","","","","","","6","","stimuli/stars_6.png","85","","","","","stimuli/WM07_DO.jpg","",""
"explore-choice","59","245867","0.0-59.0","p918927","A10DTLF1LXFY0V","3087LXLJ6NMH85PJ46SJUKP4Z1V0FD","3N8OEVH1FTWZ4JSPVWILWZPP8GYOOY","model","mismatch","uniform","","","","","","","2123.0999999046326","245698.30000019073","247821.40000009537","[""stimuli/AM09_AO.jpg"",""stimuli/HF09_CC.jpg"",""stimuli/WM07_DO.jpg"",""stimuli/AM06_HE.jpg""]","stimuli/AM09_AO.jpg","stimuli/HF09_CC.jpg","stimuli/WM07_DO.jpg","stimuli/AM06_HE.jpg","pos1","stimuli/AM09_AO.jpg","AO","AM09","0","3","6","4","stimuli/stars_6.png","88","[""AO"",""CC"",""DO"",""HE""]","[""AM09"",""HF09"",""WM07"",""AM06""]","[6,2,6,6]","[4,2,8,6]","","",""
"show-reward","60","247881","0.0-60.0","p918927","A10DTLF1LXFY0V","3087LXLJ6NMH85PJ46SJUKP4Z1V0FD","3N8OEVH1FTWZ4JSPVWILWZPP8GYOOY","model","mismatch","uniform","","","","","","","","248327.7000002861","250339.30000019073","","","","","","","","","","","","6","","stimuli/stars_6.png","88","","","","","stimuli/AM09_AO.jpg","",""
"explore-choice","61","251167","0.0-61.0","p918927","A10DTLF1LXFY0V","3087LXLJ6NMH85PJ46SJUKP4Z1V0FD","3N8OEVH1FTWZ4JSPVWILWZPP8GYOOY","model","mismatch","uniform","","","","","","","2782.300000190735","250341.5","253123.80000019073","[""stimuli/WM07_CC.jpg"",""stimuli/AM09_AO.jpg"",""stimuli/AM06_DO.jpg"",""stimuli/HF09_HE.jpg""]","stimuli/WM07_CC.jpg","stimuli/AM09_AO.jpg","stimuli/AM06_DO.jpg","stimuli/HF09_HE.jpg","pos3","stimuli/AM06_DO.jpg","DO","AM06","2","4","8","6","stimuli/stars_8.png","92","[""CC"",""AO"",""DO"",""HE""]","[""WM07"",""AM09"",""AM06"",""HF09""]","[9,5,8,2]","[8,4,6,2]","","",""
"show-reward","62","253172","0.0-62.0","p918927","A10DTLF1LXFY0V","3087LXLJ6NMH85PJ46SJUKP4Z1V0FD","3N8OEVH1FTWZ4JSPVWILWZPP8GYOOY","model","mismatch","uniform","","","","","","","","253627.09999990463","255631.09999990463","","","","","","","","","","","","8","","stimuli/stars_8.png","92","","","","","stimuli/AM06_DO.jpg","",""
"explore-choice","63","255413","0.0-63.0","p918927","A10DTLF1LXFY0V","3087LXLJ6NMH85PJ46SJUKP4Z1V0FD","3N8OEVH1FTWZ4JSPVWILWZPP8GYOOY","model","mismatch","uniform","","","","","","","1735.4000000953674","255633.09999990463","257368.5","[""stimuli/HF09_HE.jpg"",""stimuli/WM07_AO.jpg"",""stimuli/AM06_DO.jpg"",""stimuli/AM09_CC.jpg""]","stimuli/HF09_HE.jpg","stimuli/WM07_AO.jpg","stimuli/AM06_DO.jpg","stimuli/AM09_CC.jpg","pos3","stimuli/AM06_DO.jpg","DO","AM06","2","3.5","7","6","stimuli/stars_7.png","95.5","[""HE"",""AO"",""DO"",""CC""]","[""HF09"",""WM07"",""AM06"",""AM09""]","[4,9,7,4]","[2,8,6,4]","","",""
"show-reward","64","257422","0.0-64.0","p918927","A10DTLF1LXFY0V","3087LXLJ6NMH85PJ46SJUKP4Z1V0FD","3N8OEVH1FTWZ4JSPVWILWZPP8GYOOY","model","mismatch","uniform","","","","","","","","257874.40000009537","259881","","","","","","","","","","","","7","","stimuli/stars_7.png","95.5","","","","","stimuli/AM06_DO.jpg","",""
"explore-choice","65","261272","0.0-65.0","p918927","A10DTLF1LXFY0V","3087LXLJ6NMH85PJ46SJUKP4Z1V0FD","3N8OEVH1FTWZ4JSPVWILWZPP8GYOOY","model","mismatch","uniform","","","","","","","3344.300000190735","259882.90000009537","263227.2000002861","[""stimuli/AM09_HE.jpg"",""stimuli/HF09_DO.jpg"",""stimuli/AM06_CC.jpg"",""stimuli/WM07_AO.jpg""]","stimuli/AM09_HE.jpg","stimuli/HF09_DO.jpg","stimuli/AM06_CC.jpg","stimuli/WM07_AO.jpg","pos2","stimuli/HF09_DO.jpg","DO","HF09","1","2","4","2","stimuli/stars_4.png","97.5","[""HE"",""DO"",""CC"",""AO""]","[""AM09"",""HF09"",""AM06"",""WM07""]","[3,4,6,8]","[4,2,6,8]","","",""
"show-reward","66","263281","0.0-66.0","p918927","A10DTLF1LXFY0V","3087LXLJ6NMH85PJ46SJUKP4Z1V0FD","3N8OEVH1FTWZ4JSPVWILWZPP8GYOOY","model","mismatch","uniform","","","","","","","","263733.30000019073","265739.40000009537","","","","","","","","","","","","4","","stimuli/stars_4.png","97.5","","","","","stimuli/HF09_DO.jpg","",""
"explore-choice","67","265513","0.0-67.0","p918927","A10DTLF1LXFY0V","3087LXLJ6NMH85PJ46SJUKP4Z1V0FD","3N8OEVH1FTWZ4JSPVWILWZPP8GYOOY","model","mismatch","uniform","","","","","","","1720.0999999046326","265740.80000019073","267460.90000009537","[""stimuli/WM07_CC.jpg"",""stimuli/HF09_AO.jpg"",""stimuli/AM09_DO.jpg"",""stimuli/AM06_HE.jpg""]","stimuli/WM07_CC.jpg","stimuli/HF09_AO.jpg","stimuli/AM09_DO.jpg","stimuli/AM06_HE.jpg","pos2","stimuli/HF09_AO.jpg","AO","HF09","1","0.5","1","2","stimuli/stars_1.png","98","[""CC"",""AO"",""DO"",""HE""]","[""WM07"",""HF09"",""AM09"",""AM06""]","[9,1,2,8]","[8,2,4,6]","","",""
"show-reward","68","267526","0.0-68.0","p918927","A10DTLF1LXFY0V","3087LXLJ6NMH85PJ46SJUKP4Z1V0FD","3N8OEVH1FTWZ4JSPVWILWZPP8GYOOY","model","mismatch","uniform","","","","","","","","267973.7000002861","269984.90000009537","","","","","","","","","","","","1","","stimuli/stars_1.png","98","","","","","stimuli/HF09_AO.jpg","",""
"explore-choice","69","269499","0.0-69.0","p918927","A10DTLF1LXFY0V","3087LXLJ6NMH85PJ46SJUKP4Z1V0FD","3N8OEVH1FTWZ4JSPVWILWZPP8GYOOY","model","mismatch","uniform","","","","","","","1460.5","269986.30000019073","271446.80000019073","[""stimuli/AM09_DO.jpg"",""stimuli/HF09_CC.jpg"",""stimuli/WM07_HE.jpg"",""stimuli/AM06_AO.jpg""]","stimuli/AM09_DO.jpg","stimuli/HF09_CC.jpg","stimuli/WM07_HE.jpg","stimuli/AM06_AO.jpg","pos3","stimuli/WM07_HE.jpg","HE","WM07","2","3","6","8","stimuli/stars_6.png","101","[""DO"",""CC"",""HE"",""AO""]","[""AM09"",""HF09"",""WM07"",""AM06""]","[5,2,6,6]","[4,2,8,6]","","",""
"show-reward","70","271512","0.0-70.0","p918927","A10DTLF1LXFY0V","3087LXLJ6NMH85PJ46SJUKP4Z1V0FD","3N8OEVH1FTWZ4JSPVWILWZPP8GYOOY","model","mismatch","uniform","","","","","","","","271959.90000009537","273970.80000019073","","","","","","","","","","","","6","","stimuli/stars_6.png","101","","","","","stimuli/WM07_HE.jpg","",""
"explore-choice","71","273900","0.0-71.0","p918927","A10DTLF1LXFY0V","3087LXLJ6NMH85PJ46SJUKP4Z1V0FD","3N8OEVH1FTWZ4JSPVWILWZPP8GYOOY","model","mismatch","uniform","","","","","","","1881.0999999046326","273972.30000019073","275853.40000009537","[""stimuli/WM07_AO.jpg"",""stimuli/AM06_DO.jpg"",""stimuli/HF09_CC.jpg"",""stimuli/AM09_HE.jpg""]","stimuli/WM07_AO.jpg","stimuli/AM06_DO.jpg","stimuli/HF09_CC.jpg","stimuli/AM09_HE.jpg","pos1","stimuli/WM07_AO.jpg","AO","WM07","0","3.5","7","8","stimuli/stars_7.png","104.5","[""AO"",""DO"",""CC"",""HE""]","[""WM07"",""AM06"",""HF09"",""AM09""]","[7,7,4,2]","[8,6,2,4]","","",""
"show-reward","72","275906","0.0-72.0","p918927","A10DTLF1LXFY0V","3087LXLJ6NMH85PJ46SJUKP4Z1V0FD","3N8OEVH1FTWZ4JSPVWILWZPP8GYOOY","model","mismatch","uniform","","","","","","","","276360.30000019073","278364.90000009537","","","","","","","","","","","","7","","stimuli/stars_7.png","104.5","","","","","stimuli/WM07_AO.jpg","",""
"explore-choice","73","278551","0.0-73.0","p918927","A10DTLF1LXFY0V","3087LXLJ6NMH85PJ46SJUKP4Z1V0FD","3N8OEVH1FTWZ4JSPVWILWZPP8GYOOY","model","mismatch","uniform","","","","","","","2135.5999999046326","278366.5","280502.09999990463","[""stimuli/AM09_DO.jpg"",""stimuli/WM07_AO.jpg"",""stimuli/HF09_CC.jpg"",""stimuli/AM06_HE.jpg""]","stimuli/AM09_DO.jpg","stimuli/WM07_AO.jpg","stimuli/HF09_CC.jpg","stimuli/AM06_HE.jpg","pos2","stimuli/WM07_AO.jpg","AO","WM07","1","3.5","7","8","stimuli/stars_7.png","108","[""DO"",""AO"",""CC"",""HE""]","[""AM09"",""WM07"",""HF09"",""AM06""]","[5,7,4,6]","[4,8,2,6]","","",""
"show-reward","74","280556","0.0-74.0","p918927","A10DTLF1LXFY0V","3087LXLJ6NMH85PJ46SJUKP4Z1V0FD","3N8OEVH1FTWZ4JSPVWILWZPP8GYOOY","model","mismatch","uniform","","","","","","","","281011.2000002861","283015.30000019073","","","","","","","","","","","","7","","stimuli/stars_7.png","108","","","","","stimuli/WM07_AO.jpg","",""
"explore-choice","75","282819","0.0-75.0","p918927","A10DTLF1LXFY0V","3087LXLJ6NMH85PJ46SJUKP4Z1V0FD","3N8OEVH1FTWZ4JSPVWILWZPP8GYOOY","model","mismatch","uniform","","","","","","","1753.7000002861023","283016.59999990463","284770.30000019073","[""stimuli/HF09_HE.jpg"",""stimuli/AM09_CC.jpg"",""stimuli/AM06_AO.jpg"",""stimuli/WM07_DO.jpg""]","stimuli/HF09_HE.jpg","stimuli/AM09_CC.jpg","stimuli/AM06_AO.jpg","stimuli/WM07_DO.jpg","pos4","stimuli/WM07_DO.jpg","DO","WM07","3","4","8","8","stimuli/stars_8.png","112","[""HE"",""CC"",""AO"",""DO""]","[""HF09"",""AM09"",""AM06"",""WM07""]","[1,4,7,8]","[2,4,6,8]","","",""
"show-reward","76","284824","0.0-76.0","p918927","A10DTLF1LXFY0V","3087LXLJ6NMH85PJ46SJUKP4Z1V0FD","3N8OEVH1FTWZ4JSPVWILWZPP8GYOOY","model","mismatch","uniform","","","","","","","","285279","287283.30000019073","","","","","","","","","","","","8","","stimuli/stars_8.png","112","","","","","stimuli/WM07_DO.jpg","",""
"explore-choice","77","287250","0.0-77.0","p918927","A10DTLF1LXFY0V","3087LXLJ6NMH85PJ46SJUKP4Z1V0FD","3N8OEVH1FTWZ4JSPVWILWZPP8GYOOY","model","mismatch","uniform","","","","","","","1917.3999996185303","287284.7000002861","289202.09999990463","[""stimuli/HF09_AO.jpg"",""stimuli/AM06_HE.jpg"",""stimuli/AM09_CC.jpg"",""stimuli/WM07_DO.jpg""]","stimuli/HF09_AO.jpg","stimuli/AM06_HE.jpg","stimuli/AM09_CC.jpg","stimuli/WM07_DO.jpg","pos4","stimuli/WM07_DO.jpg","DO","WM07","3","5","10","8","stimuli/stars_10.png","117","[""AO"",""HE"",""CC"",""DO""]","[""HF09"",""AM06"",""AM09"",""WM07""]","[2,6,3,10]","[2,6,4,8]","","",""
"show-reward","78","289256","0.0-78.0","p918927","A10DTLF1LXFY0V","3087LXLJ6NMH85PJ46SJUKP4Z1V0FD","3N8OEVH1FTWZ4JSPVWILWZPP8GYOOY","model","mismatch","uniform","","","","","","","","289708.7000002861","291713.40000009537","","","","","","","","","","","","10","","stimuli/stars_10.png","117","","","","","stimuli/WM07_DO.jpg","",""
"explore-choice","79","291685","0.0-79.0","p918927","A10DTLF1LXFY0V","3087LXLJ6NMH85PJ46SJUKP4Z1V0FD","3N8OEVH1FTWZ4JSPVWILWZPP8GYOOY","model","mismatch","uniform","","","","","","","1918.5999999046326","291715.40000009537","293634","[""stimuli/WM07_CC.jpg"",""stimuli/HF09_HE.jpg"",""stimuli/AM06_AO.jpg"",""stimuli/AM09_DO.jpg""]","stimuli/WM07_CC.jpg","stimuli/HF09_HE.jpg","stimuli/AM06_AO.jpg","stimuli/AM09_DO.jpg","pos1","stimuli/WM07_CC.jpg","CC","WM07","0","3.5","7","8","stimuli/stars_7.png","120.5","[""CC"",""HE"",""AO"",""DO""]","[""WM07"",""HF09"",""AM06"",""AM09""]","[7,3,7,5]","[8,2,6,4]","","",""
"show-reward","80","293691","0.0-80.0","p918927","A10DTLF1LXFY0V","3087LXLJ6NMH85PJ46SJUKP4Z1V0FD","3N8OEVH1FTWZ4JSPVWILWZPP8GYOOY","model","mismatch","uniform","","","","","","","","294143.59999990463","296147.90000009537","","","","","","","","","","","","7","","stimuli/stars_7.png","120.5","","","","","stimuli/WM07_CC.jpg","",""
"explore-choice","81","295793","0.0-81.0","p918927","A10DTLF1LXFY0V","3087LXLJ6NMH85PJ46SJUKP4Z1V0FD","3N8OEVH1FTWZ4JSPVWILWZPP8GYOOY","model","mismatch","uniform","","","","","","","1600.5999999046326","296149.40000009537","297750","[""stimuli/AM06_DO.jpg"",""stimuli/AM09_AO.jpg"",""stimuli/WM07_HE.jpg"",""stimuli/HF09_CC.jpg""]","stimuli/AM06_DO.jpg","stimuli/AM09_AO.jpg","stimuli/WM07_HE.jpg","stimuli/HF09_CC.jpg","pos3","stimuli/WM07_HE.jpg","HE","WM07","2","4.5","9","8","stimuli/stars_9.png","125","[""DO"",""AO"",""HE"",""CC""]","[""AM06"",""AM09"",""WM07"",""HF09""]","[6,2,9,2]","[6,4,8,2]","","",""
"show-reward","82","297811","0.0-82.0","p918927","A10DTLF1LXFY0V","3087LXLJ6NMH85PJ46SJUKP4Z1V0FD","3N8OEVH1FTWZ4JSPVWILWZPP8GYOOY","model","mismatch","uniform","","","","","","","","298251.80000019073","300267.90000009537","","","","","","","","","","","","9","","stimuli/stars_9.png","125","","","","","stimuli/WM07_HE.jpg","",""
"explore-choice","83","299959","0.0-83.0","p918927","A10DTLF1LXFY0V","3087LXLJ6NMH85PJ46SJUKP4Z1V0FD","3N8OEVH1FTWZ4JSPVWILWZPP8GYOOY","model","mismatch","uniform","","","","","","","1646.4000000953674","300269.5","301915.90000009537","[""stimuli/HF09_HE.jpg"",""stimuli/WM07_AO.jpg"",""stimuli/AM06_CC.jpg"",""stimuli/AM09_DO.jpg""]","stimuli/HF09_HE.jpg","stimuli/WM07_AO.jpg","stimuli/AM06_CC.jpg","stimuli/AM09_DO.jpg","pos2","stimuli/WM07_AO.jpg","AO","WM07","1","3","6","8","stimuli/stars_6.png","128","[""HE"",""AO"",""CC"",""DO""]","[""HF09"",""WM07"",""AM06"",""AM09""]","[0,6,6,3]","[2,8,6,4]","","",""
"show-reward","84","301966","0.0-84.0","p918927","A10DTLF1LXFY0V","3087LXLJ6NMH85PJ46SJUKP4Z1V0FD","3N8OEVH1FTWZ4JSPVWILWZPP8GYOOY","model","mismatch","uniform","","","","","","","","302417.90000009537","304423.40000009537","","","","","","","","","","","","6","","stimuli/stars_6.png","128","","","","","stimuli/WM07_AO.jpg","",""
"explore-choice","85","303827","0.0-85.0","p918927","A10DTLF1LXFY0V","3087LXLJ6NMH85PJ46SJUKP4Z1V0FD","3N8OEVH1FTWZ4JSPVWILWZPP8GYOOY","model","mismatch","uniform","","","","","","","1352.1999998092651","304425.30000019073","305777.5","[""stimuli/WM07_CC.jpg"",""stimuli/AM06_AO.jpg"",""stimuli/AM09_HE.jpg"",""stimuli/HF09_DO.jpg""]","stimuli/WM07_CC.jpg","stimuli/AM06_AO.jpg","stimuli/AM09_HE.jpg","stimuli/HF09_DO.jpg","pos1","stimuli/WM07_CC.jpg","CC","WM07","0","4","8","8","stimuli/stars_8.png","132","[""CC"",""AO"",""HE"",""DO""]","[""WM07"",""AM06"",""AM09"",""HF09""]","[8,7,4,1]","[8,6,4,2]","","",""
"show-reward","86","305842","0.0-86.0","p918927","A10DTLF1LXFY0V","3087LXLJ6NMH85PJ46SJUKP4Z1V0FD","3N8OEVH1FTWZ4JSPVWILWZPP8GYOOY","model","mismatch","uniform","","","","","","","","306286","308299","","","","","","","","","","","","8","","stimuli/stars_8.png","132","","","","","stimuli/WM07_CC.jpg","",""
"explore-choice","87","308478","0.0-87.0","p918927","A10DTLF1LXFY0V","3087LXLJ6NMH85PJ46SJUKP4Z1V0FD","3N8OEVH1FTWZ4JSPVWILWZPP8GYOOY","model","mismatch","uniform","","","","","","","2133.1000003814697","308300.59999990463","310433.7000002861","[""stimuli/HF09_DO.jpg"",""stimuli/WM07_AO.jpg"",""stimuli/AM09_CC.jpg"",""stimuli/AM06_HE.jpg""]","stimuli/HF09_DO.jpg","stimuli/WM07_AO.jpg","stimuli/AM09_CC.jpg","stimuli/AM06_HE.jpg","pos4","stimuli/AM06_HE.jpg","HE","AM06","3","3.5","7","6","stimuli/stars_7.png","135.5","[""DO"",""AO"",""CC"",""HE""]","[""HF09"",""WM07"",""AM09"",""AM06""]","[1,7,5,7]","[2,8,4,6]","","",""
"show-reward","88","310493","0.0-88.0","p918927","A10DTLF1LXFY0V","3087LXLJ6NMH85PJ46SJUKP4Z1V0FD","3N8OEVH1FTWZ4JSPVWILWZPP8GYOOY","model","mismatch","uniform","","","","","","","","310936.59999990463","312950","","","","","","","","","","","","7","","stimuli/stars_7.png","135.5","","","","","stimuli/AM06_HE.jpg","",""
"explore-choice","89","312457","0.0-89.0","p918927","A10DTLF1LXFY0V","3087LXLJ6NMH85PJ46SJUKP4Z1V0FD","3N8OEVH1FTWZ4JSPVWILWZPP8GYOOY","model","mismatch","uniform","","","","","","","1454.1999998092651","312951.40000009537","314405.59999990463","[""stimuli/HF09_AO.jpg"",""stimuli/AM09_DO.jpg"",""stimuli/WM07_HE.jpg"",""stimuli/AM06_CC.jpg""]","stimuli/HF09_AO.jpg","stimuli/AM09_DO.jpg","stimuli/WM07_HE.jpg","stimuli/AM06_CC.jpg","pos4","stimuli/AM06_CC.jpg","CC","AM06","3","3.5","7","6","stimuli/stars_7.png","139","[""AO"",""DO"",""HE"",""CC""]","[""HF09"",""AM09"",""WM07"",""AM06""]","[3,5,8,7]","[2,4,8,6]","","",""
"show-reward","90","314467","0.0-90.0","p918927","A10DTLF1LXFY0V","3087LXLJ6NMH85PJ46SJUKP4Z1V0FD","3N8OEVH1FTWZ4JSPVWILWZPP8GYOOY","model","mismatch","uniform","","","","","","","","314916.09999990463","316923.7000002861","","","","","","","","","","","","7","","stimuli/stars_7.png","139","","","","","stimuli/AM06_CC.jpg","",""
"explore-choice","91","316361","0.0-91.0","p918927","A10DTLF1LXFY0V","3087LXLJ6NMH85PJ46SJUKP4Z1V0FD","3N8OEVH1FTWZ4JSPVWILWZPP8GYOOY","model","mismatch","uniform","","","","","","","1389.9000000953674","316925.40000009537","318315.30000019073","[""stimuli/AM09_AO.jpg"",""stimuli/WM07_CC.jpg"",""stimuli/AM06_HE.jpg"",""stimuli/HF09_DO.jpg""]","stimuli/AM09_AO.jpg","stimuli/WM07_CC.jpg","stimuli/AM06_HE.jpg","stimuli/HF09_DO.jpg","pos3","stimuli/AM06_HE.jpg","HE","AM06","2","2","4","6","stimuli/stars_4.png","141","[""AO"",""CC"",""HE"",""DO""]","[""AM09"",""WM07"",""AM06"",""HF09""]","[3,8,4,2]","[4,8,6,2]","","",""
"show-reward","92","318371","0.0-92.0","p918927","A10DTLF1LXFY0V","3087LXLJ6NMH85PJ46SJUKP4Z1V0FD","3N8OEVH1FTWZ4JSPVWILWZPP8GYOOY","model","mismatch","uniform","","","","","","","","318819.2000002861","320828.5","","","","","","","","","","","","4","","stimuli/stars_4.png","141","","","","","stimuli/AM06_HE.jpg","",""
"explore-choice","93","320206","0.0-93.0","p918927","A10DTLF1LXFY0V","3087LXLJ6NMH85PJ46SJUKP4Z1V0FD","3N8OEVH1FTWZ4JSPVWILWZPP8GYOOY","model","mismatch","uniform","","","","","","","1320.5","320830.5","322151","[""stimuli/WM07_HE.jpg"",""stimuli/HF09_DO.jpg"",""stimuli/AM06_CC.jpg"",""stimuli/AM09_AO.jpg""]","stimuli/WM07_HE.jpg","stimuli/HF09_DO.jpg","stimuli/AM06_CC.jpg","stimuli/AM09_AO.jpg","pos1","stimuli/WM07_HE.jpg","HE","WM07","0","3.5","7","8","stimuli/stars_7.png","144.5","[""HE"",""DO"",""CC"",""AO""]","[""WM07"",""HF09"",""AM06"",""AM09""]","[7,4,7,5]","[8,2,6,4]","","",""
"show-reward","94","322213","0.0-94.0","p918927","A10DTLF1LXFY0V","3087LXLJ6NMH85PJ46SJUKP4Z1V0FD","3N8OEVH1FTWZ4JSPVWILWZPP8GYOOY","model","mismatch","uniform","","","","","","","","322664.09999990463","324669.80000019073","","","","","","","","","","","","7","","stimuli/stars_7.png","144.5","","","","","stimuli/WM07_HE.jpg","",""
"explore-choice","95","324115","0.0-95.0","p918927","A10DTLF1LXFY0V","3087LXLJ6NMH85PJ46SJUKP4Z1V0FD","3N8OEVH1FTWZ4JSPVWILWZPP8GYOOY","model","mismatch","uniform","","","","","","","1394.0999999046326","324671.40000009537","326065.5","[""stimuli/HF09_AO.jpg"",""stimuli/AM06_DO.jpg"",""stimuli/AM09_HE.jpg"",""stimuli/WM07_CC.jpg""]","stimuli/HF09_AO.jpg","stimuli/AM06_DO.jpg","stimuli/AM09_HE.jpg","stimuli/WM07_CC.jpg","pos4","stimuli/WM07_CC.jpg","CC","WM07","3","4","8","8","stimuli/stars_8.png","148.5","[""AO"",""DO"",""HE"",""CC""]","[""HF09"",""AM06"",""AM09"",""WM07""]","[4,6,4,8]","[2,6,4,8]","","",""
"show-reward","96","326122","0.0-96.0","p918927","A10DTLF1LXFY0V","3087LXLJ6NMH85PJ46SJUKP4Z1V0FD","3N8OEVH1FTWZ4JSPVWILWZPP8GYOOY","model","mismatch","uniform","","","","","","","","326573.7000002861","328578.80000019073","","","","","","","","","","","","8","","stimuli/stars_8.png","148.5","","","","","stimuli/WM07_CC.jpg","",""
"explore-choice","97","328015","0.0-97.0","p918927","A10DTLF1LXFY0V","3087LXLJ6NMH85PJ46SJUKP4Z1V0FD","3N8OEVH1FTWZ4JSPVWILWZPP8GYOOY","model","mismatch","uniform","","","","","","","1386.6999998092651","328580.7000002861","329967.40000009537","[""stimuli/HF09_DO.jpg"",""stimuli/WM07_HE.jpg"",""stimuli/AM09_CC.jpg"",""stimuli/AM06_AO.jpg""]","stimuli/HF09_DO.jpg","stimuli/WM07_HE.jpg","stimuli/AM09_CC.jpg","stimuli/AM06_AO.jpg","pos2","stimuli/WM07_HE.jpg","HE","WM07","1","4","8","8","stimuli/stars_8.png","152.5","[""DO"",""HE"",""CC"",""AO""]","[""HF09"",""WM07"",""AM09"",""AM06""]","[2,8,4,7]","[2,8,4,6]","","",""
"show-reward","98","330035","0.0-98.0","p918927","A10DTLF1LXFY0V","3087LXLJ6NMH85PJ46SJUKP4Z1V0FD","3N8OEVH1FTWZ4JSPVWILWZPP8GYOOY","model","mismatch","uniform","","","","","","","","330474","332491.90000009537","","","","","","","","","","","","8","","stimuli/stars_8.png","152.5","","","","","stimuli/WM07_HE.jpg","",""
"explore-choice","99","332416","0.0-99.0","p918927","A10DTLF1LXFY0V","3087LXLJ6NMH85PJ46SJUKP4Z1V0FD","3N8OEVH1FTWZ4JSPVWILWZPP8GYOOY","model","mismatch","uniform","","","","","","","1874.6999998092651","332494.2000002861","334368.90000009537","[""stimuli/WM07_DO.jpg"",""stimuli/HF09_CC.jpg"",""stimuli/AM09_HE.jpg"",""stimuli/AM06_AO.jpg""]","stimuli/WM07_DO.jpg","stimuli/HF09_CC.jpg","stimuli/AM09_HE.jpg","stimuli/AM06_AO.jpg","pos1","stimuli/WM07_DO.jpg","DO","WM07","0","4.5","9","8","stimuli/stars_9.png","157","[""DO"",""CC"",""HE"",""AO""]","[""WM07"",""HF09"",""AM09"",""AM06""]","[9,1,3,4]","[8,2,4,6]","","",""
"show-reward","100","334436","0.0-100.0","p918927","A10DTLF1LXFY0V","3087LXLJ6NMH85PJ46SJUKP4Z1V0FD","3N8OEVH1FTWZ4JSPVWILWZPP8GYOOY","model","mismatch","uniform","","","","","","","","334875.5","336893.40000009537","","","","","","","","","","","","9","","stimuli/stars_9.png","157","","","","","stimuli/WM07_DO.jpg","",""
"explore-choice","101","337545","0.0-101.0","p918927","A10DTLF1LXFY0V","3087LXLJ6NMH85PJ46SJUKP4Z1V0FD","3N8OEVH1FTWZ4JSPVWILWZPP8GYOOY","model","mismatch","uniform","","","","","","","2591.300000190735","336895.90000009537","339487.2000002861","[""stimuli/AM09_CC.jpg"",""stimuli/WM07_HE.jpg"",""stimuli/HF09_AO.jpg"",""stimuli/AM06_DO.jpg""]","stimuli/AM09_CC.jpg","stimuli/WM07_HE.jpg","stimuli/HF09_AO.jpg","stimuli/AM06_DO.jpg","pos1","stimuli/AM09_CC.jpg","CC","AM09","0","3","6","4","stimuli/stars_6.png","160","[""CC"",""HE"",""AO"",""DO""]","[""AM09"",""WM07"",""HF09"",""AM06""]","[6,6,0,7]","[4,8,2,6]","","",""
"show-reward","102","339563","0.0-102.0","p918927","A10DTLF1LXFY0V","3087LXLJ6NMH85PJ46SJUKP4Z1V0FD","3N8OEVH1FTWZ4JSPVWILWZPP8GYOOY","model","mismatch","uniform","","","","","","","","340003.40000009537","342019.90000009537","","","","","","","","","","","","6","","stimuli/stars_6.png","160","","","","","stimuli/AM09_CC.jpg","",""
"explore-choice","103","342640","0.0-103.0","p918927","A10DTLF1LXFY0V","3087LXLJ6NMH85PJ46SJUKP4Z1V0FD","3N8OEVH1FTWZ4JSPVWILWZPP8GYOOY","model","mismatch","uniform","","","","","","","2574.7999997138977","342021.80000019073","344596.59999990463","[""stimuli/AM03_SUR.jpg"",""stimuli/HF02_SC.jpg"",""stimuli/BF08_HO.jpg"",""stimuli/BM03_FO.jpg""]","stimuli/AM03_SUR.jpg","stimuli/HF02_SC.jpg","stimuli/BF08_HO.jpg","stimuli/BM03_FO.jpg","pos4","stimuli/BM03_FO.jpg","FO","BM03","3","1","2","4","stimuli/stars_2.png","161","[""SUR"",""SC"",""HO"",""FO""]","[""AM03"",""HF02"",""BF08"",""BM03""]","[4,4,7,2]","[2,6,8,4]","","",""
"show-reward","104","344645","0.0-104.0","p918927","A10DTLF1LXFY0V","3087LXLJ6NMH85PJ46SJUKP4Z1V0FD","3N8OEVH1FTWZ4JSPVWILWZPP8GYOOY","model","mismatch","uniform","","","","","","","","345098.59999990463","347102.59999990463","","","","","","","","","","","","2","","stimuli/stars_2.png","161","","","","","stimuli/BM03_FO.jpg","",""
"explore-choice","105","348555","0.0-105.0","p918927","A10DTLF1LXFY0V","3087LXLJ6NMH85PJ46SJUKP4Z1V0FD","3N8OEVH1FTWZ4JSPVWILWZPP8GYOOY","model","mismatch","uniform","","","","","","","3404.2000002861023","347104","350508.2000002861","[""stimuli/BF08_SC.jpg"",""stimuli/AM03_SUR.jpg"",""stimuli/BM03_HO.jpg"",""stimuli/HF02_FO.jpg""]","stimuli/BF08_SC.jpg","stimuli/AM03_SUR.jpg","stimuli/BM03_HO.jpg","stimuli/HF02_FO.jpg","pos2","stimuli/AM03_SUR.jpg","SUR","AM03","1","2","4","2","stimuli/stars_4.png","163","[""SC"",""SUR"",""HO"",""FO""]","[""BF08"",""AM03"",""BM03"",""HF02""]","[6,4,6,3]","[6,2,8,4]","","",""
"show-reward","106","350561","0.0-106.0","p918927","A10DTLF1LXFY0V","3087LXLJ6NMH85PJ46SJUKP4Z1V0FD","3N8OEVH1FTWZ4JSPVWILWZPP8GYOOY","model","mismatch","uniform","","","","","","","","351018.40000009537","353022.40000009537","","","","","","","","","","","","4","","stimuli/stars_4.png","163","","","","","stimuli/AM03_SUR.jpg","",""
"explore-choice","107","352678","0.0-107.0","p918927","A10DTLF1LXFY0V","3087LXLJ6NMH85PJ46SJUKP4Z1V0FD","3N8OEVH1FTWZ4JSPVWILWZPP8GYOOY","model","mismatch","uniform","","","","","","","1600.3000001907349","353024","354624.30000019073","[""stimuli/BF08_SC.jpg"",""stimuli/HF02_HO.jpg"",""stimuli/AM03_FO.jpg"",""stimuli/BM03_SUR.jpg""]","stimuli/BF08_SC.jpg","stimuli/HF02_HO.jpg","stimuli/AM03_FO.jpg","stimuli/BM03_SUR.jpg","pos3","stimuli/AM03_FO.jpg","FO","AM03","2","3","6","4","stimuli/stars_6.png","166","[""SC"",""HO"",""FO"",""SUR""]","[""BF08"",""HF02"",""AM03"",""BM03""]","[8,8,6,1]","[6,8,4,2]","","",""
"show-reward","108","354691","0.0-108.0","p918927","A10DTLF1LXFY0V","3087LXLJ6NMH85PJ46SJUKP4Z1V0FD","3N8OEVH1FTWZ4JSPVWILWZPP8GYOOY","model","mismatch","uniform","","","","","","","","355141.09999990463","357152.90000009537","","","","","","","","","","","","6","","stimuli/stars_6.png","166","","","","","stimuli/AM03_FO.jpg","",""
"explore-choice","109","357757","0.0-109.0","p918927","A10DTLF1LXFY0V","3087LXLJ6NMH85PJ46SJUKP4Z1V0FD","3N8OEVH1FTWZ4JSPVWILWZPP8GYOOY","model","mismatch","uniform","","","","","","","2487.7999997138977","357154.30000019073","359642.09999990463","[""stimuli/AM03_SC.jpg"",""stimuli/HF02_FO.jpg"",""stimuli/BF08_SUR.jpg"",""stimuli/BM03_HO.jpg""]","stimuli/AM03_SC.jpg","stimuli/HF02_FO.jpg","stimuli/BF08_SUR.jpg","stimuli/BM03_HO.jpg","pos3","stimuli/BF08_SUR.jpg","SUR","BF08","2","0.5","1","2","stimuli/stars_1.png","166.5","[""SC"",""FO"",""SUR"",""HO""]","[""AM03"",""HF02"",""BF08"",""BM03""]","[8,5,1,7]","[6,4,2,8]","","",""
"show-reward","110","359763","0.0-110.0","p918927","A10DTLF1LXFY0V","3087LXLJ6NMH85PJ46SJUKP4Z1V0FD","3N8OEVH1FTWZ4JSPVWILWZPP8GYOOY","model","mismatch","uniform","","","","","","","","360220.59999990463","362224.5","","","","","","","","","","","","1","","stimuli/stars_1.png","166.5","","","","","stimuli/BF08_SUR.jpg","",""
"explore-choice","111","361813","0.0-111.0","p918927","A10DTLF1LXFY0V","3087LXLJ6NMH85PJ46SJUKP4Z1V0FD","3N8OEVH1FTWZ4JSPVWILWZPP8GYOOY","model","mismatch","uniform","","","","","","","1547.5","362226.2000002861","363773.7000002861","[""stimuli/HF02_SUR.jpg"",""stimuli/BF08_SC.jpg"",""stimuli/BM03_FO.jpg"",""stimuli/AM03_HO.jpg""]","stimuli/HF02_SUR.jpg","stimuli/BF08_SC.jpg","stimuli/BM03_FO.jpg","stimuli/AM03_HO.jpg","pos1","stimuli/HF02_SUR.jpg","SUR","HF02","0","2","4","2","stimuli/stars_4.png","168.5","[""SUR"",""SC"",""FO"",""HO""]","[""HF02"",""BF08"",""BM03"",""AM03""]","[4,4,3,10]","[2,6,4,8]","","",""
"show-reward","112","363820","0.0-112.0","p918927","A10DTLF1LXFY0V","3087LXLJ6NMH85PJ46SJUKP4Z1V0FD","3N8OEVH1FTWZ4JSPVWILWZPP8GYOOY","model","mismatch","uniform","","","","","","","","364276.80000019073","366281.80000019073","","","","","","","","","","","","4","","stimuli/stars_4.png","168.5","","","","","stimuli/HF02_SUR.jpg","",""
"explore-choice","113","365493","0.0-113.0","p918927","A10DTLF1LXFY0V","3087LXLJ6NMH85PJ46SJUKP4Z1V0FD","3N8OEVH1FTWZ4JSPVWILWZPP8GYOOY","model","mismatch","uniform","","","","","","","1170.0999999046326","366284","367454.09999990463","[""stimuli/HF02_SUR.jpg"",""stimuli/BF08_SC.jpg"",""stimuli/BM03_HO.jpg"",""stimuli/AM03_FO.jpg""]","stimuli/HF02_SUR.jpg","stimuli/BF08_SC.jpg","stimuli/BM03_HO.jpg","stimuli/AM03_FO.jpg","pos4","stimuli/AM03_FO.jpg","FO","AM03","3","2.5","5","4","stimuli/stars_5.png","171","[""SUR"",""SC"",""HO"",""FO""]","[""HF02"",""BF08"",""BM03"",""AM03""]","[2,5,6,5]","[2,6,8,4]","","",""
"show-reward","114","367500","0.0-114.0","p918927","A10DTLF1LXFY0V","3087LXLJ6NMH85PJ46SJUKP4Z1V0FD","3N8OEVH1FTWZ4JSPVWILWZPP8GYOOY","model","mismatch","uniform","","","","","","","","367956.80000019073","369961.59999990463","","","","","","","","","","","","5","","stimuli/stars_5.png","171","","","","","stimuli/AM03_FO.jpg","",""
"explore-choice","115","369571","0.0-115.0","p918927","A10DTLF1LXFY0V","3087LXLJ6NMH85PJ46SJUKP4Z1V0FD","3N8OEVH1FTWZ4JSPVWILWZPP8GYOOY","model","mismatch","uniform","","","","","","","1560.7999997138977","369963.2000002861","371524","[""stimuli/BF08_HO.jpg"",""stimuli/HF02_SUR.jpg"",""stimuli/AM03_FO.jpg"",""stimuli/BM03_SC.jpg""]","stimuli/BF08_HO.jpg","stimuli/HF02_SUR.jpg","stimuli/AM03_FO.jpg","stimuli/BM03_SC.jpg","pos3","stimuli/AM03_FO.jpg","FO","AM03","2","1.5","3","4","stimuli/stars_3.png","172.5","[""HO"",""SUR"",""FO"",""SC""]","[""BF08"",""HF02"",""AM03"",""BM03""]","[6,3,3,5]","[8,2,4,6]","","",""
"show-reward","116","371580","0.0-116.0","p918927","A10DTLF1LXFY0V","3087LXLJ6NMH85PJ46SJUKP4Z1V0FD","3N8OEVH1FTWZ4JSPVWILWZPP8GYOOY","model","mismatch","uniform","","","","","","","","372035.09999990463","374041.59999990463","","","","","","","","","","","","3","","stimuli/stars_3.png","172.5","","","","","stimuli/AM03_FO.jpg","",""
"explore-choice","117","373156","0.0-117.0","p918927","A10DTLF1LXFY0V","3087LXLJ6NMH85PJ46SJUKP4Z1V0FD","3N8OEVH1FTWZ4JSPVWILWZPP8GYOOY","model","mismatch","uniform","","","","","","","1058.0999999046326","374043.7000002861","375101.80000019073","[""stimuli/AM03_HO.jpg"",""stimuli/BM03_SUR.jpg"",""stimuli/HF02_FO.jpg"",""stimuli/BF08_SC.jpg""]","stimuli/AM03_HO.jpg","stimuli/BM03_SUR.jpg","stimuli/HF02_FO.jpg","stimuli/BF08_SC.jpg","pos2","stimuli/BM03_SUR.jpg","SUR","BM03","1","1","2","2","stimuli/stars_2.png","173.5","[""HO"",""SUR"",""FO"",""SC""]","[""AM03"",""BM03"",""HF02"",""BF08""]","[7,2,4,6]","[8,2,4,6]","","",""
"show-reward","118","375170","0.0-118.0","p918927","A10DTLF1LXFY0V","3087LXLJ6NMH85PJ46SJUKP4Z1V0FD","3N8OEVH1FTWZ4JSPVWILWZPP8GYOOY","model","mismatch","uniform","","","","","","","","375619.40000009537","377631.7000002861","","","","","","","","","","","","2","","stimuli/stars_2.png","173.5","","","","","stimuli/BM03_SUR.jpg","",""
"explore-choice","119","376524","0.0-119.0","p918927","A10DTLF1LXFY0V","3087LXLJ6NMH85PJ46SJUKP4Z1V0FD","3N8OEVH1FTWZ4JSPVWILWZPP8GYOOY","model","mismatch","uniform","","","","","","","840","377633.7000002861","378473.7000002861","[""stimuli/BM03_SUR.jpg"",""stimuli/AM03_SC.jpg"",""stimuli/HF02_FO.jpg"",""stimuli/BF08_HO.jpg""]","stimuli/BM03_SUR.jpg","stimuli/AM03_SC.jpg","stimuli/HF02_FO.jpg","stimuli/BF08_HO.jpg","pos4","stimuli/BF08_HO.jpg","HO","BF08","3","3","6","8","stimuli/stars_6.png","176.5","[""SUR"",""SC"",""FO"",""HO""]","[""BM03"",""AM03"",""HF02"",""BF08""]","[3,6,5,6]","[2,6,4,8]","","",""
"show-reward","120","378586","0.0-120.0","p918927","A10DTLF1LXFY0V","3087LXLJ6NMH85PJ46SJUKP4Z1V0FD","3N8OEVH1FTWZ4JSPVWILWZPP8GYOOY","model","mismatch","uniform","","","","","","","","378986.7000002861","381048.40000009537","","","","","","","","","","","","6","","stimuli/stars_6.png","176.5","","","","","stimuli/BF08_HO.jpg","",""
"explore-choice","121","380190","0.0-121.0","p918927","A10DTLF1LXFY0V","3087LXLJ6NMH85PJ46SJUKP4Z1V0FD","3N8OEVH1FTWZ4JSPVWILWZPP8GYOOY","model","mismatch","uniform","","","","","","","1086.5","381050.7000002861","382137.2000002861","[""stimuli/AM03_SUR.jpg"",""stimuli/HF02_HO.jpg"",""stimuli/BF08_SC.jpg"",""stimuli/BM03_FO.jpg""]","stimuli/AM03_SUR.jpg","stimuli/HF02_HO.jpg","stimuli/BF08_SC.jpg","stimuli/BM03_FO.jpg","pos3","stimuli/BF08_SC.jpg","SC","BF08","2","4","8","6","stimuli/stars_8.png","180.5","[""SUR"",""HO"",""SC"",""FO""]","[""AM03"",""HF02"",""BF08"",""BM03""]","[1,7,8,2]","[2,8,6,4]","","",""
"show-reward","122","382200","0.0-122.0","p918927","A10DTLF1LXFY0V","3087LXLJ6NMH85PJ46SJUKP4Z1V0FD","3N8OEVH1FTWZ4JSPVWILWZPP8GYOOY","model","mismatch","uniform","","","","","","","","382652.80000019073","384661.59999990463","","","","","","","","","","","","8","","stimuli/stars_8.png","180.5","","","","","stimuli/BF08_SC.jpg","",""
"explore-choice","123","384009","0.0-123.0","p918927","A10DTLF1LXFY0V","3087LXLJ6NMH85PJ46SJUKP4Z1V0FD","3N8OEVH1FTWZ4JSPVWILWZPP8GYOOY","model","mismatch","uniform","","","","","","","1306.5","384663","385969.5","[""stimuli/BM03_SC.jpg"",""stimuli/BF08_FO.jpg"",""stimuli/HF02_HO.jpg"",""stimuli/AM03_SUR.jpg""]","stimuli/BM03_SC.jpg","stimuli/BF08_FO.jpg","stimuli/HF02_HO.jpg","stimuli/AM03_SUR.jpg","pos2","stimuli/BF08_FO.jpg","FO","BF08","1","1.5","3","4","stimuli/stars_3.png","182","[""SC"",""FO"",""HO"",""SUR""]","[""BM03"",""BF08"",""HF02"",""AM03""]","[6,3,6,4]","[6,4,8,2]","","",""
"show-reward","124","386021","0.0-124.0","p918927","A10DTLF1LXFY0V","3087LXLJ6NMH85PJ46SJUKP4Z1V0FD","3N8OEVH1FTWZ4JSPVWILWZPP8GYOOY","model","mismatch","uniform","","","","","","","","386471.90000009537","388483.30000019073","","","","","","","","","","","","3","","stimuli/stars_3.png","182","","","","","stimuli/BF08_FO.jpg","",""
"explore-choice","125","389098","0.0-125.0","p918927","A10DTLF1LXFY0V","3087LXLJ6NMH85PJ46SJUKP4Z1V0FD","3N8OEVH1FTWZ4JSPVWILWZPP8GYOOY","model","mismatch","uniform","","","","","","","2573.0999999046326","388484.2000002861","391057.30000019073","[""stimuli/BF08_SUR.jpg"",""stimuli/HF02_HO.jpg"",""stimuli/AM03_FO.jpg"",""stimuli/BM03_SC.jpg""]","stimuli/BF08_SUR.jpg","stimuli/HF02_HO.jpg","stimuli/AM03_FO.jpg","stimuli/BM03_SC.jpg","pos3","stimuli/AM03_FO.jpg","FO","AM03","2","3","6","4","stimuli/stars_6.png","185","[""SUR"",""HO"",""FO"",""SC""]","[""BF08"",""HF02"",""AM03"",""BM03""]","[3,9,6,6]","[2,8,4,6]","","",""
"show-reward","126","391105","0.0-126.0","p918927","A10DTLF1LXFY0V","3087LXLJ6NMH85PJ46SJUKP4Z1V0FD","3N8OEVH1FTWZ4JSPVWILWZPP8GYOOY","model","mismatch","uniform","","","","","","","","391561.59999990463","393567.09999990463","","","","","","","","","","","","6","","stimuli/stars_6.png","185","","","","","stimuli/AM03_FO.jpg","",""
"explore-choice","127","393242","0.0-127.0","p918927","A10DTLF1LXFY0V","3087LXLJ6NMH85PJ46SJUKP4Z1V0FD","3N8OEVH1FTWZ4JSPVWILWZPP8GYOOY","model","mismatch","uniform","","","","","","","1620.4000000953674","393568.90000009537","395189.30000019073","[""stimuli/AM03_SC.jpg"",""stimuli/HF02_HO.jpg"",""stimuli/BM03_SUR.jpg"",""stimuli/BF08_FO.jpg""]","stimuli/AM03_SC.jpg","stimuli/HF02_HO.jpg","stimuli/BM03_SUR.jpg","stimuli/BF08_FO.jpg","pos1","stimuli/AM03_SC.jpg","SC","AM03","0","3.5","7","6","stimuli/stars_7.png","188.5","[""SC"",""HO"",""SUR"",""FO""]","[""AM03"",""HF02"",""BM03"",""BF08""]","[7,9,4,5]","[6,8,2,4]","","",""
"show-reward","128","395247","0.0-128.0","p918927","A10DTLF1LXFY0V","3087LXLJ6NMH85PJ46SJUKP4Z1V0FD","3N8OEVH1FTWZ4JSPVWILWZPP8GYOOY","model","mismatch","uniform","","","","","","","","395705.2000002861","397709.30000019073","","","","","","","","","","","","7","","stimuli/stars_7.png","188.5","","","","","stimuli/AM03_SC.jpg","",""
"explore-choice","129","397542","0.0-129.0","p918927","A10DTLF1LXFY0V","3087LXLJ6NMH85PJ46SJUKP4Z1V0FD","3N8OEVH1FTWZ4JSPVWILWZPP8GYOOY","model","mismatch","uniform","","","","","","","1788.2999997138977","397710.2000002861","399498.5","[""stimuli/HF02_SUR.jpg"",""stimuli/BF08_FO.jpg"",""stimuli/BM03_HO.jpg"",""stimuli/AM03_SC.jpg""]","stimuli/HF02_SUR.jpg","stimuli/BF08_FO.jpg","stimuli/BM03_HO.jpg","stimuli/AM03_SC.jpg","pos4","stimuli/AM03_SC.jpg","SC","AM03","3","2","4","6","stimuli/stars_4.png","190.5","[""SUR"",""FO"",""HO"",""SC""]","[""HF02"",""BF08"",""BM03"",""AM03""]","[3,5,8,4]","[2,4,8,6]","","",""
"show-reward","130","399556","0.0-130.0","p918927","A10DTLF1LXFY0V","3087LXLJ6NMH85PJ46SJUKP4Z1V0FD","3N8OEVH1FTWZ4JSPVWILWZPP8GYOOY","model","mismatch","uniform","","","","","","","","400005.30000019073","402017.40000009537","","","","","","","","","","","","4","","stimuli/stars_4.png","190.5","","","","","stimuli/AM03_SC.jpg","",""
"explore-choice","131","402017","0.0-131.0","p918927","A10DTLF1LXFY0V","3087LXLJ6NMH85PJ46SJUKP4Z1V0FD","3N8OEVH1FTWZ4JSPVWILWZPP8GYOOY","model","mismatch","uniform","","","","","","","1952","402019","403971","[""stimuli/BM03_FO.jpg"",""stimuli/HF02_SUR.jpg"",""stimuli/AM03_SC.jpg"",""stimuli/BF08_HO.jpg""]","stimuli/BM03_FO.jpg","stimuli/HF02_SUR.jpg","stimuli/AM03_SC.jpg","stimuli/BF08_HO.jpg","pos3","stimuli/AM03_SC.jpg","SC","AM03","2","2","4","6","stimuli/stars_4.png","192.5","[""FO"",""SUR"",""SC"",""HO""]","[""BM03"",""HF02"",""AM03"",""BF08""]","[2,1,4,7]","[4,2,6,8]","","",""
"show-reward","132","404030","0.0-132.0","p918927","A10DTLF1LXFY0V","3087LXLJ6NMH85PJ46SJUKP4Z1V0FD","3N8OEVH1FTWZ4JSPVWILWZPP8GYOOY","model","mismatch","uniform","","","","","","","","404480.40000009537","406492.2000002861","","","","","","","","","","","","4","","stimuli/stars_4.png","192.5","","","","","stimuli/AM03_SC.jpg","",""
"explore-choice","133","406539","0.0-133.0","p918927","A10DTLF1LXFY0V","3087LXLJ6NMH85PJ46SJUKP4Z1V0FD","3N8OEVH1FTWZ4JSPVWILWZPP8GYOOY","model","mismatch","uniform","","","","","","","1993.3999996185303","406493.7000002861","408487.09999990463","[""stimuli/BF08_HO.jpg"",""stimuli/AM03_SUR.jpg"",""stimuli/BM03_SC.jpg"",""stimuli/HF02_FO.jpg""]","stimuli/BF08_HO.jpg","stimuli/AM03_SUR.jpg","stimuli/BM03_SC.jpg","stimuli/HF02_FO.jpg","pos4","stimuli/HF02_FO.jpg","FO","HF02","3","1","2","4","stimuli/stars_2.png","193.5","[""HO"",""SUR"",""SC"",""FO""]","[""BF08"",""AM03"",""BM03"",""HF02""]","[6,1,5,2]","[8,2,6,4]","","",""
"show-reward","134","408545","0.0-134.0","p918927","A10DTLF1LXFY0V","3087LXLJ6NMH85PJ46SJUKP4Z1V0FD","3N8OEVH1FTWZ4JSPVWILWZPP8GYOOY","model","mismatch","uniform","","","","","","","","409002.30000019073","411011.59999990463","","","","","","","","","","","","2","","stimuli/stars_2.png","193.5","","","","","stimuli/HF02_FO.jpg","",""
"explore-choice","135","410822","0.0-135.0","p918927","A10DTLF1LXFY0V","3087LXLJ6NMH85PJ46SJUKP4Z1V0FD","3N8OEVH1FTWZ4JSPVWILWZPP8GYOOY","model","mismatch","uniform","","","","","","","1775.0999999046326","411013.40000009537","412788.5","[""stimuli/BF08_SUR.jpg"",""stimuli/BM03_FO.jpg"",""stimuli/AM03_SC.jpg"",""stimuli/HF02_HO.jpg""]","stimuli/BF08_SUR.jpg","stimuli/BM03_FO.jpg","stimuli/AM03_SC.jpg","stimuli/HF02_HO.jpg","pos1","stimuli/BF08_SUR.jpg","SUR","BF08","0","2","4","2","stimuli/stars_4.png","195.5","[""SUR"",""FO"",""SC"",""HO""]","[""BF08"",""BM03"",""AM03"",""HF02""]","[4,3,7,6]","[2,4,6,8]","","",""
"show-reward","136","412834","0.0-136.0","p918927","A10DTLF1LXFY0V","3087LXLJ6NMH85PJ46SJUKP4Z1V0FD","3N8OEVH1FTWZ4JSPVWILWZPP8GYOOY","model","mismatch","uniform","","","","","","","","413289.90000009537","415300.5","","","","","","","","","","","","4","","stimuli/stars_4.png","195.5","","","","","stimuli/BF08_SUR.jpg","",""
"explore-choice","137","414486","0.0-137.0","p918927","A10DTLF1LXFY0V","3087LXLJ6NMH85PJ46SJUKP4Z1V0FD","3N8OEVH1FTWZ4JSPVWILWZPP8GYOOY","model","mismatch","uniform","","","","","","","1150.4000000953674","415302","416452.40000009537","[""stimuli/HF02_SC.jpg"",""stimuli/AM03_HO.jpg"",""stimuli/BM03_SUR.jpg"",""stimuli/BF08_FO.jpg""]","stimuli/HF02_SC.jpg","stimuli/AM03_HO.jpg","stimuli/BM03_SUR.jpg","stimuli/BF08_FO.jpg","pos2","stimuli/AM03_HO.jpg","HO","AM03","1","5","10","8","stimuli/stars_10.png","200.5","[""SC"",""HO"",""SUR"",""FO""]","[""HF02"",""AM03"",""BM03"",""BF08""]","[6,10,4,5]","[6,8,2,4]","","",""
"show-reward","138","416499","0.0-138.0","p918927","A10DTLF1LXFY0V","3087LXLJ6NMH85PJ46SJUKP4Z1V0FD","3N8OEVH1FTWZ4JSPVWILWZPP8GYOOY","model","mismatch","uniform","","","","","","","","416954","418965.7000002861","","","","","","","","","","","","10","","stimuli/stars_10.png","200.5","","","","","stimuli/AM03_HO.jpg","",""
"explore-choice","139","418212","0.0-139.0","p918927","A10DTLF1LXFY0V","3087LXLJ6NMH85PJ46SJUKP4Z1V0FD","3N8OEVH1FTWZ4JSPVWILWZPP8GYOOY","model","mismatch","uniform","","","","","","","1210.8000001907349","418967.59999990463","420178.40000009537","[""stimuli/AM03_FO.jpg"",""stimuli/BM03_HO.jpg"",""stimuli/HF02_SC.jpg"",""stimuli/BF08_SUR.jpg""]","stimuli/AM03_FO.jpg","stimuli/BM03_HO.jpg","stimuli/HF02_SC.jpg","stimuli/BF08_SUR.jpg","pos1","stimuli/AM03_FO.jpg","FO","AM03","0","2","4","4","stimuli/stars_4.png","202.5","[""FO"",""HO"",""SC"",""SUR""]","[""AM03"",""BM03"",""HF02"",""BF08""]","[4,10,6,0]","[4,8,6,2]","","",""
"show-reward","140","420224","0.0-140.0","p918927","A10DTLF1LXFY0V","3087LXLJ6NMH85PJ46SJUKP4Z1V0FD","3N8OEVH1FTWZ4JSPVWILWZPP8GYOOY","model","mismatch","uniform","","","","","","","","420680.90000009537","422690.80000019073","","","","","","","","","","","","4","","stimuli/stars_4.png","202.5","","","","","stimuli/AM03_FO.jpg","",""
"explore-choice","141","421439","0.0-141.0","p918927","A10DTLF1LXFY0V","3087LXLJ6NMH85PJ46SJUKP4Z1V0FD","3N8OEVH1FTWZ4JSPVWILWZPP8GYOOY","model","mismatch","uniform","","","","","","","701.3000001907349","422693.09999990463","423394.40000009537","[""stimuli/AM03_SUR.jpg"",""stimuli/BF08_FO.jpg"",""stimuli/HF02_SC.jpg"",""stimuli/BM03_HO.jpg""]","stimuli/AM03_SUR.jpg","stimuli/BF08_FO.jpg","stimuli/HF02_SC.jpg","stimuli/BM03_HO.jpg","pos3","stimuli/HF02_SC.jpg","SC","HF02","2","3","6","6","stimuli/stars_6.png","205.5","[""SUR"",""FO"",""SC"",""HO""]","[""AM03"",""BF08"",""HF02"",""BM03""]","[1,5,6,9]","[2,4,6,8]","","",""
"show-reward","142","423455","0.0-142.0","p918927","A10DTLF1LXFY0V","3087LXLJ6NMH85PJ46SJUKP4Z1V0FD","3N8OEVH1FTWZ4JSPVWILWZPP8GYOOY","model","mismatch","uniform","","","","","","","","423906.90000009537","425921.7000002861","","","","","","","","","","","","6","","stimuli/stars_6.png","205.5","","","","","stimuli/HF02_SC.jpg","",""
"explore-choice","143","424868","0.0-143.0","p918927","A10DTLF1LXFY0V","3087LXLJ6NMH85PJ46SJUKP4Z1V0FD","3N8OEVH1FTWZ4JSPVWILWZPP8GYOOY","model","mismatch","uniform","","","","","","","896.3999996185303","425923.2000002861","426819.59999990463","[""stimuli/AM03_HO.jpg"",""stimuli/BM03_FO.jpg"",""stimuli/HF02_SC.jpg"",""stimuli/BF08_SUR.jpg""]","stimuli/AM03_HO.jpg","stimuli/BM03_FO.jpg","stimuli/HF02_SC.jpg","stimuli/BF08_SUR.jpg","pos3","stimuli/HF02_SC.jpg","SC","HF02","2","3","6","6","stimuli/stars_6.png","208.5","[""HO"",""FO"",""SC"",""SUR""]","[""AM03"",""BM03"",""HF02"",""BF08""]","[9,3,6,2]","[8,4,6,2]","","",""
"show-reward","144","426876","0.0-144.0","p918927","A10DTLF1LXFY0V","3087LXLJ6NMH85PJ46SJUKP4Z1V0FD","3N8OEVH1FTWZ4JSPVWILWZPP8GYOOY","model","mismatch","uniform","","","","","","","","427336.59999990463","429342.90000009537","","","","","","","","","","","","6","","stimuli/stars_6.png","208.5","","","","","stimuli/HF02_SC.jpg","",""
"explore-choice","145","428572","0.0-145.0","p918927","A10DTLF1LXFY0V","3087LXLJ6NMH85PJ46SJUKP4Z1V0FD","3N8OEVH1FTWZ4JSPVWILWZPP8GYOOY","model","mismatch","uniform","","","","","","","1194.3000001907349","429343.90000009537","430538.2000002861","[""stimuli/AM03_FO.jpg"",""stimuli/BM03_SUR.jpg"",""stimuli/BF08_HO.jpg"",""stimuli/HF02_SC.jpg""]","stimuli/AM03_FO.jpg","stimuli/BM03_SUR.jpg","stimuli/BF08_HO.jpg","stimuli/HF02_SC.jpg","pos2","stimuli/BM03_SUR.jpg","SUR","BM03","1","2","4","2","stimuli/stars_4.png","210.5","[""FO"",""SUR"",""HO"",""SC""]","[""AM03"",""BM03"",""BF08"",""HF02""]","[5,4,7,6]","[4,2,8,6]","","",""
"show-reward","146","430588","0.0-146.0","p918927","A10DTLF1LXFY0V","3087LXLJ6NMH85PJ46SJUKP4Z1V0FD","3N8OEVH1FTWZ4JSPVWILWZPP8GYOOY","model","mismatch","uniform","","","","","","","","431040.09999990463","433055.09999990463","","","","","","","","","","","","4","","stimuli/stars_4.png","210.5","","","","","stimuli/BM03_SUR.jpg","",""
"explore-choice","147","432345","0.0-147.0","p918927","A10DTLF1LXFY0V","3087LXLJ6NMH85PJ46SJUKP4Z1V0FD","3N8OEVH1FTWZ4JSPVWILWZPP8GYOOY","model","mismatch","uniform","","","","","","","1243.5","433056.7000002861","434300.2000002861","[""stimuli/BF08_FO.jpg"",""stimuli/AM03_HO.jpg"",""stimuli/BM03_SC.jpg"",""stimuli/HF02_SUR.jpg""]","stimuli/BF08_FO.jpg","stimuli/AM03_HO.jpg","stimuli/BM03_SC.jpg","stimuli/HF02_SUR.jpg","pos4","stimuli/HF02_SUR.jpg","SUR","HF02","3","1","2","2","stimuli/stars_2.png","211.5","[""FO"",""HO"",""SC"",""SUR""]","[""BF08"",""AM03"",""BM03"",""HF02""]","[6,9,7,2]","[4,8,6,2]","","",""
"show-reward","148","434361","0.0-148.0","p918927","A10DTLF1LXFY0V","3087LXLJ6NMH85PJ46SJUKP4Z1V0FD","3N8OEVH1FTWZ4JSPVWILWZPP8GYOOY","model","mismatch","uniform","","","","","","","","434813","436828","","","","","","","","","","","","2","","stimuli/stars_2.png","211.5","","","","","stimuli/HF02_SUR.jpg","",""
"explore-choice","149","437329","0.0-149.0","p918927","A10DTLF1LXFY0V","3087LXLJ6NMH85PJ46SJUKP4Z1V0FD","3N8OEVH1FTWZ4JSPVWILWZPP8GYOOY","model","mismatch","uniform","","","","","","","2458.300000190735","436829.59999990463","439287.90000009537","[""stimuli/HF02_FO.jpg"",""stimuli/BM03_SC.jpg"",""stimuli/AM03_HO.jpg"",""stimuli/BF08_SUR.jpg""]","stimuli/HF02_FO.jpg","stimuli/BM03_SC.jpg","stimuli/AM03_HO.jpg","stimuli/BF08_SUR.jpg","pos3","stimuli/AM03_HO.jpg","HO","AM03","2","4","8","8","stimuli/stars_8.png","215.5","[""FO"",""SC"",""HO"",""SUR""]","[""HF02"",""BM03"",""AM03"",""BF08""]","[6,7,8,0]","[4,6,8,2]","","",""
"show-reward","150","439343","0.0-150.0","p918927","A10DTLF1LXFY0V","3087LXLJ6NMH85PJ46SJUKP4Z1V0FD","3N8OEVH1FTWZ4JSPVWILWZPP8GYOOY","model","mismatch","uniform","","","","","","","","439796.80000019073","441809.7000002861","","","","","","","","","","","","8","","stimuli/stars_8.png","215.5","","","","","stimuli/AM03_HO.jpg","",""
"explore-choice","151","441501","0.0-151.0","p918927","A10DTLF1LXFY0V","3087LXLJ6NMH85PJ46SJUKP4Z1V0FD","3N8OEVH1FTWZ4JSPVWILWZPP8GYOOY","model","mismatch","uniform","","","","","","","1656.5","441811","443467.5","[""stimuli/AM03_HO.jpg"",""stimuli/BM03_SC.jpg"",""stimuli/BF08_SUR.jpg"",""stimuli/HF02_FO.jpg""]","stimuli/AM03_HO.jpg","stimuli/BM03_SC.jpg","stimuli/BF08_SUR.jpg","stimuli/HF02_FO.jpg","pos1","stimuli/AM03_HO.jpg","HO","AM03","0","4","8","8","stimuli/stars_8.png","219.5","[""HO"",""SC"",""SUR"",""FO""]","[""AM03"",""BM03"",""BF08"",""HF02""]","[8,7,0,6]","[8,6,2,4]","","",""
"show-reward","152","443512","0.0-152.0","p918927","A10DTLF1LXFY0V","3087LXLJ6NMH85PJ46SJUKP4Z1V0FD","3N8OEVH1FTWZ4JSPVWILWZPP8GYOOY","model","mismatch","uniform","","","","","","","","443968.7000002861","445978.90000009537","","","","","","","","","","","","8","","stimuli/stars_8.png","219.5","","","","","stimuli/AM03_HO.jpg","",""
"explore-choice","153","445570","0.0-153.0","p918927","A10DTLF1LXFY0V","3087LXLJ6NMH85PJ46SJUKP4Z1V0FD","3N8OEVH1FTWZ4JSPVWILWZPP8GYOOY","model","mismatch","uniform","","","","","","","1543.2000002861023","445980.09999990463","447523.30000019073","[""stimuli/BM03_SUR.jpg"",""stimuli/BF08_SC.jpg"",""stimuli/HF02_HO.jpg"",""stimuli/AM03_FO.jpg""]","stimuli/BM03_SUR.jpg","stimuli/BF08_SC.jpg","stimuli/HF02_HO.jpg","stimuli/AM03_FO.jpg","pos4","stimuli/AM03_FO.jpg","FO","AM03","3","3","6","4","stimuli/stars_6.png","222.5","[""SUR"",""SC"",""HO"",""FO""]","[""BM03"",""BF08"",""HF02"",""AM03""]","[1,8,8,6]","[2,6,8,4]","","",""
"show-reward","154","447574","0.0-154.0","p918927","A10DTLF1LXFY0V","3087LXLJ6NMH85PJ46SJUKP4Z1V0FD","3N8OEVH1FTWZ4JSPVWILWZPP8GYOOY","model","mismatch","uniform","","","","","","","","448038.30000019073","450041.30000019073","","","","","","","","","","","","6","","stimuli/stars_6.png","222.5","","","","","stimuli/AM03_FO.jpg","",""
"explore-choice","155","449155","0.0-155.0","p918927","A10DTLF1LXFY0V","3087LXLJ6NMH85PJ46SJUKP4Z1V0FD","3N8OEVH1FTWZ4JSPVWILWZPP8GYOOY","model","mismatch","uniform","","","","","","","1075.5","450042.09999990463","451117.59999990463","[""stimuli/HF02_FO.jpg"",""stimuli/BF08_SC.jpg"",""stimuli/BM03_HO.jpg"",""stimuli/AM03_SUR.jpg""]","stimuli/HF02_FO.jpg","stimuli/BF08_SC.jpg","stimuli/BM03_HO.jpg","stimuli/AM03_SUR.jpg","pos4","stimuli/AM03_SUR.jpg","SUR","AM03","3","2","4","2","stimuli/stars_4.png","224.5","[""FO"",""SC"",""HO"",""SUR""]","[""HF02"",""BF08"",""BM03"",""AM03""]","[3,6,6,4]","[4,6,8,2]","","",""
"show-reward","156","451169","0.0-156.0","p918927","A10DTLF1LXFY0V","3087LXLJ6NMH85PJ46SJUKP4Z1V0FD","3N8OEVH1FTWZ4JSPVWILWZPP8GYOOY","model","mismatch","uniform","","","","","","","","451623.30000019073","453636.09999990463","","","","","","","","","","","","4","","stimuli/stars_4.png","224.5","","","","","stimuli/AM03_SUR.jpg","",""
"explore-choice","157","453656","0.0-157.0","p918927","A10DTLF1LXFY0V","3087LXLJ6NMH85PJ46SJUKP4Z1V0FD","3N8OEVH1FTWZ4JSPVWILWZPP8GYOOY","model","mismatch","uniform","","","","","","","1974.0999999046326","453637.5","455611.59999990463","[""stimuli/BF08_HO.jpg"",""stimuli/HF02_SC.jpg"",""stimuli/BM03_SUR.jpg"",""stimuli/AM03_FO.jpg""]","stimuli/BF08_HO.jpg","stimuli/HF02_SC.jpg","stimuli/BM03_SUR.jpg","stimuli/AM03_FO.jpg","pos2","stimuli/HF02_SC.jpg","SC","HF02","1","3","6","6","stimuli/stars_6.png","227.5","[""HO"",""SC"",""SUR"",""FO""]","[""BF08"",""HF02"",""BM03"",""AM03""]","[7,6,4,5]","[8,6,2,4]","","",""
"show-reward","158","455660","0.0-158.0","p918927","A10DTLF1LXFY0V","3087LXLJ6NMH85PJ46SJUKP4Z1V0FD","3N8OEVH1FTWZ4JSPVWILWZPP8GYOOY","model","mismatch","uniform","","","","","","","","456124.09999990463","458126.90000009537","","","","","","","","","","","","6","","stimuli/stars_6.png","227.5","","","","","stimuli/HF02_SC.jpg","",""
"explore-choice","159","457393","0.0-159.0","p918927","A10DTLF1LXFY0V","3087LXLJ6NMH85PJ46SJUKP4Z1V0FD","3N8OEVH1FTWZ4JSPVWILWZPP8GYOOY","model","mismatch","uniform","","","","","","","1231.7999997138977","458127.7000002861","459359.5","[""stimuli/AM03_FO.jpg"",""stimuli/BF08_HO.jpg"",""stimuli/HF02_SUR.jpg"",""stimuli/BM03_SC.jpg""]","stimuli/AM03_FO.jpg","stimuli/BF08_HO.jpg","stimuli/HF02_SUR.jpg","stimuli/BM03_SC.jpg","pos2","stimuli/BF08_HO.jpg","HO","BF08","1","3","6","8","stimuli/stars_6.png","230.5","[""FO"",""HO"",""SUR"",""SC""]","[""AM03"",""BF08"",""HF02"",""BM03""]","[3,6,3,5]","[4,8,2,6]","","",""
"show-reward","160","459408","0.0-160.0","p918927","A10DTLF1LXFY0V","3087LXLJ6NMH85PJ46SJUKP4Z1V0FD","3N8OEVH1FTWZ4JSPVWILWZPP8GYOOY","model","mismatch","uniform","","","","","","","","459860.80000019073","461875.2000002861","","","","","","","","","","","","6","","stimuli/stars_6.png","230.5","","","","","stimuli/BF08_HO.jpg","",""
"explore-choice","161","461086","0.0-161.0","p918927","A10DTLF1LXFY0V","3087LXLJ6NMH85PJ46SJUKP4Z1V0FD","3N8OEVH1FTWZ4JSPVWILWZPP8GYOOY","model","mismatch","uniform","","","","","","","1172.4000000953674","461876.30000019073","463048.7000002861","[""stimuli/BM03_SUR.jpg"",""stimuli/HF02_SC.jpg"",""stimuli/AM03_HO.jpg"",""stimuli/BF08_FO.jpg""]","stimuli/BM03_SUR.jpg","stimuli/HF02_SC.jpg","stimuli/AM03_HO.jpg","stimuli/BF08_FO.jpg","pos3","stimuli/AM03_HO.jpg","HO","AM03","2","5","10","8","stimuli/stars_10.png","235.5","[""SUR"",""SC"",""HO"",""FO""]","[""BM03"",""HF02"",""AM03"",""BF08""]","[4,6,10,5]","[2,6,8,4]","","",""
"show-reward","162","463095","0.0-162.0","p918927","A10DTLF1LXFY0V","3087LXLJ6NMH85PJ46SJUKP4Z1V0FD","3N8OEVH1FTWZ4JSPVWILWZPP8GYOOY","model","mismatch","uniform","","","","","","","","463554.40000009537","465562.59999990463","","","","","","","","","","","","10","","stimuli/stars_10.png","235.5","","","","","stimuli/AM03_HO.jpg","",""
"explore-choice","163","464762","0.0-163.0","p918927","A10DTLF1LXFY0V","3087LXLJ6NMH85PJ46SJUKP4Z1V0FD","3N8OEVH1FTWZ4JSPVWILWZPP8GYOOY","model","mismatch","uniform","","","","","","","1160.5","465564","466724.5","[""stimuli/HF02_SC.jpg"",""stimuli/AM03_SUR.jpg"",""stimuli/BM03_FO.jpg"",""stimuli/BF08_HO.jpg""]","stimuli/HF02_SC.jpg","stimuli/AM03_SUR.jpg","stimuli/BM03_FO.jpg","stimuli/BF08_HO.jpg","pos2","stimuli/AM03_SUR.jpg","SUR","AM03","1","2","4","2","stimuli/stars_4.png","237.5","[""SC"",""SUR"",""FO"",""HO""]","[""HF02"",""AM03"",""BM03"",""BF08""]","[4,4,2,7]","[6,2,4,8]","","",""
"show-reward","164","466780","0.0-164.0","p918927","A10DTLF1LXFY0V","3087LXLJ6NMH85PJ46SJUKP4Z1V0FD","3N8OEVH1FTWZ4JSPVWILWZPP8GYOOY","model","mismatch","uniform","","","","","","","","467230","469246.80000019073","","","","","","","","","","","","4","","stimuli/stars_4.png","237.5","","","","","stimuli/AM03_SUR.jpg","",""
"explore-choice","165","468971","0.0-165.0","p918927","A10DTLF1LXFY0V","3087LXLJ6NMH85PJ46SJUKP4Z1V0FD","3N8OEVH1FTWZ4JSPVWILWZPP8GYOOY","model","mismatch","uniform","","","","","","","1671.0999999046326","469248","470919.09999990463","[""stimuli/AM03_HO.jpg"",""stimuli/BM03_SC.jpg"",""stimuli/BF08_FO.jpg"",""stimuli/HF02_SUR.jpg""]","stimuli/AM03_HO.jpg","stimuli/BM03_SC.jpg","stimuli/BF08_FO.jpg","stimuli/HF02_SUR.jpg","pos3","stimuli/BF08_FO.jpg","FO","BF08","2","3","6","4","stimuli/stars_6.png","240.5","[""HO"",""SC"",""FO"",""SUR""]","[""AM03"",""BM03"",""BF08"",""HF02""]","[9,7,6,2]","[8,6,4,2]","","",""
"show-reward","166","470982","0.0-166.0","p918927","A10DTLF1LXFY0V","3087LXLJ6NMH85PJ46SJUKP4Z1V0FD","3N8OEVH1FTWZ4JSPVWILWZPP8GYOOY","model","mismatch","uniform","","","","","","","","471425.80000019073","473435.7000002861","","","","","","","","","","","","6","","stimuli/stars_6.png","240.5","","","","","stimuli/BF08_FO.jpg","",""
"explore-choice","167","473276","0.0-167.0","p918927","A10DTLF1LXFY0V","3087LXLJ6NMH85PJ46SJUKP4Z1V0FD","3N8OEVH1FTWZ4JSPVWILWZPP8GYOOY","model","mismatch","uniform","","","","","","","1791.8000001907349","473436.5","475228.30000019073","[""stimuli/BM03_HO.jpg"",""stimuli/AM03_FO.jpg"",""stimuli/HF02_SUR.jpg"",""stimuli/BF08_SC.jpg""]","stimuli/BM03_HO.jpg","stimuli/AM03_FO.jpg","stimuli/HF02_SUR.jpg","stimuli/BF08_SC.jpg","pos3","stimuli/HF02_SUR.jpg","SUR","HF02","2","1","2","2","stimuli/stars_2.png","241.5","[""HO"",""FO"",""SUR"",""SC""]","[""BM03"",""AM03"",""HF02"",""BF08""]","[6,5,2,5]","[8,4,2,6]","","",""
"show-reward","168","475281","0.0-168.0","p918927","A10DTLF1LXFY0V","3087LXLJ6NMH85PJ46SJUKP4Z1V0FD","3N8OEVH1FTWZ4JSPVWILWZPP8GYOOY","model","mismatch","uniform","","","","","","","","475729.80000019073","477734.59999990463","","","","","","","","","","","","2","","stimuli/stars_2.png","241.5","","","","","stimuli/HF02_SUR.jpg","",""
"explore-choice","169","478133","0.0-169.0","p918927","A10DTLF1LXFY0V","3087LXLJ6NMH85PJ46SJUKP4Z1V0FD","3N8OEVH1FTWZ4JSPVWILWZPP8GYOOY","model","mismatch","uniform","","","","","","","2340.3999996185303","477735.7000002861","480076.09999990463","[""stimuli/HF02_HO.jpg"",""stimuli/BM03_SUR.jpg"",""stimuli/BF08_FO.jpg"",""stimuli/AM03_SC.jpg""]","stimuli/HF02_HO.jpg","stimuli/BM03_SUR.jpg","stimuli/BF08_FO.jpg","stimuli/AM03_SC.jpg","pos4","stimuli/AM03_SC.jpg","SC","AM03","3","3.5","7","6","stimuli/stars_7.png","245","[""HO"",""SUR"",""FO"",""SC""]","[""HF02"",""BM03"",""BF08"",""AM03""]","[9,4,5,7]","[8,2,4,6]","","",""
"show-reward","170","480148","0.0-170.0","p918927","A10DTLF1LXFY0V","3087LXLJ6NMH85PJ46SJUKP4Z1V0FD","3N8OEVH1FTWZ4JSPVWILWZPP8GYOOY","model","mismatch","uniform","","","","","","","","480588","482601.40000009537","","","","","","","","","","","","7","","stimuli/stars_7.png","245","","","","","stimuli/AM03_SC.jpg","",""
"explore-choice","171","481781","0.0-171.0","p918927","A10DTLF1LXFY0V","3087LXLJ6NMH85PJ46SJUKP4Z1V0FD","3N8OEVH1FTWZ4JSPVWILWZPP8GYOOY","model","mismatch","uniform","","","","","","","1124.2999997138977","482602.7000002861","483727","[""stimuli/HF02_FO.jpg"",""stimuli/BF08_HO.jpg"",""stimuli/BM03_SUR.jpg"",""stimuli/AM03_SC.jpg""]","stimuli/HF02_FO.jpg","stimuli/BF08_HO.jpg","stimuli/BM03_SUR.jpg","stimuli/AM03_SC.jpg","pos4","stimuli/AM03_SC.jpg","SC","AM03","3","3","6","6","stimuli/stars_6.png","248","[""FO"",""HO"",""SUR"",""SC""]","[""HF02"",""BF08"",""BM03"",""AM03""]","[5,6,3,6]","[4,8,2,6]","","",""
"show-reward","172","483790","0.0-172.0","p918927","A10DTLF1LXFY0V","3087LXLJ6NMH85PJ46SJUKP4Z1V0FD","3N8OEVH1FTWZ4JSPVWILWZPP8GYOOY","model","mismatch","uniform","","","","","","","","484235.5","486243.30000019073","","","","","","","","","","","","6","","stimuli/stars_6.png","248","","","","","stimuli/AM03_SC.jpg","",""
"explore-choice","173","485669","0.0-173.0","p918927","A10DTLF1LXFY0V","3087LXLJ6NMH85PJ46SJUKP4Z1V0FD","3N8OEVH1FTWZ4JSPVWILWZPP8GYOOY","model","mismatch","uniform","","","","","","","1375.8000001907349","486244.59999990463","487620.40000009537","[""stimuli/BM03_SC.jpg"",""stimuli/AM03_FO.jpg"",""stimuli/HF02_HO.jpg"",""stimuli/BF08_SUR.jpg""]","stimuli/BM03_SC.jpg","stimuli/AM03_FO.jpg","stimuli/HF02_HO.jpg","stimuli/BF08_SUR.jpg","pos1","stimuli/BM03_SC.jpg","SC","BM03","0","3","6","6","stimuli/stars_6.png","251","[""SC"",""FO"",""HO"",""SUR""]","[""BM03"",""AM03"",""HF02"",""BF08""]","[6,6,9,3]","[6,4,8,2]","","",""
"show-reward","174","487703","0.0-174.0","p918927","A10DTLF1LXFY0V","3087LXLJ6NMH85PJ46SJUKP4Z1V0FD","3N8OEVH1FTWZ4JSPVWILWZPP8GYOOY","model","mismatch","uniform","","","","","","","","488123.59999990463","490156.59999990463","","","","","","","","","","","","6","","stimuli/stars_6.png","251","","","","","stimuli/BM03_SC.jpg","",""
"explore-choice","175","489897","0.0-175.0","p918927","A10DTLF1LXFY0V","3087LXLJ6NMH85PJ46SJUKP4Z1V0FD","3N8OEVH1FTWZ4JSPVWILWZPP8GYOOY","model","mismatch","uniform","","","","","","","1678","490157.80000019073","491835.80000019073","[""stimuli/AM03_FO.jpg"",""stimuli/HF02_SC.jpg"",""stimuli/BF08_SUR.jpg"",""stimuli/BM03_HO.jpg""]","stimuli/AM03_FO.jpg","stimuli/HF02_SC.jpg","stimuli/BF08_SUR.jpg","stimuli/BM03_HO.jpg","pos4","stimuli/BM03_HO.jpg","HO","BM03","3","5","10","8","stimuli/stars_10.png","256","[""FO"",""SC"",""SUR"",""HO""]","[""AM03"",""HF02"",""BF08"",""BM03""]","[4,6,0,10]","[4,6,2,8]","","",""
"show-reward","176","491901","0.0-176.0","p918927","A10DTLF1LXFY0V","3087LXLJ6NMH85PJ46SJUKP4Z1V0FD","3N8OEVH1FTWZ4JSPVWILWZPP8GYOOY","model","mismatch","uniform","","","","","","","","492351.7000002861","494354.2000002861","","","","","","","","","","","","10","","stimuli/stars_10.png","256","","","","","stimuli/BM03_HO.jpg","",""
"explore-choice","177","494085","0.0-177.0","p918927","A10DTLF1LXFY0V","3087LXLJ6NMH85PJ46SJUKP4Z1V0FD","3N8OEVH1FTWZ4JSPVWILWZPP8GYOOY","model","mismatch","uniform","","","","","","","1682.5999999046326","494355.2000002861","496037.80000019073","[""stimuli/HF02_FO.jpg"",""stimuli/AM03_SC.jpg"",""stimuli/BM03_HO.jpg"",""stimuli/BF08_SUR.jpg""]","stimuli/HF02_FO.jpg","stimuli/AM03_SC.jpg","stimuli/BM03_HO.jpg","stimuli/BF08_SUR.jpg","pos3","stimuli/BM03_HO.jpg","HO","BM03","2","3.5","7","8","stimuli/stars_7.png","259.5","[""FO"",""SC"",""HO"",""SUR""]","[""HF02"",""AM03"",""BM03"",""BF08""]","[5,8,7,1]","[4,6,8,2]","","",""
"show-reward","178","496090","0.0-178.0","p918927","A10DTLF1LXFY0V","3087LXLJ6NMH85PJ46SJUKP4Z1V0FD","3N8OEVH1FTWZ4JSPVWILWZPP8GYOOY","model","mismatch","uniform","","","","","","","","496539.5","498543.09999990463","","","","","","","","","","","","7","","stimuli/stars_7.png","259.5","","","","","stimuli/BM03_HO.jpg","",""
"explore-choice","179","498272","0.0-179.0","p918927","A10DTLF1LXFY0V","3087LXLJ6NMH85PJ46SJUKP4Z1V0FD","3N8OEVH1FTWZ4JSPVWILWZPP8GYOOY","model","mismatch","uniform","","","","","","","1679.6000003814697","498544.59999990463","500224.2000002861","[""stimuli/BM03_FO.jpg"",""stimuli/HF02_HO.jpg"",""stimuli/AM03_SUR.jpg"",""stimuli/BF08_SC.jpg""]","stimuli/BM03_FO.jpg","stimuli/HF02_HO.jpg","stimuli/AM03_SUR.jpg","stimuli/BF08_SC.jpg","pos1","stimuli/BM03_FO.jpg","FO","BM03","0","1","2","4","stimuli/stars_2.png","260.5","[""FO"",""HO"",""SUR"",""SC""]","[""BM03"",""HF02"",""AM03"",""BF08""]","[2,7,1,8]","[4,8,2,6]","","",""
"show-reward","180","500277","0.0-180.0","p918927","A10DTLF1LXFY0V","3087LXLJ6NMH85PJ46SJUKP4Z1V0FD","3N8OEVH1FTWZ4JSPVWILWZPP8GYOOY","model","mismatch","uniform","","","","","","","","500726.40000009537","502730.40000009537","","","","","","","","","","","","2","","stimuli/stars_2.png","260.5","","","","","stimuli/BM03_FO.jpg","",""
"explore-choice","181","501869","0.0-181.0","p918927","A10DTLF1LXFY0V","3087LXLJ6NMH85PJ46SJUKP4Z1V0FD","3N8OEVH1FTWZ4JSPVWILWZPP8GYOOY","model","mismatch","uniform","","","","","","","1086","502731.80000019073","503817.80000019073","[""stimuli/AM03_SUR.jpg"",""stimuli/BM03_HO.jpg"",""stimuli/BF08_FO.jpg"",""stimuli/HF02_SC.jpg""]","stimuli/AM03_SUR.jpg","stimuli/BM03_HO.jpg","stimuli/BF08_FO.jpg","stimuli/HF02_SC.jpg","pos4","stimuli/HF02_SC.jpg","SC","HF02","3","3","6","6","stimuli/stars_6.png","263.5","[""SUR"",""HO"",""FO"",""SC""]","[""AM03"",""BM03"",""BF08"",""HF02""]","[1,9,5,6]","[2,8,4,6]","","",""
"show-reward","182","503878","0.0-182.0","p918927","A10DTLF1LXFY0V","3087LXLJ6NMH85PJ46SJUKP4Z1V0FD","3N8OEVH1FTWZ4JSPVWILWZPP8GYOOY","model","mismatch","uniform","","","","","","","","504323.40000009537","506331.30000019073","","","","","","","","","","","","6","","stimuli/stars_6.png","263.5","","","","","stimuli/HF02_SC.jpg","",""
"explore-choice","183","505845","0.0-183.0","p918927","A10DTLF1LXFY0V","3087LXLJ6NMH85PJ46SJUKP4Z1V0FD","3N8OEVH1FTWZ4JSPVWILWZPP8GYOOY","model","mismatch","uniform","","","","","","","1465.5","506332.40000009537","507797.90000009537","[""stimuli/BM03_FO.jpg"",""stimuli/AM03_HO.jpg"",""stimuli/BF08_SC.jpg"",""stimuli/HF02_SUR.jpg""]","stimuli/BM03_FO.jpg","stimuli/AM03_HO.jpg","stimuli/BF08_SC.jpg","stimuli/HF02_SUR.jpg","pos1","stimuli/BM03_FO.jpg","FO","BM03","0","1.5","3","4","stimuli/stars_3.png","265","[""FO"",""HO"",""SC"",""SUR""]","[""BM03"",""AM03"",""BF08"",""HF02""]","[3,10,4,4]","[4,8,6,2]","","",""
"show-reward","184","507853","0.0-184.0","p918927","A10DTLF1LXFY0V","3087LXLJ6NMH85PJ46SJUKP4Z1V0FD","3N8OEVH1FTWZ4JSPVWILWZPP8GYOOY","model","mismatch","uniform","","","","","","","","508299.90000009537","510306","","","","","","","","","","","","3","","stimuli/stars_3.png","265","","","","","stimuli/BM03_FO.jpg","",""
"explore-choice","185","509456","0.0-185.0","p918927","A10DTLF1LXFY0V","3087LXLJ6NMH85PJ46SJUKP4Z1V0FD","3N8OEVH1FTWZ4JSPVWILWZPP8GYOOY","model","mismatch","uniform","","","","","","","1088","510307","511395","[""stimuli/BM03_SUR.jpg"",""stimuli/AM03_HO.jpg"",""stimuli/HF02_FO.jpg"",""stimuli/BF08_SC.jpg""]","stimuli/BM03_SUR.jpg","stimuli/AM03_HO.jpg","stimuli/HF02_FO.jpg","stimuli/BF08_SC.jpg","pos3","stimuli/HF02_FO.jpg","FO","HF02","2","2","4","4","stimuli/stars_4.png","267","[""SUR"",""HO"",""FO"",""SC""]","[""BM03"",""AM03"",""HF02"",""BF08""]","[2,7,4,6]","[2,8,4,6]","","",""
"show-reward","186","511459","0.0-186.0","p918927","A10DTLF1LXFY0V","3087LXLJ6NMH85PJ46SJUKP4Z1V0FD","3N8OEVH1FTWZ4JSPVWILWZPP8GYOOY","model","mismatch","uniform","","","","","","","","511909.7000002861","513912.40000009537","","","","","","","","","","","","4","","stimuli/stars_4.png","267","","","","","stimuli/HF02_FO.jpg","",""
"explore-choice","187","513523","0.0-187.0","p918927","A10DTLF1LXFY0V","3087LXLJ6NMH85PJ46SJUKP4Z1V0FD","3N8OEVH1FTWZ4JSPVWILWZPP8GYOOY","model","mismatch","uniform","","","","","","","1561.6999998092651","513913.7000002861","515475.40000009537","[""stimuli/AM03_SC.jpg"",""stimuli/BM03_FO.jpg"",""stimuli/HF02_HO.jpg"",""stimuli/BF08_SUR.jpg""]","stimuli/AM03_SC.jpg","stimuli/BM03_FO.jpg","stimuli/HF02_HO.jpg","stimuli/BF08_SUR.jpg","pos3","stimuli/HF02_HO.jpg","HO","HF02","2","3","6","8","stimuli/stars_6.png","270","[""SC"",""FO"",""HO"",""SUR""]","[""AM03"",""BM03"",""HF02"",""BF08""]","[7,3,6,4]","[6,4,8,2]","","",""
"show-reward","188","515529","0.0-188.0","p918927","A10DTLF1LXFY0V","3087LXLJ6NMH85PJ46SJUKP4Z1V0FD","3N8OEVH1FTWZ4JSPVWILWZPP8GYOOY","model","mismatch","uniform","","","","","","","","515977.40000009537","517981.7000002861","","","","","","","","","","","","6","","stimuli/stars_6.png","270","","","","","stimuli/HF02_HO.jpg","",""
"explore-choice","189","517787","0.0-189.0","p918927","A10DTLF1LXFY0V","3087LXLJ6NMH85PJ46SJUKP4Z1V0FD","3N8OEVH1FTWZ4JSPVWILWZPP8GYOOY","model","mismatch","uniform","","","","","","","1756.0999999046326","517983.2000002861","519739.30000019073","[""stimuli/BM03_SC.jpg"",""stimuli/HF02_HO.jpg"",""stimuli/BF08_FO.jpg"",""stimuli/AM03_SUR.jpg""]","stimuli/BM03_SC.jpg","stimuli/HF02_HO.jpg","stimuli/BF08_FO.jpg","stimuli/AM03_SUR.jpg","pos2","stimuli/HF02_HO.jpg","HO","HF02","1","3","6","8","stimuli/stars_6.png","273","[""SC"",""HO"",""FO"",""SUR""]","[""BM03"",""HF02"",""BF08"",""AM03""]","[6,6,3,4]","[6,8,4,2]","","",""
"show-reward","190","519797","0.0-190.0","p918927","A10DTLF1LXFY0V","3087LXLJ6NMH85PJ46SJUKP4Z1V0FD","3N8OEVH1FTWZ4JSPVWILWZPP8GYOOY","model","mismatch","uniform","","","","","","","","520241.09999990463","522250.7000002861","","","","","","","","","","","","6","","stimuli/stars_6.png","273","","","","","stimuli/HF02_HO.jpg","",""
"explore-choice","191","521719","0.0-191.0","p918927","A10DTLF1LXFY0V","3087LXLJ6NMH85PJ46SJUKP4Z1V0FD","3N8OEVH1FTWZ4JSPVWILWZPP8GYOOY","model","mismatch","uniform","","","","","","","1419.1999998092651","522251.90000009537","523671.09999990463","[""stimuli/HF02_SUR.jpg"",""stimuli/BF08_FO.jpg"",""stimuli/AM03_SC.jpg"",""stimuli/BM03_HO.jpg""]","stimuli/HF02_SUR.jpg","stimuli/BF08_FO.jpg","stimuli/AM03_SC.jpg","stimuli/BM03_HO.jpg","pos4","stimuli/BM03_HO.jpg","HO","BM03","3","4","8","8","stimuli/stars_8.png","277","[""SUR"",""FO"",""SC"",""HO""]","[""HF02"",""BF08"",""AM03"",""BM03""]","[3,5,4,8]","[2,4,6,8]","","",""
"show-reward","192","523748","0.0-192.0","p918927","A10DTLF1LXFY0V","3087LXLJ6NMH85PJ46SJUKP4Z1V0FD","3N8OEVH1FTWZ4JSPVWILWZPP8GYOOY","model","mismatch","uniform","","","","","","","","524173","526201.7000002861","","","","","","","","","","","","8","","stimuli/stars_8.png","277","","","","","stimuli/BM03_HO.jpg","",""
"explore-choice","193","525950","0.0-193.0","p918927","A10DTLF1LXFY0V","3087LXLJ6NMH85PJ46SJUKP4Z1V0FD","3N8OEVH1FTWZ4JSPVWILWZPP8GYOOY","model","mismatch","uniform","","","","","","","1692.6999998092651","526202.7000002861","527895.4000000954","[""stimuli/BF08_HO.jpg"",""stimuli/BM03_SC.jpg"",""stimuli/HF02_FO.jpg"",""stimuli/AM03_SUR.jpg""]","stimuli/BF08_HO.jpg","stimuli/BM03_SC.jpg","stimuli/HF02_FO.jpg","stimuli/AM03_SUR.jpg","pos1","stimuli/BF08_HO.jpg","HO","BF08","0","3","6","8","stimuli/stars_6.png","280","[""HO"",""SC"",""FO"",""SUR""]","[""BF08"",""BM03"",""HF02"",""AM03""]","[6,5,2,1]","[8,6,4,2]","","",""
"show-reward","194","527966","0.0-194.0","p918927","A10DTLF1LXFY0V","3087LXLJ6NMH85PJ46SJUKP4Z1V0FD","3N8OEVH1FTWZ4JSPVWILWZPP8GYOOY","model","mismatch","uniform","","","","","","","","528404.2000002861","530419","","","","","","","","","","","","6","","stimuli/stars_6.png","280","","","","","stimuli/BF08_HO.jpg","",""
"explore-choice","195","529869","0.0-195.0","p918927","A10DTLF1LXFY0V","3087LXLJ6NMH85PJ46SJUKP4Z1V0FD","3N8OEVH1FTWZ4JSPVWILWZPP8GYOOY","model","mismatch","uniform","","","","","","","1392.2999997138977","530420.3000001907","531812.5999999046","[""stimuli/BM03_FO.jpg"",""stimuli/BF08_HO.jpg"",""stimuli/AM03_SC.jpg"",""stimuli/HF02_SUR.jpg""]","stimuli/BM03_FO.jpg","stimuli/BF08_HO.jpg","stimuli/AM03_SC.jpg","stimuli/HF02_SUR.jpg","pos2","stimuli/BF08_HO.jpg","HO","BF08","1","3.5","7","8","stimuli/stars_7.png","283.5","[""FO"",""HO"",""SC"",""SUR""]","[""BM03"",""BF08"",""AM03"",""HF02""]","[2,7,4,1]","[4,8,6,2]","","",""
"show-reward","196","531881","0.0-196.0","p918927","A10DTLF1LXFY0V","3087LXLJ6NMH85PJ46SJUKP4Z1V0FD","3N8OEVH1FTWZ4JSPVWILWZPP8GYOOY","model","mismatch","uniform","","","","","","","","532328.7000002861","534339.2000002861","","","","","","","","","","","","7","","stimuli/stars_7.png","283.5","","","","","stimuli/BF08_HO.jpg","",""
"explore-choice","197","534645","0.0-197.0","p918927","A10DTLF1LXFY0V","3087LXLJ6NMH85PJ46SJUKP4Z1V0FD","3N8OEVH1FTWZ4JSPVWILWZPP8GYOOY","model","mismatch","uniform","","","","","","","2248.5","534340.5999999046","536589.0999999046","[""stimuli/HF02_SC.jpg"",""stimuli/BF08_SUR.jpg"",""stimuli/AM03_HO.jpg"",""stimuli/BM03_FO.jpg""]","stimuli/HF02_SC.jpg","stimuli/BF08_SUR.jpg","stimuli/AM03_HO.jpg","stimuli/BM03_FO.jpg","pos3","stimuli/AM03_HO.jpg","HO","AM03","2","4.5","9","8","stimuli/stars_9.png","288","[""SC"",""SUR"",""HO"",""FO""]","[""HF02"",""BF08"",""AM03"",""BM03""]","[6,2,9,3]","[6,2,8,4]","","",""
"show-reward","198","536652","0.0-198.0","p918927","A10DTLF1LXFY0V","3087LXLJ6NMH85PJ46SJUKP4Z1V0FD","3N8OEVH1FTWZ4JSPVWILWZPP8GYOOY","model","mismatch","uniform","","","","","","","","537103.9000000954","539109.4000000954","","","","","","","","","","","","9","","stimuli/stars_9.png","288","","","","","stimuli/AM03_HO.jpg","",""
"instructions","199","540159","0.0-199.0","p918927","A10DTLF1LXFY0V","3087LXLJ6NMH85PJ46SJUKP4Z1V0FD","3N8OEVH1FTWZ4JSPVWILWZPP8GYOOY","model","mismatch","uniform","","","","","","[{""page_index"":0,""viewing_time"":3503.699999809265}]","3505.5999999046326","","","","","","","","","","","","","","","","","","","","","","","",""
"survey-text","200","555540","0.0-200.0-0.0","p918927","A10DTLF1LXFY0V","3087LXLJ6NMH85PJ46SJUKP4Z1V0FD","3N8OEVH1FTWZ4JSPVWILWZPP8GYOOY","model","mismatch","uniform","","","","","","","15374.199999809265","","","","","","","","","","","","","","","","","","","","","","","{""age"":""67""}",""
"survey-text","201","563851","0.0-200.0-1.0","p918927","A10DTLF1LXFY0V","3087LXLJ6NMH85PJ46SJUKP4Z1V0FD","3N8OEVH1FTWZ4JSPVWILWZPP8GYOOY","model","mismatch","uniform","","","","","","","8306.400000095367","","","","","","","","","","","","","","","","","","","","","","","{""gender"":""female""}",""
"survey-text","202","571615","0.0-200.0-2.0","p918927","A10DTLF1LXFY0V","3087LXLJ6NMH85PJ46SJUKP4Z1V0FD","3N8OEVH1FTWZ4JSPVWILWZPP8GYOOY","model","mismatch","uniform","","","","","","","7759.199999809265","","","","","","","","","","","","","","","","","","","","","","","{""country"":""United States""}",""
"survey-text","203","582141","0.0-200.0-3.0","p918927","A10DTLF1LXFY0V","3087LXLJ6NMH85PJ46SJUKP4Z1V0FD","3N8OEVH1FTWZ4JSPVWILWZPP8GYOOY","model","mismatch","uniform","","","","","","","10520.10000038147","","","","","","","","","","","","","","","","","","","","","","","{""language"":""English"",""other_languages"":""none""}",""
"survey-multi-select","204","585257","0.0-201.0","p918927","A10DTLF1LXFY0V","3087LXLJ6NMH85PJ46SJUKP4Z1V0FD","3N8OEVH1FTWZ4JSPVWILWZPP8GYOOY","model","mismatch","uniform","","","","","","","3094.800000190735","","","","","","","","","","","","","","","","","","","","","","","{""race"":[""White""]}","[0]"
"survey-multi-choice","205","592810","0.0-202.0","p918927","A10DTLF1LXFY0V","3087LXLJ6NMH85PJ46SJUKP4Z1V0FD","3N8OEVH1FTWZ4JSPVWILWZPP8GYOOY","model","mismatch","uniform","","","","","","","7539.5","","","","","","","","","","","","","","","","","","","","","","","{""education"":""Bachelor's degree""}","[0]"
"survey-text","206","738570","0.0-203.0","p918927","A10DTLF1LXFY0V","3087LXLJ6NMH85PJ46SJUKP4Z1V0FD","3N8OEVH1FTWZ4JSPVWILWZPP8GYOOY","model","mismatch","uniform","","","","","","","145758.59999990463","","","","","","","","","","","","","","","","","","","","","","","{""patterns"":""I was working on a hypothesis about expression & still testing it out. At first, I associated higher numbers with certain people, so I experimented with choosing that person.That process didn't work as well as I went on so I looked for other patterns."",""strategy"":""Specified above."",""comments"":""Given more time, I would have next tried isolating which square seemed to rate more highly. ""}",""
