"trial_type","trial_index","time_elapsed","internal_node_id","subject","workerId","hitId","assignmentId","structure_condition","match_condition","noise_type","success","timeout","failed_images","failed_audio","failed_video","view_history","rt","start_time","end_time","stimuli","image1","image2","image3","image4","choiceLocation","choiceImage","choiceEmotion","choiceModel","choice_index","reward_score","reward","reward_score_unadjusted","reward_image","score_after_trial","emotions","models","rewards","rewards_unadjusted","stimulus","response","question_order"
"pavlovia","0","9","0.0-0.0","p453686","A2Z43TA0WZ0EG0","3UUIU9GZC6BQMHTLWW3KSJ0W7IE5TB","3IHR8NYAM97DLQU8RCGR71OA1UR4PI","model","match","uniform","","","","","","","","","","","","","","","","","","","","","","","","","","","","","","",""
"preload","1","6433","0.0-1.0","p453686","A2Z43TA0WZ0EG0","3UUIU9GZC6BQMHTLWW3KSJ0W7IE5TB","3IHR8NYAM97DLQU8RCGR71OA1UR4PI","model","match","uniform","true","false","[]","[]","[]","","","","","","","","","","","","","","","","","","","","","","","","","",""
"fullscreen","2","11384","0.0-2.0","p453686","A2Z43TA0WZ0EG0","3UUIU9GZC6BQMHTLWW3KSJ0W7IE5TB","3IHR8NYAM97DLQU8RCGR71OA1UR4PI","model","match","uniform","true","","","","","","","","","","","","","","","","","","","","","","","","","","","","","",""
"instructions","3","18590","0.0-3.0","p453686","A2Z43TA0WZ0EG0","3UUIU9GZC6BQMHTLWW3KSJ0W7IE5TB","3IHR8NYAM97DLQU8RCGR71OA1UR4PI","model","match","uniform","","","","","","[{""page_index"":0,""viewing_time"":7205}]","7205.5","","","","","","","","","","","","","","","","","","","","","","","",""
"explore-choice","4","21379","0.0-4.0","p453686","A2Z43TA0WZ0EG0","3UUIU9GZC6BQMHTLWW3KSJ0W7IE5TB","3IHR8NYAM97DLQU8RCGR71OA1UR4PI","model","match","uniform","","","","","","","2281.7999999523163","20563.200000047684","22845","[""stimuli/sheep.jpg"",""stimuli/hammer.jpg"",""stimuli/basketball.jpg"",""stimuli/horse.jpg""]","stimuli/sheep.jpg","stimuli/hammer.jpg","stimuli/basketball.jpg","stimuli/horse.jpg","pos4","stimuli/horse.jpg","","","3","64","64","64","stimuli/stars_8.png","65","","","","","","",""
"explore-choice","5","23252","0.0-5.0","p453686","A2Z43TA0WZ0EG0","3UUIU9GZC6BQMHTLWW3KSJ0W7IE5TB","3IHR8NYAM97DLQU8RCGR71OA1UR4PI","model","match","uniform","","","","","","","1360.4000000953674","23352.700000047684","24713.10000014305","[""stimuli/hammer.jpg"",""stimuli/basketball.jpg"",""stimuli/horse.jpg"",""stimuli/sheep.jpg""]","stimuli/hammer.jpg","stimuli/basketball.jpg","stimuli/horse.jpg","stimuli/sheep.jpg","pos1","stimuli/hammer.jpg","","","0","8","8","8","stimuli/stars_2.png","9","","","","","","",""
"instructions","6","39344","0.0-6.0","p453686","A2Z43TA0WZ0EG0","3UUIU9GZC6BQMHTLWW3KSJ0W7IE5TB","3IHR8NYAM97DLQU8RCGR71OA1UR4PI","model","match","uniform","","","","","","[{""page_index"":0,""viewing_time"":16092.099999904633}]","16092.200000047684","","","","","","","","","","","","","","","","","","","","","","","",""
"explore-choice","7","42129","0.0-7.0","p453686","A2Z43TA0WZ0EG0","3UUIU9GZC6BQMHTLWW3KSJ0W7IE5TB","3IHR8NYAM97DLQU8RCGR71OA1UR4PI","model","match","uniform","","","","","","","2270.5","41319.10000014305","43589.60000014305","[""stimuli/WM07_SC.jpg"",""stimuli/WF04_DO.jpg"",""stimuli/AF11_FO.jpg"",""stimuli/WF11_HO.jpg""]","stimuli/WM07_SC.jpg","stimuli/WF04_DO.jpg","stimuli/AF11_FO.jpg","stimuli/WF11_HO.jpg","pos4","stimuli/WF11_HO.jpg","HO","WF11","3","2","4","2","stimuli/stars_4.png","3","[""SC"",""DO"",""FO"",""HO""]","[""WM07"",""WF04"",""AF11"",""WF11""]","[8,8,3,4]","[6,8,4,2]","","",""
"show-reward","8","44132","0.0-8.0","p453686","A2Z43TA0WZ0EG0","3UUIU9GZC6BQMHTLWW3KSJ0W7IE5TB","3IHR8NYAM97DLQU8RCGR71OA1UR4PI","model","match","uniform","","","","","","","","44102.700000047684","46105.300000190735","","","","","","","","","","","","4","","stimuli/stars_4.png","3","","","","","stimuli/WF11_HO.jpg","",""
"explore-choice","9","47335","0.0-9.0","p453686","A2Z43TA0WZ0EG0","3UUIU9GZC6BQMHTLWW3KSJ0W7IE5TB","3IHR8NYAM97DLQU8RCGR71OA1UR4PI","model","match","uniform","","","","","","","2696.2000000476837","46106","48802.200000047684","[""stimuli/AF11_DO.jpg"",""stimuli/WF11_FO.jpg"",""stimuli/WF04_SC.jpg"",""stimuli/WM07_HO.jpg""]","stimuli/AF11_DO.jpg","stimuli/WF11_FO.jpg","stimuli/WF04_SC.jpg","stimuli/WM07_HO.jpg","pos4","stimuli/WM07_HO.jpg","HO","WM07","3","3","6","6","stimuli/stars_6.png","6","[""DO"",""FO"",""SC"",""HO""]","[""AF11"",""WF11"",""WF04"",""WM07""]","[4,0,7,6]","[4,2,8,6]","","",""
"show-reward","10","49344","0.0-10.0","p453686","A2Z43TA0WZ0EG0","3UUIU9GZC6BQMHTLWW3KSJ0W7IE5TB","3IHR8NYAM97DLQU8RCGR71OA1UR4PI","model","match","uniform","","","","","","","","49309.800000190735","51316.300000190735","","","","","","","","","","","","6","","stimuli/stars_6.png","6","","","","","stimuli/WM07_HO.jpg","",""
"explore-choice","11","51238","0.0-11.0","p453686","A2Z43TA0WZ0EG0","3UUIU9GZC6BQMHTLWW3KSJ0W7IE5TB","3IHR8NYAM97DLQU8RCGR71OA1UR4PI","model","match","uniform","","","","","","","1393","51317","52710","[""stimuli/WM07_HO.jpg"",""stimuli/WF04_FO.jpg"",""stimuli/AF11_DO.jpg"",""stimuli/WF11_SC.jpg""]","stimuli/WM07_HO.jpg","stimuli/WF04_FO.jpg","stimuli/AF11_DO.jpg","stimuli/WF11_SC.jpg","pos2","stimuli/WF04_FO.jpg","FO","WF04","1","5","10","8","stimuli/stars_10.png","11","[""HO"",""FO"",""DO"",""SC""]","[""WM07"",""WF04"",""AF11"",""WF11""]","[4,10,6,2]","[6,8,4,2]","","",""
"show-reward","12","53239","0.0-12.0","p453686","A2Z43TA0WZ0EG0","3UUIU9GZC6BQMHTLWW3KSJ0W7IE5TB","3IHR8NYAM97DLQU8RCGR71OA1UR4PI","model","match","uniform","","","","","","","","53210.90000009537","55212.10000014305","","","","","","","","","","","","10","","stimuli/stars_10.png","11","","","","","stimuli/WF04_FO.jpg","",""
"explore-choice","13","55703","0.0-13.0","p453686","A2Z43TA0WZ0EG0","3UUIU9GZC6BQMHTLWW3KSJ0W7IE5TB","3IHR8NYAM97DLQU8RCGR71OA1UR4PI","model","match","uniform","","","","","","","1948.6999998092651","55212.800000190735","57161.5","[""stimuli/WF04_SC.jpg"",""stimuli/WM07_FO.jpg"",""stimuli/WF11_HO.jpg"",""stimuli/AF11_DO.jpg""]","stimuli/WF04_SC.jpg","stimuli/WM07_FO.jpg","stimuli/WF11_HO.jpg","stimuli/AF11_DO.jpg","pos4","stimuli/AF11_DO.jpg","DO","AF11","3","1","2","4","stimuli/stars_2.png","12","[""SC"",""FO"",""HO"",""DO""]","[""WF04"",""WM07"",""WF11"",""AF11""]","[7,6,3,2]","[8,6,2,4]","","",""
"show-reward","14","57718","0.0-14.0","p453686","A2Z43TA0WZ0EG0","3UUIU9GZC6BQMHTLWW3KSJ0W7IE5TB","3IHR8NYAM97DLQU8RCGR71OA1UR4PI","model","match","uniform","","","","","","","","57676.5","59690.90000009537","","","","","","","","","","","","2","","stimuli/stars_2.png","12","","","","","stimuli/AF11_DO.jpg","",""
"explore-choice","15","60303","0.0-15.0","p453686","A2Z43TA0WZ0EG0","3UUIU9GZC6BQMHTLWW3KSJ0W7IE5TB","3IHR8NYAM97DLQU8RCGR71OA1UR4PI","model","match","uniform","","","","","","","2082.5","59691.60000014305","61774.10000014305","[""stimuli/WF11_HO.jpg"",""stimuli/WF04_SC.jpg"",""stimuli/AF11_FO.jpg"",""stimuli/WM07_DO.jpg""]","stimuli/WF11_HO.jpg","stimuli/WF04_SC.jpg","stimuli/AF11_FO.jpg","stimuli/WM07_DO.jpg","pos3","stimuli/AF11_FO.jpg","FO","AF11","2","2","4","4","stimuli/stars_4.png","14","[""HO"",""SC"",""FO"",""DO""]","[""WF11"",""WF04"",""AF11"",""WM07""]","[0,10,4,8]","[2,8,4,6]","","",""
"show-reward","16","62305","0.0-16.0","p453686","A2Z43TA0WZ0EG0","3UUIU9GZC6BQMHTLWW3KSJ0W7IE5TB","3IHR8NYAM97DLQU8RCGR71OA1UR4PI","model","match","uniform","","","","","","","","62276.90000009537","64278.800000190735","","","","","","","","","","","","4","","stimuli/stars_4.png","14","","","","","stimuli/AF11_FO.jpg","",""
"explore-choice","17","63467","0.0-17.0","p453686","A2Z43TA0WZ0EG0","3UUIU9GZC6BQMHTLWW3KSJ0W7IE5TB","3IHR8NYAM97DLQU8RCGR71OA1UR4PI","model","match","uniform","","","","","","","653","64279.40000009537","64932.40000009537","[""stimuli/WM07_FO.jpg"",""stimuli/WF04_DO.jpg"",""stimuli/AF11_HO.jpg"",""stimuli/WF11_SC.jpg""]","stimuli/WM07_FO.jpg","stimuli/WF04_DO.jpg","stimuli/AF11_HO.jpg","stimuli/WF11_SC.jpg","pos2","stimuli/WF04_DO.jpg","DO","WF04","1","5","10","8","stimuli/stars_10.png","19","[""FO"",""DO"",""HO"",""SC""]","[""WM07"",""WF04"",""AF11"",""WF11""]","[5,10,5,1]","[6,8,4,2]","","",""
"show-reward","18","65473","0.0-18.0","p453686","A2Z43TA0WZ0EG0","3UUIU9GZC6BQMHTLWW3KSJ0W7IE5TB","3IHR8NYAM97DLQU8RCGR71OA1UR4PI","model","match","uniform","","","","","","","","65441.200000047684","67446.40000009537","","","","","","","","","","","","10","","stimuli/stars_10.png","19","","","","","stimuli/WF04_DO.jpg","",""
"explore-choice","19","68507","0.0-19.0","p453686","A2Z43TA0WZ0EG0","3UUIU9GZC6BQMHTLWW3KSJ0W7IE5TB","3IHR8NYAM97DLQU8RCGR71OA1UR4PI","model","match","uniform","","","","","","","2530.5999999046326","67448.30000019073","69978.90000009537","[""stimuli/WF04_HO.jpg"",""stimuli/AF11_DO.jpg"",""stimuli/WF11_FO.jpg"",""stimuli/WM07_SC.jpg""]","stimuli/WF04_HO.jpg","stimuli/AF11_DO.jpg","stimuli/WF11_FO.jpg","stimuli/WM07_SC.jpg","pos3","stimuli/WF11_FO.jpg","FO","WF11","2","0.5","1","2","stimuli/stars_1.png","19.5","[""HO"",""DO"",""FO"",""SC""]","[""WF04"",""AF11"",""WF11"",""WM07""]","[9,5,1,8]","[8,4,2,6]","","",""
"show-reward","20","70509","0.0-20.0","p453686","A2Z43TA0WZ0EG0","3UUIU9GZC6BQMHTLWW3KSJ0W7IE5TB","3IHR8NYAM97DLQU8RCGR71OA1UR4PI","model","match","uniform","","","","","","","","70480.80000019073","72482.80000019073","","","","","","","","","","","","1","","stimuli/stars_1.png","19.5","","","","","stimuli/WF11_FO.jpg","",""
"explore-choice","21","72620","0.0-21.0","p453686","A2Z43TA0WZ0EG0","3UUIU9GZC6BQMHTLWW3KSJ0W7IE5TB","3IHR8NYAM97DLQU8RCGR71OA1UR4PI","model","match","uniform","","","","","","","1607.9000000953674","72483.70000004768","74091.60000014305","[""stimuli/AF11_SC.jpg"",""stimuli/WF04_HO.jpg"",""stimuli/WM07_FO.jpg"",""stimuli/WF11_DO.jpg""]","stimuli/AF11_SC.jpg","stimuli/WF04_HO.jpg","stimuli/WM07_FO.jpg","stimuli/WF11_DO.jpg","pos4","stimuli/WF11_DO.jpg","DO","WF11","3","2","4","2","stimuli/stars_4.png","21.5","[""SC"",""HO"",""FO"",""DO""]","[""AF11"",""WF04"",""WM07"",""WF11""]","[4,6,8,4]","[4,8,6,2]","","",""
"show-reward","22","74623","0.0-22.0","p453686","A2Z43TA0WZ0EG0","3UUIU9GZC6BQMHTLWW3KSJ0W7IE5TB","3IHR8NYAM97DLQU8RCGR71OA1UR4PI","model","match","uniform","","","","","","","","74594.5","76596.30000019073","","","","","","","","","","","","4","","stimuli/stars_4.png","21.5","","","","","stimuli/WF11_DO.jpg","",""
"explore-choice","23","75926","0.0-23.0","p453686","A2Z43TA0WZ0EG0","3UUIU9GZC6BQMHTLWW3KSJ0W7IE5TB","3IHR8NYAM97DLQU8RCGR71OA1UR4PI","model","match","uniform","","","","","","","792.2000000476837","76596.70000004768","77388.90000009537","[""stimuli/WM07_HO.jpg"",""stimuli/AF11_SC.jpg"",""stimuli/WF04_FO.jpg"",""stimuli/WF11_DO.jpg""]","stimuli/WM07_HO.jpg","stimuli/AF11_SC.jpg","stimuli/WF04_FO.jpg","stimuli/WF11_DO.jpg","pos1","stimuli/WM07_HO.jpg","HO","WM07","0","2","4","6","stimuli/stars_4.png","23.5","[""HO"",""SC"",""FO"",""DO""]","[""WM07"",""AF11"",""WF04"",""WF11""]","[4,6,8,0]","[6,4,8,2]","","",""
"show-reward","24","77938","0.0-24.0","p453686","A2Z43TA0WZ0EG0","3UUIU9GZC6BQMHTLWW3KSJ0W7IE5TB","3IHR8NYAM97DLQU8RCGR71OA1UR4PI","model","match","uniform","","","","","","","","77900.30000019073","79911.40000009537","","","","","","","","","","","","4","","stimuli/stars_4.png","23.5","","","","","stimuli/WM07_HO.jpg","",""
"explore-choice","25","79521","0.0-25.0","p453686","A2Z43TA0WZ0EG0","3UUIU9GZC6BQMHTLWW3KSJ0W7IE5TB","3IHR8NYAM97DLQU8RCGR71OA1UR4PI","model","match","uniform","","","","","","","1068.5","79912","80980.5","[""stimuli/WF04_FO.jpg"",""stimuli/WM07_SC.jpg"",""stimuli/AF11_HO.jpg"",""stimuli/WF11_DO.jpg""]","stimuli/WF04_FO.jpg","stimuli/WM07_SC.jpg","stimuli/AF11_HO.jpg","stimuli/WF11_DO.jpg","pos1","stimuli/WF04_FO.jpg","FO","WF04","0","5","10","8","stimuli/stars_10.png","28.5","[""FO"",""SC"",""HO"",""DO""]","[""WF04"",""WM07"",""AF11"",""WF11""]","[10,6,5,0]","[8,6,4,2]","","",""
"show-reward","26","81530","0.0-26.0","p453686","A2Z43TA0WZ0EG0","3UUIU9GZC6BQMHTLWW3KSJ0W7IE5TB","3IHR8NYAM97DLQU8RCGR71OA1UR4PI","model","match","uniform","","","","","","","","81495.20000004768","83503.20000004768","","","","","","","","","","","","10","","stimuli/stars_10.png","28.5","","","","","stimuli/WF04_FO.jpg","",""
"explore-choice","27","83075","0.0-27.0","p453686","A2Z43TA0WZ0EG0","3UUIU9GZC6BQMHTLWW3KSJ0W7IE5TB","3IHR8NYAM97DLQU8RCGR71OA1UR4PI","model","match","uniform","","","","","","","1033.0999999046326","83503.80000019073","84536.90000009537","[""stimuli/AF11_SC.jpg"",""stimuli/WM07_FO.jpg"",""stimuli/WF11_HO.jpg"",""stimuli/WF04_DO.jpg""]","stimuli/AF11_SC.jpg","stimuli/WM07_FO.jpg","stimuli/WF11_HO.jpg","stimuli/WF04_DO.jpg","pos4","stimuli/WF04_DO.jpg","DO","WF04","3","5","10","8","stimuli/stars_10.png","33.5","[""SC"",""FO"",""HO"",""DO""]","[""AF11"",""WM07"",""WF11"",""WF04""]","[4,5,2,10]","[4,6,2,8]","","",""
"show-reward","28","85078","0.0-28.0","p453686","A2Z43TA0WZ0EG0","3UUIU9GZC6BQMHTLWW3KSJ0W7IE5TB","3IHR8NYAM97DLQU8RCGR71OA1UR4PI","model","match","uniform","","","","","","","","85048.70000004768","87051.70000004768","","","","","","","","","","","","10","","stimuli/stars_10.png","33.5","","","","","stimuli/WF04_DO.jpg","",""
"explore-choice","29","86464","0.0-29.0","p453686","A2Z43TA0WZ0EG0","3UUIU9GZC6BQMHTLWW3KSJ0W7IE5TB","3IHR8NYAM97DLQU8RCGR71OA1UR4PI","model","match","uniform","","","","","","","873.1999998092651","87052.30000019073","87925.5","[""stimuli/WF11_FO.jpg"",""stimuli/AF11_HO.jpg"",""stimuli/WF04_DO.jpg"",""stimuli/WM07_SC.jpg""]","stimuli/WF11_FO.jpg","stimuli/AF11_HO.jpg","stimuli/WF04_DO.jpg","stimuli/WM07_SC.jpg","pos3","stimuli/WF04_DO.jpg","DO","WF04","2","4","8","8","stimuli/stars_8.png","37.5","[""FO"",""HO"",""DO"",""SC""]","[""WF11"",""AF11"",""WF04"",""WM07""]","[1,6,8,6]","[2,4,8,6]","","",""
"show-reward","30","88475","0.0-30.0","p453686","A2Z43TA0WZ0EG0","3UUIU9GZC6BQMHTLWW3KSJ0W7IE5TB","3IHR8NYAM97DLQU8RCGR71OA1UR4PI","model","match","uniform","","","","","","","","88438.30000019073","90448.60000014305","","","","","","","","","","","","8","","stimuli/stars_8.png","37.5","","","","","stimuli/WF04_DO.jpg","",""
"explore-choice","31","91264","0.0-31.0","p453686","A2Z43TA0WZ0EG0","3UUIU9GZC6BQMHTLWW3KSJ0W7IE5TB","3IHR8NYAM97DLQU8RCGR71OA1UR4PI","model","match","uniform","","","","","","","2264.699999809265","90449.30000019073","92714","[""stimuli/WF11_DO.jpg"",""stimuli/WF04_SC.jpg"",""stimuli/AF11_HO.jpg"",""stimuli/WM07_FO.jpg""]","stimuli/WF11_DO.jpg","stimuli/WF04_SC.jpg","stimuli/AF11_HO.jpg","stimuli/WM07_FO.jpg","pos4","stimuli/WM07_FO.jpg","FO","WM07","3","3","6","6","stimuli/stars_6.png","40.5","[""DO"",""SC"",""HO"",""FO""]","[""WF11"",""WF04"",""AF11"",""WM07""]","[4,10,3,6]","[2,8,4,6]","","",""
"show-reward","32","93270","0.0-32.0","p453686","A2Z43TA0WZ0EG0","3UUIU9GZC6BQMHTLWW3KSJ0W7IE5TB","3IHR8NYAM97DLQU8RCGR71OA1UR4PI","model","match","uniform","","","","","","","","93238","95243.70000004768","","","","","","","","","","","","6","","stimuli/stars_6.png","40.5","","","","","stimuli/WM07_FO.jpg","",""
"explore-choice","33","95154","0.0-33.0","p453686","A2Z43TA0WZ0EG0","3UUIU9GZC6BQMHTLWW3KSJ0W7IE5TB","3IHR8NYAM97DLQU8RCGR71OA1UR4PI","model","match","uniform","","","","","","","1370.3999998569489","95244.30000019073","96614.70000004768","[""stimuli/WF04_FO.jpg"",""stimuli/AF11_DO.jpg"",""stimuli/WM07_SC.jpg"",""stimuli/WF11_HO.jpg""]","stimuli/WF04_FO.jpg","stimuli/AF11_DO.jpg","stimuli/WM07_SC.jpg","stimuli/WF11_HO.jpg","pos1","stimuli/WF04_FO.jpg","FO","WF04","0","3.5","7","8","stimuli/stars_7.png","44","[""FO"",""DO"",""SC"",""HO""]","[""WF04"",""AF11"",""WM07"",""WF11""]","[7,5,4,4]","[8,4,6,2]","","",""
"show-reward","34","97155","0.0-34.0","p453686","A2Z43TA0WZ0EG0","3UUIU9GZC6BQMHTLWW3KSJ0W7IE5TB","3IHR8NYAM97DLQU8RCGR71OA1UR4PI","model","match","uniform","","","","","","","","97127.80000019073","99128.70000004768","","","","","","","","","","","","7","","stimuli/stars_7.png","44","","","","","stimuli/WF04_FO.jpg","",""
"explore-choice","35","100600","0.0-35.0","p453686","A2Z43TA0WZ0EG0","3UUIU9GZC6BQMHTLWW3KSJ0W7IE5TB","3IHR8NYAM97DLQU8RCGR71OA1UR4PI","model","match","uniform","","","","","","","2929.899999856949","99129.30000019073","102059.20000004768","[""stimuli/WF11_SC.jpg"",""stimuli/AF11_FO.jpg"",""stimuli/WM07_DO.jpg"",""stimuli/WF04_HO.jpg""]","stimuli/WF11_SC.jpg","stimuli/AF11_FO.jpg","stimuli/WM07_DO.jpg","stimuli/WF04_HO.jpg","pos4","stimuli/WF04_HO.jpg","HO","WF04","3","3.5","7","8","stimuli/stars_7.png","47.5","[""SC"",""FO"",""DO"",""HO""]","[""WF11"",""AF11"",""WM07"",""WF04""]","[0,4,6,7]","[2,4,6,8]","","",""
"show-reward","36","102602","0.0-36.0","p453686","A2Z43TA0WZ0EG0","3UUIU9GZC6BQMHTLWW3KSJ0W7IE5TB","3IHR8NYAM97DLQU8RCGR71OA1UR4PI","model","match","uniform","","","","","","","","102573.60000014305","104576","","","","","","","","","","","","7","","stimuli/stars_7.png","47.5","","","","","stimuli/WF04_HO.jpg","",""
"explore-choice","37","104262","0.0-37.0","p453686","A2Z43TA0WZ0EG0","3UUIU9GZC6BQMHTLWW3KSJ0W7IE5TB","3IHR8NYAM97DLQU8RCGR71OA1UR4PI","model","match","uniform","","","","","","","1149.5","104576.60000014305","105726.10000014305","[""stimuli/WF11_SC.jpg"",""stimuli/WF04_HO.jpg"",""stimuli/WM07_FO.jpg"",""stimuli/AF11_DO.jpg""]","stimuli/WF11_SC.jpg","stimuli/WF04_HO.jpg","stimuli/WM07_FO.jpg","stimuli/AF11_DO.jpg","pos2","stimuli/WF04_HO.jpg","HO","WF04","1","4.5","9","8","stimuli/stars_9.png","52","[""SC"",""HO"",""FO"",""DO""]","[""WF11"",""WF04"",""WM07"",""AF11""]","[3,9,4,2]","[2,8,6,4]","","",""
"show-reward","38","106264","0.0-38.0","p453686","A2Z43TA0WZ0EG0","3UUIU9GZC6BQMHTLWW3KSJ0W7IE5TB","3IHR8NYAM97DLQU8RCGR71OA1UR4PI","model","match","uniform","","","","","","","","106236.5","108238.10000014305","","","","","","","","","","","","9","","stimuli/stars_9.png","52","","","","","stimuli/WF04_HO.jpg","",""
"explore-choice","39","108065","0.0-39.0","p453686","A2Z43TA0WZ0EG0","3UUIU9GZC6BQMHTLWW3KSJ0W7IE5TB","3IHR8NYAM97DLQU8RCGR71OA1UR4PI","model","match","uniform","","","","","","","1297.3999998569489","108238.80000019073","109536.20000004768","[""stimuli/WM07_HO.jpg"",""stimuli/AF11_FO.jpg"",""stimuli/WF11_SC.jpg"",""stimuli/WF04_DO.jpg""]","stimuli/WM07_HO.jpg","stimuli/AF11_FO.jpg","stimuli/WF11_SC.jpg","stimuli/WF04_DO.jpg","pos4","stimuli/WF04_DO.jpg","DO","WF04","3","5","10","8","stimuli/stars_10.png","57","[""HO"",""FO"",""SC"",""DO""]","[""WM07"",""AF11"",""WF11"",""WF04""]","[4,4,3,10]","[6,4,2,8]","","",""
"show-reward","40","110077","0.0-40.0","p453686","A2Z43TA0WZ0EG0","3UUIU9GZC6BQMHTLWW3KSJ0W7IE5TB","3IHR8NYAM97DLQU8RCGR71OA1UR4PI","model","match","uniform","","","","","","","","110039.60000014305","112050.40000009537","","","","","","","","","","","","10","","stimuli/stars_10.png","57","","","","","stimuli/WF04_DO.jpg","",""
"explore-choice","41","111571","0.0-41.0","p453686","A2Z43TA0WZ0EG0","3UUIU9GZC6BQMHTLWW3KSJ0W7IE5TB","3IHR8NYAM97DLQU8RCGR71OA1UR4PI","model","match","uniform","","","","","","","983.7999999523163","112051.20000004768","113035","[""stimuli/WM07_DO.jpg"",""stimuli/WF04_HO.jpg"",""stimuli/WF11_FO.jpg"",""stimuli/AF11_SC.jpg""]","stimuli/WM07_DO.jpg","stimuli/WF04_HO.jpg","stimuli/WF11_FO.jpg","stimuli/AF11_SC.jpg","pos2","stimuli/WF04_HO.jpg","HO","WF04","1","5","10","8","stimuli/stars_10.png","62","[""DO"",""HO"",""FO"",""SC""]","[""WM07"",""WF04"",""WF11"",""AF11""]","[4,10,3,4]","[6,8,2,4]","","",""
"show-reward","42","113585","0.0-42.0","p453686","A2Z43TA0WZ0EG0","3UUIU9GZC6BQMHTLWW3KSJ0W7IE5TB","3IHR8NYAM97DLQU8RCGR71OA1UR4PI","model","match","uniform","","","","","","","","113545.30000019073","115558.40000009537","","","","","","","","","","","","10","","stimuli/stars_10.png","62","","","","","stimuli/WF04_HO.jpg","",""
"explore-choice","43","115278","0.0-43.0","p453686","A2Z43TA0WZ0EG0","3UUIU9GZC6BQMHTLWW3KSJ0W7IE5TB","3IHR8NYAM97DLQU8RCGR71OA1UR4PI","model","match","uniform","","","","","","","1192.2999999523163","115558.90000009537","116751.20000004768","[""stimuli/WF04_SC.jpg"",""stimuli/WF11_FO.jpg"",""stimuli/AF11_HO.jpg"",""stimuli/WM07_DO.jpg""]","stimuli/WF04_SC.jpg","stimuli/WF11_FO.jpg","stimuli/AF11_HO.jpg","stimuli/WM07_DO.jpg","pos1","stimuli/WF04_SC.jpg","SC","WF04","0","4.5","9","8","stimuli/stars_9.png","66.5","[""SC"",""FO"",""HO"",""DO""]","[""WF04"",""WF11"",""AF11"",""WM07""]","[9,3,3,7]","[8,2,4,6]","","",""
"show-reward","44","117286","0.0-44.0","p453686","A2Z43TA0WZ0EG0","3UUIU9GZC6BQMHTLWW3KSJ0W7IE5TB","3IHR8NYAM97DLQU8RCGR71OA1UR4PI","model","match","uniform","","","","","","","","117252.20000004768","119260","","","","","","","","","","","","9","","stimuli/stars_9.png","66.5","","","","","stimuli/WF04_SC.jpg","",""
"explore-choice","45","118899","0.0-45.0","p453686","A2Z43TA0WZ0EG0","3UUIU9GZC6BQMHTLWW3KSJ0W7IE5TB","3IHR8NYAM97DLQU8RCGR71OA1UR4PI","model","match","uniform","","","","","","","1097.2999999523163","119260.40000009537","120357.70000004768","[""stimuli/WF04_FO.jpg"",""stimuli/WF11_SC.jpg"",""stimuli/WM07_DO.jpg"",""stimuli/AF11_HO.jpg""]","stimuli/WF04_FO.jpg","stimuli/WF11_SC.jpg","stimuli/WM07_DO.jpg","stimuli/AF11_HO.jpg","pos1","stimuli/WF04_FO.jpg","FO","WF04","0","4","8","8","stimuli/stars_8.png","70.5","[""FO"",""SC"",""DO"",""HO""]","[""WF04"",""WF11"",""WM07"",""AF11""]","[8,0,6,6]","[8,2,6,4]","","",""
"show-reward","46","120903","0.0-46.0","p453686","A2Z43TA0WZ0EG0","3UUIU9GZC6BQMHTLWW3KSJ0W7IE5TB","3IHR8NYAM97DLQU8RCGR71OA1UR4PI","model","match","uniform","","","","","","","","120873.20000004768","122875.40000009537","","","","","","","","","","","","8","","stimuli/stars_8.png","70.5","","","","","stimuli/WF04_FO.jpg","",""
"explore-choice","47","122449","0.0-47.0","p453686","A2Z43TA0WZ0EG0","3UUIU9GZC6BQMHTLWW3KSJ0W7IE5TB","3IHR8NYAM97DLQU8RCGR71OA1UR4PI","model","match","uniform","","","","","","","1038.5","122875.90000009537","123914.40000009537","[""stimuli/WM07_HO.jpg"",""stimuli/AF11_FO.jpg"",""stimuli/WF11_DO.jpg"",""stimuli/WF04_SC.jpg""]","stimuli/WM07_HO.jpg","stimuli/AF11_FO.jpg","stimuli/WF11_DO.jpg","stimuli/WF04_SC.jpg","pos4","stimuli/WF04_SC.jpg","SC","WF04","3","4.5","9","8","stimuli/stars_9.png","75","[""HO"",""FO"",""DO"",""SC""]","[""WM07"",""AF11"",""WF11"",""WF04""]","[7,2,4,9]","[6,4,2,8]","","",""
"show-reward","48","124452","0.0-48.0","p453686","A2Z43TA0WZ0EG0","3UUIU9GZC6BQMHTLWW3KSJ0W7IE5TB","3IHR8NYAM97DLQU8RCGR71OA1UR4PI","model","match","uniform","","","","","","","","124422.30000019073","126424.30000019073","","","","","","","","","","","","9","","stimuli/stars_9.png","75","","","","","stimuli/WF04_SC.jpg","",""
"explore-choice","49","126174","0.0-49.0","p453686","A2Z43TA0WZ0EG0","3UUIU9GZC6BQMHTLWW3KSJ0W7IE5TB","3IHR8NYAM97DLQU8RCGR71OA1UR4PI","model","match","uniform","","","","","","","1213.7999999523163","126424.90000009537","127638.70000004768","[""stimuli/WF04_HO.jpg"",""stimuli/WF11_DO.jpg"",""stimuli/AF11_FO.jpg"",""stimuli/WM07_SC.jpg""]","stimuli/WF04_HO.jpg","stimuli/WF11_DO.jpg","stimuli/AF11_FO.jpg","stimuli/WM07_SC.jpg","pos1","stimuli/WF04_HO.jpg","HO","WF04","0","4","8","8","stimuli/stars_8.png","79","[""HO"",""DO"",""FO"",""SC""]","[""WF04"",""WF11"",""AF11"",""WM07""]","[8,3,5,4]","[8,2,4,6]","","",""
"show-reward","50","128176","0.0-50.0","p453686","A2Z43TA0WZ0EG0","3UUIU9GZC6BQMHTLWW3KSJ0W7IE5TB","3IHR8NYAM97DLQU8RCGR71OA1UR4PI","model","match","uniform","","","","","","","","128147.30000019073","130148.30000019073","","","","","","","","","","","","8","","stimuli/stars_8.png","79","","","","","stimuli/WF04_HO.jpg","",""
"explore-choice","51","129697","0.0-51.0","p453686","A2Z43TA0WZ0EG0","3UUIU9GZC6BQMHTLWW3KSJ0W7IE5TB","3IHR8NYAM97DLQU8RCGR71OA1UR4PI","model","match","uniform","","","","","","","1010.2000000476837","130148.90000009537","131159.10000014305","[""stimuli/WM07_DO.jpg"",""stimuli/AF11_SC.jpg"",""stimuli/WF04_FO.jpg"",""stimuli/WF11_HO.jpg""]","stimuli/WM07_DO.jpg","stimuli/AF11_SC.jpg","stimuli/WF04_FO.jpg","stimuli/WF11_HO.jpg","pos3","stimuli/WF04_FO.jpg","FO","WF04","2","4","8","8","stimuli/stars_8.png","83","[""DO"",""SC"",""FO"",""HO""]","[""WM07"",""AF11"",""WF04"",""WF11""]","[6,3,8,0]","[6,4,8,2]","","",""
"show-reward","52","131711","0.0-52.0","p453686","A2Z43TA0WZ0EG0","3UUIU9GZC6BQMHTLWW3KSJ0W7IE5TB","3IHR8NYAM97DLQU8RCGR71OA1UR4PI","model","match","uniform","","","","","","","","131670.60000014305","133684","","","","","","","","","","","","8","","stimuli/stars_8.png","83","","","","","stimuli/WF04_FO.jpg","",""
"explore-choice","53","133039","0.0-53.0","p453686","A2Z43TA0WZ0EG0","3UUIU9GZC6BQMHTLWW3KSJ0W7IE5TB","3IHR8NYAM97DLQU8RCGR71OA1UR4PI","model","match","uniform","","","","","","","825.0999999046326","133684.60000014305","134509.70000004768","[""stimuli/AF11_SC.jpg"",""stimuli/WM07_HO.jpg"",""stimuli/WF04_DO.jpg"",""stimuli/WF11_FO.jpg""]","stimuli/AF11_SC.jpg","stimuli/WM07_HO.jpg","stimuli/WF04_DO.jpg","stimuli/WF11_FO.jpg","pos3","stimuli/WF04_DO.jpg","DO","WF04","2","5","10","8","stimuli/stars_10.png","88","[""SC"",""HO"",""DO"",""FO""]","[""AF11"",""WM07"",""WF04"",""WF11""]","[3,5,10,4]","[4,6,8,2]","","",""
"show-reward","54","135050","0.0-54.0","p453686","A2Z43TA0WZ0EG0","3UUIU9GZC6BQMHTLWW3KSJ0W7IE5TB","3IHR8NYAM97DLQU8RCGR71OA1UR4PI","model","match","uniform","","","","","","","","135011.80000019073","137022.90000009537","","","","","","","","","","","","10","","stimuli/stars_10.png","88","","","","","stimuli/WF04_DO.jpg","",""
"explore-choice","55","137677","0.0-55.0","p453686","A2Z43TA0WZ0EG0","3UUIU9GZC6BQMHTLWW3KSJ0W7IE5TB","3IHR8NYAM97DLQU8RCGR71OA1UR4PI","model","match","uniform","","","","","","","2112.800000190735","137023.5","139136.30000019073","[""stimuli/WF04_FO.jpg"",""stimuli/AF11_DO.jpg"",""stimuli/WM07_HO.jpg"",""stimuli/WF11_SC.jpg""]","stimuli/WF04_FO.jpg","stimuli/AF11_DO.jpg","stimuli/WM07_HO.jpg","stimuli/WF11_SC.jpg","pos1","stimuli/WF04_FO.jpg","FO","WF04","0","5","10","8","stimuli/stars_10.png","93","[""FO"",""DO"",""HO"",""SC""]","[""WF04"",""AF11"",""WM07"",""WF11""]","[10,6,4,2]","[8,4,6,2]","","",""
"show-reward","56","139679","0.0-56.0","p453686","A2Z43TA0WZ0EG0","3UUIU9GZC6BQMHTLWW3KSJ0W7IE5TB","3IHR8NYAM97DLQU8RCGR71OA1UR4PI","model","match","uniform","","","","","","","","139650.5","141651.60000014305","","","","","","","","","","","","10","","stimuli/stars_10.png","93","","","","","stimuli/WF04_FO.jpg","",""
"explore-choice","57","141287","0.0-57.0","p453686","A2Z43TA0WZ0EG0","3UUIU9GZC6BQMHTLWW3KSJ0W7IE5TB","3IHR8NYAM97DLQU8RCGR71OA1UR4PI","model","match","uniform","","","","","","","1104.8999998569489","141652.30000019073","142757.20000004768","[""stimuli/WM07_FO.jpg"",""stimuli/WF04_DO.jpg"",""stimuli/AF11_HO.jpg"",""stimuli/WF11_SC.jpg""]","stimuli/WM07_FO.jpg","stimuli/WF04_DO.jpg","stimuli/AF11_HO.jpg","stimuli/WF11_SC.jpg","pos2","stimuli/WF04_DO.jpg","DO","WF04","1","5","10","8","stimuli/stars_10.png","98","[""FO"",""DO"",""HO"",""SC""]","[""WM07"",""WF04"",""AF11"",""WF11""]","[5,10,5,1]","[6,8,4,2]","","",""
"show-reward","58","143299","0.0-58.0","p453686","A2Z43TA0WZ0EG0","3UUIU9GZC6BQMHTLWW3KSJ0W7IE5TB","3IHR8NYAM97DLQU8RCGR71OA1UR4PI","model","match","uniform","","","","","","","","143260.60000014305","145271.5","","","","","","","","","","","","10","","stimuli/stars_10.png","98","","","","","stimuli/WF04_DO.jpg","",""
"explore-choice","59","144976","0.0-59.0","p453686","A2Z43TA0WZ0EG0","3UUIU9GZC6BQMHTLWW3KSJ0W7IE5TB","3IHR8NYAM97DLQU8RCGR71OA1UR4PI","model","match","uniform","","","","","","","1171.6000001430511","145272","146443.60000014305","[""stimuli/AF11_FO.jpg"",""stimuli/WF04_SC.jpg"",""stimuli/WF11_DO.jpg"",""stimuli/WM07_HO.jpg""]","stimuli/AF11_FO.jpg","stimuli/WF04_SC.jpg","stimuli/WF11_DO.jpg","stimuli/WM07_HO.jpg","pos2","stimuli/WF04_SC.jpg","SC","WF04","1","4.5","9","8","stimuli/stars_9.png","102.5","[""FO"",""SC"",""DO"",""HO""]","[""AF11"",""WF04"",""WF11"",""WM07""]","[2,9,4,7]","[4,8,2,6]","","",""
"show-reward","60","146982","0.0-60.0","p453686","A2Z43TA0WZ0EG0","3UUIU9GZC6BQMHTLWW3KSJ0W7IE5TB","3IHR8NYAM97DLQU8RCGR71OA1UR4PI","model","match","uniform","","","","","","","","146949.70000004768","148954.5","","","","","","","","","","","","9","","stimuli/stars_9.png","102.5","","","","","stimuli/WF04_SC.jpg","",""
"explore-choice","61","148837","0.0-61.0","p453686","A2Z43TA0WZ0EG0","3UUIU9GZC6BQMHTLWW3KSJ0W7IE5TB","3IHR8NYAM97DLQU8RCGR71OA1UR4PI","model","match","uniform","","","","","","","1344.7000000476837","148955.10000014305","150299.80000019073","[""stimuli/AF11_SC.jpg"",""stimuli/WF11_HO.jpg"",""stimuli/WF04_DO.jpg"",""stimuli/WM07_FO.jpg""]","stimuli/AF11_SC.jpg","stimuli/WF11_HO.jpg","stimuli/WF04_DO.jpg","stimuli/WM07_FO.jpg","pos3","stimuli/WF04_DO.jpg","DO","WF04","2","5","10","8","stimuli/stars_10.png","107.5","[""SC"",""HO"",""DO"",""FO""]","[""AF11"",""WF11"",""WF04"",""WM07""]","[4,2,10,5]","[4,2,8,6]","","",""
"show-reward","62","150853","0.0-62.0","p453686","A2Z43TA0WZ0EG0","3UUIU9GZC6BQMHTLWW3KSJ0W7IE5TB","3IHR8NYAM97DLQU8RCGR71OA1UR4PI","model","match","uniform","","","","","","","","150810.80000019073","152825.10000014305","","","","","","","","","","","","10","","stimuli/stars_10.png","107.5","","","","","stimuli/WF04_DO.jpg","",""
"explore-choice","63","152075","0.0-63.0","p453686","A2Z43TA0WZ0EG0","3UUIU9GZC6BQMHTLWW3KSJ0W7IE5TB","3IHR8NYAM97DLQU8RCGR71OA1UR4PI","model","match","uniform","","","","","","","708.4000000953674","152825.70000004768","153534.10000014305","[""stimuli/AF11_FO.jpg"",""stimuli/WM07_HO.jpg"",""stimuli/WF04_DO.jpg"",""stimuli/WF11_SC.jpg""]","stimuli/AF11_FO.jpg","stimuli/WM07_HO.jpg","stimuli/WF04_DO.jpg","stimuli/WF11_SC.jpg","pos3","stimuli/WF04_DO.jpg","DO","WF04","2","5","10","8","stimuli/stars_10.png","112.5","[""FO"",""HO"",""DO"",""SC""]","[""AF11"",""WM07"",""WF04"",""WF11""]","[4,4,10,3]","[4,6,8,2]","","",""
"show-reward","64","154088","0.0-64.0","p453686","A2Z43TA0WZ0EG0","3UUIU9GZC6BQMHTLWW3KSJ0W7IE5TB","3IHR8NYAM97DLQU8RCGR71OA1UR4PI","model","match","uniform","","","","","","","","154048","156060.90000009537","","","","","","","","","","","","10","","stimuli/stars_10.png","112.5","","","","","stimuli/WF04_DO.jpg","",""
"explore-choice","65","155532","0.0-65.0","p453686","A2Z43TA0WZ0EG0","3UUIU9GZC6BQMHTLWW3KSJ0W7IE5TB","3IHR8NYAM97DLQU8RCGR71OA1UR4PI","model","match","uniform","","","","","","","935.5","156061.5","156997","[""stimuli/WM07_DO.jpg"",""stimuli/WF04_FO.jpg"",""stimuli/WF11_SC.jpg"",""stimuli/AF11_HO.jpg""]","stimuli/WM07_DO.jpg","stimuli/WF04_FO.jpg","stimuli/WF11_SC.jpg","stimuli/AF11_HO.jpg","pos2","stimuli/WF04_FO.jpg","FO","WF04","1","4","8","8","stimuli/stars_8.png","116.5","[""DO"",""FO"",""SC"",""HO""]","[""WM07"",""WF04"",""WF11"",""AF11""]","[6,8,0,6]","[6,8,2,4]","","",""
"show-reward","66","157534","0.0-66.0","p453686","A2Z43TA0WZ0EG0","3UUIU9GZC6BQMHTLWW3KSJ0W7IE5TB","3IHR8NYAM97DLQU8RCGR71OA1UR4PI","model","match","uniform","","","","","","","","157505.30000019073","159506.40000009537","","","","","","","","","","","","8","","stimuli/stars_8.png","116.5","","","","","stimuli/WF04_FO.jpg","",""
"explore-choice","67","158919","0.0-67.0","p453686","A2Z43TA0WZ0EG0","3UUIU9GZC6BQMHTLWW3KSJ0W7IE5TB","3IHR8NYAM97DLQU8RCGR71OA1UR4PI","model","match","uniform","","","","","","","881.6000001430511","159507.5","160389.10000014305","[""stimuli/WF11_FO.jpg"",""stimuli/WM07_SC.jpg"",""stimuli/WF04_DO.jpg"",""stimuli/AF11_HO.jpg""]","stimuli/WF11_FO.jpg","stimuli/WM07_SC.jpg","stimuli/WF04_DO.jpg","stimuli/AF11_HO.jpg","pos3","stimuli/WF04_DO.jpg","DO","WF04","2","4","8","8","stimuli/stars_8.png","120.5","[""FO"",""SC"",""DO"",""HO""]","[""WF11"",""WM07"",""WF04"",""AF11""]","[1,6,8,6]","[2,6,8,4]","","",""
"show-reward","68","160940","0.0-68.0","p453686","A2Z43TA0WZ0EG0","3UUIU9GZC6BQMHTLWW3KSJ0W7IE5TB","3IHR8NYAM97DLQU8RCGR71OA1UR4PI","model","match","uniform","","","","","","","","160892.40000009537","162912.30000019073","","","","","","","","","","","","8","","stimuli/stars_8.png","120.5","","","","","stimuli/WF04_DO.jpg","",""
"explore-choice","69","162504","0.0-69.0","p453686","A2Z43TA0WZ0EG0","3UUIU9GZC6BQMHTLWW3KSJ0W7IE5TB","3IHR8NYAM97DLQU8RCGR71OA1UR4PI","model","match","uniform","","","","","","","1054.6999998092651","162912.80000019073","163967.5","[""stimuli/WF04_SC.jpg"",""stimuli/AF11_HO.jpg"",""stimuli/WM07_DO.jpg"",""stimuli/WF11_FO.jpg""]","stimuli/WF04_SC.jpg","stimuli/AF11_HO.jpg","stimuli/WM07_DO.jpg","stimuli/WF11_FO.jpg","pos1","stimuli/WF04_SC.jpg","SC","WF04","0","4.5","9","8","stimuli/stars_9.png","125","[""SC"",""HO"",""DO"",""FO""]","[""WF04"",""AF11"",""WM07"",""WF11""]","[9,3,7,3]","[8,4,6,2]","","",""
"show-reward","70","164508","0.0-70.0","p453686","A2Z43TA0WZ0EG0","3UUIU9GZC6BQMHTLWW3KSJ0W7IE5TB","3IHR8NYAM97DLQU8RCGR71OA1UR4PI","model","match","uniform","","","","","","","","164477.40000009537","166480.10000014305","","","","","","","","","","","","9","","stimuli/stars_9.png","125","","","","","stimuli/WF04_SC.jpg","",""
"explore-choice","71","166539","0.0-71.0","p453686","A2Z43TA0WZ0EG0","3UUIU9GZC6BQMHTLWW3KSJ0W7IE5TB","3IHR8NYAM97DLQU8RCGR71OA1UR4PI","model","match","uniform","","","","","","","1529.1000001430511","166481","168010.10000014305","[""stimuli/AF11_FO.jpg"",""stimuli/WM07_SC.jpg"",""stimuli/WF04_HO.jpg"",""stimuli/WF11_DO.jpg""]","stimuli/AF11_FO.jpg","stimuli/WM07_SC.jpg","stimuli/WF04_HO.jpg","stimuli/WF11_DO.jpg","pos4","stimuli/WF11_DO.jpg","DO","WF11","3","1.5","3","2","stimuli/stars_3.png","126.5","[""FO"",""SC"",""HO"",""DO""]","[""AF11"",""WM07"",""WF04"",""WF11""]","[5,4,8,3]","[4,6,8,2]","","",""
"show-reward","72","168541","0.0-72.0","p453686","A2Z43TA0WZ0EG0","3UUIU9GZC6BQMHTLWW3KSJ0W7IE5TB","3IHR8NYAM97DLQU8RCGR71OA1UR4PI","model","match","uniform","","","","","","","","168511.70000004768","170514.10000014305","","","","","","","","","","","","3","","stimuli/stars_3.png","126.5","","","","","stimuli/WF11_DO.jpg","",""
"explore-choice","73","171082","0.0-73.0","p453686","A2Z43TA0WZ0EG0","3UUIU9GZC6BQMHTLWW3KSJ0W7IE5TB","3IHR8NYAM97DLQU8RCGR71OA1UR4PI","model","match","uniform","","","","","","","2030.2000000476837","170514.60000014305","172544.80000019073","[""stimuli/WF04_DO.jpg"",""stimuli/WM07_HO.jpg"",""stimuli/AF11_SC.jpg"",""stimuli/WF11_FO.jpg""]","stimuli/WF04_DO.jpg","stimuli/WM07_HO.jpg","stimuli/AF11_SC.jpg","stimuli/WF11_FO.jpg","pos1","stimuli/WF04_DO.jpg","DO","WF04","0","5","10","8","stimuli/stars_10.png","131.5","[""DO"",""HO"",""SC"",""FO""]","[""WF04"",""WM07"",""AF11"",""WF11""]","[10,5,3,4]","[8,6,4,2]","","",""
"show-reward","74","173083","0.0-74.0","p453686","A2Z43TA0WZ0EG0","3UUIU9GZC6BQMHTLWW3KSJ0W7IE5TB","3IHR8NYAM97DLQU8RCGR71OA1UR4PI","model","match","uniform","","","","","","","","173054.90000009537","175055.90000009537","","","","","","","","","","","","10","","stimuli/stars_10.png","131.5","","","","","stimuli/WF04_DO.jpg","",""
"explore-choice","75","175069","0.0-75.0","p453686","A2Z43TA0WZ0EG0","3UUIU9GZC6BQMHTLWW3KSJ0W7IE5TB","3IHR8NYAM97DLQU8RCGR71OA1UR4PI","model","match","uniform","","","","","","","1472.7000000476837","175056.40000009537","176529.10000014305","[""stimuli/WF04_SC.jpg"",""stimuli/WF11_DO.jpg"",""stimuli/AF11_HO.jpg"",""stimuli/WM07_FO.jpg""]","stimuli/WF04_SC.jpg","stimuli/WF11_DO.jpg","stimuli/AF11_HO.jpg","stimuli/WM07_FO.jpg","pos1","stimuli/WF04_SC.jpg","SC","WF04","0","5","10","8","stimuli/stars_10.png","136.5","[""SC"",""DO"",""HO"",""FO""]","[""WF04"",""WF11"",""AF11"",""WM07""]","[10,4,3,6]","[8,2,4,6]","","",""
"show-reward","76","177071","0.0-76.0","p453686","A2Z43TA0WZ0EG0","3UUIU9GZC6BQMHTLWW3KSJ0W7IE5TB","3IHR8NYAM97DLQU8RCGR71OA1UR4PI","model","match","uniform","","","","","","","","177042.20000004768","179043.60000014305","","","","","","","","","","","","10","","stimuli/stars_10.png","136.5","","","","","stimuli/WF04_SC.jpg","",""
"explore-choice","77","178576","0.0-77.0","p453686","A2Z43TA0WZ0EG0","3UUIU9GZC6BQMHTLWW3KSJ0W7IE5TB","3IHR8NYAM97DLQU8RCGR71OA1UR4PI","model","match","uniform","","","","","","","993.5999999046326","179044.10000014305","180037.70000004768","[""stimuli/WF11_HO.jpg"",""stimuli/WM07_FO.jpg"",""stimuli/WF04_SC.jpg"",""stimuli/AF11_DO.jpg""]","stimuli/WF11_HO.jpg","stimuli/WM07_FO.jpg","stimuli/WF04_SC.jpg","stimuli/AF11_DO.jpg","pos3","stimuli/WF04_SC.jpg","SC","WF04","2","3.5","7","8","stimuli/stars_7.png","140","[""HO"",""FO"",""SC"",""DO""]","[""WF11"",""WM07"",""WF04"",""AF11""]","[3,6,7,2]","[2,6,8,4]","","",""
"show-reward","78","180586","0.0-78.0","p453686","A2Z43TA0WZ0EG0","3UUIU9GZC6BQMHTLWW3KSJ0W7IE5TB","3IHR8NYAM97DLQU8RCGR71OA1UR4PI","model","match","uniform","","","","","","","","180549.10000014305","182558.60000014305","","","","","","","","","","","","7","","stimuli/stars_7.png","140","","","","","stimuli/WF04_SC.jpg","",""
"explore-choice","79","181814","0.0-79.0","p453686","A2Z43TA0WZ0EG0","3UUIU9GZC6BQMHTLWW3KSJ0W7IE5TB","3IHR8NYAM97DLQU8RCGR71OA1UR4PI","model","match","uniform","","","","","","","726.7999999523163","182559.30000019073","183286.10000014305","[""stimuli/WF04_SC.jpg"",""stimuli/AF11_FO.jpg"",""stimuli/WM07_DO.jpg"",""stimuli/WF11_HO.jpg""]","stimuli/WF04_SC.jpg","stimuli/AF11_FO.jpg","stimuli/WM07_DO.jpg","stimuli/WF11_HO.jpg","pos1","stimuli/WF04_SC.jpg","SC","WF04","0","5","10","8","stimuli/stars_10.png","145","[""SC"",""FO"",""DO"",""HO""]","[""WF04"",""AF11"",""WM07"",""WF11""]","[10,4,8,0]","[8,4,6,2]","","",""
"show-reward","80","183831","0.0-80.0","p453686","A2Z43TA0WZ0EG0","3UUIU9GZC6BQMHTLWW3KSJ0W7IE5TB","3IHR8NYAM97DLQU8RCGR71OA1UR4PI","model","match","uniform","","","","","","","","183787.20000004768","185804","","","","","","","","","","","","10","","stimuli/stars_10.png","145","","","","","stimuli/WF04_SC.jpg","",""
"explore-choice","81","185129","0.0-81.0","p453686","A2Z43TA0WZ0EG0","3UUIU9GZC6BQMHTLWW3KSJ0W7IE5TB","3IHR8NYAM97DLQU8RCGR71OA1UR4PI","model","match","uniform","","","","","","","781.8999998569489","185804.60000014305","186586.5","[""stimuli/WF11_HO.jpg"",""stimuli/AF11_FO.jpg"",""stimuli/WM07_SC.jpg"",""stimuli/WF04_DO.jpg""]","stimuli/WF11_HO.jpg","stimuli/AF11_FO.jpg","stimuli/WM07_SC.jpg","stimuli/WF04_DO.jpg","pos4","stimuli/WF04_DO.jpg","DO","WF04","3","4","8","8","stimuli/stars_8.png","149","[""HO"",""FO"",""SC"",""DO""]","[""WF11"",""AF11"",""WM07"",""WF04""]","[4,3,8,8]","[2,4,6,8]","","",""
"show-reward","82","187146","0.0-82.0","p453686","A2Z43TA0WZ0EG0","3UUIU9GZC6BQMHTLWW3KSJ0W7IE5TB","3IHR8NYAM97DLQU8RCGR71OA1UR4PI","model","match","uniform","","","","","","","","187102.10000014305","189119.10000014305","","","","","","","","","","","","8","","stimuli/stars_8.png","149","","","","","stimuli/WF04_DO.jpg","",""
"explore-choice","83","188388","0.0-83.0","p453686","A2Z43TA0WZ0EG0","3UUIU9GZC6BQMHTLWW3KSJ0W7IE5TB","3IHR8NYAM97DLQU8RCGR71OA1UR4PI","model","match","uniform","","","","","","","736.4000000953674","189120.5","189856.90000009537","[""stimuli/AF11_HO.jpg"",""stimuli/WM07_SC.jpg"",""stimuli/WF11_DO.jpg"",""stimuli/WF04_FO.jpg""]","stimuli/AF11_HO.jpg","stimuli/WM07_SC.jpg","stimuli/WF11_DO.jpg","stimuli/WF04_FO.jpg","pos4","stimuli/WF04_FO.jpg","FO","WF04","3","5","10","8","stimuli/stars_10.png","154","[""HO"",""SC"",""DO"",""FO""]","[""AF11"",""WM07"",""WF11"",""WF04""]","[5,6,0,10]","[4,6,2,8]","","",""
"show-reward","84","190398","0.0-84.0","p453686","A2Z43TA0WZ0EG0","3UUIU9GZC6BQMHTLWW3KSJ0W7IE5TB","3IHR8NYAM97DLQU8RCGR71OA1UR4PI","model","match","uniform","","","","","","","","190361.30000019073","192370.80000019073","","","","","","","","","","","","10","","stimuli/stars_10.png","154","","","","","stimuli/WF04_FO.jpg","",""
"explore-choice","85","191747","0.0-85.0","p453686","A2Z43TA0WZ0EG0","3UUIU9GZC6BQMHTLWW3KSJ0W7IE5TB","3IHR8NYAM97DLQU8RCGR71OA1UR4PI","model","match","uniform","","","","","","","834.2999999523163","192371.20000004768","193205.5","[""stimuli/WF04_HO.jpg"",""stimuli/WF11_DO.jpg"",""stimuli/AF11_SC.jpg"",""stimuli/WM07_FO.jpg""]","stimuli/WF04_HO.jpg","stimuli/WF11_DO.jpg","stimuli/AF11_SC.jpg","stimuli/WM07_FO.jpg","pos1","stimuli/WF04_HO.jpg","HO","WF04","0","3","6","8","stimuli/stars_6.png","157","[""HO"",""DO"",""SC"",""FO""]","[""WF04"",""WF11"",""AF11"",""WM07""]","[6,4,4,8]","[8,2,4,6]","","",""
"show-reward","86","193764","0.0-86.0","p453686","A2Z43TA0WZ0EG0","3UUIU9GZC6BQMHTLWW3KSJ0W7IE5TB","3IHR8NYAM97DLQU8RCGR71OA1UR4PI","model","match","uniform","","","","","","","","193720.80000019073","195736.90000009537","","","","","","","","","","","","6","","stimuli/stars_6.png","157","","","","","stimuli/WF04_HO.jpg","",""
"explore-choice","87","195023","0.0-87.0","p453686","A2Z43TA0WZ0EG0","3UUIU9GZC6BQMHTLWW3KSJ0W7IE5TB","3IHR8NYAM97DLQU8RCGR71OA1UR4PI","model","match","uniform","","","","","","","752.5999999046326","195737.30000019073","196489.90000009537","[""stimuli/WM07_HO.jpg"",""stimuli/WF11_FO.jpg"",""stimuli/AF11_DO.jpg"",""stimuli/WF04_SC.jpg""]","stimuli/WM07_HO.jpg","stimuli/WF11_FO.jpg","stimuli/AF11_DO.jpg","stimuli/WF04_SC.jpg","pos4","stimuli/WF04_SC.jpg","SC","WF04","3","3.5","7","8","stimuli/stars_7.png","160.5","[""HO"",""FO"",""DO"",""SC""]","[""WM07"",""WF11"",""AF11"",""WF04""]","[6,0,4,7]","[6,2,4,8]","","",""
"show-reward","88","197035","0.0-88.0","p453686","A2Z43TA0WZ0EG0","3UUIU9GZC6BQMHTLWW3KSJ0W7IE5TB","3IHR8NYAM97DLQU8RCGR71OA1UR4PI","model","match","uniform","","","","","","","","196996.70000004768","199007.5","","","","","","","","","","","","7","","stimuli/stars_7.png","160.5","","","","","stimuli/WF04_SC.jpg","",""
"explore-choice","89","198710","0.0-89.0","p453686","A2Z43TA0WZ0EG0","3UUIU9GZC6BQMHTLWW3KSJ0W7IE5TB","3IHR8NYAM97DLQU8RCGR71OA1UR4PI","model","match","uniform","","","","","","","1172.7999999523163","199008.60000014305","200181.40000009537","[""stimuli/WF11_FO.jpg"",""stimuli/WF04_HO.jpg"",""stimuli/AF11_DO.jpg"",""stimuli/WM07_SC.jpg""]","stimuli/WF11_FO.jpg","stimuli/WF04_HO.jpg","stimuli/AF11_DO.jpg","stimuli/WM07_SC.jpg","pos2","stimuli/WF04_HO.jpg","HO","WF04","1","4.5","9","8","stimuli/stars_9.png","165","[""FO"",""HO"",""DO"",""SC""]","[""WF11"",""WF04"",""AF11"",""WM07""]","[1,9,5,8]","[2,8,4,6]","","",""
"show-reward","90","200727","0.0-90.0","p453686","A2Z43TA0WZ0EG0","3UUIU9GZC6BQMHTLWW3KSJ0W7IE5TB","3IHR8NYAM97DLQU8RCGR71OA1UR4PI","model","match","uniform","","","","","","","","200683.60000014305","202699.80000019073","","","","","","","","","","","","9","","stimuli/stars_9.png","165","","","","","stimuli/WF04_HO.jpg","",""
"explore-choice","91","202034","0.0-91.0","p453686","A2Z43TA0WZ0EG0","3UUIU9GZC6BQMHTLWW3KSJ0W7IE5TB","3IHR8NYAM97DLQU8RCGR71OA1UR4PI","model","match","uniform","","","","","","","804.3999998569489","202700.30000019073","203504.70000004768","[""stimuli/WM07_SC.jpg"",""stimuli/WF11_HO.jpg"",""stimuli/AF11_DO.jpg"",""stimuli/WF04_FO.jpg""]","stimuli/WM07_SC.jpg","stimuli/WF11_HO.jpg","stimuli/AF11_DO.jpg","stimuli/WF04_FO.jpg","pos4","stimuli/WF04_FO.jpg","FO","WF04","3","3.5","7","8","stimuli/stars_7.png","168.5","[""SC"",""HO"",""DO"",""FO""]","[""WM07"",""WF11"",""AF11"",""WF04""]","[4,4,5,7]","[6,2,4,8]","","",""
"show-reward","92","204046","0.0-92.0","p453686","A2Z43TA0WZ0EG0","3UUIU9GZC6BQMHTLWW3KSJ0W7IE5TB","3IHR8NYAM97DLQU8RCGR71OA1UR4PI","model","match","uniform","","","","","","","","204007.10000014305","206019.20000004768","","","","","","","","","","","","7","","stimuli/stars_7.png","168.5","","","","","stimuli/WF04_FO.jpg","",""
"explore-choice","93","205744","0.0-93.0","p453686","A2Z43TA0WZ0EG0","3UUIU9GZC6BQMHTLWW3KSJ0W7IE5TB","3IHR8NYAM97DLQU8RCGR71OA1UR4PI","model","match","uniform","","","","","","","1186","206019.70000004768","207205.70000004768","[""stimuli/WF04_HO.jpg"",""stimuli/WM07_DO.jpg"",""stimuli/AF11_SC.jpg"",""stimuli/WF11_FO.jpg""]","stimuli/WF04_HO.jpg","stimuli/WM07_DO.jpg","stimuli/AF11_SC.jpg","stimuli/WF11_FO.jpg","pos1","stimuli/WF04_HO.jpg","HO","WF04","0","5","10","8","stimuli/stars_10.png","173.5","[""HO"",""DO"",""SC"",""FO""]","[""WF04"",""WM07"",""AF11"",""WF11""]","[10,4,4,3]","[8,6,4,2]","","",""
"show-reward","94","207755","0.0-94.0","p453686","A2Z43TA0WZ0EG0","3UUIU9GZC6BQMHTLWW3KSJ0W7IE5TB","3IHR8NYAM97DLQU8RCGR71OA1UR4PI","model","match","uniform","","","","","","","","207717.70000004768","209728.20000004768","","","","","","","","","","","","10","","stimuli/stars_10.png","173.5","","","","","stimuli/WF04_HO.jpg","",""
"explore-choice","95","209007","0.0-95.0","p453686","A2Z43TA0WZ0EG0","3UUIU9GZC6BQMHTLWW3KSJ0W7IE5TB","3IHR8NYAM97DLQU8RCGR71OA1UR4PI","model","match","uniform","","","","","","","739.1000001430511","209728.70000004768","210467.80000019073","[""stimuli/AF11_FO.jpg"",""stimuli/WF04_HO.jpg"",""stimuli/WF11_SC.jpg"",""stimuli/WM07_DO.jpg""]","stimuli/AF11_FO.jpg","stimuli/WF04_HO.jpg","stimuli/WF11_SC.jpg","stimuli/WM07_DO.jpg","pos2","stimuli/WF04_HO.jpg","HO","WF04","1","3.5","7","8","stimuli/stars_7.png","177","[""FO"",""HO"",""SC"",""DO""]","[""AF11"",""WF04"",""WF11"",""WM07""]","[4,7,0,6]","[4,8,2,6]","","",""
"show-reward","96","211016","0.0-96.0","p453686","A2Z43TA0WZ0EG0","3UUIU9GZC6BQMHTLWW3KSJ0W7IE5TB","3IHR8NYAM97DLQU8RCGR71OA1UR4PI","model","match","uniform","","","","","","","","210979.90000009537","212988.90000009537","","","","","","","","","","","","7","","stimuli/stars_7.png","177","","","","","stimuli/WF04_HO.jpg","",""
"explore-choice","97","212371","0.0-97.0","p453686","A2Z43TA0WZ0EG0","3UUIU9GZC6BQMHTLWW3KSJ0W7IE5TB","3IHR8NYAM97DLQU8RCGR71OA1UR4PI","model","match","uniform","","","","","","","852.7999999523163","212989.40000009537","213842.20000004768","[""stimuli/WF11_SC.jpg"",""stimuli/WF04_HO.jpg"",""stimuli/AF11_DO.jpg"",""stimuli/WM07_FO.jpg""]","stimuli/WF11_SC.jpg","stimuli/WF04_HO.jpg","stimuli/AF11_DO.jpg","stimuli/WM07_FO.jpg","pos2","stimuli/WF04_HO.jpg","HO","WF04","1","4.5","9","8","stimuli/stars_9.png","181.5","[""SC"",""HO"",""DO"",""FO""]","[""WF11"",""WF04"",""AF11"",""WM07""]","[3,9,2,4]","[2,8,4,6]","","",""
"show-reward","98","214379","0.0-98.0","p453686","A2Z43TA0WZ0EG0","3UUIU9GZC6BQMHTLWW3KSJ0W7IE5TB","3IHR8NYAM97DLQU8RCGR71OA1UR4PI","model","match","uniform","","","","","","","","214344.70000004768","216351.90000009537","","","","","","","","","","","","9","","stimuli/stars_9.png","181.5","","","","","stimuli/WF04_HO.jpg","",""
"explore-choice","99","216563","0.0-99.0","p453686","A2Z43TA0WZ0EG0","3UUIU9GZC6BQMHTLWW3KSJ0W7IE5TB","3IHR8NYAM97DLQU8RCGR71OA1UR4PI","model","match","uniform","","","","","","","1668.2000000476837","216352.60000014305","218020.80000019073","[""stimuli/WF11_HO.jpg"",""stimuli/AF11_SC.jpg"",""stimuli/WF04_FO.jpg"",""stimuli/WM07_DO.jpg""]","stimuli/WF11_HO.jpg","stimuli/AF11_SC.jpg","stimuli/WF04_FO.jpg","stimuli/WM07_DO.jpg","pos2","stimuli/AF11_SC.jpg","SC","AF11","1","1.5","3","4","stimuli/stars_3.png","183","[""HO"",""SC"",""FO"",""DO""]","[""WF11"",""AF11"",""WF04"",""WM07""]","[0,3,8,6]","[2,4,8,6]","","",""
"show-reward","100","218565","0.0-100.0","p453686","A2Z43TA0WZ0EG0","3UUIU9GZC6BQMHTLWW3KSJ0W7IE5TB","3IHR8NYAM97DLQU8RCGR71OA1UR4PI","model","match","uniform","","","","","","","","218536.40000009537","220537.90000009537","","","","","","","","","","","","3","","stimuli/stars_3.png","183","","","","","stimuli/AF11_SC.jpg","",""
"explore-choice","101","220415","0.0-101.0","p453686","A2Z43TA0WZ0EG0","3UUIU9GZC6BQMHTLWW3KSJ0W7IE5TB","3IHR8NYAM97DLQU8RCGR71OA1UR4PI","model","match","uniform","","","","","","","1334.7000000476837","220538.5","221873.20000004768","[""stimuli/WF04_FO.jpg"",""stimuli/WF11_DO.jpg"",""stimuli/WM07_HO.jpg"",""stimuli/AF11_SC.jpg""]","stimuli/WF04_FO.jpg","stimuli/WF11_DO.jpg","stimuli/WM07_HO.jpg","stimuli/AF11_SC.jpg","pos1","stimuli/WF04_FO.jpg","FO","WF04","0","4","8","8","stimuli/stars_8.png","187","[""FO"",""DO"",""HO"",""SC""]","[""WF04"",""WF11"",""WM07"",""AF11""]","[8,0,4,6]","[8,2,6,4]","","",""
"show-reward","102","222417","0.0-102.0","p453686","A2Z43TA0WZ0EG0","3UUIU9GZC6BQMHTLWW3KSJ0W7IE5TB","3IHR8NYAM97DLQU8RCGR71OA1UR4PI","model","match","uniform","","","","","","","","222388.5","224390.20000004768","","","","","","","","","","","","8","","stimuli/stars_8.png","187","","","","","stimuli/WF04_FO.jpg","",""
"explore-choice","103","225638","0.0-103.0","p453686","A2Z43TA0WZ0EG0","3UUIU9GZC6BQMHTLWW3KSJ0W7IE5TB","3IHR8NYAM97DLQU8RCGR71OA1UR4PI","model","match","uniform","","","","","","","2719.2000000476837","224390.70000004768","227109.90000009537","[""stimuli/AM03_AO.jpg"",""stimuli/HF04_CC.jpg"",""stimuli/BF04_SUR.jpg"",""stimuli/HM10_HE.jpg""]","stimuli/AM03_AO.jpg","stimuli/HF04_CC.jpg","stimuli/BF04_SUR.jpg","stimuli/HM10_HE.jpg","pos1","stimuli/AM03_AO.jpg","AO","AM03","0","2","4","2","stimuli/stars_4.png","189","[""AO"",""CC"",""SUR"",""HE""]","[""AM03"",""HF04"",""BF04"",""HM10""]","[4,2,9,7]","[2,4,8,6]","","",""
"show-reward","104","227644","0.0-104.0","p453686","A2Z43TA0WZ0EG0","3UUIU9GZC6BQMHTLWW3KSJ0W7IE5TB","3IHR8NYAM97DLQU8RCGR71OA1UR4PI","model","match","uniform","","","","","","","","227611.5","229616.70000004768","","","","","","","","","","","","4","","stimuli/stars_4.png","189","","","","","stimuli/AM03_AO.jpg","",""
"explore-choice","105","229174","0.0-105.0","p453686","A2Z43TA0WZ0EG0","3UUIU9GZC6BQMHTLWW3KSJ0W7IE5TB","3IHR8NYAM97DLQU8RCGR71OA1UR4PI","model","match","uniform","","","","","","","1015.1000001430511","229617.20000004768","230632.30000019073","[""stimuli/BF04_CC.jpg"",""stimuli/AM03_SUR.jpg"",""stimuli/HF04_HE.jpg"",""stimuli/HM10_AO.jpg""]","stimuli/BF04_CC.jpg","stimuli/AM03_SUR.jpg","stimuli/HF04_HE.jpg","stimuli/HM10_AO.jpg","pos4","stimuli/HM10_AO.jpg","AO","HM10","3","4","8","6","stimuli/stars_8.png","193","[""CC"",""SUR"",""HE"",""AO""]","[""BF04"",""AM03"",""HF04"",""HM10""]","[7,3,3,8]","[8,2,4,6]","","",""
"show-reward","106","231175","0.0-106.0","p453686","A2Z43TA0WZ0EG0","3UUIU9GZC6BQMHTLWW3KSJ0W7IE5TB","3IHR8NYAM97DLQU8RCGR71OA1UR4PI","model","match","uniform","","","","","","","","231147.10000014305","233147.80000019073","","","","","","","","","","","","8","","stimuli/stars_8.png","193","","","","","stimuli/HM10_AO.jpg","",""
"explore-choice","107","232774","0.0-107.0","p453686","A2Z43TA0WZ0EG0","3UUIU9GZC6BQMHTLWW3KSJ0W7IE5TB","3IHR8NYAM97DLQU8RCGR71OA1UR4PI","model","match","uniform","","","","","","","1084.5","233148.30000019073","234232.80000019073","[""stimuli/BF04_AO.jpg"",""stimuli/HF04_SUR.jpg"",""stimuli/AM03_CC.jpg"",""stimuli/HM10_HE.jpg""]","stimuli/BF04_AO.jpg","stimuli/HF04_SUR.jpg","stimuli/AM03_CC.jpg","stimuli/HM10_HE.jpg","pos4","stimuli/HM10_HE.jpg","HE","HM10","3","3","6","6","stimuli/stars_6.png","196","[""AO"",""SUR"",""CC"",""HE""]","[""BF04"",""HF04"",""AM03"",""HM10""]","[7,6,3,6]","[8,4,2,6]","","",""
"show-reward","108","234776","0.0-108.0","p453686","A2Z43TA0WZ0EG0","3UUIU9GZC6BQMHTLWW3KSJ0W7IE5TB","3IHR8NYAM97DLQU8RCGR71OA1UR4PI","model","match","uniform","","","","","","","","234747.30000019073","236749.10000014305","","","","","","","","","","","","6","","stimuli/stars_6.png","196","","","","","stimuli/HM10_HE.jpg","",""
"explore-choice","109","236792","0.0-109.0","p453686","A2Z43TA0WZ0EG0","3UUIU9GZC6BQMHTLWW3KSJ0W7IE5TB","3IHR8NYAM97DLQU8RCGR71OA1UR4PI","model","match","uniform","","","","","","","1511.7000000476837","236749.60000014305","238261.30000019073","[""stimuli/AM03_HE.jpg"",""stimuli/BF04_AO.jpg"",""stimuli/HM10_CC.jpg"",""stimuli/HF04_SUR.jpg""]","stimuli/AM03_HE.jpg","stimuli/BF04_AO.jpg","stimuli/HM10_CC.jpg","stimuli/HF04_SUR.jpg","pos3","stimuli/HM10_CC.jpg","CC","HM10","2","2","4","6","stimuli/stars_4.png","198","[""HE"",""AO"",""CC"",""SUR""]","[""AM03"",""BF04"",""HM10"",""HF04""]","[0,10,4,3]","[2,8,6,4]","","",""
"show-reward","110","238794","0.0-110.0","p453686","A2Z43TA0WZ0EG0","3UUIU9GZC6BQMHTLWW3KSJ0W7IE5TB","3IHR8NYAM97DLQU8RCGR71OA1UR4PI","model","match","uniform","","","","","","","","238765.60000014305","240767.10000014305","","","","","","","","","","","","4","","stimuli/stars_4.png","198","","","","","stimuli/HM10_CC.jpg","",""
"explore-choice","111","240259","0.0-111.0","p453686","A2Z43TA0WZ0EG0","3UUIU9GZC6BQMHTLWW3KSJ0W7IE5TB","3IHR8NYAM97DLQU8RCGR71OA1UR4PI","model","match","uniform","","","","","","","952.4000000953674","240767.5","241719.90000009537","[""stimuli/BF04_CC.jpg"",""stimuli/HF04_AO.jpg"",""stimuli/HM10_SUR.jpg"",""stimuli/AM03_HE.jpg""]","stimuli/BF04_CC.jpg","stimuli/HF04_AO.jpg","stimuli/HM10_SUR.jpg","stimuli/AM03_HE.jpg","pos2","stimuli/HF04_AO.jpg","AO","HF04","1","1.5","3","4","stimuli/stars_3.png","199.5","[""CC"",""AO"",""SUR"",""HE""]","[""BF04"",""HF04"",""HM10"",""AM03""]","[6,3,7,3]","[8,4,6,2]","","",""
"show-reward","112","242264","0.0-112.0","p453686","A2Z43TA0WZ0EG0","3UUIU9GZC6BQMHTLWW3KSJ0W7IE5TB","3IHR8NYAM97DLQU8RCGR71OA1UR4PI","model","match","uniform","","","","","","","","242232.60000014305","244236.60000014305","","","","","","","","","","","","3","","stimuli/stars_3.png","199.5","","","","","stimuli/HF04_AO.jpg","",""
"explore-choice","113","244243","0.0-113.0","p453686","A2Z43TA0WZ0EG0","3UUIU9GZC6BQMHTLWW3KSJ0W7IE5TB","3IHR8NYAM97DLQU8RCGR71OA1UR4PI","model","match","uniform","","","","","","","1463.2000000476837","244237.10000014305","245700.30000019073","[""stimuli/AM03_CC.jpg"",""stimuli/HF04_AO.jpg"",""stimuli/BF04_SUR.jpg"",""stimuli/HM10_HE.jpg""]","stimuli/AM03_CC.jpg","stimuli/HF04_AO.jpg","stimuli/BF04_SUR.jpg","stimuli/HM10_HE.jpg","pos4","stimuli/HM10_HE.jpg","HE","HM10","3","4","8","6","stimuli/stars_8.png","203.5","[""CC"",""AO"",""SUR"",""HE""]","[""AM03"",""HF04"",""BF04"",""HM10""]","[1,4,6,8]","[2,4,8,6]","","",""
"show-reward","114","246251","0.0-114.0","p453686","A2Z43TA0WZ0EG0","3UUIU9GZC6BQMHTLWW3KSJ0W7IE5TB","3IHR8NYAM97DLQU8RCGR71OA1UR4PI","model","match","uniform","","","","","","","","246216.40000009537","248223.30000019073","","","","","","","","","","","","8","","stimuli/stars_8.png","203.5","","","","","stimuli/HM10_HE.jpg","",""
"explore-choice","115","247707","0.0-115.0","p453686","A2Z43TA0WZ0EG0","3UUIU9GZC6BQMHTLWW3KSJ0W7IE5TB","3IHR8NYAM97DLQU8RCGR71OA1UR4PI","model","match","uniform","","","","","","","950.9000000953674","248223.90000009537","249174.80000019073","[""stimuli/BF04_CC.jpg"",""stimuli/AM03_AO.jpg"",""stimuli/HF04_HE.jpg"",""stimuli/HM10_SUR.jpg""]","stimuli/BF04_CC.jpg","stimuli/AM03_AO.jpg","stimuli/HF04_HE.jpg","stimuli/HM10_SUR.jpg","pos3","stimuli/HF04_HE.jpg","HE","HF04","2","2.5","5","4","stimuli/stars_5.png","206","[""CC"",""AO"",""HE"",""SUR""]","[""BF04"",""AM03"",""HF04"",""HM10""]","[10,4,5,8]","[8,2,4,6]","","",""
"show-reward","116","249711","0.0-116.0","p453686","A2Z43TA0WZ0EG0","3UUIU9GZC6BQMHTLWW3KSJ0W7IE5TB","3IHR8NYAM97DLQU8RCGR71OA1UR4PI","model","match","uniform","","","","","","","","249680.40000009537","251683.70000004768","","","","","","","","","","","","5","","stimuli/stars_5.png","206","","","","","stimuli/HF04_HE.jpg","",""
"explore-choice","117","252075","0.0-117.0","p453686","A2Z43TA0WZ0EG0","3UUIU9GZC6BQMHTLWW3KSJ0W7IE5TB","3IHR8NYAM97DLQU8RCGR71OA1UR4PI","model","match","uniform","","","","","","","1849","251684.30000019073","253533.30000019073","[""stimuli/BF04_HE.jpg"",""stimuli/HF04_CC.jpg"",""stimuli/HM10_SUR.jpg"",""stimuli/AM03_AO.jpg""]","stimuli/BF04_HE.jpg","stimuli/HF04_CC.jpg","stimuli/HM10_SUR.jpg","stimuli/AM03_AO.jpg","pos2","stimuli/HF04_CC.jpg","CC","HF04","1","2.5","5","4","stimuli/stars_5.png","208.5","[""HE"",""CC"",""SUR"",""AO""]","[""BF04"",""HF04"",""HM10"",""AM03""]","[9,5,4,1]","[8,4,6,2]","","",""
"show-reward","118","254083","0.0-118.0","p453686","A2Z43TA0WZ0EG0","3UUIU9GZC6BQMHTLWW3KSJ0W7IE5TB","3IHR8NYAM97DLQU8RCGR71OA1UR4PI","model","match","uniform","","","","","","","","254048.30000019073","256056","","","","","","","","","","","","5","","stimuli/stars_5.png","208.5","","","","","stimuli/HF04_CC.jpg","",""
"explore-choice","119","256250","0.0-119.0","p453686","A2Z43TA0WZ0EG0","3UUIU9GZC6BQMHTLWW3KSJ0W7IE5TB","3IHR8NYAM97DLQU8RCGR71OA1UR4PI","model","match","uniform","","","","","","","1653.5","256056.5","257710","[""stimuli/BF04_AO.jpg"",""stimuli/AM03_SUR.jpg"",""stimuli/HM10_CC.jpg"",""stimuli/HF04_HE.jpg""]","stimuli/BF04_AO.jpg","stimuli/AM03_SUR.jpg","stimuli/HM10_CC.jpg","stimuli/HF04_HE.jpg","pos1","stimuli/BF04_AO.jpg","AO","BF04","0","4.5","9","8","stimuli/stars_9.png","213","[""AO"",""SUR"",""CC"",""HE""]","[""BF04"",""AM03"",""HM10"",""HF04""]","[9,2,8,2]","[8,2,6,4]","","",""
"show-reward","120","258260","0.0-120.0","p453686","A2Z43TA0WZ0EG0","3UUIU9GZC6BQMHTLWW3KSJ0W7IE5TB","3IHR8NYAM97DLQU8RCGR71OA1UR4PI","model","match","uniform","","","","","","","","258223.40000009537","260233","","","","","","","","","","","","9","","stimuli/stars_9.png","213","","","","","stimuli/BF04_AO.jpg","",""
"explore-choice","121","259489","0.0-121.0","p453686","A2Z43TA0WZ0EG0","3UUIU9GZC6BQMHTLWW3KSJ0W7IE5TB","3IHR8NYAM97DLQU8RCGR71OA1UR4PI","model","match","uniform","","","","","","","726.8999998569489","260233.60000014305","260960.5","[""stimuli/BF04_SUR.jpg"",""stimuli/AM03_AO.jpg"",""stimuli/HM10_CC.jpg"",""stimuli/HF04_HE.jpg""]","stimuli/BF04_SUR.jpg","stimuli/AM03_AO.jpg","stimuli/HM10_CC.jpg","stimuli/HF04_HE.jpg","pos1","stimuli/BF04_SUR.jpg","SUR","BF04","0","3.5","7","8","stimuli/stars_7.png","216.5","[""SUR"",""AO"",""CC"",""HE""]","[""BF04"",""AM03"",""HM10"",""HF04""]","[7,1,8,4]","[8,2,6,4]","","",""
"show-reward","122","261491","0.0-122.0","p453686","A2Z43TA0WZ0EG0","3UUIU9GZC6BQMHTLWW3KSJ0W7IE5TB","3IHR8NYAM97DLQU8RCGR71OA1UR4PI","model","match","uniform","","","","","","","","261462.40000009537","263463.2000000477","","","","","","","","","","","","7","","stimuli/stars_7.png","216.5","","","","","stimuli/BF04_SUR.jpg","",""
"explore-choice","123","262983","0.0-123.0","p453686","A2Z43TA0WZ0EG0","3UUIU9GZC6BQMHTLWW3KSJ0W7IE5TB","3IHR8NYAM97DLQU8RCGR71OA1UR4PI","model","match","uniform","","","","","","","983.2000000476837","263463.90000009537","264447.10000014305","[""stimuli/HF04_CC.jpg"",""stimuli/BF04_HE.jpg"",""stimuli/HM10_AO.jpg"",""stimuli/AM03_SUR.jpg""]","stimuli/HF04_CC.jpg","stimuli/BF04_HE.jpg","stimuli/HM10_AO.jpg","stimuli/AM03_SUR.jpg","pos2","stimuli/BF04_HE.jpg","HE","BF04","1","4.5","9","8","stimuli/stars_9.png","221","[""CC"",""HE"",""AO"",""SUR""]","[""HF04"",""BF04"",""HM10"",""AM03""]","[4,9,4,4]","[4,8,6,2]","","",""
"show-reward","124","264985","0.0-124.0","p453686","A2Z43TA0WZ0EG0","3UUIU9GZC6BQMHTLWW3KSJ0W7IE5TB","3IHR8NYAM97DLQU8RCGR71OA1UR4PI","model","match","uniform","","","","","","","","264955.80000019073","266957.80000019073","","","","","","","","","","","","9","","stimuli/stars_9.png","221","","","","","stimuli/BF04_HE.jpg","",""
"explore-choice","125","266278","0.0-125.0","p453686","A2Z43TA0WZ0EG0","3UUIU9GZC6BQMHTLWW3KSJ0W7IE5TB","3IHR8NYAM97DLQU8RCGR71OA1UR4PI","model","match","uniform","","","","","","","780.6000001430511","266958.7000000477","267739.30000019073","[""stimuli/HF04_CC.jpg"",""stimuli/AM03_SUR.jpg"",""stimuli/BF04_AO.jpg"",""stimuli/HM10_HE.jpg""]","stimuli/HF04_CC.jpg","stimuli/AM03_SUR.jpg","stimuli/BF04_AO.jpg","stimuli/HM10_HE.jpg","pos3","stimuli/BF04_AO.jpg","AO","BF04","2","4.5","9","8","stimuli/stars_9.png","225.5","[""CC"",""SUR"",""AO"",""HE""]","[""HF04"",""AM03"",""BF04"",""HM10""]","[5,2,9,5]","[4,2,8,6]","","",""
"show-reward","126","268280","0.0-126.0","p453686","A2Z43TA0WZ0EG0","3UUIU9GZC6BQMHTLWW3KSJ0W7IE5TB","3IHR8NYAM97DLQU8RCGR71OA1UR4PI","model","match","uniform","","","","","","","","268251.30000019073","270252.30000019073","","","","","","","","","","","","9","","stimuli/stars_9.png","225.5","","","","","stimuli/BF04_AO.jpg","",""
"explore-choice","127","269771","0.0-127.0","p453686","A2Z43TA0WZ0EG0","3UUIU9GZC6BQMHTLWW3KSJ0W7IE5TB","3IHR8NYAM97DLQU8RCGR71OA1UR4PI","model","match","uniform","","","","","","","985","270252.90000009537","271237.90000009537","[""stimuli/BF04_HE.jpg"",""stimuli/AM03_CC.jpg"",""stimuli/HF04_SUR.jpg"",""stimuli/HM10_AO.jpg""]","stimuli/BF04_HE.jpg","stimuli/AM03_CC.jpg","stimuli/HF04_SUR.jpg","stimuli/HM10_AO.jpg","pos1","stimuli/BF04_HE.jpg","HE","BF04","0","3.5","7","8","stimuli/stars_7.png","229","[""HE"",""CC"",""SUR"",""AO""]","[""BF04"",""AM03"",""HF04"",""HM10""]","[7,4,2,5]","[8,2,4,6]","","",""
"show-reward","128","271785","0.0-128.0","p453686","A2Z43TA0WZ0EG0","3UUIU9GZC6BQMHTLWW3KSJ0W7IE5TB","3IHR8NYAM97DLQU8RCGR71OA1UR4PI","model","match","uniform","","","","","","","","271744.40000009537","273757.7000000477","","","","","","","","","","","","7","","stimuli/stars_7.png","229","","","","","stimuli/BF04_HE.jpg","",""
"explore-choice","129","273280","0.0-129.0","p453686","A2Z43TA0WZ0EG0","3UUIU9GZC6BQMHTLWW3KSJ0W7IE5TB","3IHR8NYAM97DLQU8RCGR71OA1UR4PI","model","match","uniform","","","","","","","986","273758.30000019073","274744.30000019073","[""stimuli/HM10_SUR.jpg"",""stimuli/AM03_CC.jpg"",""stimuli/HF04_AO.jpg"",""stimuli/BF04_HE.jpg""]","stimuli/HM10_SUR.jpg","stimuli/AM03_CC.jpg","stimuli/HF04_AO.jpg","stimuli/BF04_HE.jpg","pos4","stimuli/BF04_HE.jpg","HE","BF04","3","4.5","9","8","stimuli/stars_9.png","233.5","[""SUR"",""CC"",""AO"",""HE""]","[""HM10"",""AM03"",""HF04"",""BF04""]","[5,1,6,9]","[6,2,4,8]","","",""
"show-reward","130","275281","0.0-130.0","p453686","A2Z43TA0WZ0EG0","3UUIU9GZC6BQMHTLWW3KSJ0W7IE5TB","3IHR8NYAM97DLQU8RCGR71OA1UR4PI","model","match","uniform","","","","","","","","275252.7000000477","277253.90000009537","","","","","","","","","","","","9","","stimuli/stars_9.png","233.5","","","","","stimuli/BF04_HE.jpg","",""
"explore-choice","131","276891","0.0-131.0","p453686","A2Z43TA0WZ0EG0","3UUIU9GZC6BQMHTLWW3KSJ0W7IE5TB","3IHR8NYAM97DLQU8RCGR71OA1UR4PI","model","match","uniform","","","","","","","1104.5","277254.30000019073","278358.80000019073","[""stimuli/BF04_CC.jpg"",""stimuli/HF04_SUR.jpg"",""stimuli/HM10_HE.jpg"",""stimuli/AM03_AO.jpg""]","stimuli/BF04_CC.jpg","stimuli/HF04_SUR.jpg","stimuli/HM10_HE.jpg","stimuli/AM03_AO.jpg","pos1","stimuli/BF04_CC.jpg","CC","BF04","0","4","8","8","stimuli/stars_8.png","237.5","[""CC"",""SUR"",""HE"",""AO""]","[""BF04"",""HF04"",""HM10"",""AM03""]","[8,4,5,4]","[8,4,6,2]","","",""
"show-reward","132","278896","0.0-132.0","p453686","A2Z43TA0WZ0EG0","3UUIU9GZC6BQMHTLWW3KSJ0W7IE5TB","3IHR8NYAM97DLQU8RCGR71OA1UR4PI","model","match","uniform","","","","","","","","278864.40000009537","280868.5","","","","","","","","","","","","8","","stimuli/stars_8.png","237.5","","","","","stimuli/BF04_CC.jpg","",""
"explore-choice","133","280710","0.0-133.0","p453686","A2Z43TA0WZ0EG0","3UUIU9GZC6BQMHTLWW3KSJ0W7IE5TB","3IHR8NYAM97DLQU8RCGR71OA1UR4PI","model","match","uniform","","","","","","","1298.2000000476837","280869.10000014305","282167.30000019073","[""stimuli/BF04_HE.jpg"",""stimuli/AM03_SUR.jpg"",""stimuli/HM10_CC.jpg"",""stimuli/HF04_AO.jpg""]","stimuli/BF04_HE.jpg","stimuli/AM03_SUR.jpg","stimuli/HM10_CC.jpg","stimuli/HF04_AO.jpg","pos1","stimuli/BF04_HE.jpg","HE","BF04","0","4.5","9","8","stimuli/stars_9.png","242","[""HE"",""SUR"",""CC"",""AO""]","[""BF04"",""AM03"",""HM10"",""HF04""]","[9,3,4,5]","[8,2,6,4]","","",""
"show-reward","134","282725","0.0-134.0","p453686","A2Z43TA0WZ0EG0","3UUIU9GZC6BQMHTLWW3KSJ0W7IE5TB","3IHR8NYAM97DLQU8RCGR71OA1UR4PI","model","match","uniform","","","","","","","","282683.60000014305","284697.7000000477","","","","","","","","","","","","9","","stimuli/stars_9.png","242","","","","","stimuli/BF04_HE.jpg","",""
"explore-choice","135","284732","0.0-135.0","p453686","A2Z43TA0WZ0EG0","3UUIU9GZC6BQMHTLWW3KSJ0W7IE5TB","3IHR8NYAM97DLQU8RCGR71OA1UR4PI","model","match","uniform","","","","","","","1505.5","284698.40000009537","286203.90000009537","[""stimuli/HM10_SUR.jpg"",""stimuli/BF04_AO.jpg"",""stimuli/AM03_CC.jpg"",""stimuli/HF04_HE.jpg""]","stimuli/HM10_SUR.jpg","stimuli/BF04_AO.jpg","stimuli/AM03_CC.jpg","stimuli/HF04_HE.jpg","pos2","stimuli/BF04_AO.jpg","AO","BF04","1","3","6","8","stimuli/stars_6.png","245","[""SUR"",""AO"",""CC"",""HE""]","[""HM10"",""BF04"",""AM03"",""HF04""]","[7,6,1,5]","[6,8,2,4]","","",""
"show-reward","136","286734","0.0-136.0","p453686","A2Z43TA0WZ0EG0","3UUIU9GZC6BQMHTLWW3KSJ0W7IE5TB","3IHR8NYAM97DLQU8RCGR71OA1UR4PI","model","match","uniform","","","","","","","","286705.60000014305","288707.30000019073","","","","","","","","","","","","6","","stimuli/stars_6.png","245","","","","","stimuli/BF04_AO.jpg","",""
"explore-choice","137","288313","0.0-137.0","p453686","A2Z43TA0WZ0EG0","3UUIU9GZC6BQMHTLWW3KSJ0W7IE5TB","3IHR8NYAM97DLQU8RCGR71OA1UR4PI","model","match","uniform","","","","","","","1072.6000001430511","288707.7000000477","289780.30000019073","[""stimuli/HM10_SUR.jpg"",""stimuli/AM03_HE.jpg"",""stimuli/BF04_AO.jpg"",""stimuli/HF04_CC.jpg""]","stimuli/HM10_SUR.jpg","stimuli/AM03_HE.jpg","stimuli/BF04_AO.jpg","stimuli/HF04_CC.jpg","pos3","stimuli/BF04_AO.jpg","AO","BF04","2","4.5","9","8","stimuli/stars_9.png","249.5","[""SUR"",""HE"",""AO"",""CC""]","[""HM10"",""AM03"",""BF04"",""HF04""]","[4,4,9,2]","[6,2,8,4]","","",""
"show-reward","138","290315","0.0-138.0","p453686","A2Z43TA0WZ0EG0","3UUIU9GZC6BQMHTLWW3KSJ0W7IE5TB","3IHR8NYAM97DLQU8RCGR71OA1UR4PI","model","match","uniform","","","","","","","","290286.5","292287.90000009537","","","","","","","","","","","","9","","stimuli/stars_9.png","249.5","","","","","stimuli/BF04_AO.jpg","",""
"explore-choice","139","291703","0.0-139.0","p453686","A2Z43TA0WZ0EG0","3UUIU9GZC6BQMHTLWW3KSJ0W7IE5TB","3IHR8NYAM97DLQU8RCGR71OA1UR4PI","model","match","uniform","","","","","","","884.5","292288.30000019073","293172.80000019073","[""stimuli/HF04_HE.jpg"",""stimuli/HM10_AO.jpg"",""stimuli/AM03_CC.jpg"",""stimuli/BF04_SUR.jpg""]","stimuli/HF04_HE.jpg","stimuli/HM10_AO.jpg","stimuli/AM03_CC.jpg","stimuli/BF04_SUR.jpg","pos4","stimuli/BF04_SUR.jpg","SUR","BF04","3","5","10","8","stimuli/stars_10.png","254.5","[""HE"",""AO"",""CC"",""SUR""]","[""HF04"",""HM10"",""AM03"",""BF04""]","[6,6,2,10]","[4,6,2,8]","","",""
"show-reward","140","293704","0.0-140.0","p453686","A2Z43TA0WZ0EG0","3UUIU9GZC6BQMHTLWW3KSJ0W7IE5TB","3IHR8NYAM97DLQU8RCGR71OA1UR4PI","model","match","uniform","","","","","","","","293676.30000019073","295677.10000014305","","","","","","","","","","","","10","","stimuli/stars_10.png","254.5","","","","","stimuli/BF04_SUR.jpg","",""
"explore-choice","141","295024","0.0-141.0","p453686","A2Z43TA0WZ0EG0","3UUIU9GZC6BQMHTLWW3KSJ0W7IE5TB","3IHR8NYAM97DLQU8RCGR71OA1UR4PI","model","match","uniform","","","","","","","803.2000000476837","295678.10000014305","296481.30000019073","[""stimuli/AM03_AO.jpg"",""stimuli/HF04_SUR.jpg"",""stimuli/HM10_CC.jpg"",""stimuli/BF04_HE.jpg""]","stimuli/AM03_AO.jpg","stimuli/HF04_SUR.jpg","stimuli/HM10_CC.jpg","stimuli/BF04_HE.jpg","pos4","stimuli/BF04_HE.jpg","HE","BF04","3","4","8","8","stimuli/stars_8.png","258.5","[""AO"",""SUR"",""CC"",""HE""]","[""AM03"",""HF04"",""HM10"",""BF04""]","[1,5,6,8]","[2,4,6,8]","","",""
"show-reward","142","297027","0.0-142.0","p453686","A2Z43TA0WZ0EG0","3UUIU9GZC6BQMHTLWW3KSJ0W7IE5TB","3IHR8NYAM97DLQU8RCGR71OA1UR4PI","model","match","uniform","","","","","","","","296997.60000014305","298999.40000009537","","","","","","","","","","","","8","","stimuli/stars_8.png","258.5","","","","","stimuli/BF04_HE.jpg","",""
"explore-choice","143","298405","0.0-143.0","p453686","A2Z43TA0WZ0EG0","3UUIU9GZC6BQMHTLWW3KSJ0W7IE5TB","3IHR8NYAM97DLQU8RCGR71OA1UR4PI","model","match","uniform","","","","","","","866.1999998092651","298999.80000019073","299866","[""stimuli/BF04_SUR.jpg"",""stimuli/HF04_AO.jpg"",""stimuli/HM10_CC.jpg"",""stimuli/AM03_HE.jpg""]","stimuli/BF04_SUR.jpg","stimuli/HF04_AO.jpg","stimuli/HM10_CC.jpg","stimuli/AM03_HE.jpg","pos1","stimuli/BF04_SUR.jpg","SUR","BF04","0","3","6","8","stimuli/stars_6.png","261.5","[""SUR"",""AO"",""CC"",""HE""]","[""BF04"",""HF04"",""HM10"",""AM03""]","[6,3,8,1]","[8,4,6,2]","","",""
"show-reward","144","300411","0.0-144.0","p453686","A2Z43TA0WZ0EG0","3UUIU9GZC6BQMHTLWW3KSJ0W7IE5TB","3IHR8NYAM97DLQU8RCGR71OA1UR4PI","model","match","uniform","","","","","","","","300378.60000014305","302384","","","","","","","","","","","","6","","stimuli/stars_6.png","261.5","","","","","stimuli/BF04_SUR.jpg","",""
"explore-choice","145","301887","0.0-145.0","p453686","A2Z43TA0WZ0EG0","3UUIU9GZC6BQMHTLWW3KSJ0W7IE5TB","3IHR8NYAM97DLQU8RCGR71OA1UR4PI","model","match","uniform","","","","","","","969.5","302384.5","303354","[""stimuli/HF04_SUR.jpg"",""stimuli/BF04_CC.jpg"",""stimuli/AM03_HE.jpg"",""stimuli/HM10_AO.jpg""]","stimuli/HF04_SUR.jpg","stimuli/BF04_CC.jpg","stimuli/AM03_HE.jpg","stimuli/HM10_AO.jpg","pos2","stimuli/BF04_CC.jpg","CC","BF04","1","4.5","9","8","stimuli/stars_9.png","266","[""SUR"",""CC"",""HE"",""AO""]","[""HF04"",""BF04"",""AM03"",""HM10""]","[5,9,4,4]","[4,8,2,6]","","",""
"show-reward","146","303892","0.0-146.0","p453686","A2Z43TA0WZ0EG0","3UUIU9GZC6BQMHTLWW3KSJ0W7IE5TB","3IHR8NYAM97DLQU8RCGR71OA1UR4PI","model","match","uniform","","","","","","","","303861.10000014305","305865","","","","","","","","","","","","9","","stimuli/stars_9.png","266","","","","","stimuli/BF04_CC.jpg","",""
"explore-choice","147","305388","0.0-147.0","p453686","A2Z43TA0WZ0EG0","3UUIU9GZC6BQMHTLWW3KSJ0W7IE5TB","3IHR8NYAM97DLQU8RCGR71OA1UR4PI","model","match","uniform","","","","","","","995","305865.5","306860.5","[""stimuli/HF04_AO.jpg"",""stimuli/HM10_HE.jpg"",""stimuli/BF04_CC.jpg"",""stimuli/AM03_SUR.jpg""]","stimuli/HF04_AO.jpg","stimuli/HM10_HE.jpg","stimuli/BF04_CC.jpg","stimuli/AM03_SUR.jpg","pos3","stimuli/BF04_CC.jpg","CC","BF04","2","4","8","8","stimuli/stars_8.png","270","[""AO"",""HE"",""CC"",""SUR""]","[""HF04"",""HM10"",""BF04"",""AM03""]","[6,7,8,4]","[4,6,8,2]","","",""
"show-reward","148","307389","0.0-148.0","p453686","A2Z43TA0WZ0EG0","3UUIU9GZC6BQMHTLWW3KSJ0W7IE5TB","3IHR8NYAM97DLQU8RCGR71OA1UR4PI","model","match","uniform","","","","","","","","307361.80000019073","309362.7000000477","","","","","","","","","","","","8","","stimuli/stars_8.png","270","","","","","stimuli/BF04_CC.jpg","",""
"explore-choice","149","308907","0.0-149.0","p453686","A2Z43TA0WZ0EG0","3UUIU9GZC6BQMHTLWW3KSJ0W7IE5TB","3IHR8NYAM97DLQU8RCGR71OA1UR4PI","model","match","uniform","","","","","","","1001.6999998092651","309363.30000019073","310365","[""stimuli/BF04_SUR.jpg"",""stimuli/AM03_HE.jpg"",""stimuli/HM10_AO.jpg"",""stimuli/HF04_CC.jpg""]","stimuli/BF04_SUR.jpg","stimuli/AM03_HE.jpg","stimuli/HM10_AO.jpg","stimuli/HF04_CC.jpg","pos1","stimuli/BF04_SUR.jpg","SUR","BF04","0","4","8","8","stimuli/stars_8.png","274","[""SUR"",""HE"",""AO"",""CC""]","[""BF04"",""AM03"",""HM10"",""HF04""]","[8,3,4,3]","[8,2,6,4]","","",""
"show-reward","150","310911","0.0-150.0","p453686","A2Z43TA0WZ0EG0","3UUIU9GZC6BQMHTLWW3KSJ0W7IE5TB","3IHR8NYAM97DLQU8RCGR71OA1UR4PI","model","match","uniform","","","","","","","","310880.7000000477","312884.60000014305","","","","","","","","","","","","8","","stimuli/stars_8.png","274","","","","","stimuli/BF04_SUR.jpg","",""
"explore-choice","151","312343","0.0-151.0","p453686","A2Z43TA0WZ0EG0","3UUIU9GZC6BQMHTLWW3KSJ0W7IE5TB","3IHR8NYAM97DLQU8RCGR71OA1UR4PI","model","match","uniform","","","","","","","926.5","312885.2000000477","313811.7000000477","[""stimuli/AM03_HE.jpg"",""stimuli/HM10_SUR.jpg"",""stimuli/BF04_AO.jpg"",""stimuli/HF04_CC.jpg""]","stimuli/AM03_HE.jpg","stimuli/HM10_SUR.jpg","stimuli/BF04_AO.jpg","stimuli/HF04_CC.jpg","pos3","stimuli/BF04_AO.jpg","AO","BF04","2","4.5","9","8","stimuli/stars_9.png","278.5","[""HE"",""SUR"",""AO"",""CC""]","[""AM03"",""HM10"",""BF04"",""HF04""]","[4,4,9,2]","[2,6,8,4]","","",""
"show-reward","152","314348","0.0-152.0","p453686","A2Z43TA0WZ0EG0","3UUIU9GZC6BQMHTLWW3KSJ0W7IE5TB","3IHR8NYAM97DLQU8RCGR71OA1UR4PI","model","match","uniform","","","","","","","","314316.80000019073","316321.40000009537","","","","","","","","","","","","9","","stimuli/stars_9.png","278.5","","","","","stimuli/BF04_AO.jpg","",""
"explore-choice","153","315661","0.0-153.0","p453686","A2Z43TA0WZ0EG0","3UUIU9GZC6BQMHTLWW3KSJ0W7IE5TB","3IHR8NYAM97DLQU8RCGR71OA1UR4PI","model","match","uniform","","","","","","","802.1000001430511","316322","317124.10000014305","[""stimuli/HF04_CC.jpg"",""stimuli/BF04_HE.jpg"",""stimuli/AM03_AO.jpg"",""stimuli/HM10_SUR.jpg""]","stimuli/HF04_CC.jpg","stimuli/BF04_HE.jpg","stimuli/AM03_AO.jpg","stimuli/HM10_SUR.jpg","pos2","stimuli/BF04_HE.jpg","HE","BF04","1","4.5","9","8","stimuli/stars_9.png","283","[""CC"",""HE"",""AO"",""SUR""]","[""HF04"",""BF04"",""AM03"",""HM10""]","[5,9,1,4]","[4,8,2,6]","","",""
"show-reward","154","317676","0.0-154.0","p453686","A2Z43TA0WZ0EG0","3UUIU9GZC6BQMHTLWW3KSJ0W7IE5TB","3IHR8NYAM97DLQU8RCGR71OA1UR4PI","model","match","uniform","","","","","","","","317635.2000000477","319649.7000000477","","","","","","","","","","","","9","","stimuli/stars_9.png","283","","","","","stimuli/BF04_HE.jpg","",""
"explore-choice","155","319131","0.0-155.0","p453686","A2Z43TA0WZ0EG0","3UUIU9GZC6BQMHTLWW3KSJ0W7IE5TB","3IHR8NYAM97DLQU8RCGR71OA1UR4PI","model","match","uniform","","","","","","","948.1000001430511","319650.2000000477","320598.30000019073","[""stimuli/AM03_AO.jpg"",""stimuli/HF04_SUR.jpg"",""stimuli/BF04_CC.jpg"",""stimuli/HM10_HE.jpg""]","stimuli/AM03_AO.jpg","stimuli/HF04_SUR.jpg","stimuli/BF04_CC.jpg","stimuli/HM10_HE.jpg","pos3","stimuli/BF04_CC.jpg","CC","BF04","2","4","8","8","stimuli/stars_8.png","287","[""AO"",""SUR"",""CC"",""HE""]","[""AM03"",""HF04"",""BF04"",""HM10""]","[4,4,8,5]","[2,4,8,6]","","",""
"show-reward","156","321133","0.0-156.0","p453686","A2Z43TA0WZ0EG0","3UUIU9GZC6BQMHTLWW3KSJ0W7IE5TB","3IHR8NYAM97DLQU8RCGR71OA1UR4PI","model","match","uniform","","","","","","","","321104.80000019073","323106.7000000477","","","","","","","","","","","","8","","stimuli/stars_8.png","287","","","","","stimuli/BF04_CC.jpg","",""
"explore-choice","157","322297","0.0-157.0","p453686","A2Z43TA0WZ0EG0","3UUIU9GZC6BQMHTLWW3KSJ0W7IE5TB","3IHR8NYAM97DLQU8RCGR71OA1UR4PI","model","match","uniform","","","","","","","659.6000001430511","323107.2000000477","323766.80000019073","[""stimuli/AM03_HE.jpg"",""stimuli/HF04_SUR.jpg"",""stimuli/HM10_CC.jpg"",""stimuli/BF04_AO.jpg""]","stimuli/AM03_HE.jpg","stimuli/HF04_SUR.jpg","stimuli/HM10_CC.jpg","stimuli/BF04_AO.jpg","pos4","stimuli/BF04_AO.jpg","AO","BF04","3","5","10","8","stimuli/stars_10.png","292","[""HE"",""SUR"",""CC"",""AO""]","[""AM03"",""HF04"",""HM10"",""BF04""]","[0,3,4,10]","[2,4,6,8]","","",""
"show-reward","158","324310","0.0-158.0","p453686","A2Z43TA0WZ0EG0","3UUIU9GZC6BQMHTLWW3KSJ0W7IE5TB","3IHR8NYAM97DLQU8RCGR71OA1UR4PI","model","match","uniform","","","","","","","","324270.60000014305","326283.60000014305","","","","","","","","","","","","10","","stimuli/stars_10.png","292","","","","","stimuli/BF04_AO.jpg","",""
"explore-choice","159","325605","0.0-159.0","p453686","A2Z43TA0WZ0EG0","3UUIU9GZC6BQMHTLWW3KSJ0W7IE5TB","3IHR8NYAM97DLQU8RCGR71OA1UR4PI","model","match","uniform","","","","","","","787.0999999046326","326284.10000014305","327071.2000000477","[""stimuli/AM03_AO.jpg"",""stimuli/BF04_CC.jpg"",""stimuli/HF04_HE.jpg"",""stimuli/HM10_SUR.jpg""]","stimuli/AM03_AO.jpg","stimuli/BF04_CC.jpg","stimuli/HF04_HE.jpg","stimuli/HM10_SUR.jpg","pos2","stimuli/BF04_CC.jpg","CC","BF04","1","5","10","8","stimuli/stars_10.png","297","[""AO"",""CC"",""HE"",""SUR""]","[""AM03"",""BF04"",""HF04"",""HM10""]","[4,10,5,8]","[2,8,4,6]","","",""
"show-reward","160","327607","0.0-160.0","p453686","A2Z43TA0WZ0EG0","3UUIU9GZC6BQMHTLWW3KSJ0W7IE5TB","3IHR8NYAM97DLQU8RCGR71OA1UR4PI","model","match","uniform","","","","","","","","327578.5","329580.7000000477","","","","","","","","","","","","10","","stimuli/stars_10.png","297","","","","","stimuli/BF04_CC.jpg","",""
"explore-choice","161","328950","0.0-161.0","p453686","A2Z43TA0WZ0EG0","3UUIU9GZC6BQMHTLWW3KSJ0W7IE5TB","3IHR8NYAM97DLQU8RCGR71OA1UR4PI","model","match","uniform","","","","","","","830.7999999523163","329581.10000014305","330411.90000009537","[""stimuli/HF04_AO.jpg"",""stimuli/AM03_HE.jpg"",""stimuli/HM10_CC.jpg"",""stimuli/BF04_SUR.jpg""]","stimuli/HF04_AO.jpg","stimuli/AM03_HE.jpg","stimuli/HM10_CC.jpg","stimuli/BF04_SUR.jpg","pos4","stimuli/BF04_SUR.jpg","SUR","BF04","3","3","6","8","stimuli/stars_6.png","300","[""AO"",""HE"",""CC"",""SUR""]","[""HF04"",""AM03"",""HM10"",""BF04""]","[3,1,8,6]","[4,2,6,8]","","",""
"show-reward","162","330952","0.0-162.0","p453686","A2Z43TA0WZ0EG0","3UUIU9GZC6BQMHTLWW3KSJ0W7IE5TB","3IHR8NYAM97DLQU8RCGR71OA1UR4PI","model","match","uniform","","","","","","","","330923.60000014305","332925","","","","","","","","","","","","6","","stimuli/stars_6.png","300","","","","","stimuli/BF04_SUR.jpg","",""
"explore-choice","163","332508","0.0-163.0","p453686","A2Z43TA0WZ0EG0","3UUIU9GZC6BQMHTLWW3KSJ0W7IE5TB","3IHR8NYAM97DLQU8RCGR71OA1UR4PI","model","match","uniform","","","","","","","1046.7999999523163","332925.40000009537","333972.2000000477","[""stimuli/AM03_AO.jpg"",""stimuli/HF04_HE.jpg"",""stimuli/BF04_SUR.jpg"",""stimuli/HM10_CC.jpg""]","stimuli/AM03_AO.jpg","stimuli/HF04_HE.jpg","stimuli/BF04_SUR.jpg","stimuli/HM10_CC.jpg","pos3","stimuli/BF04_SUR.jpg","SUR","BF04","2","3.5","7","8","stimuli/stars_7.png","303.5","[""AO"",""HE"",""SUR"",""CC""]","[""AM03"",""HF04"",""BF04"",""HM10""]","[1,4,7,8]","[2,4,8,6]","","",""
"show-reward","164","334510","0.0-164.0","p453686","A2Z43TA0WZ0EG0","3UUIU9GZC6BQMHTLWW3KSJ0W7IE5TB","3IHR8NYAM97DLQU8RCGR71OA1UR4PI","model","match","uniform","","","","","","","","334482.30000019073","336483.7000000477","","","","","","","","","","","","7","","stimuli/stars_7.png","303.5","","","","","stimuli/BF04_SUR.jpg","",""
"explore-choice","165","335574","0.0-165.0","p453686","A2Z43TA0WZ0EG0","3UUIU9GZC6BQMHTLWW3KSJ0W7IE5TB","3IHR8NYAM97DLQU8RCGR71OA1UR4PI","model","match","uniform","","","","","","","562.4000000953674","336484.2000000477","337046.60000014305","[""stimuli/AM03_CC.jpg"",""stimuli/HM10_AO.jpg"",""stimuli/BF04_HE.jpg"",""stimuli/HF04_SUR.jpg""]","stimuli/AM03_CC.jpg","stimuli/HM10_AO.jpg","stimuli/BF04_HE.jpg","stimuli/HF04_SUR.jpg","pos3","stimuli/BF04_HE.jpg","HE","BF04","2","3.5","7","8","stimuli/stars_7.png","307","[""CC"",""AO"",""HE"",""SUR""]","[""AM03"",""HM10"",""BF04"",""HF04""]","[4,5,7,2]","[2,6,8,4]","","",""
"show-reward","166","337588","0.0-166.0","p453686","A2Z43TA0WZ0EG0","3UUIU9GZC6BQMHTLWW3KSJ0W7IE5TB","3IHR8NYAM97DLQU8RCGR71OA1UR4PI","model","match","uniform","","","","","","","","337547.90000009537","339561.7000000477","","","","","","","","","","","","7","","stimuli/stars_7.png","307","","","","","stimuli/BF04_HE.jpg","",""
"explore-choice","167","338815","0.0-167.0","p453686","A2Z43TA0WZ0EG0","3UUIU9GZC6BQMHTLWW3KSJ0W7IE5TB","3IHR8NYAM97DLQU8RCGR71OA1UR4PI","model","match","uniform","","","","","","","724.7000000476837","339562.2000000477","340286.90000009537","[""stimuli/HF04_CC.jpg"",""stimuli/AM03_HE.jpg"",""stimuli/BF04_SUR.jpg"",""stimuli/HM10_AO.jpg""]","stimuli/HF04_CC.jpg","stimuli/AM03_HE.jpg","stimuli/BF04_SUR.jpg","stimuli/HM10_AO.jpg","pos3","stimuli/BF04_SUR.jpg","SUR","BF04","2","4","8","8","stimuli/stars_8.png","311","[""CC"",""HE"",""SUR"",""AO""]","[""HF04"",""AM03"",""BF04"",""HM10""]","[3,3,8,4]","[4,2,8,6]","","",""
"show-reward","168","340831","0.0-168.0","p453686","A2Z43TA0WZ0EG0","3UUIU9GZC6BQMHTLWW3KSJ0W7IE5TB","3IHR8NYAM97DLQU8RCGR71OA1UR4PI","model","match","uniform","","","","","","","","340789.90000009537","342803.80000019073","","","","","","","","","","","","8","","stimuli/stars_8.png","311","","","","","stimuli/BF04_SUR.jpg","",""
"explore-choice","169","342214","0.0-169.0","p453686","A2Z43TA0WZ0EG0","3UUIU9GZC6BQMHTLWW3KSJ0W7IE5TB","3IHR8NYAM97DLQU8RCGR71OA1UR4PI","model","match","uniform","","","","","","","878.7000000476837","342804.90000009537","343683.60000014305","[""stimuli/AM03_SUR.jpg"",""stimuli/HM10_AO.jpg"",""stimuli/BF04_HE.jpg"",""stimuli/HF04_CC.jpg""]","stimuli/AM03_SUR.jpg","stimuli/HM10_AO.jpg","stimuli/BF04_HE.jpg","stimuli/HF04_CC.jpg","pos3","stimuli/BF04_HE.jpg","HE","BF04","2","4.5","9","8","stimuli/stars_9.png","315.5","[""SUR"",""AO"",""HE"",""CC""]","[""AM03"",""HM10"",""BF04"",""HF04""]","[4,4,9,4]","[2,6,8,4]","","",""
"show-reward","170","344216","0.0-170.0","p453686","A2Z43TA0WZ0EG0","3UUIU9GZC6BQMHTLWW3KSJ0W7IE5TB","3IHR8NYAM97DLQU8RCGR71OA1UR4PI","model","match","uniform","","","","","","","","344188.10000014305","346189.7000000477","","","","","","","","","","","","9","","stimuli/stars_9.png","315.5","","","","","stimuli/BF04_HE.jpg","",""
"explore-choice","171","345564","0.0-171.0","p453686","A2Z43TA0WZ0EG0","3UUIU9GZC6BQMHTLWW3KSJ0W7IE5TB","3IHR8NYAM97DLQU8RCGR71OA1UR4PI","model","match","uniform","","","","","","","837.7000000476837","346190.2000000477","347027.90000009537","[""stimuli/HM10_CC.jpg"",""stimuli/HF04_SUR.jpg"",""stimuli/AM03_AO.jpg"",""stimuli/BF04_HE.jpg""]","stimuli/HM10_CC.jpg","stimuli/HF04_SUR.jpg","stimuli/AM03_AO.jpg","stimuli/BF04_HE.jpg","pos4","stimuli/BF04_HE.jpg","HE","BF04","3","4","8","8","stimuli/stars_8.png","319.5","[""CC"",""SUR"",""AO"",""HE""]","[""HM10"",""HF04"",""AM03"",""BF04""]","[6,5,1,8]","[6,4,2,8]","","",""
"show-reward","172","347566","0.0-172.0","p453686","A2Z43TA0WZ0EG0","3UUIU9GZC6BQMHTLWW3KSJ0W7IE5TB","3IHR8NYAM97DLQU8RCGR71OA1UR4PI","model","match","uniform","","","","","","","","347538.10000014305","349539.7000000477","","","","","","","","","","","","8","","stimuli/stars_8.png","319.5","","","","","stimuli/BF04_HE.jpg","",""
"explore-choice","173","349003","0.0-173.0","p453686","A2Z43TA0WZ0EG0","3UUIU9GZC6BQMHTLWW3KSJ0W7IE5TB","3IHR8NYAM97DLQU8RCGR71OA1UR4PI","model","match","uniform","","","","","","","934.1000001430511","349540.2000000477","350474.30000019073","[""stimuli/HM10_SUR.jpg"",""stimuli/AM03_CC.jpg"",""stimuli/HF04_HE.jpg"",""stimuli/BF04_AO.jpg""]","stimuli/HM10_SUR.jpg","stimuli/AM03_CC.jpg","stimuli/HF04_HE.jpg","stimuli/BF04_AO.jpg","pos4","stimuli/BF04_AO.jpg","AO","BF04","3","3","6","8","stimuli/stars_6.png","322.5","[""SUR"",""CC"",""HE"",""AO""]","[""HM10"",""AM03"",""HF04"",""BF04""]","[7,1,5,6]","[6,2,4,8]","","",""
"show-reward","174","351011","0.0-174.0","p453686","A2Z43TA0WZ0EG0","3UUIU9GZC6BQMHTLWW3KSJ0W7IE5TB","3IHR8NYAM97DLQU8RCGR71OA1UR4PI","model","match","uniform","","","","","","","","350977","352983.7000000477","","","","","","","","","","","","6","","stimuli/stars_6.png","322.5","","","","","stimuli/BF04_AO.jpg","",""
"explore-choice","175","352495","0.0-175.0","p453686","A2Z43TA0WZ0EG0","3UUIU9GZC6BQMHTLWW3KSJ0W7IE5TB","3IHR8NYAM97DLQU8RCGR71OA1UR4PI","model","match","uniform","","","","","","","970.5","352984.30000019073","353954.80000019073","[""stimuli/HF04_AO.jpg"",""stimuli/HM10_HE.jpg"",""stimuli/BF04_SUR.jpg"",""stimuli/AM03_CC.jpg""]","stimuli/HF04_AO.jpg","stimuli/HM10_HE.jpg","stimuli/BF04_SUR.jpg","stimuli/AM03_CC.jpg","pos3","stimuli/BF04_SUR.jpg","SUR","BF04","2","3","6","8","stimuli/stars_6.png","325.5","[""AO"",""HE"",""SUR"",""CC""]","[""HF04"",""HM10"",""BF04"",""AM03""]","[4,8,6,1]","[4,6,8,2]","","",""
"show-reward","176","354498","0.0-176.0","p453686","A2Z43TA0WZ0EG0","3UUIU9GZC6BQMHTLWW3KSJ0W7IE5TB","3IHR8NYAM97DLQU8RCGR71OA1UR4PI","model","match","uniform","","","","","","","","354468.40000009537","356471.7000000477","","","","","","","","","","","","6","","stimuli/stars_6.png","325.5","","","","","stimuli/BF04_SUR.jpg","",""
"explore-choice","177","355960","0.0-177.0","p453686","A2Z43TA0WZ0EG0","3UUIU9GZC6BQMHTLWW3KSJ0W7IE5TB","3IHR8NYAM97DLQU8RCGR71OA1UR4PI","model","match","uniform","","","","","","","953","356472.30000019073","357425.30000019073","[""stimuli/HM10_AO.jpg"",""stimuli/AM03_CC.jpg"",""stimuli/HF04_HE.jpg"",""stimuli/BF04_SUR.jpg""]","stimuli/HM10_AO.jpg","stimuli/AM03_CC.jpg","stimuli/HF04_HE.jpg","stimuli/BF04_SUR.jpg","pos4","stimuli/BF04_SUR.jpg","SUR","BF04","3","5","10","8","stimuli/stars_10.png","330.5","[""AO"",""CC"",""HE"",""SUR""]","[""HM10"",""AM03"",""HF04"",""BF04""]","[6,2,6,10]","[6,2,4,8]","","",""
"show-reward","178","357974","0.0-178.0","p453686","A2Z43TA0WZ0EG0","3UUIU9GZC6BQMHTLWW3KSJ0W7IE5TB","3IHR8NYAM97DLQU8RCGR71OA1UR4PI","model","match","uniform","","","","","","","","357933.40000009537","359947.2000000477","","","","","","","","","","","","10","","stimuli/stars_10.png","330.5","","","","","stimuli/BF04_SUR.jpg","",""
"explore-choice","179","359288","0.0-179.0","p453686","A2Z43TA0WZ0EG0","3UUIU9GZC6BQMHTLWW3KSJ0W7IE5TB","3IHR8NYAM97DLQU8RCGR71OA1UR4PI","model","match","uniform","","","","","","","809.7999999523163","359947.90000009537","360757.7000000477","[""stimuli/HM10_HE.jpg"",""stimuli/HF04_SUR.jpg"",""stimuli/AM03_CC.jpg"",""stimuli/BF04_AO.jpg""]","stimuli/HM10_HE.jpg","stimuli/HF04_SUR.jpg","stimuli/AM03_CC.jpg","stimuli/BF04_AO.jpg","pos4","stimuli/BF04_AO.jpg","AO","BF04","3","3.5","7","8","stimuli/stars_7.png","334","[""HE"",""SUR"",""CC"",""AO""]","[""HM10"",""HF04"",""AM03"",""BF04""]","[6,6,3,7]","[6,4,2,8]","","",""
"show-reward","180","361303","0.0-180.0","p453686","A2Z43TA0WZ0EG0","3UUIU9GZC6BQMHTLWW3KSJ0W7IE5TB","3IHR8NYAM97DLQU8RCGR71OA1UR4PI","model","match","uniform","","","","","","","","361261.90000009537","363275.80000019073","","","","","","","","","","","","7","","stimuli/stars_7.png","334","","","","","stimuli/BF04_AO.jpg","",""
"explore-choice","181","363393","0.0-181.0","p453686","A2Z43TA0WZ0EG0","3UUIU9GZC6BQMHTLWW3KSJ0W7IE5TB","3IHR8NYAM97DLQU8RCGR71OA1UR4PI","model","match","uniform","","","","","","","1576","363276.30000019073","364852.30000019073","[""stimuli/HF04_CC.jpg"",""stimuli/AM03_AO.jpg"",""stimuli/BF04_SUR.jpg"",""stimuli/HM10_HE.jpg""]","stimuli/HF04_CC.jpg","stimuli/AM03_AO.jpg","stimuli/BF04_SUR.jpg","stimuli/HM10_HE.jpg","pos3","stimuli/BF04_SUR.jpg","SUR","BF04","2","4.5","9","8","stimuli/stars_9.png","338.5","[""CC"",""AO"",""SUR"",""HE""]","[""HF04"",""AM03"",""BF04"",""HM10""]","[2,4,9,7]","[4,2,8,6]","","",""
"show-reward","182","365394","0.0-182.0","p453686","A2Z43TA0WZ0EG0","3UUIU9GZC6BQMHTLWW3KSJ0W7IE5TB","3IHR8NYAM97DLQU8RCGR71OA1UR4PI","model","match","uniform","","","","","","","","365366.5","367367.40000009537","","","","","","","","","","","","9","","stimuli/stars_9.png","338.5","","","","","stimuli/BF04_SUR.jpg","",""
"explore-choice","183","367544","0.0-183.0","p453686","A2Z43TA0WZ0EG0","3UUIU9GZC6BQMHTLWW3KSJ0W7IE5TB","3IHR8NYAM97DLQU8RCGR71OA1UR4PI","model","match","uniform","","","","","","","1642.7999999523163","367368.10000014305","369010.90000009537","[""stimuli/HM10_CC.jpg"",""stimuli/AM03_SUR.jpg"",""stimuli/HF04_HE.jpg"",""stimuli/BF04_AO.jpg""]","stimuli/HM10_CC.jpg","stimuli/AM03_SUR.jpg","stimuli/HF04_HE.jpg","stimuli/BF04_AO.jpg","pos3","stimuli/HF04_HE.jpg","HE","HF04","2","1","2","4","stimuli/stars_2.png","339.5","[""CC"",""SUR"",""HE"",""AO""]","[""HM10"",""AM03"",""HF04"",""BF04""]","[8,2,2,9]","[6,2,4,8]","","",""
"show-reward","184","369549","0.0-184.0","p453686","A2Z43TA0WZ0EG0","3UUIU9GZC6BQMHTLWW3KSJ0W7IE5TB","3IHR8NYAM97DLQU8RCGR71OA1UR4PI","model","match","uniform","","","","","","","","369517.60000014305","371521.90000009537","","","","","","","","","","","","2","","stimuli/stars_2.png","339.5","","","","","stimuli/HF04_HE.jpg","",""
"explore-choice","185","371224","0.0-185.0","p453686","A2Z43TA0WZ0EG0","3UUIU9GZC6BQMHTLWW3KSJ0W7IE5TB","3IHR8NYAM97DLQU8RCGR71OA1UR4PI","model","match","uniform","","","","","","","1158.5999999046326","371522.80000019073","372681.40000009537","[""stimuli/BF04_HE.jpg"",""stimuli/HF04_AO.jpg"",""stimuli/HM10_SUR.jpg"",""stimuli/AM03_CC.jpg""]","stimuli/BF04_HE.jpg","stimuli/HF04_AO.jpg","stimuli/HM10_SUR.jpg","stimuli/AM03_CC.jpg","pos1","stimuli/BF04_HE.jpg","HE","BF04","0","4.5","9","8","stimuli/stars_9.png","344","[""HE"",""AO"",""SUR"",""CC""]","[""BF04"",""HF04"",""HM10"",""AM03""]","[9,6,5,1]","[8,4,6,2]","","",""
"show-reward","186","373236","0.0-186.0","p453686","A2Z43TA0WZ0EG0","3UUIU9GZC6BQMHTLWW3KSJ0W7IE5TB","3IHR8NYAM97DLQU8RCGR71OA1UR4PI","model","match","uniform","","","","","","","","373197.5","375208.90000009537","","","","","","","","","","","","9","","stimuli/stars_9.png","344","","","","","stimuli/BF04_HE.jpg","",""
"explore-choice","187","374408","0.0-187.0","p453686","A2Z43TA0WZ0EG0","3UUIU9GZC6BQMHTLWW3KSJ0W7IE5TB","3IHR8NYAM97DLQU8RCGR71OA1UR4PI","model","match","uniform","","","","","","","670.0999999046326","375209.60000014305","375879.7000000477","[""stimuli/AM03_SUR.jpg"",""stimuli/HM10_AO.jpg"",""stimuli/BF04_CC.jpg"",""stimuli/HF04_HE.jpg""]","stimuli/AM03_SUR.jpg","stimuli/HM10_AO.jpg","stimuli/BF04_CC.jpg","stimuli/HF04_HE.jpg","pos3","stimuli/BF04_CC.jpg","CC","BF04","2","3.5","7","8","stimuli/stars_7.png","347.5","[""SUR"",""AO"",""CC"",""HE""]","[""AM03"",""HM10"",""BF04"",""HF04""]","[3,8,7,3]","[2,6,8,4]","","",""
"show-reward","188","376415","0.0-188.0","p453686","A2Z43TA0WZ0EG0","3UUIU9GZC6BQMHTLWW3KSJ0W7IE5TB","3IHR8NYAM97DLQU8RCGR71OA1UR4PI","model","match","uniform","","","","","","","","376381.7000000477","378388","","","","","","","","","","","","7","","stimuli/stars_7.png","347.5","","","","","stimuli/BF04_CC.jpg","",""
"explore-choice","189","377800","0.0-189.0","p453686","A2Z43TA0WZ0EG0","3UUIU9GZC6BQMHTLWW3KSJ0W7IE5TB","3IHR8NYAM97DLQU8RCGR71OA1UR4PI","model","match","uniform","","","","","","","877.8000001907349","378388.5","379266.30000019073","[""stimuli/HF04_SUR.jpg"",""stimuli/AM03_HE.jpg"",""stimuli/BF04_CC.jpg"",""stimuli/HM10_AO.jpg""]","stimuli/HF04_SUR.jpg","stimuli/AM03_HE.jpg","stimuli/BF04_CC.jpg","stimuli/HM10_AO.jpg","pos3","stimuli/BF04_CC.jpg","CC","BF04","2","4.5","9","8","stimuli/stars_9.png","352","[""SUR"",""HE"",""CC"",""AO""]","[""HF04"",""AM03"",""BF04"",""HM10""]","[5,4,9,4]","[4,2,8,6]","","",""
"show-reward","190","379802","0.0-190.0","p453686","A2Z43TA0WZ0EG0","3UUIU9GZC6BQMHTLWW3KSJ0W7IE5TB","3IHR8NYAM97DLQU8RCGR71OA1UR4PI","model","match","uniform","","","","","","","","379774.2000000477","381775.5","","","","","","","","","","","","9","","stimuli/stars_9.png","352","","","","","stimuli/BF04_CC.jpg","",""
"explore-choice","191","381190","0.0-191.0","p453686","A2Z43TA0WZ0EG0","3UUIU9GZC6BQMHTLWW3KSJ0W7IE5TB","3IHR8NYAM97DLQU8RCGR71OA1UR4PI","model","match","uniform","","","","","","","873","381776.10000014305","382649.10000014305","[""stimuli/HF04_AO.jpg"",""stimuli/BF04_HE.jpg"",""stimuli/AM03_SUR.jpg"",""stimuli/HM10_CC.jpg""]","stimuli/HF04_AO.jpg","stimuli/BF04_HE.jpg","stimuli/AM03_SUR.jpg","stimuli/HM10_CC.jpg","pos2","stimuli/BF04_HE.jpg","HE","BF04","1","4.5","9","8","stimuli/stars_9.png","356.5","[""AO"",""HE"",""SUR"",""CC""]","[""HF04"",""BF04"",""AM03"",""HM10""]","[5,9,3,4]","[4,8,2,6]","","",""
"show-reward","192","383198","0.0-192.0","p453686","A2Z43TA0WZ0EG0","3UUIU9GZC6BQMHTLWW3KSJ0W7IE5TB","3IHR8NYAM97DLQU8RCGR71OA1UR4PI","model","match","uniform","","","","","","","","383164","385171","","","","","","","","","","","","9","","stimuli/stars_9.png","356.5","","","","","stimuli/BF04_HE.jpg","",""
"explore-choice","193","384590","0.0-193.0","p453686","A2Z43TA0WZ0EG0","3UUIU9GZC6BQMHTLWW3KSJ0W7IE5TB","3IHR8NYAM97DLQU8RCGR71OA1UR4PI","model","match","uniform","","","","","","","875.5999999046326","385171.60000014305","386047.2000000477","[""stimuli/AM03_HE.jpg"",""stimuli/HF04_AO.jpg"",""stimuli/HM10_SUR.jpg"",""stimuli/BF04_CC.jpg""]","stimuli/AM03_HE.jpg","stimuli/HF04_AO.jpg","stimuli/HM10_SUR.jpg","stimuli/BF04_CC.jpg","pos4","stimuli/BF04_CC.jpg","CC","BF04","3","3","6","8","stimuli/stars_6.png","359.5","[""HE"",""AO"",""SUR"",""CC""]","[""AM03"",""HF04"",""HM10"",""BF04""]","[3,3,7,6]","[2,4,6,8]","","",""
"show-reward","194","386596","0.0-194.0","p453686","A2Z43TA0WZ0EG0","3UUIU9GZC6BQMHTLWW3KSJ0W7IE5TB","3IHR8NYAM97DLQU8RCGR71OA1UR4PI","model","match","uniform","","","","","","","","386563.2000000477","388569.5","","","","","","","","","","","","6","","stimuli/stars_6.png","359.5","","","","","stimuli/BF04_CC.jpg","",""
"explore-choice","195","387818","0.0-195.0","p453686","A2Z43TA0WZ0EG0","3UUIU9GZC6BQMHTLWW3KSJ0W7IE5TB","3IHR8NYAM97DLQU8RCGR71OA1UR4PI","model","match","uniform","","","","","","","715.3999998569489","388570.10000014305","389285.5","[""stimuli/HF04_CC.jpg"",""stimuli/HM10_HE.jpg"",""stimuli/AM03_SUR.jpg"",""stimuli/BF04_AO.jpg""]","stimuli/HF04_CC.jpg","stimuli/HM10_HE.jpg","stimuli/AM03_SUR.jpg","stimuli/BF04_AO.jpg","pos4","stimuli/BF04_AO.jpg","AO","BF04","3","4.5","9","8","stimuli/stars_9.png","364","[""CC"",""HE"",""SUR"",""AO""]","[""HF04"",""HM10"",""AM03"",""BF04""]","[5,5,2,9]","[4,6,2,8]","","",""
"show-reward","196","389830","0.0-196.0","p453686","A2Z43TA0WZ0EG0","3UUIU9GZC6BQMHTLWW3KSJ0W7IE5TB","3IHR8NYAM97DLQU8RCGR71OA1UR4PI","model","match","uniform","","","","","","","","389791.60000014305","391803.10000014305","","","","","","","","","","","","9","","stimuli/stars_9.png","364","","","","","stimuli/BF04_AO.jpg","",""
"explore-choice","197","391207","0.0-197.0","p453686","A2Z43TA0WZ0EG0","3UUIU9GZC6BQMHTLWW3KSJ0W7IE5TB","3IHR8NYAM97DLQU8RCGR71OA1UR4PI","model","match","uniform","","","","","","","862.3999998569489","391803.60000014305","392666","[""stimuli/HM10_HE.jpg"",""stimuli/HF04_AO.jpg"",""stimuli/BF04_CC.jpg"",""stimuli/AM03_SUR.jpg""]","stimuli/HM10_HE.jpg","stimuli/HF04_AO.jpg","stimuli/BF04_CC.jpg","stimuli/AM03_SUR.jpg","pos3","stimuli/BF04_CC.jpg","CC","BF04","2","4","8","8","stimuli/stars_8.png","368","[""HE"",""AO"",""CC"",""SUR""]","[""HM10"",""HF04"",""BF04"",""AM03""]","[7,6,8,4]","[6,4,8,2]","","",""
"show-reward","198","393209","0.0-198.0","p453686","A2Z43TA0WZ0EG0","3UUIU9GZC6BQMHTLWW3KSJ0W7IE5TB","3IHR8NYAM97DLQU8RCGR71OA1UR4PI","model","match","uniform","","","","","","","","393181.10000014305","395181.90000009537","","","","","","","","","","","","8","","stimuli/stars_8.png","368","","","","","stimuli/BF04_CC.jpg","",""
"instructions","199","398398","0.0-199.0","p453686","A2Z43TA0WZ0EG0","3UUIU9GZC6BQMHTLWW3KSJ0W7IE5TB","3IHR8NYAM97DLQU8RCGR71OA1UR4PI","model","match","uniform","","","","","","[{""page_index"":0,""viewing_time"":5188.400000095367}]","5188.600000143051","","","","","","","","","","","","","","","","","","","","","","","",""
"survey-text","200","402649","0.0-200.0-0.0","p453686","A2Z43TA0WZ0EG0","3UUIU9GZC6BQMHTLWW3KSJ0W7IE5TB","3IHR8NYAM97DLQU8RCGR71OA1UR4PI","model","match","uniform","","","","","","","4247.799999952316","","","","","","","","","","","","","","","","","","","","","","","{""age"":""32""}",""
"survey-text","201","406543","0.0-200.0-1.0","p453686","A2Z43TA0WZ0EG0","3UUIU9GZC6BQMHTLWW3KSJ0W7IE5TB","3IHR8NYAM97DLQU8RCGR71OA1UR4PI","model","match","uniform","","","","","","","3892.0999999046326","","","","","","","","","","","","","","","","","","","","","","","{""gender"":""female""}",""
"survey-text","202","413838","0.0-200.0-2.0","p453686","A2Z43TA0WZ0EG0","3UUIU9GZC6BQMHTLWW3KSJ0W7IE5TB","3IHR8NYAM97DLQU8RCGR71OA1UR4PI","model","match","uniform","","","","","","","7291.5","","","","","","","","","","","","","","","","","","","","","","","{""country"":""United States""}",""
"survey-text","203","419807","0.0-200.0-3.0","p453686","A2Z43TA0WZ0EG0","3UUIU9GZC6BQMHTLWW3KSJ0W7IE5TB","3IHR8NYAM97DLQU8RCGR71OA1UR4PI","model","match","uniform","","","","","","","5966.699999809265","","","","","","","","","","","","","","","","","","","","","","","{""language"":""English"",""other_languages"":""""}",""
"survey-multi-select","204","422071","0.0-201.0","p453686","A2Z43TA0WZ0EG0","3UUIU9GZC6BQMHTLWW3KSJ0W7IE5TB","3IHR8NYAM97DLQU8RCGR71OA1UR4PI","model","match","uniform","","","","","","","2260","","","","","","","","","","","","","","","","","","","","","","","{""race"":[""White""]}","[0]"
"survey-multi-choice","205","425417","0.0-202.0","p453686","A2Z43TA0WZ0EG0","3UUIU9GZC6BQMHTLWW3KSJ0W7IE5TB","3IHR8NYAM97DLQU8RCGR71OA1UR4PI","model","match","uniform","","","","","","","3343.5","","","","","","","","","","","","","","","","","","","","","","","{""education"":""Some college/ university""}","[0]"
"survey-text","206","471510","0.0-203.0","p453686","A2Z43TA0WZ0EG0","3UUIU9GZC6BQMHTLWW3KSJ0W7IE5TB","3IHR8NYAM97DLQU8RCGR71OA1UR4PI","model","match","uniform","","","","","","","46080.60000014305","","","","","","","","","","","","","","","","","","","","","","","{""patterns"":""2 people paid out the most stars. "",""strategy"":""To figure out which person provided the most stars and mostly stick with them."",""comments"":""None, thanks.""}",""
