"trial_type","trial_index","time_elapsed","internal_node_id","subject","workerId","hitId","assignmentId","structure_condition","match_condition","noise_type","success","timeout","failed_images","failed_audio","failed_video","view_history","rt","start_time","end_time","stimuli","image1","image2","image3","image4","choiceLocation","choiceImage","choiceEmotion","choiceModel","choice_index","reward_score","reward","reward_score_unadjusted","reward_image","score_after_trial","emotions","models","rewards","rewards_unadjusted","stimulus","response","question_order"
"pavlovia","0","35","0.0-0.0","p208993","A3CMO4D4U0C7JI","3WRBLBQ2GSENM5LEFQY1C5PG0GV0GC","39U1BHVTDNXQVM4B8FKS26X1CXFT3Q","model","mismatch","uniform","","","","","","","","","","","","","","","","","","","","","","","","","","","","","","",""
"preload","1","15355","0.0-1.0","p208993","A3CMO4D4U0C7JI","3WRBLBQ2GSENM5LEFQY1C5PG0GV0GC","39U1BHVTDNXQVM4B8FKS26X1CXFT3Q","model","mismatch","uniform","true","false","[]","[]","[]","","","","","","","","","","","","","","","","","","","","","","","","","",""
"fullscreen","2","19506","0.0-2.0","p208993","A3CMO4D4U0C7JI","3WRBLBQ2GSENM5LEFQY1C5PG0GV0GC","39U1BHVTDNXQVM4B8FKS26X1CXFT3Q","model","mismatch","uniform","true","","","","","","","","","","","","","","","","","","","","","","","","","","","","","",""
"instructions","3","24239","0.0-3.0","p208993","A3CMO4D4U0C7JI","3WRBLBQ2GSENM5LEFQY1C5PG0GV0GC","39U1BHVTDNXQVM4B8FKS26X1CXFT3Q","model","mismatch","uniform","","","","","","[{""page_index"":0,""viewing_time"":4731.0999999940395}]","4732.0999999940395","","","","","","","","","","","","","","","","","","","","","","","",""
"explore-choice","4","29698","0.0-4.0","p208993","A3CMO4D4U0C7JI","3WRBLBQ2GSENM5LEFQY1C5PG0GV0GC","39U1BHVTDNXQVM4B8FKS26X1CXFT3Q","model","mismatch","uniform","","","","","","","4950.300000011921","32104.19999998808","37054.5","[""stimuli/sheep.jpg"",""stimuli/hammer.jpg"",""stimuli/basketball.jpg"",""stimuli/horse.jpg""]","stimuli/sheep.jpg","stimuli/hammer.jpg","stimuli/basketball.jpg","stimuli/horse.jpg","pos4","stimuli/horse.jpg","","","3","64","64","64","stimuli/stars_8.png","65","","","","","","",""
"explore-choice","5","86698","0.0-5.0","p208993","A3CMO4D4U0C7JI","3WRBLBQ2GSENM5LEFQY1C5PG0GV0GC","39U1BHVTDNXQVM4B8FKS26X1CXFT3Q","model","mismatch","uniform","","","","","","","56490.70000001788","37563.29999998212","94054","[""stimuli/hammer.jpg"",""stimuli/basketball.jpg"",""stimuli/horse.jpg"",""stimuli/sheep.jpg""]","stimuli/hammer.jpg","stimuli/basketball.jpg","stimuli/horse.jpg","stimuli/sheep.jpg","pos1","stimuli/hammer.jpg","","","0","8","8","8","stimuli/stars_2.png","9","","","","","","",""
"instructions","6","95588","0.0-6.0","p208993","A3CMO4D4U0C7JI","3WRBLBQ2GSENM5LEFQY1C5PG0GV0GC","39U1BHVTDNXQVM4B8FKS26X1CXFT3Q","model","mismatch","uniform","","","","","","[{""page_index"":0,""viewing_time"":8887.90000000596}]","8888.800000011921","","","","","","","","","","","","","","","","","","","","","","","",""
"explore-choice","7","97899","0.0-7.0","p208993","A3CMO4D4U0C7JI","3WRBLBQ2GSENM5LEFQY1C5PG0GV0GC","39U1BHVTDNXQVM4B8FKS26X1CXFT3Q","model","mismatch","uniform","","","","","","","1807","103449.29999998212","105256.29999998212","[""stimuli/AF10_DO.jpg"",""stimuli/WM11_HE.jpg"",""stimuli/HM10_CC.jpg"",""stimuli/AF09_FO.jpg""]","stimuli/AF10_DO.jpg","stimuli/WM11_HE.jpg","stimuli/HM10_CC.jpg","stimuli/AF09_FO.jpg","pos1","stimuli/AF10_DO.jpg","DO","AF10","0","0","0","2","stimuli/stars_0.png","1","[""DO"",""HE"",""CC"",""FO""]","[""AF10"",""WM11"",""HM10"",""AF09""]","[0,7,6,2]","[2,6,8,4]","","",""
"show-reward","8","99939","0.0-8.0","p208993","A3CMO4D4U0C7JI","3WRBLBQ2GSENM5LEFQY1C5PG0GV0GC","39U1BHVTDNXQVM4B8FKS26X1CXFT3Q","model","mismatch","uniform","","","","","","","","105761.29999998212","107778.19999998808","","","","","","","","","","","","0","","stimuli/stars_0.png","1","","","","","stimuli/AF10_DO.jpg","",""
"explore-choice","9","102794","0.0-9.0","p208993","A3CMO4D4U0C7JI","3WRBLBQ2GSENM5LEFQY1C5PG0GV0GC","39U1BHVTDNXQVM4B8FKS26X1CXFT3Q","model","mismatch","uniform","","","","","","","2320.5999999940395","107829.59999999404","110150.19999998808","[""stimuli/AF09_HE.jpg"",""stimuli/HM10_CC.jpg"",""stimuli/AF10_FO.jpg"",""stimuli/WM11_DO.jpg""]","stimuli/AF09_HE.jpg","stimuli/HM10_CC.jpg","stimuli/AF10_FO.jpg","stimuli/WM11_DO.jpg","pos4","stimuli/WM11_DO.jpg","DO","WM11","3","4","8","6","stimuli/stars_8.png","5","[""HE"",""CC"",""FO"",""DO""]","[""AF09"",""HM10"",""AF10"",""WM11""]","[5,10,3,8]","[4,8,2,6]","","",""
"show-reward","10","104809","0.0-10.0","p208993","A3CMO4D4U0C7JI","3WRBLBQ2GSENM5LEFQY1C5PG0GV0GC","39U1BHVTDNXQVM4B8FKS26X1CXFT3Q","model","mismatch","uniform","","","","","","","","110652.89999997616","112666.59999999404","","","","","","","","","","","","8","","stimuli/stars_8.png","5","","","","","stimuli/WM11_DO.jpg","",""
"explore-choice","11","107265","0.0-11.0","p208993","A3CMO4D4U0C7JI","3WRBLBQ2GSENM5LEFQY1C5PG0GV0GC","39U1BHVTDNXQVM4B8FKS26X1CXFT3Q","model","mismatch","uniform","","","","","","","1941.0999999940395","112668","114609.09999999404","[""stimuli/HM10_CC.jpg"",""stimuli/AF10_HE.jpg"",""stimuli/WM11_FO.jpg"",""stimuli/AF09_DO.jpg""]","stimuli/HM10_CC.jpg","stimuli/AF10_HE.jpg","stimuli/WM11_FO.jpg","stimuli/AF09_DO.jpg","pos2","stimuli/AF10_HE.jpg","HE","AF10","1","0","0","2","stimuli/stars_0.png","5","[""CC"",""HE"",""FO"",""DO""]","[""HM10"",""AF10"",""WM11"",""AF09""]","[9,0,8,6]","[8,2,6,4]","","",""
"show-reward","12","109270","0.0-12.0","p208993","A3CMO4D4U0C7JI","3WRBLBQ2GSENM5LEFQY1C5PG0GV0GC","39U1BHVTDNXQVM4B8FKS26X1CXFT3Q","model","mismatch","uniform","","","","","","","","115123.89999997616","117127.29999998212","","","","","","","","","","","","0","","stimuli/stars_0.png","5","","","","","stimuli/AF10_HE.jpg","",""
"explore-choice","13","111168","0.0-13.0","p208993","A3CMO4D4U0C7JI","3WRBLBQ2GSENM5LEFQY1C5PG0GV0GC","39U1BHVTDNXQVM4B8FKS26X1CXFT3Q","model","mismatch","uniform","","","","","","","1367.699999988079","117128.69999998808","118496.39999997616","[""stimuli/AF10_HE.jpg"",""stimuli/HM10_DO.jpg"",""stimuli/WM11_FO.jpg"",""stimuli/AF09_CC.jpg""]","stimuli/AF10_HE.jpg","stimuli/HM10_DO.jpg","stimuli/WM11_FO.jpg","stimuli/AF09_CC.jpg","pos2","stimuli/HM10_DO.jpg","DO","HM10","1","3.5","7","8","stimuli/stars_7.png","8.5","[""HE"",""DO"",""FO"",""CC""]","[""AF10"",""HM10"",""WM11"",""AF09""]","[2,7,4,6]","[2,8,6,4]","","",""
"show-reward","14","113176","0.0-14.0","p208993","A3CMO4D4U0C7JI","3WRBLBQ2GSENM5LEFQY1C5PG0GV0GC","39U1BHVTDNXQVM4B8FKS26X1CXFT3Q","model","mismatch","uniform","","","","","","","","119026.69999998808","121033.09999999404","","","","","","","","","","","","7","","stimuli/stars_7.png","8.5","","","","","stimuli/HM10_DO.jpg","",""
"explore-choice","15","115329","0.0-15.0","p208993","A3CMO4D4U0C7JI","3WRBLBQ2GSENM5LEFQY1C5PG0GV0GC","39U1BHVTDNXQVM4B8FKS26X1CXFT3Q","model","mismatch","uniform","","","","","","","1631.5","121036.09999999404","122667.59999999404","[""stimuli/AF10_DO.jpg"",""stimuli/HM10_HE.jpg"",""stimuli/AF09_FO.jpg"",""stimuli/WM11_CC.jpg""]","stimuli/AF10_DO.jpg","stimuli/HM10_HE.jpg","stimuli/AF09_FO.jpg","stimuli/WM11_CC.jpg","pos3","stimuli/AF09_FO.jpg","FO","AF09","2","3","6","4","stimuli/stars_6.png","11.5","[""DO"",""HE"",""FO"",""CC""]","[""AF10"",""HM10"",""AF09"",""WM11""]","[3,6,6,7]","[2,8,4,6]","","",""
"show-reward","16","117340","0.0-16.0","p208993","A3CMO4D4U0C7JI","3WRBLBQ2GSENM5LEFQY1C5PG0GV0GC","39U1BHVTDNXQVM4B8FKS26X1CXFT3Q","model","mismatch","uniform","","","","","","","","123188.59999999404","125196.79999998212","","","","","","","","","","","","6","","stimuli/stars_6.png","11.5","","","","","stimuli/AF09_FO.jpg","",""
"explore-choice","17","119274","0.0-17.0","p208993","A3CMO4D4U0C7JI","3WRBLBQ2GSENM5LEFQY1C5PG0GV0GC","39U1BHVTDNXQVM4B8FKS26X1CXFT3Q","model","mismatch","uniform","","","","","","","1430.5999999940395","125199.29999998212","126629.89999997616","[""stimuli/HM10_FO.jpg"",""stimuli/WM11_HE.jpg"",""stimuli/AF09_DO.jpg"",""stimuli/AF10_CC.jpg""]","stimuli/HM10_FO.jpg","stimuli/WM11_HE.jpg","stimuli/AF09_DO.jpg","stimuli/AF10_CC.jpg","pos1","stimuli/HM10_FO.jpg","FO","HM10","0","5","10","8","stimuli/stars_10.png","16.5","[""FO"",""HE"",""DO"",""CC""]","[""HM10"",""WM11"",""AF09"",""AF10""]","[10,5,3,1]","[8,6,4,2]","","",""
"show-reward","18","121296","0.0-18.0","p208993","A3CMO4D4U0C7JI","3WRBLBQ2GSENM5LEFQY1C5PG0GV0GC","39U1BHVTDNXQVM4B8FKS26X1CXFT3Q","model","mismatch","uniform","","","","","","","","127132.89999997616","129152.89999997616","","","","","","","","","","","","10","","stimuli/stars_10.png","16.5","","","","","stimuli/HM10_FO.jpg","",""
"explore-choice","19","122919","0.0-19.0","p208993","A3CMO4D4U0C7JI","3WRBLBQ2GSENM5LEFQY1C5PG0GV0GC","39U1BHVTDNXQVM4B8FKS26X1CXFT3Q","model","mismatch","uniform","","","","","","","1119.5","129155.5","130275","[""stimuli/AF10_CC.jpg"",""stimuli/WM11_FO.jpg"",""stimuli/AF09_DO.jpg"",""stimuli/HM10_HE.jpg""]","stimuli/AF10_CC.jpg","stimuli/WM11_FO.jpg","stimuli/AF09_DO.jpg","stimuli/HM10_HE.jpg","pos4","stimuli/HM10_HE.jpg","HE","HM10","3","5","10","8","stimuli/stars_10.png","21.5","[""CC"",""FO"",""DO"",""HE""]","[""AF10"",""WM11"",""AF09"",""HM10""]","[4,6,6,10]","[2,6,4,8]","","",""
"show-reward","20","124940","0.0-20.0","p208993","A3CMO4D4U0C7JI","3WRBLBQ2GSENM5LEFQY1C5PG0GV0GC","39U1BHVTDNXQVM4B8FKS26X1CXFT3Q","model","mismatch","uniform","","","","","","","","130778.19999998808","132796.39999997616","","","","","","","","","","","","10","","stimuli/stars_10.png","21.5","","","","","stimuli/HM10_HE.jpg","",""
"explore-choice","21","126669","0.0-21.0","p208993","A3CMO4D4U0C7JI","3WRBLBQ2GSENM5LEFQY1C5PG0GV0GC","39U1BHVTDNXQVM4B8FKS26X1CXFT3Q","model","mismatch","uniform","","","","","","","1216.300000011921","132798.89999997616","134015.19999998808","[""stimuli/HM10_DO.jpg"",""stimuli/WM11_FO.jpg"",""stimuli/AF10_CC.jpg"",""stimuli/AF09_HE.jpg""]","stimuli/HM10_DO.jpg","stimuli/WM11_FO.jpg","stimuli/AF10_CC.jpg","stimuli/AF09_HE.jpg","pos2","stimuli/WM11_FO.jpg","FO","WM11","1","2","4","6","stimuli/stars_4.png","23.5","[""DO"",""FO"",""CC"",""HE""]","[""HM10"",""WM11"",""AF10"",""AF09""]","[7,4,0,4]","[8,6,2,4]","","",""
"show-reward","22","128681","0.0-22.0","p208993","A3CMO4D4U0C7JI","3WRBLBQ2GSENM5LEFQY1C5PG0GV0GC","39U1BHVTDNXQVM4B8FKS26X1CXFT3Q","model","mismatch","uniform","","","","","","","","134528.69999998808","136537.5","","","","","","","","","","","","4","","stimuli/stars_4.png","23.5","","","","","stimuli/WM11_FO.jpg","",""
"explore-choice","23","130435","0.0-23.0","p208993","A3CMO4D4U0C7JI","3WRBLBQ2GSENM5LEFQY1C5PG0GV0GC","39U1BHVTDNXQVM4B8FKS26X1CXFT3Q","model","mismatch","uniform","","","","","","","1235.5999999940395","136540.09999999404","137775.69999998808","[""stimuli/AF10_FO.jpg"",""stimuli/AF09_DO.jpg"",""stimuli/HM10_CC.jpg"",""stimuli/WM11_HE.jpg""]","stimuli/AF10_FO.jpg","stimuli/AF09_DO.jpg","stimuli/HM10_CC.jpg","stimuli/WM11_HE.jpg","pos3","stimuli/HM10_CC.jpg","CC","HM10","2","3","6","8","stimuli/stars_6.png","26.5","[""FO"",""DO"",""CC"",""HE""]","[""AF10"",""AF09"",""HM10"",""WM11""]","[2,6,6,4]","[2,4,8,6]","","",""
"show-reward","24","132455","0.0-24.0","p208993","A3CMO4D4U0C7JI","3WRBLBQ2GSENM5LEFQY1C5PG0GV0GC","39U1BHVTDNXQVM4B8FKS26X1CXFT3Q","model","mismatch","uniform","","","","","","","","138293.39999997616","140311.59999999404","","","","","","","","","","","","6","","stimuli/stars_6.png","26.5","","","","","stimuli/HM10_CC.jpg","",""
"explore-choice","25","134003","0.0-25.0","p208993","A3CMO4D4U0C7JI","3WRBLBQ2GSENM5LEFQY1C5PG0GV0GC","39U1BHVTDNXQVM4B8FKS26X1CXFT3Q","model","mismatch","uniform","","","","","","","1042.0999999940395","140315.29999998212","141357.39999997616","[""stimuli/AF10_DO.jpg"",""stimuli/HM10_FO.jpg"",""stimuli/AF09_CC.jpg"",""stimuli/WM11_HE.jpg""]","stimuli/AF10_DO.jpg","stimuli/HM10_FO.jpg","stimuli/AF09_CC.jpg","stimuli/WM11_HE.jpg","pos1","stimuli/AF10_DO.jpg","DO","AF10","0","0","0","2","stimuli/stars_0.png","26.5","[""DO"",""FO"",""CC"",""HE""]","[""AF10"",""HM10"",""AF09"",""WM11""]","[0,9,6,8]","[2,8,4,6]","","",""
"show-reward","26","136018","0.0-26.0","p208993","A3CMO4D4U0C7JI","3WRBLBQ2GSENM5LEFQY1C5PG0GV0GC","39U1BHVTDNXQVM4B8FKS26X1CXFT3Q","model","mismatch","uniform","","","","","","","","141862.19999998808","143874.29999998212","","","","","","","","","","","","0","","stimuli/stars_0.png","26.5","","","","","stimuli/AF10_DO.jpg","",""
"explore-choice","27","138192","0.0-27.0","p208993","A3CMO4D4U0C7JI","3WRBLBQ2GSENM5LEFQY1C5PG0GV0GC","39U1BHVTDNXQVM4B8FKS26X1CXFT3Q","model","mismatch","uniform","","","","","","","1669.1000000238419","143879.39999997616","145548.5","[""stimuli/AF09_DO.jpg"",""stimuli/WM11_CC.jpg"",""stimuli/HM10_HE.jpg"",""stimuli/AF10_FO.jpg""]","stimuli/AF09_DO.jpg","stimuli/WM11_CC.jpg","stimuli/HM10_HE.jpg","stimuli/AF10_FO.jpg","pos2","stimuli/WM11_CC.jpg","CC","WM11","1","2.5","5","6","stimuli/stars_5.png","29","[""DO"",""CC"",""HE"",""FO""]","[""AF09"",""WM11"",""HM10"",""AF10""]","[3,5,8,0]","[4,6,8,2]","","",""
"show-reward","28","140204","0.0-28.0","p208993","A3CMO4D4U0C7JI","3WRBLBQ2GSENM5LEFQY1C5PG0GV0GC","39U1BHVTDNXQVM4B8FKS26X1CXFT3Q","model","mismatch","uniform","","","","","","","","146050.29999998212","148059.69999998808","","","","","","","","","","","","5","","stimuli/stars_5.png","29","","","","","stimuli/WM11_CC.jpg","",""
"explore-choice","29","142030","0.0-29.0","p208993","A3CMO4D4U0C7JI","3WRBLBQ2GSENM5LEFQY1C5PG0GV0GC","39U1BHVTDNXQVM4B8FKS26X1CXFT3Q","model","mismatch","uniform","","","","","","","1276.9000000059605","148062.19999998808","149339.09999999404","[""stimuli/AF10_CC.jpg"",""stimuli/HM10_FO.jpg"",""stimuli/WM11_DO.jpg"",""stimuli/AF09_HE.jpg""]","stimuli/AF10_CC.jpg","stimuli/HM10_FO.jpg","stimuli/WM11_DO.jpg","stimuli/AF09_HE.jpg","pos3","stimuli/WM11_DO.jpg","DO","WM11","2","3","6","6","stimuli/stars_6.png","32","[""CC"",""FO"",""DO"",""HE""]","[""AF10"",""HM10"",""WM11"",""AF09""]","[4,7,6,3]","[2,8,6,4]","","",""
"show-reward","30","144060","0.0-30.0","p208993","A3CMO4D4U0C7JI","3WRBLBQ2GSENM5LEFQY1C5PG0GV0GC","39U1BHVTDNXQVM4B8FKS26X1CXFT3Q","model","mismatch","uniform","","","","","","","","149888.5","151916.19999998808","","","","","","","","","","","","6","","stimuli/stars_6.png","32","","","","","stimuli/WM11_DO.jpg","",""
"explore-choice","31","146044","0.0-31.0","p208993","A3CMO4D4U0C7JI","3WRBLBQ2GSENM5LEFQY1C5PG0GV0GC","39U1BHVTDNXQVM4B8FKS26X1CXFT3Q","model","mismatch","uniform","","","","","","","1480.2999999821186","151918.5","153398.79999998212","[""stimuli/AF09_HE.jpg"",""stimuli/AF10_DO.jpg"",""stimuli/HM10_FO.jpg"",""stimuli/WM11_CC.jpg""]","stimuli/AF09_HE.jpg","stimuli/AF10_DO.jpg","stimuli/HM10_FO.jpg","stimuli/WM11_CC.jpg","pos1","stimuli/AF09_HE.jpg","HE","AF09","0","2","4","4","stimuli/stars_4.png","34","[""HE"",""DO"",""FO"",""CC""]","[""AF09"",""AF10"",""HM10"",""WM11""]","[4,3,6,4]","[4,2,8,6]","","",""
"show-reward","32","148051","0.0-32.0","p208993","A3CMO4D4U0C7JI","3WRBLBQ2GSENM5LEFQY1C5PG0GV0GC","39U1BHVTDNXQVM4B8FKS26X1CXFT3Q","model","mismatch","uniform","","","","","","","","153903.29999998212","155906.29999998212","","","","","","","","","","","","4","","stimuli/stars_4.png","34","","","","","stimuli/AF09_HE.jpg","",""
"explore-choice","33","149807","0.0-33.0","p208993","A3CMO4D4U0C7JI","3WRBLBQ2GSENM5LEFQY1C5PG0GV0GC","39U1BHVTDNXQVM4B8FKS26X1CXFT3Q","model","mismatch","uniform","","","","","","","1241.699999988079","155910","157151.69999998808","[""stimuli/AF10_CC.jpg"",""stimuli/HM10_HE.jpg"",""stimuli/AF09_FO.jpg"",""stimuli/WM11_DO.jpg""]","stimuli/AF10_CC.jpg","stimuli/HM10_HE.jpg","stimuli/AF09_FO.jpg","stimuli/WM11_DO.jpg","pos4","stimuli/WM11_DO.jpg","DO","WM11","3","4","8","6","stimuli/stars_8.png","38","[""CC"",""HE"",""FO"",""DO""]","[""AF10"",""HM10"",""AF09"",""WM11""]","[0,7,3,8]","[2,8,4,6]","","",""
"show-reward","34","151813","0.0-34.0","p208993","A3CMO4D4U0C7JI","3WRBLBQ2GSENM5LEFQY1C5PG0GV0GC","39U1BHVTDNXQVM4B8FKS26X1CXFT3Q","model","mismatch","uniform","","","","","","","","157665.89999997616","159669.29999998212","","","","","","","","","","","","8","","stimuli/stars_8.png","38","","","","","stimuli/WM11_DO.jpg","",""
"explore-choice","35","154233","0.0-35.0","p208993","A3CMO4D4U0C7JI","3WRBLBQ2GSENM5LEFQY1C5PG0GV0GC","39U1BHVTDNXQVM4B8FKS26X1CXFT3Q","model","mismatch","uniform","","","","","","","1917.300000011921","159671.29999998212","161588.59999999404","[""stimuli/AF10_HE.jpg"",""stimuli/WM11_DO.jpg"",""stimuli/HM10_CC.jpg"",""stimuli/AF09_FO.jpg""]","stimuli/AF10_HE.jpg","stimuli/WM11_DO.jpg","stimuli/HM10_CC.jpg","stimuli/AF09_FO.jpg","pos3","stimuli/HM10_CC.jpg","CC","HM10","2","4","8","8","stimuli/stars_8.png","42","[""HE"",""DO"",""CC"",""FO""]","[""AF10"",""WM11"",""HM10"",""AF09""]","[2,7,8,6]","[2,6,8,4]","","",""
"show-reward","36","156278","0.0-36.0","p208993","A3CMO4D4U0C7JI","3WRBLBQ2GSENM5LEFQY1C5PG0GV0GC","39U1BHVTDNXQVM4B8FKS26X1CXFT3Q","model","mismatch","uniform","","","","","","","","162096.5","164134.19999998808","","","","","","","","","","","","8","","stimuli/stars_8.png","42","","","","","stimuli/HM10_CC.jpg","",""
"explore-choice","37","158041","0.0-37.0","p208993","A3CMO4D4U0C7JI","3WRBLBQ2GSENM5LEFQY1C5PG0GV0GC","39U1BHVTDNXQVM4B8FKS26X1CXFT3Q","model","mismatch","uniform","","","","","","","1260.4000000059605","164136.29999998212","165396.69999998808","[""stimuli/AF09_CC.jpg"",""stimuli/WM11_DO.jpg"",""stimuli/AF10_HE.jpg"",""stimuli/HM10_FO.jpg""]","stimuli/AF09_CC.jpg","stimuli/WM11_DO.jpg","stimuli/AF10_HE.jpg","stimuli/HM10_FO.jpg","pos2","stimuli/WM11_DO.jpg","DO","WM11","1","4","8","6","stimuli/stars_8.png","46","[""CC"",""DO"",""HE"",""FO""]","[""AF09"",""WM11"",""AF10"",""HM10""]","[3,8,0,10]","[4,6,2,8]","","",""
"show-reward","38","160047","0.0-38.0","p208993","A3CMO4D4U0C7JI","3WRBLBQ2GSENM5LEFQY1C5PG0GV0GC","39U1BHVTDNXQVM4B8FKS26X1CXFT3Q","model","mismatch","uniform","","","","","","","","165900.09999999404","167904.39999997616","","","","","","","","","","","","8","","stimuli/stars_8.png","46","","","","","stimuli/WM11_DO.jpg","",""
"explore-choice","39","161900","0.0-39.0","p208993","A3CMO4D4U0C7JI","3WRBLBQ2GSENM5LEFQY1C5PG0GV0GC","39U1BHVTDNXQVM4B8FKS26X1CXFT3Q","model","mismatch","uniform","","","","","","","1350.800000011921","167905.69999998808","169256.5","[""stimuli/WM11_FO.jpg"",""stimuli/AF09_HE.jpg"",""stimuli/HM10_CC.jpg"",""stimuli/AF10_DO.jpg""]","stimuli/WM11_FO.jpg","stimuli/AF09_HE.jpg","stimuli/HM10_CC.jpg","stimuli/AF10_DO.jpg","pos3","stimuli/HM10_CC.jpg","CC","HM10","2","4","8","8","stimuli/stars_8.png","50","[""FO"",""HE"",""CC"",""DO""]","[""WM11"",""AF09"",""HM10"",""AF10""]","[4,3,8,3]","[6,4,8,2]","","",""
"show-reward","40","163906","0.0-40.0","p208993","A3CMO4D4U0C7JI","3WRBLBQ2GSENM5LEFQY1C5PG0GV0GC","39U1BHVTDNXQVM4B8FKS26X1CXFT3Q","model","mismatch","uniform","","","","","","","","169758.79999998212","171762.59999999404","","","","","","","","","","","","8","","stimuli/stars_8.png","50","","","","","stimuli/HM10_CC.jpg","",""
"explore-choice","41","165589","0.0-41.0","p208993","A3CMO4D4U0C7JI","3WRBLBQ2GSENM5LEFQY1C5PG0GV0GC","39U1BHVTDNXQVM4B8FKS26X1CXFT3Q","model","mismatch","uniform","","","","","","","1178.9000000059605","171765.79999998212","172944.69999998808","[""stimuli/WM11_CC.jpg"",""stimuli/AF10_HE.jpg"",""stimuli/HM10_DO.jpg"",""stimuli/AF09_FO.jpg""]","stimuli/WM11_CC.jpg","stimuli/AF10_HE.jpg","stimuli/HM10_DO.jpg","stimuli/AF09_FO.jpg","pos1","stimuli/WM11_CC.jpg","CC","WM11","0","3.5","7","6","stimuli/stars_7.png","53.5","[""CC"",""HE"",""DO"",""FO""]","[""WM11"",""AF10"",""HM10"",""AF09""]","[7,1,9,4]","[6,2,8,4]","","",""
"show-reward","42","167597","0.0-42.0","p208993","A3CMO4D4U0C7JI","3WRBLBQ2GSENM5LEFQY1C5PG0GV0GC","39U1BHVTDNXQVM4B8FKS26X1CXFT3Q","model","mismatch","uniform","","","","","","","","173447.39999997616","175453.59999999404","","","","","","","","","","","","7","","stimuli/stars_7.png","53.5","","","","","stimuli/WM11_CC.jpg","",""
"explore-choice","43","169136","0.0-43.0","p208993","A3CMO4D4U0C7JI","3WRBLBQ2GSENM5LEFQY1C5PG0GV0GC","39U1BHVTDNXQVM4B8FKS26X1CXFT3Q","model","mismatch","uniform","","","","","","","1035.800000011921","175456.29999998212","176492.09999999404","[""stimuli/WM11_FO.jpg"",""stimuli/HM10_HE.jpg"",""stimuli/AF09_CC.jpg"",""stimuli/AF10_DO.jpg""]","stimuli/WM11_FO.jpg","stimuli/HM10_HE.jpg","stimuli/AF09_CC.jpg","stimuli/AF10_DO.jpg","pos2","stimuli/HM10_HE.jpg","HE","HM10","1","4.5","9","8","stimuli/stars_9.png","58","[""FO"",""HE"",""CC"",""DO""]","[""WM11"",""HM10"",""AF09"",""AF10""]","[5,9,4,1]","[6,8,4,2]","","",""
"show-reward","44","171143","0.0-44.0","p208993","A3CMO4D4U0C7JI","3WRBLBQ2GSENM5LEFQY1C5PG0GV0GC","39U1BHVTDNXQVM4B8FKS26X1CXFT3Q","model","mismatch","uniform","","","","","","","","176994.39999997616","178999.19999998808","","","","","","","","","","","","9","","stimuli/stars_9.png","58","","","","","stimuli/HM10_HE.jpg","",""
"explore-choice","45","172506","0.0-45.0","p208993","A3CMO4D4U0C7JI","3WRBLBQ2GSENM5LEFQY1C5PG0GV0GC","39U1BHVTDNXQVM4B8FKS26X1CXFT3Q","model","mismatch","uniform","","","","","","","859","179001.5","179860.5","[""stimuli/HM10_FO.jpg"",""stimuli/AF10_HE.jpg"",""stimuli/WM11_CC.jpg"",""stimuli/AF09_DO.jpg""]","stimuli/HM10_FO.jpg","stimuli/AF10_HE.jpg","stimuli/WM11_CC.jpg","stimuli/AF09_DO.jpg","pos3","stimuli/WM11_CC.jpg","CC","WM11","2","2.5","5","6","stimuli/stars_5.png","60.5","[""FO"",""HE"",""CC"",""DO""]","[""HM10"",""AF10"",""WM11"",""AF09""]","[9,1,5,4]","[8,2,6,4]","","",""
"show-reward","46","174536","0.0-46.0","p208993","A3CMO4D4U0C7JI","3WRBLBQ2GSENM5LEFQY1C5PG0GV0GC","39U1BHVTDNXQVM4B8FKS26X1CXFT3Q","model","mismatch","uniform","","","","","","","","180366.5","182392.69999998808","","","","","","","","","","","","5","","stimuli/stars_5.png","60.5","","","","","stimuli/WM11_CC.jpg","",""
"explore-choice","47","176602","0.0-47.0","p208993","A3CMO4D4U0C7JI","3WRBLBQ2GSENM5LEFQY1C5PG0GV0GC","39U1BHVTDNXQVM4B8FKS26X1CXFT3Q","model","mismatch","uniform","","","","","","","1564.5","182394.09999999404","183958.59999999404","[""stimuli/AF10_CC.jpg"",""stimuli/AF09_FO.jpg"",""stimuli/WM11_HE.jpg"",""stimuli/HM10_DO.jpg""]","stimuli/AF10_CC.jpg","stimuli/AF09_FO.jpg","stimuli/WM11_HE.jpg","stimuli/HM10_DO.jpg","pos4","stimuli/HM10_DO.jpg","DO","HM10","3","3","6","8","stimuli/stars_6.png","63.5","[""CC"",""FO"",""HE"",""DO""]","[""AF10"",""AF09"",""WM11"",""HM10""]","[2,4,6,6]","[2,4,6,8]","","",""
"show-reward","48","178610","0.0-48.0","p208993","A3CMO4D4U0C7JI","3WRBLBQ2GSENM5LEFQY1C5PG0GV0GC","39U1BHVTDNXQVM4B8FKS26X1CXFT3Q","model","mismatch","uniform","","","","","","","","184460.19999998808","186466.59999999404","","","","","","","","","","","","6","","stimuli/stars_6.png","63.5","","","","","stimuli/HM10_DO.jpg","",""
"explore-choice","49","179841","0.0-49.0","p208993","A3CMO4D4U0C7JI","3WRBLBQ2GSENM5LEFQY1C5PG0GV0GC","39U1BHVTDNXQVM4B8FKS26X1CXFT3Q","model","mismatch","uniform","","","","","","","727.6999999880791","186468","187195.69999998808","[""stimuli/AF10_FO.jpg"",""stimuli/HM10_DO.jpg"",""stimuli/WM11_HE.jpg"",""stimuli/AF09_CC.jpg""]","stimuli/AF10_FO.jpg","stimuli/HM10_DO.jpg","stimuli/WM11_HE.jpg","stimuli/AF09_CC.jpg","pos1","stimuli/AF10_FO.jpg","FO","AF10","0","0.5","1","2","stimuli/stars_1.png","64","[""FO"",""DO"",""HE"",""CC""]","[""AF10"",""HM10"",""WM11"",""AF09""]","[1,6,4,4]","[2,8,6,4]","","",""
"show-reward","50","181874","0.0-50.0","p208993","A3CMO4D4U0C7JI","3WRBLBQ2GSENM5LEFQY1C5PG0GV0GC","39U1BHVTDNXQVM4B8FKS26X1CXFT3Q","model","mismatch","uniform","","","","","","","","187701.29999998212","189730.29999998212","","","","","","","","","","","","1","","stimuli/stars_1.png","64","","","","","stimuli/AF10_FO.jpg","",""
"explore-choice","51","183544","0.0-51.0","p208993","A3CMO4D4U0C7JI","3WRBLBQ2GSENM5LEFQY1C5PG0GV0GC","39U1BHVTDNXQVM4B8FKS26X1CXFT3Q","model","mismatch","uniform","","","","","","","1135.7999999821186","189732","190867.79999998212","[""stimuli/HM10_HE.jpg"",""stimuli/AF10_FO.jpg"",""stimuli/AF09_CC.jpg"",""stimuli/WM11_DO.jpg""]","stimuli/HM10_HE.jpg","stimuli/AF10_FO.jpg","stimuli/AF09_CC.jpg","stimuli/WM11_DO.jpg","pos2","stimuli/AF10_FO.jpg","FO","AF10","1","1.5","3","2","stimuli/stars_3.png","65.5","[""HE"",""FO"",""CC"",""DO""]","[""HM10"",""AF10"",""AF09"",""WM11""]","[7,3,2,4]","[8,2,4,6]","","",""
"show-reward","52","185556","0.0-52.0","p208993","A3CMO4D4U0C7JI","3WRBLBQ2GSENM5LEFQY1C5PG0GV0GC","39U1BHVTDNXQVM4B8FKS26X1CXFT3Q","model","mismatch","uniform","","","","","","","","191402.39999997616","193412.09999999404","","","","","","","","","","","","3","","stimuli/stars_3.png","65.5","","","","","stimuli/AF10_FO.jpg","",""
"explore-choice","53","186905","0.0-53.0","p208993","A3CMO4D4U0C7JI","3WRBLBQ2GSENM5LEFQY1C5PG0GV0GC","39U1BHVTDNXQVM4B8FKS26X1CXFT3Q","model","mismatch","uniform","","","","","","","847.0999999940395","193414.09999999404","194261.19999998808","[""stimuli/AF10_FO.jpg"",""stimuli/WM11_CC.jpg"",""stimuli/AF09_HE.jpg"",""stimuli/HM10_DO.jpg""]","stimuli/AF10_FO.jpg","stimuli/WM11_CC.jpg","stimuli/AF09_HE.jpg","stimuli/HM10_DO.jpg","pos3","stimuli/AF09_HE.jpg","HE","AF09","2","1.5","3","4","stimuli/stars_3.png","67","[""FO"",""CC"",""HE"",""DO""]","[""AF10"",""WM11"",""AF09"",""HM10""]","[0,8,3,7]","[2,6,4,8]","","",""
"show-reward","54","188910","0.0-54.0","p208993","A3CMO4D4U0C7JI","3WRBLBQ2GSENM5LEFQY1C5PG0GV0GC","39U1BHVTDNXQVM4B8FKS26X1CXFT3Q","model","mismatch","uniform","","","","","","","","194763.39999997616","196766.59999999404","","","","","","","","","","","","3","","stimuli/stars_3.png","67","","","","","stimuli/AF09_HE.jpg","",""
"explore-choice","55","190256","0.0-55.0","p208993","A3CMO4D4U0C7JI","3WRBLBQ2GSENM5LEFQY1C5PG0GV0GC","39U1BHVTDNXQVM4B8FKS26X1CXFT3Q","model","mismatch","uniform","","","","","","","840.2000000178814","196768.89999997616","197609.09999999404","[""stimuli/AF09_CC.jpg"",""stimuli/HM10_DO.jpg"",""stimuli/AF10_FO.jpg"",""stimuli/WM11_HE.jpg""]","stimuli/AF09_CC.jpg","stimuli/HM10_DO.jpg","stimuli/AF10_FO.jpg","stimuli/WM11_HE.jpg","pos4","stimuli/WM11_HE.jpg","HE","WM11","3","2","4","6","stimuli/stars_4.png","69","[""CC"",""DO"",""FO"",""HE""]","[""AF09"",""HM10"",""AF10"",""WM11""]","[4,6,1,4]","[4,8,2,6]","","",""
"show-reward","56","192274","0.0-56.0","p208993","A3CMO4D4U0C7JI","3WRBLBQ2GSENM5LEFQY1C5PG0GV0GC","39U1BHVTDNXQVM4B8FKS26X1CXFT3Q","model","mismatch","uniform","","","","","","","","198116.59999999404","200129","","","","","","","","","","","","4","","stimuli/stars_4.png","69","","","","","stimuli/WM11_HE.jpg","",""
"explore-choice","57","193627","0.0-57.0","p208993","A3CMO4D4U0C7JI","3WRBLBQ2GSENM5LEFQY1C5PG0GV0GC","39U1BHVTDNXQVM4B8FKS26X1CXFT3Q","model","mismatch","uniform","","","","","","","830.5999999940395","200130.5","200961.09999999404","[""stimuli/WM11_CC.jpg"",""stimuli/HM10_HE.jpg"",""stimuli/AF10_DO.jpg"",""stimuli/AF09_FO.jpg""]","stimuli/WM11_CC.jpg","stimuli/HM10_HE.jpg","stimuli/AF10_DO.jpg","stimuli/AF09_FO.jpg","pos1","stimuli/WM11_CC.jpg","CC","WM11","0","3.5","7","6","stimuli/stars_7.png","72.5","[""CC"",""HE"",""DO"",""FO""]","[""WM11"",""HM10"",""AF10"",""AF09""]","[7,6,3,6]","[6,8,2,4]","","",""
"show-reward","58","195639","0.0-58.0","p208993","A3CMO4D4U0C7JI","3WRBLBQ2GSENM5LEFQY1C5PG0GV0GC","39U1BHVTDNXQVM4B8FKS26X1CXFT3Q","model","mismatch","uniform","","","","","","","","201483.39999997616","203493.89999997616","","","","","","","","","","","","7","","stimuli/stars_7.png","72.5","","","","","stimuli/WM11_CC.jpg","",""
"explore-choice","59","196858","0.0-59.0","p208993","A3CMO4D4U0C7JI","3WRBLBQ2GSENM5LEFQY1C5PG0GV0GC","39U1BHVTDNXQVM4B8FKS26X1CXFT3Q","model","mismatch","uniform","","","","","","","717.3000000119209","203495.39999997616","204212.69999998808","[""stimuli/AF10_FO.jpg"",""stimuli/WM11_HE.jpg"",""stimuli/AF09_DO.jpg"",""stimuli/HM10_CC.jpg""]","stimuli/AF10_FO.jpg","stimuli/WM11_HE.jpg","stimuli/AF09_DO.jpg","stimuli/HM10_CC.jpg","pos4","stimuli/HM10_CC.jpg","CC","HM10","3","3","6","8","stimuli/stars_6.png","75.5","[""FO"",""HE"",""DO"",""CC""]","[""AF10"",""WM11"",""AF09"",""HM10""]","[2,4,6,6]","[2,6,4,8]","","",""
"show-reward","60","198872","0.0-60.0","p208993","A3CMO4D4U0C7JI","3WRBLBQ2GSENM5LEFQY1C5PG0GV0GC","39U1BHVTDNXQVM4B8FKS26X1CXFT3Q","model","mismatch","uniform","","","","","","","","204714.69999998808","206726.09999999404","","","","","","","","","","","","6","","stimuli/stars_6.png","75.5","","","","","stimuli/HM10_CC.jpg","",""
"explore-choice","61","200327","0.0-61.0","p208993","A3CMO4D4U0C7JI","3WRBLBQ2GSENM5LEFQY1C5PG0GV0GC","39U1BHVTDNXQVM4B8FKS26X1CXFT3Q","model","mismatch","uniform","","","","","","","951.5999999940395","206729.19999998808","207680.79999998212","[""stimuli/WM11_FO.jpg"",""stimuli/AF10_HE.jpg"",""stimuli/AF09_DO.jpg"",""stimuli/HM10_CC.jpg""]","stimuli/WM11_FO.jpg","stimuli/AF10_HE.jpg","stimuli/AF09_DO.jpg","stimuli/HM10_CC.jpg","pos2","stimuli/AF10_HE.jpg","HE","AF10","1","0","0","2","stimuli/stars_0.png","75.5","[""FO"",""HE"",""DO"",""CC""]","[""WM11"",""AF10"",""AF09"",""HM10""]","[8,0,6,9]","[6,2,4,8]","","",""
"show-reward","62","202337","0.0-62.0","p208993","A3CMO4D4U0C7JI","3WRBLBQ2GSENM5LEFQY1C5PG0GV0GC","39U1BHVTDNXQVM4B8FKS26X1CXFT3Q","model","mismatch","uniform","","","","","","","","208183.29999998212","210191.69999998808","","","","","","","","","","","","0","","stimuli/stars_0.png","75.5","","","","","stimuli/AF10_HE.jpg","",""
"explore-choice","63","203842","0.0-63.0","p208993","A3CMO4D4U0C7JI","3WRBLBQ2GSENM5LEFQY1C5PG0GV0GC","39U1BHVTDNXQVM4B8FKS26X1CXFT3Q","model","mismatch","uniform","","","","","","","1001.5999999940395","210193.79999998212","211195.39999997616","[""stimuli/HM10_FO.jpg"",""stimuli/AF10_HE.jpg"",""stimuli/AF09_DO.jpg"",""stimuli/WM11_CC.jpg""]","stimuli/HM10_FO.jpg","stimuli/AF10_HE.jpg","stimuli/AF09_DO.jpg","stimuli/WM11_CC.jpg","pos3","stimuli/AF09_DO.jpg","DO","AF09","2","2","4","4","stimuli/stars_4.png","77.5","[""FO"",""HE"",""DO"",""CC""]","[""HM10"",""AF10"",""AF09"",""WM11""]","[9,1,4,5]","[8,2,4,6]","","",""
"show-reward","64","205856","0.0-64.0","p208993","A3CMO4D4U0C7JI","3WRBLBQ2GSENM5LEFQY1C5PG0GV0GC","39U1BHVTDNXQVM4B8FKS26X1CXFT3Q","model","mismatch","uniform","","","","","","","","211699.09999999404","213711.29999998212","","","","","","","","","","","","4","","stimuli/stars_4.png","77.5","","","","","stimuli/AF09_DO.jpg","",""
"explore-choice","65","207380","0.0-65.0","p208993","A3CMO4D4U0C7JI","3WRBLBQ2GSENM5LEFQY1C5PG0GV0GC","39U1BHVTDNXQVM4B8FKS26X1CXFT3Q","model","mismatch","uniform","","","","","","","1013.7999999821186","213713","214726.79999998212","[""stimuli/WM11_CC.jpg"",""stimuli/AF09_FO.jpg"",""stimuli/AF10_HE.jpg"",""stimuli/HM10_DO.jpg""]","stimuli/WM11_CC.jpg","stimuli/AF09_FO.jpg","stimuli/AF10_HE.jpg","stimuli/HM10_DO.jpg","pos1","stimuli/WM11_CC.jpg","CC","WM11","0","3.5","7","6","stimuli/stars_7.png","81","[""CC"",""FO"",""HE"",""DO""]","[""WM11"",""AF09"",""AF10"",""HM10""]","[7,4,1,9]","[6,4,2,8]","","",""
"show-reward","66","209469","0.0-66.0","p208993","A3CMO4D4U0C7JI","3WRBLBQ2GSENM5LEFQY1C5PG0GV0GC","39U1BHVTDNXQVM4B8FKS26X1CXFT3Q","model","mismatch","uniform","","","","","","","","215292.19999998808","217323.59999999404","","","","","","","","","","","","7","","stimuli/stars_7.png","81","","","","","stimuli/WM11_CC.jpg","",""
"explore-choice","67","210828","0.0-67.0","p208993","A3CMO4D4U0C7JI","3WRBLBQ2GSENM5LEFQY1C5PG0GV0GC","39U1BHVTDNXQVM4B8FKS26X1CXFT3Q","model","mismatch","uniform","","","","","","","857.4000000059605","217325.59999999404","218183","[""stimuli/WM11_FO.jpg"",""stimuli/HM10_HE.jpg"",""stimuli/AF09_CC.jpg"",""stimuli/AF10_DO.jpg""]","stimuli/WM11_FO.jpg","stimuli/HM10_HE.jpg","stimuli/AF09_CC.jpg","stimuli/AF10_DO.jpg","pos4","stimuli/AF10_DO.jpg","DO","AF10","3","0.5","1","2","stimuli/stars_1.png","81.5","[""FO"",""HE"",""CC"",""DO""]","[""WM11"",""HM10"",""AF09"",""AF10""]","[5,9,4,1]","[6,8,4,2]","","",""
"show-reward","68","212843","0.0-68.0","p208993","A3CMO4D4U0C7JI","3WRBLBQ2GSENM5LEFQY1C5PG0GV0GC","39U1BHVTDNXQVM4B8FKS26X1CXFT3Q","model","mismatch","uniform","","","","","","","","218684.69999998808","220698.19999998808","","","","","","","","","","","","1","","stimuli/stars_1.png","81.5","","","","","stimuli/AF10_DO.jpg","",""
"explore-choice","69","214183","0.0-69.0","p208993","A3CMO4D4U0C7JI","3WRBLBQ2GSENM5LEFQY1C5PG0GV0GC","39U1BHVTDNXQVM4B8FKS26X1CXFT3Q","model","mismatch","uniform","","","","","","","836.4000000059605","220700.09999999404","221536.5","[""stimuli/AF09_HE.jpg"",""stimuli/WM11_DO.jpg"",""stimuli/HM10_FO.jpg"",""stimuli/AF10_CC.jpg""]","stimuli/AF09_HE.jpg","stimuli/WM11_DO.jpg","stimuli/HM10_FO.jpg","stimuli/AF10_CC.jpg","pos2","stimuli/WM11_DO.jpg","DO","WM11","1","3","6","6","stimuli/stars_6.png","84.5","[""HE"",""DO"",""FO"",""CC""]","[""AF09"",""WM11"",""HM10"",""AF10""]","[3,6,7,4]","[4,6,8,2]","","",""
"show-reward","70","216198","0.0-70.0","p208993","A3CMO4D4U0C7JI","3WRBLBQ2GSENM5LEFQY1C5PG0GV0GC","39U1BHVTDNXQVM4B8FKS26X1CXFT3Q","model","mismatch","uniform","","","","","","","","222039.39999997616","224053.09999999404","","","","","","","","","","","","6","","stimuli/stars_6.png","84.5","","","","","stimuli/WM11_DO.jpg","",""
"explore-choice","71","218035","0.0-71.0","p208993","A3CMO4D4U0C7JI","3WRBLBQ2GSENM5LEFQY1C5PG0GV0GC","39U1BHVTDNXQVM4B8FKS26X1CXFT3Q","model","mismatch","uniform","","","","","","","1331.2999999821186","224055.5","225386.79999998212","[""stimuli/HM10_DO.jpg"",""stimuli/AF09_HE.jpg"",""stimuli/AF10_FO.jpg"",""stimuli/WM11_CC.jpg""]","stimuli/HM10_DO.jpg","stimuli/AF09_HE.jpg","stimuli/AF10_FO.jpg","stimuli/WM11_CC.jpg","pos1","stimuli/HM10_DO.jpg","DO","HM10","0","3.5","7","8","stimuli/stars_7.png","88","[""DO"",""HE"",""FO"",""CC""]","[""HM10"",""AF09"",""AF10"",""WM11""]","[7,3,0,8]","[8,4,2,6]","","",""
"show-reward","72","220048","0.0-72.0","p208993","A3CMO4D4U0C7JI","3WRBLBQ2GSENM5LEFQY1C5PG0GV0GC","39U1BHVTDNXQVM4B8FKS26X1CXFT3Q","model","mismatch","uniform","","","","","","","","225892","227901.5","","","","","","","","","","","","7","","stimuli/stars_7.png","88","","","","","stimuli/HM10_DO.jpg","",""
"explore-choice","73","221854","0.0-73.0","p208993","A3CMO4D4U0C7JI","3WRBLBQ2GSENM5LEFQY1C5PG0GV0GC","39U1BHVTDNXQVM4B8FKS26X1CXFT3Q","model","mismatch","uniform","","","","","","","1302.7000000178814","227904.39999997616","229207.09999999404","[""stimuli/HM10_FO.jpg"",""stimuli/WM11_DO.jpg"",""stimuli/AF10_HE.jpg"",""stimuli/AF09_CC.jpg""]","stimuli/HM10_FO.jpg","stimuli/WM11_DO.jpg","stimuli/AF10_HE.jpg","stimuli/AF09_CC.jpg","pos3","stimuli/AF10_HE.jpg","HE","AF10","2","0","0","2","stimuli/stars_0.png","88","[""FO"",""DO"",""HE"",""CC""]","[""HM10"",""WM11"",""AF10"",""AF09""]","[10,8,0,3]","[8,6,2,4]","","",""
"show-reward","74","223869","0.0-74.0","p208993","A3CMO4D4U0C7JI","3WRBLBQ2GSENM5LEFQY1C5PG0GV0GC","39U1BHVTDNXQVM4B8FKS26X1CXFT3Q","model","mismatch","uniform","","","","","","","","229711.59999999404","231723.59999999404","","","","","","","","","","","","0","","stimuli/stars_0.png","88","","","","","stimuli/AF10_HE.jpg","",""
"explore-choice","75","225356","0.0-75.0","p208993","A3CMO4D4U0C7JI","3WRBLBQ2GSENM5LEFQY1C5PG0GV0GC","39U1BHVTDNXQVM4B8FKS26X1CXFT3Q","model","mismatch","uniform","","","","","","","983.9000000059605","231724.89999997616","232708.79999998212","[""stimuli/WM11_CC.jpg"",""stimuli/AF09_DO.jpg"",""stimuli/HM10_HE.jpg"",""stimuli/AF10_FO.jpg""]","stimuli/WM11_CC.jpg","stimuli/AF09_DO.jpg","stimuli/HM10_HE.jpg","stimuli/AF10_FO.jpg","pos3","stimuli/HM10_HE.jpg","HE","HM10","2","4","8","8","stimuli/stars_8.png","92","[""CC"",""DO"",""HE"",""FO""]","[""WM11"",""AF09"",""HM10"",""AF10""]","[5,3,8,0]","[6,4,8,2]","","",""
"show-reward","76","227360","0.0-76.0","p208993","A3CMO4D4U0C7JI","3WRBLBQ2GSENM5LEFQY1C5PG0GV0GC","39U1BHVTDNXQVM4B8FKS26X1CXFT3Q","model","mismatch","uniform","","","","","","","","233212.59999999404","235215.5","","","","","","","","","","","","8","","stimuli/stars_8.png","92","","","","","stimuli/HM10_HE.jpg","",""
"explore-choice","77","228951","0.0-77.0","p208993","A3CMO4D4U0C7JI","3WRBLBQ2GSENM5LEFQY1C5PG0GV0GC","39U1BHVTDNXQVM4B8FKS26X1CXFT3Q","model","mismatch","uniform","","","","","","","1088.800000011921","235217.19999998808","236306","[""stimuli/AF10_CC.jpg"",""stimuli/WM11_DO.jpg"",""stimuli/AF09_FO.jpg"",""stimuli/HM10_HE.jpg""]","stimuli/AF10_CC.jpg","stimuli/WM11_DO.jpg","stimuli/AF09_FO.jpg","stimuli/HM10_HE.jpg","pos4","stimuli/HM10_HE.jpg","HE","HM10","3","3.5","7","8","stimuli/stars_7.png","95.5","[""CC"",""DO"",""FO"",""HE""]","[""AF10"",""WM11"",""AF09"",""HM10""]","[0,8,3,7]","[2,6,4,8]","","",""
"show-reward","78","230969","0.0-78.0","p208993","A3CMO4D4U0C7JI","3WRBLBQ2GSENM5LEFQY1C5PG0GV0GC","39U1BHVTDNXQVM4B8FKS26X1CXFT3Q","model","mismatch","uniform","","","","","","","","236808.29999998212","238823","","","","","","","","","","","","7","","stimuli/stars_7.png","95.5","","","","","stimuli/HM10_HE.jpg","",""
"explore-choice","79","232281","0.0-79.0","p208993","A3CMO4D4U0C7JI","3WRBLBQ2GSENM5LEFQY1C5PG0GV0GC","39U1BHVTDNXQVM4B8FKS26X1CXFT3Q","model","mismatch","uniform","","","","","","","800.8000000119209","238825.89999997616","239626.69999998808","[""stimuli/WM11_CC.jpg"",""stimuli/AF10_DO.jpg"",""stimuli/AF09_HE.jpg"",""stimuli/HM10_FO.jpg""]","stimuli/WM11_CC.jpg","stimuli/AF10_DO.jpg","stimuli/AF09_HE.jpg","stimuli/HM10_FO.jpg","pos2","stimuli/AF10_DO.jpg","DO","AF10","1","1.5","3","2","stimuli/stars_3.png","97","[""CC"",""DO"",""HE"",""FO""]","[""WM11"",""AF10"",""AF09"",""HM10""]","[4,3,4,6]","[6,2,4,8]","","",""
"show-reward","80","234301","0.0-80.0","p208993","A3CMO4D4U0C7JI","3WRBLBQ2GSENM5LEFQY1C5PG0GV0GC","39U1BHVTDNXQVM4B8FKS26X1CXFT3Q","model","mismatch","uniform","","","","","","","","240137.5","242155.69999998808","","","","","","","","","","","","3","","stimuli/stars_3.png","97","","","","","stimuli/AF10_DO.jpg","",""
"explore-choice","81","235486","0.0-81.0","p208993","A3CMO4D4U0C7JI","3WRBLBQ2GSENM5LEFQY1C5PG0GV0GC","39U1BHVTDNXQVM4B8FKS26X1CXFT3Q","model","mismatch","uniform","","","","","","","677.6999999880791","242162","242839.69999998808","[""stimuli/AF10_DO.jpg"",""stimuli/AF09_FO.jpg"",""stimuli/HM10_CC.jpg"",""stimuli/WM11_HE.jpg""]","stimuli/AF10_DO.jpg","stimuli/AF09_FO.jpg","stimuli/HM10_CC.jpg","stimuli/WM11_HE.jpg","pos1","stimuli/AF10_DO.jpg","DO","AF10","0","0","0","2","stimuli/stars_0.png","97","[""DO"",""FO"",""CC"",""HE""]","[""AF10"",""AF09"",""HM10"",""WM11""]","[0,2,6,7]","[2,4,8,6]","","",""
"show-reward","82","237503","0.0-82.0","p208993","A3CMO4D4U0C7JI","3WRBLBQ2GSENM5LEFQY1C5PG0GV0GC","39U1BHVTDNXQVM4B8FKS26X1CXFT3Q","model","mismatch","uniform","","","","","","","","243344.89999997616","245358","","","","","","","","","","","","0","","stimuli/stars_0.png","97","","","","","stimuli/AF10_DO.jpg","",""
"explore-choice","83","238766","0.0-83.0","p208993","A3CMO4D4U0C7JI","3WRBLBQ2GSENM5LEFQY1C5PG0GV0GC","39U1BHVTDNXQVM4B8FKS26X1CXFT3Q","model","mismatch","uniform","","","","","","","759.4000000059605","245360.19999998808","246119.59999999404","[""stimuli/HM10_CC.jpg"",""stimuli/AF09_HE.jpg"",""stimuli/AF10_DO.jpg"",""stimuli/WM11_FO.jpg""]","stimuli/HM10_CC.jpg","stimuli/AF09_HE.jpg","stimuli/AF10_DO.jpg","stimuli/WM11_FO.jpg","pos4","stimuli/WM11_FO.jpg","FO","WM11","3","2","4","6","stimuli/stars_4.png","99","[""CC"",""HE"",""DO"",""FO""]","[""HM10"",""AF09"",""AF10"",""WM11""]","[8,3,3,4]","[8,4,2,6]","","",""
"show-reward","84","240786","0.0-84.0","p208993","A3CMO4D4U0C7JI","3WRBLBQ2GSENM5LEFQY1C5PG0GV0GC","39U1BHVTDNXQVM4B8FKS26X1CXFT3Q","model","mismatch","uniform","","","","","","","","246622.5","248640.29999998212","","","","","","","","","","","","4","","stimuli/stars_4.png","99","","","","","stimuli/WM11_FO.jpg","",""
"explore-choice","85","242390","0.0-85.0","p208993","A3CMO4D4U0C7JI","3WRBLBQ2GSENM5LEFQY1C5PG0GV0GC","39U1BHVTDNXQVM4B8FKS26X1CXFT3Q","model","mismatch","uniform","","","","","","","1101.199999988079","248642.09999999404","249743.29999998212","[""stimuli/AF09_FO.jpg"",""stimuli/HM10_DO.jpg"",""stimuli/AF10_CC.jpg"",""stimuli/WM11_HE.jpg""]","stimuli/AF09_FO.jpg","stimuli/HM10_DO.jpg","stimuli/AF10_CC.jpg","stimuli/WM11_HE.jpg","pos3","stimuli/AF10_CC.jpg","CC","AF10","2","1","2","2","stimuli/stars_2.png","100","[""FO"",""DO"",""CC"",""HE""]","[""AF09"",""HM10"",""AF10"",""WM11""]","[4,6,2,6]","[4,8,2,6]","","",""
"show-reward","86","244426","0.0-86.0","p208993","A3CMO4D4U0C7JI","3WRBLBQ2GSENM5LEFQY1C5PG0GV0GC","39U1BHVTDNXQVM4B8FKS26X1CXFT3Q","model","mismatch","uniform","","","","","","","","250246.5","252280.39999997616","","","","","","","","","","","","2","","stimuli/stars_2.png","100","","","","","stimuli/AF10_CC.jpg","",""
"explore-choice","87","245813","0.0-87.0","p208993","A3CMO4D4U0C7JI","3WRBLBQ2GSENM5LEFQY1C5PG0GV0GC","39U1BHVTDNXQVM4B8FKS26X1CXFT3Q","model","mismatch","uniform","","","","","","","867.2000000178814","252282.39999997616","253149.59999999404","[""stimuli/HM10_DO.jpg"",""stimuli/AF10_CC.jpg"",""stimuli/AF09_HE.jpg"",""stimuli/WM11_FO.jpg""]","stimuli/HM10_DO.jpg","stimuli/AF10_CC.jpg","stimuli/AF09_HE.jpg","stimuli/WM11_FO.jpg","pos2","stimuli/AF10_CC.jpg","CC","AF10","1","0","0","2","stimuli/stars_0.png","100","[""DO"",""CC"",""HE"",""FO""]","[""HM10"",""AF10"",""AF09"",""WM11""]","[7,0,4,4]","[8,2,4,6]","","",""
"show-reward","88","247820","0.0-88.0","p208993","A3CMO4D4U0C7JI","3WRBLBQ2GSENM5LEFQY1C5PG0GV0GC","39U1BHVTDNXQVM4B8FKS26X1CXFT3Q","model","mismatch","uniform","","","","","","","","253669.69999998808","255674.29999998212","","","","","","","","","","","","0","","stimuli/stars_0.png","100","","","","","stimuli/AF10_CC.jpg","",""
"explore-choice","89","248939","0.0-89.0","p208993","A3CMO4D4U0C7JI","3WRBLBQ2GSENM5LEFQY1C5PG0GV0GC","39U1BHVTDNXQVM4B8FKS26X1CXFT3Q","model","mismatch","uniform","","","","","","","613.4000000059605","255676.79999998212","256290.19999998808","[""stimuli/AF09_CC.jpg"",""stimuli/AF10_DO.jpg"",""stimuli/WM11_HE.jpg"",""stimuli/HM10_FO.jpg""]","stimuli/AF09_CC.jpg","stimuli/AF10_DO.jpg","stimuli/WM11_HE.jpg","stimuli/HM10_FO.jpg","pos2","stimuli/AF10_DO.jpg","DO","AF10","1","0","0","2","stimuli/stars_0.png","100","[""CC"",""DO"",""HE"",""FO""]","[""AF09"",""AF10"",""WM11"",""HM10""]","[6,0,8,9]","[4,2,6,8]","","",""
"show-reward","90","250946","0.0-90.0","p208993","A3CMO4D4U0C7JI","3WRBLBQ2GSENM5LEFQY1C5PG0GV0GC","39U1BHVTDNXQVM4B8FKS26X1CXFT3Q","model","mismatch","uniform","","","","","","","","256795.59999999404","258798.59999999404","","","","","","","","","","","","0","","stimuli/stars_0.png","100","","","","","stimuli/AF10_DO.jpg","",""
"explore-choice","91","252339","0.0-91.0","p208993","A3CMO4D4U0C7JI","3WRBLBQ2GSENM5LEFQY1C5PG0GV0GC","39U1BHVTDNXQVM4B8FKS26X1CXFT3Q","model","mismatch","uniform","","","","","","","890.2999999821186","258801.09999999404","259691.39999997616","[""stimuli/WM11_FO.jpg"",""stimuli/AF09_CC.jpg"",""stimuli/HM10_DO.jpg"",""stimuli/AF10_HE.jpg""]","stimuli/WM11_FO.jpg","stimuli/AF09_CC.jpg","stimuli/HM10_DO.jpg","stimuli/AF10_HE.jpg","pos2","stimuli/AF09_CC.jpg","CC","AF09","1","3","6","4","stimuli/stars_6.png","103","[""FO"",""CC"",""DO"",""HE""]","[""WM11"",""AF09"",""HM10"",""AF10""]","[4,6,7,2]","[6,4,8,2]","","",""
"show-reward","92","254345","0.0-92.0","p208993","A3CMO4D4U0C7JI","3WRBLBQ2GSENM5LEFQY1C5PG0GV0GC","39U1BHVTDNXQVM4B8FKS26X1CXFT3Q","model","mismatch","uniform","","","","","","","","260194.5","262197.39999997616","","","","","","","","","","","","6","","stimuli/stars_6.png","103","","","","","stimuli/AF09_CC.jpg","",""
"explore-choice","93","255648","0.0-93.0","p208993","A3CMO4D4U0C7JI","3WRBLBQ2GSENM5LEFQY1C5PG0GV0GC","39U1BHVTDNXQVM4B8FKS26X1CXFT3Q","model","mismatch","uniform","","","","","","","800.2000000178814","262199.39999997616","262999.59999999404","[""stimuli/WM11_DO.jpg"",""stimuli/AF10_HE.jpg"",""stimuli/HM10_CC.jpg"",""stimuli/AF09_FO.jpg""]","stimuli/WM11_DO.jpg","stimuli/AF10_HE.jpg","stimuli/HM10_CC.jpg","stimuli/AF09_FO.jpg","pos4","stimuli/AF09_FO.jpg","FO","AF09","3","3","6","4","stimuli/stars_6.png","106","[""DO"",""HE"",""CC"",""FO""]","[""WM11"",""AF10"",""HM10"",""AF09""]","[7,2,8,6]","[6,2,8,4]","","",""
"show-reward","94","257657","0.0-94.0","p208993","A3CMO4D4U0C7JI","3WRBLBQ2GSENM5LEFQY1C5PG0GV0GC","39U1BHVTDNXQVM4B8FKS26X1CXFT3Q","model","mismatch","uniform","","","","","","","","263503.89999997616","265509.89999997616","","","","","","","","","","","","6","","stimuli/stars_6.png","106","","","","","stimuli/AF09_FO.jpg","",""
"explore-choice","95","258904","0.0-95.0","p208993","A3CMO4D4U0C7JI","3WRBLBQ2GSENM5LEFQY1C5PG0GV0GC","39U1BHVTDNXQVM4B8FKS26X1CXFT3Q","model","mismatch","uniform","","","","","","","743.2000000178814","265512.39999997616","266255.59999999404","[""stimuli/AF10_CC.jpg"",""stimuli/WM11_FO.jpg"",""stimuli/AF09_DO.jpg"",""stimuli/HM10_HE.jpg""]","stimuli/AF10_CC.jpg","stimuli/WM11_FO.jpg","stimuli/AF09_DO.jpg","stimuli/HM10_HE.jpg","pos3","stimuli/AF09_DO.jpg","DO","AF09","2","3","6","4","stimuli/stars_6.png","109","[""CC"",""FO"",""DO"",""HE""]","[""AF10"",""WM11"",""AF09"",""HM10""]","[4,6,6,10]","[2,6,4,8]","","",""
"show-reward","96","260935","0.0-96.0","p208993","A3CMO4D4U0C7JI","3WRBLBQ2GSENM5LEFQY1C5PG0GV0GC","39U1BHVTDNXQVM4B8FKS26X1CXFT3Q","model","mismatch","uniform","","","","","","","","266758.59999999404","268787.59999999404","","","","","","","","","","","","6","","stimuli/stars_6.png","109","","","","","stimuli/AF09_DO.jpg","",""
"explore-choice","97","262711","0.0-97.0","p208993","A3CMO4D4U0C7JI","3WRBLBQ2GSENM5LEFQY1C5PG0GV0GC","39U1BHVTDNXQVM4B8FKS26X1CXFT3Q","model","mismatch","uniform","","","","","","","1273.0999999940395","268790.1999999881","270063.2999999821","[""stimuli/HM10_HE.jpg"",""stimuli/AF09_CC.jpg"",""stimuli/AF10_FO.jpg"",""stimuli/WM11_DO.jpg""]","stimuli/HM10_HE.jpg","stimuli/AF09_CC.jpg","stimuli/AF10_FO.jpg","stimuli/WM11_DO.jpg","pos1","stimuli/HM10_HE.jpg","HE","HM10","0","3.5","7","8","stimuli/stars_7.png","112.5","[""HE"",""CC"",""FO"",""DO""]","[""HM10"",""AF09"",""AF10"",""WM11""]","[7,2,3,4]","[8,4,2,6]","","",""
"show-reward","98","264725","0.0-98.0","p208993","A3CMO4D4U0C7JI","3WRBLBQ2GSENM5LEFQY1C5PG0GV0GC","39U1BHVTDNXQVM4B8FKS26X1CXFT3Q","model","mismatch","uniform","","","","","","","","270565.59999999404","272577.7999999821","","","","","","","","","","","","7","","stimuli/stars_7.png","112.5","","","","","stimuli/HM10_HE.jpg","",""
"explore-choice","99","266240","0.0-99.0","p208993","A3CMO4D4U0C7JI","3WRBLBQ2GSENM5LEFQY1C5PG0GV0GC","39U1BHVTDNXQVM4B8FKS26X1CXFT3Q","model","mismatch","uniform","","","","","","","1000.1000000238419","272579.89999997616","273580","[""stimuli/AF09_DO.jpg"",""stimuli/AF10_CC.jpg"",""stimuli/HM10_FO.jpg"",""stimuli/WM11_HE.jpg""]","stimuli/AF09_DO.jpg","stimuli/AF10_CC.jpg","stimuli/HM10_FO.jpg","stimuli/WM11_HE.jpg","pos4","stimuli/WM11_HE.jpg","HE","WM11","3","2.5","5","6","stimuli/stars_5.png","115","[""DO"",""CC"",""FO"",""HE""]","[""AF09"",""AF10"",""HM10"",""WM11""]","[3,1,10,5]","[4,2,8,6]","","",""
"show-reward","100","268255","0.0-100.0","p208993","A3CMO4D4U0C7JI","3WRBLBQ2GSENM5LEFQY1C5PG0GV0GC","39U1BHVTDNXQVM4B8FKS26X1CXFT3Q","model","mismatch","uniform","","","","","","","","274094.1999999881","276108","","","","","","","","","","","","5","","stimuli/stars_5.png","115","","","","","stimuli/WM11_HE.jpg","",""
"explore-choice","101","269666","0.0-101.0","p208993","A3CMO4D4U0C7JI","3WRBLBQ2GSENM5LEFQY1C5PG0GV0GC","39U1BHVTDNXQVM4B8FKS26X1CXFT3Q","model","mismatch","uniform","","","","","","","906.7000000178814","276110.7999999821","277017.5","[""stimuli/AF09_HE.jpg"",""stimuli/AF10_FO.jpg"",""stimuli/HM10_CC.jpg"",""stimuli/WM11_DO.jpg""]","stimuli/AF09_HE.jpg","stimuli/AF10_FO.jpg","stimuli/HM10_CC.jpg","stimuli/WM11_DO.jpg","pos2","stimuli/AF10_FO.jpg","FO","AF10","1","1.5","3","2","stimuli/stars_3.png","116.5","[""HE"",""FO"",""CC"",""DO""]","[""AF09"",""AF10"",""HM10"",""WM11""]","[5,3,10,8]","[4,2,8,6]","","",""
"show-reward","102","271676","0.0-102.0","p208993","A3CMO4D4U0C7JI","3WRBLBQ2GSENM5LEFQY1C5PG0GV0GC","39U1BHVTDNXQVM4B8FKS26X1CXFT3Q","model","mismatch","uniform","","","","","","","","277521","279528.7999999821","","","","","","","","","","","","3","","stimuli/stars_3.png","116.5","","","","","stimuli/AF10_FO.jpg","",""
"explore-choice","103","273228","0.0-103.0","p208993","A3CMO4D4U0C7JI","3WRBLBQ2GSENM5LEFQY1C5PG0GV0GC","39U1BHVTDNXQVM4B8FKS26X1CXFT3Q","model","mismatch","uniform","","","","","","","1048.7999999821186","279531","280579.7999999821","[""stimuli/AF02_HO.jpg"",""stimuli/AM09_SUR.jpg"",""stimuli/WF04_SC.jpg"",""stimuli/AM05_AO.jpg""]","stimuli/AF02_HO.jpg","stimuli/AM09_SUR.jpg","stimuli/WF04_SC.jpg","stimuli/AM05_AO.jpg","pos3","stimuli/WF04_SC.jpg","SC","WF04","2","2","4","4","stimuli/stars_4.png","118.5","[""HO"",""SUR"",""SC"",""AO""]","[""AF02"",""AM09"",""WF04"",""AM05""]","[10,2,4,6]","[8,2,4,6]","","",""
"show-reward","104","275246","0.0-104.0","p208993","A3CMO4D4U0C7JI","3WRBLBQ2GSENM5LEFQY1C5PG0GV0GC","39U1BHVTDNXQVM4B8FKS26X1CXFT3Q","model","mismatch","uniform","","","","","","","","281083.89999997616","283098.5","","","","","","","","","","","","4","","stimuli/stars_4.png","118.5","","","","","stimuli/WF04_SC.jpg","",""
"explore-choice","105","276200","0.0-105.0","p208993","A3CMO4D4U0C7JI","3WRBLBQ2GSENM5LEFQY1C5PG0GV0GC","39U1BHVTDNXQVM4B8FKS26X1CXFT3Q","model","mismatch","uniform","","","","","","","450.30000001192093","283101.2999999821","283551.59999999404","[""stimuli/WF04_SC.jpg"",""stimuli/AM05_AO.jpg"",""stimuli/AM09_HO.jpg"",""stimuli/AF02_SUR.jpg""]","stimuli/WF04_SC.jpg","stimuli/AM05_AO.jpg","stimuli/AM09_HO.jpg","stimuli/AF02_SUR.jpg","pos1","stimuli/WF04_SC.jpg","SC","WF04","0","1.5","3","4","stimuli/stars_3.png","120","[""SC"",""AO"",""HO"",""SUR""]","[""WF04"",""AM05"",""AM09"",""AF02""]","[3,6,10,2]","[4,6,8,2]","","",""
"show-reward","106","278207","0.0-106.0","p208993","A3CMO4D4U0C7JI","3WRBLBQ2GSENM5LEFQY1C5PG0GV0GC","39U1BHVTDNXQVM4B8FKS26X1CXFT3Q","model","mismatch","uniform","","","","","","","","284054.59999999404","286059.39999997616","","","","","","","","","","","","3","","stimuli/stars_3.png","120","","","","","stimuli/WF04_SC.jpg","",""
"explore-choice","107","279289","0.0-107.0","p208993","A3CMO4D4U0C7JI","3WRBLBQ2GSENM5LEFQY1C5PG0GV0GC","39U1BHVTDNXQVM4B8FKS26X1CXFT3Q","model","mismatch","uniform","","","","","","","575.5","286061.7999999821","286637.2999999821","[""stimuli/AM05_HO.jpg"",""stimuli/AM09_SUR.jpg"",""stimuli/WF04_SC.jpg"",""stimuli/AF02_AO.jpg""]","stimuli/AM05_HO.jpg","stimuli/AM09_SUR.jpg","stimuli/WF04_SC.jpg","stimuli/AF02_AO.jpg","pos4","stimuli/AF02_AO.jpg","AO","AF02","3","3","6","6","stimuli/stars_6.png","123","[""HO"",""SUR"",""SC"",""AO""]","[""AM05"",""AM09"",""WF04"",""AF02""]","[8,1,6,6]","[8,2,4,6]","","",""
"show-reward","108","281310","0.0-108.0","p208993","A3CMO4D4U0C7JI","3WRBLBQ2GSENM5LEFQY1C5PG0GV0GC","39U1BHVTDNXQVM4B8FKS26X1CXFT3Q","model","mismatch","uniform","","","","","","","","287159.59999999404","289161.7999999821","","","","","","","","","","","","6","","stimuli/stars_6.png","123","","","","","stimuli/AF02_AO.jpg","",""
"explore-choice","109","282187","0.0-109.0","p208993","A3CMO4D4U0C7JI","3WRBLBQ2GSENM5LEFQY1C5PG0GV0GC","39U1BHVTDNXQVM4B8FKS26X1CXFT3Q","model","mismatch","uniform","","","","","","","373.5","289165.7999999821","289539.2999999821","[""stimuli/AM05_HO.jpg"",""stimuli/AM09_AO.jpg"",""stimuli/AF02_SC.jpg"",""stimuli/WF04_SUR.jpg""]","stimuli/AM05_HO.jpg","stimuli/AM09_AO.jpg","stimuli/AF02_SC.jpg","stimuli/WF04_SUR.jpg","pos2","stimuli/AM09_AO.jpg","AO","AM09","1","2.5","5","6","stimuli/stars_5.png","125.5","[""HO"",""AO"",""SC"",""SUR""]","[""AM05"",""AM09"",""AF02"",""WF04""]","[6,5,5,3]","[8,6,4,2]","","",""
"show-reward","110","284192","0.0-110.0","p208993","A3CMO4D4U0C7JI","3WRBLBQ2GSENM5LEFQY1C5PG0GV0GC","39U1BHVTDNXQVM4B8FKS26X1CXFT3Q","model","mismatch","uniform","","","","","","","","290041.1999999881","292045.2999999821","","","","","","","","","","","","5","","stimuli/stars_5.png","125.5","","","","","stimuli/AM09_AO.jpg","",""
"explore-choice","111","285476","0.0-111.0","p208993","A3CMO4D4U0C7JI","3WRBLBQ2GSENM5LEFQY1C5PG0GV0GC","39U1BHVTDNXQVM4B8FKS26X1CXFT3Q","model","mismatch","uniform","","","","","","","781.1999999880791","292047.09999999404","292828.2999999821","[""stimuli/AF02_HO.jpg"",""stimuli/AM05_SUR.jpg"",""stimuli/WF04_SC.jpg"",""stimuli/AM09_AO.jpg""]","stimuli/AF02_HO.jpg","stimuli/AM05_SUR.jpg","stimuli/WF04_SC.jpg","stimuli/AM09_AO.jpg","pos4","stimuli/AM09_AO.jpg","AO","AM09","3","2","4","6","stimuli/stars_4.png","127.5","[""HO"",""SUR"",""SC"",""AO""]","[""AF02"",""AM05"",""WF04"",""AM09""]","[7,3,6,4]","[8,2,4,6]","","",""
"show-reward","112","287485","0.0-112.0","p208993","A3CMO4D4U0C7JI","3WRBLBQ2GSENM5LEFQY1C5PG0GV0GC","39U1BHVTDNXQVM4B8FKS26X1CXFT3Q","model","mismatch","uniform","","","","","","","","293331","295337.89999997616","","","","","","","","","","","","4","","stimuli/stars_4.png","127.5","","","","","stimuli/AM09_AO.jpg","",""
"explore-choice","113","288712","0.0-113.0","p208993","A3CMO4D4U0C7JI","3WRBLBQ2GSENM5LEFQY1C5PG0GV0GC","39U1BHVTDNXQVM4B8FKS26X1CXFT3Q","model","mismatch","uniform","","","","","","","724.8000000119209","295339.89999997616","296064.6999999881","[""stimuli/AF02_SUR.jpg"",""stimuli/AM09_HO.jpg"",""stimuli/AM05_SC.jpg"",""stimuli/WF04_AO.jpg""]","stimuli/AF02_SUR.jpg","stimuli/AM09_HO.jpg","stimuli/AM05_SC.jpg","stimuli/WF04_AO.jpg","pos3","stimuli/AM05_SC.jpg","SC","AM05","2","2.5","5","4","stimuli/stars_5.png","130","[""SUR"",""HO"",""SC"",""AO""]","[""AF02"",""AM09"",""AM05"",""WF04""]","[0,8,5,7]","[2,8,4,6]","","",""
"show-reward","114","290730","0.0-114.0","p208993","A3CMO4D4U0C7JI","3WRBLBQ2GSENM5LEFQY1C5PG0GV0GC","39U1BHVTDNXQVM4B8FKS26X1CXFT3Q","model","mismatch","uniform","","","","","","","","296567.09999999404","298582.6999999881","","","","","","","","","","","","5","","stimuli/stars_5.png","130","","","","","stimuli/AM05_SC.jpg","",""
"explore-choice","115","292357","0.0-115.0","p208993","A3CMO4D4U0C7JI","3WRBLBQ2GSENM5LEFQY1C5PG0GV0GC","39U1BHVTDNXQVM4B8FKS26X1CXFT3Q","model","mismatch","uniform","","","","","","","1123.2000000178814","298584.89999997616","299708.09999999404","[""stimuli/AM05_AO.jpg"",""stimuli/WF04_SUR.jpg"",""stimuli/AM09_SC.jpg"",""stimuli/AF02_HO.jpg""]","stimuli/AM05_AO.jpg","stimuli/WF04_SUR.jpg","stimuli/AM09_SC.jpg","stimuli/AF02_HO.jpg","pos1","stimuli/AM05_AO.jpg","AO","AM05","0","3.5","7","6","stimuli/stars_7.png","133.5","[""AO"",""SUR"",""SC"",""HO""]","[""AM05"",""WF04"",""AM09"",""AF02""]","[7,0,6,7]","[6,2,4,8]","","",""
"show-reward","116","294365","0.0-116.0","p208993","A3CMO4D4U0C7JI","3WRBLBQ2GSENM5LEFQY1C5PG0GV0GC","39U1BHVTDNXQVM4B8FKS26X1CXFT3Q","model","mismatch","uniform","","","","","","","","300211","302218.1999999881","","","","","","","","","","","","7","","stimuli/stars_7.png","133.5","","","","","stimuli/AM05_AO.jpg","",""
"explore-choice","117","295274","0.0-117.0","p208993","A3CMO4D4U0C7JI","3WRBLBQ2GSENM5LEFQY1C5PG0GV0GC","39U1BHVTDNXQVM4B8FKS26X1CXFT3Q","model","mismatch","uniform","","","","","","","403.90000000596046","302220.1999999881","302624.09999999404","[""stimuli/AM09_AO.jpg"",""stimuli/AM05_SC.jpg"",""stimuli/AF02_SUR.jpg"",""stimuli/WF04_HO.jpg""]","stimuli/AM09_AO.jpg","stimuli/AM05_SC.jpg","stimuli/AF02_SUR.jpg","stimuli/WF04_HO.jpg","pos4","stimuli/WF04_HO.jpg","HO","WF04","3","4.5","9","8","stimuli/stars_9.png","138","[""AO"",""SC"",""SUR"",""HO""]","[""AM09"",""AM05"",""AF02"",""WF04""]","[6,3,1,9]","[6,4,2,8]","","",""
"show-reward","118","297280","0.0-118.0","p208993","A3CMO4D4U0C7JI","3WRBLBQ2GSENM5LEFQY1C5PG0GV0GC","39U1BHVTDNXQVM4B8FKS26X1CXFT3Q","model","mismatch","uniform","","","","","","","","303128.6999999881","305132.89999997616","","","","","","","","","","","","9","","stimuli/stars_9.png","138","","","","","stimuli/WF04_HO.jpg","",""
"explore-choice","119","298715","0.0-119.0","p208993","A3CMO4D4U0C7JI","3WRBLBQ2GSENM5LEFQY1C5PG0GV0GC","39U1BHVTDNXQVM4B8FKS26X1CXFT3Q","model","mismatch","uniform","","","","","","","931.0999999940395","305135.09999999404","306066.1999999881","[""stimuli/WF04_HO.jpg"",""stimuli/AM05_AO.jpg"",""stimuli/AM09_SC.jpg"",""stimuli/AF02_SUR.jpg""]","stimuli/WF04_HO.jpg","stimuli/AM05_AO.jpg","stimuli/AM09_SC.jpg","stimuli/AF02_SUR.jpg","pos3","stimuli/AM09_SC.jpg","SC","AM09","2","3","6","4","stimuli/stars_6.png","141","[""HO"",""AO"",""SC"",""SUR""]","[""WF04"",""AM05"",""AM09"",""AF02""]","[6,7,6,0]","[8,6,4,2]","","",""
"show-reward","120","300734","0.0-120.0","p208993","A3CMO4D4U0C7JI","3WRBLBQ2GSENM5LEFQY1C5PG0GV0GC","39U1BHVTDNXQVM4B8FKS26X1CXFT3Q","model","mismatch","uniform","","","","","","","","306569.5","308586.59999999404","","","","","","","","","","","","6","","stimuli/stars_6.png","141","","","","","stimuli/AM09_SC.jpg","",""
"explore-choice","121","302295","0.0-121.0","p208993","A3CMO4D4U0C7JI","3WRBLBQ2GSENM5LEFQY1C5PG0GV0GC","39U1BHVTDNXQVM4B8FKS26X1CXFT3Q","model","mismatch","uniform","","","","","","","1058.5","308589","309647.5","[""stimuli/AF02_AO.jpg"",""stimuli/AM09_HO.jpg"",""stimuli/WF04_SUR.jpg"",""stimuli/AM05_SC.jpg""]","stimuli/AF02_AO.jpg","stimuli/AM09_HO.jpg","stimuli/WF04_SUR.jpg","stimuli/AM05_SC.jpg","pos4","stimuli/AM05_SC.jpg","SC","AM05","3","1.5","3","4","stimuli/stars_3.png","142.5","[""AO"",""HO"",""SUR"",""SC""]","[""AF02"",""AM09"",""WF04"",""AM05""]","[7,7,1,3]","[6,8,2,4]","","",""
"show-reward","122","304300","0.0-122.0","p208993","A3CMO4D4U0C7JI","3WRBLBQ2GSENM5LEFQY1C5PG0GV0GC","39U1BHVTDNXQVM4B8FKS26X1CXFT3Q","model","mismatch","uniform","","","","","","","","310149.5","312153","","","","","","","","","","","","3","","stimuli/stars_3.png","142.5","","","","","stimuli/AM05_SC.jpg","",""
"explore-choice","123","306089","0.0-123.0","p208993","A3CMO4D4U0C7JI","3WRBLBQ2GSENM5LEFQY1C5PG0GV0GC","39U1BHVTDNXQVM4B8FKS26X1CXFT3Q","model","mismatch","uniform","","","","","","","1285.2999999821186","312155.09999999404","313440.39999997616","[""stimuli/AF02_SUR.jpg"",""stimuli/AM09_SC.jpg"",""stimuli/AM05_HO.jpg"",""stimuli/WF04_AO.jpg""]","stimuli/AF02_SUR.jpg","stimuli/AM09_SC.jpg","stimuli/AM05_HO.jpg","stimuli/WF04_AO.jpg","pos2","stimuli/AM09_SC.jpg","SC","AM09","1","2","4","4","stimuli/stars_4.png","144.5","[""SUR"",""SC"",""HO"",""AO""]","[""AF02"",""AM09"",""AM05"",""WF04""]","[3,4,8,6]","[2,4,8,6]","","",""
"show-reward","124","308095","0.0-124.0","p208993","A3CMO4D4U0C7JI","3WRBLBQ2GSENM5LEFQY1C5PG0GV0GC","39U1BHVTDNXQVM4B8FKS26X1CXFT3Q","model","mismatch","uniform","","","","","","","","313943.7999999821","315947.89999997616","","","","","","","","","","","","4","","stimuli/stars_4.png","144.5","","","","","stimuli/AM09_SC.jpg","",""
"explore-choice","125","309490","0.0-125.0","p208993","A3CMO4D4U0C7JI","3WRBLBQ2GSENM5LEFQY1C5PG0GV0GC","39U1BHVTDNXQVM4B8FKS26X1CXFT3Q","model","mismatch","uniform","","","","","","","884.0999999940395","315950.5","316834.59999999404","[""stimuli/AM09_SUR.jpg"",""stimuli/AM05_AO.jpg"",""stimuli/AF02_SC.jpg"",""stimuli/WF04_HO.jpg""]","stimuli/AM09_SUR.jpg","stimuli/AM05_AO.jpg","stimuli/AF02_SC.jpg","stimuli/WF04_HO.jpg","pos4","stimuli/WF04_HO.jpg","HO","WF04","3","4.5","9","8","stimuli/stars_9.png","149","[""SUR"",""AO"",""SC"",""HO""]","[""AM09"",""AM05"",""AF02"",""WF04""]","[3,7,3,9]","[2,6,4,8]","","",""
"show-reward","126","311505","0.0-126.0","p208993","A3CMO4D4U0C7JI","3WRBLBQ2GSENM5LEFQY1C5PG0GV0GC","39U1BHVTDNXQVM4B8FKS26X1CXFT3Q","model","mismatch","uniform","","","","","","","","317344.5","319348.6999999881","","","","","","","","","","","","9","","stimuli/stars_9.png","149","","","","","stimuli/WF04_HO.jpg","",""
"explore-choice","127","313326","0.0-127.0","p208993","A3CMO4D4U0C7JI","3WRBLBQ2GSENM5LEFQY1C5PG0GV0GC","39U1BHVTDNXQVM4B8FKS26X1CXFT3Q","model","mismatch","uniform","","","","","","","1317.5999999940395","319360.1999999881","320677.7999999821","[""stimuli/AF02_HO.jpg"",""stimuli/AM05_SUR.jpg"",""stimuli/AM09_SC.jpg"",""stimuli/WF04_AO.jpg""]","stimuli/AF02_HO.jpg","stimuli/AM05_SUR.jpg","stimuli/AM09_SC.jpg","stimuli/WF04_AO.jpg","pos3","stimuli/AM09_SC.jpg","SC","AM09","2","2","4","4","stimuli/stars_4.png","151","[""HO"",""SUR"",""SC"",""AO""]","[""AF02"",""AM05"",""AM09"",""WF04""]","[10,1,4,6]","[8,2,4,6]","","",""
"show-reward","128","315347","0.0-128.0","p208993","A3CMO4D4U0C7JI","3WRBLBQ2GSENM5LEFQY1C5PG0GV0GC","39U1BHVTDNXQVM4B8FKS26X1CXFT3Q","model","mismatch","uniform","","","","","","","","321180.39999997616","323199.2999999821","","","","","","","","","","","","4","","stimuli/stars_4.png","151","","","","","stimuli/AM09_SC.jpg","",""
"explore-choice","129","322687","0.0-129.0","p208993","A3CMO4D4U0C7JI","3WRBLBQ2GSENM5LEFQY1C5PG0GV0GC","39U1BHVTDNXQVM4B8FKS26X1CXFT3Q","model","mismatch","uniform","","","","","","","6837.0999999940395","323201.1999999881","330038.2999999821","[""stimuli/AM09_SC.jpg"",""stimuli/WF04_HO.jpg"",""stimuli/AF02_AO.jpg"",""stimuli/AM05_SUR.jpg""]","stimuli/AM09_SC.jpg","stimuli/WF04_HO.jpg","stimuli/AF02_AO.jpg","stimuli/AM05_SUR.jpg","pos3","stimuli/AF02_AO.jpg","AO","AF02","2","2","4","6","stimuli/stars_4.png","153","[""SC"",""HO"",""AO"",""SUR""]","[""AM09"",""WF04"",""AF02"",""AM05""]","[6,7,4,2]","[4,8,6,2]","","",""
"show-reward","130","324691","0.0-130.0","p208993","A3CMO4D4U0C7JI","3WRBLBQ2GSENM5LEFQY1C5PG0GV0GC","39U1BHVTDNXQVM4B8FKS26X1CXFT3Q","model","mismatch","uniform","","","","","","","","330541.7999999821","332543.89999997616","","","","","","","","","","","","4","","stimuli/stars_4.png","153","","","","","stimuli/AF02_AO.jpg","",""
"explore-choice","131","326377","0.0-131.0","p208993","A3CMO4D4U0C7JI","3WRBLBQ2GSENM5LEFQY1C5PG0GV0GC","39U1BHVTDNXQVM4B8FKS26X1CXFT3Q","model","mismatch","uniform","","","","","","","1171.5999999940395","332546.09999999404","333717.6999999881","[""stimuli/AF02_HO.jpg"",""stimuli/AM05_SC.jpg"",""stimuli/AM09_SUR.jpg"",""stimuli/WF04_AO.jpg""]","stimuli/AF02_HO.jpg","stimuli/AM05_SC.jpg","stimuli/AM09_SUR.jpg","stimuli/WF04_AO.jpg","pos2","stimuli/AM05_SC.jpg","SC","AM05","1","3","6","4","stimuli/stars_6.png","156","[""HO"",""SC"",""SUR"",""AO""]","[""AF02"",""AM05"",""AM09"",""WF04""]","[10,6,1,5]","[8,4,2,6]","","",""
"show-reward","132","328398","0.0-132.0","p208993","A3CMO4D4U0C7JI","3WRBLBQ2GSENM5LEFQY1C5PG0GV0GC","39U1BHVTDNXQVM4B8FKS26X1CXFT3Q","model","mismatch","uniform","","","","","","","","334232.59999999404","336250.09999999404","","","","","","","","","","","","6","","stimuli/stars_6.png","156","","","","","stimuli/AM05_SC.jpg","",""
"explore-choice","133","329820","0.0-133.0","p208993","A3CMO4D4U0C7JI","3WRBLBQ2GSENM5LEFQY1C5PG0GV0GC","39U1BHVTDNXQVM4B8FKS26X1CXFT3Q","model","mismatch","uniform","","","","","","","919.2000000178814","336252.7999999821","337172","[""stimuli/WF04_HO.jpg"",""stimuli/AM05_SUR.jpg"",""stimuli/AF02_SC.jpg"",""stimuli/AM09_AO.jpg""]","stimuli/WF04_HO.jpg","stimuli/AM05_SUR.jpg","stimuli/AF02_SC.jpg","stimuli/AM09_AO.jpg","pos3","stimuli/AF02_SC.jpg","SC","AF02","2","3","6","4","stimuli/stars_6.png","159","[""HO"",""SUR"",""SC"",""AO""]","[""WF04"",""AM05"",""AF02"",""AM09""]","[8,1,6,8]","[8,2,4,6]","","",""
"show-reward","134","331826","0.0-134.0","p208993","A3CMO4D4U0C7JI","3WRBLBQ2GSENM5LEFQY1C5PG0GV0GC","39U1BHVTDNXQVM4B8FKS26X1CXFT3Q","model","mismatch","uniform","","","","","","","","337674.39999997616","339678.39999997616","","","","","","","","","","","","6","","stimuli/stars_6.png","159","","","","","stimuli/AF02_SC.jpg","",""
"explore-choice","135","333555","0.0-135.0","p208993","A3CMO4D4U0C7JI","3WRBLBQ2GSENM5LEFQY1C5PG0GV0GC","39U1BHVTDNXQVM4B8FKS26X1CXFT3Q","model","mismatch","uniform","","","","","","","1227.5","339680.09999999404","340907.59999999404","[""stimuli/WF04_SC.jpg"",""stimuli/AF02_SUR.jpg"",""stimuli/AM05_HO.jpg"",""stimuli/AM09_AO.jpg""]","stimuli/WF04_SC.jpg","stimuli/AF02_SUR.jpg","stimuli/AM05_HO.jpg","stimuli/AM09_AO.jpg","pos3","stimuli/AM05_HO.jpg","HO","AM05","2","4.5","9","8","stimuli/stars_9.png","163.5","[""SC"",""SUR"",""HO"",""AO""]","[""WF04"",""AF02"",""AM05"",""AM09""]","[5,1,9,8]","[4,2,8,6]","","",""
"show-reward","136","335562","0.0-136.0","p208993","A3CMO4D4U0C7JI","3WRBLBQ2GSENM5LEFQY1C5PG0GV0GC","39U1BHVTDNXQVM4B8FKS26X1CXFT3Q","model","mismatch","uniform","","","","","","","","341410.89999997616","343414.59999999404","","","","","","","","","","","","9","","stimuli/stars_9.png","163.5","","","","","stimuli/AM05_HO.jpg","",""
"explore-choice","137","337342","0.0-137.0","p208993","A3CMO4D4U0C7JI","3WRBLBQ2GSENM5LEFQY1C5PG0GV0GC","39U1BHVTDNXQVM4B8FKS26X1CXFT3Q","model","mismatch","uniform","","","","","","","1273.7000000178814","343416.2999999821","344690","[""stimuli/AM09_HO.jpg"",""stimuli/AF02_SC.jpg"",""stimuli/AM05_SUR.jpg"",""stimuli/WF04_AO.jpg""]","stimuli/AM09_HO.jpg","stimuli/AF02_SC.jpg","stimuli/AM05_SUR.jpg","stimuli/WF04_AO.jpg","pos2","stimuli/AF02_SC.jpg","SC","AF02","1","2","4","4","stimuli/stars_4.png","165.5","[""HO"",""SC"",""SUR"",""AO""]","[""AM09"",""AF02"",""AM05"",""WF04""]","[9,4,4,5]","[8,4,2,6]","","",""
"show-reward","138","339373","0.0-138.0","p208993","A3CMO4D4U0C7JI","3WRBLBQ2GSENM5LEFQY1C5PG0GV0GC","39U1BHVTDNXQVM4B8FKS26X1CXFT3Q","model","mismatch","uniform","","","","","","","","345196","347226","","","","","","","","","","","","4","","stimuli/stars_4.png","165.5","","","","","stimuli/AF02_SC.jpg","",""
"explore-choice","139","341469","0.0-139.0","p208993","A3CMO4D4U0C7JI","3WRBLBQ2GSENM5LEFQY1C5PG0GV0GC","39U1BHVTDNXQVM4B8FKS26X1CXFT3Q","model","mismatch","uniform","","","","","","","1587.5999999940395","347232.59999999404","348820.1999999881","[""stimuli/WF04_SUR.jpg"",""stimuli/AF02_HO.jpg"",""stimuli/AM05_SC.jpg"",""stimuli/AM09_AO.jpg""]","stimuli/WF04_SUR.jpg","stimuli/AF02_HO.jpg","stimuli/AM05_SC.jpg","stimuli/AM09_AO.jpg","pos3","stimuli/AM05_SC.jpg","SC","AM05","2","2","4","4","stimuli/stars_4.png","167.5","[""SUR"",""HO"",""SC"",""AO""]","[""WF04"",""AF02"",""AM05"",""AM09""]","[2,10,4,8]","[2,8,4,6]","","",""
"show-reward","140","343476","0.0-140.0","p208993","A3CMO4D4U0C7JI","3WRBLBQ2GSENM5LEFQY1C5PG0GV0GC","39U1BHVTDNXQVM4B8FKS26X1CXFT3Q","model","mismatch","uniform","","","","","","","","349325.09999999404","351329.5","","","","","","","","","","","","4","","stimuli/stars_4.png","167.5","","","","","stimuli/AM05_SC.jpg","",""
"explore-choice","141","345429","0.0-141.0","p208993","A3CMO4D4U0C7JI","3WRBLBQ2GSENM5LEFQY1C5PG0GV0GC","39U1BHVTDNXQVM4B8FKS26X1CXFT3Q","model","mismatch","uniform","","","","","","","1449.199999988079","351330.6999999881","352779.89999997616","[""stimuli/AF02_AO.jpg"",""stimuli/AM09_SUR.jpg"",""stimuli/WF04_HO.jpg"",""stimuli/AM05_SC.jpg""]","stimuli/AF02_AO.jpg","stimuli/AM09_SUR.jpg","stimuli/WF04_HO.jpg","stimuli/AM05_SC.jpg","pos1","stimuli/AF02_AO.jpg","AO","AF02","0","2.5","5","6","stimuli/stars_5.png","170","[""AO"",""SUR"",""HO"",""SC""]","[""AF02"",""AM09"",""WF04"",""AM05""]","[5,1,8,6]","[6,2,8,4]","","",""
"show-reward","142","347433","0.0-142.0","p208993","A3CMO4D4U0C7JI","3WRBLBQ2GSENM5LEFQY1C5PG0GV0GC","39U1BHVTDNXQVM4B8FKS26X1CXFT3Q","model","mismatch","uniform","","","","","","","","353283.1999999881","355285.6999999881","","","","","","","","","","","","5","","stimuli/stars_5.png","170","","","","","stimuli/AF02_AO.jpg","",""
"explore-choice","143","349264","0.0-143.0","p208993","A3CMO4D4U0C7JI","3WRBLBQ2GSENM5LEFQY1C5PG0GV0GC","39U1BHVTDNXQVM4B8FKS26X1CXFT3Q","model","mismatch","uniform","","","","","","","1328.699999988079","355287.1999999881","356615.89999997616","[""stimuli/AM09_SUR.jpg"",""stimuli/WF04_AO.jpg"",""stimuli/AF02_SC.jpg"",""stimuli/AM05_HO.jpg""]","stimuli/AM09_SUR.jpg","stimuli/WF04_AO.jpg","stimuli/AF02_SC.jpg","stimuli/AM05_HO.jpg","pos3","stimuli/AF02_SC.jpg","SC","AF02","2","1","2","4","stimuli/stars_2.png","171","[""SUR"",""AO"",""SC"",""HO""]","[""AM09"",""WF04"",""AF02"",""AM05""]","[2,6,2,10]","[2,6,4,8]","","",""
"show-reward","144","351269","0.0-144.0","p208993","A3CMO4D4U0C7JI","3WRBLBQ2GSENM5LEFQY1C5PG0GV0GC","39U1BHVTDNXQVM4B8FKS26X1CXFT3Q","model","mismatch","uniform","","","","","","","","357118.5","359122.1999999881","","","","","","","","","","","","2","","stimuli/stars_2.png","171","","","","","stimuli/AF02_SC.jpg","",""
"explore-choice","145","353548","0.0-145.0","p208993","A3CMO4D4U0C7JI","3WRBLBQ2GSENM5LEFQY1C5PG0GV0GC","39U1BHVTDNXQVM4B8FKS26X1CXFT3Q","model","mismatch","uniform","","","","","","","1775.4000000059605","359123.39999997616","360898.7999999821","[""stimuli/AM05_SUR.jpg"",""stimuli/WF04_SC.jpg"",""stimuli/AM09_HO.jpg"",""stimuli/AF02_AO.jpg""]","stimuli/AM05_SUR.jpg","stimuli/WF04_SC.jpg","stimuli/AM09_HO.jpg","stimuli/AF02_AO.jpg","pos2","stimuli/WF04_SC.jpg","SC","WF04","1","2","4","4","stimuli/stars_4.png","173","[""SUR"",""SC"",""HO"",""AO""]","[""AM05"",""WF04"",""AM09"",""AF02""]","[0,4,6,5]","[2,4,8,6]","","",""
"show-reward","146","355551","0.0-146.0","p208993","A3CMO4D4U0C7JI","3WRBLBQ2GSENM5LEFQY1C5PG0GV0GC","39U1BHVTDNXQVM4B8FKS26X1CXFT3Q","model","mismatch","uniform","","","","","","","","361401.89999997616","363404.39999997616","","","","","","","","","","","","4","","stimuli/stars_4.png","173","","","","","stimuli/WF04_SC.jpg","",""
"explore-choice","147","357343","0.0-147.0","p208993","A3CMO4D4U0C7JI","3WRBLBQ2GSENM5LEFQY1C5PG0GV0GC","39U1BHVTDNXQVM4B8FKS26X1CXFT3Q","model","mismatch","uniform","","","","","","","1289.2999999821186","363405.5","364694.7999999821","[""stimuli/AM05_HO.jpg"",""stimuli/WF04_SUR.jpg"",""stimuli/AM09_SC.jpg"",""stimuli/AF02_AO.jpg""]","stimuli/AM05_HO.jpg","stimuli/WF04_SUR.jpg","stimuli/AM09_SC.jpg","stimuli/AF02_AO.jpg","pos4","stimuli/AF02_AO.jpg","AO","AF02","3","3","6","6","stimuli/stars_6.png","176","[""HO"",""SUR"",""SC"",""AO""]","[""AM05"",""WF04"",""AM09"",""AF02""]","[6,2,5,6]","[8,2,4,6]","","",""
"show-reward","148","359357","0.0-148.0","p208993","A3CMO4D4U0C7JI","3WRBLBQ2GSENM5LEFQY1C5PG0GV0GC","39U1BHVTDNXQVM4B8FKS26X1CXFT3Q","model","mismatch","uniform","","","","","","","","365198","367209.89999997616","","","","","","","","","","","","6","","stimuli/stars_6.png","176","","","","","stimuli/AF02_AO.jpg","",""
"explore-choice","149","361202","0.0-149.0","p208993","A3CMO4D4U0C7JI","3WRBLBQ2GSENM5LEFQY1C5PG0GV0GC","39U1BHVTDNXQVM4B8FKS26X1CXFT3Q","model","mismatch","uniform","","","","","","","1336.9000000059605","367211.09999999404","368548","[""stimuli/AM09_HO.jpg"",""stimuli/AF02_SC.jpg"",""stimuli/AM05_AO.jpg"",""stimuli/WF04_SUR.jpg""]","stimuli/AM09_HO.jpg","stimuli/AF02_SC.jpg","stimuli/AM05_AO.jpg","stimuli/WF04_SUR.jpg","pos3","stimuli/AM05_AO.jpg","AO","AM05","2","3","6","6","stimuli/stars_6.png","179","[""HO"",""SC"",""AO"",""SUR""]","[""AM09"",""AF02"",""AM05"",""WF04""]","[6,2,6,3]","[8,4,6,2]","","",""
"show-reward","150","363225","0.0-150.0","p208993","A3CMO4D4U0C7JI","3WRBLBQ2GSENM5LEFQY1C5PG0GV0GC","39U1BHVTDNXQVM4B8FKS26X1CXFT3Q","model","mismatch","uniform","","","","","","","","369056.6999999881","371077.5","","","","","","","","","","","","6","","stimuli/stars_6.png","179","","","","","stimuli/AM05_AO.jpg","",""
"explore-choice","151","365076","0.0-151.0","p208993","A3CMO4D4U0C7JI","3WRBLBQ2GSENM5LEFQY1C5PG0GV0GC","39U1BHVTDNXQVM4B8FKS26X1CXFT3Q","model","mismatch","uniform","","","","","","","1346.6000000238419","371080.39999997616","372427","[""stimuli/AM09_HO.jpg"",""stimuli/AM05_SC.jpg"",""stimuli/WF04_SUR.jpg"",""stimuli/AF02_AO.jpg""]","stimuli/AM09_HO.jpg","stimuli/AM05_SC.jpg","stimuli/WF04_SUR.jpg","stimuli/AF02_AO.jpg","pos4","stimuli/AF02_AO.jpg","AO","AF02","3","3.5","7","6","stimuli/stars_7.png","182.5","[""HO"",""SC"",""SUR"",""AO""]","[""AM09"",""AM05"",""WF04"",""AF02""]","[7,3,1,7]","[8,4,2,6]","","",""
"show-reward","152","367081","0.0-152.0","p208993","A3CMO4D4U0C7JI","3WRBLBQ2GSENM5LEFQY1C5PG0GV0GC","39U1BHVTDNXQVM4B8FKS26X1CXFT3Q","model","mismatch","uniform","","","","","","","","372930.39999997616","374933.5","","","","","","","","","","","","7","","stimuli/stars_7.png","182.5","","","","","stimuli/AF02_AO.jpg","",""
"explore-choice","153","369003","0.0-153.0","p208993","A3CMO4D4U0C7JI","3WRBLBQ2GSENM5LEFQY1C5PG0GV0GC","39U1BHVTDNXQVM4B8FKS26X1CXFT3Q","model","mismatch","uniform","","","","","","","1409.5","374935.39999997616","376344.89999997616","[""stimuli/AM05_SC.jpg"",""stimuli/AF02_SUR.jpg"",""stimuli/AM09_HO.jpg"",""stimuli/WF04_AO.jpg""]","stimuli/AM05_SC.jpg","stimuli/AF02_SUR.jpg","stimuli/AM09_HO.jpg","stimuli/WF04_AO.jpg","pos2","stimuli/AF02_SUR.jpg","SUR","AF02","1","0","0","2","stimuli/stars_0.png","182.5","[""SC"",""SUR"",""HO"",""AO""]","[""AM05"",""AF02"",""AM09"",""WF04""]","[5,0,8,7]","[4,2,8,6]","","",""
"show-reward","154","371026","0.0-154.0","p208993","A3CMO4D4U0C7JI","3WRBLBQ2GSENM5LEFQY1C5PG0GV0GC","39U1BHVTDNXQVM4B8FKS26X1CXFT3Q","model","mismatch","uniform","","","","","","","","376861.1999999881","378878.59999999404","","","","","","","","","","","","0","","stimuli/stars_0.png","182.5","","","","","stimuli/AF02_SUR.jpg","",""
"explore-choice","155","371823","0.0-155.0","p208993","A3CMO4D4U0C7JI","3WRBLBQ2GSENM5LEFQY1C5PG0GV0GC","39U1BHVTDNXQVM4B8FKS26X1CXFT3Q","model","mismatch","uniform","","","","","","","267.40000000596046","378901.39999997616","379168.7999999821","[""stimuli/AM05_HO.jpg"",""stimuli/AM09_SC.jpg"",""stimuli/AF02_AO.jpg"",""stimuli/WF04_SUR.jpg""]","stimuli/AM05_HO.jpg","stimuli/AM09_SC.jpg","stimuli/AF02_AO.jpg","stimuli/WF04_SUR.jpg","pos3","stimuli/AF02_AO.jpg","AO","AF02","2","3","6","6","stimuli/stars_6.png","185.5","[""HO"",""SC"",""AO"",""SUR""]","[""AM05"",""AM09"",""AF02"",""WF04""]","[6,5,6,2]","[8,4,6,2]","","",""
"show-reward","156","373832","0.0-156.0","p208993","A3CMO4D4U0C7JI","3WRBLBQ2GSENM5LEFQY1C5PG0GV0GC","39U1BHVTDNXQVM4B8FKS26X1CXFT3Q","model","mismatch","uniform","","","","","","","","379677.09999999404","381684.6999999881","","","","","","","","","","","","6","","stimuli/stars_6.png","185.5","","","","","stimuli/AF02_AO.jpg","",""
"explore-choice","157","375514","0.0-157.0","p208993","A3CMO4D4U0C7JI","3WRBLBQ2GSENM5LEFQY1C5PG0GV0GC","39U1BHVTDNXQVM4B8FKS26X1CXFT3Q","model","mismatch","uniform","","","","","","","1133.3999999761581","381686","382819.39999997616","[""stimuli/AF02_AO.jpg"",""stimuli/AM05_SUR.jpg"",""stimuli/AM09_HO.jpg"",""stimuli/WF04_SC.jpg""]","stimuli/AF02_AO.jpg","stimuli/AM05_SUR.jpg","stimuli/AM09_HO.jpg","stimuli/WF04_SC.jpg","pos4","stimuli/WF04_SC.jpg","SC","WF04","3","2","4","4","stimuli/stars_4.png","187.5","[""AO"",""SUR"",""HO"",""SC""]","[""AF02"",""AM05"",""AM09"",""WF04""]","[5,0,6,4]","[6,2,8,4]","","",""
"show-reward","158","377571","0.0-158.0","p208993","A3CMO4D4U0C7JI","3WRBLBQ2GSENM5LEFQY1C5PG0GV0GC","39U1BHVTDNXQVM4B8FKS26X1CXFT3Q","model","mismatch","uniform","","","","","","","","383371.39999997616","385419.59999999404","","","","","","","","","","","","4","","stimuli/stars_4.png","187.5","","","","","stimuli/WF04_SC.jpg","",""
"explore-choice","159","378440","0.0-159.0","p208993","A3CMO4D4U0C7JI","3WRBLBQ2GSENM5LEFQY1C5PG0GV0GC","39U1BHVTDNXQVM4B8FKS26X1CXFT3Q","model","mismatch","uniform","","","","","","","360.2999999821186","385425.09999999404","385785.39999997616","[""stimuli/WF04_AO.jpg"",""stimuli/AM09_SUR.jpg"",""stimuli/AF02_SC.jpg"",""stimuli/AM05_HO.jpg""]","stimuli/WF04_AO.jpg","stimuli/AM09_SUR.jpg","stimuli/AF02_SC.jpg","stimuli/AM05_HO.jpg","pos1","stimuli/WF04_AO.jpg","AO","WF04","0","3","6","6","stimuli/stars_6.png","190.5","[""AO"",""SUR"",""SC"",""HO""]","[""WF04"",""AM09"",""AF02"",""AM05""]","[6,2,2,10]","[6,2,4,8]","","",""
"show-reward","160","380472","0.0-160.0","p208993","A3CMO4D4U0C7JI","3WRBLBQ2GSENM5LEFQY1C5PG0GV0GC","39U1BHVTDNXQVM4B8FKS26X1CXFT3Q","model","mismatch","uniform","","","","","","","","386294.2999999821","388323","","","","","","","","","","","","6","","stimuli/stars_6.png","190.5","","","","","stimuli/WF04_AO.jpg","",""
"explore-choice","161","382629","0.0-161.0","p208993","A3CMO4D4U0C7JI","3WRBLBQ2GSENM5LEFQY1C5PG0GV0GC","39U1BHVTDNXQVM4B8FKS26X1CXFT3Q","model","mismatch","uniform","","","","","","","1654.300000011921","388326.6999999881","389981","[""stimuli/AF02_SUR.jpg"",""stimuli/AM09_HO.jpg"",""stimuli/WF04_SC.jpg"",""stimuli/AM05_AO.jpg""]","stimuli/AF02_SUR.jpg","stimuli/AM09_HO.jpg","stimuli/WF04_SC.jpg","stimuli/AM05_AO.jpg","pos1","stimuli/AF02_SUR.jpg","SUR","AF02","0","1","2","2","stimuli/stars_2.png","191.5","[""SUR"",""HO"",""SC"",""AO""]","[""AF02"",""AM09"",""WF04"",""AM05""]","[2,10,3,6]","[2,8,4,6]","","",""
"show-reward","162","384647","0.0-162.0","p208993","A3CMO4D4U0C7JI","3WRBLBQ2GSENM5LEFQY1C5PG0GV0GC","39U1BHVTDNXQVM4B8FKS26X1CXFT3Q","model","mismatch","uniform","","","","","","","","390488","392498.59999999404","","","","","","","","","","","","2","","stimuli/stars_2.png","191.5","","","","","stimuli/AF02_SUR.jpg","",""
"explore-choice","163","392891","0.0-163.0","p208993","A3CMO4D4U0C7JI","3WRBLBQ2GSENM5LEFQY1C5PG0GV0GC","39U1BHVTDNXQVM4B8FKS26X1CXFT3Q","model","mismatch","uniform","","","","","","","7740.699999988079","392501.6999999881","400242.39999997616","[""stimuli/AF02_HO.jpg"",""stimuli/AM05_SUR.jpg"",""stimuli/AM09_SC.jpg"",""stimuli/WF04_AO.jpg""]","stimuli/AF02_HO.jpg","stimuli/AM05_SUR.jpg","stimuli/AM09_SC.jpg","stimuli/WF04_AO.jpg","pos4","stimuli/WF04_AO.jpg","AO","WF04","3","3","6","6","stimuli/stars_6.png","194.5","[""HO"",""SUR"",""SC"",""AO""]","[""AF02"",""AM05"",""AM09"",""WF04""]","[10,1,4,6]","[8,2,4,6]","","",""
"show-reward","164","394895","0.0-164.0","p208993","A3CMO4D4U0C7JI","3WRBLBQ2GSENM5LEFQY1C5PG0GV0GC","39U1BHVTDNXQVM4B8FKS26X1CXFT3Q","model","mismatch","uniform","","","","","","","","400745.39999997616","402748","","","","","","","","","","","","6","","stimuli/stars_6.png","194.5","","","","","stimuli/WF04_AO.jpg","",""
"explore-choice","165","396514","0.0-165.0","p208993","A3CMO4D4U0C7JI","3WRBLBQ2GSENM5LEFQY1C5PG0GV0GC","39U1BHVTDNXQVM4B8FKS26X1CXFT3Q","model","mismatch","uniform","","","","","","","1114.9000000059605","402751.1999999881","403866.09999999404","[""stimuli/AF02_AO.jpg"",""stimuli/AM05_HO.jpg"",""stimuli/WF04_SC.jpg"",""stimuli/AM09_SUR.jpg""]","stimuli/AF02_AO.jpg","stimuli/AM05_HO.jpg","stimuli/WF04_SC.jpg","stimuli/AM09_SUR.jpg","pos3","stimuli/WF04_SC.jpg","SC","WF04","2","3","6","4","stimuli/stars_6.png","197.5","[""AO"",""HO"",""SC"",""SUR""]","[""AF02"",""AM05"",""WF04"",""AM09""]","[6,8,6,1]","[6,8,4,2]","","",""
"show-reward","166","398522","0.0-166.0","p208993","A3CMO4D4U0C7JI","3WRBLBQ2GSENM5LEFQY1C5PG0GV0GC","39U1BHVTDNXQVM4B8FKS26X1CXFT3Q","model","mismatch","uniform","","","","","","","","404368.6999999881","406374.5","","","","","","","","","","","","6","","stimuli/stars_6.png","197.5","","","","","stimuli/WF04_SC.jpg","",""
"explore-choice","167","400176","0.0-167.0","p208993","A3CMO4D4U0C7JI","3WRBLBQ2GSENM5LEFQY1C5PG0GV0GC","39U1BHVTDNXQVM4B8FKS26X1CXFT3Q","model","mismatch","uniform","","","","","","","1151.300000011921","406376.1999999881","407527.5","[""stimuli/AF02_HO.jpg"",""stimuli/AM09_AO.jpg"",""stimuli/AM05_SC.jpg"",""stimuli/WF04_SUR.jpg""]","stimuli/AF02_HO.jpg","stimuli/AM09_AO.jpg","stimuli/AM05_SC.jpg","stimuli/WF04_SUR.jpg","pos4","stimuli/WF04_SUR.jpg","SUR","WF04","3","1","2","2","stimuli/stars_2.png","198.5","[""HO"",""AO"",""SC"",""SUR""]","[""AF02"",""AM09"",""AM05"",""WF04""]","[10,8,4,2]","[8,6,4,2]","","",""
"show-reward","168","402186","0.0-168.0","p208993","A3CMO4D4U0C7JI","3WRBLBQ2GSENM5LEFQY1C5PG0GV0GC","39U1BHVTDNXQVM4B8FKS26X1CXFT3Q","model","mismatch","uniform","","","","","","","","408033.6999999881","410039","","","","","","","","","","","","2","","stimuli/stars_2.png","198.5","","","","","stimuli/WF04_SUR.jpg","",""
"explore-choice","169","403623","0.0-169.0","p208993","A3CMO4D4U0C7JI","3WRBLBQ2GSENM5LEFQY1C5PG0GV0GC","39U1BHVTDNXQVM4B8FKS26X1CXFT3Q","model","mismatch","uniform","","","","","","","934","410040.89999997616","410974.89999997616","[""stimuli/AM05_AO.jpg"",""stimuli/WF04_SC.jpg"",""stimuli/AF02_HO.jpg"",""stimuli/AM09_SUR.jpg""]","stimuli/AM05_AO.jpg","stimuli/WF04_SC.jpg","stimuli/AF02_HO.jpg","stimuli/AM09_SUR.jpg","pos4","stimuli/AM09_SUR.jpg","SUR","AM09","3","1","2","2","stimuli/stars_2.png","199.5","[""AO"",""SC"",""HO"",""SUR""]","[""AM05"",""WF04"",""AF02"",""AM09""]","[6,4,10,2]","[6,4,8,2]","","",""
"show-reward","170","405627","0.0-170.0","p208993","A3CMO4D4U0C7JI","3WRBLBQ2GSENM5LEFQY1C5PG0GV0GC","39U1BHVTDNXQVM4B8FKS26X1CXFT3Q","model","mismatch","uniform","","","","","","","","411476.89999997616","413479.39999997616","","","","","","","","","","","","2","","stimuli/stars_2.png","199.5","","","","","stimuli/AM09_SUR.jpg","",""
"explore-choice","171","407248","0.0-171.0","p208993","A3CMO4D4U0C7JI","3WRBLBQ2GSENM5LEFQY1C5PG0GV0GC","39U1BHVTDNXQVM4B8FKS26X1CXFT3Q","model","mismatch","uniform","","","","","","","1119.4000000059605","413481.2999999821","414600.6999999881","[""stimuli/AM09_AO.jpg"",""stimuli/AF02_SUR.jpg"",""stimuli/WF04_SC.jpg"",""stimuli/AM05_HO.jpg""]","stimuli/AM09_AO.jpg","stimuli/AF02_SUR.jpg","stimuli/WF04_SC.jpg","stimuli/AM05_HO.jpg","pos3","stimuli/WF04_SC.jpg","SC","WF04","2","2.5","5","4","stimuli/stars_5.png","202","[""AO"",""SUR"",""SC"",""HO""]","[""AM09"",""AF02"",""WF04"",""AM05""]","[8,1,5,9]","[6,2,4,8]","","",""
"show-reward","172","409355","0.0-172.0","p208993","A3CMO4D4U0C7JI","3WRBLBQ2GSENM5LEFQY1C5PG0GV0GC","39U1BHVTDNXQVM4B8FKS26X1CXFT3Q","model","mismatch","uniform","","","","","","","","415102.6999999881","417206.7999999821","","","","","","","","","","","","5","","stimuli/stars_5.png","202","","","","","stimuli/WF04_SC.jpg","",""
"explore-choice","173","411252","0.0-173.0","p208993","A3CMO4D4U0C7JI","3WRBLBQ2GSENM5LEFQY1C5PG0GV0GC","39U1BHVTDNXQVM4B8FKS26X1CXFT3Q","model","mismatch","uniform","","","","","","","1393.199999988079","417209.5","418602.6999999881","[""stimuli/AM05_AO.jpg"",""stimuli/AM09_HO.jpg"",""stimuli/AF02_SC.jpg"",""stimuli/WF04_SUR.jpg""]","stimuli/AM05_AO.jpg","stimuli/AM09_HO.jpg","stimuli/AF02_SC.jpg","stimuli/WF04_SUR.jpg","pos4","stimuli/WF04_SUR.jpg","SUR","WF04","3","1.5","3","2","stimuli/stars_3.png","203.5","[""AO"",""HO"",""SC"",""SUR""]","[""AM05"",""AM09"",""AF02"",""WF04""]","[6,6,2,3]","[6,8,4,2]","","",""
"show-reward","174","413275","0.0-174.0","p208993","A3CMO4D4U0C7JI","3WRBLBQ2GSENM5LEFQY1C5PG0GV0GC","39U1BHVTDNXQVM4B8FKS26X1CXFT3Q","model","mismatch","uniform","","","","","","","","419105.6999999881","421127.59999999404","","","","","","","","","","","","3","","stimuli/stars_3.png","203.5","","","","","stimuli/WF04_SUR.jpg","",""
"explore-choice","175","415484","0.0-175.0","p208993","A3CMO4D4U0C7JI","3WRBLBQ2GSENM5LEFQY1C5PG0GV0GC","39U1BHVTDNXQVM4B8FKS26X1CXFT3Q","model","mismatch","uniform","","","","","","","1698.4000000059605","421130.2999999821","422828.6999999881","[""stimuli/WF04_SUR.jpg"",""stimuli/AF02_SC.jpg"",""stimuli/AM09_AO.jpg"",""stimuli/AM05_HO.jpg""]","stimuli/WF04_SUR.jpg","stimuli/AF02_SC.jpg","stimuli/AM09_AO.jpg","stimuli/AM05_HO.jpg","pos3","stimuli/AM09_AO.jpg","AO","AM09","2","2.5","5","6","stimuli/stars_5.png","206","[""SUR"",""SC"",""AO"",""HO""]","[""WF04"",""AF02"",""AM09"",""AM05""]","[3,5,5,6]","[2,4,6,8]","","",""
"show-reward","176","417493","0.0-176.0","p208993","A3CMO4D4U0C7JI","3WRBLBQ2GSENM5LEFQY1C5PG0GV0GC","39U1BHVTDNXQVM4B8FKS26X1CXFT3Q","model","mismatch","uniform","","","","","","","","423338.09999999404","425345.2999999821","","","","","","","","","","","","5","","stimuli/stars_5.png","206","","","","","stimuli/AM09_AO.jpg","",""
"explore-choice","177","419155","0.0-177.0","p208993","A3CMO4D4U0C7JI","3WRBLBQ2GSENM5LEFQY1C5PG0GV0GC","39U1BHVTDNXQVM4B8FKS26X1CXFT3Q","model","mismatch","uniform","","","","","","","1155.4000000059605","425350.7999999821","426506.1999999881","[""stimuli/AF02_HO.jpg"",""stimuli/WF04_SC.jpg"",""stimuli/AM05_SUR.jpg"",""stimuli/AM09_AO.jpg""]","stimuli/AF02_HO.jpg","stimuli/WF04_SC.jpg","stimuli/AM05_SUR.jpg","stimuli/AM09_AO.jpg","pos2","stimuli/WF04_SC.jpg","SC","WF04","1","3","6","4","stimuli/stars_6.png","209","[""HO"",""SC"",""SUR"",""AO""]","[""AF02"",""WF04"",""AM05"",""AM09""]","[7,6,3,4]","[8,4,2,6]","","",""
"show-reward","178","421171","0.0-178.0","p208993","A3CMO4D4U0C7JI","3WRBLBQ2GSENM5LEFQY1C5PG0GV0GC","39U1BHVTDNXQVM4B8FKS26X1CXFT3Q","model","mismatch","uniform","","","","","","","","427009.39999997616","429021","","","","","","","","","","","","6","","stimuli/stars_6.png","209","","","","","stimuli/WF04_SC.jpg","",""
"explore-choice","179","422738","0.0-179.0","p208993","A3CMO4D4U0C7JI","3WRBLBQ2GSENM5LEFQY1C5PG0GV0GC","39U1BHVTDNXQVM4B8FKS26X1CXFT3Q","model","mismatch","uniform","","","","","","","1063.7999999821186","429026","430089.7999999821","[""stimuli/AF02_SC.jpg"",""stimuli/WF04_HO.jpg"",""stimuli/AM05_SUR.jpg"",""stimuli/AM09_AO.jpg""]","stimuli/AF02_SC.jpg","stimuli/WF04_HO.jpg","stimuli/AM05_SUR.jpg","stimuli/AM09_AO.jpg","pos3","stimuli/AM05_SUR.jpg","SUR","AM05","2","0.5","1","2","stimuli/stars_1.png","209.5","[""SC"",""HO"",""SUR"",""AO""]","[""AF02"",""WF04"",""AM05"",""AM09""]","[6,8,1,8]","[4,8,2,6]","","",""
"show-reward","180","424743","0.0-180.0","p208993","A3CMO4D4U0C7JI","3WRBLBQ2GSENM5LEFQY1C5PG0GV0GC","39U1BHVTDNXQVM4B8FKS26X1CXFT3Q","model","mismatch","uniform","","","","","","","","430592.89999997616","432595.39999997616","","","","","","","","","","","","1","","stimuli/stars_1.png","209.5","","","","","stimuli/AM05_SUR.jpg","",""
"explore-choice","181","425885","0.0-181.0","p208993","A3CMO4D4U0C7JI","3WRBLBQ2GSENM5LEFQY1C5PG0GV0GC","39U1BHVTDNXQVM4B8FKS26X1CXFT3Q","model","mismatch","uniform","","","","","","","639.1999999880791","432597","433236.1999999881","[""stimuli/AF02_SC.jpg"",""stimuli/AM05_SUR.jpg"",""stimuli/WF04_AO.jpg"",""stimuli/AM09_HO.jpg""]","stimuli/AF02_SC.jpg","stimuli/AM05_SUR.jpg","stimuli/WF04_AO.jpg","stimuli/AM09_HO.jpg","pos2","stimuli/AM05_SUR.jpg","SUR","AM05","1","2","4","2","stimuli/stars_4.png","211.5","[""SC"",""SUR"",""AO"",""HO""]","[""AF02"",""AM05"",""WF04"",""AM09""]","[4,4,5,9]","[4,2,6,8]","","",""
"show-reward","182","427977","0.0-182.0","p208993","A3CMO4D4U0C7JI","3WRBLBQ2GSENM5LEFQY1C5PG0GV0GC","39U1BHVTDNXQVM4B8FKS26X1CXFT3Q","model","mismatch","uniform","","","","","","","","433739.5","435829.7999999821","","","","","","","","","","","","4","","stimuli/stars_4.png","211.5","","","","","stimuli/AM05_SUR.jpg","",""
"explore-choice","183","428628","0.0-183.0","p208993","A3CMO4D4U0C7JI","3WRBLBQ2GSENM5LEFQY1C5PG0GV0GC","39U1BHVTDNXQVM4B8FKS26X1CXFT3Q","model","mismatch","uniform","","","","","","","148.39999997615814","435832.5","435980.89999997616","[""stimuli/AM09_SC.jpg"",""stimuli/AF02_AO.jpg"",""stimuli/WF04_HO.jpg"",""stimuli/AM05_SUR.jpg""]","stimuli/AM09_SC.jpg","stimuli/AF02_AO.jpg","stimuli/WF04_HO.jpg","stimuli/AM05_SUR.jpg","pos3","stimuli/WF04_HO.jpg","HO","WF04","2","3.5","7","8","stimuli/stars_7.png","215","[""SC"",""AO"",""HO"",""SUR""]","[""AM09"",""AF02"",""WF04"",""AM05""]","[6,4,7,2]","[4,6,8,2]","","",""
"show-reward","184","430658","0.0-184.0","p208993","A3CMO4D4U0C7JI","3WRBLBQ2GSENM5LEFQY1C5PG0GV0GC","39U1BHVTDNXQVM4B8FKS26X1CXFT3Q","model","mismatch","uniform","","","","","","","","436482.89999997616","438504.09999999404","","","","","","","","","","","","7","","stimuli/stars_7.png","215","","","","","stimuli/WF04_HO.jpg","",""
"explore-choice","185","431433","0.0-185.0","p208993","A3CMO4D4U0C7JI","3WRBLBQ2GSENM5LEFQY1C5PG0GV0GC","39U1BHVTDNXQVM4B8FKS26X1CXFT3Q","model","mismatch","uniform","","","","","","","223.89999997615814","438514","438737.89999997616","[""stimuli/WF04_HO.jpg"",""stimuli/AM09_SUR.jpg"",""stimuli/AF02_SC.jpg"",""stimuli/AM05_AO.jpg""]","stimuli/WF04_HO.jpg","stimuli/AM09_SUR.jpg","stimuli/AF02_SC.jpg","stimuli/AM05_AO.jpg","pos4","stimuli/AM05_AO.jpg","AO","AM05","3","3.5","7","6","stimuli/stars_7.png","218.5","[""HO"",""SUR"",""SC"",""AO""]","[""WF04"",""AM09"",""AF02"",""AM05""]","[9,3,3,7]","[8,2,4,6]","","",""
"show-reward","186","433439","0.0-186.0","p208993","A3CMO4D4U0C7JI","3WRBLBQ2GSENM5LEFQY1C5PG0GV0GC","39U1BHVTDNXQVM4B8FKS26X1CXFT3Q","model","mismatch","uniform","","","","","","","","439283.59999999404","441287.89999997616","","","","","","","","","","","","7","","stimuli/stars_7.png","218.5","","","","","stimuli/AM05_AO.jpg","",""
"explore-choice","187","434879","0.0-187.0","p208993","A3CMO4D4U0C7JI","3WRBLBQ2GSENM5LEFQY1C5PG0GV0GC","39U1BHVTDNXQVM4B8FKS26X1CXFT3Q","model","mismatch","uniform","","","","","","","933.1999999880791","441290.09999999404","442223.2999999821","[""stimuli/AF02_SUR.jpg"",""stimuli/AM09_SC.jpg"",""stimuli/AM05_HO.jpg"",""stimuli/WF04_AO.jpg""]","stimuli/AF02_SUR.jpg","stimuli/AM09_SC.jpg","stimuli/AM05_HO.jpg","stimuli/WF04_AO.jpg","pos2","stimuli/AM09_SC.jpg","SC","AM09","1","2","4","4","stimuli/stars_4.png","220.5","[""SUR"",""SC"",""HO"",""AO""]","[""AF02"",""AM09"",""AM05"",""WF04""]","[3,4,8,6]","[2,4,8,6]","","",""
"show-reward","188","436891","0.0-188.0","p208993","A3CMO4D4U0C7JI","3WRBLBQ2GSENM5LEFQY1C5PG0GV0GC","39U1BHVTDNXQVM4B8FKS26X1CXFT3Q","model","mismatch","uniform","","","","","","","","442729.89999997616","444738","","","","","","","","","","","","4","","stimuli/stars_4.png","220.5","","","","","stimuli/AM09_SC.jpg","",""
"explore-choice","189","438616","0.0-189.0","p208993","A3CMO4D4U0C7JI","3WRBLBQ2GSENM5LEFQY1C5PG0GV0GC","39U1BHVTDNXQVM4B8FKS26X1CXFT3Q","model","mismatch","uniform","","","","","","","1191.800000011921","444742.1999999881","445934","[""stimuli/WF04_HO.jpg"",""stimuli/AF02_SUR.jpg"",""stimuli/AM09_AO.jpg"",""stimuli/AM05_SC.jpg""]","stimuli/WF04_HO.jpg","stimuli/AF02_SUR.jpg","stimuli/AM09_AO.jpg","stimuli/AM05_SC.jpg","pos1","stimuli/WF04_HO.jpg","HO","WF04","0","4.5","9","8","stimuli/stars_9.png","225","[""HO"",""SUR"",""AO"",""SC""]","[""WF04"",""AF02"",""AM09"",""AM05""]","[9,1,6,3]","[8,2,6,4]","","",""
"show-reward","190","440624","0.0-190.0","p208993","A3CMO4D4U0C7JI","3WRBLBQ2GSENM5LEFQY1C5PG0GV0GC","39U1BHVTDNXQVM4B8FKS26X1CXFT3Q","model","mismatch","uniform","","","","","","","","446467.09999999404","448473","","","","","","","","","","","","9","","stimuli/stars_9.png","225","","","","","stimuli/WF04_HO.jpg","",""
"explore-choice","191","442206","0.0-191.0","p208993","A3CMO4D4U0C7JI","3WRBLBQ2GSENM5LEFQY1C5PG0GV0GC","39U1BHVTDNXQVM4B8FKS26X1CXFT3Q","model","mismatch","uniform","","","","","","","1079","448474.89999997616","449553.89999997616","[""stimuli/WF04_HO.jpg"",""stimuli/AM09_SC.jpg"",""stimuli/AF02_SUR.jpg"",""stimuli/AM05_AO.jpg""]","stimuli/WF04_HO.jpg","stimuli/AM09_SC.jpg","stimuli/AF02_SUR.jpg","stimuli/AM05_AO.jpg","pos3","stimuli/AF02_SUR.jpg","SUR","AF02","2","0","0","2","stimuli/stars_0.png","225","[""HO"",""SC"",""SUR"",""AO""]","[""WF04"",""AM09"",""AF02"",""AM05""]","[6,6,0,7]","[8,4,2,6]","","",""
"show-reward","192","444455","0.0-192.0","p208993","A3CMO4D4U0C7JI","3WRBLBQ2GSENM5LEFQY1C5PG0GV0GC","39U1BHVTDNXQVM4B8FKS26X1CXFT3Q","model","mismatch","uniform","","","","","","","","450057.1999999881","452303.5","","","","","","","","","","","","0","","stimuli/stars_0.png","225","","","","","stimuli/AF02_SUR.jpg","",""
"explore-choice","193","446177","0.0-193.0","p208993","A3CMO4D4U0C7JI","3WRBLBQ2GSENM5LEFQY1C5PG0GV0GC","39U1BHVTDNXQVM4B8FKS26X1CXFT3Q","model","mismatch","uniform","","","","","","","1205.4000000059605","452307.2999999821","453512.6999999881","[""stimuli/AM05_AO.jpg"",""stimuli/AM09_SC.jpg"",""stimuli/AF02_HO.jpg"",""stimuli/WF04_SUR.jpg""]","stimuli/AM05_AO.jpg","stimuli/AM09_SC.jpg","stimuli/AF02_HO.jpg","stimuli/WF04_SUR.jpg","pos4","stimuli/WF04_SUR.jpg","SUR","WF04","3","0","0","2","stimuli/stars_0.png","225","[""AO"",""SC"",""HO"",""SUR""]","[""AM05"",""AM09"",""AF02"",""WF04""]","[7,6,7,0]","[6,4,8,2]","","",""
"show-reward","194","448184","0.0-194.0","p208993","A3CMO4D4U0C7JI","3WRBLBQ2GSENM5LEFQY1C5PG0GV0GC","39U1BHVTDNXQVM4B8FKS26X1CXFT3Q","model","mismatch","uniform","","","","","","","","454029.5","456032.39999997616","","","","","","","","","","","","0","","stimuli/stars_0.png","225","","","","","stimuli/WF04_SUR.jpg","",""
"explore-choice","195","449526","0.0-195.0","p208993","A3CMO4D4U0C7JI","3WRBLBQ2GSENM5LEFQY1C5PG0GV0GC","39U1BHVTDNXQVM4B8FKS26X1CXFT3Q","model","mismatch","uniform","","","","","","","838.8000000119209","456034.2999999821","456873.09999999404","[""stimuli/AM09_SUR.jpg"",""stimuli/AM05_SC.jpg"",""stimuli/WF04_HO.jpg"",""stimuli/AF02_AO.jpg""]","stimuli/AM09_SUR.jpg","stimuli/AM05_SC.jpg","stimuli/WF04_HO.jpg","stimuli/AF02_AO.jpg","pos3","stimuli/WF04_HO.jpg","HO","WF04","2","4","8","8","stimuli/stars_8.png","229","[""SUR"",""SC"",""HO"",""AO""]","[""AM09"",""AM05"",""WF04"",""AF02""]","[1,6,8,5]","[2,4,8,6]","","",""
"show-reward","196","451531","0.0-196.0","p208993","A3CMO4D4U0C7JI","3WRBLBQ2GSENM5LEFQY1C5PG0GV0GC","39U1BHVTDNXQVM4B8FKS26X1CXFT3Q","model","mismatch","uniform","","","","","","","","457376.2999999821","459379.2999999821","","","","","","","","","","","","8","","stimuli/stars_8.png","229","","","","","stimuli/WF04_HO.jpg","",""
"explore-choice","197","452699","0.0-197.0","p208993","A3CMO4D4U0C7JI","3WRBLBQ2GSENM5LEFQY1C5PG0GV0GC","39U1BHVTDNXQVM4B8FKS26X1CXFT3Q","model","mismatch","uniform","","","","","","","638.5999999940395","459406.5","460045.09999999404","[""stimuli/AM05_SC.jpg"",""stimuli/AF02_HO.jpg"",""stimuli/WF04_AO.jpg"",""stimuli/AM09_SUR.jpg""]","stimuli/AM05_SC.jpg","stimuli/AF02_HO.jpg","stimuli/WF04_AO.jpg","stimuli/AM09_SUR.jpg","pos2","stimuli/AF02_HO.jpg","HO","AF02","1","5","10","8","stimuli/stars_10.png","234","[""SC"",""HO"",""AO"",""SUR""]","[""AM05"",""AF02"",""WF04"",""AM09""]","[6,10,5,1]","[4,8,6,2]","","",""
"show-reward","198","454705","0.0-198.0","p208993","A3CMO4D4U0C7JI","3WRBLBQ2GSENM5LEFQY1C5PG0GV0GC","39U1BHVTDNXQVM4B8FKS26X1CXFT3Q","model","mismatch","uniform","","","","","","","","460549.39999997616","462553.1999999881","","","","","","","","","","","","10","","stimuli/stars_10.png","234","","","","","stimuli/AF02_HO.jpg","",""
"instructions","199","458039","0.0-199.0","p208993","A3CMO4D4U0C7JI","3WRBLBQ2GSENM5LEFQY1C5PG0GV0GC","39U1BHVTDNXQVM4B8FKS26X1CXFT3Q","model","mismatch","uniform","","","","","","[{""page_index"":0,""viewing_time"":3330.800000011921}]","3332.2000000178814","","","","","","","","","","","","","","","","","","","","","","","",""
"survey-text","200","461130","0.0-200.0-0.0","p208993","A3CMO4D4U0C7JI","3WRBLBQ2GSENM5LEFQY1C5PG0GV0GC","39U1BHVTDNXQVM4B8FKS26X1CXFT3Q","model","mismatch","uniform","","","","","","","3078.7000000178814","","","","","","","","","","","","","","","","","","","","","","","{""age"":""34""}",""
"survey-text","201","467865","0.0-200.0-1.0","p208993","A3CMO4D4U0C7JI","3WRBLBQ2GSENM5LEFQY1C5PG0GV0GC","39U1BHVTDNXQVM4B8FKS26X1CXFT3Q","model","mismatch","uniform","","","","","","","6728.300000011921","","","","","","","","","","","","","","","","","","","","","","","{""gender"":""Male""}",""
"survey-text","202","484634","0.0-200.0-2.0","p208993","A3CMO4D4U0C7JI","3WRBLBQ2GSENM5LEFQY1C5PG0GV0GC","39U1BHVTDNXQVM4B8FKS26X1CXFT3Q","model","mismatch","uniform","","","","","","","16759.79999998212","","","","","","","","","","","","","","","","","","","","","","","{""country"":""United States ""}",""
"survey-text","203","510939","0.0-200.0-3.0","p208993","A3CMO4D4U0C7JI","3WRBLBQ2GSENM5LEFQY1C5PG0GV0GC","39U1BHVTDNXQVM4B8FKS26X1CXFT3Q","model","mismatch","uniform","","","","","","","26298","","","","","","","","","","","","","","","","","","","","","","","{""language"":""English"",""other_languages"":""English""}",""
"survey-multi-select","204","513508","0.0-201.0","p208993","A3CMO4D4U0C7JI","3WRBLBQ2GSENM5LEFQY1C5PG0GV0GC","39U1BHVTDNXQVM4B8FKS26X1CXFT3Q","model","mismatch","uniform","","","","","","","2558.9000000059605","","","","","","","","","","","","","","","","","","","","","","","{""race"":[""White""]}","[0]"
"survey-multi-choice","205","515945","0.0-202.0","p208993","A3CMO4D4U0C7JI","3WRBLBQ2GSENM5LEFQY1C5PG0GV0GC","39U1BHVTDNXQVM4B8FKS26X1CXFT3Q","model","mismatch","uniform","","","","","","","2432","","","","","","","","","","","","","","","","","","","","","","","{""education"":""Bachelor's degree""}","[0]"
"survey-text","206","535591","0.0-203.0","p208993","A3CMO4D4U0C7JI","3WRBLBQ2GSENM5LEFQY1C5PG0GV0GC","39U1BHVTDNXQVM4B8FKS26X1CXFT3Q","model","mismatch","uniform","","","","","","","19632.5","","","","","","","","","","","","","","","","","","","","","","","{""patterns"":""Very interesting game "",""strategy"":""well "",""comments"":""""}",""
