"trial_type","trial_index","time_elapsed","internal_node_id","subject","workerId","hitId","assignmentId","structure_condition","match_condition","noise_type","success","timeout","failed_images","failed_audio","failed_video","view_history","rt","start_time","end_time","stimuli","image1","image2","image3","image4","choiceLocation","choiceImage","choiceEmotion","choiceModel","choice_index","reward_score","reward","reward_score_unadjusted","reward_image","score_after_trial","emotions","models","rewards","rewards_unadjusted","stimulus","response","question_order"
"pavlovia","0","8","0.0-0.0","p776146","A26NGLGGFTATVN","3WPCIUYH1BELQU8EB2L3QVOOKYBTD4","3YMTUJH0DUMBDINF8TPBCBP7QXBT4B","model","mismatch","uniform","","","","","","","","","","","","","","","","","","","","","","","","","","","","","","",""
"preload","1","6189","0.0-1.0","p776146","A26NGLGGFTATVN","3WPCIUYH1BELQU8EB2L3QVOOKYBTD4","3YMTUJH0DUMBDINF8TPBCBP7QXBT4B","model","mismatch","uniform","true","false","[]","[]","[]","","","","","","","","","","","","","","","","","","","","","","","","","",""
"fullscreen","2","8347","0.0-2.0","p776146","A26NGLGGFTATVN","3WPCIUYH1BELQU8EB2L3QVOOKYBTD4","3YMTUJH0DUMBDINF8TPBCBP7QXBT4B","model","mismatch","uniform","true","","","","","","","","","","","","","","","","","","","","","","","","","","","","","",""
"instructions","3","10877","0.0-3.0","p776146","A26NGLGGFTATVN","3WPCIUYH1BELQU8EB2L3QVOOKYBTD4","3YMTUJH0DUMBDINF8TPBCBP7QXBT4B","model","mismatch","uniform","","","","","","[{""page_index"":0,""viewing_time"":2528.7000000476837}]","2528.7999999523163","","","","","","","","","","","","","","","","","","","","","","","",""
"explore-choice","4","13551","0.0-4.0","p776146","A26NGLGGFTATVN","3WPCIUYH1BELQU8EB2L3QVOOKYBTD4","3YMTUJH0DUMBDINF8TPBCBP7QXBT4B","model","mismatch","uniform","","","","","","","2168.7000000476837","12912.699999928474","15081.399999976158","[""stimuli/sheep.jpg"",""stimuli/hammer.jpg"",""stimuli/basketball.jpg"",""stimuli/horse.jpg""]","stimuli/sheep.jpg","stimuli/hammer.jpg","stimuli/basketball.jpg","stimuli/horse.jpg","pos4","stimuli/horse.jpg","","","3","64","64","64","stimuli/stars_8.png","65","","","","","","",""
"explore-choice","5","15189","0.0-5.0","p776146","A26NGLGGFTATVN","3WPCIUYH1BELQU8EB2L3QVOOKYBTD4","3YMTUJH0DUMBDINF8TPBCBP7QXBT4B","model","mismatch","uniform","","","","","","","1123.3999999761581","15587.699999928474","16711.099999904633","[""stimuli/hammer.jpg"",""stimuli/basketball.jpg"",""stimuli/horse.jpg"",""stimuli/sheep.jpg""]","stimuli/hammer.jpg","stimuli/basketball.jpg","stimuli/horse.jpg","stimuli/sheep.jpg","pos1","stimuli/hammer.jpg","","","0","8","8","8","stimuli/stars_2.png","9","","","","","","",""
"instructions","6","21797","0.0-6.0","p776146","A26NGLGGFTATVN","3WPCIUYH1BELQU8EB2L3QVOOKYBTD4","3YMTUJH0DUMBDINF8TPBCBP7QXBT4B","model","mismatch","uniform","","","","","","[{""page_index"":0,""viewing_time"":6607}]","6607.199999928474","","","","","","","","","","","","","","","","","","","","","","","",""
"explore-choice","7","23828","0.0-7.0","p776146","A26NGLGGFTATVN","3WPCIUYH1BELQU8EB2L3QVOOKYBTD4","3YMTUJH0DUMBDINF8TPBCBP7QXBT4B","model","mismatch","uniform","","","","","","","1528.0999999046326","23833","25361.099999904633","[""stimuli/AM06_AO.jpg"",""stimuli/BF04_SUR.jpg"",""stimuli/BM03_HE.jpg"",""stimuli/BM16_CC.jpg""]","stimuli/AM06_AO.jpg","stimuli/BF04_SUR.jpg","stimuli/BM03_HE.jpg","stimuli/BM16_CC.jpg","pos2","stimuli/BF04_SUR.jpg","SUR","BF04","1","1","2","2","stimuli/stars_2.png","2","[""AO"",""SUR"",""HE"",""CC""]","[""AM06"",""BF04"",""BM03"",""BM16""]","[6,2,5,6]","[4,2,6,8]","","",""
"show-reward","8","25831","0.0-8.0","p776146","A26NGLGGFTATVN","3WPCIUYH1BELQU8EB2L3QVOOKYBTD4","3YMTUJH0DUMBDINF8TPBCBP7QXBT4B","model","mismatch","uniform","","","","","","","","25863.799999952316","27866.099999904633","","","","","","","","","","","","2","","stimuli/stars_2.png","2","","","","","stimuli/BF04_SUR.jpg","",""
"explore-choice","9","27635","0.0-9.0","p776146","A26NGLGGFTATVN","3WPCIUYH1BELQU8EB2L3QVOOKYBTD4","3YMTUJH0DUMBDINF8TPBCBP7QXBT4B","model","mismatch","uniform","","","","","","","1290.8000000715256","27867.199999928474","29158","[""stimuli/BF04_CC.jpg"",""stimuli/BM03_SUR.jpg"",""stimuli/BM16_AO.jpg"",""stimuli/AM06_HE.jpg""]","stimuli/BF04_CC.jpg","stimuli/BM03_SUR.jpg","stimuli/BM16_AO.jpg","stimuli/AM06_HE.jpg","pos3","stimuli/BM16_AO.jpg","AO","BM16","2","4.5","9","8","stimuli/stars_9.png","6.5","[""CC"",""SUR"",""AO"",""HE""]","[""BF04"",""BM03"",""BM16"",""AM06""]","[1,4,9,5]","[2,6,8,4]","","",""
"show-reward","10","29649","0.0-10.0","p776146","A26NGLGGFTATVN","3WPCIUYH1BELQU8EB2L3QVOOKYBTD4","3YMTUJH0DUMBDINF8TPBCBP7QXBT4B","model","mismatch","uniform","","","","","","","","29671.5","31684.5","","","","","","","","","","","","9","","stimuli/stars_9.png","6.5","","","","","stimuli/BM16_AO.jpg","",""
"explore-choice","11","31742","0.0-11.0","p776146","A26NGLGGFTATVN","3WPCIUYH1BELQU8EB2L3QVOOKYBTD4","3YMTUJH0DUMBDINF8TPBCBP7QXBT4B","model","mismatch","uniform","","","","","","","1589.2999999523163","31685","33274.299999952316","[""stimuli/BM03_CC.jpg"",""stimuli/BF04_AO.jpg"",""stimuli/AM06_HE.jpg"",""stimuli/BM16_SUR.jpg""]","stimuli/BM03_CC.jpg","stimuli/BF04_AO.jpg","stimuli/AM06_HE.jpg","stimuli/BM16_SUR.jpg","pos1","stimuli/BM03_CC.jpg","CC","BM03","0","2","4","6","stimuli/stars_4.png","8.5","[""CC"",""AO"",""HE"",""SUR""]","[""BM03"",""BF04"",""AM06"",""BM16""]","[4,4,4,8]","[6,2,4,8]","","",""
"show-reward","12","33748","0.0-12.0","p776146","A26NGLGGFTATVN","3WPCIUYH1BELQU8EB2L3QVOOKYBTD4","3YMTUJH0DUMBDINF8TPBCBP7QXBT4B","model","mismatch","uniform","","","","","","","","33777.89999997616","35783.5","","","","","","","","","","","","4","","stimuli/stars_4.png","8.5","","","","","stimuli/BM03_CC.jpg","",""
"explore-choice","13","35429","0.0-13.0","p776146","A26NGLGGFTATVN","3WPCIUYH1BELQU8EB2L3QVOOKYBTD4","3YMTUJH0DUMBDINF8TPBCBP7QXBT4B","model","mismatch","uniform","","","","","","","1177.0999999046326","35784","36961.09999990463","[""stimuli/BF04_HE.jpg"",""stimuli/AM06_SUR.jpg"",""stimuli/BM03_AO.jpg"",""stimuli/BM16_CC.jpg""]","stimuli/BF04_HE.jpg","stimuli/AM06_SUR.jpg","stimuli/BM03_AO.jpg","stimuli/BM16_CC.jpg","pos3","stimuli/BM03_AO.jpg","AO","BM03","2","2","4","6","stimuli/stars_4.png","10.5","[""HE"",""SUR"",""AO"",""CC""]","[""BF04"",""AM06"",""BM03"",""BM16""]","[2,3,4,8]","[2,4,6,8]","","",""
"show-reward","14","37431","0.0-14.0","p776146","A26NGLGGFTATVN","3WPCIUYH1BELQU8EB2L3QVOOKYBTD4","3YMTUJH0DUMBDINF8TPBCBP7QXBT4B","model","mismatch","uniform","","","","","","","","37465.09999990463","39466.299999952316","","","","","","","","","","","","4","","stimuli/stars_4.png","10.5","","","","","stimuli/BM03_AO.jpg","",""
"explore-choice","15","38804","0.0-15.0","p776146","A26NGLGGFTATVN","3WPCIUYH1BELQU8EB2L3QVOOKYBTD4","3YMTUJH0DUMBDINF8TPBCBP7QXBT4B","model","mismatch","uniform","","","","","","","866.8999999761581","39468.39999997616","40335.299999952316","[""stimuli/BF04_AO.jpg"",""stimuli/BM03_SUR.jpg"",""stimuli/BM16_CC.jpg"",""stimuli/AM06_HE.jpg""]","stimuli/BF04_AO.jpg","stimuli/BM03_SUR.jpg","stimuli/BM16_CC.jpg","stimuli/AM06_HE.jpg","pos4","stimuli/AM06_HE.jpg","HE","AM06","3","2","4","4","stimuli/stars_4.png","12.5","[""AO"",""SUR"",""CC"",""HE""]","[""BF04"",""BM03"",""BM16"",""AM06""]","[2,6,7,4]","[2,6,8,4]","","",""
"show-reward","16","40809","0.0-16.0","p776146","A26NGLGGFTATVN","3WPCIUYH1BELQU8EB2L3QVOOKYBTD4","3YMTUJH0DUMBDINF8TPBCBP7QXBT4B","model","mismatch","uniform","","","","","","","","40840.39999997616","42843.799999952316","","","","","","","","","","","","4","","stimuli/stars_4.png","12.5","","","","","stimuli/AM06_HE.jpg","",""
"explore-choice","17","42645","0.0-17.0","p776146","A26NGLGGFTATVN","3WPCIUYH1BELQU8EB2L3QVOOKYBTD4","3YMTUJH0DUMBDINF8TPBCBP7QXBT4B","model","mismatch","uniform","","","","","","","1321.6000000238419","42844.299999952316","44165.89999997616","[""stimuli/AM06_CC.jpg"",""stimuli/BM16_SUR.jpg"",""stimuli/BM03_HE.jpg"",""stimuli/BF04_AO.jpg""]","stimuli/AM06_CC.jpg","stimuli/BM16_SUR.jpg","stimuli/BM03_HE.jpg","stimuli/BF04_AO.jpg","pos4","stimuli/BF04_AO.jpg","AO","BF04","3","1","2","2","stimuli/stars_2.png","13.5","[""CC"",""SUR"",""HE"",""AO""]","[""AM06"",""BM16"",""BM03"",""BF04""]","[4,9,8,2]","[4,8,6,2]","","",""
"show-reward","18","44651","0.0-18.0","p776146","A26NGLGGFTATVN","3WPCIUYH1BELQU8EB2L3QVOOKYBTD4","3YMTUJH0DUMBDINF8TPBCBP7QXBT4B","model","mismatch","uniform","","","","","","","","44681.89999997616","46686.09999990463","","","","","","","","","","","","2","","stimuli/stars_2.png","13.5","","","","","stimuli/BF04_AO.jpg","",""
"explore-choice","19","45675","0.0-19.0","p776146","A26NGLGGFTATVN","3WPCIUYH1BELQU8EB2L3QVOOKYBTD4","3YMTUJH0DUMBDINF8TPBCBP7QXBT4B","model","mismatch","uniform","","","","","","","511.60000002384186","46687.39999997616","47199","[""stimuli/BM16_SUR.jpg"",""stimuli/BM03_AO.jpg"",""stimuli/BF04_CC.jpg"",""stimuli/AM06_HE.jpg""]","stimuli/BM16_SUR.jpg","stimuli/BM03_AO.jpg","stimuli/BF04_CC.jpg","stimuli/AM06_HE.jpg","pos1","stimuli/BM16_SUR.jpg","SUR","BM16","0","3.5","7","8","stimuli/stars_7.png","17","[""SUR"",""AO"",""CC"",""HE""]","[""BM16"",""BM03"",""BF04"",""AM06""]","[7,4,0,3]","[8,6,2,4]","","",""
"show-reward","20","47678","0.0-20.0","p776146","A26NGLGGFTATVN","3WPCIUYH1BELQU8EB2L3QVOOKYBTD4","3YMTUJH0DUMBDINF8TPBCBP7QXBT4B","model","mismatch","uniform","","","","","","","","47711","49713","","","","","","","","","","","","7","","stimuli/stars_7.png","17","","","","","stimuli/BM16_SUR.jpg","",""
"explore-choice","21","49688","0.0-21.0","p776146","A26NGLGGFTATVN","3WPCIUYH1BELQU8EB2L3QVOOKYBTD4","3YMTUJH0DUMBDINF8TPBCBP7QXBT4B","model","mismatch","uniform","","","","","","","1500.2999999523163","49714.799999952316","51215.09999990463","[""stimuli/AM06_SUR.jpg"",""stimuli/BF04_AO.jpg"",""stimuli/BM16_CC.jpg"",""stimuli/BM03_HE.jpg""]","stimuli/AM06_SUR.jpg","stimuli/BF04_AO.jpg","stimuli/BM16_CC.jpg","stimuli/BM03_HE.jpg","pos1","stimuli/AM06_SUR.jpg","SUR","AM06","0","1","2","4","stimuli/stars_2.png","18","[""SUR"",""AO"",""CC"",""HE""]","[""AM06"",""BF04"",""BM16"",""BM03""]","[2,4,8,5]","[4,2,8,6]","","",""
"show-reward","22","51691","0.0-22.0","p776146","A26NGLGGFTATVN","3WPCIUYH1BELQU8EB2L3QVOOKYBTD4","3YMTUJH0DUMBDINF8TPBCBP7QXBT4B","model","mismatch","uniform","","","","","","","","51724","53726.299999952316","","","","","","","","","","","","2","","stimuli/stars_2.png","18","","","","","stimuli/AM06_SUR.jpg","",""
"explore-choice","23","53006","0.0-23.0","p776146","A26NGLGGFTATVN","3WPCIUYH1BELQU8EB2L3QVOOKYBTD4","3YMTUJH0DUMBDINF8TPBCBP7QXBT4B","model","mismatch","uniform","","","","","","","799.2000000476837","53726.799999952316","54526","[""stimuli/AM06_HE.jpg"",""stimuli/BF04_SUR.jpg"",""stimuli/BM16_AO.jpg"",""stimuli/BM03_CC.jpg""]","stimuli/AM06_HE.jpg","stimuli/BF04_SUR.jpg","stimuli/BM16_AO.jpg","stimuli/BM03_CC.jpg","pos2","stimuli/BF04_SUR.jpg","SUR","BF04","1","1","2","2","stimuli/stars_2.png","19","[""HE"",""SUR"",""AO"",""CC""]","[""AM06"",""BF04"",""BM16"",""BM03""]","[2,2,6,7]","[4,2,8,6]","","",""
"show-reward","24","55013","0.0-24.0","p776146","A26NGLGGFTATVN","3WPCIUYH1BELQU8EB2L3QVOOKYBTD4","3YMTUJH0DUMBDINF8TPBCBP7QXBT4B","model","mismatch","uniform","","","","","","","","55042.89999997616","57047.699999928474","","","","","","","","","","","","2","","stimuli/stars_2.png","19","","","","","stimuli/BF04_SUR.jpg","",""
"explore-choice","25","56475","0.0-25.0","p776146","A26NGLGGFTATVN","3WPCIUYH1BELQU8EB2L3QVOOKYBTD4","3YMTUJH0DUMBDINF8TPBCBP7QXBT4B","model","mismatch","uniform","","","","","","","957.7000000476837","57048.699999928474","58006.39999997616","[""stimuli/BF04_HE.jpg"",""stimuli/BM03_SUR.jpg"",""stimuli/BM16_AO.jpg"",""stimuli/AM06_CC.jpg""]","stimuli/BF04_HE.jpg","stimuli/BM03_SUR.jpg","stimuli/BM16_AO.jpg","stimuli/AM06_CC.jpg","pos4","stimuli/AM06_CC.jpg","CC","AM06","3","2","4","4","stimuli/stars_4.png","21","[""HE"",""SUR"",""AO"",""CC""]","[""BF04"",""BM03"",""BM16"",""AM06""]","[1,8,8,4]","[2,6,8,4]","","",""
"show-reward","26","58491","0.0-26.0","p776146","A26NGLGGFTATVN","3WPCIUYH1BELQU8EB2L3QVOOKYBTD4","3YMTUJH0DUMBDINF8TPBCBP7QXBT4B","model","mismatch","uniform","","","","","","","","58510.299999952316","60525","","","","","","","","","","","","4","","stimuli/stars_4.png","21","","","","","stimuli/AM06_CC.jpg","",""
"explore-choice","27","60151","0.0-27.0","p776146","A26NGLGGFTATVN","3WPCIUYH1BELQU8EB2L3QVOOKYBTD4","3YMTUJH0DUMBDINF8TPBCBP7QXBT4B","model","mismatch","uniform","","","","","","","1149.6999999284744","60526.39999997616","61676.09999990463","[""stimuli/BM03_CC.jpg"",""stimuli/AM06_AO.jpg"",""stimuli/BM16_SUR.jpg"",""stimuli/BF04_HE.jpg""]","stimuli/BM03_CC.jpg","stimuli/AM06_AO.jpg","stimuli/BM16_SUR.jpg","stimuli/BF04_HE.jpg","pos1","stimuli/BM03_CC.jpg","CC","BM03","0","3.5","7","6","stimuli/stars_7.png","24.5","[""CC"",""AO"",""SUR"",""HE""]","[""BM03"",""AM06"",""BM16"",""BF04""]","[7,3,9,2]","[6,4,8,2]","","",""
"show-reward","28","62155","0.0-28.0","p776146","A26NGLGGFTATVN","3WPCIUYH1BELQU8EB2L3QVOOKYBTD4","3YMTUJH0DUMBDINF8TPBCBP7QXBT4B","model","mismatch","uniform","","","","","","","","62186.699999928474","64189.5","","","","","","","","","","","","7","","stimuli/stars_7.png","24.5","","","","","stimuli/BM03_CC.jpg","",""
"explore-choice","29","63961","0.0-29.0","p776146","A26NGLGGFTATVN","3WPCIUYH1BELQU8EB2L3QVOOKYBTD4","3YMTUJH0DUMBDINF8TPBCBP7QXBT4B","model","mismatch","uniform","","","","","","","1291.7999999523163","64190.39999997616","65482.199999928474","[""stimuli/BM03_SUR.jpg"",""stimuli/BF04_HE.jpg"",""stimuli/BM16_CC.jpg"",""stimuli/AM06_AO.jpg""]","stimuli/BM03_SUR.jpg","stimuli/BF04_HE.jpg","stimuli/BM16_CC.jpg","stimuli/AM06_AO.jpg","pos3","stimuli/BM16_CC.jpg","CC","BM16","2","3","6","8","stimuli/stars_6.png","27.5","[""SUR"",""HE"",""CC"",""AO""]","[""BM03"",""BF04"",""BM16"",""AM06""]","[8,3,6,6]","[6,2,8,4]","","",""
"show-reward","30","65972","0.0-30.0","p776146","A26NGLGGFTATVN","3WPCIUYH1BELQU8EB2L3QVOOKYBTD4","3YMTUJH0DUMBDINF8TPBCBP7QXBT4B","model","mismatch","uniform","","","","","","","","65997.09999990463","68006.19999992847","","","","","","","","","","","","6","","stimuli/stars_6.png","27.5","","","","","stimuli/BM16_CC.jpg","",""
"explore-choice","31","67377","0.0-31.0","p776146","A26NGLGGFTATVN","3WPCIUYH1BELQU8EB2L3QVOOKYBTD4","3YMTUJH0DUMBDINF8TPBCBP7QXBT4B","model","mismatch","uniform","","","","","","","890.6999999284744","68007","68897.69999992847","[""stimuli/BM03_SUR.jpg"",""stimuli/AM06_CC.jpg"",""stimuli/BF04_AO.jpg"",""stimuli/BM16_HE.jpg""]","stimuli/BM03_SUR.jpg","stimuli/AM06_CC.jpg","stimuli/BF04_AO.jpg","stimuli/BM16_HE.jpg","pos2","stimuli/AM06_CC.jpg","CC","AM06","1","3","6","4","stimuli/stars_6.png","30.5","[""SUR"",""CC"",""AO"",""HE""]","[""BM03"",""AM06"",""BF04"",""BM16""]","[8,6,3,9]","[6,4,2,8]","","",""
"show-reward","32","69386","0.0-32.0","p776146","A26NGLGGFTATVN","3WPCIUYH1BELQU8EB2L3QVOOKYBTD4","3YMTUJH0DUMBDINF8TPBCBP7QXBT4B","model","mismatch","uniform","","","","","","","","69412.69999992847","71420.39999997616","","","","","","","","","","","","6","","stimuli/stars_6.png","30.5","","","","","stimuli/AM06_CC.jpg","",""
"explore-choice","33","70779","0.0-33.0","p776146","A26NGLGGFTATVN","3WPCIUYH1BELQU8EB2L3QVOOKYBTD4","3YMTUJH0DUMBDINF8TPBCBP7QXBT4B","model","mismatch","uniform","","","","","","","891.5","71422.59999990463","72314.09999990463","[""stimuli/BM16_HE.jpg"",""stimuli/BM03_CC.jpg"",""stimuli/AM06_SUR.jpg"",""stimuli/BF04_AO.jpg""]","stimuli/BM16_HE.jpg","stimuli/BM03_CC.jpg","stimuli/AM06_SUR.jpg","stimuli/BF04_AO.jpg","pos2","stimuli/BM03_CC.jpg","CC","BM03","1","3.5","7","6","stimuli/stars_7.png","34","[""HE"",""CC"",""SUR"",""AO""]","[""BM16"",""BM03"",""AM06"",""BF04""]","[6,7,4,3]","[8,6,4,2]","","",""
"show-reward","34","72782","0.0-34.0","p776146","A26NGLGGFTATVN","3WPCIUYH1BELQU8EB2L3QVOOKYBTD4","3YMTUJH0DUMBDINF8TPBCBP7QXBT4B","model","mismatch","uniform","","","","","","","","72814.59999990463","74816.29999995232","","","","","","","","","","","","7","","stimuli/stars_7.png","34","","","","","stimuli/BM03_CC.jpg","",""
"explore-choice","35","74963","0.0-35.0","p776146","A26NGLGGFTATVN","3WPCIUYH1BELQU8EB2L3QVOOKYBTD4","3YMTUJH0DUMBDINF8TPBCBP7QXBT4B","model","mismatch","uniform","","","","","","","1676.2999999523163","74816.79999995232","76493.09999990463","[""stimuli/BM03_HE.jpg"",""stimuli/BF04_CC.jpg"",""stimuli/AM06_SUR.jpg"",""stimuli/BM16_AO.jpg""]","stimuli/BM03_HE.jpg","stimuli/BF04_CC.jpg","stimuli/AM06_SUR.jpg","stimuli/BM16_AO.jpg","pos2","stimuli/BF04_CC.jpg","CC","BF04","1","1","2","2","stimuli/stars_2.png","35","[""HE"",""CC"",""SUR"",""AO""]","[""BM03"",""BF04"",""AM06"",""BM16""]","[8,2,4,9]","[6,2,4,8]","","",""
"show-reward","36","76965","0.0-36.0","p776146","A26NGLGGFTATVN","3WPCIUYH1BELQU8EB2L3QVOOKYBTD4","3YMTUJH0DUMBDINF8TPBCBP7QXBT4B","model","mismatch","uniform","","","","","","","","76998.29999995232","79000.19999992847","","","","","","","","","","","","2","","stimuli/stars_2.png","35","","","","","stimuli/BF04_CC.jpg","",""
"explore-choice","37","78634","0.0-37.0","p776146","A26NGLGGFTATVN","3WPCIUYH1BELQU8EB2L3QVOOKYBTD4","3YMTUJH0DUMBDINF8TPBCBP7QXBT4B","model","mismatch","uniform","","","","","","","1167.3000000715256","79000.59999990463","80167.89999997616","[""stimuli/BM03_HE.jpg"",""stimuli/BM16_AO.jpg"",""stimuli/BF04_SUR.jpg"",""stimuli/AM06_CC.jpg""]","stimuli/BM03_HE.jpg","stimuli/BM16_AO.jpg","stimuli/BF04_SUR.jpg","stimuli/AM06_CC.jpg","pos4","stimuli/AM06_CC.jpg","CC","AM06","3","1.5","3","4","stimuli/stars_3.png","36.5","[""HE"",""AO"",""SUR"",""CC""]","[""BM03"",""BM16"",""BF04"",""AM06""]","[5,9,4,3]","[6,8,2,4]","","",""
"show-reward","38","80650","0.0-38.0","p776146","A26NGLGGFTATVN","3WPCIUYH1BELQU8EB2L3QVOOKYBTD4","3YMTUJH0DUMBDINF8TPBCBP7QXBT4B","model","mismatch","uniform","","","","","","","","80669.29999995232","82684.5","","","","","","","","","","","","3","","stimuli/stars_3.png","36.5","","","","","stimuli/AM06_CC.jpg","",""
"explore-choice","39","82146","0.0-39.0","p776146","A26NGLGGFTATVN","3WPCIUYH1BELQU8EB2L3QVOOKYBTD4","3YMTUJH0DUMBDINF8TPBCBP7QXBT4B","model","mismatch","uniform","","","","","","","992.6999999284744","82686.39999997616","83679.09999990463","[""stimuli/BF04_SUR.jpg"",""stimuli/AM06_HE.jpg"",""stimuli/BM16_CC.jpg"",""stimuli/BM03_AO.jpg""]","stimuli/BF04_SUR.jpg","stimuli/AM06_HE.jpg","stimuli/BM16_CC.jpg","stimuli/BM03_AO.jpg","pos3","stimuli/BM16_CC.jpg","CC","BM16","2","3","6","8","stimuli/stars_6.png","39.5","[""SUR"",""HE"",""CC"",""AO""]","[""BF04"",""AM06"",""BM16"",""BM03""]","[1,6,6,7]","[2,4,8,6]","","",""
"show-reward","40","84155","0.0-40.0","p776146","A26NGLGGFTATVN","3WPCIUYH1BELQU8EB2L3QVOOKYBTD4","3YMTUJH0DUMBDINF8TPBCBP7QXBT4B","model","mismatch","uniform","","","","","","","","84181","86190.19999992847","","","","","","","","","","","","6","","stimuli/stars_6.png","39.5","","","","","stimuli/BM16_CC.jpg","",""
"explore-choice","41","86099","0.0-41.0","p776146","A26NGLGGFTATVN","3WPCIUYH1BELQU8EB2L3QVOOKYBTD4","3YMTUJH0DUMBDINF8TPBCBP7QXBT4B","model","mismatch","uniform","","","","","","","1433.3999999761581","86190.69999992847","87624.09999990463","[""stimuli/BM03_CC.jpg"",""stimuli/BM16_HE.jpg"",""stimuli/BF04_SUR.jpg"",""stimuli/AM06_AO.jpg""]","stimuli/BM03_CC.jpg","stimuli/BM16_HE.jpg","stimuli/BF04_SUR.jpg","stimuli/AM06_AO.jpg","pos1","stimuli/BM03_CC.jpg","CC","BM03","0","2","4","6","stimuli/stars_4.png","41.5","[""CC"",""HE"",""SUR"",""AO""]","[""BM03"",""BM16"",""BF04"",""AM06""]","[4,10,2,6]","[6,8,2,4]","","",""
"show-reward","42","88114","0.0-42.0","p776146","A26NGLGGFTATVN","3WPCIUYH1BELQU8EB2L3QVOOKYBTD4","3YMTUJH0DUMBDINF8TPBCBP7QXBT4B","model","mismatch","uniform","","","","","","","","88133.79999995232","90148.69999992847","","","","","","","","","","","","4","","stimuli/stars_4.png","41.5","","","","","stimuli/BM03_CC.jpg","",""
"explore-choice","43","89541","0.0-43.0","p776146","A26NGLGGFTATVN","3WPCIUYH1BELQU8EB2L3QVOOKYBTD4","3YMTUJH0DUMBDINF8TPBCBP7QXBT4B","model","mismatch","uniform","","","","","","","923","90149.19999992847","91072.19999992847","[""stimuli/BM03_HE.jpg"",""stimuli/BM16_SUR.jpg"",""stimuli/AM06_AO.jpg"",""stimuli/BF04_CC.jpg""]","stimuli/BM03_HE.jpg","stimuli/BM16_SUR.jpg","stimuli/AM06_AO.jpg","stimuli/BF04_CC.jpg","pos3","stimuli/AM06_AO.jpg","AO","AM06","2","2.5","5","4","stimuli/stars_5.png","44","[""HE"",""SUR"",""AO"",""CC""]","[""BM03"",""BM16"",""AM06"",""BF04""]","[7,7,5,3]","[6,8,4,2]","","",""
"show-reward","44","91546","0.0-44.0","p776146","A26NGLGGFTATVN","3WPCIUYH1BELQU8EB2L3QVOOKYBTD4","3YMTUJH0DUMBDINF8TPBCBP7QXBT4B","model","mismatch","uniform","","","","","","","","91577.19999992847","93580.5","","","","","","","","","","","","5","","stimuli/stars_5.png","44","","","","","stimuli/AM06_AO.jpg","",""
"explore-choice","45","92669","0.0-45.0","p776146","A26NGLGGFTATVN","3WPCIUYH1BELQU8EB2L3QVOOKYBTD4","3YMTUJH0DUMBDINF8TPBCBP7QXBT4B","model","mismatch","uniform","","","","","","","621.1000000238419","93582.29999995232","94203.39999997616","[""stimuli/BM16_HE.jpg"",""stimuli/BM03_AO.jpg"",""stimuli/AM06_CC.jpg"",""stimuli/BF04_SUR.jpg""]","stimuli/BM16_HE.jpg","stimuli/BM03_AO.jpg","stimuli/AM06_CC.jpg","stimuli/BF04_SUR.jpg","pos2","stimuli/BM03_AO.jpg","AO","BM03","1","3.5","7","6","stimuli/stars_7.png","47.5","[""HE"",""AO"",""CC"",""SUR""]","[""BM16"",""BM03"",""AM06"",""BF04""]","[10,7,6,2]","[8,6,4,2]","","",""
"show-reward","46","94679","0.0-46.0","p776146","A26NGLGGFTATVN","3WPCIUYH1BELQU8EB2L3QVOOKYBTD4","3YMTUJH0DUMBDINF8TPBCBP7QXBT4B","model","mismatch","uniform","","","","","","","","94704.59999990463","96713.79999995232","","","","","","","","","","","","7","","stimuli/stars_7.png","47.5","","","","","stimuli/BM03_AO.jpg","",""
"explore-choice","47","95964","0.0-47.0","p776146","A26NGLGGFTATVN","3WPCIUYH1BELQU8EB2L3QVOOKYBTD4","3YMTUJH0DUMBDINF8TPBCBP7QXBT4B","model","mismatch","uniform","","","","","","","770.6999999284744","96716.89999997616","97487.59999990463","[""stimuli/BF04_CC.jpg"",""stimuli/BM03_SUR.jpg"",""stimuli/BM16_HE.jpg"",""stimuli/AM06_AO.jpg""]","stimuli/BF04_CC.jpg","stimuli/BM03_SUR.jpg","stimuli/BM16_HE.jpg","stimuli/AM06_AO.jpg","pos4","stimuli/AM06_AO.jpg","AO","AM06","3","3","6","4","stimuli/stars_6.png","50.5","[""CC"",""SUR"",""HE"",""AO""]","[""BF04"",""BM03"",""BM16"",""AM06""]","[1,5,6,6]","[2,6,8,4]","","",""
"show-reward","48","97979","0.0-48.0","p776146","A26NGLGGFTATVN","3WPCIUYH1BELQU8EB2L3QVOOKYBTD4","3YMTUJH0DUMBDINF8TPBCBP7QXBT4B","model","mismatch","uniform","","","","","","","","97999.59999990463","100013.59999990463","","","","","","","","","","","","6","","stimuli/stars_6.png","50.5","","","","","stimuli/AM06_AO.jpg","",""
"explore-choice","49","99971","0.0-49.0","p776146","A26NGLGGFTATVN","3WPCIUYH1BELQU8EB2L3QVOOKYBTD4","3YMTUJH0DUMBDINF8TPBCBP7QXBT4B","model","mismatch","uniform","","","","","","","1485.8000000715256","100014.19999992847","101500","[""stimuli/BF04_HE.jpg"",""stimuli/BM16_AO.jpg"",""stimuli/BM03_CC.jpg"",""stimuli/AM06_SUR.jpg""]","stimuli/BF04_HE.jpg","stimuli/BM16_AO.jpg","stimuli/BM03_CC.jpg","stimuli/AM06_SUR.jpg","pos4","stimuli/AM06_SUR.jpg","SUR","AM06","3","1.5","3","4","stimuli/stars_3.png","52","[""HE"",""AO"",""CC"",""SUR""]","[""BF04"",""BM16"",""BM03"",""AM06""]","[4,9,5,3]","[2,8,6,4]","","",""
"show-reward","50","101978","0.0-50.0","p776146","A26NGLGGFTATVN","3WPCIUYH1BELQU8EB2L3QVOOKYBTD4","3YMTUJH0DUMBDINF8TPBCBP7QXBT4B","model","mismatch","uniform","","","","","","","","102007.39999997616","104012.69999992847","","","","","","","","","","","","3","","stimuli/stars_3.png","52","","","","","stimuli/AM06_SUR.jpg","",""
"explore-choice","51","104249","0.0-51.0","p776146","A26NGLGGFTATVN","3WPCIUYH1BELQU8EB2L3QVOOKYBTD4","3YMTUJH0DUMBDINF8TPBCBP7QXBT4B","model","mismatch","uniform","","","","","","","1765.5","104014.39999997616","105779.89999997616","[""stimuli/AM06_CC.jpg"",""stimuli/BM16_SUR.jpg"",""stimuli/BF04_HE.jpg"",""stimuli/BM03_AO.jpg""]","stimuli/AM06_CC.jpg","stimuli/BM16_SUR.jpg","stimuli/BF04_HE.jpg","stimuli/BM03_AO.jpg","pos4","stimuli/BM03_AO.jpg","AO","BM03","3","2","4","6","stimuli/stars_4.png","54","[""CC"",""SUR"",""HE"",""AO""]","[""AM06"",""BM16"",""BF04"",""BM03""]","[6,9,3,4]","[4,8,2,6]","","",""
"show-reward","52","106260","0.0-52.0","p776146","A26NGLGGFTATVN","3WPCIUYH1BELQU8EB2L3QVOOKYBTD4","3YMTUJH0DUMBDINF8TPBCBP7QXBT4B","model","mismatch","uniform","","","","","","","","106284.79999995232","108294.69999992847","","","","","","","","","","","","4","","stimuli/stars_4.png","54","","","","","stimuli/BM03_AO.jpg","",""
"explore-choice","53","107792","0.0-53.0","p776146","A26NGLGGFTATVN","3WPCIUYH1BELQU8EB2L3QVOOKYBTD4","3YMTUJH0DUMBDINF8TPBCBP7QXBT4B","model","mismatch","uniform","","","","","","","1030.8999999761581","108295.19999992847","109326.09999990463","[""stimuli/BM03_AO.jpg"",""stimuli/BF04_CC.jpg"",""stimuli/AM06_SUR.jpg"",""stimuli/BM16_HE.jpg""]","stimuli/BM03_AO.jpg","stimuli/BF04_CC.jpg","stimuli/AM06_SUR.jpg","stimuli/BM16_HE.jpg","pos4","stimuli/BM16_HE.jpg","HE","BM16","3","5","10","8","stimuli/stars_10.png","59","[""AO"",""CC"",""SUR"",""HE""]","[""BM03"",""BF04"",""AM06"",""BM16""]","[6,0,5,10]","[6,2,4,8]","","",""
"show-reward","54","109796","0.0-54.0","p776146","A26NGLGGFTATVN","3WPCIUYH1BELQU8EB2L3QVOOKYBTD4","3YMTUJH0DUMBDINF8TPBCBP7QXBT4B","model","mismatch","uniform","","","","","","","","109827.69999992847","111830.29999995232","","","","","","","","","","","","10","","stimuli/stars_10.png","59","","","","","stimuli/BM16_HE.jpg","",""
"explore-choice","55","110902","0.0-55.0","p776146","A26NGLGGFTATVN","3WPCIUYH1BELQU8EB2L3QVOOKYBTD4","3YMTUJH0DUMBDINF8TPBCBP7QXBT4B","model","mismatch","uniform","","","","","","","589.3000000715256","111831.59999990463","112420.89999997616","[""stimuli/BM16_AO.jpg"",""stimuli/BF04_HE.jpg"",""stimuli/AM06_SUR.jpg"",""stimuli/BM03_CC.jpg""]","stimuli/BM16_AO.jpg","stimuli/BF04_HE.jpg","stimuli/AM06_SUR.jpg","stimuli/BM03_CC.jpg","pos2","stimuli/BF04_HE.jpg","HE","BF04","1","2","4","2","stimuli/stars_4.png","61","[""AO"",""HE"",""SUR"",""CC""]","[""BM16"",""BF04"",""AM06"",""BM03""]","[9,4,3,5]","[8,2,4,6]","","",""
"show-reward","56","112914","0.0-56.0","p776146","A26NGLGGFTATVN","3WPCIUYH1BELQU8EB2L3QVOOKYBTD4","3YMTUJH0DUMBDINF8TPBCBP7QXBT4B","model","mismatch","uniform","","","","","","","","112938.09999990463","114948.89999997616","","","","","","","","","","","","4","","stimuli/stars_4.png","61","","","","","stimuli/BF04_HE.jpg","",""
"explore-choice","57","114522","0.0-57.0","p776146","A26NGLGGFTATVN","3WPCIUYH1BELQU8EB2L3QVOOKYBTD4","3YMTUJH0DUMBDINF8TPBCBP7QXBT4B","model","mismatch","uniform","","","","","","","1106.6999999284744","114949.39999997616","116056.09999990463","[""stimuli/AM06_AO.jpg"",""stimuli/BF04_HE.jpg"",""stimuli/BM16_SUR.jpg"",""stimuli/BM03_CC.jpg""]","stimuli/AM06_AO.jpg","stimuli/BF04_HE.jpg","stimuli/BM16_SUR.jpg","stimuli/BM03_CC.jpg","pos2","stimuli/BF04_HE.jpg","HE","BF04","1","1","2","2","stimuli/stars_2.png","62","[""AO"",""HE"",""SUR"",""CC""]","[""AM06"",""BF04"",""BM16"",""BM03""]","[3,2,9,7]","[4,2,8,6]","","",""
"show-reward","58","116525","0.0-58.0","p776146","A26NGLGGFTATVN","3WPCIUYH1BELQU8EB2L3QVOOKYBTD4","3YMTUJH0DUMBDINF8TPBCBP7QXBT4B","model","mismatch","uniform","","","","","","","","116556.79999995232","118559.69999992847","","","","","","","","","","","","2","","stimuli/stars_2.png","62","","","","","stimuli/BF04_HE.jpg","",""
"explore-choice","59","117917","0.0-59.0","p776146","A26NGLGGFTATVN","3WPCIUYH1BELQU8EB2L3QVOOKYBTD4","3YMTUJH0DUMBDINF8TPBCBP7QXBT4B","model","mismatch","uniform","","","","","","","883","118561.09999990463","119444.09999990463","[""stimuli/BF04_CC.jpg"",""stimuli/BM03_AO.jpg"",""stimuli/AM06_SUR.jpg"",""stimuli/BM16_HE.jpg""]","stimuli/BF04_CC.jpg","stimuli/BM03_AO.jpg","stimuli/AM06_SUR.jpg","stimuli/BM16_HE.jpg","pos3","stimuli/AM06_SUR.jpg","SUR","AM06","2","2.5","5","4","stimuli/stars_5.png","64.5","[""CC"",""AO"",""SUR"",""HE""]","[""BF04"",""BM03"",""AM06"",""BM16""]","[0,6,5,10]","[2,6,4,8]","","",""
"show-reward","60","119924","0.0-60.0","p776146","A26NGLGGFTATVN","3WPCIUYH1BELQU8EB2L3QVOOKYBTD4","3YMTUJH0DUMBDINF8TPBCBP7QXBT4B","model","mismatch","uniform","","","","","","","","119953.29999995232","121958","","","","","","","","","","","","5","","stimuli/stars_5.png","64.5","","","","","stimuli/AM06_SUR.jpg","",""
"explore-choice","61","121744","0.0-61.0","p776146","A26NGLGGFTATVN","3WPCIUYH1BELQU8EB2L3QVOOKYBTD4","3YMTUJH0DUMBDINF8TPBCBP7QXBT4B","model","mismatch","uniform","","","","","","","1318.7000000476837","121959.29999995232","123278","[""stimuli/BM16_HE.jpg"",""stimuli/BF04_CC.jpg"",""stimuli/BM03_SUR.jpg"",""stimuli/AM06_AO.jpg""]","stimuli/BM16_HE.jpg","stimuli/BF04_CC.jpg","stimuli/BM03_SUR.jpg","stimuli/AM06_AO.jpg","pos1","stimuli/BM16_HE.jpg","HE","BM16","0","3","6","8","stimuli/stars_6.png","67.5","[""HE"",""CC"",""SUR"",""AO""]","[""BM16"",""BF04"",""BM03"",""AM06""]","[6,1,5,6]","[8,2,6,4]","","",""
"show-reward","62","123750","0.0-62.0","p776146","A26NGLGGFTATVN","3WPCIUYH1BELQU8EB2L3QVOOKYBTD4","3YMTUJH0DUMBDINF8TPBCBP7QXBT4B","model","mismatch","uniform","","","","","","","","123778.89999997616","125784.5","","","","","","","","","","","","6","","stimuli/stars_6.png","67.5","","","","","stimuli/BM16_HE.jpg","",""
"explore-choice","63","124633","0.0-63.0","p776146","A26NGLGGFTATVN","3WPCIUYH1BELQU8EB2L3QVOOKYBTD4","3YMTUJH0DUMBDINF8TPBCBP7QXBT4B","model","mismatch","uniform","","","","","","","379.39999997615814","125785.69999992847","126165.09999990463","[""stimuli/BM03_SUR.jpg"",""stimuli/AM06_HE.jpg"",""stimuli/BF04_CC.jpg"",""stimuli/BM16_AO.jpg""]","stimuli/BM03_SUR.jpg","stimuli/AM06_HE.jpg","stimuli/BF04_CC.jpg","stimuli/BM16_AO.jpg","pos4","stimuli/BM16_AO.jpg","AO","BM16","3","4.5","9","8","stimuli/stars_9.png","72","[""SUR"",""HE"",""CC"",""AO""]","[""BM03"",""AM06"",""BF04"",""BM16""]","[4,5,1,9]","[6,4,2,8]","","",""
"show-reward","64","126639","0.0-64.0","p776146","A26NGLGGFTATVN","3WPCIUYH1BELQU8EB2L3QVOOKYBTD4","3YMTUJH0DUMBDINF8TPBCBP7QXBT4B","model","mismatch","uniform","","","","","","","","126667.89999997616","128672.29999995232","","","","","","","","","","","","9","","stimuli/stars_9.png","72","","","","","stimuli/BM16_AO.jpg","",""
"explore-choice","65","127800","0.0-65.0","p776146","A26NGLGGFTATVN","3WPCIUYH1BELQU8EB2L3QVOOKYBTD4","3YMTUJH0DUMBDINF8TPBCBP7QXBT4B","model","mismatch","uniform","","","","","","","648.3999999761581","128674.39999997616","129322.79999995232","[""stimuli/BM03_SUR.jpg"",""stimuli/AM06_CC.jpg"",""stimuli/BM16_HE.jpg"",""stimuli/BF04_AO.jpg""]","stimuli/BM03_SUR.jpg","stimuli/AM06_CC.jpg","stimuli/BM16_HE.jpg","stimuli/BF04_AO.jpg","pos3","stimuli/BM16_HE.jpg","HE","BM16","2","4.5","9","8","stimuli/stars_9.png","76.5","[""SUR"",""CC"",""HE"",""AO""]","[""BM03"",""AM06"",""BM16"",""BF04""]","[8,6,9,3]","[6,4,8,2]","","",""
"show-reward","66","129803","0.0-66.0","p776146","A26NGLGGFTATVN","3WPCIUYH1BELQU8EB2L3QVOOKYBTD4","3YMTUJH0DUMBDINF8TPBCBP7QXBT4B","model","mismatch","uniform","","","","","","","","129835.29999995232","131837.29999995232","","","","","","","","","","","","9","","stimuli/stars_9.png","76.5","","","","","stimuli/BM16_HE.jpg","",""
"explore-choice","67","131898","0.0-67.0","p776146","A26NGLGGFTATVN","3WPCIUYH1BELQU8EB2L3QVOOKYBTD4","3YMTUJH0DUMBDINF8TPBCBP7QXBT4B","model","mismatch","uniform","","","","","","","1588.3999999761581","131838.5","133426.89999997616","[""stimuli/AM06_HE.jpg"",""stimuli/BF04_SUR.jpg"",""stimuli/BM16_CC.jpg"",""stimuli/BM03_AO.jpg""]","stimuli/AM06_HE.jpg","stimuli/BF04_SUR.jpg","stimuli/BM16_CC.jpg","stimuli/BM03_AO.jpg","pos4","stimuli/BM03_AO.jpg","AO","BM03","3","3.5","7","6","stimuli/stars_7.png","80","[""HE"",""SUR"",""CC"",""AO""]","[""AM06"",""BF04"",""BM16"",""BM03""]","[6,1,6,7]","[4,2,8,6]","","",""
"show-reward","68","133900","0.0-68.0","p776146","A26NGLGGFTATVN","3WPCIUYH1BELQU8EB2L3QVOOKYBTD4","3YMTUJH0DUMBDINF8TPBCBP7QXBT4B","model","mismatch","uniform","","","","","","","","133933","135934.5","","","","","","","","","","","","7","","stimuli/stars_7.png","80","","","","","stimuli/BM03_AO.jpg","",""
"explore-choice","69","135441","0.0-69.0","p776146","A26NGLGGFTATVN","3WPCIUYH1BELQU8EB2L3QVOOKYBTD4","3YMTUJH0DUMBDINF8TPBCBP7QXBT4B","model","mismatch","uniform","","","","","","","1028.1999999284744","135934.89999997616","136963.09999990463","[""stimuli/BF04_SUR.jpg"",""stimuli/AM06_AO.jpg"",""stimuli/BM16_CC.jpg"",""stimuli/BM03_HE.jpg""]","stimuli/BF04_SUR.jpg","stimuli/AM06_AO.jpg","stimuli/BM16_CC.jpg","stimuli/BM03_HE.jpg","pos4","stimuli/BM03_HE.jpg","HE","BM03","3","2.5","5","6","stimuli/stars_5.png","82.5","[""SUR"",""AO"",""CC"",""HE""]","[""BF04"",""AM06"",""BM16"",""BM03""]","[2,6,6,5]","[2,4,8,6]","","",""
"show-reward","70","137455","0.0-70.0","p776146","A26NGLGGFTATVN","3WPCIUYH1BELQU8EB2L3QVOOKYBTD4","3YMTUJH0DUMBDINF8TPBCBP7QXBT4B","model","mismatch","uniform","","","","","","","","137477.29999995232","139489.29999995232","","","","","","","","","","","","5","","stimuli/stars_5.png","82.5","","","","","stimuli/BM03_HE.jpg","",""
"explore-choice","71","138994","0.0-71.0","p776146","A26NGLGGFTATVN","3WPCIUYH1BELQU8EB2L3QVOOKYBTD4","3YMTUJH0DUMBDINF8TPBCBP7QXBT4B","model","mismatch","uniform","","","","","","","1029.6000000238419","139490.29999995232","140519.89999997616","[""stimuli/BM03_AO.jpg"",""stimuli/BF04_HE.jpg"",""stimuli/BM16_CC.jpg"",""stimuli/AM06_SUR.jpg""]","stimuli/BM03_AO.jpg","stimuli/BF04_HE.jpg","stimuli/BM16_CC.jpg","stimuli/AM06_SUR.jpg","pos1","stimuli/BM03_AO.jpg","AO","BM03","0","2","4","6","stimuli/stars_4.png","84.5","[""AO"",""HE"",""CC"",""SUR""]","[""BM03"",""BF04"",""BM16"",""AM06""]","[4,2,8,3]","[6,2,8,4]","","",""
"show-reward","72","140996","0.0-72.0","p776146","A26NGLGGFTATVN","3WPCIUYH1BELQU8EB2L3QVOOKYBTD4","3YMTUJH0DUMBDINF8TPBCBP7QXBT4B","model","mismatch","uniform","","","","","","","","141029.39999997616","143031","","","","","","","","","","","","4","","stimuli/stars_4.png","84.5","","","","","stimuli/BM03_AO.jpg","",""
"explore-choice","73","142103","0.0-73.0","p776146","A26NGLGGFTATVN","3WPCIUYH1BELQU8EB2L3QVOOKYBTD4","3YMTUJH0DUMBDINF8TPBCBP7QXBT4B","model","mismatch","uniform","","","","","","","603.5999999046326","143031.5","143635.09999990463","[""stimuli/BF04_CC.jpg"",""stimuli/AM06_AO.jpg"",""stimuli/BM16_SUR.jpg"",""stimuli/BM03_HE.jpg""]","stimuli/BF04_CC.jpg","stimuli/AM06_AO.jpg","stimuli/BM16_SUR.jpg","stimuli/BM03_HE.jpg","pos2","stimuli/AM06_AO.jpg","AO","AM06","1","2.5","5","4","stimuli/stars_5.png","87","[""CC"",""AO"",""SUR"",""HE""]","[""BF04"",""AM06"",""BM16"",""BM03""]","[3,5,7,7]","[2,4,8,6]","","",""
"show-reward","74","144106","0.0-74.0","p776146","A26NGLGGFTATVN","3WPCIUYH1BELQU8EB2L3QVOOKYBTD4","3YMTUJH0DUMBDINF8TPBCBP7QXBT4B","model","mismatch","uniform","","","","","","","","144138.59999990463","146140.79999995232","","","","","","","","","","","","5","","stimuli/stars_5.png","87","","","","","stimuli/AM06_AO.jpg","",""
"explore-choice","75","146061","0.0-75.0","p776146","A26NGLGGFTATVN","3WPCIUYH1BELQU8EB2L3QVOOKYBTD4","3YMTUJH0DUMBDINF8TPBCBP7QXBT4B","model","mismatch","uniform","","","","","","","1452.7000000476837","146142.29999995232","147595","[""stimuli/BM03_CC.jpg"",""stimuli/BF04_SUR.jpg"",""stimuli/BM16_HE.jpg"",""stimuli/AM06_AO.jpg""]","stimuli/BM03_CC.jpg","stimuli/BF04_SUR.jpg","stimuli/BM16_HE.jpg","stimuli/AM06_AO.jpg","pos4","stimuli/AM06_AO.jpg","AO","AM06","3","3","6","4","stimuli/stars_6.png","90","[""CC"",""SUR"",""HE"",""AO""]","[""BM03"",""BF04"",""BM16"",""AM06""]","[4,2,10,6]","[6,2,8,4]","","",""
"show-reward","76","148076","0.0-76.0","p776146","A26NGLGGFTATVN","3WPCIUYH1BELQU8EB2L3QVOOKYBTD4","3YMTUJH0DUMBDINF8TPBCBP7QXBT4B","model","mismatch","uniform","","","","","","","","148095.69999992847","150110.19999992847","","","","","","","","","","","","6","","stimuli/stars_6.png","90","","","","","stimuli/AM06_AO.jpg","",""
"explore-choice","77","151187","0.0-77.0","p776146","A26NGLGGFTATVN","3WPCIUYH1BELQU8EB2L3QVOOKYBTD4","3YMTUJH0DUMBDINF8TPBCBP7QXBT4B","model","mismatch","uniform","","","","","","","2610.2000000476837","150110.79999995232","152721","[""stimuli/BM03_SUR.jpg"",""stimuli/BM16_AO.jpg"",""stimuli/BF04_HE.jpg"",""stimuli/AM06_CC.jpg""]","stimuli/BM03_SUR.jpg","stimuli/BM16_AO.jpg","stimuli/BF04_HE.jpg","stimuli/AM06_CC.jpg","pos2","stimuli/BM16_AO.jpg","AO","BM16","1","4","8","8","stimuli/stars_8.png","94","[""SUR"",""AO"",""HE"",""CC""]","[""BM03"",""BM16"",""BF04"",""AM06""]","[8,8,1,4]","[6,8,2,4]","","",""
"show-reward","78","153196","0.0-78.0","p776146","A26NGLGGFTATVN","3WPCIUYH1BELQU8EB2L3QVOOKYBTD4","3YMTUJH0DUMBDINF8TPBCBP7QXBT4B","model","mismatch","uniform","","","","","","","","153221.89999997616","155230.09999990463","","","","","","","","","","","","8","","stimuli/stars_8.png","94","","","","","stimuli/BM16_AO.jpg","",""
"explore-choice","79","154635","0.0-79.0","p776146","A26NGLGGFTATVN","3WPCIUYH1BELQU8EB2L3QVOOKYBTD4","3YMTUJH0DUMBDINF8TPBCBP7QXBT4B","model","mismatch","uniform","","","","","","","931.8000000715256","155231.19999992847","156163","[""stimuli/AM06_SUR.jpg"",""stimuli/BF04_AO.jpg"",""stimuli/BM16_CC.jpg"",""stimuli/BM03_HE.jpg""]","stimuli/AM06_SUR.jpg","stimuli/BF04_AO.jpg","stimuli/BM16_CC.jpg","stimuli/BM03_HE.jpg","pos3","stimuli/BM16_CC.jpg","CC","BM16","2","4","8","8","stimuli/stars_8.png","98","[""SUR"",""AO"",""CC"",""HE""]","[""AM06"",""BF04"",""BM16"",""BM03""]","[2,4,8,5]","[4,2,8,6]","","",""
"show-reward","80","156641","0.0-80.0","p776146","A26NGLGGFTATVN","3WPCIUYH1BELQU8EB2L3QVOOKYBTD4","3YMTUJH0DUMBDINF8TPBCBP7QXBT4B","model","mismatch","uniform","","","","","","","","156670.69999992847","158675.5","","","","","","","","","","","","8","","stimuli/stars_8.png","98","","","","","stimuli/BM16_CC.jpg","",""
"explore-choice","81","158068","0.0-81.0","p776146","A26NGLGGFTATVN","3WPCIUYH1BELQU8EB2L3QVOOKYBTD4","3YMTUJH0DUMBDINF8TPBCBP7QXBT4B","model","mismatch","uniform","","","","","","","917.1000000238419","158677.89999997616","159595","[""stimuli/BM03_SUR.jpg"",""stimuli/AM06_AO.jpg"",""stimuli/BM16_CC.jpg"",""stimuli/BF04_HE.jpg""]","stimuli/BM03_SUR.jpg","stimuli/AM06_AO.jpg","stimuli/BM16_CC.jpg","stimuli/BF04_HE.jpg","pos2","stimuli/AM06_AO.jpg","AO","AM06","1","3","6","4","stimuli/stars_6.png","101","[""SUR"",""AO"",""CC"",""HE""]","[""BM03"",""AM06"",""BM16"",""BF04""]","[8,6,6,3]","[6,4,8,2]","","",""
"show-reward","82","160083","0.0-82.0","p776146","A26NGLGGFTATVN","3WPCIUYH1BELQU8EB2L3QVOOKYBTD4","3YMTUJH0DUMBDINF8TPBCBP7QXBT4B","model","mismatch","uniform","","","","","","","","160103","162116.89999997616","","","","","","","","","","","","6","","stimuli/stars_6.png","101","","","","","stimuli/AM06_AO.jpg","",""
"explore-choice","83","161415","0.0-83.0","p776146","A26NGLGGFTATVN","3WPCIUYH1BELQU8EB2L3QVOOKYBTD4","3YMTUJH0DUMBDINF8TPBCBP7QXBT4B","model","mismatch","uniform","","","","","","","822.1000000238419","162118.89999997616","162941","[""stimuli/BM16_HE.jpg"",""stimuli/AM06_SUR.jpg"",""stimuli/BF04_AO.jpg"",""stimuli/BM03_CC.jpg""]","stimuli/BM16_HE.jpg","stimuli/AM06_SUR.jpg","stimuli/BF04_AO.jpg","stimuli/BM03_CC.jpg","pos4","stimuli/BM03_CC.jpg","CC","BM03","3","3.5","7","6","stimuli/stars_7.png","104.5","[""HE"",""SUR"",""AO"",""CC""]","[""BM16"",""AM06"",""BF04"",""BM03""]","[6,4,3,7]","[8,4,2,6]","","",""
"show-reward","84","163434","0.0-84.0","p776146","A26NGLGGFTATVN","3WPCIUYH1BELQU8EB2L3QVOOKYBTD4","3YMTUJH0DUMBDINF8TPBCBP7QXBT4B","model","mismatch","uniform","","","","","","","","163451","165468.5","","","","","","","","","","","","7","","stimuli/stars_7.png","104.5","","","","","stimuli/BM03_CC.jpg","",""
"explore-choice","85","165014","0.0-85.0","p776146","A26NGLGGFTATVN","3WPCIUYH1BELQU8EB2L3QVOOKYBTD4","3YMTUJH0DUMBDINF8TPBCBP7QXBT4B","model","mismatch","uniform","","","","","","","1072.8999999761581","165470","166542.89999997616","[""stimuli/BF04_AO.jpg"",""stimuli/BM16_SUR.jpg"",""stimuli/BM03_HE.jpg"",""stimuli/AM06_CC.jpg""]","stimuli/BF04_AO.jpg","stimuli/BM16_SUR.jpg","stimuli/BM03_HE.jpg","stimuli/AM06_CC.jpg","pos3","stimuli/BM03_HE.jpg","HE","BM03","2","4","8","6","stimuli/stars_8.png","108.5","[""AO"",""SUR"",""HE"",""CC""]","[""BF04"",""BM16"",""BM03"",""AM06""]","[2,9,8,4]","[2,8,6,4]","","",""
"show-reward","86","167017","0.0-86.0","p776146","A26NGLGGFTATVN","3WPCIUYH1BELQU8EB2L3QVOOKYBTD4","3YMTUJH0DUMBDINF8TPBCBP7QXBT4B","model","mismatch","uniform","","","","","","","","167048.89999997616","169051.29999995232","","","","","","","","","","","","8","","stimuli/stars_8.png","108.5","","","","","stimuli/BM03_HE.jpg","",""
"explore-choice","87","168448","0.0-87.0","p776146","A26NGLGGFTATVN","3WPCIUYH1BELQU8EB2L3QVOOKYBTD4","3YMTUJH0DUMBDINF8TPBCBP7QXBT4B","model","mismatch","uniform","","","","","","","928.2999999523163","169051.79999995232","169980.09999990463","[""stimuli/BM16_SUR.jpg"",""stimuli/AM06_CC.jpg"",""stimuli/BM03_AO.jpg"",""stimuli/BF04_HE.jpg""]","stimuli/BM16_SUR.jpg","stimuli/AM06_CC.jpg","stimuli/BM03_AO.jpg","stimuli/BF04_HE.jpg","pos4","stimuli/BF04_HE.jpg","HE","BF04","3","1.5","3","2","stimuli/stars_3.png","110","[""SUR"",""CC"",""AO"",""HE""]","[""BM16"",""AM06"",""BM03"",""BF04""]","[9,6,4,3]","[8,4,6,2]","","",""
"show-reward","88","170456","0.0-88.0","p776146","A26NGLGGFTATVN","3WPCIUYH1BELQU8EB2L3QVOOKYBTD4","3YMTUJH0DUMBDINF8TPBCBP7QXBT4B","model","mismatch","uniform","","","","","","","","170483.89999997616","172490.59999990463","","","","","","","","","","","","3","","stimuli/stars_3.png","110","","","","","stimuli/BF04_HE.jpg","",""
"explore-choice","89","171848","0.0-89.0","p776146","A26NGLGGFTATVN","3WPCIUYH1BELQU8EB2L3QVOOKYBTD4","3YMTUJH0DUMBDINF8TPBCBP7QXBT4B","model","mismatch","uniform","","","","","","","888.1999999284744","172491.89999997616","173380.09999990463","[""stimuli/BM03_CC.jpg"",""stimuli/BM16_AO.jpg"",""stimuli/BF04_SUR.jpg"",""stimuli/AM06_HE.jpg""]","stimuli/BM03_CC.jpg","stimuli/BM16_AO.jpg","stimuli/BF04_SUR.jpg","stimuli/AM06_HE.jpg","pos3","stimuli/BF04_SUR.jpg","SUR","BF04","2","1","2","2","stimuli/stars_2.png","111","[""CC"",""AO"",""SUR"",""HE""]","[""BM03"",""BM16"",""BF04"",""AM06""]","[7,6,2,2]","[6,8,2,4]","","",""
"show-reward","90","173858","0.0-90.0","p776146","A26NGLGGFTATVN","3WPCIUYH1BELQU8EB2L3QVOOKYBTD4","3YMTUJH0DUMBDINF8TPBCBP7QXBT4B","model","mismatch","uniform","","","","","","","","173883.79999995232","175892.39999997616","","","","","","","","","","","","2","","stimuli/stars_2.png","111","","","","","stimuli/BF04_SUR.jpg","",""
"explore-choice","91","175252","0.0-91.0","p776146","A26NGLGGFTATVN","3WPCIUYH1BELQU8EB2L3QVOOKYBTD4","3YMTUJH0DUMBDINF8TPBCBP7QXBT4B","model","mismatch","uniform","","","","","","","888","175893","176781","[""stimuli/AM06_HE.jpg"",""stimuli/BM03_SUR.jpg"",""stimuli/BF04_AO.jpg"",""stimuli/BM16_CC.jpg""]","stimuli/AM06_HE.jpg","stimuli/BM03_SUR.jpg","stimuli/BF04_AO.jpg","stimuli/BM16_CC.jpg","pos2","stimuli/BM03_SUR.jpg","SUR","BM03","1","3","6","6","stimuli/stars_6.png","114","[""HE"",""SUR"",""AO"",""CC""]","[""AM06"",""BM03"",""BF04"",""BM16""]","[4,6,2,7]","[4,6,2,8]","","",""
"show-reward","92","177270","0.0-92.0","p776146","A26NGLGGFTATVN","3WPCIUYH1BELQU8EB2L3QVOOKYBTD4","3YMTUJH0DUMBDINF8TPBCBP7QXBT4B","model","mismatch","uniform","","","","","","","","177287.09999990463","179304.39999997616","","","","","","","","","","","","6","","stimuli/stars_6.png","114","","","","","stimuli/BM03_SUR.jpg","",""
"explore-choice","93","178492","0.0-93.0","p776146","A26NGLGGFTATVN","3WPCIUYH1BELQU8EB2L3QVOOKYBTD4","3YMTUJH0DUMBDINF8TPBCBP7QXBT4B","model","mismatch","uniform","","","","","","","711.8000000715256","179305.19999992847","180017","[""stimuli/BF04_CC.jpg"",""stimuli/AM06_SUR.jpg"",""stimuli/BM16_AO.jpg"",""stimuli/BM03_HE.jpg""]","stimuli/BF04_CC.jpg","stimuli/AM06_SUR.jpg","stimuli/BM16_AO.jpg","stimuli/BM03_HE.jpg","pos4","stimuli/BM03_HE.jpg","HE","BM03","3","4","8","6","stimuli/stars_8.png","118","[""CC"",""SUR"",""AO"",""HE""]","[""BF04"",""AM06"",""BM16"",""BM03""]","[2,4,9,8]","[2,4,8,6]","","",""
"show-reward","94","180494","0.0-94.0","p776146","A26NGLGGFTATVN","3WPCIUYH1BELQU8EB2L3QVOOKYBTD4","3YMTUJH0DUMBDINF8TPBCBP7QXBT4B","model","mismatch","uniform","","","","","","","","180526.69999992847","182528.89999997616","","","","","","","","","","","","8","","stimuli/stars_8.png","118","","","","","stimuli/BM03_HE.jpg","",""
"explore-choice","95","181583","0.0-95.0","p776146","A26NGLGGFTATVN","3WPCIUYH1BELQU8EB2L3QVOOKYBTD4","3YMTUJH0DUMBDINF8TPBCBP7QXBT4B","model","mismatch","uniform","","","","","","","582.5","182529.69999992847","183112.19999992847","[""stimuli/AM06_CC.jpg"",""stimuli/BM03_HE.jpg"",""stimuli/BM16_AO.jpg"",""stimuli/BF04_SUR.jpg""]","stimuli/AM06_CC.jpg","stimuli/BM03_HE.jpg","stimuli/BM16_AO.jpg","stimuli/BF04_SUR.jpg","pos2","stimuli/BM03_HE.jpg","HE","BM03","1","2.5","5","6","stimuli/stars_5.png","120.5","[""CC"",""HE"",""AO"",""SUR""]","[""AM06"",""BM03"",""BM16"",""BF04""]","[3,5,9,4]","[4,6,8,2]","","",""
"show-reward","96","183588","0.0-96.0","p776146","A26NGLGGFTATVN","3WPCIUYH1BELQU8EB2L3QVOOKYBTD4","3YMTUJH0DUMBDINF8TPBCBP7QXBT4B","model","mismatch","uniform","","","","","","","","183619.09999990463","185622.29999995232","","","","","","","","","","","","5","","stimuli/stars_5.png","120.5","","","","","stimuli/BM03_HE.jpg","",""
"explore-choice","97","184916","0.0-97.0","p776146","A26NGLGGFTATVN","3WPCIUYH1BELQU8EB2L3QVOOKYBTD4","3YMTUJH0DUMBDINF8TPBCBP7QXBT4B","model","mismatch","uniform","","","","","","","824.5","185623.59999990463","186448.09999990463","[""stimuli/BF04_SUR.jpg"",""stimuli/AM06_CC.jpg"",""stimuli/BM03_AO.jpg"",""stimuli/BM16_HE.jpg""]","stimuli/BF04_SUR.jpg","stimuli/AM06_CC.jpg","stimuli/BM03_AO.jpg","stimuli/BM16_HE.jpg","pos3","stimuli/BM03_AO.jpg","AO","BM03","2","3.5","7","6","stimuli/stars_7.png","124","[""SUR"",""CC"",""AO"",""HE""]","[""BF04"",""AM06"",""BM03"",""BM16""]","[2,6,7,10]","[2,4,6,8]","","",""
"show-reward","98","186924","0.0-98.0","p776146","A26NGLGGFTATVN","3WPCIUYH1BELQU8EB2L3QVOOKYBTD4","3YMTUJH0DUMBDINF8TPBCBP7QXBT4B","model","mismatch","uniform","","","","","","","","186952","188958.59999990463","","","","","","","","","","","","7","","stimuli/stars_7.png","124","","","","","stimuli/BM03_AO.jpg","",""
"explore-choice","99","188445","0.0-99.0","p776146","A26NGLGGFTATVN","3WPCIUYH1BELQU8EB2L3QVOOKYBTD4","3YMTUJH0DUMBDINF8TPBCBP7QXBT4B","model","mismatch","uniform","","","","","","","1011.8999999761581","188959.19999992847","189971.09999990463","[""stimuli/BM16_SUR.jpg"",""stimuli/AM06_HE.jpg"",""stimuli/BM03_AO.jpg"",""stimuli/BF04_CC.jpg""]","stimuli/BM16_SUR.jpg","stimuli/AM06_HE.jpg","stimuli/BM03_AO.jpg","stimuli/BF04_CC.jpg","pos1","stimuli/BM16_SUR.jpg","SUR","BM16","0","3.5","7","8","stimuli/stars_7.png","127.5","[""SUR"",""HE"",""AO"",""CC""]","[""BM16"",""AM06"",""BM03"",""BF04""]","[7,3,4,0]","[8,4,6,2]","","",""
"show-reward","100","190453","0.0-100.0","p776146","A26NGLGGFTATVN","3WPCIUYH1BELQU8EB2L3QVOOKYBTD4","3YMTUJH0DUMBDINF8TPBCBP7QXBT4B","model","mismatch","uniform","","","","","","","","190480.5","192488","","","","","","","","","","","","7","","stimuli/stars_7.png","127.5","","","","","stimuli/BM16_SUR.jpg","",""
"explore-choice","101","191667","0.0-101.0","p776146","A26NGLGGFTATVN","3WPCIUYH1BELQU8EB2L3QVOOKYBTD4","3YMTUJH0DUMBDINF8TPBCBP7QXBT4B","model","mismatch","uniform","","","","","","","711.3000000715256","192488.59999990463","193199.89999997616","[""stimuli/BM03_CC.jpg"",""stimuli/BM16_SUR.jpg"",""stimuli/AM06_HE.jpg"",""stimuli/BF04_AO.jpg""]","stimuli/BM03_CC.jpg","stimuli/BM16_SUR.jpg","stimuli/AM06_HE.jpg","stimuli/BF04_AO.jpg","pos2","stimuli/BM16_SUR.jpg","SUR","BM16","1","4","8","8","stimuli/stars_8.png","131.5","[""CC"",""SUR"",""HE"",""AO""]","[""BM03"",""BM16"",""AM06"",""BF04""]","[4,8,4,4]","[6,8,4,2]","","",""
"show-reward","102","193672","0.0-102.0","p776146","A26NGLGGFTATVN","3WPCIUYH1BELQU8EB2L3QVOOKYBTD4","3YMTUJH0DUMBDINF8TPBCBP7QXBT4B","model","mismatch","uniform","","","","","","","","193703.09999990463","195705.79999995232","","","","","","","","","","","","8","","stimuli/stars_8.png","131.5","","","","","stimuli/BM16_SUR.jpg","",""
"explore-choice","103","196798","0.0-103.0","p776146","A26NGLGGFTATVN","3WPCIUYH1BELQU8EB2L3QVOOKYBTD4","3YMTUJH0DUMBDINF8TPBCBP7QXBT4B","model","mismatch","uniform","","","","","","","2610.5","195706.59999990463","198317.09999990463","[""stimuli/BF08_FO.jpg"",""stimuli/AM09_DO.jpg"",""stimuli/HF02_HO.jpg"",""stimuli/BF05_SC.jpg""]","stimuli/BF08_FO.jpg","stimuli/AM09_DO.jpg","stimuli/HF02_HO.jpg","stimuli/BF05_SC.jpg","pos2","stimuli/AM09_DO.jpg","DO","AM09","1","2.5","5","6","stimuli/stars_5.png","134","[""FO"",""DO"",""HO"",""SC""]","[""BF08"",""AM09"",""HF02"",""BF05""]","[1,5,6,2]","[2,6,8,4]","","",""
"show-reward","104","198802","0.0-104.0","p776146","A26NGLGGFTATVN","3WPCIUYH1BELQU8EB2L3QVOOKYBTD4","3YMTUJH0DUMBDINF8TPBCBP7QXBT4B","model","mismatch","uniform","","","","","","","","198832.69999992847","200836.09999990463","","","","","","","","","","","","5","","stimuli/stars_5.png","134","","","","","stimuli/AM09_DO.jpg","",""
"explore-choice","105","200053","0.0-105.0","p776146","A26NGLGGFTATVN","3WPCIUYH1BELQU8EB2L3QVOOKYBTD4","3YMTUJH0DUMBDINF8TPBCBP7QXBT4B","model","mismatch","uniform","","","","","","","748.6999999284744","200837.5","201586.19999992847","[""stimuli/BF05_DO.jpg"",""stimuli/HF02_FO.jpg"",""stimuli/BF08_SC.jpg"",""stimuli/AM09_HO.jpg""]","stimuli/BF05_DO.jpg","stimuli/HF02_FO.jpg","stimuli/BF08_SC.jpg","stimuli/AM09_HO.jpg","pos2","stimuli/HF02_FO.jpg","FO","HF02","1","0.5","1","2","stimuli/stars_1.png","134.5","[""DO"",""FO"",""SC"",""HO""]","[""BF05"",""HF02"",""BF08"",""AM09""]","[7,1,2,7]","[6,2,4,8]","","",""
"show-reward","106","202056","0.0-106.0","p776146","A26NGLGGFTATVN","3WPCIUYH1BELQU8EB2L3QVOOKYBTD4","3YMTUJH0DUMBDINF8TPBCBP7QXBT4B","model","mismatch","uniform","","","","","","","","202088","204090.39999997616","","","","","","","","","","","","1","","stimuli/stars_1.png","134.5","","","","","stimuli/HF02_FO.jpg","",""
"explore-choice","107","203624","0.0-107.0","p776146","A26NGLGGFTATVN","3WPCIUYH1BELQU8EB2L3QVOOKYBTD4","3YMTUJH0DUMBDINF8TPBCBP7QXBT4B","model","mismatch","uniform","","","","","","","1053.6999999284744","204092","205145.69999992847","[""stimuli/AM09_HO.jpg"",""stimuli/BF05_SC.jpg"",""stimuli/BF08_FO.jpg"",""stimuli/HF02_DO.jpg""]","stimuli/AM09_HO.jpg","stimuli/BF05_SC.jpg","stimuli/BF08_FO.jpg","stimuli/HF02_DO.jpg","pos3","stimuli/BF08_FO.jpg","FO","BF08","2","1.5","3","2","stimuli/stars_3.png","136","[""HO"",""SC"",""FO"",""DO""]","[""AM09"",""BF05"",""BF08"",""HF02""]","[8,2,3,6]","[8,4,2,6]","","",""
"show-reward","108","205638","0.0-108.0","p776146","A26NGLGGFTATVN","3WPCIUYH1BELQU8EB2L3QVOOKYBTD4","3YMTUJH0DUMBDINF8TPBCBP7QXBT4B","model","mismatch","uniform","","","","","","","","205660","207672.79999995232","","","","","","","","","","","","3","","stimuli/stars_3.png","136","","","","","stimuli/BF08_FO.jpg","",""
"explore-choice","109","207844","0.0-109.0","p776146","A26NGLGGFTATVN","3WPCIUYH1BELQU8EB2L3QVOOKYBTD4","3YMTUJH0DUMBDINF8TPBCBP7QXBT4B","model","mismatch","uniform","","","","","","","1703.6000000238419","207673.39999997616","209377","[""stimuli/BF08_FO.jpg"",""stimuli/HF02_DO.jpg"",""stimuli/AM09_SC.jpg"",""stimuli/BF05_HO.jpg""]","stimuli/BF08_FO.jpg","stimuli/HF02_DO.jpg","stimuli/AM09_SC.jpg","stimuli/BF05_HO.jpg","pos4","stimuli/BF05_HO.jpg","HO","BF05","3","5","10","8","stimuli/stars_10.png","141","[""FO"",""DO"",""SC"",""HO""]","[""BF08"",""HF02"",""AM09"",""BF05""]","[2,6,4,10]","[2,6,4,8]","","",""
"show-reward","110","209850","0.0-110.0","p776146","A26NGLGGFTATVN","3WPCIUYH1BELQU8EB2L3QVOOKYBTD4","3YMTUJH0DUMBDINF8TPBCBP7QXBT4B","model","mismatch","uniform","","","","","","","","209880","211884.29999995232","","","","","","","","","","","","10","","stimuli/stars_10.png","141","","","","","stimuli/BF05_HO.jpg","",""
"explore-choice","111","211312","0.0-111.0","p776146","A26NGLGGFTATVN","3WPCIUYH1BELQU8EB2L3QVOOKYBTD4","3YMTUJH0DUMBDINF8TPBCBP7QXBT4B","model","mismatch","uniform","","","","","","","947.6999999284744","211886.39999997616","212834.09999990463","[""stimuli/BF05_DO.jpg"",""stimuli/HF02_SC.jpg"",""stimuli/BF08_FO.jpg"",""stimuli/AM09_HO.jpg""]","stimuli/BF05_DO.jpg","stimuli/HF02_SC.jpg","stimuli/BF08_FO.jpg","stimuli/AM09_HO.jpg","pos1","stimuli/BF05_DO.jpg","DO","BF05","0","2.5","5","6","stimuli/stars_5.png","143.5","[""DO"",""SC"",""FO"",""HO""]","[""BF05"",""HF02"",""BF08"",""AM09""]","[5,3,1,9]","[6,4,2,8]","","",""
"show-reward","112","213321","0.0-112.0","p776146","A26NGLGGFTATVN","3WPCIUYH1BELQU8EB2L3QVOOKYBTD4","3YMTUJH0DUMBDINF8TPBCBP7QXBT4B","model","mismatch","uniform","","","","","","","","213347.09999990463","215355.09999990463","","","","","","","","","","","","5","","stimuli/stars_5.png","143.5","","","","","stimuli/BF05_DO.jpg","",""
"explore-choice","113","214674","0.0-113.0","p776146","A26NGLGGFTATVN","3WPCIUYH1BELQU8EB2L3QVOOKYBTD4","3YMTUJH0DUMBDINF8TPBCBP7QXBT4B","model","mismatch","uniform","","","","","","","851.8999999761581","215356.19999992847","216208.09999990463","[""stimuli/BF05_HO.jpg"",""stimuli/BF08_DO.jpg"",""stimuli/AM09_FO.jpg"",""stimuli/HF02_SC.jpg""]","stimuli/BF05_HO.jpg","stimuli/BF08_DO.jpg","stimuli/AM09_FO.jpg","stimuli/HF02_SC.jpg","pos1","stimuli/BF05_HO.jpg","HO","BF05","0","5","10","8","stimuli/stars_10.png","148.5","[""HO"",""DO"",""FO"",""SC""]","[""BF05"",""BF08"",""AM09"",""HF02""]","[10,4,0,2]","[8,6,2,4]","","",""
"show-reward","114","216687","0.0-114.0","p776146","A26NGLGGFTATVN","3WPCIUYH1BELQU8EB2L3QVOOKYBTD4","3YMTUJH0DUMBDINF8TPBCBP7QXBT4B","model","mismatch","uniform","","","","","","","","216709.5","218720.89999997616","","","","","","","","","","","","10","","stimuli/stars_10.png","148.5","","","","","stimuli/BF05_HO.jpg","",""
"explore-choice","115","217979","0.0-115.0","p776146","A26NGLGGFTATVN","3WPCIUYH1BELQU8EB2L3QVOOKYBTD4","3YMTUJH0DUMBDINF8TPBCBP7QXBT4B","model","mismatch","uniform","","","","","","","779.6000000238419","218723.39999997616","219503","[""stimuli/BF05_DO.jpg"",""stimuli/AM09_FO.jpg"",""stimuli/HF02_HO.jpg"",""stimuli/BF08_SC.jpg""]","stimuli/BF05_DO.jpg","stimuli/AM09_FO.jpg","stimuli/HF02_HO.jpg","stimuli/BF08_SC.jpg","pos1","stimuli/BF05_DO.jpg","DO","BF05","0","2.5","5","6","stimuli/stars_5.png","151","[""DO"",""FO"",""HO"",""SC""]","[""BF05"",""AM09"",""HF02"",""BF08""]","[5,1,9,2]","[6,2,8,4]","","",""
"show-reward","116","219984","0.0-116.0","p776146","A26NGLGGFTATVN","3WPCIUYH1BELQU8EB2L3QVOOKYBTD4","3YMTUJH0DUMBDINF8TPBCBP7QXBT4B","model","mismatch","uniform","","","","","","","","220014","222018.5","","","","","","","","","","","","5","","stimuli/stars_5.png","151","","","","","stimuli/BF05_DO.jpg","",""
"explore-choice","117","221617","0.0-117.0","p776146","A26NGLGGFTATVN","3WPCIUYH1BELQU8EB2L3QVOOKYBTD4","3YMTUJH0DUMBDINF8TPBCBP7QXBT4B","model","mismatch","uniform","","","","","","","1130.2000000476837","222019.69999992847","223149.89999997616","[""stimuli/HF02_SC.jpg"",""stimuli/AM09_DO.jpg"",""stimuli/BF08_HO.jpg"",""stimuli/BF05_FO.jpg""]","stimuli/HF02_SC.jpg","stimuli/AM09_DO.jpg","stimuli/BF08_HO.jpg","stimuli/BF05_FO.jpg","pos4","stimuli/BF05_FO.jpg","FO","BF05","3","0.5","1","2","stimuli/stars_1.png","151.5","[""SC"",""DO"",""HO"",""FO""]","[""HF02"",""AM09"",""BF08"",""BF05""]","[4,6,6,1]","[4,6,8,2]","","",""
"show-reward","118","223635","0.0-118.0","p776146","A26NGLGGFTATVN","3WPCIUYH1BELQU8EB2L3QVOOKYBTD4","3YMTUJH0DUMBDINF8TPBCBP7QXBT4B","model","mismatch","uniform","","","","","","","","223652.39999997616","225668.59999990463","","","","","","","","","","","","1","","stimuli/stars_1.png","151.5","","","","","stimuli/BF05_FO.jpg","",""
"explore-choice","119","225154","0.0-119.0","p776146","A26NGLGGFTATVN","3WPCIUYH1BELQU8EB2L3QVOOKYBTD4","3YMTUJH0DUMBDINF8TPBCBP7QXBT4B","model","mismatch","uniform","","","","","","","1012.2000000476837","225670.79999995232","226683","[""stimuli/BF08_HO.jpg"",""stimuli/AM09_FO.jpg"",""stimuli/BF05_SC.jpg"",""stimuli/HF02_DO.jpg""]","stimuli/BF08_HO.jpg","stimuli/AM09_FO.jpg","stimuli/BF05_SC.jpg","stimuli/HF02_DO.jpg","pos3","stimuli/BF05_SC.jpg","SC","BF05","2","2.5","5","4","stimuli/stars_5.png","154","[""HO"",""FO"",""SC"",""DO""]","[""BF08"",""AM09"",""BF05"",""HF02""]","[9,1,5,4]","[8,2,4,6]","","",""
"show-reward","120","227160","0.0-120.0","p776146","A26NGLGGFTATVN","3WPCIUYH1BELQU8EB2L3QVOOKYBTD4","3YMTUJH0DUMBDINF8TPBCBP7QXBT4B","model","mismatch","uniform","","","","","","","","227188.89999997616","229194.39999997616","","","","","","","","","","","","5","","stimuli/stars_5.png","154","","","","","stimuli/BF05_SC.jpg","",""
"explore-choice","121","228326","0.0-121.0","p776146","A26NGLGGFTATVN","3WPCIUYH1BELQU8EB2L3QVOOKYBTD4","3YMTUJH0DUMBDINF8TPBCBP7QXBT4B","model","mismatch","uniform","","","","","","","650.2999999523163","229194.79999995232","229845.09999990463","[""stimuli/BF08_DO.jpg"",""stimuli/AM09_HO.jpg"",""stimuli/HF02_FO.jpg"",""stimuli/BF05_SC.jpg""]","stimuli/BF08_DO.jpg","stimuli/AM09_HO.jpg","stimuli/HF02_FO.jpg","stimuli/BF05_SC.jpg","pos4","stimuli/BF05_SC.jpg","SC","BF05","3","1.5","3","4","stimuli/stars_3.png","155.5","[""DO"",""HO"",""FO"",""SC""]","[""BF08"",""AM09"",""HF02"",""BF05""]","[7,6,1,3]","[6,8,2,4]","","",""
"show-reward","122","230335","0.0-122.0","p776146","A26NGLGGFTATVN","3WPCIUYH1BELQU8EB2L3QVOOKYBTD4","3YMTUJH0DUMBDINF8TPBCBP7QXBT4B","model","mismatch","uniform","","","","","","","","230361.79999995232","232368.59999990463","","","","","","","","","","","","3","","stimuli/stars_3.png","155.5","","","","","stimuli/BF05_SC.jpg","",""
"explore-choice","123","231629","0.0-123.0","p776146","A26NGLGGFTATVN","3WPCIUYH1BELQU8EB2L3QVOOKYBTD4","3YMTUJH0DUMBDINF8TPBCBP7QXBT4B","model","mismatch","uniform","","","","","","","789.5","232370.59999990463","233160.09999990463","[""stimuli/HF02_DO.jpg"",""stimuli/BF08_SC.jpg"",""stimuli/BF05_HO.jpg"",""stimuli/AM09_FO.jpg""]","stimuli/HF02_DO.jpg","stimuli/BF08_SC.jpg","stimuli/BF05_HO.jpg","stimuli/AM09_FO.jpg","pos3","stimuli/BF05_HO.jpg","HO","BF05","2","4","8","8","stimuli/stars_8.png","159.5","[""DO"",""SC"",""HO"",""FO""]","[""HF02"",""BF08"",""BF05"",""AM09""]","[4,5,8,0]","[6,4,8,2]","","",""
"show-reward","124","233646","0.0-124.0","p776146","A26NGLGGFTATVN","3WPCIUYH1BELQU8EB2L3QVOOKYBTD4","3YMTUJH0DUMBDINF8TPBCBP7QXBT4B","model","mismatch","uniform","","","","","","","","233665.09999990463","235679.69999992847","","","","","","","","","","","","8","","stimuli/stars_8.png","159.5","","","","","stimuli/BF05_HO.jpg","",""
"explore-choice","125","234769","0.0-125.0","p776146","A26NGLGGFTATVN","3WPCIUYH1BELQU8EB2L3QVOOKYBTD4","3YMTUJH0DUMBDINF8TPBCBP7QXBT4B","model","mismatch","uniform","","","","","","","611.5","235681.5","236293","[""stimuli/BF08_SC.jpg"",""stimuli/AM09_DO.jpg"",""stimuli/HF02_FO.jpg"",""stimuli/BF05_HO.jpg""]","stimuli/BF08_SC.jpg","stimuli/AM09_DO.jpg","stimuli/HF02_FO.jpg","stimuli/BF05_HO.jpg","pos4","stimuli/BF05_HO.jpg","HO","BF05","3","3.5","7","8","stimuli/stars_7.png","163","[""SC"",""DO"",""FO"",""HO""]","[""BF08"",""AM09"",""HF02"",""BF05""]","[3,4,0,7]","[4,6,2,8]","","",""
"show-reward","126","236775","0.0-126.0","p776146","A26NGLGGFTATVN","3WPCIUYH1BELQU8EB2L3QVOOKYBTD4","3YMTUJH0DUMBDINF8TPBCBP7QXBT4B","model","mismatch","uniform","","","","","","","","236804.79999995232","238809.09999990463","","","","","","","","","","","","7","","stimuli/stars_7.png","163","","","","","stimuli/BF05_HO.jpg","",""
"explore-choice","127","238095","0.0-127.0","p776146","A26NGLGGFTATVN","3WPCIUYH1BELQU8EB2L3QVOOKYBTD4","3YMTUJH0DUMBDINF8TPBCBP7QXBT4B","model","mismatch","uniform","","","","","","","812.5","238809.59999990463","239622.09999990463","[""stimuli/BF05_FO.jpg"",""stimuli/AM09_DO.jpg"",""stimuli/BF08_SC.jpg"",""stimuli/HF02_HO.jpg""]","stimuli/BF05_FO.jpg","stimuli/AM09_DO.jpg","stimuli/BF08_SC.jpg","stimuli/HF02_HO.jpg","pos1","stimuli/BF05_FO.jpg","FO","BF05","0","1","2","2","stimuli/stars_2.png","164","[""FO"",""DO"",""SC"",""HO""]","[""BF05"",""AM09"",""BF08"",""HF02""]","[2,7,6,7]","[2,6,4,8]","","",""
"show-reward","128","240107","0.0-128.0","p776146","A26NGLGGFTATVN","3WPCIUYH1BELQU8EB2L3QVOOKYBTD4","3YMTUJH0DUMBDINF8TPBCBP7QXBT4B","model","mismatch","uniform","","","","","","","","240129.59999990463","242140.79999995232","","","","","","","","","","","","2","","stimuli/stars_2.png","164","","","","","stimuli/BF05_FO.jpg","",""
"explore-choice","129","241362","0.0-129.0","p776146","A26NGLGGFTATVN","3WPCIUYH1BELQU8EB2L3QVOOKYBTD4","3YMTUJH0DUMBDINF8TPBCBP7QXBT4B","model","mismatch","uniform","","","","","","","739.4000000953674","242141.59999990463","242881","[""stimuli/BF05_FO.jpg"",""stimuli/BF08_DO.jpg"",""stimuli/HF02_HO.jpg"",""stimuli/AM09_SC.jpg""]","stimuli/BF05_FO.jpg","stimuli/BF08_DO.jpg","stimuli/HF02_HO.jpg","stimuli/AM09_SC.jpg","pos1","stimuli/BF05_FO.jpg","FO","BF05","0","0","0","2","stimuli/stars_0.png","164","[""FO"",""DO"",""HO"",""SC""]","[""BF05"",""BF08"",""HF02"",""AM09""]","[0,4,6,6]","[2,6,8,4]","","",""
"show-reward","130","243370","0.0-130.0","p776146","A26NGLGGFTATVN","3WPCIUYH1BELQU8EB2L3QVOOKYBTD4","3YMTUJH0DUMBDINF8TPBCBP7QXBT4B","model","mismatch","uniform","","","","","","","","243397.39999997616","245403.69999992847","","","","","","","","","","","","0","","stimuli/stars_0.png","164","","","","","stimuli/BF05_FO.jpg","",""
"explore-choice","131","244692","0.0-131.0","p776146","A26NGLGGFTATVN","3WPCIUYH1BELQU8EB2L3QVOOKYBTD4","3YMTUJH0DUMBDINF8TPBCBP7QXBT4B","model","mismatch","uniform","","","","","","","814.1000000238419","245404.89999997616","246219","[""stimuli/BF08_DO.jpg"",""stimuli/AM09_FO.jpg"",""stimuli/HF02_HO.jpg"",""stimuli/BF05_SC.jpg""]","stimuli/BF08_DO.jpg","stimuli/AM09_FO.jpg","stimuli/HF02_HO.jpg","stimuli/BF05_SC.jpg","pos4","stimuli/BF05_SC.jpg","SC","BF05","3","1","2","4","stimuli/stars_2.png","165","[""DO"",""FO"",""HO"",""SC""]","[""BF08"",""AM09"",""HF02"",""BF05""]","[6,4,10,2]","[6,2,8,4]","","",""
"show-reward","132","246696","0.0-132.0","p776146","A26NGLGGFTATVN","3WPCIUYH1BELQU8EB2L3QVOOKYBTD4","3YMTUJH0DUMBDINF8TPBCBP7QXBT4B","model","mismatch","uniform","","","","","","","","246727.5","248730.29999995232","","","","","","","","","","","","2","","stimuli/stars_2.png","165","","","","","stimuli/BF05_SC.jpg","",""
"explore-choice","133","248023","0.0-133.0","p776146","A26NGLGGFTATVN","3WPCIUYH1BELQU8EB2L3QVOOKYBTD4","3YMTUJH0DUMBDINF8TPBCBP7QXBT4B","model","mismatch","uniform","","","","","","","822.5","248730.59999990463","249553.09999990463","[""stimuli/BF05_SC.jpg"",""stimuli/BF08_HO.jpg"",""stimuli/HF02_FO.jpg"",""stimuli/AM09_DO.jpg""]","stimuli/BF05_SC.jpg","stimuli/BF08_HO.jpg","stimuli/HF02_FO.jpg","stimuli/AM09_DO.jpg","pos4","stimuli/AM09_DO.jpg","DO","AM09","3","2.5","5","6","stimuli/stars_5.png","167.5","[""SC"",""HO"",""FO"",""DO""]","[""BF05"",""BF08"",""HF02"",""AM09""]","[3,7,0,5]","[4,8,2,6]","","",""
"show-reward","134","250034","0.0-134.0","p776146","A26NGLGGFTATVN","3WPCIUYH1BELQU8EB2L3QVOOKYBTD4","3YMTUJH0DUMBDINF8TPBCBP7QXBT4B","model","mismatch","uniform","","","","","","","","250058","252068.29999995232","","","","","","","","","","","","5","","stimuli/stars_5.png","167.5","","","","","stimuli/AM09_DO.jpg","",""
"explore-choice","135","251243","0.0-135.0","p776146","A26NGLGGFTATVN","3WPCIUYH1BELQU8EB2L3QVOOKYBTD4","3YMTUJH0DUMBDINF8TPBCBP7QXBT4B","model","mismatch","uniform","","","","","","","705.8000000715256","252070.19999992847","252776","[""stimuli/BF05_HO.jpg"",""stimuli/AM09_SC.jpg"",""stimuli/BF08_DO.jpg"",""stimuli/HF02_FO.jpg""]","stimuli/BF05_HO.jpg","stimuli/AM09_SC.jpg","stimuli/BF08_DO.jpg","stimuli/HF02_FO.jpg","pos2","stimuli/AM09_SC.jpg","SC","AM09","1","1","2","4","stimuli/stars_2.png","168.5","[""HO"",""SC"",""DO"",""FO""]","[""BF05"",""AM09"",""BF08"",""HF02""]","[6,2,5,4]","[8,4,6,2]","","",""
"show-reward","136","253253","0.0-136.0","p776146","A26NGLGGFTATVN","3WPCIUYH1BELQU8EB2L3QVOOKYBTD4","3YMTUJH0DUMBDINF8TPBCBP7QXBT4B","model","mismatch","uniform","","","","","","","","253277.39999997616","255286.69999992847","","","","","","","","","","","","2","","stimuli/stars_2.png","168.5","","","","","stimuli/AM09_SC.jpg","",""
"explore-choice","137","254426","0.0-137.0","p776146","A26NGLGGFTATVN","3WPCIUYH1BELQU8EB2L3QVOOKYBTD4","3YMTUJH0DUMBDINF8TPBCBP7QXBT4B","model","mismatch","uniform","","","","","","","667","255287.89999997616","255954.89999997616","[""stimuli/AM09_SC.jpg"",""stimuli/HF02_DO.jpg"",""stimuli/BF05_FO.jpg"",""stimuli/BF08_HO.jpg""]","stimuli/AM09_SC.jpg","stimuli/HF02_DO.jpg","stimuli/BF05_FO.jpg","stimuli/BF08_HO.jpg","pos4","stimuli/BF08_HO.jpg","HO","BF08","3","4","8","8","stimuli/stars_8.png","172.5","[""SC"",""DO"",""FO"",""HO""]","[""AM09"",""HF02"",""BF05"",""BF08""]","[6,8,1,8]","[4,6,2,8]","","",""
"show-reward","138","256436","0.0-138.0","p776146","A26NGLGGFTATVN","3WPCIUYH1BELQU8EB2L3QVOOKYBTD4","3YMTUJH0DUMBDINF8TPBCBP7QXBT4B","model","mismatch","uniform","","","","","","","","256460.69999992847","258470.59999990463","","","","","","","","","","","","8","","stimuli/stars_8.png","172.5","","","","","stimuli/BF08_HO.jpg","",""
"explore-choice","139","257579","0.0-139.0","p776146","A26NGLGGFTATVN","3WPCIUYH1BELQU8EB2L3QVOOKYBTD4","3YMTUJH0DUMBDINF8TPBCBP7QXBT4B","model","mismatch","uniform","","","","","","","627","258471.29999995232","259098.29999995232","[""stimuli/BF08_FO.jpg"",""stimuli/BF05_HO.jpg"",""stimuli/AM09_DO.jpg"",""stimuli/HF02_SC.jpg""]","stimuli/BF08_FO.jpg","stimuli/BF05_HO.jpg","stimuli/AM09_DO.jpg","stimuli/HF02_SC.jpg","pos1","stimuli/BF08_FO.jpg","FO","BF08","0","0","0","2","stimuli/stars_0.png","172.5","[""FO"",""HO"",""DO"",""SC""]","[""BF08"",""BF05"",""AM09"",""HF02""]","[0,10,7,5]","[2,8,6,4]","","",""
"show-reward","140","259584","0.0-140.0","p776146","A26NGLGGFTATVN","3WPCIUYH1BELQU8EB2L3QVOOKYBTD4","3YMTUJH0DUMBDINF8TPBCBP7QXBT4B","model","mismatch","uniform","","","","","","","","259615.09999990463","261618.5","","","","","","","","","","","","0","","stimuli/stars_0.png","172.5","","","","","stimuli/BF08_FO.jpg","",""
"explore-choice","141","260444","0.0-141.0","p776146","A26NGLGGFTATVN","3WPCIUYH1BELQU8EB2L3QVOOKYBTD4","3YMTUJH0DUMBDINF8TPBCBP7QXBT4B","model","mismatch","uniform","","","","","","","354.09999990463257","261619","261973.09999990463","[""stimuli/BF08_HO.jpg"",""stimuli/BF05_DO.jpg"",""stimuli/HF02_FO.jpg"",""stimuli/AM09_SC.jpg""]","stimuli/BF08_HO.jpg","stimuli/BF05_DO.jpg","stimuli/HF02_FO.jpg","stimuli/AM09_SC.jpg","pos3","stimuli/HF02_FO.jpg","FO","HF02","2","1","2","2","stimuli/stars_2.png","173.5","[""HO"",""DO"",""FO"",""SC""]","[""BF08"",""BF05"",""HF02"",""AM09""]","[8,4,2,2]","[8,6,2,4]","","",""
"show-reward","142","262461","0.0-142.0","p776146","A26NGLGGFTATVN","3WPCIUYH1BELQU8EB2L3QVOOKYBTD4","3YMTUJH0DUMBDINF8TPBCBP7QXBT4B","model","mismatch","uniform","","","","","","","","262478.6999999285","264495.39999997616","","","","","","","","","","","","2","","stimuli/stars_2.png","173.5","","","","","stimuli/HF02_FO.jpg","",""
"explore-choice","143","263299","0.0-143.0","p776146","A26NGLGGFTATVN","3WPCIUYH1BELQU8EB2L3QVOOKYBTD4","3YMTUJH0DUMBDINF8TPBCBP7QXBT4B","model","mismatch","uniform","","","","","","","323.7999999523163","264497.2999999523","264821.09999990463","[""stimuli/BF05_FO.jpg"",""stimuli/HF02_SC.jpg"",""stimuli/AM09_HO.jpg"",""stimuli/BF08_DO.jpg""]","stimuli/BF05_FO.jpg","stimuli/HF02_SC.jpg","stimuli/AM09_HO.jpg","stimuli/BF08_DO.jpg","pos2","stimuli/HF02_SC.jpg","SC","HF02","1","1","2","4","stimuli/stars_2.png","174.5","[""FO"",""SC"",""HO"",""DO""]","[""BF05"",""HF02"",""AM09"",""BF08""]","[3,2,7,7]","[2,4,8,6]","","",""
"show-reward","144","265301","0.0-144.0","p776146","A26NGLGGFTATVN","3WPCIUYH1BELQU8EB2L3QVOOKYBTD4","3YMTUJH0DUMBDINF8TPBCBP7QXBT4B","model","mismatch","uniform","","","","","","","","265333.59999990463","267334.89999997616","","","","","","","","","","","","2","","stimuli/stars_2.png","174.5","","","","","stimuli/HF02_SC.jpg","",""
"explore-choice","145","266412","0.0-145.0","p776146","A26NGLGGFTATVN","3WPCIUYH1BELQU8EB2L3QVOOKYBTD4","3YMTUJH0DUMBDINF8TPBCBP7QXBT4B","model","mismatch","uniform","","","","","","","599.2999999523163","267335.7999999523","267935.09999990463","[""stimuli/HF02_SC.jpg"",""stimuli/AM09_FO.jpg"",""stimuli/BF08_HO.jpg"",""stimuli/BF05_DO.jpg""]","stimuli/HF02_SC.jpg","stimuli/AM09_FO.jpg","stimuli/BF08_HO.jpg","stimuli/BF05_DO.jpg","pos4","stimuli/BF05_DO.jpg","DO","BF05","3","2","4","6","stimuli/stars_4.png","176.5","[""SC"",""FO"",""HO"",""DO""]","[""HF02"",""AM09"",""BF08"",""BF05""]","[5,1,6,4]","[4,2,8,6]","","",""
"show-reward","146","268418","0.0-146.0","p776146","A26NGLGGFTATVN","3WPCIUYH1BELQU8EB2L3QVOOKYBTD4","3YMTUJH0DUMBDINF8TPBCBP7QXBT4B","model","mismatch","uniform","","","","","","","","268447.39999997616","270452.5","","","","","","","","","","","","4","","stimuli/stars_4.png","176.5","","","","","stimuli/BF05_DO.jpg","",""
"explore-choice","147","269920","0.0-147.0","p776146","A26NGLGGFTATVN","3WPCIUYH1BELQU8EB2L3QVOOKYBTD4","3YMTUJH0DUMBDINF8TPBCBP7QXBT4B","model","mismatch","uniform","","","","","","","1000.8999999761581","270453.1999999285","271454.09999990463","[""stimuli/AM09_HO.jpg"",""stimuli/BF05_FO.jpg"",""stimuli/BF08_SC.jpg"",""stimuli/HF02_DO.jpg""]","stimuli/AM09_HO.jpg","stimuli/BF05_FO.jpg","stimuli/BF08_SC.jpg","stimuli/HF02_DO.jpg","pos4","stimuli/HF02_DO.jpg","DO","HF02","3","3.5","7","6","stimuli/stars_7.png","180","[""HO"",""FO"",""SC"",""DO""]","[""AM09"",""BF05"",""BF08"",""HF02""]","[7,4,5,7]","[8,2,4,6]","","",""
"show-reward","148","271924","0.0-148.0","p776146","A26NGLGGFTATVN","3WPCIUYH1BELQU8EB2L3QVOOKYBTD4","3YMTUJH0DUMBDINF8TPBCBP7QXBT4B","model","mismatch","uniform","","","","","","","","271955.1999999285","273957.7999999523","","","","","","","","","","","","7","","stimuli/stars_7.png","180","","","","","stimuli/HF02_DO.jpg","",""
"explore-choice","149","272761","0.0-149.0","p776146","A26NGLGGFTATVN","3WPCIUYH1BELQU8EB2L3QVOOKYBTD4","3YMTUJH0DUMBDINF8TPBCBP7QXBT4B","model","mismatch","uniform","","","","","","","336.1999999284744","273959","274295.1999999285","[""stimuli/BF05_DO.jpg"",""stimuli/AM09_SC.jpg"",""stimuli/BF08_FO.jpg"",""stimuli/HF02_HO.jpg""]","stimuli/BF05_DO.jpg","stimuli/AM09_SC.jpg","stimuli/BF08_FO.jpg","stimuli/HF02_HO.jpg","pos2","stimuli/AM09_SC.jpg","SC","AM09","1","3","6","4","stimuli/stars_6.png","183","[""DO"",""SC"",""FO"",""HO""]","[""BF05"",""AM09"",""BF08"",""HF02""]","[8,6,3,9]","[6,4,2,8]","","",""
"show-reward","150","274766","0.0-150.0","p776146","A26NGLGGFTATVN","3WPCIUYH1BELQU8EB2L3QVOOKYBTD4","3YMTUJH0DUMBDINF8TPBCBP7QXBT4B","model","mismatch","uniform","","","","","","","","274796.5","276800.2999999523","","","","","","","","","","","","6","","stimuli/stars_6.png","183","","","","","stimuli/AM09_SC.jpg","",""
"explore-choice","151","276349","0.0-151.0","p776146","A26NGLGGFTATVN","3WPCIUYH1BELQU8EB2L3QVOOKYBTD4","3YMTUJH0DUMBDINF8TPBCBP7QXBT4B","model","mismatch","uniform","","","","","","","1080.8999999761581","276802","277882.89999997616","[""stimuli/BF08_FO.jpg"",""stimuli/BF05_HO.jpg"",""stimuli/HF02_SC.jpg"",""stimuli/AM09_DO.jpg""]","stimuli/BF08_FO.jpg","stimuli/BF05_HO.jpg","stimuli/HF02_SC.jpg","stimuli/AM09_DO.jpg","pos2","stimuli/BF05_HO.jpg","HO","BF05","1","5","10","8","stimuli/stars_10.png","188","[""FO"",""HO"",""SC"",""DO""]","[""BF08"",""BF05"",""HF02"",""AM09""]","[0,10,5,7]","[2,8,4,6]","","",""
"show-reward","152","278354","0.0-152.0","p776146","A26NGLGGFTATVN","3WPCIUYH1BELQU8EB2L3QVOOKYBTD4","3YMTUJH0DUMBDINF8TPBCBP7QXBT4B","model","mismatch","uniform","","","","","","","","278384.89999997616","280388.09999990463","","","","","","","","","","","","10","","stimuli/stars_10.png","188","","","","","stimuli/BF05_HO.jpg","",""
"explore-choice","153","279588","0.0-153.0","p776146","A26NGLGGFTATVN","3WPCIUYH1BELQU8EB2L3QVOOKYBTD4","3YMTUJH0DUMBDINF8TPBCBP7QXBT4B","model","mismatch","uniform","","","","","","","727.5999999046326","280388.5","281116.09999990463","[""stimuli/HF02_HO.jpg"",""stimuli/BF08_FO.jpg"",""stimuli/AM09_DO.jpg"",""stimuli/BF05_SC.jpg""]","stimuli/HF02_HO.jpg","stimuli/BF08_FO.jpg","stimuli/AM09_DO.jpg","stimuli/BF05_SC.jpg","pos4","stimuli/BF05_SC.jpg","SC","BF05","3","1","2","4","stimuli/stars_2.png","189","[""HO"",""FO"",""DO"",""SC""]","[""HF02"",""BF08"",""AM09"",""BF05""]","[6,1,5,2]","[8,2,6,4]","","",""
"show-reward","154","281593","0.0-154.0","p776146","A26NGLGGFTATVN","3WPCIUYH1BELQU8EB2L3QVOOKYBTD4","3YMTUJH0DUMBDINF8TPBCBP7QXBT4B","model","mismatch","uniform","","","","","","","","281624","283627.5","","","","","","","","","","","","2","","stimuli/stars_2.png","189","","","","","stimuli/BF05_SC.jpg","",""
"explore-choice","155","282871","0.0-155.0","p776146","A26NGLGGFTATVN","3WPCIUYH1BELQU8EB2L3QVOOKYBTD4","3YMTUJH0DUMBDINF8TPBCBP7QXBT4B","model","mismatch","uniform","","","","","","","775.3999999761581","283628.6999999285","284404.09999990463","[""stimuli/BF05_FO.jpg"",""stimuli/BF08_DO.jpg"",""stimuli/AM09_SC.jpg"",""stimuli/HF02_HO.jpg""]","stimuli/BF05_FO.jpg","stimuli/BF08_DO.jpg","stimuli/AM09_SC.jpg","stimuli/HF02_HO.jpg","pos1","stimuli/BF05_FO.jpg","FO","BF05","0","0","0","2","stimuli/stars_0.png","189","[""FO"",""DO"",""SC"",""HO""]","[""BF05"",""BF08"",""AM09"",""HF02""]","[0,4,6,6]","[2,6,4,8]","","",""
"show-reward","156","284877","0.0-156.0","p776146","A26NGLGGFTATVN","3WPCIUYH1BELQU8EB2L3QVOOKYBTD4","3YMTUJH0DUMBDINF8TPBCBP7QXBT4B","model","mismatch","uniform","","","","","","","","284906.6999999285","286911.2999999523","","","","","","","","","","","","0","","stimuli/stars_0.png","189","","","","","stimuli/BF05_FO.jpg","",""
"explore-choice","157","285977","0.0-157.0","p776146","A26NGLGGFTATVN","3WPCIUYH1BELQU8EB2L3QVOOKYBTD4","3YMTUJH0DUMBDINF8TPBCBP7QXBT4B","model","mismatch","uniform","","","","","","","590.8000000715256","286912.1999999285","287503","[""stimuli/AM09_HO.jpg"",""stimuli/BF05_FO.jpg"",""stimuli/HF02_DO.jpg"",""stimuli/BF08_SC.jpg""]","stimuli/AM09_HO.jpg","stimuli/BF05_FO.jpg","stimuli/HF02_DO.jpg","stimuli/BF08_SC.jpg","pos2","stimuli/BF05_FO.jpg","FO","BF05","1","2","4","2","stimuli/stars_4.png","191","[""HO"",""FO"",""DO"",""SC""]","[""AM09"",""BF05"",""HF02"",""BF08""]","[7,4,7,5]","[8,2,6,4]","","",""
"show-reward","158","287994","0.0-158.0","p776146","A26NGLGGFTATVN","3WPCIUYH1BELQU8EB2L3QVOOKYBTD4","3YMTUJH0DUMBDINF8TPBCBP7QXBT4B","model","mismatch","uniform","","","","","","","","288012.59999990463","290028.6999999285","","","","","","","","","","","","4","","stimuli/stars_4.png","191","","","","","stimuli/BF05_FO.jpg","",""
"explore-choice","159","289353","0.0-159.0","p776146","A26NGLGGFTATVN","3WPCIUYH1BELQU8EB2L3QVOOKYBTD4","3YMTUJH0DUMBDINF8TPBCBP7QXBT4B","model","mismatch","uniform","","","","","","","846.5","290030.5","290877","[""stimuli/BF08_SC.jpg"",""stimuli/AM09_HO.jpg"",""stimuli/HF02_FO.jpg"",""stimuli/BF05_DO.jpg""]","stimuli/BF08_SC.jpg","stimuli/AM09_HO.jpg","stimuli/HF02_FO.jpg","stimuli/BF05_DO.jpg","pos4","stimuli/BF05_DO.jpg","DO","BF05","3","3.5","7","6","stimuli/stars_7.png","194.5","[""SC"",""HO"",""FO"",""DO""]","[""BF08"",""AM09"",""HF02"",""BF05""]","[2,7,1,7]","[4,8,2,6]","","",""
"show-reward","160","291358","0.0-160.0","p776146","A26NGLGGFTATVN","3WPCIUYH1BELQU8EB2L3QVOOKYBTD4","3YMTUJH0DUMBDINF8TPBCBP7QXBT4B","model","mismatch","uniform","","","","","","","","291388.5","293392.39999997616","","","","","","","","","","","","7","","stimuli/stars_7.png","194.5","","","","","stimuli/BF05_DO.jpg","",""
"explore-choice","161","292531","0.0-161.0","p776146","A26NGLGGFTATVN","3WPCIUYH1BELQU8EB2L3QVOOKYBTD4","3YMTUJH0DUMBDINF8TPBCBP7QXBT4B","model","mismatch","uniform","","","","","","","658.8999999761581","293393.1999999285","294052.09999990463","[""stimuli/HF02_DO.jpg"",""stimuli/BF05_HO.jpg"",""stimuli/BF08_FO.jpg"",""stimuli/AM09_SC.jpg""]","stimuli/HF02_DO.jpg","stimuli/BF05_HO.jpg","stimuli/BF08_FO.jpg","stimuli/AM09_SC.jpg","pos2","stimuli/BF05_HO.jpg","HO","BF05","1","5","10","8","stimuli/stars_10.png","199.5","[""DO"",""HO"",""FO"",""SC""]","[""HF02"",""BF05"",""BF08"",""AM09""]","[6,10,2,4]","[6,8,2,4]","","",""
"show-reward","162","294533","0.0-162.0","p776146","A26NGLGGFTATVN","3WPCIUYH1BELQU8EB2L3QVOOKYBTD4","3YMTUJH0DUMBDINF8TPBCBP7QXBT4B","model","mismatch","uniform","","","","","","","","294565.6999999285","296567.39999997616","","","","","","","","","","","","10","","stimuli/stars_10.png","199.5","","","","","stimuli/BF05_HO.jpg","",""
"explore-choice","163","295934","0.0-163.0","p776146","A26NGLGGFTATVN","3WPCIUYH1BELQU8EB2L3QVOOKYBTD4","3YMTUJH0DUMBDINF8TPBCBP7QXBT4B","model","mismatch","uniform","","","","","","","886.8999999761581","296568","297454.89999997616","[""stimuli/BF08_FO.jpg"",""stimuli/BF05_DO.jpg"",""stimuli/HF02_SC.jpg"",""stimuli/AM09_HO.jpg""]","stimuli/BF08_FO.jpg","stimuli/BF05_DO.jpg","stimuli/HF02_SC.jpg","stimuli/AM09_HO.jpg","pos2","stimuli/BF05_DO.jpg","DO","BF05","1","2.5","5","6","stimuli/stars_5.png","202","[""FO"",""DO"",""SC"",""HO""]","[""BF08"",""BF05"",""HF02"",""AM09""]","[1,5,3,9]","[2,6,4,8]","","",""
"show-reward","164","297944","0.0-164.0","p776146","A26NGLGGFTATVN","3WPCIUYH1BELQU8EB2L3QVOOKYBTD4","3YMTUJH0DUMBDINF8TPBCBP7QXBT4B","model","mismatch","uniform","","","","","","","","297969","299978.7999999523","","","","","","","","","","","","5","","stimuli/stars_5.png","202","","","","","stimuli/BF05_DO.jpg","",""
"explore-choice","165","299314","0.0-165.0","p776146","A26NGLGGFTATVN","3WPCIUYH1BELQU8EB2L3QVOOKYBTD4","3YMTUJH0DUMBDINF8TPBCBP7QXBT4B","model","mismatch","uniform","","","","","","","861.7999999523163","299979.39999997616","300841.1999999285","[""stimuli/BF05_HO.jpg"",""stimuli/HF02_FO.jpg"",""stimuli/BF08_DO.jpg"",""stimuli/AM09_SC.jpg""]","stimuli/BF05_HO.jpg","stimuli/HF02_FO.jpg","stimuli/BF08_DO.jpg","stimuli/AM09_SC.jpg","pos1","stimuli/BF05_HO.jpg","HO","BF05","0","3","6","8","stimuli/stars_6.png","205","[""HO"",""FO"",""DO"",""SC""]","[""BF05"",""HF02"",""BF08"",""AM09""]","[6,4,5,2]","[8,2,6,4]","","",""
"show-reward","166","301315","0.0-166.0","p776146","A26NGLGGFTATVN","3WPCIUYH1BELQU8EB2L3QVOOKYBTD4","3YMTUJH0DUMBDINF8TPBCBP7QXBT4B","model","mismatch","uniform","","","","","","","","301348.59999990463","303349.59999990463","","","","","","","","","","","","6","","stimuli/stars_6.png","205","","","","","stimuli/BF05_HO.jpg","",""
"explore-choice","167","302703","0.0-167.0","p776146","A26NGLGGFTATVN","3WPCIUYH1BELQU8EB2L3QVOOKYBTD4","3YMTUJH0DUMBDINF8TPBCBP7QXBT4B","model","mismatch","uniform","","","","","","","874.5","303351.39999997616","304225.89999997616","[""stimuli/AM09_HO.jpg"",""stimuli/HF02_SC.jpg"",""stimuli/BF05_FO.jpg"",""stimuli/BF08_DO.jpg""]","stimuli/AM09_HO.jpg","stimuli/HF02_SC.jpg","stimuli/BF05_FO.jpg","stimuli/BF08_DO.jpg","pos3","stimuli/BF05_FO.jpg","FO","BF05","2","1.5","3","2","stimuli/stars_3.png","206.5","[""HO"",""SC"",""FO"",""DO""]","[""AM09"",""HF02"",""BF05"",""BF08""]","[7,2,3,7]","[8,4,2,6]","","",""
"show-reward","168","304708","0.0-168.0","p776146","A26NGLGGFTATVN","3WPCIUYH1BELQU8EB2L3QVOOKYBTD4","3YMTUJH0DUMBDINF8TPBCBP7QXBT4B","model","mismatch","uniform","","","","","","","","304739.09999990463","306742","","","","","","","","","","","","3","","stimuli/stars_3.png","206.5","","","","","stimuli/BF05_FO.jpg","",""
"explore-choice","169","306127","0.0-169.0","p776146","A26NGLGGFTATVN","3WPCIUYH1BELQU8EB2L3QVOOKYBTD4","3YMTUJH0DUMBDINF8TPBCBP7QXBT4B","model","mismatch","uniform","","","","","","","912.6000000238419","306742.39999997616","307655","[""stimuli/BF05_DO.jpg"",""stimuli/BF08_HO.jpg"",""stimuli/AM09_FO.jpg"",""stimuli/HF02_SC.jpg""]","stimuli/BF05_DO.jpg","stimuli/BF08_HO.jpg","stimuli/AM09_FO.jpg","stimuli/HF02_SC.jpg","pos1","stimuli/BF05_DO.jpg","DO","BF05","0","2","4","6","stimuli/stars_4.png","208.5","[""DO"",""HO"",""FO"",""SC""]","[""BF05"",""BF08"",""AM09"",""HF02""]","[4,6,1,5]","[6,8,2,4]","","",""
"show-reward","170","308130","0.0-170.0","p776146","A26NGLGGFTATVN","3WPCIUYH1BELQU8EB2L3QVOOKYBTD4","3YMTUJH0DUMBDINF8TPBCBP7QXBT4B","model","mismatch","uniform","","","","","","","","308161.39999997616","310164.5","","","","","","","","","","","","4","","stimuli/stars_4.png","208.5","","","","","stimuli/BF05_DO.jpg","",""
"explore-choice","171","309397","0.0-171.0","p776146","A26NGLGGFTATVN","3WPCIUYH1BELQU8EB2L3QVOOKYBTD4","3YMTUJH0DUMBDINF8TPBCBP7QXBT4B","model","mismatch","uniform","","","","","","","760.8999999761581","310165.1999999285","310926.09999990463","[""stimuli/HF02_FO.jpg"",""stimuli/AM09_SC.jpg"",""stimuli/BF08_HO.jpg"",""stimuli/BF05_DO.jpg""]","stimuli/HF02_FO.jpg","stimuli/AM09_SC.jpg","stimuli/BF08_HO.jpg","stimuli/BF05_DO.jpg","pos4","stimuli/BF05_DO.jpg","DO","BF05","3","2","4","6","stimuli/stars_4.png","210.5","[""FO"",""SC"",""HO"",""DO""]","[""HF02"",""AM09"",""BF08"",""BF05""]","[2,2,8,4]","[2,4,8,6]","","",""
"show-reward","172","311410","0.0-172.0","p776146","A26NGLGGFTATVN","3WPCIUYH1BELQU8EB2L3QVOOKYBTD4","3YMTUJH0DUMBDINF8TPBCBP7QXBT4B","model","mismatch","uniform","","","","","","","","311432.59999990463","313444.2999999523","","","","","","","","","","","","4","","stimuli/stars_4.png","210.5","","","","","stimuli/BF05_DO.jpg","",""
"explore-choice","173","314041","0.0-173.0","p776146","A26NGLGGFTATVN","3WPCIUYH1BELQU8EB2L3QVOOKYBTD4","3YMTUJH0DUMBDINF8TPBCBP7QXBT4B","model","mismatch","uniform","","","","","","","2128.7000000476837","313445.1999999285","315573.89999997616","[""stimuli/AM09_SC.jpg"",""stimuli/BF05_DO.jpg"",""stimuli/BF08_FO.jpg"",""stimuli/HF02_HO.jpg""]","stimuli/AM09_SC.jpg","stimuli/BF05_DO.jpg","stimuli/BF08_FO.jpg","stimuli/HF02_HO.jpg","pos3","stimuli/BF08_FO.jpg","FO","BF08","2","1.5","3","2","stimuli/stars_3.png","212","[""SC"",""DO"",""FO"",""HO""]","[""AM09"",""BF05"",""BF08"",""HF02""]","[6,8,3,9]","[4,6,2,8]","","",""
"show-reward","174","316046","0.0-174.0","p776146","A26NGLGGFTATVN","3WPCIUYH1BELQU8EB2L3QVOOKYBTD4","3YMTUJH0DUMBDINF8TPBCBP7QXBT4B","model","mismatch","uniform","","","","","","","","316076.6999999285","318080.6999999285","","","","","","","","","","","","3","","stimuli/stars_3.png","212","","","","","stimuli/BF08_FO.jpg","",""
"explore-choice","175","317487","0.0-175.0","p776146","A26NGLGGFTATVN","3WPCIUYH1BELQU8EB2L3QVOOKYBTD4","3YMTUJH0DUMBDINF8TPBCBP7QXBT4B","model","mismatch","uniform","","","","","","","939.8999999761581","318081","319020.89999997616","[""stimuli/BF05_SC.jpg"",""stimuli/HF02_FO.jpg"",""stimuli/BF08_DO.jpg"",""stimuli/AM09_HO.jpg""]","stimuli/BF05_SC.jpg","stimuli/HF02_FO.jpg","stimuli/BF08_DO.jpg","stimuli/AM09_HO.jpg","pos3","stimuli/BF08_DO.jpg","DO","BF08","2","3.5","7","6","stimuli/stars_7.png","215.5","[""SC"",""FO"",""DO"",""HO""]","[""BF05"",""HF02"",""BF08"",""AM09""]","[3,1,7,6]","[4,2,6,8]","","",""
"show-reward","176","319491","0.0-176.0","p776146","A26NGLGGFTATVN","3WPCIUYH1BELQU8EB2L3QVOOKYBTD4","3YMTUJH0DUMBDINF8TPBCBP7QXBT4B","model","mismatch","uniform","","","","","","","","319522.39999997616","321525.09999990463","","","","","","","","","","","","7","","stimuli/stars_7.png","215.5","","","","","stimuli/BF08_DO.jpg","",""
"explore-choice","177","321140","0.0-177.0","p776146","A26NGLGGFTATVN","3WPCIUYH1BELQU8EB2L3QVOOKYBTD4","3YMTUJH0DUMBDINF8TPBCBP7QXBT4B","model","mismatch","uniform","","","","","","","1148.5999999046326","321525.5","322674.09999990463","[""stimuli/BF05_FO.jpg"",""stimuli/AM09_SC.jpg"",""stimuli/HF02_DO.jpg"",""stimuli/BF08_HO.jpg""]","stimuli/BF05_FO.jpg","stimuli/AM09_SC.jpg","stimuli/HF02_DO.jpg","stimuli/BF08_HO.jpg","pos2","stimuli/AM09_SC.jpg","SC","AM09","1","3","6","4","stimuli/stars_6.png","218.5","[""FO"",""SC"",""DO"",""HO""]","[""BF05"",""AM09"",""HF02"",""BF08""]","[1,6,8,8]","[2,4,6,8]","","",""
"show-reward","178","323146","0.0-178.0","p776146","A26NGLGGFTATVN","3WPCIUYH1BELQU8EB2L3QVOOKYBTD4","3YMTUJH0DUMBDINF8TPBCBP7QXBT4B","model","mismatch","uniform","","","","","","","","323174.59999990463","325180.1999999285","","","","","","","","","","","","6","","stimuli/stars_6.png","218.5","","","","","stimuli/AM09_SC.jpg","",""
"explore-choice","179","324378","0.0-179.0","p776146","A26NGLGGFTATVN","3WPCIUYH1BELQU8EB2L3QVOOKYBTD4","3YMTUJH0DUMBDINF8TPBCBP7QXBT4B","model","mismatch","uniform","","","","","","","731.2000000476837","325180.7999999523","325912","[""stimuli/BF08_SC.jpg"",""stimuli/HF02_HO.jpg"",""stimuli/BF05_DO.jpg"",""stimuli/AM09_FO.jpg""]","stimuli/BF08_SC.jpg","stimuli/HF02_HO.jpg","stimuli/BF05_DO.jpg","stimuli/AM09_FO.jpg","pos4","stimuli/AM09_FO.jpg","FO","AM09","3","0.5","1","2","stimuli/stars_1.png","219","[""SC"",""HO"",""DO"",""FO""]","[""BF08"",""HF02"",""BF05"",""AM09""]","[2,9,5,1]","[4,8,6,2]","","",""
"show-reward","180","326396","0.0-180.0","p776146","A26NGLGGFTATVN","3WPCIUYH1BELQU8EB2L3QVOOKYBTD4","3YMTUJH0DUMBDINF8TPBCBP7QXBT4B","model","mismatch","uniform","","","","","","","","326413.89999997616","328429.6999999285","","","","","","","","","","","","1","","stimuli/stars_1.png","219","","","","","stimuli/AM09_FO.jpg","",""
"explore-choice","181","328680","0.0-181.0","p776146","A26NGLGGFTATVN","3WPCIUYH1BELQU8EB2L3QVOOKYBTD4","3YMTUJH0DUMBDINF8TPBCBP7QXBT4B","model","mismatch","uniform","","","","","","","1783.2000000476837","328430.7999999523","330214","[""stimuli/HF02_DO.jpg"",""stimuli/BF05_SC.jpg"",""stimuli/AM09_FO.jpg"",""stimuli/BF08_HO.jpg""]","stimuli/HF02_DO.jpg","stimuli/BF05_SC.jpg","stimuli/AM09_FO.jpg","stimuli/BF08_HO.jpg","pos3","stimuli/AM09_FO.jpg","FO","AM09","2","0.5","1","2","stimuli/stars_1.png","219.5","[""DO"",""SC"",""FO"",""HO""]","[""HF02"",""BF05"",""AM09"",""BF08""]","[4,5,1,9]","[6,4,2,8]","","",""
"show-reward","182","330692","0.0-182.0","p776146","A26NGLGGFTATVN","3WPCIUYH1BELQU8EB2L3QVOOKYBTD4","3YMTUJH0DUMBDINF8TPBCBP7QXBT4B","model","mismatch","uniform","","","","","","","","330716.09999990463","332725.89999997616","","","","","","","","","","","","1","","stimuli/stars_1.png","219.5","","","","","stimuli/AM09_FO.jpg","",""
"explore-choice","183","332231","0.0-183.0","p776146","A26NGLGGFTATVN","3WPCIUYH1BELQU8EB2L3QVOOKYBTD4","3YMTUJH0DUMBDINF8TPBCBP7QXBT4B","model","mismatch","uniform","","","","","","","1036.6000000238419","332727.2999999523","333763.89999997616","[""stimuli/BF08_DO.jpg"",""stimuli/HF02_HO.jpg"",""stimuli/AM09_FO.jpg"",""stimuli/BF05_SC.jpg""]","stimuli/BF08_DO.jpg","stimuli/HF02_HO.jpg","stimuli/AM09_FO.jpg","stimuli/BF05_SC.jpg","pos4","stimuli/BF05_SC.jpg","SC","BF05","3","1","2","4","stimuli/stars_2.png","220.5","[""DO"",""HO"",""FO"",""SC""]","[""BF08"",""HF02"",""AM09"",""BF05""]","[6,10,4,2]","[6,8,2,4]","","",""
"show-reward","184","334235","0.0-184.0","p776146","A26NGLGGFTATVN","3WPCIUYH1BELQU8EB2L3QVOOKYBTD4","3YMTUJH0DUMBDINF8TPBCBP7QXBT4B","model","mismatch","uniform","","","","","","","","334265.5","336269.59999990463","","","","","","","","","","","","2","","stimuli/stars_2.png","220.5","","","","","stimuli/BF05_SC.jpg","",""
"explore-choice","185","336980","0.0-185.0","p776146","A26NGLGGFTATVN","3WPCIUYH1BELQU8EB2L3QVOOKYBTD4","3YMTUJH0DUMBDINF8TPBCBP7QXBT4B","model","mismatch","uniform","","","","","","","2240.600000023842","336271.39999997616","338512","[""stimuli/BF05_HO.jpg"",""stimuli/BF08_SC.jpg"",""stimuli/AM09_DO.jpg"",""stimuli/HF02_FO.jpg""]","stimuli/BF05_HO.jpg","stimuli/BF08_SC.jpg","stimuli/AM09_DO.jpg","stimuli/HF02_FO.jpg","pos1","stimuli/BF05_HO.jpg","HO","BF05","0","3.5","7","8","stimuli/stars_7.png","224","[""HO"",""SC"",""DO"",""FO""]","[""BF05"",""BF08"",""AM09"",""HF02""]","[7,3,4,0]","[8,4,6,2]","","",""
"show-reward","186","338983","0.0-186.0","p776146","A26NGLGGFTATVN","3WPCIUYH1BELQU8EB2L3QVOOKYBTD4","3YMTUJH0DUMBDINF8TPBCBP7QXBT4B","model","mismatch","uniform","","","","","","","","339015.89999997616","341017.89999997616","","","","","","","","","","","","7","","stimuli/stars_7.png","224","","","","","stimuli/BF05_HO.jpg","",""
"explore-choice","187","340078","0.0-187.0","p776146","A26NGLGGFTATVN","3WPCIUYH1BELQU8EB2L3QVOOKYBTD4","3YMTUJH0DUMBDINF8TPBCBP7QXBT4B","model","mismatch","uniform","","","","","","","593.6000000238419","341018.39999997616","341612","[""stimuli/BF08_HO.jpg"",""stimuli/AM09_DO.jpg"",""stimuli/HF02_FO.jpg"",""stimuli/BF05_SC.jpg""]","stimuli/BF08_HO.jpg","stimuli/AM09_DO.jpg","stimuli/HF02_FO.jpg","stimuli/BF05_SC.jpg","pos4","stimuli/BF05_SC.jpg","SC","BF05","3","1.5","3","4","stimuli/stars_3.png","225.5","[""HO"",""DO"",""FO"",""SC""]","[""BF08"",""AM09"",""HF02"",""BF05""]","[7,5,0,3]","[8,6,2,4]","","",""
"show-reward","188","342087","0.0-188.0","p776146","A26NGLGGFTATVN","3WPCIUYH1BELQU8EB2L3QVOOKYBTD4","3YMTUJH0DUMBDINF8TPBCBP7QXBT4B","model","mismatch","uniform","","","","","","","","342112.6999999285","344120.89999997616","","","","","","","","","","","","3","","stimuli/stars_3.png","225.5","","","","","stimuli/BF05_SC.jpg","",""
"explore-choice","189","343625","0.0-189.0","p776146","A26NGLGGFTATVN","3WPCIUYH1BELQU8EB2L3QVOOKYBTD4","3YMTUJH0DUMBDINF8TPBCBP7QXBT4B","model","mismatch","uniform","","","","","","","1025.5","344121.39999997616","345146.89999997616","[""stimuli/AM09_DO.jpg"",""stimuli/BF05_FO.jpg"",""stimuli/BF08_HO.jpg"",""stimuli/HF02_SC.jpg""]","stimuli/AM09_DO.jpg","stimuli/BF05_FO.jpg","stimuli/BF08_HO.jpg","stimuli/HF02_SC.jpg","pos2","stimuli/BF05_FO.jpg","FO","BF05","1","0.5","1","2","stimuli/stars_1.png","226","[""DO"",""FO"",""HO"",""SC""]","[""AM09"",""BF05"",""BF08"",""HF02""]","[6,1,6,4]","[6,2,8,4]","","",""
"show-reward","190","345636","0.0-190.0","p776146","A26NGLGGFTATVN","3WPCIUYH1BELQU8EB2L3QVOOKYBTD4","3YMTUJH0DUMBDINF8TPBCBP7QXBT4B","model","mismatch","uniform","","","","","","","","345659.89999997616","347670.5","","","","","","","","","","","","1","","stimuli/stars_1.png","226","","","","","stimuli/BF05_FO.jpg","",""
"explore-choice","191","347089","0.0-191.0","p776146","A26NGLGGFTATVN","3WPCIUYH1BELQU8EB2L3QVOOKYBTD4","3YMTUJH0DUMBDINF8TPBCBP7QXBT4B","model","mismatch","uniform","","","","","","","948.5","347672.5","348621","[""stimuli/AM09_FO.jpg"",""stimuli/BF05_HO.jpg"",""stimuli/HF02_DO.jpg"",""stimuli/BF08_SC.jpg""]","stimuli/AM09_FO.jpg","stimuli/BF05_HO.jpg","stimuli/HF02_DO.jpg","stimuli/BF08_SC.jpg","pos2","stimuli/BF05_HO.jpg","HO","BF05","1","4","8","8","stimuli/stars_8.png","230","[""FO"",""HO"",""DO"",""SC""]","[""AM09"",""BF05"",""HF02"",""BF08""]","[0,8,4,5]","[2,8,6,4]","","",""
"show-reward","192","349103","0.0-192.0","p776146","A26NGLGGFTATVN","3WPCIUYH1BELQU8EB2L3QVOOKYBTD4","3YMTUJH0DUMBDINF8TPBCBP7QXBT4B","model","mismatch","uniform","","","","","","","","349123.5","351136.6999999285","","","","","","","","","","","","8","","stimuli/stars_8.png","230","","","","","stimuli/BF05_HO.jpg","",""
"explore-choice","193","350495","0.0-193.0","p776146","A26NGLGGFTATVN","3WPCIUYH1BELQU8EB2L3QVOOKYBTD4","3YMTUJH0DUMBDINF8TPBCBP7QXBT4B","model","mismatch","uniform","","","","","","","888.7999999523163","351139.39999997616","352028.1999999285","[""stimuli/HF02_HO.jpg"",""stimuli/AM09_DO.jpg"",""stimuli/BF05_FO.jpg"",""stimuli/BF08_SC.jpg""]","stimuli/HF02_HO.jpg","stimuli/AM09_DO.jpg","stimuli/BF05_FO.jpg","stimuli/BF08_SC.jpg","pos3","stimuli/BF05_FO.jpg","FO","BF05","2","1","2","2","stimuli/stars_2.png","231","[""HO"",""DO"",""FO"",""SC""]","[""HF02"",""AM09"",""BF05"",""BF08""]","[7,7,2,6]","[8,6,2,4]","","",""
"show-reward","194","352499","0.0-194.0","p776146","A26NGLGGFTATVN","3WPCIUYH1BELQU8EB2L3QVOOKYBTD4","3YMTUJH0DUMBDINF8TPBCBP7QXBT4B","model","mismatch","uniform","","","","","","","","352530.39999997616","354533.2999999523","","","","","","","","","","","","2","","stimuli/stars_2.png","231","","","","","stimuli/BF05_FO.jpg","",""
"explore-choice","195","353976","0.0-195.0","p776146","A26NGLGGFTATVN","3WPCIUYH1BELQU8EB2L3QVOOKYBTD4","3YMTUJH0DUMBDINF8TPBCBP7QXBT4B","model","mismatch","uniform","","","","","","","968.3999999761581","354533.6999999285","355502.09999990463","[""stimuli/AM09_FO.jpg"",""stimuli/HF02_SC.jpg"",""stimuli/BF05_HO.jpg"",""stimuli/BF08_DO.jpg""]","stimuli/AM09_FO.jpg","stimuli/HF02_SC.jpg","stimuli/BF05_HO.jpg","stimuli/BF08_DO.jpg","pos3","stimuli/BF05_HO.jpg","HO","BF05","2","5","10","8","stimuli/stars_10.png","236","[""FO"",""SC"",""HO"",""DO""]","[""AM09"",""HF02"",""BF05"",""BF08""]","[0,2,10,4]","[2,4,8,6]","","",""
"show-reward","196","355978","0.0-196.0","p776146","A26NGLGGFTATVN","3WPCIUYH1BELQU8EB2L3QVOOKYBTD4","3YMTUJH0DUMBDINF8TPBCBP7QXBT4B","model","mismatch","uniform","","","","","","","","356010.7999999523","358012.2999999523","","","","","","","","","","","","10","","stimuli/stars_10.png","236","","","","","stimuli/BF05_HO.jpg","",""
"explore-choice","197","357455","0.0-197.0","p776146","A26NGLGGFTATVN","3WPCIUYH1BELQU8EB2L3QVOOKYBTD4","3YMTUJH0DUMBDINF8TPBCBP7QXBT4B","model","mismatch","uniform","","","","","","","972","358013.89999997616","358985.89999997616","[""stimuli/BF05_SC.jpg"",""stimuli/AM09_HO.jpg"",""stimuli/BF08_FO.jpg"",""stimuli/HF02_DO.jpg""]","stimuli/BF05_SC.jpg","stimuli/AM09_HO.jpg","stimuli/BF08_FO.jpg","stimuli/HF02_DO.jpg","pos1","stimuli/BF05_SC.jpg","SC","BF05","0","1","2","4","stimuli/stars_2.png","237","[""SC"",""HO"",""FO"",""DO""]","[""BF05"",""AM09"",""BF08"",""HF02""]","[2,8,3,6]","[4,8,2,6]","","",""
"show-reward","198","359462","0.0-198.0","p776146","A26NGLGGFTATVN","3WPCIUYH1BELQU8EB2L3QVOOKYBTD4","3YMTUJH0DUMBDINF8TPBCBP7QXBT4B","model","mismatch","uniform","","","","","","","","359489.89999997616","361496.39999997616","","","","","","","","","","","","2","","stimuli/stars_2.png","237","","","","","stimuli/BF05_SC.jpg","",""
"instructions","199","362466","0.0-199.0","p776146","A26NGLGGFTATVN","3WPCIUYH1BELQU8EB2L3QVOOKYBTD4","3YMTUJH0DUMBDINF8TPBCBP7QXBT4B","model","mismatch","uniform","","","","","","[{""page_index"":0,""viewing_time"":3002.5}]","3002.6999999284744","","","","","","","","","","","","","","","","","","","","","","","",""
"survey-text","200","365030","0.0-200.0-0.0","p776146","A26NGLGGFTATVN","3WPCIUYH1BELQU8EB2L3QVOOKYBTD4","3YMTUJH0DUMBDINF8TPBCBP7QXBT4B","model","mismatch","uniform","","","","","","","2561.100000023842","","","","","","","","","","","","","","","","","","","","","","","{""age"":""40""}",""
"survey-text","201","367861","0.0-200.0-1.0","p776146","A26NGLGGFTATVN","3WPCIUYH1BELQU8EB2L3QVOOKYBTD4","3YMTUJH0DUMBDINF8TPBCBP7QXBT4B","model","mismatch","uniform","","","","","","","2829.5999999046326","","","","","","","","","","","","","","","","","","","","","","","{""gender"":""male""}",""
"survey-text","202","373586","0.0-200.0-2.0","p776146","A26NGLGGFTATVN","3WPCIUYH1BELQU8EB2L3QVOOKYBTD4","3YMTUJH0DUMBDINF8TPBCBP7QXBT4B","model","mismatch","uniform","","","","","","","5723.399999976158","","","","","","","","","","","","","","","","","","","","","","","{""country"":""USA""}",""
"survey-text","203","378674","0.0-200.0-3.0","p776146","A26NGLGGFTATVN","3WPCIUYH1BELQU8EB2L3QVOOKYBTD4","3YMTUJH0DUMBDINF8TPBCBP7QXBT4B","model","mismatch","uniform","","","","","","","5087.399999976158","","","","","","","","","","","","","","","","","","","","","","","{""language"":""English"",""other_languages"":""none""}",""
"survey-multi-select","204","380269","0.0-201.0","p776146","A26NGLGGFTATVN","3WPCIUYH1BELQU8EB2L3QVOOKYBTD4","3YMTUJH0DUMBDINF8TPBCBP7QXBT4B","model","mismatch","uniform","","","","","","","1591.1000000238419","","","","","","","","","","","","","","","","","","","","","","","{""race"":[""White""]}","[0]"
"survey-multi-choice","205","381843","0.0-202.0","p776146","A26NGLGGFTATVN","3WPCIUYH1BELQU8EB2L3QVOOKYBTD4","3YMTUJH0DUMBDINF8TPBCBP7QXBT4B","model","mismatch","uniform","","","","","","","1572.5","","","","","","","","","","","","","","","","","","","","","","","{""education"":""High school""}","[0]"
"survey-text","206","401810","0.0-203.0","p776146","A26NGLGGFTATVN","3WPCIUYH1BELQU8EB2L3QVOOKYBTD4","3YMTUJH0DUMBDINF8TPBCBP7QXBT4B","model","mismatch","uniform","","","","","","","19965.600000023842","","","","","","","","","","","","","","","","","","","","","","","{""patterns"":""No pattern"",""strategy"":""I just went with people that had higher stars on average."",""comments"":""""}",""
