"trial_type","trial_index","time_elapsed","internal_node_id","subject","workerId","hitId","assignmentId","structure_condition","match_condition","noise_type","success","timeout","failed_images","failed_audio","failed_video","view_history","rt","start_time","end_time","stimuli","image1","image2","image3","image4","choiceLocation","choiceImage","choiceEmotion","choiceModel","choice_index","reward_score","reward","reward_score_unadjusted","reward_image","score_after_trial","emotions","models","rewards","rewards_unadjusted","stimulus","response","question_order"
"pavlovia","0","60","0.0-0.0","p276997","A8B4WA1QFNUAW","3087LXLJ6NMH85PJ46SJUKP4Z1V0FD","3JMSRU9HQK08ICOX2U13MFPJ07LVEZ","emotion","mismatch","uniform","","","","","","","","","","","","","","","","","","","","","","","","","","","","","","",""
"preload","1","8352","0.0-1.0","p276997","A8B4WA1QFNUAW","3087LXLJ6NMH85PJ46SJUKP4Z1V0FD","3JMSRU9HQK08ICOX2U13MFPJ07LVEZ","emotion","mismatch","uniform","true","false","[]","[]","[]","","","","","","","","","","","","","","","","","","","","","","","","","",""
"fullscreen","2","21695","0.0-2.0","p276997","A8B4WA1QFNUAW","3087LXLJ6NMH85PJ46SJUKP4Z1V0FD","3JMSRU9HQK08ICOX2U13MFPJ07LVEZ","emotion","mismatch","uniform","true","","","","","","","","","","","","","","","","","","","","","","","","","","","","","",""
"instructions","3","28141","0.0-3.0","p276997","A8B4WA1QFNUAW","3087LXLJ6NMH85PJ46SJUKP4Z1V0FD","3JMSRU9HQK08ICOX2U13MFPJ07LVEZ","emotion","mismatch","uniform","","","","","","[{""page_index"":0,""viewing_time"":6441.700000017881}]","6444.100000023842","","","","","","","","","","","","","","","","","","","","","","","",""
"explore-choice","4","31664","0.0-4.0","p276997","A8B4WA1QFNUAW","3087LXLJ6NMH85PJ46SJUKP4Z1V0FD","3JMSRU9HQK08ICOX2U13MFPJ07LVEZ","emotion","mismatch","uniform","","","","","","","3015.7999999821186","29909","32924.79999998212","[""stimuli/sheep.jpg"",""stimuli/hammer.jpg"",""stimuli/basketball.jpg"",""stimuli/horse.jpg""]","stimuli/sheep.jpg","stimuli/hammer.jpg","stimuli/basketball.jpg","stimuli/horse.jpg","pos4","stimuli/horse.jpg","","","3","64","64","64","stimuli/stars_8.png","65","","","","","","",""
"explore-choice","5","33541","0.0-5.0","p276997","A8B4WA1QFNUAW","3087LXLJ6NMH85PJ46SJUKP4Z1V0FD","3JMSRU9HQK08ICOX2U13MFPJ07LVEZ","emotion","mismatch","uniform","","","","","","","1372","33430.90000000596","34802.90000000596","[""stimuli/hammer.jpg"",""stimuli/basketball.jpg"",""stimuli/horse.jpg"",""stimuli/sheep.jpg""]","stimuli/hammer.jpg","stimuli/basketball.jpg","stimuli/horse.jpg","stimuli/sheep.jpg","pos1","stimuli/hammer.jpg","","","0","8","8","8","stimuli/stars_2.png","9","","","","","","",""
"instructions","6","52880","0.0-6.0","p276997","A8B4WA1QFNUAW","3087LXLJ6NMH85PJ46SJUKP4Z1V0FD","3JMSRU9HQK08ICOX2U13MFPJ07LVEZ","emotion","mismatch","uniform","","","","","","[{""page_index"":0,""viewing_time"":19337}]","19337.79999998212","","","","","","","","","","","","","","","","","","","","","","","",""
"explore-choice","7","57260","0.0-7.0","p276997","A8B4WA1QFNUAW","3087LXLJ6NMH85PJ46SJUKP4Z1V0FD","3JMSRU9HQK08ICOX2U13MFPJ07LVEZ","emotion","mismatch","uniform","","","","","","","3876.2999999821186","54644.40000000596","58520.69999998808","[""stimuli/BF06_DO.jpg"",""stimuli/BF08_FO.jpg"",""stimuli/BM04_HE.jpg"",""stimuli/WF04_SC.jpg""]","stimuli/BF06_DO.jpg","stimuli/BF08_FO.jpg","stimuli/BM04_HE.jpg","stimuli/WF04_SC.jpg","pos2","stimuli/BF08_FO.jpg","FO","BF08","1","3.5","7","8","stimuli/stars_7.png","4.5","[""DO"",""FO"",""HE"",""SC""]","[""BF06"",""BF08"",""BM04"",""WF04""]","[5,7,3,2]","[6,8,2,4]","","",""
"show-reward","8","59266","0.0-8.0","p276997","A8B4WA1QFNUAW","3087LXLJ6NMH85PJ46SJUKP4Z1V0FD","3JMSRU9HQK08ICOX2U13MFPJ07LVEZ","emotion","mismatch","uniform","","","","","","","","59024.59999999404","61027.09999999404","","","","","","","","","","","","7","","stimuli/stars_7.png","4.5","","","","","stimuli/BF08_FO.jpg","",""
"explore-choice","9","63369","0.0-9.0","p276997","A8B4WA1QFNUAW","3087LXLJ6NMH85PJ46SJUKP4Z1V0FD","3JMSRU9HQK08ICOX2U13MFPJ07LVEZ","emotion","mismatch","uniform","","","","","","","3601","61029.5","64630.5","[""stimuli/BM04_FO.jpg"",""stimuli/BF06_SC.jpg"",""stimuli/BF08_DO.jpg"",""stimuli/WF04_HE.jpg""]","stimuli/BM04_FO.jpg","stimuli/BF06_SC.jpg","stimuli/BF08_DO.jpg","stimuli/WF04_HE.jpg","pos4","stimuli/WF04_HE.jpg","HE","WF04","3","1.5","3","2","stimuli/stars_3.png","6","[""FO"",""SC"",""DO"",""HE""]","[""BM04"",""BF06"",""BF08"",""WF04""]","[10,3,8,3]","[8,4,6,2]","","",""
"show-reward","10","65373","0.0-10.0","p276997","A8B4WA1QFNUAW","3087LXLJ6NMH85PJ46SJUKP4Z1V0FD","3JMSRU9HQK08ICOX2U13MFPJ07LVEZ","emotion","mismatch","uniform","","","","","","","","65132.40000000596","67134.69999998808","","","","","","","","","","","","3","","stimuli/stars_3.png","6","","","","","stimuli/WF04_HE.jpg","",""
"explore-choice","11","68222","0.0-11.0","p276997","A8B4WA1QFNUAW","3087LXLJ6NMH85PJ46SJUKP4Z1V0FD","3JMSRU9HQK08ICOX2U13MFPJ07LVEZ","emotion","mismatch","uniform","","","","","","","2347.199999988079","67136.09999999404","69483.29999998212","[""stimuli/WF04_HE.jpg"",""stimuli/BM04_FO.jpg"",""stimuli/BF06_DO.jpg"",""stimuli/BF08_SC.jpg""]","stimuli/WF04_HE.jpg","stimuli/BM04_FO.jpg","stimuli/BF06_DO.jpg","stimuli/BF08_SC.jpg","pos3","stimuli/BF06_DO.jpg","DO","BF06","2","2.5","5","6","stimuli/stars_5.png","8.5","[""HE"",""FO"",""DO"",""SC""]","[""WF04"",""BM04"",""BF06"",""BF08""]","[2,10,5,4]","[2,8,6,4]","","",""
"show-reward","12","70227","0.0-12.0","p276997","A8B4WA1QFNUAW","3087LXLJ6NMH85PJ46SJUKP4Z1V0FD","3JMSRU9HQK08ICOX2U13MFPJ07LVEZ","emotion","mismatch","uniform","","","","","","","","69986.59999999404","71989.29999998212","","","","","","","","","","","","5","","stimuli/stars_5.png","8.5","","","","","stimuli/BF06_DO.jpg","",""
"explore-choice","13","71773","0.0-13.0","p276997","A8B4WA1QFNUAW","3087LXLJ6NMH85PJ46SJUKP4Z1V0FD","3JMSRU9HQK08ICOX2U13MFPJ07LVEZ","emotion","mismatch","uniform","","","","","","","1044","71990.79999998212","73034.79999998212","[""stimuli/BF08_SC.jpg"",""stimuli/BF06_FO.jpg"",""stimuli/BM04_HE.jpg"",""stimuli/WF04_DO.jpg""]","stimuli/BF08_SC.jpg","stimuli/BF06_FO.jpg","stimuli/BM04_HE.jpg","stimuli/WF04_DO.jpg","pos1","stimuli/BF08_SC.jpg","SC","BF08","0","2.5","5","4","stimuli/stars_5.png","11","[""SC"",""FO"",""HE"",""DO""]","[""BF08"",""BF06"",""BM04"",""WF04""]","[5,8,0,6]","[4,8,2,6]","","",""
"show-reward","14","73777","0.0-14.0","p276997","A8B4WA1QFNUAW","3087LXLJ6NMH85PJ46SJUKP4Z1V0FD","3JMSRU9HQK08ICOX2U13MFPJ07LVEZ","emotion","mismatch","uniform","","","","","","","","73536.59999999404","75539.09999999404","","","","","","","","","","","","5","","stimuli/stars_5.png","11","","","","","stimuli/BF08_SC.jpg","",""
"explore-choice","15","75402","0.0-15.0","p276997","A8B4WA1QFNUAW","3087LXLJ6NMH85PJ46SJUKP4Z1V0FD","3JMSRU9HQK08ICOX2U13MFPJ07LVEZ","emotion","mismatch","uniform","","","","","","","1123.0999999940395","75541.09999999404","76664.19999998808","[""stimuli/BF06_HE.jpg"",""stimuli/BM04_FO.jpg"",""stimuli/BF08_SC.jpg"",""stimuli/WF04_DO.jpg""]","stimuli/BF06_HE.jpg","stimuli/BM04_FO.jpg","stimuli/BF08_SC.jpg","stimuli/WF04_DO.jpg","pos4","stimuli/WF04_DO.jpg","DO","WF04","3","3","6","6","stimuli/stars_6.png","14","[""HE"",""FO"",""SC"",""DO""]","[""BF06"",""BM04"",""BF08"",""WF04""]","[4,7,3,6]","[2,8,4,6]","","",""
"show-reward","16","77406","0.0-16.0","p276997","A8B4WA1QFNUAW","3087LXLJ6NMH85PJ46SJUKP4Z1V0FD","3JMSRU9HQK08ICOX2U13MFPJ07LVEZ","emotion","mismatch","uniform","","","","","","","","77165.90000000596","79168.40000000596","","","","","","","","","","","","6","","stimuli/stars_6.png","14","","","","","stimuli/WF04_DO.jpg","",""
"explore-choice","17","78929","0.0-17.0","p276997","A8B4WA1QFNUAW","3087LXLJ6NMH85PJ46SJUKP4Z1V0FD","3JMSRU9HQK08ICOX2U13MFPJ07LVEZ","emotion","mismatch","uniform","","","","","","","1016.0999999940395","79174.69999998808","80190.79999998212","[""stimuli/BM04_HE.jpg"",""stimuli/BF08_FO.jpg"",""stimuli/BF06_SC.jpg"",""stimuli/WF04_DO.jpg""]","stimuli/BM04_HE.jpg","stimuli/BF08_FO.jpg","stimuli/BF06_SC.jpg","stimuli/WF04_DO.jpg","pos2","stimuli/BF08_FO.jpg","FO","BF08","1","5","10","8","stimuli/stars_10.png","19","[""HE"",""FO"",""SC"",""DO""]","[""BM04"",""BF08"",""BF06"",""WF04""]","[2,10,2,7]","[2,8,4,6]","","",""
"show-reward","18","80933","0.0-18.0","p276997","A8B4WA1QFNUAW","3087LXLJ6NMH85PJ46SJUKP4Z1V0FD","3JMSRU9HQK08ICOX2U13MFPJ07LVEZ","emotion","mismatch","uniform","","","","","","","","80692.79999998212","82695.79999998212","","","","","","","","","","","","10","","stimuli/stars_10.png","19","","","","","stimuli/BF08_FO.jpg","",""
"explore-choice","19","84822","0.0-19.0","p276997","A8B4WA1QFNUAW","3087LXLJ6NMH85PJ46SJUKP4Z1V0FD","3JMSRU9HQK08ICOX2U13MFPJ07LVEZ","emotion","mismatch","uniform","","","","","","","3387","82697.09999999404","86084.09999999404","[""stimuli/BF06_HE.jpg"",""stimuli/BF08_DO.jpg"",""stimuli/WF04_SC.jpg"",""stimuli/BM04_FO.jpg""]","stimuli/BF06_HE.jpg","stimuli/BF08_DO.jpg","stimuli/WF04_SC.jpg","stimuli/BM04_FO.jpg","pos3","stimuli/WF04_SC.jpg","SC","WF04","2","1.5","3","4","stimuli/stars_3.png","20.5","[""HE"",""DO"",""SC"",""FO""]","[""BF06"",""BF08"",""WF04"",""BM04""]","[4,7,3,8]","[2,6,4,8]","","",""
"show-reward","20","86826","0.0-20.0","p276997","A8B4WA1QFNUAW","3087LXLJ6NMH85PJ46SJUKP4Z1V0FD","3JMSRU9HQK08ICOX2U13MFPJ07LVEZ","emotion","mismatch","uniform","","","","","","","","86585.69999998808","88588","","","","","","","","","","","","3","","stimuli/stars_3.png","20.5","","","","","stimuli/WF04_SC.jpg","",""
"explore-choice","21","88309","0.0-21.0","p276997","A8B4WA1QFNUAW","3087LXLJ6NMH85PJ46SJUKP4Z1V0FD","3JMSRU9HQK08ICOX2U13MFPJ07LVEZ","emotion","mismatch","uniform","","","","","","","981.0999999940395","88589.40000000596","89570.5","[""stimuli/BF06_FO.jpg"",""stimuli/WF04_SC.jpg"",""stimuli/BM04_HE.jpg"",""stimuli/BF08_DO.jpg""]","stimuli/BF06_FO.jpg","stimuli/WF04_SC.jpg","stimuli/BM04_HE.jpg","stimuli/BF08_DO.jpg","pos1","stimuli/BF06_FO.jpg","FO","BF06","0","4","8","8","stimuli/stars_8.png","24.5","[""FO"",""SC"",""HE"",""DO""]","[""BF06"",""WF04"",""BM04"",""BF08""]","[8,2,3,6]","[8,4,2,6]","","",""
"show-reward","22","90312","0.0-22.0","p276997","A8B4WA1QFNUAW","3087LXLJ6NMH85PJ46SJUKP4Z1V0FD","3JMSRU9HQK08ICOX2U13MFPJ07LVEZ","emotion","mismatch","uniform","","","","","","","","90072.19999998808","92074.40000000596","","","","","","","","","","","","8","","stimuli/stars_8.png","24.5","","","","","stimuli/BF06_FO.jpg","",""
"explore-choice","23","93082","0.0-23.0","p276997","A8B4WA1QFNUAW","3087LXLJ6NMH85PJ46SJUKP4Z1V0FD","3JMSRU9HQK08ICOX2U13MFPJ07LVEZ","emotion","mismatch","uniform","","","","","","","2268.300000011921","92075.79999998212","94344.09999999404","[""stimuli/BM04_DO.jpg"",""stimuli/WF04_SC.jpg"",""stimuli/BF06_FO.jpg"",""stimuli/BF08_HE.jpg""]","stimuli/BM04_DO.jpg","stimuli/WF04_SC.jpg","stimuli/BF06_FO.jpg","stimuli/BF08_HE.jpg","pos4","stimuli/BF08_HE.jpg","HE","BF08","3","0","0","2","stimuli/stars_0.png","24.5","[""DO"",""SC"",""FO"",""HE""]","[""BM04"",""WF04"",""BF06"",""BF08""]","[6,3,7,0]","[6,4,8,2]","","",""
"show-reward","24","95086","0.0-24.0","p276997","A8B4WA1QFNUAW","3087LXLJ6NMH85PJ46SJUKP4Z1V0FD","3JMSRU9HQK08ICOX2U13MFPJ07LVEZ","emotion","mismatch","uniform","","","","","","","","94846.19999998808","96848.5","","","","","","","","","","","","0","","stimuli/stars_0.png","24.5","","","","","stimuli/BF08_HE.jpg","",""
"explore-choice","25","96585","0.0-25.0","p276997","A8B4WA1QFNUAW","3087LXLJ6NMH85PJ46SJUKP4Z1V0FD","3JMSRU9HQK08ICOX2U13MFPJ07LVEZ","emotion","mismatch","uniform","","","","","","","996.9000000059605","96850","97846.90000000596","[""stimuli/BF08_FO.jpg"",""stimuli/WF04_HE.jpg"",""stimuli/BM04_SC.jpg"",""stimuli/BF06_DO.jpg""]","stimuli/BF08_FO.jpg","stimuli/WF04_HE.jpg","stimuli/BM04_SC.jpg","stimuli/BF06_DO.jpg","pos1","stimuli/BF08_FO.jpg","FO","BF08","0","3","6","8","stimuli/stars_6.png","27.5","[""FO"",""HE"",""SC"",""DO""]","[""BF08"",""WF04"",""BM04"",""BF06""]","[6,0,3,7]","[8,2,4,6]","","",""
"show-reward","26","98589","0.0-26.0","p276997","A8B4WA1QFNUAW","3087LXLJ6NMH85PJ46SJUKP4Z1V0FD","3JMSRU9HQK08ICOX2U13MFPJ07LVEZ","emotion","mismatch","uniform","","","","","","","","98348.90000000596","100351.40000000596","","","","","","","","","","","","6","","stimuli/stars_6.png","27.5","","","","","stimuli/BF08_FO.jpg","",""
"explore-choice","27","100753","0.0-27.0","p276997","A8B4WA1QFNUAW","3087LXLJ6NMH85PJ46SJUKP4Z1V0FD","3JMSRU9HQK08ICOX2U13MFPJ07LVEZ","emotion","mismatch","uniform","","","","","","","1662","100352.79999998212","102014.79999998212","[""stimuli/BF06_FO.jpg"",""stimuli/BF08_DO.jpg"",""stimuli/BM04_SC.jpg"",""stimuli/WF04_HE.jpg""]","stimuli/BF06_FO.jpg","stimuli/BF08_DO.jpg","stimuli/BM04_SC.jpg","stimuli/WF04_HE.jpg","pos2","stimuli/BF08_DO.jpg","DO","BF08","1","3.5","7","6","stimuli/stars_7.png","31","[""FO"",""DO"",""SC"",""HE""]","[""BF06"",""BF08"",""BM04"",""WF04""]","[7,7,6,0]","[8,6,4,2]","","",""
"show-reward","28","102757","0.0-28.0","p276997","A8B4WA1QFNUAW","3087LXLJ6NMH85PJ46SJUKP4Z1V0FD","3JMSRU9HQK08ICOX2U13MFPJ07LVEZ","emotion","mismatch","uniform","","","","","","","","102516.40000000596","104518.90000000596","","","","","","","","","","","","7","","stimuli/stars_7.png","31","","","","","stimuli/BF08_DO.jpg","",""
"explore-choice","29","104950","0.0-29.0","p276997","A8B4WA1QFNUAW","3087LXLJ6NMH85PJ46SJUKP4Z1V0FD","3JMSRU9HQK08ICOX2U13MFPJ07LVEZ","emotion","mismatch","uniform","","","","","","","1691.0999999940395","104520.40000000596","106211.5","[""stimuli/BF06_HE.jpg"",""stimuli/WF04_FO.jpg"",""stimuli/BM04_SC.jpg"",""stimuli/BF08_DO.jpg""]","stimuli/BF06_HE.jpg","stimuli/WF04_FO.jpg","stimuli/BM04_SC.jpg","stimuli/BF08_DO.jpg","pos2","stimuli/WF04_FO.jpg","FO","WF04","1","5","10","8","stimuli/stars_10.png","36","[""HE"",""FO"",""SC"",""DO""]","[""BF06"",""WF04"",""BM04"",""BF08""]","[1,10,6,8]","[2,8,4,6]","","",""
"show-reward","30","106954","0.0-30.0","p276997","A8B4WA1QFNUAW","3087LXLJ6NMH85PJ46SJUKP4Z1V0FD","3JMSRU9HQK08ICOX2U13MFPJ07LVEZ","emotion","mismatch","uniform","","","","","","","","106713.29999998212","108716.19999998808","","","","","","","","","","","","10","","stimuli/stars_10.png","36","","","","","stimuli/WF04_FO.jpg","",""
"explore-choice","31","109027","0.0-31.0","p276997","A8B4WA1QFNUAW","3087LXLJ6NMH85PJ46SJUKP4Z1V0FD","3JMSRU9HQK08ICOX2U13MFPJ07LVEZ","emotion","mismatch","uniform","","","","","","","1571.300000011921","108717.69999998808","110289","[""stimuli/BM04_SC.jpg"",""stimuli/WF04_FO.jpg"",""stimuli/BF06_DO.jpg"",""stimuli/BF08_HE.jpg""]","stimuli/BM04_SC.jpg","stimuli/WF04_FO.jpg","stimuli/BF06_DO.jpg","stimuli/BF08_HE.jpg","pos2","stimuli/WF04_FO.jpg","FO","WF04","1","5","10","8","stimuli/stars_10.png","41","[""SC"",""FO"",""DO"",""HE""]","[""BM04"",""WF04"",""BF06"",""BF08""]","[3,10,5,0]","[4,8,6,2]","","",""
"show-reward","32","111034","0.0-32.0","p276997","A8B4WA1QFNUAW","3087LXLJ6NMH85PJ46SJUKP4Z1V0FD","3JMSRU9HQK08ICOX2U13MFPJ07LVEZ","emotion","mismatch","uniform","","","","","","","","110792.19999998808","112796.5","","","","","","","","","","","","10","","stimuli/stars_10.png","41","","","","","stimuli/WF04_FO.jpg","",""
"explore-choice","33","112674","0.0-33.0","p276997","A8B4WA1QFNUAW","3087LXLJ6NMH85PJ46SJUKP4Z1V0FD","3JMSRU9HQK08ICOX2U13MFPJ07LVEZ","emotion","mismatch","uniform","","","","","","","1137.4000000059605","112798.19999998808","113935.59999999404","[""stimuli/BM04_DO.jpg"",""stimuli/BF06_SC.jpg"",""stimuli/WF04_FO.jpg"",""stimuli/BF08_HE.jpg""]","stimuli/BM04_DO.jpg","stimuli/BF06_SC.jpg","stimuli/WF04_FO.jpg","stimuli/BF08_HE.jpg","pos3","stimuli/WF04_FO.jpg","FO","WF04","2","5","10","8","stimuli/stars_10.png","46","[""DO"",""SC"",""FO"",""HE""]","[""BM04"",""BF06"",""WF04"",""BF08""]","[4,2,10,0]","[6,4,8,2]","","",""
"show-reward","34","114678","0.0-34.0","p276997","A8B4WA1QFNUAW","3087LXLJ6NMH85PJ46SJUKP4Z1V0FD","3JMSRU9HQK08ICOX2U13MFPJ07LVEZ","emotion","mismatch","uniform","","","","","","","","114437.29999998212","116440.09999999404","","","","","","","","","","","","10","","stimuli/stars_10.png","46","","","","","stimuli/WF04_FO.jpg","",""
"explore-choice","35","116648","0.0-35.0","p276997","A8B4WA1QFNUAW","3087LXLJ6NMH85PJ46SJUKP4Z1V0FD","3JMSRU9HQK08ICOX2U13MFPJ07LVEZ","emotion","mismatch","uniform","","","","","","","1468.0999999940395","116441.69999998808","117909.79999998212","[""stimuli/BM04_DO.jpg"",""stimuli/WF04_FO.jpg"",""stimuli/BF06_HE.jpg"",""stimuli/BF08_SC.jpg""]","stimuli/BM04_DO.jpg","stimuli/WF04_FO.jpg","stimuli/BF06_HE.jpg","stimuli/BF08_SC.jpg","pos2","stimuli/WF04_FO.jpg","FO","WF04","1","3","6","8","stimuli/stars_6.png","49","[""DO"",""FO"",""HE"",""SC""]","[""BM04"",""WF04"",""BF06"",""BF08""]","[6,6,0,6]","[6,8,2,4]","","",""
"show-reward","36","118655","0.0-36.0","p276997","A8B4WA1QFNUAW","3087LXLJ6NMH85PJ46SJUKP4Z1V0FD","3JMSRU9HQK08ICOX2U13MFPJ07LVEZ","emotion","mismatch","uniform","","","","","","","","118411.5","120417.40000000596","","","","","","","","","","","","6","","stimuli/stars_6.png","49","","","","","stimuli/WF04_FO.jpg","",""
"explore-choice","37","121086","0.0-37.0","p276997","A8B4WA1QFNUAW","3087LXLJ6NMH85PJ46SJUKP4Z1V0FD","3JMSRU9HQK08ICOX2U13MFPJ07LVEZ","emotion","mismatch","uniform","","","","","","","1929","120419","122348","[""stimuli/BF06_DO.jpg"",""stimuli/WF04_SC.jpg"",""stimuli/BF08_HE.jpg"",""stimuli/BM04_FO.jpg""]","stimuli/BF06_DO.jpg","stimuli/WF04_SC.jpg","stimuli/BF08_HE.jpg","stimuli/BM04_FO.jpg","pos1","stimuli/BF06_DO.jpg","DO","BF06","0","3.5","7","6","stimuli/stars_7.png","52.5","[""DO"",""SC"",""HE"",""FO""]","[""BF06"",""WF04"",""BF08"",""BM04""]","[7,4,1,7]","[6,4,2,8]","","",""
"show-reward","38","123091","0.0-38.0","p276997","A8B4WA1QFNUAW","3087LXLJ6NMH85PJ46SJUKP4Z1V0FD","3JMSRU9HQK08ICOX2U13MFPJ07LVEZ","emotion","mismatch","uniform","","","","","","","","122850","124852.59999999404","","","","","","","","","","","","7","","stimuli/stars_7.png","52.5","","","","","stimuli/BF06_DO.jpg","",""
"explore-choice","39","124972","0.0-39.0","p276997","A8B4WA1QFNUAW","3087LXLJ6NMH85PJ46SJUKP4Z1V0FD","3JMSRU9HQK08ICOX2U13MFPJ07LVEZ","emotion","mismatch","uniform","","","","","","","1379.7000000178814","124854.19999998808","126233.90000000596","[""stimuli/BF08_FO.jpg"",""stimuli/WF04_HE.jpg"",""stimuli/BM04_DO.jpg"",""stimuli/BF06_SC.jpg""]","stimuli/BF08_FO.jpg","stimuli/WF04_HE.jpg","stimuli/BM04_DO.jpg","stimuli/BF06_SC.jpg","pos3","stimuli/BM04_DO.jpg","DO","BM04","2","2","4","6","stimuli/stars_4.png","54.5","[""FO"",""HE"",""DO"",""SC""]","[""BF08"",""WF04"",""BM04"",""BF06""]","[8,3,4,2]","[8,2,6,4]","","",""
"show-reward","40","126977","0.0-40.0","p276997","A8B4WA1QFNUAW","3087LXLJ6NMH85PJ46SJUKP4Z1V0FD","3JMSRU9HQK08ICOX2U13MFPJ07LVEZ","emotion","mismatch","uniform","","","","","","","","126735.90000000596","128739.29999998212","","","","","","","","","","","","4","","stimuli/stars_4.png","54.5","","","","","stimuli/BM04_DO.jpg","",""
"explore-choice","41","128595","0.0-41.0","p276997","A8B4WA1QFNUAW","3087LXLJ6NMH85PJ46SJUKP4Z1V0FD","3JMSRU9HQK08ICOX2U13MFPJ07LVEZ","emotion","mismatch","uniform","","","","","","","1115.5","128741.09999999404","129856.59999999404","[""stimuli/BF08_DO.jpg"",""stimuli/BF06_SC.jpg"",""stimuli/WF04_FO.jpg"",""stimuli/BM04_HE.jpg""]","stimuli/BF08_DO.jpg","stimuli/BF06_SC.jpg","stimuli/WF04_FO.jpg","stimuli/BM04_HE.jpg","pos4","stimuli/BM04_HE.jpg","HE","BM04","3","2","4","2","stimuli/stars_4.png","56.5","[""DO"",""SC"",""FO"",""HE""]","[""BF08"",""BF06"",""WF04"",""BM04""]","[8,3,8,4]","[6,4,8,2]","","",""
"show-reward","42","130601","0.0-42.0","p276997","A8B4WA1QFNUAW","3087LXLJ6NMH85PJ46SJUKP4Z1V0FD","3JMSRU9HQK08ICOX2U13MFPJ07LVEZ","emotion","mismatch","uniform","","","","","","","","130358.5","132362.59999999404","","","","","","","","","","","","4","","stimuli/stars_4.png","56.5","","","","","stimuli/BM04_HE.jpg","",""
"explore-choice","43","133288","0.0-43.0","p276997","A8B4WA1QFNUAW","3087LXLJ6NMH85PJ46SJUKP4Z1V0FD","3JMSRU9HQK08ICOX2U13MFPJ07LVEZ","emotion","mismatch","uniform","","","","","","","2186.0999999940395","132364.40000000596","134550.5","[""stimuli/BF06_SC.jpg"",""stimuli/BF08_HE.jpg"",""stimuli/BM04_FO.jpg"",""stimuli/WF04_DO.jpg""]","stimuli/BF06_SC.jpg","stimuli/BF08_HE.jpg","stimuli/BM04_FO.jpg","stimuli/WF04_DO.jpg","pos2","stimuli/BF08_HE.jpg","HE","BF08","1","1","2","2","stimuli/stars_2.png","57.5","[""SC"",""HE"",""FO"",""DO""]","[""BF06"",""BF08"",""BM04"",""WF04""]","[5,2,6,8]","[4,2,8,6]","","",""
"show-reward","44","135292","0.0-44.0","p276997","A8B4WA1QFNUAW","3087LXLJ6NMH85PJ46SJUKP4Z1V0FD","3JMSRU9HQK08ICOX2U13MFPJ07LVEZ","emotion","mismatch","uniform","","","","","","","","135052.29999998212","137054.40000000596","","","","","","","","","","","","2","","stimuli/stars_2.png","57.5","","","","","stimuli/BF08_HE.jpg","",""
"explore-choice","45","137767","0.0-45.0","p276997","A8B4WA1QFNUAW","3087LXLJ6NMH85PJ46SJUKP4Z1V0FD","3JMSRU9HQK08ICOX2U13MFPJ07LVEZ","emotion","mismatch","uniform","","","","","","","1973.4000000059605","137055.69999998808","139029.09999999404","[""stimuli/WF04_DO.jpg"",""stimuli/BF06_HE.jpg"",""stimuli/BM04_SC.jpg"",""stimuli/BF08_FO.jpg""]","stimuli/WF04_DO.jpg","stimuli/BF06_HE.jpg","stimuli/BM04_SC.jpg","stimuli/BF08_FO.jpg","pos3","stimuli/BM04_SC.jpg","SC","BM04","2","1","2","4","stimuli/stars_2.png","58.5","[""DO"",""HE"",""SC"",""FO""]","[""WF04"",""BF06"",""BM04"",""BF08""]","[6,4,2,7]","[6,2,4,8]","","",""
"show-reward","46","139770","0.0-46.0","p276997","A8B4WA1QFNUAW","3087LXLJ6NMH85PJ46SJUKP4Z1V0FD","3JMSRU9HQK08ICOX2U13MFPJ07LVEZ","emotion","mismatch","uniform","","","","","","","","139530.79999998212","141532.69999998808","","","","","","","","","","","","2","","stimuli/stars_2.png","58.5","","","","","stimuli/BM04_SC.jpg","",""
"explore-choice","47","141814","0.0-47.0","p276997","A8B4WA1QFNUAW","3087LXLJ6NMH85PJ46SJUKP4Z1V0FD","3JMSRU9HQK08ICOX2U13MFPJ07LVEZ","emotion","mismatch","uniform","","","","","","","1541.5","141534.09999999404","143075.59999999404","[""stimuli/BF06_FO.jpg"",""stimuli/WF04_HE.jpg"",""stimuli/BF08_SC.jpg"",""stimuli/BM04_DO.jpg""]","stimuli/BF06_FO.jpg","stimuli/WF04_HE.jpg","stimuli/BF08_SC.jpg","stimuli/BM04_DO.jpg","pos3","stimuli/BF08_SC.jpg","SC","BF08","2","1.5","3","4","stimuli/stars_3.png","60","[""FO"",""HE"",""SC"",""DO""]","[""BF06"",""WF04"",""BF08"",""BM04""]","[8,3,3,6]","[8,2,4,6]","","",""
"show-reward","48","143818","0.0-48.0","p276997","A8B4WA1QFNUAW","3087LXLJ6NMH85PJ46SJUKP4Z1V0FD","3JMSRU9HQK08ICOX2U13MFPJ07LVEZ","emotion","mismatch","uniform","","","","","","","","143577.5","145579.69999998808","","","","","","","","","","","","3","","stimuli/stars_3.png","60","","","","","stimuli/BF08_SC.jpg","",""
"explore-choice","49","146011","0.0-49.0","p276997","A8B4WA1QFNUAW","3087LXLJ6NMH85PJ46SJUKP4Z1V0FD","3JMSRU9HQK08ICOX2U13MFPJ07LVEZ","emotion","mismatch","uniform","","","","","","","1690.6000000238419","145581.79999998212","147272.40000000596","[""stimuli/BM04_SC.jpg"",""stimuli/BF06_FO.jpg"",""stimuli/BF08_HE.jpg"",""stimuli/WF04_DO.jpg""]","stimuli/BM04_SC.jpg","stimuli/BF06_FO.jpg","stimuli/BF08_HE.jpg","stimuli/WF04_DO.jpg","pos4","stimuli/WF04_DO.jpg","DO","WF04","3","2.5","5","6","stimuli/stars_5.png","62.5","[""SC"",""FO"",""HE"",""DO""]","[""BM04"",""BF06"",""BF08"",""WF04""]","[5,10,0,5]","[4,8,2,6]","","",""
"show-reward","50","148014","0.0-50.0","p276997","A8B4WA1QFNUAW","3087LXLJ6NMH85PJ46SJUKP4Z1V0FD","3JMSRU9HQK08ICOX2U13MFPJ07LVEZ","emotion","mismatch","uniform","","","","","","","","147774.19999998808","149776.69999998808","","","","","","","","","","","","5","","stimuli/stars_5.png","62.5","","","","","stimuli/WF04_DO.jpg","",""
"explore-choice","51","150913","0.0-51.0","p276997","A8B4WA1QFNUAW","3087LXLJ6NMH85PJ46SJUKP4Z1V0FD","3JMSRU9HQK08ICOX2U13MFPJ07LVEZ","emotion","mismatch","uniform","","","","","","","2396.5999999940395","149778","152174.59999999404","[""stimuli/BF06_DO.jpg"",""stimuli/BM04_HE.jpg"",""stimuli/WF04_FO.jpg"",""stimuli/BF08_SC.jpg""]","stimuli/BF06_DO.jpg","stimuli/BM04_HE.jpg","stimuli/WF04_FO.jpg","stimuli/BF08_SC.jpg","pos2","stimuli/BM04_HE.jpg","HE","BM04","1","2","4","2","stimuli/stars_4.png","64.5","[""DO"",""HE"",""FO"",""SC""]","[""BF06"",""BM04"",""WF04"",""BF08""]","[5,4,7,5]","[6,2,8,4]","","",""
"show-reward","52","152919","0.0-52.0","p276997","A8B4WA1QFNUAW","3087LXLJ6NMH85PJ46SJUKP4Z1V0FD","3JMSRU9HQK08ICOX2U13MFPJ07LVEZ","emotion","mismatch","uniform","","","","","","","","152676.69999998808","154681","","","","","","","","","","","","4","","stimuli/stars_4.png","64.5","","","","","stimuli/BM04_HE.jpg","",""
"explore-choice","53","154031","0.0-53.0","p276997","A8B4WA1QFNUAW","3087LXLJ6NMH85PJ46SJUKP4Z1V0FD","3JMSRU9HQK08ICOX2U13MFPJ07LVEZ","emotion","mismatch","uniform","","","","","","","610.6000000238419","154682.29999998212","155292.90000000596","[""stimuli/BF08_FO.jpg"",""stimuli/BM04_DO.jpg"",""stimuli/WF04_SC.jpg"",""stimuli/BF06_HE.jpg""]","stimuli/BF08_FO.jpg","stimuli/BM04_DO.jpg","stimuli/WF04_SC.jpg","stimuli/BF06_HE.jpg","pos3","stimuli/WF04_SC.jpg","SC","WF04","2","2.5","5","4","stimuli/stars_5.png","67","[""FO"",""DO"",""SC"",""HE""]","[""BF08"",""BM04"",""WF04"",""BF06""]","[8,4,5,3]","[8,6,4,2]","","",""
"show-reward","54","156035","0.0-54.0","p276997","A8B4WA1QFNUAW","3087LXLJ6NMH85PJ46SJUKP4Z1V0FD","3JMSRU9HQK08ICOX2U13MFPJ07LVEZ","emotion","mismatch","uniform","","","","","","","","155794.69999998808","157797","","","","","","","","","","","","5","","stimuli/stars_5.png","67","","","","","stimuli/WF04_SC.jpg","",""
"explore-choice","55","158151","0.0-55.0","p276997","A8B4WA1QFNUAW","3087LXLJ6NMH85PJ46SJUKP4Z1V0FD","3JMSRU9HQK08ICOX2U13MFPJ07LVEZ","emotion","mismatch","uniform","","","","","","","1614.199999988079","157798.5","159412.69999998808","[""stimuli/BF06_DO.jpg"",""stimuli/BF08_SC.jpg"",""stimuli/WF04_FO.jpg"",""stimuli/BM04_HE.jpg""]","stimuli/BF06_DO.jpg","stimuli/BF08_SC.jpg","stimuli/WF04_FO.jpg","stimuli/BM04_HE.jpg","pos3","stimuli/WF04_FO.jpg","FO","WF04","2","3.5","7","8","stimuli/stars_7.png","70.5","[""DO"",""SC"",""FO"",""HE""]","[""BF06"",""BF08"",""WF04"",""BM04""]","[5,5,7,4]","[6,4,8,2]","","",""
"show-reward","56","160154","0.0-56.0","p276997","A8B4WA1QFNUAW","3087LXLJ6NMH85PJ46SJUKP4Z1V0FD","3JMSRU9HQK08ICOX2U13MFPJ07LVEZ","emotion","mismatch","uniform","","","","","","","","159914.40000000596","161916.5","","","","","","","","","","","","7","","stimuli/stars_7.png","70.5","","","","","stimuli/WF04_FO.jpg","",""
"explore-choice","57","162244","0.0-57.0","p276997","A8B4WA1QFNUAW","3087LXLJ6NMH85PJ46SJUKP4Z1V0FD","3JMSRU9HQK08ICOX2U13MFPJ07LVEZ","emotion","mismatch","uniform","","","","","","","1587.4000000059605","161918.09999999404","163505.5","[""stimuli/WF04_FO.jpg"",""stimuli/BM04_SC.jpg"",""stimuli/BF08_DO.jpg"",""stimuli/BF06_HE.jpg""]","stimuli/WF04_FO.jpg","stimuli/BM04_SC.jpg","stimuli/BF08_DO.jpg","stimuli/BF06_HE.jpg","pos1","stimuli/WF04_FO.jpg","FO","WF04","0","5","10","8","stimuli/stars_10.png","75.5","[""FO"",""SC"",""DO"",""HE""]","[""WF04"",""BM04"",""BF08"",""BF06""]","[10,6,8,1]","[8,4,6,2]","","",""
"show-reward","58","164248","0.0-58.0","p276997","A8B4WA1QFNUAW","3087LXLJ6NMH85PJ46SJUKP4Z1V0FD","3JMSRU9HQK08ICOX2U13MFPJ07LVEZ","emotion","mismatch","uniform","","","","","","","","164008.09999999404","166010.29999998212","","","","","","","","","","","","10","","stimuli/stars_10.png","75.5","","","","","stimuli/WF04_FO.jpg","",""
"explore-choice","59","166914","0.0-59.0","p276997","A8B4WA1QFNUAW","3087LXLJ6NMH85PJ46SJUKP4Z1V0FD","3JMSRU9HQK08ICOX2U13MFPJ07LVEZ","emotion","mismatch","uniform","","","","","","","2164.199999988079","166011.59999999404","168175.79999998212","[""stimuli/BF08_DO.jpg"",""stimuli/WF04_SC.jpg"",""stimuli/BF06_HE.jpg"",""stimuli/BM04_FO.jpg""]","stimuli/BF08_DO.jpg","stimuli/WF04_SC.jpg","stimuli/BF06_HE.jpg","stimuli/BM04_FO.jpg","pos1","stimuli/BF08_DO.jpg","DO","BF08","0","3.5","7","6","stimuli/stars_7.png","79","[""DO"",""SC"",""HE"",""FO""]","[""BF08"",""WF04"",""BF06"",""BM04""]","[7,3,4,8]","[6,4,2,8]","","",""
"show-reward","60","168918","0.0-60.0","p276997","A8B4WA1QFNUAW","3087LXLJ6NMH85PJ46SJUKP4Z1V0FD","3JMSRU9HQK08ICOX2U13MFPJ07LVEZ","emotion","mismatch","uniform","","","","","","","","168677.40000000596","170680.09999999404","","","","","","","","","","","","7","","stimuli/stars_7.png","79","","","","","stimuli/BF08_DO.jpg","",""
"explore-choice","61","170986","0.0-61.0","p276997","A8B4WA1QFNUAW","3087LXLJ6NMH85PJ46SJUKP4Z1V0FD","3JMSRU9HQK08ICOX2U13MFPJ07LVEZ","emotion","mismatch","uniform","","","","","","","1566.199999988079","170681.40000000596","172247.59999999404","[""stimuli/WF04_DO.jpg"",""stimuli/BM04_HE.jpg"",""stimuli/BF06_SC.jpg"",""stimuli/BF08_FO.jpg""]","stimuli/WF04_DO.jpg","stimuli/BM04_HE.jpg","stimuli/BF06_SC.jpg","stimuli/BF08_FO.jpg","pos4","stimuli/BF08_FO.jpg","FO","BF08","3","5","10","8","stimuli/stars_10.png","84","[""DO"",""HE"",""SC"",""FO""]","[""WF04"",""BM04"",""BF06"",""BF08""]","[7,2,2,10]","[6,2,4,8]","","",""
"show-reward","62","172989","0.0-62.0","p276997","A8B4WA1QFNUAW","3087LXLJ6NMH85PJ46SJUKP4Z1V0FD","3JMSRU9HQK08ICOX2U13MFPJ07LVEZ","emotion","mismatch","uniform","","","","","","","","172749.29999998212","174751.40000000596","","","","","","","","","","","","10","","stimuli/stars_10.png","84","","","","","stimuli/BF08_FO.jpg","",""
"explore-choice","63","175208","0.0-63.0","p276997","A8B4WA1QFNUAW","3087LXLJ6NMH85PJ46SJUKP4Z1V0FD","3JMSRU9HQK08ICOX2U13MFPJ07LVEZ","emotion","mismatch","uniform","","","","","","","1715.800000011921","174752.79999998212","176468.59999999404","[""stimuli/BF08_HE.jpg"",""stimuli/WF04_DO.jpg"",""stimuli/BM04_SC.jpg"",""stimuli/BF06_FO.jpg""]","stimuli/BF08_HE.jpg","stimuli/WF04_DO.jpg","stimuli/BM04_SC.jpg","stimuli/BF06_FO.jpg","pos4","stimuli/BF06_FO.jpg","FO","BF06","3","5","10","8","stimuli/stars_10.png","89","[""HE"",""DO"",""SC"",""FO""]","[""BF08"",""WF04"",""BM04"",""BF06""]","[0,5,5,10]","[2,6,4,8]","","",""
"show-reward","64","177211","0.0-64.0","p276997","A8B4WA1QFNUAW","3087LXLJ6NMH85PJ46SJUKP4Z1V0FD","3JMSRU9HQK08ICOX2U13MFPJ07LVEZ","emotion","mismatch","uniform","","","","","","","","176971.40000000596","178973.5","","","","","","","","","","","","10","","stimuli/stars_10.png","89","","","","","stimuli/BF06_FO.jpg","",""
"explore-choice","65","180372","0.0-65.0","p276997","A8B4WA1QFNUAW","3087LXLJ6NMH85PJ46SJUKP4Z1V0FD","3JMSRU9HQK08ICOX2U13MFPJ07LVEZ","emotion","mismatch","uniform","","","","","","","2659","178974.79999998212","181633.79999998212","[""stimuli/BF08_DO.jpg"",""stimuli/BF06_SC.jpg"",""stimuli/WF04_HE.jpg"",""stimuli/BM04_FO.jpg""]","stimuli/BF08_DO.jpg","stimuli/BF06_SC.jpg","stimuli/WF04_HE.jpg","stimuli/BM04_FO.jpg","pos4","stimuli/BM04_FO.jpg","FO","BM04","3","5","10","8","stimuli/stars_10.png","94","[""DO"",""SC"",""HE"",""FO""]","[""BF08"",""BF06"",""WF04"",""BM04""]","[8,3,3,10]","[6,4,2,8]","","",""
"show-reward","66","182376","0.0-66.0","p276997","A8B4WA1QFNUAW","3087LXLJ6NMH85PJ46SJUKP4Z1V0FD","3JMSRU9HQK08ICOX2U13MFPJ07LVEZ","emotion","mismatch","uniform","","","","","","","","182135.40000000596","184137.90000000596","","","","","","","","","","","","10","","stimuli/stars_10.png","94","","","","","stimuli/BM04_FO.jpg","",""
"explore-choice","67","183930","0.0-67.0","p276997","A8B4WA1QFNUAW","3087LXLJ6NMH85PJ46SJUKP4Z1V0FD","3JMSRU9HQK08ICOX2U13MFPJ07LVEZ","emotion","mismatch","uniform","","","","","","","1053","184139.19999998808","185192.19999998808","[""stimuli/BF06_SC.jpg"",""stimuli/BF08_HE.jpg"",""stimuli/BM04_FO.jpg"",""stimuli/WF04_DO.jpg""]","stimuli/BF06_SC.jpg","stimuli/BF08_HE.jpg","stimuli/BM04_FO.jpg","stimuli/WF04_DO.jpg","pos3","stimuli/BM04_FO.jpg","FO","BM04","2","3","6","8","stimuli/stars_6.png","97","[""SC"",""HE"",""FO"",""DO""]","[""BF06"",""BF08"",""BM04"",""WF04""]","[5,2,6,8]","[4,2,8,6]","","",""
"show-reward","68","185934","0.0-68.0","p276997","A8B4WA1QFNUAW","3087LXLJ6NMH85PJ46SJUKP4Z1V0FD","3JMSRU9HQK08ICOX2U13MFPJ07LVEZ","emotion","mismatch","uniform","","","","","","","","185694","187696.29999998212","","","","","","","","","","","","6","","stimuli/stars_6.png","97","","","","","stimuli/BM04_FO.jpg","",""
"explore-choice","69","187481","0.0-69.0","p276997","A8B4WA1QFNUAW","3087LXLJ6NMH85PJ46SJUKP4Z1V0FD","3JMSRU9HQK08ICOX2U13MFPJ07LVEZ","emotion","mismatch","uniform","","","","","","","1045.0999999940395","187697.5","188742.59999999404","[""stimuli/BF08_HE.jpg"",""stimuli/BM04_DO.jpg"",""stimuli/BF06_SC.jpg"",""stimuli/WF04_FO.jpg""]","stimuli/BF08_HE.jpg","stimuli/BM04_DO.jpg","stimuli/BF06_SC.jpg","stimuli/WF04_FO.jpg","pos1","stimuli/BF08_HE.jpg","HE","BF08","0","0","0","2","stimuli/stars_0.png","97","[""HE"",""DO"",""SC"",""FO""]","[""BF08"",""BM04"",""BF06"",""WF04""]","[0,4,2,10]","[2,6,4,8]","","",""
"show-reward","70","189484","0.0-70.0","p276997","A8B4WA1QFNUAW","3087LXLJ6NMH85PJ46SJUKP4Z1V0FD","3JMSRU9HQK08ICOX2U13MFPJ07LVEZ","emotion","mismatch","uniform","","","","","","","","189244.79999998212","191246.59999999404","","","","","","","","","","","","0","","stimuli/stars_0.png","97","","","","","stimuli/BF08_HE.jpg","",""
"explore-choice","71","192614","0.0-71.0","p276997","A8B4WA1QFNUAW","3087LXLJ6NMH85PJ46SJUKP4Z1V0FD","3JMSRU9HQK08ICOX2U13MFPJ07LVEZ","emotion","mismatch","uniform","","","","","","","2622.600000023842","191253.29999998212","193875.90000000596","[""stimuli/BF08_SC.jpg"",""stimuli/BF06_FO.jpg"",""stimuli/BM04_HE.jpg"",""stimuli/WF04_DO.jpg""]","stimuli/BF08_SC.jpg","stimuli/BF06_FO.jpg","stimuli/BM04_HE.jpg","stimuli/WF04_DO.jpg","pos2","stimuli/BF06_FO.jpg","FO","BF06","1","4","8","8","stimuli/stars_8.png","101","[""SC"",""FO"",""HE"",""DO""]","[""BF08"",""BF06"",""BM04"",""WF04""]","[5,8,0,6]","[4,8,2,6]","","",""
"show-reward","72","194618","0.0-72.0","p276997","A8B4WA1QFNUAW","3087LXLJ6NMH85PJ46SJUKP4Z1V0FD","3JMSRU9HQK08ICOX2U13MFPJ07LVEZ","emotion","mismatch","uniform","","","","","","","","194378.09999999404","196380","","","","","","","","","","","","8","","stimuli/stars_8.png","101","","","","","stimuli/BF06_FO.jpg","",""
"explore-choice","73","197284","0.0-73.0","p276997","A8B4WA1QFNUAW","3087LXLJ6NMH85PJ46SJUKP4Z1V0FD","3JMSRU9HQK08ICOX2U13MFPJ07LVEZ","emotion","mismatch","uniform","","","","","","","2164.4000000059605","196381.29999998212","198545.69999998808","[""stimuli/BM04_DO.jpg"",""stimuli/BF06_FO.jpg"",""stimuli/BF08_HE.jpg"",""stimuli/WF04_SC.jpg""]","stimuli/BM04_DO.jpg","stimuli/BF06_FO.jpg","stimuli/BF08_HE.jpg","stimuli/WF04_SC.jpg","pos2","stimuli/BF06_FO.jpg","FO","BF06","1","3.5","7","8","stimuli/stars_7.png","104.5","[""DO"",""FO"",""HE"",""SC""]","[""BM04"",""BF06"",""BF08"",""WF04""]","[6,7,0,3]","[6,8,2,4]","","",""
"show-reward","74","199288","0.0-74.0","p276997","A8B4WA1QFNUAW","3087LXLJ6NMH85PJ46SJUKP4Z1V0FD","3JMSRU9HQK08ICOX2U13MFPJ07LVEZ","emotion","mismatch","uniform","","","","","","","","199047.90000000596","201049.90000000596","","","","","","","","","","","","7","","stimuli/stars_7.png","104.5","","","","","stimuli/BF06_FO.jpg","",""
"explore-choice","75","200499","0.0-75.0","p276997","A8B4WA1QFNUAW","3087LXLJ6NMH85PJ46SJUKP4Z1V0FD","3JMSRU9HQK08ICOX2U13MFPJ07LVEZ","emotion","mismatch","uniform","","","","","","","709.5999999940395","201051.59999999404","201761.19999998808","[""stimuli/BM04_DO.jpg"",""stimuli/WF04_HE.jpg"",""stimuli/BF08_SC.jpg"",""stimuli/BF06_FO.jpg""]","stimuli/BM04_DO.jpg","stimuli/WF04_HE.jpg","stimuli/BF08_SC.jpg","stimuli/BF06_FO.jpg","pos1","stimuli/BM04_DO.jpg","DO","BM04","0","3","6","6","stimuli/stars_6.png","107.5","[""DO"",""HE"",""SC"",""FO""]","[""BM04"",""WF04"",""BF08"",""BF06""]","[6,3,3,8]","[6,2,4,8]","","",""
"show-reward","76","202507","0.0-76.0","p276997","A8B4WA1QFNUAW","3087LXLJ6NMH85PJ46SJUKP4Z1V0FD","3JMSRU9HQK08ICOX2U13MFPJ07LVEZ","emotion","mismatch","uniform","","","","","","","","202262.79999998212","204266.69999998808","","","","","","","","","","","","6","","stimuli/stars_6.png","107.5","","","","","stimuli/BM04_DO.jpg","",""
"explore-choice","77","204753","0.0-77.0","p276997","A8B4WA1QFNUAW","3087LXLJ6NMH85PJ46SJUKP4Z1V0FD","3JMSRU9HQK08ICOX2U13MFPJ07LVEZ","emotion","mismatch","uniform","","","","","","","1744","204270.69999998808","206014.69999998808","[""stimuli/BF08_FO.jpg"",""stimuli/BM04_HE.jpg"",""stimuli/BF06_DO.jpg"",""stimuli/WF04_SC.jpg""]","stimuli/BF08_FO.jpg","stimuli/BM04_HE.jpg","stimuli/BF06_DO.jpg","stimuli/WF04_SC.jpg","pos1","stimuli/BF08_FO.jpg","FO","BF08","0","3.5","7","8","stimuli/stars_7.png","111","[""FO"",""HE"",""DO"",""SC""]","[""BF08"",""BM04"",""BF06"",""WF04""]","[7,3,5,2]","[8,2,6,4]","","",""
"show-reward","78","206758","0.0-78.0","p276997","A8B4WA1QFNUAW","3087LXLJ6NMH85PJ46SJUKP4Z1V0FD","3JMSRU9HQK08ICOX2U13MFPJ07LVEZ","emotion","mismatch","uniform","","","","","","","","206517.09999999404","208519.69999998808","","","","","","","","","","","","7","","stimuli/stars_7.png","111","","","","","stimuli/BF08_FO.jpg","",""
"explore-choice","79","209207","0.0-79.0","p276997","A8B4WA1QFNUAW","3087LXLJ6NMH85PJ46SJUKP4Z1V0FD","3JMSRU9HQK08ICOX2U13MFPJ07LVEZ","emotion","mismatch","uniform","","","","","","","1947.9000000059605","208521.5","210469.40000000596","[""stimuli/BF08_DO.jpg"",""stimuli/BF06_FO.jpg"",""stimuli/WF04_HE.jpg"",""stimuli/BM04_SC.jpg""]","stimuli/BF08_DO.jpg","stimuli/BF06_FO.jpg","stimuli/WF04_HE.jpg","stimuli/BM04_SC.jpg","pos1","stimuli/BF08_DO.jpg","DO","BF08","0","3.5","7","6","stimuli/stars_7.png","114.5","[""DO"",""FO"",""HE"",""SC""]","[""BF08"",""BF06"",""WF04"",""BM04""]","[7,7,0,6]","[6,8,2,4]","","",""
"show-reward","80","211214","0.0-80.0","p276997","A8B4WA1QFNUAW","3087LXLJ6NMH85PJ46SJUKP4Z1V0FD","3JMSRU9HQK08ICOX2U13MFPJ07LVEZ","emotion","mismatch","uniform","","","","","","","","210971.29999998212","212973.19999998808","","","","","","","","","","","","7","","stimuli/stars_7.png","114.5","","","","","stimuli/BF08_DO.jpg","",""
"explore-choice","81","212901","0.0-81.0","p276997","A8B4WA1QFNUAW","3087LXLJ6NMH85PJ46SJUKP4Z1V0FD","3JMSRU9HQK08ICOX2U13MFPJ07LVEZ","emotion","mismatch","uniform","","","","","","","1185","212977.79999998212","214162.79999998212","[""stimuli/BM04_SC.jpg"",""stimuli/BF08_HE.jpg"",""stimuli/BF06_DO.jpg"",""stimuli/WF04_FO.jpg""]","stimuli/BM04_SC.jpg","stimuli/BF08_HE.jpg","stimuli/BF06_DO.jpg","stimuli/WF04_FO.jpg","pos2","stimuli/BF08_HE.jpg","HE","BF08","1","0","0","2","stimuli/stars_0.png","114.5","[""SC"",""HE"",""DO"",""FO""]","[""BM04"",""BF08"",""BF06"",""WF04""]","[3,0,5,10]","[4,2,6,8]","","",""
"show-reward","82","214905","0.0-82.0","p276997","A8B4WA1QFNUAW","3087LXLJ6NMH85PJ46SJUKP4Z1V0FD","3JMSRU9HQK08ICOX2U13MFPJ07LVEZ","emotion","mismatch","uniform","","","","","","","","214664.59999999404","216667.09999999404","","","","","","","","","","","","0","","stimuli/stars_0.png","114.5","","","","","stimuli/BF08_HE.jpg","",""
"explore-choice","83","217021","0.0-83.0","p276997","A8B4WA1QFNUAW","3087LXLJ6NMH85PJ46SJUKP4Z1V0FD","3JMSRU9HQK08ICOX2U13MFPJ07LVEZ","emotion","mismatch","uniform","","","","","","","1614.7000000178814","216668.29999998212","218283","[""stimuli/BM04_DO.jpg"",""stimuli/BF06_HE.jpg"",""stimuli/BF08_FO.jpg"",""stimuli/WF04_SC.jpg""]","stimuli/BM04_DO.jpg","stimuli/BF06_HE.jpg","stimuli/BF08_FO.jpg","stimuli/WF04_SC.jpg","pos3","stimuli/BF08_FO.jpg","FO","BF08","2","4","8","8","stimuli/stars_8.png","118.5","[""DO"",""HE"",""FO"",""SC""]","[""BM04"",""BF06"",""BF08"",""WF04""]","[4,3,8,5]","[6,2,8,4]","","",""
"show-reward","84","219024","0.0-84.0","p276997","A8B4WA1QFNUAW","3087LXLJ6NMH85PJ46SJUKP4Z1V0FD","3JMSRU9HQK08ICOX2U13MFPJ07LVEZ","emotion","mismatch","uniform","","","","","","","","218784.5","220786.59999999404","","","","","","","","","","","","8","","stimuli/stars_8.png","118.5","","","","","stimuli/BF08_FO.jpg","",""
"explore-choice","85","220330","0.0-85.0","p276997","A8B4WA1QFNUAW","3087LXLJ6NMH85PJ46SJUKP4Z1V0FD","3JMSRU9HQK08ICOX2U13MFPJ07LVEZ","emotion","mismatch","uniform","","","","","","","803.8000000119209","220787.79999998212","221591.59999999404","[""stimuli/BF08_FO.jpg"",""stimuli/BM04_SC.jpg"",""stimuli/WF04_HE.jpg"",""stimuli/BF06_DO.jpg""]","stimuli/BF08_FO.jpg","stimuli/BM04_SC.jpg","stimuli/WF04_HE.jpg","stimuli/BF06_DO.jpg","pos1","stimuli/BF08_FO.jpg","FO","BF08","0","3","6","8","stimuli/stars_6.png","121.5","[""FO"",""SC"",""HE"",""DO""]","[""BF08"",""BM04"",""WF04"",""BF06""]","[6,3,0,7]","[8,4,2,6]","","",""
"show-reward","86","222333","0.0-86.0","p276997","A8B4WA1QFNUAW","3087LXLJ6NMH85PJ46SJUKP4Z1V0FD","3JMSRU9HQK08ICOX2U13MFPJ07LVEZ","emotion","mismatch","uniform","","","","","","","","222093.40000000596","224095.40000000596","","","","","","","","","","","","6","","stimuli/stars_6.png","121.5","","","","","stimuli/BF08_FO.jpg","",""
"explore-choice","87","224537","0.0-87.0","p276997","A8B4WA1QFNUAW","3087LXLJ6NMH85PJ46SJUKP4Z1V0FD","3JMSRU9HQK08ICOX2U13MFPJ07LVEZ","emotion","mismatch","uniform","","","","","","","1701.4000000059605","224096.69999998808","225798.09999999404","[""stimuli/BM04_SC.jpg"",""stimuli/BF06_HE.jpg"",""stimuli/BF08_FO.jpg"",""stimuli/WF04_DO.jpg""]","stimuli/BM04_SC.jpg","stimuli/BF06_HE.jpg","stimuli/BF08_FO.jpg","stimuli/WF04_DO.jpg","pos3","stimuli/BF08_FO.jpg","FO","BF08","2","3.5","7","8","stimuli/stars_7.png","125","[""SC"",""HE"",""FO"",""DO""]","[""BM04"",""BF06"",""BF08"",""WF04""]","[2,4,7,6]","[4,2,8,6]","","",""
"show-reward","88","226541","0.0-88.0","p276997","A8B4WA1QFNUAW","3087LXLJ6NMH85PJ46SJUKP4Z1V0FD","3JMSRU9HQK08ICOX2U13MFPJ07LVEZ","emotion","mismatch","uniform","","","","","","","","226300","228303.40000000596","","","","","","","","","","","","7","","stimuli/stars_7.png","125","","","","","stimuli/BF08_FO.jpg","",""
"explore-choice","89","228079","0.0-89.0","p276997","A8B4WA1QFNUAW","3087LXLJ6NMH85PJ46SJUKP4Z1V0FD","3JMSRU9HQK08ICOX2U13MFPJ07LVEZ","emotion","mismatch","uniform","","","","","","","1035.8999999761581","228304.90000000596","229340.79999998212","[""stimuli/BM04_HE.jpg"",""stimuli/WF04_FO.jpg"",""stimuli/BF06_SC.jpg"",""stimuli/BF08_DO.jpg""]","stimuli/BM04_HE.jpg","stimuli/WF04_FO.jpg","stimuli/BF06_SC.jpg","stimuli/BF08_DO.jpg","pos4","stimuli/BF08_DO.jpg","DO","BF08","3","4","8","6","stimuli/stars_8.png","129","[""HE"",""FO"",""SC"",""DO""]","[""BM04"",""WF04"",""BF06"",""BF08""]","[4,8,3,8]","[2,8,4,6]","","",""
"show-reward","90","230083","0.0-90.0","p276997","A8B4WA1QFNUAW","3087LXLJ6NMH85PJ46SJUKP4Z1V0FD","3JMSRU9HQK08ICOX2U13MFPJ07LVEZ","emotion","mismatch","uniform","","","","","","","","229842.59999999404","231844.69999998808","","","","","","","","","","","","8","","stimuli/stars_8.png","129","","","","","stimuli/BF08_DO.jpg","",""
"explore-choice","91","231501","0.0-91.0","p276997","A8B4WA1QFNUAW","3087LXLJ6NMH85PJ46SJUKP4Z1V0FD","3JMSRU9HQK08ICOX2U13MFPJ07LVEZ","emotion","mismatch","uniform","","","","","","","916.9000000059605","231846.29999998212","232763.19999998808","[""stimuli/BM04_DO.jpg"",""stimuli/BF06_HE.jpg"",""stimuli/WF04_FO.jpg"",""stimuli/BF08_SC.jpg""]","stimuli/BM04_DO.jpg","stimuli/BF06_HE.jpg","stimuli/WF04_FO.jpg","stimuli/BF08_SC.jpg","pos1","stimuli/BM04_DO.jpg","DO","BM04","0","3","6","6","stimuli/stars_6.png","132","[""DO"",""HE"",""FO"",""SC""]","[""BM04"",""BF06"",""WF04"",""BF08""]","[6,0,6,6]","[6,2,8,4]","","",""
"show-reward","92","233507","0.0-92.0","p276997","A8B4WA1QFNUAW","3087LXLJ6NMH85PJ46SJUKP4Z1V0FD","3JMSRU9HQK08ICOX2U13MFPJ07LVEZ","emotion","mismatch","uniform","","","","","","","","233265.09999999404","235268.90000000596","","","","","","","","","","","","6","","stimuli/stars_6.png","132","","","","","stimuli/BM04_DO.jpg","",""
"explore-choice","93","235859","0.0-93.0","p276997","A8B4WA1QFNUAW","3087LXLJ6NMH85PJ46SJUKP4Z1V0FD","3JMSRU9HQK08ICOX2U13MFPJ07LVEZ","emotion","mismatch","uniform","","","","","","","1850.300000011921","235270.29999998212","237120.59999999404","[""stimuli/BM04_DO.jpg"",""stimuli/WF04_HE.jpg"",""stimuli/BF06_SC.jpg"",""stimuli/BF08_FO.jpg""]","stimuli/BM04_DO.jpg","stimuli/WF04_HE.jpg","stimuli/BF06_SC.jpg","stimuli/BF08_FO.jpg","pos4","stimuli/BF08_FO.jpg","FO","BF08","3","4","8","8","stimuli/stars_8.png","136","[""DO"",""HE"",""SC"",""FO""]","[""BM04"",""WF04"",""BF06"",""BF08""]","[4,3,2,8]","[6,2,4,8]","","",""
"show-reward","94","237864","0.0-94.0","p276997","A8B4WA1QFNUAW","3087LXLJ6NMH85PJ46SJUKP4Z1V0FD","3JMSRU9HQK08ICOX2U13MFPJ07LVEZ","emotion","mismatch","uniform","","","","","","","","237622.09999999404","239625.69999998808","","","","","","","","","","","","8","","stimuli/stars_8.png","136","","","","","stimuli/BF08_FO.jpg","",""
"explore-choice","95","239825","0.0-95.0","p276997","A8B4WA1QFNUAW","3087LXLJ6NMH85PJ46SJUKP4Z1V0FD","3JMSRU9HQK08ICOX2U13MFPJ07LVEZ","emotion","mismatch","uniform","","","","","","","1459.5","239627.29999998212","241086.79999998212","[""stimuli/BM04_HE.jpg"",""stimuli/BF08_DO.jpg"",""stimuli/BF06_FO.jpg"",""stimuli/WF04_SC.jpg""]","stimuli/BM04_HE.jpg","stimuli/BF08_DO.jpg","stimuli/BF06_FO.jpg","stimuli/WF04_SC.jpg","pos2","stimuli/BF08_DO.jpg","DO","BF08","1","3","6","6","stimuli/stars_6.png","139","[""HE"",""DO"",""FO"",""SC""]","[""BM04"",""BF08"",""BF06"",""WF04""]","[3,6,8,2]","[2,6,8,4]","","",""
"show-reward","96","241828","0.0-96.0","p276997","A8B4WA1QFNUAW","3087LXLJ6NMH85PJ46SJUKP4Z1V0FD","3JMSRU9HQK08ICOX2U13MFPJ07LVEZ","emotion","mismatch","uniform","","","","","","","","241588.29999998212","243590.19999998808","","","","","","","","","","","","6","","stimuli/stars_6.png","139","","","","","stimuli/BF08_DO.jpg","",""
"explore-choice","97","243496","0.0-97.0","p276997","A8B4WA1QFNUAW","3087LXLJ6NMH85PJ46SJUKP4Z1V0FD","3JMSRU9HQK08ICOX2U13MFPJ07LVEZ","emotion","mismatch","uniform","","","","","","","1166.5999999940395","243591.59999999404","244758.19999998808","[""stimuli/BF06_HE.jpg"",""stimuli/BF08_SC.jpg"",""stimuli/WF04_DO.jpg"",""stimuli/BM04_FO.jpg""]","stimuli/BF06_HE.jpg","stimuli/BF08_SC.jpg","stimuli/WF04_DO.jpg","stimuli/BM04_FO.jpg","pos3","stimuli/WF04_DO.jpg","DO","WF04","2","3","6","6","stimuli/stars_6.png","142","[""HE"",""SC"",""DO"",""FO""]","[""BF06"",""BF08"",""WF04"",""BM04""]","[4,3,6,7]","[2,4,6,8]","","",""
"show-reward","98","245500","0.0-98.0","p276997","A8B4WA1QFNUAW","3087LXLJ6NMH85PJ46SJUKP4Z1V0FD","3JMSRU9HQK08ICOX2U13MFPJ07LVEZ","emotion","mismatch","uniform","","","","","","","","245259.59999999404","247261.90000000596","","","","","","","","","","","","6","","stimuli/stars_6.png","142","","","","","stimuli/WF04_DO.jpg","",""
"explore-choice","99","246893","0.0-99.0","p276997","A8B4WA1QFNUAW","3087LXLJ6NMH85PJ46SJUKP4Z1V0FD","3JMSRU9HQK08ICOX2U13MFPJ07LVEZ","emotion","mismatch","uniform","","","","","","","892.5999999940395","247263","248155.59999999404","[""stimuli/BM04_FO.jpg"",""stimuli/BF08_HE.jpg"",""stimuli/WF04_SC.jpg"",""stimuli/BF06_DO.jpg""]","stimuli/BM04_FO.jpg","stimuli/BF08_HE.jpg","stimuli/WF04_SC.jpg","stimuli/BF06_DO.jpg","pos1","stimuli/BM04_FO.jpg","FO","BM04","0","3.5","7","8","stimuli/stars_7.png","145.5","[""FO"",""HE"",""SC"",""DO""]","[""BM04"",""BF08"",""WF04"",""BF06""]","[7,1,4,7]","[8,2,4,6]","","",""
"show-reward","100","248897","0.0-100.0","p276997","A8B4WA1QFNUAW","3087LXLJ6NMH85PJ46SJUKP4Z1V0FD","3JMSRU9HQK08ICOX2U13MFPJ07LVEZ","emotion","mismatch","uniform","","","","","","","","248657","250659.5","","","","","","","","","","","","7","","stimuli/stars_7.png","145.5","","","","","stimuli/BM04_FO.jpg","",""
"explore-choice","101","250915","0.0-101.0","p276997","A8B4WA1QFNUAW","3087LXLJ6NMH85PJ46SJUKP4Z1V0FD","3JMSRU9HQK08ICOX2U13MFPJ07LVEZ","emotion","mismatch","uniform","","","","","","","1516.7000000178814","250660.79999998212","252177.5","[""stimuli/WF04_HE.jpg"",""stimuli/BF08_SC.jpg"",""stimuli/BM04_FO.jpg"",""stimuli/BF06_DO.jpg""]","stimuli/WF04_HE.jpg","stimuli/BF08_SC.jpg","stimuli/BM04_FO.jpg","stimuli/BF06_DO.jpg","pos4","stimuli/BF06_DO.jpg","DO","BF06","3","2.5","5","6","stimuli/stars_5.png","148","[""HE"",""SC"",""FO"",""DO""]","[""WF04"",""BF08"",""BM04"",""BF06""]","[2,4,10,5]","[2,4,8,6]","","",""
"show-reward","102","252920","0.0-102.0","p276997","A8B4WA1QFNUAW","3087LXLJ6NMH85PJ46SJUKP4Z1V0FD","3JMSRU9HQK08ICOX2U13MFPJ07LVEZ","emotion","mismatch","uniform","","","","","","","","252679.09999999404","254681.40000000596","","","","","","","","","","","","5","","stimuli/stars_5.png","148","","","","","stimuli/BF06_DO.jpg","",""
"explore-choice","103","254763","0.0-103.0","p276997","A8B4WA1QFNUAW","3087LXLJ6NMH85PJ46SJUKP4Z1V0FD","3JMSRU9HQK08ICOX2U13MFPJ07LVEZ","emotion","mismatch","uniform","","","","","","","1341.4000000059605","254683.29999998212","256024.69999998808","[""stimuli/BM03_SUR.jpg"",""stimuli/HF02_AO.jpg"",""stimuli/BM16_HO.jpg"",""stimuli/AF11_CC.jpg""]","stimuli/BM03_SUR.jpg","stimuli/HF02_AO.jpg","stimuli/BM16_HO.jpg","stimuli/AF11_CC.jpg","pos3","stimuli/BM16_HO.jpg","HO","BM16","2","4.5","9","8","stimuli/stars_9.png","152.5","[""SUR"",""AO"",""HO"",""CC""]","[""BM03"",""HF02"",""BM16"",""AF11""]","[3,5,9,8]","[2,4,8,6]","","",""
"show-reward","104","256766","0.0-104.0","p276997","A8B4WA1QFNUAW","3087LXLJ6NMH85PJ46SJUKP4Z1V0FD","3JMSRU9HQK08ICOX2U13MFPJ07LVEZ","emotion","mismatch","uniform","","","","","","","","256526.79999998212","258528.69999998808","","","","","","","","","","","","9","","stimuli/stars_9.png","152.5","","","","","stimuli/BM16_HO.jpg","",""
"explore-choice","105","259505","0.0-105.0","p276997","A8B4WA1QFNUAW","3087LXLJ6NMH85PJ46SJUKP4Z1V0FD","3JMSRU9HQK08ICOX2U13MFPJ07LVEZ","emotion","mismatch","uniform","","","","","","","2236.2000000178814","258530.29999998212","260766.5","[""stimuli/HF02_SUR.jpg"",""stimuli/AF11_AO.jpg"",""stimuli/BM03_HO.jpg"",""stimuli/BM16_CC.jpg""]","stimuli/HF02_SUR.jpg","stimuli/AF11_AO.jpg","stimuli/BM03_HO.jpg","stimuli/BM16_CC.jpg","pos3","stimuli/BM03_HO.jpg","HO","BM03","2","1","2","2","stimuli/stars_2.png","153.5","[""SUR"",""AO"",""HO"",""CC""]","[""HF02"",""AF11"",""BM03"",""BM16""]","[6,8,2,10]","[4,6,2,8]","","",""
"show-reward","106","261508","0.0-106.0","p276997","A8B4WA1QFNUAW","3087LXLJ6NMH85PJ46SJUKP4Z1V0FD","3JMSRU9HQK08ICOX2U13MFPJ07LVEZ","emotion","mismatch","uniform","","","","","","","","261268.59999999404","263270.6999999881","","","","","","","","","","","","2","","stimuli/stars_2.png","153.5","","","","","stimuli/BM03_HO.jpg","",""
"explore-choice","107","263176","0.0-107.0","p276997","A8B4WA1QFNUAW","3087LXLJ6NMH85PJ46SJUKP4Z1V0FD","3JMSRU9HQK08ICOX2U13MFPJ07LVEZ","emotion","mismatch","uniform","","","","","","","1164.699999988079","263272","264436.6999999881","[""stimuli/AF11_HO.jpg"",""stimuli/HF02_SUR.jpg"",""stimuli/BM16_CC.jpg"",""stimuli/BM03_AO.jpg""]","stimuli/AF11_HO.jpg","stimuli/HF02_SUR.jpg","stimuli/BM16_CC.jpg","stimuli/BM03_AO.jpg","pos1","stimuli/AF11_HO.jpg","HO","AF11","0","3","6","6","stimuli/stars_6.png","156.5","[""HO"",""SUR"",""CC"",""AO""]","[""AF11"",""HF02"",""BM16"",""BM03""]","[6,2,9,4]","[6,4,8,2]","","",""
"show-reward","108","265180","0.0-108.0","p276997","A8B4WA1QFNUAW","3087LXLJ6NMH85PJ46SJUKP4Z1V0FD","3JMSRU9HQK08ICOX2U13MFPJ07LVEZ","emotion","mismatch","uniform","","","","","","","","264940.09999999404","266942.5","","","","","","","","","","","","6","","stimuli/stars_6.png","156.5","","","","","stimuli/AF11_HO.jpg","",""
"explore-choice","109","268846","0.0-109.0","p276997","A8B4WA1QFNUAW","3087LXLJ6NMH85PJ46SJUKP4Z1V0FD","3JMSRU9HQK08ICOX2U13MFPJ07LVEZ","emotion","mismatch","uniform","","","","","","","3162.2999999821186","266945.5","270107.7999999821","[""stimuli/HF02_AO.jpg"",""stimuli/BM03_HO.jpg"",""stimuli/AF11_CC.jpg"",""stimuli/BM16_SUR.jpg""]","stimuli/HF02_AO.jpg","stimuli/BM03_HO.jpg","stimuli/AF11_CC.jpg","stimuli/BM16_SUR.jpg","pos4","stimuli/BM16_SUR.jpg","SUR","BM16","3","4.5","9","8","stimuli/stars_9.png","161","[""AO"",""HO"",""CC"",""SUR""]","[""HF02"",""BM03"",""AF11"",""BM16""]","[5,2,4,9]","[4,2,6,8]","","",""
"show-reward","110","270849","0.0-110.0","p276997","A8B4WA1QFNUAW","3087LXLJ6NMH85PJ46SJUKP4Z1V0FD","3JMSRU9HQK08ICOX2U13MFPJ07LVEZ","emotion","mismatch","uniform","","","","","","","","270609.5","272611.7999999821","","","","","","","","","","","","9","","stimuli/stars_9.png","161","","","","","stimuli/BM16_SUR.jpg","",""
"explore-choice","111","272395","0.0-111.0","p276997","A8B4WA1QFNUAW","3087LXLJ6NMH85PJ46SJUKP4Z1V0FD","3JMSRU9HQK08ICOX2U13MFPJ07LVEZ","emotion","mismatch","uniform","","","","","","","1043.5999999940395","272613.09999999404","273656.6999999881","[""stimuli/BM16_SUR.jpg"",""stimuli/HF02_CC.jpg"",""stimuli/BM03_HO.jpg"",""stimuli/AF11_AO.jpg""]","stimuli/BM16_SUR.jpg","stimuli/HF02_CC.jpg","stimuli/BM03_HO.jpg","stimuli/AF11_AO.jpg","pos1","stimuli/BM16_SUR.jpg","SUR","BM16","0","3.5","7","8","stimuli/stars_7.png","164.5","[""SUR"",""CC"",""HO"",""AO""]","[""BM16"",""HF02"",""BM03"",""AF11""]","[7,2,4,6]","[8,4,2,6]","","",""
"show-reward","112","274398","0.0-112.0","p276997","A8B4WA1QFNUAW","3087LXLJ6NMH85PJ46SJUKP4Z1V0FD","3JMSRU9HQK08ICOX2U13MFPJ07LVEZ","emotion","mismatch","uniform","","","","","","","","274158.40000000596","276160.2999999821","","","","","","","","","","","","7","","stimuli/stars_7.png","164.5","","","","","stimuli/BM16_SUR.jpg","",""
"explore-choice","113","277009","0.0-113.0","p276997","A8B4WA1QFNUAW","3087LXLJ6NMH85PJ46SJUKP4Z1V0FD","3JMSRU9HQK08ICOX2U13MFPJ07LVEZ","emotion","mismatch","uniform","","","","","","","2109.399999976158","276161.40000000596","278270.7999999821","[""stimuli/BM16_CC.jpg"",""stimuli/AF11_SUR.jpg"",""stimuli/BM03_HO.jpg"",""stimuli/HF02_AO.jpg""]","stimuli/BM16_CC.jpg","stimuli/AF11_SUR.jpg","stimuli/BM03_HO.jpg","stimuli/HF02_AO.jpg","pos4","stimuli/HF02_AO.jpg","AO","HF02","3","1","2","4","stimuli/stars_2.png","165.5","[""CC"",""SUR"",""HO"",""AO""]","[""BM16"",""AF11"",""BM03"",""HF02""]","[6,4,3,2]","[8,6,2,4]","","",""
"show-reward","114","279012","0.0-114.0","p276997","A8B4WA1QFNUAW","3087LXLJ6NMH85PJ46SJUKP4Z1V0FD","3JMSRU9HQK08ICOX2U13MFPJ07LVEZ","emotion","mismatch","uniform","","","","","","","","278772.5","280774.59999999404","","","","","","","","","","","","2","","stimuli/stars_2.png","165.5","","","","","stimuli/HF02_AO.jpg","",""
"explore-choice","115","281343","0.0-115.0","p276997","A8B4WA1QFNUAW","3087LXLJ6NMH85PJ46SJUKP4Z1V0FD","3JMSRU9HQK08ICOX2U13MFPJ07LVEZ","emotion","mismatch","uniform","","","","","","","1828.5","280776.09999999404","282604.59999999404","[""stimuli/AF11_SUR.jpg"",""stimuli/BM03_HO.jpg"",""stimuli/BM16_AO.jpg"",""stimuli/HF02_CC.jpg""]","stimuli/AF11_SUR.jpg","stimuli/BM03_HO.jpg","stimuli/BM16_AO.jpg","stimuli/HF02_CC.jpg","pos1","stimuli/AF11_SUR.jpg","SUR","AF11","0","2.5","5","6","stimuli/stars_5.png","168","[""SUR"",""HO"",""AO"",""CC""]","[""AF11"",""BM03"",""BM16"",""HF02""]","[5,2,8,3]","[6,2,8,4]","","",""
"show-reward","116","283346","0.0-116.0","p276997","A8B4WA1QFNUAW","3087LXLJ6NMH85PJ46SJUKP4Z1V0FD","3JMSRU9HQK08ICOX2U13MFPJ07LVEZ","emotion","mismatch","uniform","","","","","","","","283106.1999999881","285108.5","","","","","","","","","","","","5","","stimuli/stars_5.png","168","","","","","stimuli/AF11_SUR.jpg","",""
"explore-choice","117","286749","0.0-117.0","p276997","A8B4WA1QFNUAW","3087LXLJ6NMH85PJ46SJUKP4Z1V0FD","3JMSRU9HQK08ICOX2U13MFPJ07LVEZ","emotion","mismatch","uniform","","","","","","","2900.300000011921","285110.7999999821","288011.09999999404","[""stimuli/HF02_SUR.jpg"",""stimuli/AF11_AO.jpg"",""stimuli/BM16_HO.jpg"",""stimuli/BM03_CC.jpg""]","stimuli/HF02_SUR.jpg","stimuli/AF11_AO.jpg","stimuli/BM16_HO.jpg","stimuli/BM03_CC.jpg","pos1","stimuli/HF02_SUR.jpg","SUR","HF02","0","1","2","4","stimuli/stars_2.png","169","[""SUR"",""AO"",""HO"",""CC""]","[""HF02"",""AF11"",""BM16"",""BM03""]","[2,6,8,4]","[4,6,8,2]","","",""
"show-reward","118","288753","0.0-118.0","p276997","A8B4WA1QFNUAW","3087LXLJ6NMH85PJ46SJUKP4Z1V0FD","3JMSRU9HQK08ICOX2U13MFPJ07LVEZ","emotion","mismatch","uniform","","","","","","","","288513.09999999404","290515.1999999881","","","","","","","","","","","","2","","stimuli/stars_2.png","169","","","","","stimuli/HF02_SUR.jpg","",""
"explore-choice","119","292258","0.0-119.0","p276997","A8B4WA1QFNUAW","3087LXLJ6NMH85PJ46SJUKP4Z1V0FD","3JMSRU9HQK08ICOX2U13MFPJ07LVEZ","emotion","mismatch","uniform","","","","","","","3002.9000000059605","290516.5","293519.40000000596","[""stimuli/HF02_HO.jpg"",""stimuli/BM16_SUR.jpg"",""stimuli/AF11_CC.jpg"",""stimuli/BM03_AO.jpg""]","stimuli/HF02_HO.jpg","stimuli/BM16_SUR.jpg","stimuli/AF11_CC.jpg","stimuli/BM03_AO.jpg","pos2","stimuli/BM16_SUR.jpg","SUR","BM16","1","4","8","8","stimuli/stars_8.png","173","[""HO"",""SUR"",""CC"",""AO""]","[""HF02"",""BM16"",""AF11"",""BM03""]","[2,8,4,3]","[4,8,6,2]","","",""
"show-reward","120","294263","0.0-120.0","p276997","A8B4WA1QFNUAW","3087LXLJ6NMH85PJ46SJUKP4Z1V0FD","3JMSRU9HQK08ICOX2U13MFPJ07LVEZ","emotion","mismatch","uniform","","","","","","","","294021.90000000596","296024.5","","","","","","","","","","","","8","","stimuli/stars_8.png","173","","","","","stimuli/BM16_SUR.jpg","",""
"explore-choice","121","298184","0.0-121.0","p276997","A8B4WA1QFNUAW","3087LXLJ6NMH85PJ46SJUKP4Z1V0FD","3JMSRU9HQK08ICOX2U13MFPJ07LVEZ","emotion","mismatch","uniform","","","","","","","3418.699999988079","296027.5","299446.1999999881","[""stimuli/BM16_SUR.jpg"",""stimuli/AF11_AO.jpg"",""stimuli/BM03_CC.jpg"",""stimuli/HF02_HO.jpg""]","stimuli/BM16_SUR.jpg","stimuli/AF11_AO.jpg","stimuli/BM03_CC.jpg","stimuli/HF02_HO.jpg","pos1","stimuli/BM16_SUR.jpg","SUR","BM16","0","4","8","8","stimuli/stars_8.png","177","[""SUR"",""AO"",""CC"",""HO""]","[""BM16"",""AF11"",""BM03"",""HF02""]","[8,8,3,5]","[8,6,2,4]","","",""
"show-reward","122","300188","0.0-122.0","p276997","A8B4WA1QFNUAW","3087LXLJ6NMH85PJ46SJUKP4Z1V0FD","3JMSRU9HQK08ICOX2U13MFPJ07LVEZ","emotion","mismatch","uniform","","","","","","","","299948.1999999881","301950.40000000596","","","","","","","","","","","","8","","stimuli/stars_8.png","177","","","","","stimuli/BM16_SUR.jpg","",""
"explore-choice","123","302129","0.0-123.0","p276997","A8B4WA1QFNUAW","3087LXLJ6NMH85PJ46SJUKP4Z1V0FD","3JMSRU9HQK08ICOX2U13MFPJ07LVEZ","emotion","mismatch","uniform","","","","","","","1436.5","301951.7999999821","303388.2999999821","[""stimuli/AF11_CC.jpg"",""stimuli/BM16_HO.jpg"",""stimuli/BM03_AO.jpg"",""stimuli/HF02_SUR.jpg""]","stimuli/AF11_CC.jpg","stimuli/BM16_HO.jpg","stimuli/BM03_AO.jpg","stimuli/HF02_SUR.jpg","pos4","stimuli/HF02_SUR.jpg","SUR","HF02","3","2","4","4","stimuli/stars_4.png","179","[""CC"",""HO"",""AO"",""SUR""]","[""AF11"",""BM16"",""BM03"",""HF02""]","[4,6,0,4]","[6,8,2,4]","","",""
"show-reward","124","304137","0.0-124.0","p276997","A8B4WA1QFNUAW","3087LXLJ6NMH85PJ46SJUKP4Z1V0FD","3JMSRU9HQK08ICOX2U13MFPJ07LVEZ","emotion","mismatch","uniform","","","","","","","","303892.40000000596","305899.7999999821","","","","","","","","","","","","4","","stimuli/stars_4.png","179","","","","","stimuli/HF02_SUR.jpg","",""
"explore-choice","125","305847","0.0-125.0","p276997","A8B4WA1QFNUAW","3087LXLJ6NMH85PJ46SJUKP4Z1V0FD","3JMSRU9HQK08ICOX2U13MFPJ07LVEZ","emotion","mismatch","uniform","","","","","","","1207.5","305901","307108.5","[""stimuli/BM03_AO.jpg"",""stimuli/BM16_SUR.jpg"",""stimuli/HF02_CC.jpg"",""stimuli/AF11_HO.jpg""]","stimuli/BM03_AO.jpg","stimuli/BM16_SUR.jpg","stimuli/HF02_CC.jpg","stimuli/AF11_HO.jpg","pos2","stimuli/BM16_SUR.jpg","SUR","BM16","1","3.5","7","8","stimuli/stars_7.png","182.5","[""AO"",""SUR"",""CC"",""HO""]","[""BM03"",""BM16"",""HF02"",""AF11""]","[4,7,3,4]","[2,8,4,6]","","",""
"show-reward","126","307850","0.0-126.0","p276997","A8B4WA1QFNUAW","3087LXLJ6NMH85PJ46SJUKP4Z1V0FD","3JMSRU9HQK08ICOX2U13MFPJ07LVEZ","emotion","mismatch","uniform","","","","","","","","307610.2999999821","309612.1999999881","","","","","","","","","","","","7","","stimuli/stars_7.png","182.5","","","","","stimuli/BM16_SUR.jpg","",""
"explore-choice","127","309314","0.0-127.0","p276997","A8B4WA1QFNUAW","3087LXLJ6NMH85PJ46SJUKP4Z1V0FD","3JMSRU9HQK08ICOX2U13MFPJ07LVEZ","emotion","mismatch","uniform","","","","","","","959.5","309613.5","310573","[""stimuli/BM03_SUR.jpg"",""stimuli/HF02_CC.jpg"",""stimuli/BM16_HO.jpg"",""stimuli/AF11_AO.jpg""]","stimuli/BM03_SUR.jpg","stimuli/HF02_CC.jpg","stimuli/BM16_HO.jpg","stimuli/AF11_AO.jpg","pos1","stimuli/BM03_SUR.jpg","SUR","BM03","0","1.5","3","2","stimuli/stars_3.png","184","[""SUR"",""CC"",""HO"",""AO""]","[""BM03"",""HF02"",""BM16"",""AF11""]","[3,5,7,4]","[2,4,8,6]","","",""
"show-reward","128","311319","0.0-128.0","p276997","A8B4WA1QFNUAW","3087LXLJ6NMH85PJ46SJUKP4Z1V0FD","3JMSRU9HQK08ICOX2U13MFPJ07LVEZ","emotion","mismatch","uniform","","","","","","","","311077.90000000596","313081.5","","","","","","","","","","","","3","","stimuli/stars_3.png","184","","","","","stimuli/BM03_SUR.jpg","",""
"explore-choice","129","314440","0.0-129.0","p276997","A8B4WA1QFNUAW","3087LXLJ6NMH85PJ46SJUKP4Z1V0FD","3JMSRU9HQK08ICOX2U13MFPJ07LVEZ","emotion","mismatch","uniform","","","","","","","2619.2999999821186","313082.90000000596","315702.1999999881","[""stimuli/AF11_CC.jpg"",""stimuli/BM03_SUR.jpg"",""stimuli/HF02_HO.jpg"",""stimuli/BM16_AO.jpg""]","stimuli/AF11_CC.jpg","stimuli/BM03_SUR.jpg","stimuli/HF02_HO.jpg","stimuli/BM16_AO.jpg","pos3","stimuli/HF02_HO.jpg","HO","HF02","2","1.5","3","4","stimuli/stars_3.png","185.5","[""CC"",""SUR"",""HO"",""AO""]","[""AF11"",""BM03"",""HF02"",""BM16""]","[8,4,3,8]","[6,2,4,8]","","",""
"show-reward","130","316445","0.0-130.0","p276997","A8B4WA1QFNUAW","3087LXLJ6NMH85PJ46SJUKP4Z1V0FD","3JMSRU9HQK08ICOX2U13MFPJ07LVEZ","emotion","mismatch","uniform","","","","","","","","316204","318207.2999999821","","","","","","","","","","","","3","","stimuli/stars_3.png","185.5","","","","","stimuli/HF02_HO.jpg","",""
"explore-choice","131","317855","0.0-131.0","p276997","A8B4WA1QFNUAW","3087LXLJ6NMH85PJ46SJUKP4Z1V0FD","3JMSRU9HQK08ICOX2U13MFPJ07LVEZ","emotion","mismatch","uniform","","","","","","","907.5","318209","319116.5","[""stimuli/BM03_HO.jpg"",""stimuli/HF02_SUR.jpg"",""stimuli/AF11_CC.jpg"",""stimuli/BM16_AO.jpg""]","stimuli/BM03_HO.jpg","stimuli/HF02_SUR.jpg","stimuli/AF11_CC.jpg","stimuli/BM16_AO.jpg","pos1","stimuli/BM03_HO.jpg","HO","BM03","0","2","4","2","stimuli/stars_4.png","187.5","[""HO"",""SUR"",""CC"",""AO""]","[""BM03"",""HF02"",""AF11"",""BM16""]","[4,5,7,10]","[2,4,6,8]","","",""
"show-reward","132","319858","0.0-132.0","p276997","A8B4WA1QFNUAW","3087LXLJ6NMH85PJ46SJUKP4Z1V0FD","3JMSRU9HQK08ICOX2U13MFPJ07LVEZ","emotion","mismatch","uniform","","","","","","","","319618.59999999404","321620.59999999404","","","","","","","","","","","","4","","stimuli/stars_4.png","187.5","","","","","stimuli/BM03_HO.jpg","",""
"explore-choice","133","323101","0.0-133.0","p276997","A8B4WA1QFNUAW","3087LXLJ6NMH85PJ46SJUKP4Z1V0FD","3JMSRU9HQK08ICOX2U13MFPJ07LVEZ","emotion","mismatch","uniform","","","","","","","2741","321622","324363","[""stimuli/AF11_HO.jpg"",""stimuli/HF02_AO.jpg"",""stimuli/BM03_SUR.jpg"",""stimuli/BM16_CC.jpg""]","stimuli/AF11_HO.jpg","stimuli/HF02_AO.jpg","stimuli/BM03_SUR.jpg","stimuli/BM16_CC.jpg","pos2","stimuli/HF02_AO.jpg","AO","HF02","1","3","6","4","stimuli/stars_6.png","190.5","[""HO"",""AO"",""SUR"",""CC""]","[""AF11"",""HF02"",""BM03"",""BM16""]","[4,6,4,8]","[6,4,2,8]","","",""
"show-reward","134","325105","0.0-134.0","p276997","A8B4WA1QFNUAW","3087LXLJ6NMH85PJ46SJUKP4Z1V0FD","3JMSRU9HQK08ICOX2U13MFPJ07LVEZ","emotion","mismatch","uniform","","","","","","","","324864.7999999821","326867","","","","","","","","","","","","6","","stimuli/stars_6.png","190.5","","","","","stimuli/HF02_AO.jpg","",""
"explore-choice","135","327994","0.0-135.0","p276997","A8B4WA1QFNUAW","3087LXLJ6NMH85PJ46SJUKP4Z1V0FD","3JMSRU9HQK08ICOX2U13MFPJ07LVEZ","emotion","mismatch","uniform","","","","","","","2387.0999999940395","326868.5","329255.59999999404","[""stimuli/BM03_CC.jpg"",""stimuli/BM16_AO.jpg"",""stimuli/AF11_HO.jpg"",""stimuli/HF02_SUR.jpg""]","stimuli/BM03_CC.jpg","stimuli/BM16_AO.jpg","stimuli/AF11_HO.jpg","stimuli/HF02_SUR.jpg","pos3","stimuli/AF11_HO.jpg","HO","AF11","2","2.5","5","6","stimuli/stars_5.png","193","[""CC"",""AO"",""HO"",""SUR""]","[""BM03"",""BM16"",""AF11"",""HF02""]","[1,8,5,3]","[2,8,6,4]","","",""
"show-reward","136","329997","0.0-136.0","p276997","A8B4WA1QFNUAW","3087LXLJ6NMH85PJ46SJUKP4Z1V0FD","3JMSRU9HQK08ICOX2U13MFPJ07LVEZ","emotion","mismatch","uniform","","","","","","","","329757.1999999881","331759.09999999404","","","","","","","","","","","","5","","stimuli/stars_5.png","193","","","","","stimuli/AF11_HO.jpg","",""
"explore-choice","137","331897","0.0-137.0","p276997","A8B4WA1QFNUAW","3087LXLJ6NMH85PJ46SJUKP4Z1V0FD","3JMSRU9HQK08ICOX2U13MFPJ07LVEZ","emotion","mismatch","uniform","","","","","","","1398.699999988079","331760.59999999404","333159.2999999821","[""stimuli/BM16_AO.jpg"",""stimuli/AF11_SUR.jpg"",""stimuli/HF02_HO.jpg"",""stimuli/BM03_CC.jpg""]","stimuli/BM16_AO.jpg","stimuli/AF11_SUR.jpg","stimuli/HF02_HO.jpg","stimuli/BM03_CC.jpg","pos1","stimuli/BM16_AO.jpg","AO","BM16","0","3","6","8","stimuli/stars_6.png","196","[""AO"",""SUR"",""HO"",""CC""]","[""BM16"",""AF11"",""HF02"",""BM03""]","[6,8,3,2]","[8,6,4,2]","","",""
"show-reward","138","333900","0.0-138.0","p276997","A8B4WA1QFNUAW","3087LXLJ6NMH85PJ46SJUKP4Z1V0FD","3JMSRU9HQK08ICOX2U13MFPJ07LVEZ","emotion","mismatch","uniform","","","","","","","","333660.6999999881","335662.5","","","","","","","","","","","","6","","stimuli/stars_6.png","196","","","","","stimuli/BM16_AO.jpg","",""
"explore-choice","139","335807","0.0-139.0","p276997","A8B4WA1QFNUAW","3087LXLJ6NMH85PJ46SJUKP4Z1V0FD","3JMSRU9HQK08ICOX2U13MFPJ07LVEZ","emotion","mismatch","uniform","","","","","","","1405.6000000238419","335663.7999999821","337069.40000000596","[""stimuli/BM16_AO.jpg"",""stimuli/AF11_HO.jpg"",""stimuli/HF02_CC.jpg"",""stimuli/BM03_SUR.jpg""]","stimuli/BM16_AO.jpg","stimuli/AF11_HO.jpg","stimuli/HF02_CC.jpg","stimuli/BM03_SUR.jpg","pos3","stimuli/HF02_CC.jpg","CC","HF02","2","1","2","4","stimuli/stars_2.png","197","[""AO"",""HO"",""CC"",""SUR""]","[""BM16"",""AF11"",""HF02"",""BM03""]","[10,7,2,1]","[8,6,4,2]","","",""
"show-reward","140","337810","0.0-140.0","p276997","A8B4WA1QFNUAW","3087LXLJ6NMH85PJ46SJUKP4Z1V0FD","3JMSRU9HQK08ICOX2U13MFPJ07LVEZ","emotion","mismatch","uniform","","","","","","","","337571","339572.90000000596","","","","","","","","","","","","2","","stimuli/stars_2.png","197","","","","","stimuli/HF02_CC.jpg","",""
"explore-choice","141","341514","0.0-141.0","p276997","A8B4WA1QFNUAW","3087LXLJ6NMH85PJ46SJUKP4Z1V0FD","3JMSRU9HQK08ICOX2U13MFPJ07LVEZ","emotion","mismatch","uniform","","","","","","","3200","339576.40000000596","342776.40000000596","[""stimuli/BM16_CC.jpg"",""stimuli/BM03_SUR.jpg"",""stimuli/HF02_HO.jpg"",""stimuli/AF11_AO.jpg""]","stimuli/BM16_CC.jpg","stimuli/BM03_SUR.jpg","stimuli/HF02_HO.jpg","stimuli/AF11_AO.jpg","pos4","stimuli/AF11_AO.jpg","AO","AF11","3","3","6","6","stimuli/stars_6.png","200","[""CC"",""SUR"",""HO"",""AO""]","[""BM16"",""BM03"",""HF02"",""AF11""]","[10,0,5,6]","[8,2,4,6]","","",""
"show-reward","142","343519","0.0-142.0","p276997","A8B4WA1QFNUAW","3087LXLJ6NMH85PJ46SJUKP4Z1V0FD","3JMSRU9HQK08ICOX2U13MFPJ07LVEZ","emotion","mismatch","uniform","","","","","","","","343278.09999999404","345281.7999999821","","","","","","","","","","","","6","","stimuli/stars_6.png","200","","","","","stimuli/AF11_AO.jpg","",""
"explore-choice","143","346853","0.0-143.0","p276997","A8B4WA1QFNUAW","3087LXLJ6NMH85PJ46SJUKP4Z1V0FD","3JMSRU9HQK08ICOX2U13MFPJ07LVEZ","emotion","mismatch","uniform","","","","","","","2831.800000011921","345283.09999999404","348114.90000000596","[""stimuli/BM03_CC.jpg"",""stimuli/BM16_HO.jpg"",""stimuli/AF11_SUR.jpg"",""stimuli/HF02_AO.jpg""]","stimuli/BM03_CC.jpg","stimuli/BM16_HO.jpg","stimuli/AF11_SUR.jpg","stimuli/HF02_AO.jpg","pos3","stimuli/AF11_SUR.jpg","SUR","AF11","2","2.5","5","6","stimuli/stars_5.png","202.5","[""CC"",""HO"",""SUR"",""AO""]","[""BM03"",""BM16"",""AF11"",""HF02""]","[3,7,5,2]","[2,8,6,4]","","",""
"show-reward","144","348856","0.0-144.0","p276997","A8B4WA1QFNUAW","3087LXLJ6NMH85PJ46SJUKP4Z1V0FD","3JMSRU9HQK08ICOX2U13MFPJ07LVEZ","emotion","mismatch","uniform","","","","","","","","348616.59999999404","350618.6999999881","","","","","","","","","","","","5","","stimuli/stars_5.png","202.5","","","","","stimuli/AF11_SUR.jpg","",""
"explore-choice","145","351535","0.0-145.0","p276997","A8B4WA1QFNUAW","3087LXLJ6NMH85PJ46SJUKP4Z1V0FD","3JMSRU9HQK08ICOX2U13MFPJ07LVEZ","emotion","mismatch","uniform","","","","","","","2174.0999999940395","350622.40000000596","352796.5","[""stimuli/BM16_CC.jpg"",""stimuli/AF11_SUR.jpg"",""stimuli/BM03_AO.jpg"",""stimuli/HF02_HO.jpg""]","stimuli/BM16_CC.jpg","stimuli/AF11_SUR.jpg","stimuli/BM03_AO.jpg","stimuli/HF02_HO.jpg","pos1","stimuli/BM16_CC.jpg","CC","BM16","0","4.5","9","8","stimuli/stars_9.png","207","[""CC"",""SUR"",""AO"",""HO""]","[""BM16"",""AF11"",""BM03"",""HF02""]","[9,8,4,5]","[8,6,2,4]","","",""
"show-reward","146","353538","0.0-146.0","p276997","A8B4WA1QFNUAW","3087LXLJ6NMH85PJ46SJUKP4Z1V0FD","3JMSRU9HQK08ICOX2U13MFPJ07LVEZ","emotion","mismatch","uniform","","","","","","","","353298.2999999821","355300.1999999881","","","","","","","","","","","","9","","stimuli/stars_9.png","207","","","","","stimuli/BM16_CC.jpg","",""
"explore-choice","147","355318","0.0-147.0","p276997","A8B4WA1QFNUAW","3087LXLJ6NMH85PJ46SJUKP4Z1V0FD","3JMSRU9HQK08ICOX2U13MFPJ07LVEZ","emotion","mismatch","uniform","","","","","","","1277.800000011921","355301.7999999821","356579.59999999404","[""stimuli/AF11_HO.jpg"",""stimuli/BM16_SUR.jpg"",""stimuli/BM03_CC.jpg"",""stimuli/HF02_AO.jpg""]","stimuli/AF11_HO.jpg","stimuli/BM16_SUR.jpg","stimuli/BM03_CC.jpg","stimuli/HF02_AO.jpg","pos2","stimuli/BM16_SUR.jpg","SUR","BM16","1","3.5","7","8","stimuli/stars_7.png","210.5","[""HO"",""SUR"",""CC"",""AO""]","[""AF11"",""BM16"",""BM03"",""HF02""]","[6,7,1,5]","[6,8,2,4]","","",""
"show-reward","148","357321","0.0-148.0","p276997","A8B4WA1QFNUAW","3087LXLJ6NMH85PJ46SJUKP4Z1V0FD","3JMSRU9HQK08ICOX2U13MFPJ07LVEZ","emotion","mismatch","uniform","","","","","","","","357081.40000000596","359083.2999999821","","","","","","","","","","","","7","","stimuli/stars_7.png","210.5","","","","","stimuli/BM16_SUR.jpg","",""
"explore-choice","149","360822","0.0-149.0","p276997","A8B4WA1QFNUAW","3087LXLJ6NMH85PJ46SJUKP4Z1V0FD","3JMSRU9HQK08ICOX2U13MFPJ07LVEZ","emotion","mismatch","uniform","","","","","","","2991.4000000059605","359092.59999999404","362084","[""stimuli/AF11_SUR.jpg"",""stimuli/BM16_HO.jpg"",""stimuli/HF02_CC.jpg"",""stimuli/BM03_AO.jpg""]","stimuli/AF11_SUR.jpg","stimuli/BM16_HO.jpg","stimuli/HF02_CC.jpg","stimuli/BM03_AO.jpg","pos4","stimuli/BM03_AO.jpg","AO","BM03","3","0","0","2","stimuli/stars_0.png","210.5","[""SUR"",""HO"",""CC"",""AO""]","[""AF11"",""BM16"",""HF02"",""BM03""]","[6,6,3,0]","[6,8,4,2]","","",""
"show-reward","150","362836","0.0-150.0","p276997","A8B4WA1QFNUAW","3087LXLJ6NMH85PJ46SJUKP4Z1V0FD","3JMSRU9HQK08ICOX2U13MFPJ07LVEZ","emotion","mismatch","uniform","","","","","","","","362585.90000000596","364598.7999999821","","","","","","","","","","","","0","","stimuli/stars_0.png","210.5","","","","","stimuli/BM03_AO.jpg","",""
"explore-choice","151","365890","0.0-151.0","p276997","A8B4WA1QFNUAW","3087LXLJ6NMH85PJ46SJUKP4Z1V0FD","3JMSRU9HQK08ICOX2U13MFPJ07LVEZ","emotion","mismatch","uniform","","","","","","","2552.0999999940395","364600","367152.09999999404","[""stimuli/BM03_HO.jpg"",""stimuli/HF02_CC.jpg"",""stimuli/AF11_SUR.jpg"",""stimuli/BM16_AO.jpg""]","stimuli/BM03_HO.jpg","stimuli/HF02_CC.jpg","stimuli/AF11_SUR.jpg","stimuli/BM16_AO.jpg","pos4","stimuli/BM16_AO.jpg","AO","BM16","3","4","8","8","stimuli/stars_8.png","214.5","[""HO"",""CC"",""SUR"",""AO""]","[""BM03"",""HF02"",""AF11"",""BM16""]","[2,3,5,8]","[2,4,6,8]","","",""
"show-reward","152","367894","0.0-152.0","p276997","A8B4WA1QFNUAW","3087LXLJ6NMH85PJ46SJUKP4Z1V0FD","3JMSRU9HQK08ICOX2U13MFPJ07LVEZ","emotion","mismatch","uniform","","","","","","","","367654.09999999404","369656.1999999881","","","","","","","","","","","","8","","stimuli/stars_8.png","214.5","","","","","stimuli/BM16_AO.jpg","",""
"explore-choice","153","369448","0.0-153.0","p276997","A8B4WA1QFNUAW","3087LXLJ6NMH85PJ46SJUKP4Z1V0FD","3JMSRU9HQK08ICOX2U13MFPJ07LVEZ","emotion","mismatch","uniform","","","","","","","1051.7999999821186","369657.90000000596","370709.6999999881","[""stimuli/BM03_SUR.jpg"",""stimuli/HF02_CC.jpg"",""stimuli/AF11_AO.jpg"",""stimuli/BM16_HO.jpg""]","stimuli/BM03_SUR.jpg","stimuli/HF02_CC.jpg","stimuli/AF11_AO.jpg","stimuli/BM16_HO.jpg","pos4","stimuli/BM16_HO.jpg","HO","BM16","3","3.5","7","8","stimuli/stars_7.png","218","[""SUR"",""CC"",""AO"",""HO""]","[""BM03"",""HF02"",""AF11"",""BM16""]","[3,5,4,7]","[2,4,6,8]","","",""
"show-reward","154","371451","0.0-154.0","p276997","A8B4WA1QFNUAW","3087LXLJ6NMH85PJ46SJUKP4Z1V0FD","3JMSRU9HQK08ICOX2U13MFPJ07LVEZ","emotion","mismatch","uniform","","","","","","","","371211.2999999821","373213.40000000596","","","","","","","","","","","","7","","stimuli/stars_7.png","218","","","","","stimuli/BM16_HO.jpg","",""
"explore-choice","155","373217","0.0-155.0","p276997","A8B4WA1QFNUAW","3087LXLJ6NMH85PJ46SJUKP4Z1V0FD","3JMSRU9HQK08ICOX2U13MFPJ07LVEZ","emotion","mismatch","uniform","","","","","","","1261.0999999940395","373215","374476.09999999404","[""stimuli/HF02_HO.jpg"",""stimuli/BM16_AO.jpg"",""stimuli/AF11_SUR.jpg"",""stimuli/BM03_CC.jpg""]","stimuli/HF02_HO.jpg","stimuli/BM16_AO.jpg","stimuli/AF11_SUR.jpg","stimuli/BM03_CC.jpg","pos2","stimuli/BM16_AO.jpg","AO","BM16","1","3","6","8","stimuli/stars_6.png","221","[""HO"",""AO"",""SUR"",""CC""]","[""HF02"",""BM16"",""AF11"",""BM03""]","[3,6,8,2]","[4,8,6,2]","","",""
"show-reward","156","375221","0.0-156.0","p276997","A8B4WA1QFNUAW","3087LXLJ6NMH85PJ46SJUKP4Z1V0FD","3JMSRU9HQK08ICOX2U13MFPJ07LVEZ","emotion","mismatch","uniform","","","","","","","","374981.09999999404","376983.2999999821","","","","","","","","","","","","6","","stimuli/stars_6.png","221","","","","","stimuli/BM16_AO.jpg","",""
"explore-choice","157","376782","0.0-157.0","p276997","A8B4WA1QFNUAW","3087LXLJ6NMH85PJ46SJUKP4Z1V0FD","3JMSRU9HQK08ICOX2U13MFPJ07LVEZ","emotion","mismatch","uniform","","","","","","","1058.7000000178814","376984.7999999821","378043.5","[""stimuli/HF02_AO.jpg"",""stimuli/AF11_HO.jpg"",""stimuli/BM03_SUR.jpg"",""stimuli/BM16_CC.jpg""]","stimuli/HF02_AO.jpg","stimuli/AF11_HO.jpg","stimuli/BM03_SUR.jpg","stimuli/BM16_CC.jpg","pos4","stimuli/BM16_CC.jpg","CC","BM16","3","4","8","8","stimuli/stars_8.png","225","[""AO"",""HO"",""SUR"",""CC""]","[""HF02"",""AF11"",""BM03"",""BM16""]","[6,4,4,8]","[4,6,2,8]","","",""
"show-reward","158","378786","0.0-158.0","p276997","A8B4WA1QFNUAW","3087LXLJ6NMH85PJ46SJUKP4Z1V0FD","3JMSRU9HQK08ICOX2U13MFPJ07LVEZ","emotion","mismatch","uniform","","","","","","","","378546.09999999404","380548","","","","","","","","","","","","8","","stimuli/stars_8.png","225","","","","","stimuli/BM16_CC.jpg","",""
"explore-choice","159","381987","0.0-159.0","p276997","A8B4WA1QFNUAW","3087LXLJ6NMH85PJ46SJUKP4Z1V0FD","3JMSRU9HQK08ICOX2U13MFPJ07LVEZ","emotion","mismatch","uniform","","","","","","","2698.7999999821186","380549.40000000596","383248.1999999881","[""stimuli/BM16_SUR.jpg"",""stimuli/BM03_CC.jpg"",""stimuli/AF11_HO.jpg"",""stimuli/HF02_AO.jpg""]","stimuli/BM16_SUR.jpg","stimuli/BM03_CC.jpg","stimuli/AF11_HO.jpg","stimuli/HF02_AO.jpg","pos3","stimuli/AF11_HO.jpg","HO","AF11","2","3","6","6","stimuli/stars_6.png","228","[""SUR"",""CC"",""HO"",""AO""]","[""BM16"",""BM03"",""AF11"",""HF02""]","[7,1,6,5]","[8,2,6,4]","","",""
"show-reward","160","383992","0.0-160.0","p276997","A8B4WA1QFNUAW","3087LXLJ6NMH85PJ46SJUKP4Z1V0FD","3JMSRU9HQK08ICOX2U13MFPJ07LVEZ","emotion","mismatch","uniform","","","","","","","","383750.2999999821","385754.09999999404","","","","","","","","","","","","6","","stimuli/stars_6.png","228","","","","","stimuli/AF11_HO.jpg","",""
"explore-choice","161","385689","0.0-161.0","p276997","A8B4WA1QFNUAW","3087LXLJ6NMH85PJ46SJUKP4Z1V0FD","3JMSRU9HQK08ICOX2U13MFPJ07LVEZ","emotion","mismatch","uniform","","","","","","","1195","385755.40000000596","386950.40000000596","[""stimuli/BM03_HO.jpg"",""stimuli/BM16_SUR.jpg"",""stimuli/AF11_CC.jpg"",""stimuli/HF02_AO.jpg""]","stimuli/BM03_HO.jpg","stimuli/BM16_SUR.jpg","stimuli/AF11_CC.jpg","stimuli/HF02_AO.jpg","pos2","stimuli/BM16_SUR.jpg","SUR","BM16","1","4.5","9","8","stimuli/stars_9.png","232.5","[""HO"",""SUR"",""CC"",""AO""]","[""BM03"",""BM16"",""AF11"",""HF02""]","[2,9,4,5]","[2,8,6,4]","","",""
"show-reward","162","387692","0.0-162.0","p276997","A8B4WA1QFNUAW","3087LXLJ6NMH85PJ46SJUKP4Z1V0FD","3JMSRU9HQK08ICOX2U13MFPJ07LVEZ","emotion","mismatch","uniform","","","","","","","","387452","389454","","","","","","","","","","","","9","","stimuli/stars_9.png","232.5","","","","","stimuli/BM16_SUR.jpg","",""
"explore-choice","163","388951","0.0-163.0","p276997","A8B4WA1QFNUAW","3087LXLJ6NMH85PJ46SJUKP4Z1V0FD","3JMSRU9HQK08ICOX2U13MFPJ07LVEZ","emotion","mismatch","uniform","","","","","","","757.5","389455.2999999821","390212.7999999821","[""stimuli/BM16_AO.jpg"",""stimuli/HF02_CC.jpg"",""stimuli/AF11_HO.jpg"",""stimuli/BM03_SUR.jpg""]","stimuli/BM16_AO.jpg","stimuli/HF02_CC.jpg","stimuli/AF11_HO.jpg","stimuli/BM03_SUR.jpg","pos1","stimuli/BM16_AO.jpg","AO","BM16","0","5","10","8","stimuli/stars_10.png","237.5","[""AO"",""CC"",""HO"",""SUR""]","[""BM16"",""HF02"",""AF11"",""BM03""]","[10,2,7,1]","[8,4,6,2]","","",""
"show-reward","164","390955","0.0-164.0","p276997","A8B4WA1QFNUAW","3087LXLJ6NMH85PJ46SJUKP4Z1V0FD","3JMSRU9HQK08ICOX2U13MFPJ07LVEZ","emotion","mismatch","uniform","","","","","","","","390714.7999999821","392717.5","","","","","","","","","","","","10","","stimuli/stars_10.png","237.5","","","","","stimuli/BM16_AO.jpg","",""
"explore-choice","165","392358","0.0-165.0","p276997","A8B4WA1QFNUAW","3087LXLJ6NMH85PJ46SJUKP4Z1V0FD","3JMSRU9HQK08ICOX2U13MFPJ07LVEZ","emotion","mismatch","uniform","","","","","","","901.0999999940395","392719","393620.09999999404","[""stimuli/HF02_SUR.jpg"",""stimuli/BM16_HO.jpg"",""stimuli/AF11_CC.jpg"",""stimuli/BM03_AO.jpg""]","stimuli/HF02_SUR.jpg","stimuli/BM16_HO.jpg","stimuli/AF11_CC.jpg","stimuli/BM03_AO.jpg","pos2","stimuli/BM16_HO.jpg","HO","BM16","1","3","6","8","stimuli/stars_6.png","240.5","[""SUR"",""HO"",""CC"",""AO""]","[""HF02"",""BM16"",""AF11"",""BM03""]","[4,6,4,0]","[4,8,6,2]","","",""
"show-reward","166","394362","0.0-166.0","p276997","A8B4WA1QFNUAW","3087LXLJ6NMH85PJ46SJUKP4Z1V0FD","3JMSRU9HQK08ICOX2U13MFPJ07LVEZ","emotion","mismatch","uniform","","","","","","","","394121.6999999881","396123.90000000596","","","","","","","","","","","","6","","stimuli/stars_6.png","240.5","","","","","stimuli/BM16_HO.jpg","",""
"explore-choice","167","395724","0.0-167.0","p276997","A8B4WA1QFNUAW","3087LXLJ6NMH85PJ46SJUKP4Z1V0FD","3JMSRU9HQK08ICOX2U13MFPJ07LVEZ","emotion","mismatch","uniform","","","","","","","860.1999999880791","396125.40000000596","396985.59999999404","[""stimuli/HF02_HO.jpg"",""stimuli/BM16_AO.jpg"",""stimuli/BM03_SUR.jpg"",""stimuli/AF11_CC.jpg""]","stimuli/HF02_HO.jpg","stimuli/BM16_AO.jpg","stimuli/BM03_SUR.jpg","stimuli/AF11_CC.jpg","pos2","stimuli/BM16_AO.jpg","AO","BM16","1","4","8","8","stimuli/stars_8.png","244.5","[""HO"",""AO"",""SUR"",""CC""]","[""HF02"",""BM16"",""BM03"",""AF11""]","[3,8,4,8]","[4,8,2,6]","","",""
"show-reward","168","397727","0.0-168.0","p276997","A8B4WA1QFNUAW","3087LXLJ6NMH85PJ46SJUKP4Z1V0FD","3JMSRU9HQK08ICOX2U13MFPJ07LVEZ","emotion","mismatch","uniform","","","","","","","","397487.09999999404","399489.1999999881","","","","","","","","","","","","8","","stimuli/stars_8.png","244.5","","","","","stimuli/BM16_AO.jpg","",""
"explore-choice","169","399123","0.0-169.0","p276997","A8B4WA1QFNUAW","3087LXLJ6NMH85PJ46SJUKP4Z1V0FD","3JMSRU9HQK08ICOX2U13MFPJ07LVEZ","emotion","mismatch","uniform","","","","","","","894.0999999940395","399490.59999999404","400384.6999999881","[""stimuli/BM16_AO.jpg"",""stimuli/HF02_SUR.jpg"",""stimuli/BM03_HO.jpg"",""stimuli/AF11_CC.jpg""]","stimuli/BM16_AO.jpg","stimuli/HF02_SUR.jpg","stimuli/BM03_HO.jpg","stimuli/AF11_CC.jpg","pos1","stimuli/BM16_AO.jpg","AO","BM16","0","5","10","8","stimuli/stars_10.png","249.5","[""AO"",""SUR"",""HO"",""CC""]","[""BM16"",""HF02"",""BM03"",""AF11""]","[10,5,4,7]","[8,4,2,6]","","",""
"show-reward","170","401127","0.0-170.0","p276997","A8B4WA1QFNUAW","3087LXLJ6NMH85PJ46SJUKP4Z1V0FD","3JMSRU9HQK08ICOX2U13MFPJ07LVEZ","emotion","mismatch","uniform","","","","","","","","400886.59999999404","402889.1999999881","","","","","","","","","","","","10","","stimuli/stars_10.png","249.5","","","","","stimuli/BM16_AO.jpg","",""
"explore-choice","171","402233","0.0-171.0","p276997","A8B4WA1QFNUAW","3087LXLJ6NMH85PJ46SJUKP4Z1V0FD","3JMSRU9HQK08ICOX2U13MFPJ07LVEZ","emotion","mismatch","uniform","","","","","","","603.9000000059605","402890.6999999881","403494.59999999404","[""stimuli/BM16_CC.jpg"",""stimuli/AF11_AO.jpg"",""stimuli/BM03_HO.jpg"",""stimuli/HF02_SUR.jpg""]","stimuli/BM16_CC.jpg","stimuli/AF11_AO.jpg","stimuli/BM03_HO.jpg","stimuli/HF02_SUR.jpg","pos1","stimuli/BM16_CC.jpg","CC","BM16","0","5","10","8","stimuli/stars_10.png","254.5","[""CC"",""AO"",""HO"",""SUR""]","[""BM16"",""AF11"",""BM03"",""HF02""]","[10,8,2,6]","[8,6,2,4]","","",""
"show-reward","172","404236","0.0-172.0","p276997","A8B4WA1QFNUAW","3087LXLJ6NMH85PJ46SJUKP4Z1V0FD","3JMSRU9HQK08ICOX2U13MFPJ07LVEZ","emotion","mismatch","uniform","","","","","","","","403996.1999999881","405998.40000000596","","","","","","","","","","","","10","","stimuli/stars_10.png","254.5","","","","","stimuli/BM16_CC.jpg","",""
"explore-choice","173","405817","0.0-173.0","p276997","A8B4WA1QFNUAW","3087LXLJ6NMH85PJ46SJUKP4Z1V0FD","3JMSRU9HQK08ICOX2U13MFPJ07LVEZ","emotion","mismatch","uniform","","","","","","","1070","405999.90000000596","407069.90000000596","[""stimuli/AF11_HO.jpg"",""stimuli/BM03_CC.jpg"",""stimuli/BM16_AO.jpg"",""stimuli/HF02_SUR.jpg""]","stimuli/AF11_HO.jpg","stimuli/BM03_CC.jpg","stimuli/BM16_AO.jpg","stimuli/HF02_SUR.jpg","pos3","stimuli/BM16_AO.jpg","AO","BM16","2","4","8","8","stimuli/stars_8.png","258.5","[""HO"",""CC"",""AO"",""SUR""]","[""AF11"",""BM03"",""BM16"",""HF02""]","[5,1,8,3]","[6,2,8,4]","","",""
"show-reward","174","407820","0.0-174.0","p276997","A8B4WA1QFNUAW","3087LXLJ6NMH85PJ46SJUKP4Z1V0FD","3JMSRU9HQK08ICOX2U13MFPJ07LVEZ","emotion","mismatch","uniform","","","","","","","","407580.40000000596","409582.6999999881","","","","","","","","","","","","8","","stimuli/stars_8.png","258.5","","","","","stimuli/BM16_AO.jpg","",""
"explore-choice","175","408927","0.0-175.0","p276997","A8B4WA1QFNUAW","3087LXLJ6NMH85PJ46SJUKP4Z1V0FD","3JMSRU9HQK08ICOX2U13MFPJ07LVEZ","emotion","mismatch","uniform","","","","","","","603.9000000059605","409584.09999999404","410188","[""stimuli/BM16_CC.jpg"",""stimuli/HF02_HO.jpg"",""stimuli/BM03_SUR.jpg"",""stimuli/AF11_AO.jpg""]","stimuli/BM16_CC.jpg","stimuli/HF02_HO.jpg","stimuli/BM03_SUR.jpg","stimuli/AF11_AO.jpg","pos1","stimuli/BM16_CC.jpg","CC","BM16","0","5","10","8","stimuli/stars_10.png","263.5","[""CC"",""HO"",""SUR"",""AO""]","[""BM16"",""HF02"",""BM03"",""AF11""]","[10,5,0,6]","[8,4,2,6]","","",""
"show-reward","176","410931","0.0-176.0","p276997","A8B4WA1QFNUAW","3087LXLJ6NMH85PJ46SJUKP4Z1V0FD","3JMSRU9HQK08ICOX2U13MFPJ07LVEZ","emotion","mismatch","uniform","","","","","","","","410690.2999999821","412693.2999999821","","","","","","","","","","","","10","","stimuli/stars_10.png","263.5","","","","","stimuli/BM16_CC.jpg","",""
"explore-choice","177","412511","0.0-177.0","p276997","A8B4WA1QFNUAW","3087LXLJ6NMH85PJ46SJUKP4Z1V0FD","3JMSRU9HQK08ICOX2U13MFPJ07LVEZ","emotion","mismatch","uniform","","","","","","","1076.5999999940395","412694.90000000596","413771.5","[""stimuli/BM16_CC.jpg"",""stimuli/AF11_HO.jpg"",""stimuli/HF02_SUR.jpg"",""stimuli/BM03_AO.jpg""]","stimuli/BM16_CC.jpg","stimuli/AF11_HO.jpg","stimuli/HF02_SUR.jpg","stimuli/BM03_AO.jpg","pos1","stimuli/BM16_CC.jpg","CC","BM16","0","4.5","9","8","stimuli/stars_9.png","268","[""CC"",""HO"",""SUR"",""AO""]","[""BM16"",""AF11"",""HF02"",""BM03""]","[9,6,2,4]","[8,6,4,2]","","",""
"show-reward","178","414514","0.0-178.0","p276997","A8B4WA1QFNUAW","3087LXLJ6NMH85PJ46SJUKP4Z1V0FD","3JMSRU9HQK08ICOX2U13MFPJ07LVEZ","emotion","mismatch","uniform","","","","","","","","414274.09999999404","416276.5","","","","","","","","","","","","9","","stimuli/stars_9.png","268","","","","","stimuli/BM16_CC.jpg","",""
"explore-choice","179","416179","0.0-179.0","p276997","A8B4WA1QFNUAW","3087LXLJ6NMH85PJ46SJUKP4Z1V0FD","3JMSRU9HQK08ICOX2U13MFPJ07LVEZ","emotion","mismatch","uniform","","","","","","","1163.0999999940395","416277.59999999404","417440.6999999881","[""stimuli/HF02_AO.jpg"",""stimuli/AF11_SUR.jpg"",""stimuli/BM03_CC.jpg"",""stimuli/BM16_HO.jpg""]","stimuli/HF02_AO.jpg","stimuli/AF11_SUR.jpg","stimuli/BM03_CC.jpg","stimuli/BM16_HO.jpg","pos4","stimuli/BM16_HO.jpg","HO","BM16","3","3.5","7","8","stimuli/stars_7.png","271.5","[""AO"",""SUR"",""CC"",""HO""]","[""HF02"",""AF11"",""BM03"",""BM16""]","[2,5,3,7]","[4,6,2,8]","","",""
"show-reward","180","418182","0.0-180.0","p276997","A8B4WA1QFNUAW","3087LXLJ6NMH85PJ46SJUKP4Z1V0FD","3JMSRU9HQK08ICOX2U13MFPJ07LVEZ","emotion","mismatch","uniform","","","","","","","","417942.40000000596","419944.1999999881","","","","","","","","","","","","7","","stimuli/stars_7.png","271.5","","","","","stimuli/BM16_HO.jpg","",""
"explore-choice","181","419498","0.0-181.0","p276997","A8B4WA1QFNUAW","3087LXLJ6NMH85PJ46SJUKP4Z1V0FD","3JMSRU9HQK08ICOX2U13MFPJ07LVEZ","emotion","mismatch","uniform","","","","","","","814.4000000059605","419945.6999999881","420760.09999999404","[""stimuli/BM03_AO.jpg"",""stimuli/HF02_CC.jpg"",""stimuli/BM16_HO.jpg"",""stimuli/AF11_SUR.jpg""]","stimuli/BM03_AO.jpg","stimuli/HF02_CC.jpg","stimuli/BM16_HO.jpg","stimuli/AF11_SUR.jpg","pos3","stimuli/BM16_HO.jpg","HO","BM16","2","3","6","8","stimuli/stars_6.png","274.5","[""AO"",""CC"",""HO"",""SUR""]","[""BM03"",""HF02"",""BM16"",""AF11""]","[0,3,6,6]","[2,4,8,6]","","",""
"show-reward","182","421502","0.0-182.0","p276997","A8B4WA1QFNUAW","3087LXLJ6NMH85PJ46SJUKP4Z1V0FD","3JMSRU9HQK08ICOX2U13MFPJ07LVEZ","emotion","mismatch","uniform","","","","","","","","421261.7999999821","423263.7999999821","","","","","","","","","","","","6","","stimuli/stars_6.png","274.5","","","","","stimuli/BM16_HO.jpg","",""
"explore-choice","183","423026","0.0-183.0","p276997","A8B4WA1QFNUAW","3087LXLJ6NMH85PJ46SJUKP4Z1V0FD","3JMSRU9HQK08ICOX2U13MFPJ07LVEZ","emotion","mismatch","uniform","","","","","","","1021.9000000059605","423265.2999999821","424287.1999999881","[""stimuli/AF11_CC.jpg"",""stimuli/HF02_HO.jpg"",""stimuli/BM03_AO.jpg"",""stimuli/BM16_SUR.jpg""]","stimuli/AF11_CC.jpg","stimuli/HF02_HO.jpg","stimuli/BM03_AO.jpg","stimuli/BM16_SUR.jpg","pos4","stimuli/BM16_SUR.jpg","SUR","BM16","3","4","8","8","stimuli/stars_8.png","278.5","[""CC"",""HO"",""AO"",""SUR""]","[""AF11"",""HF02"",""BM03"",""BM16""]","[4,2,3,8]","[6,4,2,8]","","",""
"show-reward","184","425029","0.0-184.0","p276997","A8B4WA1QFNUAW","3087LXLJ6NMH85PJ46SJUKP4Z1V0FD","3JMSRU9HQK08ICOX2U13MFPJ07LVEZ","emotion","mismatch","uniform","","","","","","","","424789.1999999881","426791.1999999881","","","","","","","","","","","","8","","stimuli/stars_8.png","278.5","","","","","stimuli/BM16_SUR.jpg","",""
"explore-choice","185","426369","0.0-185.0","p276997","A8B4WA1QFNUAW","3087LXLJ6NMH85PJ46SJUKP4Z1V0FD","3JMSRU9HQK08ICOX2U13MFPJ07LVEZ","emotion","mismatch","uniform","","","","","","","836.2000000178814","426793.1999999881","427629.40000000596","[""stimuli/BM03_HO.jpg"",""stimuli/HF02_AO.jpg"",""stimuli/BM16_CC.jpg"",""stimuli/AF11_SUR.jpg""]","stimuli/BM03_HO.jpg","stimuli/HF02_AO.jpg","stimuli/BM16_CC.jpg","stimuli/AF11_SUR.jpg","pos3","stimuli/BM16_CC.jpg","CC","BM16","2","3","6","8","stimuli/stars_6.png","281.5","[""HO"",""AO"",""CC"",""SUR""]","[""BM03"",""HF02"",""BM16"",""AF11""]","[3,2,6,4]","[2,4,8,6]","","",""
"show-reward","186","428373","0.0-186.0","p276997","A8B4WA1QFNUAW","3087LXLJ6NMH85PJ46SJUKP4Z1V0FD","3JMSRU9HQK08ICOX2U13MFPJ07LVEZ","emotion","mismatch","uniform","","","","","","","","428132.7999999821","430135.40000000596","","","","","","","","","","","","6","","stimuli/stars_6.png","281.5","","","","","stimuli/BM16_CC.jpg","",""
"explore-choice","187","429902","0.0-187.0","p276997","A8B4WA1QFNUAW","3087LXLJ6NMH85PJ46SJUKP4Z1V0FD","3JMSRU9HQK08ICOX2U13MFPJ07LVEZ","emotion","mismatch","uniform","","","","","","","1026.300000011921","430136.7999999821","431163.09999999404","[""stimuli/BM03_AO.jpg"",""stimuli/AF11_SUR.jpg"",""stimuli/HF02_HO.jpg"",""stimuli/BM16_CC.jpg""]","stimuli/BM03_AO.jpg","stimuli/AF11_SUR.jpg","stimuli/HF02_HO.jpg","stimuli/BM16_CC.jpg","pos4","stimuli/BM16_CC.jpg","CC","BM16","3","4.5","9","8","stimuli/stars_9.png","286","[""AO"",""SUR"",""HO"",""CC""]","[""BM03"",""AF11"",""HF02"",""BM16""]","[4,8,5,9]","[2,6,4,8]","","",""
"show-reward","188","431905","0.0-188.0","p276997","A8B4WA1QFNUAW","3087LXLJ6NMH85PJ46SJUKP4Z1V0FD","3JMSRU9HQK08ICOX2U13MFPJ07LVEZ","emotion","mismatch","uniform","","","","","","","","431665.1999999881","433667.1999999881","","","","","","","","","","","","9","","stimuli/stars_9.png","286","","","","","stimuli/BM16_CC.jpg","",""
"explore-choice","189","433652","0.0-189.0","p276997","A8B4WA1QFNUAW","3087LXLJ6NMH85PJ46SJUKP4Z1V0FD","3JMSRU9HQK08ICOX2U13MFPJ07LVEZ","emotion","mismatch","uniform","","","","","","","1245.0999999940395","433668.5","434913.59999999404","[""stimuli/AF11_CC.jpg"",""stimuli/HF02_AO.jpg"",""stimuli/BM16_HO.jpg"",""stimuli/BM03_SUR.jpg""]","stimuli/AF11_CC.jpg","stimuli/HF02_AO.jpg","stimuli/BM16_HO.jpg","stimuli/BM03_SUR.jpg","pos3","stimuli/BM16_HO.jpg","HO","BM16","2","4.5","9","8","stimuli/stars_9.png","290.5","[""CC"",""AO"",""HO"",""SUR""]","[""AF11"",""HF02"",""BM16"",""BM03""]","[8,5,9,3]","[6,4,8,2]","","",""
"show-reward","190","435655","0.0-190.0","p276997","A8B4WA1QFNUAW","3087LXLJ6NMH85PJ46SJUKP4Z1V0FD","3JMSRU9HQK08ICOX2U13MFPJ07LVEZ","emotion","mismatch","uniform","","","","","","","","435415.1999999881","437417.40000000596","","","","","","","","","","","","9","","stimuli/stars_9.png","290.5","","","","","stimuli/BM16_HO.jpg","",""
"explore-choice","191","437148","0.0-191.0","p276997","A8B4WA1QFNUAW","3087LXLJ6NMH85PJ46SJUKP4Z1V0FD","3JMSRU9HQK08ICOX2U13MFPJ07LVEZ","emotion","mismatch","uniform","","","","","","","991.5","437418.90000000596","438410.40000000596","[""stimuli/AF11_HO.jpg"",""stimuli/BM03_AO.jpg"",""stimuli/BM16_SUR.jpg"",""stimuli/HF02_CC.jpg""]","stimuli/AF11_HO.jpg","stimuli/BM03_AO.jpg","stimuli/BM16_SUR.jpg","stimuli/HF02_CC.jpg","pos3","stimuli/BM16_SUR.jpg","SUR","BM16","2","3.5","7","8","stimuli/stars_7.png","294","[""HO"",""AO"",""SUR"",""CC""]","[""AF11"",""BM03"",""BM16"",""HF02""]","[4,4,7,3]","[6,2,8,4]","","",""
"show-reward","192","439153","0.0-192.0","p276997","A8B4WA1QFNUAW","3087LXLJ6NMH85PJ46SJUKP4Z1V0FD","3JMSRU9HQK08ICOX2U13MFPJ07LVEZ","emotion","mismatch","uniform","","","","","","","","438912.5","440915.1999999881","","","","","","","","","","","","7","","stimuli/stars_7.png","294","","","","","stimuli/BM16_SUR.jpg","",""
"explore-choice","193","440800","0.0-193.0","p276997","A8B4WA1QFNUAW","3087LXLJ6NMH85PJ46SJUKP4Z1V0FD","3JMSRU9HQK08ICOX2U13MFPJ07LVEZ","emotion","mismatch","uniform","","","","","","","1145.2000000178814","440916.6999999881","442061.90000000596","[""stimuli/HF02_CC.jpg"",""stimuli/BM03_HO.jpg"",""stimuli/BM16_SUR.jpg"",""stimuli/AF11_AO.jpg""]","stimuli/HF02_CC.jpg","stimuli/BM03_HO.jpg","stimuli/BM16_SUR.jpg","stimuli/AF11_AO.jpg","pos3","stimuli/BM16_SUR.jpg","SUR","BM16","2","3.5","7","8","stimuli/stars_7.png","297.5","[""CC"",""HO"",""SUR"",""AO""]","[""HF02"",""BM03"",""BM16"",""AF11""]","[2,4,7,6]","[4,2,8,6]","","",""
"show-reward","194","442804","0.0-194.0","p276997","A8B4WA1QFNUAW","3087LXLJ6NMH85PJ46SJUKP4Z1V0FD","3JMSRU9HQK08ICOX2U13MFPJ07LVEZ","emotion","mismatch","uniform","","","","","","","","442563.7999999821","444566","","","","","","","","","","","","7","","stimuli/stars_7.png","297.5","","","","","stimuli/BM16_SUR.jpg","",""
"explore-choice","195","444631","0.0-195.0","p276997","A8B4WA1QFNUAW","3087LXLJ6NMH85PJ46SJUKP4Z1V0FD","3JMSRU9HQK08ICOX2U13MFPJ07LVEZ","emotion","mismatch","uniform","","","","","","","1324.7999999821186","444567.90000000596","445892.6999999881","[""stimuli/AF11_AO.jpg"",""stimuli/BM03_CC.jpg"",""stimuli/BM16_HO.jpg"",""stimuli/HF02_SUR.jpg""]","stimuli/AF11_AO.jpg","stimuli/BM03_CC.jpg","stimuli/BM16_HO.jpg","stimuli/HF02_SUR.jpg","pos3","stimuli/BM16_HO.jpg","HO","BM16","2","4","8","8","stimuli/stars_8.png","301.5","[""AO"",""CC"",""HO"",""SUR""]","[""AF11"",""BM03"",""BM16"",""HF02""]","[6,4,8,2]","[6,2,8,4]","","",""
"show-reward","196","446634","0.0-196.0","p276997","A8B4WA1QFNUAW","3087LXLJ6NMH85PJ46SJUKP4Z1V0FD","3JMSRU9HQK08ICOX2U13MFPJ07LVEZ","emotion","mismatch","uniform","","","","","","","","446394.2999999821","448396.7999999821","","","","","","","","","","","","8","","stimuli/stars_8.png","301.5","","","","","stimuli/BM16_HO.jpg","",""
"explore-choice","197","448173","0.0-197.0","p276997","A8B4WA1QFNUAW","3087LXLJ6NMH85PJ46SJUKP4Z1V0FD","3JMSRU9HQK08ICOX2U13MFPJ07LVEZ","emotion","mismatch","uniform","","","","","","","1036.5999999940395","448398.09999999404","449434.6999999881","[""stimuli/BM03_CC.jpg"",""stimuli/AF11_AO.jpg"",""stimuli/HF02_HO.jpg"",""stimuli/BM16_SUR.jpg""]","stimuli/BM03_CC.jpg","stimuli/AF11_AO.jpg","stimuli/HF02_HO.jpg","stimuli/BM16_SUR.jpg","pos4","stimuli/BM16_SUR.jpg","SUR","BM16","3","4","8","8","stimuli/stars_8.png","305.5","[""CC"",""AO"",""HO"",""SUR""]","[""BM03"",""AF11"",""HF02"",""BM16""]","[3,8,5,8]","[2,6,4,8]","","",""
"show-reward","198","450177","0.0-198.0","p276997","A8B4WA1QFNUAW","3087LXLJ6NMH85PJ46SJUKP4Z1V0FD","3JMSRU9HQK08ICOX2U13MFPJ07LVEZ","emotion","mismatch","uniform","","","","","","","","449936.90000000596","451938.90000000596","","","","","","","","","","","","8","","stimuli/stars_8.png","305.5","","","","","stimuli/BM16_SUR.jpg","",""
"instructions","199","457438","0.0-199.0","p276997","A8B4WA1QFNUAW","3087LXLJ6NMH85PJ46SJUKP4Z1V0FD","3JMSRU9HQK08ICOX2U13MFPJ07LVEZ","emotion","mismatch","uniform","","","","","","[{""page_index"":0,""viewing_time"":7257.5999999940395}]","7259.5","","","","","","","","","","","","","","","","","","","","","","","",""
"survey-text","200","462885","0.0-200.0-0.0","p276997","A8B4WA1QFNUAW","3087LXLJ6NMH85PJ46SJUKP4Z1V0FD","3JMSRU9HQK08ICOX2U13MFPJ07LVEZ","emotion","mismatch","uniform","","","","","","","5439.5999999940395","","","","","","","","","","","","","","","","","","","","","","","{""age"":""36""}",""
"survey-text","201","470007","0.0-200.0-1.0","p276997","A8B4WA1QFNUAW","3087LXLJ6NMH85PJ46SJUKP4Z1V0FD","3JMSRU9HQK08ICOX2U13MFPJ07LVEZ","emotion","mismatch","uniform","","","","","","","7108.5","","","","","","","","","","","","","","","","","","","","","","","{""gender"":""female""}",""
"survey-text","202","484169","0.0-200.0-2.0","p276997","A8B4WA1QFNUAW","3087LXLJ6NMH85PJ46SJUKP4Z1V0FD","3JMSRU9HQK08ICOX2U13MFPJ07LVEZ","emotion","mismatch","uniform","","","","","","","14159.09999999404","","","","","","","","","","","","","","","","","","","","","","","{""country"":""America""}",""
"survey-text","203","495820","0.0-200.0-3.0","p276997","A8B4WA1QFNUAW","3087LXLJ6NMH85PJ46SJUKP4Z1V0FD","3JMSRU9HQK08ICOX2U13MFPJ07LVEZ","emotion","mismatch","uniform","","","","","","","11647.40000000596","","","","","","","","","","","","","","","","","","","","","","","{""language"":""English"",""other_languages"":""none""}",""
"survey-multi-select","204","499090","0.0-201.0","p276997","A8B4WA1QFNUAW","3087LXLJ6NMH85PJ46SJUKP4Z1V0FD","3JMSRU9HQK08ICOX2U13MFPJ07LVEZ","emotion","mismatch","uniform","","","","","","","3263.300000011921","","","","","","","","","","","","","","","","","","","","","","","{""race"":[""White""]}","[0]"
"survey-multi-choice","205","501785","0.0-202.0","p276997","A8B4WA1QFNUAW","3087LXLJ6NMH85PJ46SJUKP4Z1V0FD","3JMSRU9HQK08ICOX2U13MFPJ07LVEZ","emotion","mismatch","uniform","","","","","","","2690.5999999940395","","","","","","","","","","","","","","","","","","","","","","","{""education"":""High school""}","[0]"
"survey-text","206","540721","0.0-203.0","p276997","A8B4WA1QFNUAW","3087LXLJ6NMH85PJ46SJUKP4Z1V0FD","3JMSRU9HQK08ICOX2U13MFPJ07LVEZ","emotion","mismatch","uniform","","","","","","","38923.40000000596","","","","","","","","","","","","","","","","","","","","","","","{""patterns"":""At first I thought it was the shocked face"",""strategy"":""I just tried to follow the high numbers"",""comments"":""No but thank you""}",""
