"trial_type","trial_index","time_elapsed","internal_node_id","subject","workerId","hitId","assignmentId","structure_condition","match_condition","noise_type","success","timeout","failed_images","failed_audio","failed_video","view_history","rt","start_time","end_time","stimuli","image1","image2","image3","image4","choiceLocation","choiceImage","choiceEmotion","choiceModel","choice_index","reward_score","reward","reward_score_unadjusted","reward_image","score_after_trial","emotions","models","rewards","rewards_unadjusted","stimulus","response","question_order"
"pavlovia","0","20","0.0-0.0","p898823","ASCS0QEE54PUI","3RZS0FBRWLGDTA9TUPH81F59AWHPC0","3PWWM24LHU4ICKG41HVSS0WMS7Z82C","emotion","mismatch","uniform","","","","","","","","","","","","","","","","","","","","","","","","","","","","","","",""
"preload","1","44584","0.0-1.0","p898823","ASCS0QEE54PUI","3RZS0FBRWLGDTA9TUPH81F59AWHPC0","3PWWM24LHU4ICKG41HVSS0WMS7Z82C","emotion","mismatch","uniform","true","false","[]","[]","[]","","","","","","","","","","","","","","","","","","","","","","","","","",""
"fullscreen","2","604324","0.0-2.0","p898823","ASCS0QEE54PUI","3RZS0FBRWLGDTA9TUPH81F59AWHPC0","3PWWM24LHU4ICKG41HVSS0WMS7Z82C","emotion","mismatch","uniform","true","","","","","","","","","","","","","","","","","","","","","","","","","","","","","",""
"instructions","3","635156","0.0-3.0","p898823","ASCS0QEE54PUI","3RZS0FBRWLGDTA9TUPH81F59AWHPC0","3PWWM24LHU4ICKG41HVSS0WMS7Z82C","emotion","mismatch","uniform","","","","","","[{""page_index"":0,""viewing_time"":30827}]","30828","","","","","","","","","","","","","","","","","","","","","","","",""
"explore-choice","4","638475","0.0-4.0","p898823","ASCS0QEE54PUI","3RZS0FBRWLGDTA9TUPH81F59AWHPC0","3PWWM24LHU4ICKG41HVSS0WMS7Z82C","emotion","mismatch","uniform","","","","","","","2808","639813","642621","[""stimuli/sheep.jpg"",""stimuli/hammer.jpg"",""stimuli/basketball.jpg"",""stimuli/horse.jpg""]","stimuli/sheep.jpg","stimuli/hammer.jpg","stimuli/basketball.jpg","stimuli/horse.jpg","pos4","stimuli/horse.jpg","","","3","64","64","64","stimuli/stars_8.png","65","","","","","","",""
"explore-choice","5","646754","0.0-5.0","p898823","ASCS0QEE54PUI","3RZS0FBRWLGDTA9TUPH81F59AWHPC0","3PWWM24LHU4ICKG41HVSS0WMS7Z82C","emotion","mismatch","uniform","","","","","","","7766","643132","650898","[""stimuli/hammer.jpg"",""stimuli/basketball.jpg"",""stimuli/horse.jpg"",""stimuli/sheep.jpg""]","stimuli/hammer.jpg","stimuli/basketball.jpg","stimuli/horse.jpg","stimuli/sheep.jpg","pos1","stimuli/hammer.jpg","","","0","8","8","8","stimuli/stars_2.png","9","","","","","","",""
"instructions","6","702353","0.0-6.0","p898823","ASCS0QEE54PUI","3RZS0FBRWLGDTA9TUPH81F59AWHPC0","3PWWM24LHU4ICKG41HVSS0WMS7Z82C","emotion","mismatch","uniform","","","","","","[{""page_index"":0,""viewing_time"":55599}]","55599","","","","","","","","","","","","","","","","","","","","","","","",""
"explore-choice","7","704054","0.0-7.0","p898823","ASCS0QEE54PUI","3RZS0FBRWLGDTA9TUPH81F59AWHPC0","3PWWM24LHU4ICKG41HVSS0WMS7Z82C","emotion","mismatch","uniform","","","","","","","1187","707011","708198","[""stimuli/AF11_AO.jpg"",""stimuli/AF10_SUR.jpg"",""stimuli/BF08_FO.jpg"",""stimuli/HM02_HO.jpg""]","stimuli/AF11_AO.jpg","stimuli/AF10_SUR.jpg","stimuli/BF08_FO.jpg","stimuli/HM02_HO.jpg","pos1","stimuli/AF11_AO.jpg","AO","AF11","0","3","6","4","stimuli/stars_6.png","4","[""AO"",""SUR"",""FO"",""HO""]","[""AF11"",""AF10"",""BF08"",""HM02""]","[6,4,4,6]","[4,2,6,8]","","",""
"show-reward","8","706118","0.0-8.0","p898823","ASCS0QEE54PUI","3RZS0FBRWLGDTA9TUPH81F59AWHPC0","3PWWM24LHU4ICKG41HVSS0WMS7Z82C","emotion","mismatch","uniform","","","","","","","","708713","710773","","","","","","","","","","","","6","","stimuli/stars_6.png","4","","","","","stimuli/AF11_AO.jpg","",""
"explore-choice","9","707982","0.0-9.0","p898823","ASCS0QEE54PUI","3RZS0FBRWLGDTA9TUPH81F59AWHPC0","3PWWM24LHU4ICKG41HVSS0WMS7Z82C","emotion","mismatch","uniform","","","","","","","1346","710775","712121","[""stimuli/HM02_AO.jpg"",""stimuli/BF08_SUR.jpg"",""stimuli/AF10_HO.jpg"",""stimuli/AF11_FO.jpg""]","stimuli/HM02_AO.jpg","stimuli/BF08_SUR.jpg","stimuli/AF10_HO.jpg","stimuli/AF11_FO.jpg","pos2","stimuli/BF08_SUR.jpg","SUR","BF08","1","2","4","2","stimuli/stars_4.png","6","[""AO"",""SUR"",""HO"",""FO""]","[""HM02"",""BF08"",""AF10"",""AF11""]","[6,4,9,8]","[4,2,8,6]","","",""
"show-reward","10","710000","0.0-10.0","p898823","ASCS0QEE54PUI","3RZS0FBRWLGDTA9TUPH81F59AWHPC0","3PWWM24LHU4ICKG41HVSS0WMS7Z82C","emotion","mismatch","uniform","","","","","","","","712639","714655","","","","","","","","","","","","4","","stimuli/stars_4.png","6","","","","","stimuli/BF08_SUR.jpg","",""
"explore-choice","11","710997","0.0-11.0","p898823","ASCS0QEE54PUI","3RZS0FBRWLGDTA9TUPH81F59AWHPC0","3PWWM24LHU4ICKG41HVSS0WMS7Z82C","emotion","mismatch","uniform","","","","","","","482","714658","715140","[""stimuli/AF11_AO.jpg"",""stimuli/AF10_FO.jpg"",""stimuli/HM02_SUR.jpg"",""stimuli/BF08_HO.jpg""]","stimuli/AF11_AO.jpg","stimuli/AF10_FO.jpg","stimuli/HM02_SUR.jpg","stimuli/BF08_HO.jpg","pos2","stimuli/AF10_FO.jpg","FO","AF10","1","2.5","5","6","stimuli/stars_5.png","8.5","[""AO"",""FO"",""SUR"",""HO""]","[""AF11"",""AF10"",""HM02"",""BF08""]","[6,5,1,9]","[4,6,2,8]","","",""
"show-reward","12","713023","0.0-12.0","p898823","ASCS0QEE54PUI","3RZS0FBRWLGDTA9TUPH81F59AWHPC0","3PWWM24LHU4ICKG41HVSS0WMS7Z82C","emotion","mismatch","uniform","","","","","","","","715655","717677","","","","","","","","","","","","5","","stimuli/stars_5.png","8.5","","","","","stimuli/AF10_FO.jpg","",""
"explore-choice","13","715292","0.0-13.0","p898823","ASCS0QEE54PUI","3RZS0FBRWLGDTA9TUPH81F59AWHPC0","3PWWM24LHU4ICKG41HVSS0WMS7Z82C","emotion","mismatch","uniform","","","","","","","1759","717680","719439","[""stimuli/HM02_SUR.jpg"",""stimuli/BF08_FO.jpg"",""stimuli/AF11_AO.jpg"",""stimuli/AF10_HO.jpg""]","stimuli/HM02_SUR.jpg","stimuli/BF08_FO.jpg","stimuli/AF11_AO.jpg","stimuli/AF10_HO.jpg","pos2","stimuli/BF08_FO.jpg","FO","BF08","1","3.5","7","6","stimuli/stars_7.png","12","[""SUR"",""FO"",""AO"",""HO""]","[""HM02"",""BF08"",""AF11"",""AF10""]","[3,7,4,7]","[2,6,4,8]","","",""
"show-reward","14","717315","0.0-14.0","p898823","ASCS0QEE54PUI","3RZS0FBRWLGDTA9TUPH81F59AWHPC0","3PWWM24LHU4ICKG41HVSS0WMS7Z82C","emotion","mismatch","uniform","","","","","","","","719948","721969","","","","","","","","","","","","7","","stimuli/stars_7.png","12","","","","","stimuli/BF08_FO.jpg","",""
"explore-choice","15","718766","0.0-15.0","p898823","ASCS0QEE54PUI","3RZS0FBRWLGDTA9TUPH81F59AWHPC0","3PWWM24LHU4ICKG41HVSS0WMS7Z82C","emotion","mismatch","uniform","","","","","","","930","721971","722901","[""stimuli/HM02_FO.jpg"",""stimuli/AF10_HO.jpg"",""stimuli/AF11_SUR.jpg"",""stimuli/BF08_AO.jpg""]","stimuli/HM02_FO.jpg","stimuli/AF10_HO.jpg","stimuli/AF11_SUR.jpg","stimuli/BF08_AO.jpg","pos4","stimuli/BF08_AO.jpg","AO","BF08","3","2","4","4","stimuli/stars_4.png","14","[""FO"",""HO"",""SUR"",""AO""]","[""HM02"",""AF10"",""AF11"",""BF08""]","[5,9,3,4]","[6,8,2,4]","","",""
"show-reward","16","720792","0.0-16.0","p898823","ASCS0QEE54PUI","3RZS0FBRWLGDTA9TUPH81F59AWHPC0","3PWWM24LHU4ICKG41HVSS0WMS7Z82C","emotion","mismatch","uniform","","","","","","","","723422","725447","","","","","","","","","","","","4","","stimuli/stars_4.png","14","","","","","stimuli/BF08_AO.jpg","",""
"explore-choice","17","723230","0.0-17.0","p898823","ASCS0QEE54PUI","3RZS0FBRWLGDTA9TUPH81F59AWHPC0","3PWWM24LHU4ICKG41HVSS0WMS7Z82C","emotion","mismatch","uniform","","","","","","","1936","725448","727384","[""stimuli/HM02_FO.jpg"",""stimuli/AF11_HO.jpg"",""stimuli/AF10_SUR.jpg"",""stimuli/BF08_AO.jpg""]","stimuli/HM02_FO.jpg","stimuli/AF11_HO.jpg","stimuli/AF10_SUR.jpg","stimuli/BF08_AO.jpg","pos4","stimuli/BF08_AO.jpg","AO","BF08","3","2","4","4","stimuli/stars_4.png","16","[""FO"",""HO"",""SUR"",""AO""]","[""HM02"",""AF11"",""AF10"",""BF08""]","[5,10,0,4]","[6,8,2,4]","","",""
"show-reward","18","725253","0.0-18.0","p898823","ASCS0QEE54PUI","3RZS0FBRWLGDTA9TUPH81F59AWHPC0","3PWWM24LHU4ICKG41HVSS0WMS7Z82C","emotion","mismatch","uniform","","","","","","","","727887","729907","","","","","","","","","","","","4","","stimuli/stars_4.png","16","","","","","stimuli/BF08_AO.jpg","",""
"explore-choice","19","726519","0.0-19.0","p898823","ASCS0QEE54PUI","3RZS0FBRWLGDTA9TUPH81F59AWHPC0","3PWWM24LHU4ICKG41HVSS0WMS7Z82C","emotion","mismatch","uniform","","","","","","","763","729910","730673","[""stimuli/AF10_AO.jpg"",""stimuli/AF11_HO.jpg"",""stimuli/BF08_FO.jpg"",""stimuli/HM02_SUR.jpg""]","stimuli/AF10_AO.jpg","stimuli/AF11_HO.jpg","stimuli/BF08_FO.jpg","stimuli/HM02_SUR.jpg","pos4","stimuli/HM02_SUR.jpg","SUR","HM02","3","1.5","3","2","stimuli/stars_3.png","17.5","[""AO"",""HO"",""FO"",""SUR""]","[""AF10"",""AF11"",""BF08"",""HM02""]","[5,8,4,3]","[4,8,6,2]","","",""
"show-reward","20","728534","0.0-20.0","p898823","ASCS0QEE54PUI","3RZS0FBRWLGDTA9TUPH81F59AWHPC0","3PWWM24LHU4ICKG41HVSS0WMS7Z82C","emotion","mismatch","uniform","","","","","","","","731175","733188","","","","","","","","","","","","3","","stimuli/stars_3.png","17.5","","","","","stimuli/HM02_SUR.jpg","",""
"explore-choice","21","732050","0.0-21.0","p898823","ASCS0QEE54PUI","3RZS0FBRWLGDTA9TUPH81F59AWHPC0","3PWWM24LHU4ICKG41HVSS0WMS7Z82C","emotion","mismatch","uniform","","","","","","","3007","733190","736197","[""stimuli/AF11_AO.jpg"",""stimuli/BF08_SUR.jpg"",""stimuli/AF10_FO.jpg"",""stimuli/HM02_HO.jpg""]","stimuli/AF11_AO.jpg","stimuli/BF08_SUR.jpg","stimuli/AF10_FO.jpg","stimuli/HM02_HO.jpg","pos4","stimuli/HM02_HO.jpg","HO","HM02","3","4.5","9","8","stimuli/stars_9.png","22","[""AO"",""SUR"",""FO"",""HO""]","[""AF11"",""BF08"",""AF10"",""HM02""]","[2,0,8,9]","[4,2,6,8]","","",""
"show-reward","22","734073","0.0-22.0","p898823","ASCS0QEE54PUI","3RZS0FBRWLGDTA9TUPH81F59AWHPC0","3PWWM24LHU4ICKG41HVSS0WMS7Z82C","emotion","mismatch","uniform","","","","","","","","736707","738728","","","","","","","","","","","","9","","stimuli/stars_9.png","22","","","","","stimuli/HM02_HO.jpg","",""
"explore-choice","23","736848","0.0-23.0","p898823","ASCS0QEE54PUI","3RZS0FBRWLGDTA9TUPH81F59AWHPC0","3PWWM24LHU4ICKG41HVSS0WMS7Z82C","emotion","mismatch","uniform","","","","","","","2257","738730","740987","[""stimuli/AF10_AO.jpg"",""stimuli/HM02_FO.jpg"",""stimuli/BF08_SUR.jpg"",""stimuli/AF11_HO.jpg""]","stimuli/AF10_AO.jpg","stimuli/HM02_FO.jpg","stimuli/BF08_SUR.jpg","stimuli/AF11_HO.jpg","pos3","stimuli/BF08_SUR.jpg","SUR","BF08","2","0.5","1","2","stimuli/stars_1.png","22.5","[""AO"",""FO"",""SUR"",""HO""]","[""AF10"",""HM02"",""BF08"",""AF11""]","[5,5,1,7]","[4,6,2,8]","","",""
"show-reward","24","738862","0.0-24.0","p898823","ASCS0QEE54PUI","3RZS0FBRWLGDTA9TUPH81F59AWHPC0","3PWWM24LHU4ICKG41HVSS0WMS7Z82C","emotion","mismatch","uniform","","","","","","","","741505","743517","","","","","","","","","","","","1","","stimuli/stars_1.png","22.5","","","","","stimuli/BF08_SUR.jpg","",""
"explore-choice","25","744057","0.0-25.0","p898823","ASCS0QEE54PUI","3RZS0FBRWLGDTA9TUPH81F59AWHPC0","3PWWM24LHU4ICKG41HVSS0WMS7Z82C","emotion","mismatch","uniform","","","","","","","4686","743519","748205","[""stimuli/AF10_SUR.jpg"",""stimuli/BF08_AO.jpg"",""stimuli/HM02_HO.jpg"",""stimuli/AF11_FO.jpg""]","stimuli/AF10_SUR.jpg","stimuli/BF08_AO.jpg","stimuli/HM02_HO.jpg","stimuli/AF11_FO.jpg","pos2","stimuli/BF08_AO.jpg","AO","BF08","1","1.5","3","4","stimuli/stars_3.png","24","[""SUR"",""AO"",""HO"",""FO""]","[""AF10"",""BF08"",""HM02"",""AF11""]","[1,3,7,6]","[2,4,8,6]","","",""
"show-reward","26","746074","0.0-26.0","p898823","ASCS0QEE54PUI","3RZS0FBRWLGDTA9TUPH81F59AWHPC0","3PWWM24LHU4ICKG41HVSS0WMS7Z82C","emotion","mismatch","uniform","","","","","","","","748714","750728","","","","","","","","","","","","3","","stimuli/stars_3.png","24","","","","","stimuli/BF08_AO.jpg","",""
"explore-choice","27","747268","0.0-27.0","p898823","ASCS0QEE54PUI","3RZS0FBRWLGDTA9TUPH81F59AWHPC0","3PWWM24LHU4ICKG41HVSS0WMS7Z82C","emotion","mismatch","uniform","","","","","","","673","750729","751402","[""stimuli/AF10_HO.jpg"",""stimuli/AF11_FO.jpg"",""stimuli/HM02_SUR.jpg"",""stimuli/BF08_AO.jpg""]","stimuli/AF10_HO.jpg","stimuli/AF11_FO.jpg","stimuli/HM02_SUR.jpg","stimuli/BF08_AO.jpg","pos1","stimuli/AF10_HO.jpg","HO","AF10","0","3","6","8","stimuli/stars_6.png","27","[""HO"",""FO"",""SUR"",""AO""]","[""AF10"",""AF11"",""HM02"",""BF08""]","[6,7,0,6]","[8,6,2,4]","","",""
"show-reward","28","749279","0.0-28.0","p898823","ASCS0QEE54PUI","3RZS0FBRWLGDTA9TUPH81F59AWHPC0","3PWWM24LHU4ICKG41HVSS0WMS7Z82C","emotion","mismatch","uniform","","","","","","","","751925","753933","","","","","","","","","","","","6","","stimuli/stars_6.png","27","","","","","stimuli/AF10_HO.jpg","",""
"explore-choice","29","750480","0.0-29.0","p898823","ASCS0QEE54PUI","3RZS0FBRWLGDTA9TUPH81F59AWHPC0","3PWWM24LHU4ICKG41HVSS0WMS7Z82C","emotion","mismatch","uniform","","","","","","","697","753936","754633","[""stimuli/HM02_SUR.jpg"",""stimuli/BF08_AO.jpg"",""stimuli/AF11_HO.jpg"",""stimuli/AF10_FO.jpg""]","stimuli/HM02_SUR.jpg","stimuli/BF08_AO.jpg","stimuli/AF11_HO.jpg","stimuli/AF10_FO.jpg","pos2","stimuli/BF08_AO.jpg","AO","BF08","1","2.5","5","4","stimuli/stars_5.png","29.5","[""SUR"",""AO"",""HO"",""FO""]","[""HM02"",""BF08"",""AF11"",""AF10""]","[1,5,7,4]","[2,4,8,6]","","",""
"show-reward","30","752631","0.0-30.0","p898823","ASCS0QEE54PUI","3RZS0FBRWLGDTA9TUPH81F59AWHPC0","3PWWM24LHU4ICKG41HVSS0WMS7Z82C","emotion","mismatch","uniform","","","","","","","","755137","757286","","","","","","","","","","","","5","","stimuli/stars_5.png","29.5","","","","","stimuli/BF08_AO.jpg","",""
"explore-choice","31","755978","0.0-31.0","p898823","ASCS0QEE54PUI","3RZS0FBRWLGDTA9TUPH81F59AWHPC0","3PWWM24LHU4ICKG41HVSS0WMS7Z82C","emotion","mismatch","uniform","","","","","","","2839","757288","760127","[""stimuli/AF10_AO.jpg"",""stimuli/AF11_SUR.jpg"",""stimuli/HM02_HO.jpg"",""stimuli/BF08_FO.jpg""]","stimuli/AF10_AO.jpg","stimuli/AF11_SUR.jpg","stimuli/HM02_HO.jpg","stimuli/BF08_FO.jpg","pos2","stimuli/AF11_SUR.jpg","SUR","AF11","1","0.5","1","2","stimuli/stars_1.png","30","[""AO"",""SUR"",""HO"",""FO""]","[""AF10"",""AF11"",""HM02"",""BF08""]","[2,1,8,8]","[4,2,8,6]","","",""
"show-reward","32","757989","0.0-32.0","p898823","ASCS0QEE54PUI","3RZS0FBRWLGDTA9TUPH81F59AWHPC0","3PWWM24LHU4ICKG41HVSS0WMS7Z82C","emotion","mismatch","uniform","","","","","","","","760634","762644","","","","","","","","","","","","1","","stimuli/stars_1.png","30","","","","","stimuli/AF11_SUR.jpg","",""
"explore-choice","33","759195","0.0-33.0","p898823","ASCS0QEE54PUI","3RZS0FBRWLGDTA9TUPH81F59AWHPC0","3PWWM24LHU4ICKG41HVSS0WMS7Z82C","emotion","mismatch","uniform","","","","","","","699","762646","763345","[""stimuli/BF08_HO.jpg"",""stimuli/AF10_SUR.jpg"",""stimuli/AF11_AO.jpg"",""stimuli/HM02_FO.jpg""]","stimuli/BF08_HO.jpg","stimuli/AF10_SUR.jpg","stimuli/AF11_AO.jpg","stimuli/HM02_FO.jpg","pos2","stimuli/AF10_SUR.jpg","SUR","AF10","1","1.5","3","2","stimuli/stars_3.png","31.5","[""HO"",""SUR"",""AO"",""FO""]","[""BF08"",""AF10"",""AF11"",""HM02""]","[6,3,3,5]","[8,2,4,6]","","",""
"show-reward","34","761212","0.0-34.0","p898823","ASCS0QEE54PUI","3RZS0FBRWLGDTA9TUPH81F59AWHPC0","3PWWM24LHU4ICKG41HVSS0WMS7Z82C","emotion","mismatch","uniform","","","","","","","","763850","765865","","","","","","","","","","","","3","","stimuli/stars_3.png","31.5","","","","","stimuli/AF10_SUR.jpg","",""
"explore-choice","35","765488","0.0-35.0","p898823","ASCS0QEE54PUI","3RZS0FBRWLGDTA9TUPH81F59AWHPC0","3PWWM24LHU4ICKG41HVSS0WMS7Z82C","emotion","mismatch","uniform","","","","","","","3765","765867","769632","[""stimuli/AF10_SUR.jpg"",""stimuli/BF08_HO.jpg"",""stimuli/HM02_AO.jpg"",""stimuli/AF11_FO.jpg""]","stimuli/AF10_SUR.jpg","stimuli/BF08_HO.jpg","stimuli/HM02_AO.jpg","stimuli/AF11_FO.jpg","pos2","stimuli/BF08_HO.jpg","HO","BF08","1","3.5","7","8","stimuli/stars_7.png","35","[""SUR"",""HO"",""AO"",""FO""]","[""AF10"",""BF08"",""HM02"",""AF11""]","[1,7,2,7]","[2,8,4,6]","","",""
"show-reward","36","767504","0.0-36.0","p898823","ASCS0QEE54PUI","3RZS0FBRWLGDTA9TUPH81F59AWHPC0","3PWWM24LHU4ICKG41HVSS0WMS7Z82C","emotion","mismatch","uniform","","","","","","","","770144","772160","","","","","","","","","","","","7","","stimuli/stars_7.png","35","","","","","stimuli/BF08_HO.jpg","",""
"explore-choice","37","771396","0.0-37.0","p898823","ASCS0QEE54PUI","3RZS0FBRWLGDTA9TUPH81F59AWHPC0","3PWWM24LHU4ICKG41HVSS0WMS7Z82C","emotion","mismatch","uniform","","","","","","","3376","772160","775536","[""stimuli/AF10_FO.jpg"",""stimuli/BF08_HO.jpg"",""stimuli/HM02_AO.jpg"",""stimuli/AF11_SUR.jpg""]","stimuli/AF10_FO.jpg","stimuli/BF08_HO.jpg","stimuli/HM02_AO.jpg","stimuli/AF11_SUR.jpg","pos2","stimuli/BF08_HO.jpg","HO","BF08","1","3.5","7","8","stimuli/stars_7.png","38.5","[""FO"",""HO"",""AO"",""SUR""]","[""AF10"",""BF08"",""HM02"",""AF11""]","[6,7,4,1]","[6,8,4,2]","","",""
"show-reward","38","773411","0.0-38.0","p898823","ASCS0QEE54PUI","3RZS0FBRWLGDTA9TUPH81F59AWHPC0","3PWWM24LHU4ICKG41HVSS0WMS7Z82C","emotion","mismatch","uniform","","","","","","","","776053","778066","","","","","","","","","","","","7","","stimuli/stars_7.png","38.5","","","","","stimuli/BF08_HO.jpg","",""
"explore-choice","39","776929","0.0-39.0","p898823","ASCS0QEE54PUI","3RZS0FBRWLGDTA9TUPH81F59AWHPC0","3PWWM24LHU4ICKG41HVSS0WMS7Z82C","emotion","mismatch","uniform","","","","","","","3010","778068","781078","[""stimuli/HM02_SUR.jpg"",""stimuli/BF08_HO.jpg"",""stimuli/AF11_FO.jpg"",""stimuli/AF10_AO.jpg""]","stimuli/HM02_SUR.jpg","stimuli/BF08_HO.jpg","stimuli/AF11_FO.jpg","stimuli/AF10_AO.jpg","pos2","stimuli/BF08_HO.jpg","HO","BF08","1","3","6","8","stimuli/stars_6.png","41.5","[""SUR"",""HO"",""FO"",""AO""]","[""HM02"",""BF08"",""AF11"",""AF10""]","[2,6,7,4]","[2,8,6,4]","","",""
"show-reward","40","778944","0.0-40.0","p898823","ASCS0QEE54PUI","3RZS0FBRWLGDTA9TUPH81F59AWHPC0","3PWWM24LHU4ICKG41HVSS0WMS7Z82C","emotion","mismatch","uniform","","","","","","","","781586","783600","","","","","","","","","","","","6","","stimuli/stars_6.png","41.5","","","","","stimuli/BF08_HO.jpg","",""
"explore-choice","41","783029","0.0-41.0","p898823","ASCS0QEE54PUI","3RZS0FBRWLGDTA9TUPH81F59AWHPC0","3PWWM24LHU4ICKG41HVSS0WMS7Z82C","emotion","mismatch","uniform","","","","","","","3567","783601","787168","[""stimuli/HM02_AO.jpg"",""stimuli/AF11_SUR.jpg"",""stimuli/AF10_HO.jpg"",""stimuli/BF08_FO.jpg""]","stimuli/HM02_AO.jpg","stimuli/AF11_SUR.jpg","stimuli/AF10_HO.jpg","stimuli/BF08_FO.jpg","pos2","stimuli/AF11_SUR.jpg","SUR","AF11","1","0","0","2","stimuli/stars_0.png","41.5","[""AO"",""SUR"",""HO"",""FO""]","[""HM02"",""AF11"",""AF10"",""BF08""]","[5,0,10,6]","[4,2,8,6]","","",""
"show-reward","42","785047","0.0-42.0","p898823","ASCS0QEE54PUI","3RZS0FBRWLGDTA9TUPH81F59AWHPC0","3PWWM24LHU4ICKG41HVSS0WMS7Z82C","emotion","mismatch","uniform","","","","","","","","787684","789703","","","","","","","","","","","","0","","stimuli/stars_0.png","41.5","","","","","stimuli/AF11_SUR.jpg","",""
"explore-choice","43","793511","0.0-43.0","p898823","ASCS0QEE54PUI","3RZS0FBRWLGDTA9TUPH81F59AWHPC0","3PWWM24LHU4ICKG41HVSS0WMS7Z82C","emotion","mismatch","uniform","","","","","","","7954","789704","797658","[""stimuli/BF08_AO.jpg"",""stimuli/HM02_HO.jpg"",""stimuli/AF10_FO.jpg"",""stimuli/AF11_SUR.jpg""]","stimuli/BF08_AO.jpg","stimuli/HM02_HO.jpg","stimuli/AF10_FO.jpg","stimuli/AF11_SUR.jpg","pos2","stimuli/HM02_HO.jpg","HO","HM02","1","4.5","9","8","stimuli/stars_9.png","46","[""AO"",""HO"",""FO"",""SUR""]","[""BF08"",""HM02"",""AF10"",""AF11""]","[5,9,6,3]","[4,8,6,2]","","",""
"show-reward","44","795524","0.0-44.0","p898823","ASCS0QEE54PUI","3RZS0FBRWLGDTA9TUPH81F59AWHPC0","3PWWM24LHU4ICKG41HVSS0WMS7Z82C","emotion","mismatch","uniform","","","","","","","","798167","800179","","","","","","","","","","","","9","","stimuli/stars_9.png","46","","","","","stimuli/HM02_HO.jpg","",""
"explore-choice","45","796148","0.0-45.0","p898823","ASCS0QEE54PUI","3RZS0FBRWLGDTA9TUPH81F59AWHPC0","3PWWM24LHU4ICKG41HVSS0WMS7Z82C","emotion","mismatch","uniform","","","","","","","121","800179","800300","[""stimuli/AF10_AO.jpg"",""stimuli/BF08_SUR.jpg"",""stimuli/AF11_FO.jpg"",""stimuli/HM02_HO.jpg""]","stimuli/AF10_AO.jpg","stimuli/BF08_SUR.jpg","stimuli/AF11_FO.jpg","stimuli/HM02_HO.jpg","pos2","stimuli/BF08_SUR.jpg","SUR","BF08","1","0.5","1","2","stimuli/stars_1.png","46.5","[""AO"",""SUR"",""FO"",""HO""]","[""AF10"",""BF08"",""AF11"",""HM02""]","[2,1,6,9]","[4,2,6,8]","","",""
"show-reward","46","798163","0.0-46.0","p898823","ASCS0QEE54PUI","3RZS0FBRWLGDTA9TUPH81F59AWHPC0","3PWWM24LHU4ICKG41HVSS0WMS7Z82C","emotion","mismatch","uniform","","","","","","","","800804","802818","","","","","","","","","","","","1","","stimuli/stars_1.png","46.5","","","","","stimuli/BF08_SUR.jpg","",""
"explore-choice","47","806351","0.0-47.0","p898823","ASCS0QEE54PUI","3RZS0FBRWLGDTA9TUPH81F59AWHPC0","3PWWM24LHU4ICKG41HVSS0WMS7Z82C","emotion","mismatch","uniform","","","","","","","7674","802818","810492","[""stimuli/AF10_FO.jpg"",""stimuli/AF11_HO.jpg"",""stimuli/HM02_AO.jpg"",""stimuli/BF08_SUR.jpg""]","stimuli/AF10_FO.jpg","stimuli/AF11_HO.jpg","stimuli/HM02_AO.jpg","stimuli/BF08_SUR.jpg","pos2","stimuli/AF11_HO.jpg","HO","AF11","1","3.5","7","8","stimuli/stars_7.png","50","[""FO"",""HO"",""AO"",""SUR""]","[""AF10"",""AF11"",""HM02"",""BF08""]","[5,7,2,3]","[6,8,4,2]","","",""
"show-reward","48","808371","0.0-48.0","p898823","ASCS0QEE54PUI","3RZS0FBRWLGDTA9TUPH81F59AWHPC0","3PWWM24LHU4ICKG41HVSS0WMS7Z82C","emotion","mismatch","uniform","","","","","","","","811007","813026","","","","","","","","","","","","7","","stimuli/stars_7.png","50","","","","","stimuli/AF11_HO.jpg","",""
"explore-choice","49","814190","0.0-49.0","p898823","ASCS0QEE54PUI","3RZS0FBRWLGDTA9TUPH81F59AWHPC0","3PWWM24LHU4ICKG41HVSS0WMS7Z82C","emotion","mismatch","uniform","","","","","","","5309","813026","818335","[""stimuli/BF08_SUR.jpg"",""stimuli/HM02_FO.jpg"",""stimuli/AF10_HO.jpg"",""stimuli/AF11_AO.jpg""]","stimuli/BF08_SUR.jpg","stimuli/HM02_FO.jpg","stimuli/AF10_HO.jpg","stimuli/AF11_AO.jpg","pos2","stimuli/HM02_FO.jpg","FO","HM02","1","2.5","5","6","stimuli/stars_5.png","52.5","[""SUR"",""FO"",""HO"",""AO""]","[""BF08"",""HM02"",""AF10"",""AF11""]","[0,5,8,4]","[2,6,8,4]","","",""
"show-reward","50","816200","0.0-50.0","p898823","ASCS0QEE54PUI","3RZS0FBRWLGDTA9TUPH81F59AWHPC0","3PWWM24LHU4ICKG41HVSS0WMS7Z82C","emotion","mismatch","uniform","","","","","","","","818846","820854","","","","","","","","","","","","5","","stimuli/stars_5.png","52.5","","","","","stimuli/HM02_FO.jpg","",""
"explore-choice","51","818988","0.0-51.0","p898823","ASCS0QEE54PUI","3RZS0FBRWLGDTA9TUPH81F59AWHPC0","3PWWM24LHU4ICKG41HVSS0WMS7Z82C","emotion","mismatch","uniform","","","","","","","2279","820855","823134","[""stimuli/BF08_HO.jpg"",""stimuli/HM02_FO.jpg"",""stimuli/AF11_SUR.jpg"",""stimuli/AF10_AO.jpg""]","stimuli/BF08_HO.jpg","stimuli/HM02_FO.jpg","stimuli/AF11_SUR.jpg","stimuli/AF10_AO.jpg","pos2","stimuli/HM02_FO.jpg","FO","HM02","1","2.5","5","6","stimuli/stars_5.png","55","[""HO"",""FO"",""SUR"",""AO""]","[""BF08"",""HM02"",""AF11"",""AF10""]","[9,5,2,2]","[8,6,2,4]","","",""
"show-reward","52","820996","0.0-52.0","p898823","ASCS0QEE54PUI","3RZS0FBRWLGDTA9TUPH81F59AWHPC0","3PWWM24LHU4ICKG41HVSS0WMS7Z82C","emotion","mismatch","uniform","","","","","","","","823644","825650","","","","","","","","","","","","5","","stimuli/stars_5.png","55","","","","","stimuli/HM02_FO.jpg","",""
"explore-choice","53","824111","0.0-53.0","p898823","ASCS0QEE54PUI","3RZS0FBRWLGDTA9TUPH81F59AWHPC0","3PWWM24LHU4ICKG41HVSS0WMS7Z82C","emotion","mismatch","uniform","","","","","","","2597","825653","828250","[""stimuli/AF10_SUR.jpg"",""stimuli/AF11_HO.jpg"",""stimuli/BF08_FO.jpg"",""stimuli/HM02_AO.jpg""]","stimuli/AF10_SUR.jpg","stimuli/AF11_HO.jpg","stimuli/BF08_FO.jpg","stimuli/HM02_AO.jpg","pos2","stimuli/AF11_HO.jpg","HO","AF11","1","4","8","8","stimuli/stars_8.png","59","[""SUR"",""HO"",""FO"",""AO""]","[""AF10"",""AF11"",""BF08"",""HM02""]","[4,8,5,6]","[2,8,6,4]","","",""
"show-reward","54","826124","0.0-54.0","p898823","ASCS0QEE54PUI","3RZS0FBRWLGDTA9TUPH81F59AWHPC0","3PWWM24LHU4ICKG41HVSS0WMS7Z82C","emotion","mismatch","uniform","","","","","","","","828767","830778","","","","","","","","","","","","8","","stimuli/stars_8.png","59","","","","","stimuli/AF11_HO.jpg","",""
"explore-choice","55","829277","0.0-55.0","p898823","ASCS0QEE54PUI","3RZS0FBRWLGDTA9TUPH81F59AWHPC0","3PWWM24LHU4ICKG41HVSS0WMS7Z82C","emotion","mismatch","uniform","","","","","","","2646","830781","833427","[""stimuli/AF10_HO.jpg"",""stimuli/HM02_FO.jpg"",""stimuli/AF11_SUR.jpg"",""stimuli/BF08_AO.jpg""]","stimuli/AF10_HO.jpg","stimuli/HM02_FO.jpg","stimuli/AF11_SUR.jpg","stimuli/BF08_AO.jpg","pos2","stimuli/HM02_FO.jpg","FO","HM02","1","2.5","5","6","stimuli/stars_5.png","61.5","[""HO"",""FO"",""SUR"",""AO""]","[""AF10"",""HM02"",""AF11"",""BF08""]","[9,5,3,4]","[8,6,2,4]","","",""
"show-reward","56","831297","0.0-56.0","p898823","ASCS0QEE54PUI","3RZS0FBRWLGDTA9TUPH81F59AWHPC0","3PWWM24LHU4ICKG41HVSS0WMS7Z82C","emotion","mismatch","uniform","","","","","","","","833932","835953","","","","","","","","","","","","5","","stimuli/stars_5.png","61.5","","","","","stimuli/HM02_FO.jpg","",""
"explore-choice","57","835503","0.0-57.0","p898823","ASCS0QEE54PUI","3RZS0FBRWLGDTA9TUPH81F59AWHPC0","3PWWM24LHU4ICKG41HVSS0WMS7Z82C","emotion","mismatch","uniform","","","","","","","3696","835954","839650","[""stimuli/AF10_HO.jpg"",""stimuli/HM02_SUR.jpg"",""stimuli/AF11_FO.jpg"",""stimuli/BF08_AO.jpg""]","stimuli/AF10_HO.jpg","stimuli/HM02_SUR.jpg","stimuli/AF11_FO.jpg","stimuli/BF08_AO.jpg","pos2","stimuli/HM02_SUR.jpg","SUR","HM02","1","0","0","2","stimuli/stars_0.png","61.5","[""HO"",""SUR"",""FO"",""AO""]","[""AF10"",""HM02"",""AF11"",""BF08""]","[6,0,7,6]","[8,2,6,4]","","",""
"show-reward","58","837515","0.0-58.0","p898823","ASCS0QEE54PUI","3RZS0FBRWLGDTA9TUPH81F59AWHPC0","3PWWM24LHU4ICKG41HVSS0WMS7Z82C","emotion","mismatch","uniform","","","","","","","","840159","842170","","","","","","","","","","","","0","","stimuli/stars_0.png","61.5","","","","","stimuli/HM02_SUR.jpg","",""
"explore-choice","59","840398","0.0-59.0","p898823","ASCS0QEE54PUI","3RZS0FBRWLGDTA9TUPH81F59AWHPC0","3PWWM24LHU4ICKG41HVSS0WMS7Z82C","emotion","mismatch","uniform","","","","","","","2365","842172","844537","[""stimuli/BF08_FO.jpg"",""stimuli/HM02_SUR.jpg"",""stimuli/AF10_HO.jpg"",""stimuli/AF11_AO.jpg""]","stimuli/BF08_FO.jpg","stimuli/HM02_SUR.jpg","stimuli/AF10_HO.jpg","stimuli/AF11_AO.jpg","pos1","stimuli/BF08_FO.jpg","FO","BF08","0","3.5","7","6","stimuli/stars_7.png","65","[""FO"",""SUR"",""HO"",""AO""]","[""BF08"",""HM02"",""AF10"",""AF11""]","[7,3,7,4]","[6,2,8,4]","","",""
"show-reward","60","842414","0.0-60.0","p898823","ASCS0QEE54PUI","3RZS0FBRWLGDTA9TUPH81F59AWHPC0","3PWWM24LHU4ICKG41HVSS0WMS7Z82C","emotion","mismatch","uniform","","","","","","","","845053","847069","","","","","","","","","","","","7","","stimuli/stars_7.png","65","","","","","stimuli/BF08_FO.jpg","",""
"explore-choice","61","845476","0.0-61.0","p898823","ASCS0QEE54PUI","3RZS0FBRWLGDTA9TUPH81F59AWHPC0","3PWWM24LHU4ICKG41HVSS0WMS7Z82C","emotion","mismatch","uniform","","","","","","","2549","847070","849619","[""stimuli/AF10_AO.jpg"",""stimuli/AF11_SUR.jpg"",""stimuli/HM02_HO.jpg"",""stimuli/BF08_FO.jpg""]","stimuli/AF10_AO.jpg","stimuli/AF11_SUR.jpg","stimuli/HM02_HO.jpg","stimuli/BF08_FO.jpg","pos1","stimuli/AF10_AO.jpg","AO","AF10","0","1","2","4","stimuli/stars_2.png","66","[""AO"",""SUR"",""HO"",""FO""]","[""AF10"",""AF11"",""HM02"",""BF08""]","[2,1,8,8]","[4,2,8,6]","","",""
"show-reward","62","847491","0.0-62.0","p898823","ASCS0QEE54PUI","3RZS0FBRWLGDTA9TUPH81F59AWHPC0","3PWWM24LHU4ICKG41HVSS0WMS7Z82C","emotion","mismatch","uniform","","","","","","","","850131","852145","","","","","","","","","","","","2","","stimuli/stars_2.png","66","","","","","stimuli/AF10_AO.jpg","",""
"explore-choice","63","848572","0.0-63.0","p898823","ASCS0QEE54PUI","3RZS0FBRWLGDTA9TUPH81F59AWHPC0","3PWWM24LHU4ICKG41HVSS0WMS7Z82C","emotion","mismatch","uniform","","","","","","","578","852147","852725","[""stimuli/HM02_HO.jpg"",""stimuli/BF08_SUR.jpg"",""stimuli/AF10_FO.jpg"",""stimuli/AF11_AO.jpg""]","stimuli/HM02_HO.jpg","stimuli/BF08_SUR.jpg","stimuli/AF10_FO.jpg","stimuli/AF11_AO.jpg","pos1","stimuli/HM02_HO.jpg","HO","HM02","0","4.5","9","8","stimuli/stars_9.png","70.5","[""HO"",""SUR"",""FO"",""AO""]","[""HM02"",""BF08"",""AF10"",""AF11""]","[9,0,8,2]","[8,2,6,4]","","",""
"show-reward","64","850578","0.0-64.0","p898823","ASCS0QEE54PUI","3RZS0FBRWLGDTA9TUPH81F59AWHPC0","3PWWM24LHU4ICKG41HVSS0WMS7Z82C","emotion","mismatch","uniform","","","","","","","","853227","855232","","","","","","","","","","","","9","","stimuli/stars_9.png","70.5","","","","","stimuli/HM02_HO.jpg","",""
"explore-choice","65","853531","0.0-65.0","p898823","ASCS0QEE54PUI","3RZS0FBRWLGDTA9TUPH81F59AWHPC0","3PWWM24LHU4ICKG41HVSS0WMS7Z82C","emotion","mismatch","uniform","","","","","","","2445","855234","857679","[""stimuli/AF10_FO.jpg"",""stimuli/BF08_SUR.jpg"",""stimuli/HM02_AO.jpg"",""stimuli/AF11_HO.jpg""]","stimuli/AF10_FO.jpg","stimuli/BF08_SUR.jpg","stimuli/HM02_AO.jpg","stimuli/AF11_HO.jpg","pos2","stimuli/BF08_SUR.jpg","SUR","BF08","1","1.5","3","2","stimuli/stars_3.png","72","[""FO"",""SUR"",""AO"",""HO""]","[""AF10"",""BF08"",""HM02"",""AF11""]","[5,3,2,7]","[6,2,4,8]","","",""
"show-reward","66","855544","0.0-66.0","p898823","ASCS0QEE54PUI","3RZS0FBRWLGDTA9TUPH81F59AWHPC0","3PWWM24LHU4ICKG41HVSS0WMS7Z82C","emotion","mismatch","uniform","","","","","","","","858186","860198","","","","","","","","","","","","3","","stimuli/stars_3.png","72","","","","","stimuli/BF08_SUR.jpg","",""
"explore-choice","67","859207","0.0-67.0","p898823","ASCS0QEE54PUI","3RZS0FBRWLGDTA9TUPH81F59AWHPC0","3PWWM24LHU4ICKG41HVSS0WMS7Z82C","emotion","mismatch","uniform","","","","","","","3160","860199","863359","[""stimuli/AF11_AO.jpg"",""stimuli/HM02_SUR.jpg"",""stimuli/BF08_HO.jpg"",""stimuli/AF10_FO.jpg""]","stimuli/AF11_AO.jpg","stimuli/HM02_SUR.jpg","stimuli/BF08_HO.jpg","stimuli/AF10_FO.jpg","pos2","stimuli/HM02_SUR.jpg","SUR","HM02","1","0.5","1","2","stimuli/stars_1.png","72.5","[""AO"",""SUR"",""HO"",""FO""]","[""AF11"",""HM02"",""BF08"",""AF10""]","[6,1,9,5]","[4,2,8,6]","","",""
"show-reward","68","861212","0.0-68.0","p898823","ASCS0QEE54PUI","3RZS0FBRWLGDTA9TUPH81F59AWHPC0","3PWWM24LHU4ICKG41HVSS0WMS7Z82C","emotion","mismatch","uniform","","","","","","","","863862","865866","","","","","","","","","","","","1","","stimuli/stars_1.png","72.5","","","","","stimuli/HM02_SUR.jpg","",""
"explore-choice","69","869164","0.0-69.0","p898823","ASCS0QEE54PUI","3RZS0FBRWLGDTA9TUPH81F59AWHPC0","3PWWM24LHU4ICKG41HVSS0WMS7Z82C","emotion","mismatch","uniform","","","","","","","7437","865867","873304","[""stimuli/HM02_AO.jpg"",""stimuli/AF10_HO.jpg"",""stimuli/BF08_FO.jpg"",""stimuli/AF11_SUR.jpg""]","stimuli/HM02_AO.jpg","stimuli/AF10_HO.jpg","stimuli/BF08_FO.jpg","stimuli/AF11_SUR.jpg","pos2","stimuli/AF10_HO.jpg","HO","AF10","1","5","10","8","stimuli/stars_10.png","77.5","[""AO"",""HO"",""FO"",""SUR""]","[""HM02"",""AF10"",""BF08"",""AF11""]","[5,10,6,0]","[4,8,6,2]","","",""
"show-reward","70","871176","0.0-70.0","p898823","ASCS0QEE54PUI","3RZS0FBRWLGDTA9TUPH81F59AWHPC0","3PWWM24LHU4ICKG41HVSS0WMS7Z82C","emotion","mismatch","uniform","","","","","","","","873820","875831","","","","","","","","","","","","10","","stimuli/stars_10.png","77.5","","","","","stimuli/AF10_HO.jpg","",""
"explore-choice","71","874044","0.0-71.0","p898823","ASCS0QEE54PUI","3RZS0FBRWLGDTA9TUPH81F59AWHPC0","3PWWM24LHU4ICKG41HVSS0WMS7Z82C","emotion","mismatch","uniform","","","","","","","2362","875833","878195","[""stimuli/BF08_HO.jpg"",""stimuli/AF11_FO.jpg"",""stimuli/AF10_AO.jpg"",""stimuli/HM02_SUR.jpg""]","stimuli/BF08_HO.jpg","stimuli/AF11_FO.jpg","stimuli/AF10_AO.jpg","stimuli/HM02_SUR.jpg","pos2","stimuli/AF11_FO.jpg","FO","AF11","1","3.5","7","6","stimuli/stars_7.png","81","[""HO"",""FO"",""AO"",""SUR""]","[""BF08"",""AF11"",""AF10"",""HM02""]","[6,7,4,2]","[8,6,4,2]","","",""
"show-reward","72","876062","0.0-72.0","p898823","ASCS0QEE54PUI","3RZS0FBRWLGDTA9TUPH81F59AWHPC0","3PWWM24LHU4ICKG41HVSS0WMS7Z82C","emotion","mismatch","uniform","","","","","","","","878700","880716","","","","","","","","","","","","7","","stimuli/stars_7.png","81","","","","","stimuli/AF11_FO.jpg","",""
"explore-choice","73","880071","0.0-73.0","p898823","ASCS0QEE54PUI","3RZS0FBRWLGDTA9TUPH81F59AWHPC0","3PWWM24LHU4ICKG41HVSS0WMS7Z82C","emotion","mismatch","uniform","","","","","","","3504","880717","884221","[""stimuli/AF10_SUR.jpg"",""stimuli/AF11_HO.jpg"",""stimuli/HM02_AO.jpg"",""stimuli/BF08_FO.jpg""]","stimuli/AF10_SUR.jpg","stimuli/AF11_HO.jpg","stimuli/HM02_AO.jpg","stimuli/BF08_FO.jpg","pos2","stimuli/AF11_HO.jpg","HO","AF11","1","4","8","8","stimuli/stars_8.png","85","[""SUR"",""HO"",""AO"",""FO""]","[""AF10"",""AF11"",""HM02"",""BF08""]","[4,8,6,5]","[2,8,4,6]","","",""
"show-reward","74","882092","0.0-74.0","p898823","ASCS0QEE54PUI","3RZS0FBRWLGDTA9TUPH81F59AWHPC0","3PWWM24LHU4ICKG41HVSS0WMS7Z82C","emotion","mismatch","uniform","","","","","","","","884728","886746","","","","","","","","","","","","8","","stimuli/stars_8.png","85","","","","","stimuli/AF11_HO.jpg","",""
"explore-choice","75","883643","0.0-75.0","p898823","ASCS0QEE54PUI","3RZS0FBRWLGDTA9TUPH81F59AWHPC0","3PWWM24LHU4ICKG41HVSS0WMS7Z82C","emotion","mismatch","uniform","","","","","","","1044","886747","887791","[""stimuli/HM02_FO.jpg"",""stimuli/AF10_SUR.jpg"",""stimuli/BF08_AO.jpg"",""stimuli/AF11_HO.jpg""]","stimuli/HM02_FO.jpg","stimuli/AF10_SUR.jpg","stimuli/BF08_AO.jpg","stimuli/AF11_HO.jpg","pos2","stimuli/AF10_SUR.jpg","SUR","AF10","1","0","0","2","stimuli/stars_0.png","85","[""FO"",""SUR"",""AO"",""HO""]","[""HM02"",""AF10"",""BF08"",""AF11""]","[5,0,4,10]","[6,2,4,8]","","",""
"show-reward","76","885657","0.0-76.0","p898823","ASCS0QEE54PUI","3RZS0FBRWLGDTA9TUPH81F59AWHPC0","3PWWM24LHU4ICKG41HVSS0WMS7Z82C","emotion","mismatch","uniform","","","","","","","","888299","890311","","","","","","","","","","","","0","","stimuli/stars_0.png","85","","","","","stimuli/AF10_SUR.jpg","",""
"explore-choice","77","887903","0.0-77.0","p898823","ASCS0QEE54PUI","3RZS0FBRWLGDTA9TUPH81F59AWHPC0","3PWWM24LHU4ICKG41HVSS0WMS7Z82C","emotion","mismatch","uniform","","","","","","","1744","890312","892056","[""stimuli/HM02_FO.jpg"",""stimuli/BF08_HO.jpg"",""stimuli/AF11_SUR.jpg"",""stimuli/AF10_AO.jpg""]","stimuli/HM02_FO.jpg","stimuli/BF08_HO.jpg","stimuli/AF11_SUR.jpg","stimuli/AF10_AO.jpg","pos2","stimuli/BF08_HO.jpg","HO","BF08","1","4.5","9","8","stimuli/stars_9.png","89.5","[""FO"",""HO"",""SUR"",""AO""]","[""HM02"",""BF08"",""AF11"",""AF10""]","[5,9,2,2]","[6,8,2,4]","","",""
"show-reward","78","889921","0.0-78.0","p898823","ASCS0QEE54PUI","3RZS0FBRWLGDTA9TUPH81F59AWHPC0","3PWWM24LHU4ICKG41HVSS0WMS7Z82C","emotion","mismatch","uniform","","","","","","","","892559","894576","","","","","","","","","","","","9","","stimuli/stars_9.png","89.5","","","","","stimuli/BF08_HO.jpg","",""
"explore-choice","79","898286","0.0-79.0","p898823","ASCS0QEE54PUI","3RZS0FBRWLGDTA9TUPH81F59AWHPC0","3PWWM24LHU4ICKG41HVSS0WMS7Z82C","emotion","mismatch","uniform","","","","","","","7863","894577","902440","[""stimuli/HM02_SUR.jpg"",""stimuli/AF10_AO.jpg"",""stimuli/AF11_HO.jpg"",""stimuli/BF08_FO.jpg""]","stimuli/HM02_SUR.jpg","stimuli/AF10_AO.jpg","stimuli/AF11_HO.jpg","stimuli/BF08_FO.jpg","pos2","stimuli/AF10_AO.jpg","AO","AF10","1","2.5","5","4","stimuli/stars_5.png","92","[""SUR"",""AO"",""HO"",""FO""]","[""HM02"",""AF10"",""AF11"",""BF08""]","[3,5,8,4]","[2,4,8,6]","","",""
"show-reward","80","900293","0.0-80.0","p898823","ASCS0QEE54PUI","3RZS0FBRWLGDTA9TUPH81F59AWHPC0","3PWWM24LHU4ICKG41HVSS0WMS7Z82C","emotion","mismatch","uniform","","","","","","","","902943","904947","","","","","","","","","","","","5","","stimuli/stars_5.png","92","","","","","stimuli/AF10_AO.jpg","",""
"explore-choice","81","901195","0.0-81.0","p898823","ASCS0QEE54PUI","3RZS0FBRWLGDTA9TUPH81F59AWHPC0","3PWWM24LHU4ICKG41HVSS0WMS7Z82C","emotion","mismatch","uniform","","","","","","","382","904949","905331","[""stimuli/HM02_HO.jpg"",""stimuli/BF08_AO.jpg"",""stimuli/AF10_FO.jpg"",""stimuli/AF11_SUR.jpg""]","stimuli/HM02_HO.jpg","stimuli/BF08_AO.jpg","stimuli/AF10_FO.jpg","stimuli/AF11_SUR.jpg","pos1","stimuli/HM02_HO.jpg","HO","HM02","0","4.5","9","8","stimuli/stars_9.png","96.5","[""HO"",""AO"",""FO"",""SUR""]","[""HM02"",""BF08"",""AF10"",""AF11""]","[9,5,6,3]","[8,4,6,2]","","",""
"show-reward","82","903206","0.0-82.0","p898823","ASCS0QEE54PUI","3RZS0FBRWLGDTA9TUPH81F59AWHPC0","3PWWM24LHU4ICKG41HVSS0WMS7Z82C","emotion","mismatch","uniform","","","","","","","","905851","907861","","","","","","","","","","","","9","","stimuli/stars_9.png","96.5","","","","","stimuli/HM02_HO.jpg","",""
"explore-choice","83","904067","0.0-83.0","p898823","ASCS0QEE54PUI","3RZS0FBRWLGDTA9TUPH81F59AWHPC0","3PWWM24LHU4ICKG41HVSS0WMS7Z82C","emotion","mismatch","uniform","","","","","","","359","907862","908221","[""stimuli/AF11_HO.jpg"",""stimuli/BF08_SUR.jpg"",""stimuli/HM02_FO.jpg"",""stimuli/AF10_AO.jpg""]","stimuli/AF11_HO.jpg","stimuli/BF08_SUR.jpg","stimuli/HM02_FO.jpg","stimuli/AF10_AO.jpg","pos2","stimuli/BF08_SUR.jpg","SUR","BF08","1","0.5","1","2","stimuli/stars_1.png","97","[""HO"",""SUR"",""FO"",""AO""]","[""AF11"",""BF08"",""HM02"",""AF10""]","[7,1,5,5]","[8,2,6,4]","","",""
"show-reward","84","906091","0.0-84.0","p898823","ASCS0QEE54PUI","3RZS0FBRWLGDTA9TUPH81F59AWHPC0","3PWWM24LHU4ICKG41HVSS0WMS7Z82C","emotion","mismatch","uniform","","","","","","","","908724","910746","","","","","","","","","","","","1","","stimuli/stars_1.png","97","","","","","stimuli/BF08_SUR.jpg","",""
"explore-choice","85","909217","0.0-85.0","p898823","ASCS0QEE54PUI","3RZS0FBRWLGDTA9TUPH81F59AWHPC0","3PWWM24LHU4ICKG41HVSS0WMS7Z82C","emotion","mismatch","uniform","","","","","","","2620","910747","913367","[""stimuli/HM02_HO.jpg"",""stimuli/AF11_AO.jpg"",""stimuli/AF10_SUR.jpg"",""stimuli/BF08_FO.jpg""]","stimuli/HM02_HO.jpg","stimuli/AF11_AO.jpg","stimuli/AF10_SUR.jpg","stimuli/BF08_FO.jpg","pos2","stimuli/AF11_AO.jpg","AO","AF11","1","3","6","4","stimuli/stars_6.png","100","[""HO"",""AO"",""SUR"",""FO""]","[""HM02"",""AF11"",""AF10"",""BF08""]","[6,6,4,4]","[8,4,2,6]","","",""
"show-reward","86","911240","0.0-86.0","p898823","ASCS0QEE54PUI","3RZS0FBRWLGDTA9TUPH81F59AWHPC0","3PWWM24LHU4ICKG41HVSS0WMS7Z82C","emotion","mismatch","uniform","","","","","","","","913873","915896","","","","","","","","","","","","6","","stimuli/stars_6.png","100","","","","","stimuli/AF11_AO.jpg","",""
"explore-choice","87","912169","0.0-87.0","p898823","ASCS0QEE54PUI","3RZS0FBRWLGDTA9TUPH81F59AWHPC0","3PWWM24LHU4ICKG41HVSS0WMS7Z82C","emotion","mismatch","uniform","","","","","","","419","915898","916317","[""stimuli/AF11_SUR.jpg"",""stimuli/AF10_FO.jpg"",""stimuli/HM02_AO.jpg"",""stimuli/BF08_HO.jpg""]","stimuli/AF11_SUR.jpg","stimuli/AF10_FO.jpg","stimuli/HM02_AO.jpg","stimuli/BF08_HO.jpg","pos2","stimuli/AF10_FO.jpg","FO","AF10","1","3","6","6","stimuli/stars_6.png","103","[""SUR"",""FO"",""AO"",""HO""]","[""AF11"",""AF10"",""HM02"",""BF08""]","[1,6,4,7]","[2,6,4,8]","","",""
"show-reward","88","914193","0.0-88.0","p898823","ASCS0QEE54PUI","3RZS0FBRWLGDTA9TUPH81F59AWHPC0","3PWWM24LHU4ICKG41HVSS0WMS7Z82C","emotion","mismatch","uniform","","","","","","","","916825","918846","","","","","","","","","","","","6","","stimuli/stars_6.png","103","","","","","stimuli/AF10_FO.jpg","",""
"explore-choice","89","915396","0.0-89.0","p898823","ASCS0QEE54PUI","3RZS0FBRWLGDTA9TUPH81F59AWHPC0","3PWWM24LHU4ICKG41HVSS0WMS7Z82C","emotion","mismatch","uniform","","","","","","","697","918849","919546","[""stimuli/AF11_FO.jpg"",""stimuli/HM02_HO.jpg"",""stimuli/AF10_SUR.jpg"",""stimuli/BF08_AO.jpg""]","stimuli/AF11_FO.jpg","stimuli/HM02_HO.jpg","stimuli/AF10_SUR.jpg","stimuli/BF08_AO.jpg","pos2","stimuli/HM02_HO.jpg","HO","HM02","1","3.5","7","8","stimuli/stars_7.png","106.5","[""FO"",""HO"",""SUR"",""AO""]","[""AF11"",""HM02"",""AF10"",""BF08""]","[6,7,1,3]","[6,8,2,4]","","",""
"show-reward","90","917402","0.0-90.0","p898823","ASCS0QEE54PUI","3RZS0FBRWLGDTA9TUPH81F59AWHPC0","3PWWM24LHU4ICKG41HVSS0WMS7Z82C","emotion","mismatch","uniform","","","","","","","","920052","922057","","","","","","","","","","","","7","","stimuli/stars_7.png","106.5","","","","","stimuli/HM02_HO.jpg","",""
"explore-choice","91","922950","0.0-91.0","p898823","ASCS0QEE54PUI","3RZS0FBRWLGDTA9TUPH81F59AWHPC0","3PWWM24LHU4ICKG41HVSS0WMS7Z82C","emotion","mismatch","uniform","","","","","","","5035","922059","927094","[""stimuli/AF10_HO.jpg"",""stimuli/BF08_SUR.jpg"",""stimuli/AF11_AO.jpg"",""stimuli/HM02_FO.jpg""]","stimuli/AF10_HO.jpg","stimuli/BF08_SUR.jpg","stimuli/AF11_AO.jpg","stimuli/HM02_FO.jpg","pos2","stimuli/BF08_SUR.jpg","SUR","BF08","1","0","0","2","stimuli/stars_0.png","106.5","[""HO"",""SUR"",""AO"",""FO""]","[""AF10"",""BF08"",""AF11"",""HM02""]","[8,0,4,5]","[8,2,4,6]","","",""
"show-reward","92","924959","0.0-92.0","p898823","ASCS0QEE54PUI","3RZS0FBRWLGDTA9TUPH81F59AWHPC0","3PWWM24LHU4ICKG41HVSS0WMS7Z82C","emotion","mismatch","uniform","","","","","","","","927607","929614","","","","","","","","","","","","0","","stimuli/stars_0.png","106.5","","","","","stimuli/BF08_SUR.jpg","",""
"explore-choice","93","930015","0.0-93.0","p898823","ASCS0QEE54PUI","3RZS0FBRWLGDTA9TUPH81F59AWHPC0","3PWWM24LHU4ICKG41HVSS0WMS7Z82C","emotion","mismatch","uniform","","","","","","","4542","929615","934157","[""stimuli/HM02_AO.jpg"",""stimuli/AF11_FO.jpg"",""stimuli/BF08_SUR.jpg"",""stimuli/AF10_HO.jpg""]","stimuli/HM02_AO.jpg","stimuli/AF11_FO.jpg","stimuli/BF08_SUR.jpg","stimuli/AF10_HO.jpg","pos2","stimuli/AF11_FO.jpg","FO","AF11","1","4","8","6","stimuli/stars_8.png","110.5","[""AO"",""FO"",""SUR"",""HO""]","[""HM02"",""AF11"",""BF08"",""AF10""]","[6,8,4,9]","[4,6,2,8]","","",""
"show-reward","94","932023","0.0-94.0","p898823","ASCS0QEE54PUI","3RZS0FBRWLGDTA9TUPH81F59AWHPC0","3PWWM24LHU4ICKG41HVSS0WMS7Z82C","emotion","mismatch","uniform","","","","","","","","934671","936678","","","","","","","","","","","","8","","stimuli/stars_8.png","110.5","","","","","stimuli/AF11_FO.jpg","",""
"explore-choice","95","938506","0.0-95.0","p898823","ASCS0QEE54PUI","3RZS0FBRWLGDTA9TUPH81F59AWHPC0","3PWWM24LHU4ICKG41HVSS0WMS7Z82C","emotion","mismatch","uniform","","","","","","","5973","936679","942652","[""stimuli/BF08_AO.jpg"",""stimuli/AF10_FO.jpg"",""stimuli/HM02_SUR.jpg"",""stimuli/AF11_HO.jpg""]","stimuli/BF08_AO.jpg","stimuli/AF10_FO.jpg","stimuli/HM02_SUR.jpg","stimuli/AF11_HO.jpg","pos2","stimuli/AF10_FO.jpg","FO","AF10","1","2","4","6","stimuli/stars_4.png","112.5","[""AO"",""FO"",""SUR"",""HO""]","[""BF08"",""AF10"",""HM02"",""AF11""]","[5,4,1,7]","[4,6,2,8]","","",""
"show-reward","96","940514","0.0-96.0","p898823","ASCS0QEE54PUI","3RZS0FBRWLGDTA9TUPH81F59AWHPC0","3PWWM24LHU4ICKG41HVSS0WMS7Z82C","emotion","mismatch","uniform","","","","","","","","943163","945168","","","","","","","","","","","","4","","stimuli/stars_4.png","112.5","","","","","stimuli/AF10_FO.jpg","",""
"explore-choice","97","948584","0.0-97.0","p898823","ASCS0QEE54PUI","3RZS0FBRWLGDTA9TUPH81F59AWHPC0","3PWWM24LHU4ICKG41HVSS0WMS7Z82C","emotion","mismatch","uniform","","","","","","","7563","945170","952733","[""stimuli/HM02_FO.jpg"",""stimuli/AF11_AO.jpg"",""stimuli/BF08_HO.jpg"",""stimuli/AF10_SUR.jpg""]","stimuli/HM02_FO.jpg","stimuli/AF11_AO.jpg","stimuli/BF08_HO.jpg","stimuli/AF10_SUR.jpg","pos2","stimuli/AF11_AO.jpg","AO","AF11","1","1.5","3","4","stimuli/stars_3.png","114","[""FO"",""AO"",""HO"",""SUR""]","[""HM02"",""AF11"",""BF08"",""AF10""]","[5,3,6,3]","[6,4,8,2]","","",""
"show-reward","98","950603","0.0-98.0","p898823","ASCS0QEE54PUI","3RZS0FBRWLGDTA9TUPH81F59AWHPC0","3PWWM24LHU4ICKG41HVSS0WMS7Z82C","emotion","mismatch","uniform","","","","","","","","953240","955258","","","","","","","","","","","","3","","stimuli/stars_3.png","114","","","","","stimuli/AF11_AO.jpg","",""
"explore-choice","99","953888","0.0-99.0","p898823","ASCS0QEE54PUI","3RZS0FBRWLGDTA9TUPH81F59AWHPC0","3PWWM24LHU4ICKG41HVSS0WMS7Z82C","emotion","mismatch","uniform","","","","","","","2781","955259","958040","[""stimuli/BF08_SUR.jpg"",""stimuli/AF11_FO.jpg"",""stimuli/AF10_AO.jpg"",""stimuli/HM02_HO.jpg""]","stimuli/BF08_SUR.jpg","stimuli/AF11_FO.jpg","stimuli/AF10_AO.jpg","stimuli/HM02_HO.jpg","pos2","stimuli/AF11_FO.jpg","FO","AF11","1","3","6","6","stimuli/stars_6.png","117","[""SUR"",""FO"",""AO"",""HO""]","[""BF08"",""AF11"",""AF10"",""HM02""]","[1,6,2,9]","[2,6,4,8]","","",""
"show-reward","100","955902","0.0-100.0","p898823","ASCS0QEE54PUI","3RZS0FBRWLGDTA9TUPH81F59AWHPC0","3PWWM24LHU4ICKG41HVSS0WMS7Z82C","emotion","mismatch","uniform","","","","","","","","958544","960557","","","","","","","","","","","","6","","stimuli/stars_6.png","117","","","","","stimuli/AF11_FO.jpg","",""
"explore-choice","101","958444","0.0-101.0","p898823","ASCS0QEE54PUI","3RZS0FBRWLGDTA9TUPH81F59AWHPC0","3PWWM24LHU4ICKG41HVSS0WMS7Z82C","emotion","mismatch","uniform","","","","","","","2010","960559","962569","[""stimuli/AF10_SUR.jpg"",""stimuli/BF08_HO.jpg"",""stimuli/AF11_FO.jpg"",""stimuli/HM02_AO.jpg""]","stimuli/AF10_SUR.jpg","stimuli/BF08_HO.jpg","stimuli/AF11_FO.jpg","stimuli/HM02_AO.jpg","pos2","stimuli/BF08_HO.jpg","HO","BF08","1","3.5","7","8","stimuli/stars_7.png","120.5","[""SUR"",""HO"",""FO"",""AO""]","[""AF10"",""BF08"",""AF11"",""HM02""]","[1,7,7,2]","[2,8,6,4]","","",""
"show-reward","102","960454","0.0-102.0","p898823","ASCS0QEE54PUI","3RZS0FBRWLGDTA9TUPH81F59AWHPC0","3PWWM24LHU4ICKG41HVSS0WMS7Z82C","emotion","mismatch","uniform","","","","","","","","963100","965108","","","","","","","","","","","","7","","stimuli/stars_7.png","120.5","","","","","stimuli/BF08_HO.jpg","",""
"explore-choice","103","968352","0.0-103.0","p898823","ASCS0QEE54PUI","3RZS0FBRWLGDTA9TUPH81F59AWHPC0","3PWWM24LHU4ICKG41HVSS0WMS7Z82C","emotion","mismatch","uniform","","","","","","","7388","965109","972497","[""stimuli/AM03_DO.jpg"",""stimuli/AM09_SC.jpg"",""stimuli/BM04_HE.jpg"",""stimuli/WF11_CC.jpg""]","stimuli/AM03_DO.jpg","stimuli/AM09_SC.jpg","stimuli/BM04_HE.jpg","stimuli/WF11_CC.jpg","pos2","stimuli/AM09_SC.jpg","SC","AM09","1","0","0","2","stimuli/stars_0.png","120.5","[""DO"",""SC"",""HE"",""CC""]","[""AM03"",""AM09"",""BM04"",""WF11""]","[8,0,6,2]","[8,2,6,4]","","",""
"show-reward","104","970360","0.0-104.0","p898823","ASCS0QEE54PUI","3RZS0FBRWLGDTA9TUPH81F59AWHPC0","3PWWM24LHU4ICKG41HVSS0WMS7Z82C","emotion","mismatch","uniform","","","","","","","","973008","975015","","","","","","","","","","","","0","","stimuli/stars_0.png","120.5","","","","","stimuli/AM09_SC.jpg","",""
"explore-choice","105","973249","0.0-105.0","p898823","ASCS0QEE54PUI","3RZS0FBRWLGDTA9TUPH81F59AWHPC0","3PWWM24LHU4ICKG41HVSS0WMS7Z82C","emotion","mismatch","uniform","","","","","","","2387","975016","977403","[""stimuli/AM03_DO.jpg"",""stimuli/BM04_CC.jpg"",""stimuli/AM09_HE.jpg"",""stimuli/WF11_SC.jpg""]","stimuli/AM03_DO.jpg","stimuli/BM04_CC.jpg","stimuli/AM09_HE.jpg","stimuli/WF11_SC.jpg","pos2","stimuli/BM04_CC.jpg","CC","BM04","1","3.5","7","6","stimuli/stars_7.png","124","[""DO"",""CC"",""HE"",""SC""]","[""AM03"",""BM04"",""AM09"",""WF11""]","[6,7,1,6]","[8,6,2,4]","","",""
"show-reward","106","975268","0.0-106.0","p898823","ASCS0QEE54PUI","3RZS0FBRWLGDTA9TUPH81F59AWHPC0","3PWWM24LHU4ICKG41HVSS0WMS7Z82C","emotion","mismatch","uniform","","","","","","","","977905","979922","","","","","","","","","","","","7","","stimuli/stars_7.png","124","","","","","stimuli/BM04_CC.jpg","",""
"explore-choice","107","986826","0.0-107.0","p898823","ASCS0QEE54PUI","3RZS0FBRWLGDTA9TUPH81F59AWHPC0","3PWWM24LHU4ICKG41HVSS0WMS7Z82C","emotion","mismatch","uniform","","","","","","","11051","979923","990974","[""stimuli/AM09_HE.jpg"",""stimuli/WF11_CC.jpg"",""stimuli/AM03_DO.jpg"",""stimuli/BM04_SC.jpg""]","stimuli/AM09_HE.jpg","stimuli/WF11_CC.jpg","stimuli/AM03_DO.jpg","stimuli/BM04_SC.jpg","pos2","stimuli/WF11_CC.jpg","CC","WF11","1","2.5","5","4","stimuli/stars_5.png","126.5","[""HE"",""CC"",""DO"",""SC""]","[""AM09"",""WF11"",""AM03"",""BM04""]","[1,5,8,7]","[2,4,8,6]","","",""
"show-reward","108","988850","0.0-108.0","p898823","ASCS0QEE54PUI","3RZS0FBRWLGDTA9TUPH81F59AWHPC0","3PWWM24LHU4ICKG41HVSS0WMS7Z82C","emotion","mismatch","uniform","","","","","","","","991482","993505","","","","","","","","","","","","5","","stimuli/stars_5.png","126.5","","","","","stimuli/WF11_CC.jpg","",""
"explore-choice","109","991268","0.0-109.0","p898823","ASCS0QEE54PUI","3RZS0FBRWLGDTA9TUPH81F59AWHPC0","3PWWM24LHU4ICKG41HVSS0WMS7Z82C","emotion","mismatch","uniform","","","","","","","1903","993506","995409","[""stimuli/AM03_SC.jpg"",""stimuli/WF11_DO.jpg"",""stimuli/BM04_CC.jpg"",""stimuli/AM09_HE.jpg""]","stimuli/AM03_SC.jpg","stimuli/WF11_DO.jpg","stimuli/BM04_CC.jpg","stimuli/AM09_HE.jpg","pos1","stimuli/AM03_SC.jpg","SC","AM03","0","4","8","8","stimuli/stars_8.png","130.5","[""SC"",""DO"",""CC"",""HE""]","[""AM03"",""WF11"",""BM04"",""AM09""]","[8,2,7,2]","[8,4,6,2]","","",""
"show-reward","110","993281","0.0-110.0","p898823","ASCS0QEE54PUI","3RZS0FBRWLGDTA9TUPH81F59AWHPC0","3PWWM24LHU4ICKG41HVSS0WMS7Z82C","emotion","mismatch","uniform","","","","","","","","995924","997935","","","","","","","","","","","","8","","stimuli/stars_8.png","130.5","","","","","stimuli/AM03_SC.jpg","",""
"explore-choice","111","997285","0.0-111.0","p898823","ASCS0QEE54PUI","3RZS0FBRWLGDTA9TUPH81F59AWHPC0","3PWWM24LHU4ICKG41HVSS0WMS7Z82C","emotion","mismatch","uniform","","","","","","","3485","997938","1001423","[""stimuli/AM03_CC.jpg"",""stimuli/BM04_SC.jpg"",""stimuli/WF11_HE.jpg"",""stimuli/AM09_DO.jpg""]","stimuli/AM03_CC.jpg","stimuli/BM04_SC.jpg","stimuli/WF11_HE.jpg","stimuli/AM09_DO.jpg","pos1","stimuli/AM03_CC.jpg","CC","AM03","0","4","8","8","stimuli/stars_8.png","134.5","[""CC"",""SC"",""HE"",""DO""]","[""AM03"",""BM04"",""WF11"",""AM09""]","[8,5,2,2]","[8,6,4,2]","","",""
"show-reward","112","999301","0.0-112.0","p898823","ASCS0QEE54PUI","3RZS0FBRWLGDTA9TUPH81F59AWHPC0","3PWWM24LHU4ICKG41HVSS0WMS7Z82C","emotion","mismatch","uniform","","","","","","","","1001941","1003956","","","","","","","","","","","","8","","stimuli/stars_8.png","134.5","","","","","stimuli/AM03_CC.jpg","",""
"explore-choice","113","1001354","0.0-113.0","p898823","ASCS0QEE54PUI","3RZS0FBRWLGDTA9TUPH81F59AWHPC0","3PWWM24LHU4ICKG41HVSS0WMS7Z82C","emotion","mismatch","uniform","","","","","","","1541","1003957","1005498","[""stimuli/AM09_HE.jpg"",""stimuli/AM03_SC.jpg"",""stimuli/WF11_CC.jpg"",""stimuli/BM04_DO.jpg""]","stimuli/AM09_HE.jpg","stimuli/AM03_SC.jpg","stimuli/WF11_CC.jpg","stimuli/BM04_DO.jpg","pos1","stimuli/AM09_HE.jpg","HE","AM09","0","1","2","2","stimuli/stars_2.png","135.5","[""HE"",""SC"",""CC"",""DO""]","[""AM09"",""AM03"",""WF11"",""BM04""]","[2,9,5,6]","[2,8,4,6]","","",""
"show-reward","114","1003368","0.0-114.0","p898823","ASCS0QEE54PUI","3RZS0FBRWLGDTA9TUPH81F59AWHPC0","3PWWM24LHU4ICKG41HVSS0WMS7Z82C","emotion","mismatch","uniform","","","","","","","","1006010","1008022","","","","","","","","","","","","2","","stimuli/stars_2.png","135.5","","","","","stimuli/AM09_HE.jpg","",""
"explore-choice","115","1005797","0.0-115.0","p898823","ASCS0QEE54PUI","3RZS0FBRWLGDTA9TUPH81F59AWHPC0","3PWWM24LHU4ICKG41HVSS0WMS7Z82C","emotion","mismatch","uniform","","","","","","","1919","1008024","1009943","[""stimuli/BM04_HE.jpg"",""stimuli/AM09_CC.jpg"",""stimuli/AM03_DO.jpg"",""stimuli/WF11_SC.jpg""]","stimuli/BM04_HE.jpg","stimuli/AM09_CC.jpg","stimuli/AM03_DO.jpg","stimuli/WF11_SC.jpg","pos3","stimuli/AM03_DO.jpg","DO","AM03","2","4.5","9","8","stimuli/stars_9.png","140","[""HE"",""CC"",""DO"",""SC""]","[""BM04"",""AM09"",""AM03"",""WF11""]","[4,0,9,3]","[6,2,8,4]","","",""
"show-reward","116","1007803","0.0-116.0","p898823","ASCS0QEE54PUI","3RZS0FBRWLGDTA9TUPH81F59AWHPC0","3PWWM24LHU4ICKG41HVSS0WMS7Z82C","emotion","mismatch","uniform","","","","","","","","1010454","1012458","","","","","","","","","","","","9","","stimuli/stars_9.png","140","","","","","stimuli/AM03_DO.jpg","",""
"explore-choice","117","1008974","0.0-117.0","p898823","ASCS0QEE54PUI","3RZS0FBRWLGDTA9TUPH81F59AWHPC0","3PWWM24LHU4ICKG41HVSS0WMS7Z82C","emotion","mismatch","uniform","","","","","","","666","1012459","1013125","[""stimuli/AM03_CC.jpg"",""stimuli/WF11_HE.jpg"",""stimuli/AM09_SC.jpg"",""stimuli/BM04_DO.jpg""]","stimuli/AM03_CC.jpg","stimuli/WF11_HE.jpg","stimuli/AM09_SC.jpg","stimuli/BM04_DO.jpg","pos4","stimuli/BM04_DO.jpg","DO","BM04","3","2.5","5","6","stimuli/stars_5.png","142.5","[""CC"",""HE"",""SC"",""DO""]","[""AM03"",""WF11"",""AM09"",""BM04""]","[9,3,0,5]","[8,4,2,6]","","",""
"show-reward","118","1010987","0.0-118.0","p898823","ASCS0QEE54PUI","3RZS0FBRWLGDTA9TUPH81F59AWHPC0","3PWWM24LHU4ICKG41HVSS0WMS7Z82C","emotion","mismatch","uniform","","","","","","","","1013631","1015642","","","","","","","","","","","","5","","stimuli/stars_5.png","142.5","","","","","stimuli/BM04_DO.jpg","",""
"explore-choice","119","1015174","0.0-119.0","p898823","ASCS0QEE54PUI","3RZS0FBRWLGDTA9TUPH81F59AWHPC0","3PWWM24LHU4ICKG41HVSS0WMS7Z82C","emotion","mismatch","uniform","","","","","","","3684","1015643","1019327","[""stimuli/AM09_DO.jpg"",""stimuli/AM03_SC.jpg"",""stimuli/WF11_HE.jpg"",""stimuli/BM04_CC.jpg""]","stimuli/AM09_DO.jpg","stimuli/AM03_SC.jpg","stimuli/WF11_HE.jpg","stimuli/BM04_CC.jpg","pos4","stimuli/BM04_CC.jpg","CC","BM04","3","4","8","6","stimuli/stars_8.png","146.5","[""DO"",""SC"",""HE"",""CC""]","[""AM09"",""AM03"",""WF11"",""BM04""]","[2,8,6,8]","[2,8,4,6]","","",""
"show-reward","120","1017186","0.0-120.0","p898823","ASCS0QEE54PUI","3RZS0FBRWLGDTA9TUPH81F59AWHPC0","3PWWM24LHU4ICKG41HVSS0WMS7Z82C","emotion","mismatch","uniform","","","","","","","","1019830","1021841","","","","","","","","","","","","8","","stimuli/stars_8.png","146.5","","","","","stimuli/BM04_CC.jpg","",""
"explore-choice","121","1018140","0.0-121.0","p898823","ASCS0QEE54PUI","3RZS0FBRWLGDTA9TUPH81F59AWHPC0","3PWWM24LHU4ICKG41HVSS0WMS7Z82C","emotion","mismatch","uniform","","","","","","","446","1021843","1022289","[""stimuli/AM03_SC.jpg"",""stimuli/WF11_CC.jpg"",""stimuli/AM09_DO.jpg"",""stimuli/BM04_HE.jpg""]","stimuli/AM03_SC.jpg","stimuli/WF11_CC.jpg","stimuli/AM09_DO.jpg","stimuli/BM04_HE.jpg","pos4","stimuli/BM04_HE.jpg","HE","BM04","3","3","6","6","stimuli/stars_6.png","149.5","[""SC"",""CC"",""DO"",""HE""]","[""AM03"",""WF11"",""AM09"",""BM04""]","[10,6,0,6]","[8,4,2,6]","","",""
"show-reward","122","1020145","0.0-122.0","p898823","ASCS0QEE54PUI","3RZS0FBRWLGDTA9TUPH81F59AWHPC0","3PWWM24LHU4ICKG41HVSS0WMS7Z82C","emotion","mismatch","uniform","","","","","","","","1022795","1024800","","","","","","","","","","","","6","","stimuli/stars_6.png","149.5","","","","","stimuli/BM04_HE.jpg","",""
"explore-choice","123","1023087","0.0-123.0","p898823","ASCS0QEE54PUI","3RZS0FBRWLGDTA9TUPH81F59AWHPC0","3PWWM24LHU4ICKG41HVSS0WMS7Z82C","emotion","mismatch","uniform","","","","","","","2436","1024801","1027237","[""stimuli/AM09_CC.jpg"",""stimuli/WF11_DO.jpg"",""stimuli/BM04_HE.jpg"",""stimuli/AM03_SC.jpg""]","stimuli/AM09_CC.jpg","stimuli/WF11_DO.jpg","stimuli/BM04_HE.jpg","stimuli/AM03_SC.jpg","pos4","stimuli/AM03_SC.jpg","SC","AM03","3","5","10","8","stimuli/stars_10.png","154.5","[""CC"",""DO"",""HE"",""SC""]","[""AM09"",""WF11"",""BM04"",""AM03""]","[0,2,5,10]","[2,4,6,8]","","",""
"show-reward","124","1025100","0.0-124.0","p898823","ASCS0QEE54PUI","3RZS0FBRWLGDTA9TUPH81F59AWHPC0","3PWWM24LHU4ICKG41HVSS0WMS7Z82C","emotion","mismatch","uniform","","","","","","","","1027743","1029755","","","","","","","","","","","","10","","stimuli/stars_10.png","154.5","","","","","stimuli/AM03_SC.jpg","",""
"explore-choice","125","1032192","0.0-125.0","p898823","ASCS0QEE54PUI","3RZS0FBRWLGDTA9TUPH81F59AWHPC0","3PWWM24LHU4ICKG41HVSS0WMS7Z82C","emotion","mismatch","uniform","","","","","","","6582","1029757","1036339","[""stimuli/WF11_CC.jpg"",""stimuli/AM03_HE.jpg"",""stimuli/BM04_SC.jpg"",""stimuli/AM09_DO.jpg""]","stimuli/WF11_CC.jpg","stimuli/AM03_HE.jpg","stimuli/BM04_SC.jpg","stimuli/AM09_DO.jpg","pos2","stimuli/AM03_HE.jpg","HE","AM03","1","5","10","8","stimuli/stars_10.png","159.5","[""CC"",""HE"",""SC"",""DO""]","[""WF11"",""AM03"",""BM04"",""AM09""]","[3,10,6,2]","[4,8,6,2]","","",""
"show-reward","126","1034199","0.0-126.0","p898823","ASCS0QEE54PUI","3RZS0FBRWLGDTA9TUPH81F59AWHPC0","3PWWM24LHU4ICKG41HVSS0WMS7Z82C","emotion","mismatch","uniform","","","","","","","","1036849","1038854","","","","","","","","","","","","10","","stimuli/stars_10.png","159.5","","","","","stimuli/AM03_HE.jpg","",""
"explore-choice","127","1035452","0.0-127.0","p898823","ASCS0QEE54PUI","3RZS0FBRWLGDTA9TUPH81F59AWHPC0","3PWWM24LHU4ICKG41HVSS0WMS7Z82C","emotion","mismatch","uniform","","","","","","","742","1038856","1039598","[""stimuli/AM03_SC.jpg"",""stimuli/WF11_HE.jpg"",""stimuli/BM04_DO.jpg"",""stimuli/AM09_CC.jpg""]","stimuli/AM03_SC.jpg","stimuli/WF11_HE.jpg","stimuli/BM04_DO.jpg","stimuli/AM09_CC.jpg","pos1","stimuli/AM03_SC.jpg","SC","AM03","0","5","10","8","stimuli/stars_10.png","164.5","[""SC"",""HE"",""DO"",""CC""]","[""AM03"",""WF11"",""BM04"",""AM09""]","[10,3,5,4]","[8,4,6,2]","","",""
"show-reward","128","1037478","0.0-128.0","p898823","ASCS0QEE54PUI","3RZS0FBRWLGDTA9TUPH81F59AWHPC0","3PWWM24LHU4ICKG41HVSS0WMS7Z82C","emotion","mismatch","uniform","","","","","","","","1040107","1042133","","","","","","","","","","","","10","","stimuli/stars_10.png","164.5","","","","","stimuli/AM03_SC.jpg","",""
"explore-choice","129","1039006","0.0-129.0","p898823","ASCS0QEE54PUI","3RZS0FBRWLGDTA9TUPH81F59AWHPC0","3PWWM24LHU4ICKG41HVSS0WMS7Z82C","emotion","mismatch","uniform","","","","","","","1010","1042135","1043145","[""stimuli/WF11_DO.jpg"",""stimuli/AM03_HE.jpg"",""stimuli/BM04_CC.jpg"",""stimuli/AM09_SC.jpg""]","stimuli/WF11_DO.jpg","stimuli/AM03_HE.jpg","stimuli/BM04_CC.jpg","stimuli/AM09_SC.jpg","pos1","stimuli/WF11_DO.jpg","DO","WF11","0","2","4","4","stimuli/stars_4.png","166.5","[""DO"",""HE"",""CC"",""SC""]","[""WF11"",""AM03"",""BM04"",""AM09""]","[4,7,8,4]","[4,8,6,2]","","",""
"show-reward","130","1041015","0.0-130.0","p898823","ASCS0QEE54PUI","3RZS0FBRWLGDTA9TUPH81F59AWHPC0","3PWWM24LHU4ICKG41HVSS0WMS7Z82C","emotion","mismatch","uniform","","","","","","","","1043663","1045670","","","","","","","","","","","","4","","stimuli/stars_4.png","166.5","","","","","stimuli/WF11_DO.jpg","",""
"explore-choice","131","1052550","0.0-131.0","p898823","ASCS0QEE54PUI","3RZS0FBRWLGDTA9TUPH81F59AWHPC0","3PWWM24LHU4ICKG41HVSS0WMS7Z82C","emotion","mismatch","uniform","","","","","","","11019","1045671","1056690","[""stimuli/AM03_HE.jpg"",""stimuli/WF11_SC.jpg"",""stimuli/AM09_DO.jpg"",""stimuli/BM04_CC.jpg""]","stimuli/AM03_HE.jpg","stimuli/WF11_SC.jpg","stimuli/AM09_DO.jpg","stimuli/BM04_CC.jpg","pos1","stimuli/AM03_HE.jpg","HE","AM03","0","3.5","7","8","stimuli/stars_7.png","170","[""HE"",""SC"",""DO"",""CC""]","[""AM03"",""WF11"",""AM09"",""BM04""]","[7,2,4,5]","[8,4,2,6]","","",""
"show-reward","132","1054572","0.0-132.0","p898823","ASCS0QEE54PUI","3RZS0FBRWLGDTA9TUPH81F59AWHPC0","3PWWM24LHU4ICKG41HVSS0WMS7Z82C","emotion","mismatch","uniform","","","","","","","","1057205","1059226","","","","","","","","","","","","7","","stimuli/stars_7.png","170","","","","","stimuli/AM03_HE.jpg","",""
"explore-choice","133","1056901","0.0-133.0","p898823","ASCS0QEE54PUI","3RZS0FBRWLGDTA9TUPH81F59AWHPC0","3PWWM24LHU4ICKG41HVSS0WMS7Z82C","emotion","mismatch","uniform","","","","","","","1813","1059228","1061041","[""stimuli/WF11_DO.jpg"",""stimuli/BM04_SC.jpg"",""stimuli/AM09_HE.jpg"",""stimuli/AM03_CC.jpg""]","stimuli/WF11_DO.jpg","stimuli/BM04_SC.jpg","stimuli/AM09_HE.jpg","stimuli/AM03_CC.jpg","pos1","stimuli/WF11_DO.jpg","DO","WF11","0","2.5","5","4","stimuli/stars_5.png","172.5","[""DO"",""SC"",""HE"",""CC""]","[""WF11"",""BM04"",""AM09"",""AM03""]","[5,8,2,9]","[4,6,2,8]","","",""
"show-reward","134","1058915","0.0-134.0","p898823","ASCS0QEE54PUI","3RZS0FBRWLGDTA9TUPH81F59AWHPC0","3PWWM24LHU4ICKG41HVSS0WMS7Z82C","emotion","mismatch","uniform","","","","","","","","1061556","1063570","","","","","","","","","","","","5","","stimuli/stars_5.png","172.5","","","","","stimuli/WF11_DO.jpg","",""
"explore-choice","135","1060353","0.0-135.0","p898823","ASCS0QEE54PUI","3RZS0FBRWLGDTA9TUPH81F59AWHPC0","3PWWM24LHU4ICKG41HVSS0WMS7Z82C","emotion","mismatch","uniform","","","","","","","920","1063570","1064490","[""stimuli/WF11_CC.jpg"",""stimuli/AM03_HE.jpg"",""stimuli/AM09_SC.jpg"",""stimuli/BM04_DO.jpg""]","stimuli/WF11_CC.jpg","stimuli/AM03_HE.jpg","stimuli/AM09_SC.jpg","stimuli/BM04_DO.jpg","pos1","stimuli/WF11_CC.jpg","CC","WF11","0","1","2","4","stimuli/stars_2.png","173.5","[""CC"",""HE"",""SC"",""DO""]","[""WF11"",""AM03"",""AM09"",""BM04""]","[2,10,1,7]","[4,8,2,6]","","",""
"show-reward","136","1062365","0.0-136.0","p898823","ASCS0QEE54PUI","3RZS0FBRWLGDTA9TUPH81F59AWHPC0","3PWWM24LHU4ICKG41HVSS0WMS7Z82C","emotion","mismatch","uniform","","","","","","","","1065010","1067021","","","","","","","","","","","","2","","stimuli/stars_2.png","173.5","","","","","stimuli/WF11_CC.jpg","",""
"explore-choice","137","1063654","0.0-137.0","p898823","ASCS0QEE54PUI","3RZS0FBRWLGDTA9TUPH81F59AWHPC0","3PWWM24LHU4ICKG41HVSS0WMS7Z82C","emotion","mismatch","uniform","","","","","","","786","1067023","1067809","[""stimuli/AM09_DO.jpg"",""stimuli/BM04_HE.jpg"",""stimuli/WF11_SC.jpg"",""stimuli/AM03_CC.jpg""]","stimuli/AM09_DO.jpg","stimuli/BM04_HE.jpg","stimuli/WF11_SC.jpg","stimuli/AM03_CC.jpg","pos1","stimuli/AM09_DO.jpg","DO","AM09","0","0","0","2","stimuli/stars_0.png","173.5","[""DO"",""HE"",""SC"",""CC""]","[""AM09"",""BM04"",""WF11"",""AM03""]","[0,7,6,10]","[2,6,4,8]","","",""
"show-reward","138","1065664","0.0-138.0","p898823","ASCS0QEE54PUI","3RZS0FBRWLGDTA9TUPH81F59AWHPC0","3PWWM24LHU4ICKG41HVSS0WMS7Z82C","emotion","mismatch","uniform","","","","","","","","1068311","1070318","","","","","","","","","","","","0","","stimuli/stars_0.png","173.5","","","","","stimuli/AM09_DO.jpg","",""
"explore-choice","139","1066843","0.0-139.0","p898823","ASCS0QEE54PUI","3RZS0FBRWLGDTA9TUPH81F59AWHPC0","3PWWM24LHU4ICKG41HVSS0WMS7Z82C","emotion","mismatch","uniform","","","","","","","675","1070319","1070994","[""stimuli/WF11_SC.jpg"",""stimuli/AM09_HE.jpg"",""stimuli/BM04_DO.jpg"",""stimuli/AM03_CC.jpg""]","stimuli/WF11_SC.jpg","stimuli/AM09_HE.jpg","stimuli/BM04_DO.jpg","stimuli/AM03_CC.jpg","pos1","stimuli/WF11_SC.jpg","SC","WF11","0","2","4","4","stimuli/stars_4.png","175.5","[""SC"",""HE"",""DO"",""CC""]","[""WF11"",""AM09"",""BM04"",""AM03""]","[4,3,4,10]","[4,2,6,8]","","",""
"show-reward","140","1068864","0.0-140.0","p898823","ASCS0QEE54PUI","3RZS0FBRWLGDTA9TUPH81F59AWHPC0","3PWWM24LHU4ICKG41HVSS0WMS7Z82C","emotion","mismatch","uniform","","","","","","","","1071499","1073518","","","","","","","","","","","","4","","stimuli/stars_4.png","175.5","","","","","stimuli/WF11_SC.jpg","",""
"explore-choice","141","1070086","0.0-141.0","p898823","ASCS0QEE54PUI","3RZS0FBRWLGDTA9TUPH81F59AWHPC0","3PWWM24LHU4ICKG41HVSS0WMS7Z82C","emotion","mismatch","uniform","","","","","","","708","1073520","1074228","[""stimuli/AM09_SC.jpg"",""stimuli/AM03_CC.jpg"",""stimuli/WF11_DO.jpg"",""stimuli/BM04_HE.jpg""]","stimuli/AM09_SC.jpg","stimuli/AM03_CC.jpg","stimuli/WF11_DO.jpg","stimuli/BM04_HE.jpg","pos2","stimuli/AM03_CC.jpg","CC","AM03","1","5","10","8","stimuli/stars_10.png","180.5","[""SC"",""CC"",""DO"",""HE""]","[""AM09"",""AM03"",""WF11"",""BM04""]","[1,10,6,7]","[2,8,4,6]","","",""
"show-reward","142","1072098","0.0-142.0","p898823","ASCS0QEE54PUI","3RZS0FBRWLGDTA9TUPH81F59AWHPC0","3PWWM24LHU4ICKG41HVSS0WMS7Z82C","emotion","mismatch","uniform","","","","","","","","1074742","1076752","","","","","","","","","","","","10","","stimuli/stars_10.png","180.5","","","","","stimuli/AM03_CC.jpg","",""
"explore-choice","143","1074157","0.0-143.0","p898823","ASCS0QEE54PUI","3RZS0FBRWLGDTA9TUPH81F59AWHPC0","3PWWM24LHU4ICKG41HVSS0WMS7Z82C","emotion","mismatch","uniform","","","","","","","1549","1076754","1078303","[""stimuli/AM03_HE.jpg"",""stimuli/WF11_SC.jpg"",""stimuli/AM09_CC.jpg"",""stimuli/BM04_DO.jpg""]","stimuli/AM03_HE.jpg","stimuli/WF11_SC.jpg","stimuli/AM09_CC.jpg","stimuli/BM04_DO.jpg","pos2","stimuli/WF11_SC.jpg","SC","WF11","1","1.5","3","4","stimuli/stars_3.png","182","[""HE"",""SC"",""CC"",""DO""]","[""AM03"",""WF11"",""AM09"",""BM04""]","[8,3,1,8]","[8,4,2,6]","","",""
"show-reward","144","1076161","0.0-144.0","p898823","ASCS0QEE54PUI","3RZS0FBRWLGDTA9TUPH81F59AWHPC0","3PWWM24LHU4ICKG41HVSS0WMS7Z82C","emotion","mismatch","uniform","","","","","","","","1078813","1080816","","","","","","","","","","","","3","","stimuli/stars_3.png","182","","","","","stimuli/WF11_SC.jpg","",""
"explore-choice","145","1077728","0.0-145.0","p898823","ASCS0QEE54PUI","3RZS0FBRWLGDTA9TUPH81F59AWHPC0","3PWWM24LHU4ICKG41HVSS0WMS7Z82C","emotion","mismatch","uniform","","","","","","","1050","1080818","1081868","[""stimuli/AM03_DO.jpg"",""stimuli/AM09_CC.jpg"",""stimuli/WF11_HE.jpg"",""stimuli/BM04_SC.jpg""]","stimuli/AM03_DO.jpg","stimuli/AM09_CC.jpg","stimuli/WF11_HE.jpg","stimuli/BM04_SC.jpg","pos2","stimuli/AM09_CC.jpg","CC","AM09","1","2","4","2","stimuli/stars_4.png","184","[""DO"",""CC"",""HE"",""SC""]","[""AM03"",""AM09"",""WF11"",""BM04""]","[6,4,2,7]","[8,2,4,6]","","",""
"show-reward","146","1079740","0.0-146.0","p898823","ASCS0QEE54PUI","3RZS0FBRWLGDTA9TUPH81F59AWHPC0","3PWWM24LHU4ICKG41HVSS0WMS7Z82C","emotion","mismatch","uniform","","","","","","","","1082385","1084394","","","","","","","","","","","","4","","stimuli/stars_4.png","184","","","","","stimuli/AM09_CC.jpg","",""
"explore-choice","147","1082608","0.0-147.0","p898823","ASCS0QEE54PUI","3RZS0FBRWLGDTA9TUPH81F59AWHPC0","3PWWM24LHU4ICKG41HVSS0WMS7Z82C","emotion","mismatch","uniform","","","","","","","2354","1084395","1086749","[""stimuli/AM03_HE.jpg"",""stimuli/WF11_DO.jpg"",""stimuli/BM04_SC.jpg"",""stimuli/AM09_CC.jpg""]","stimuli/AM03_HE.jpg","stimuli/WF11_DO.jpg","stimuli/BM04_SC.jpg","stimuli/AM09_CC.jpg","pos2","stimuli/WF11_DO.jpg","DO","WF11","1","1.5","3","4","stimuli/stars_3.png","185.5","[""HE"",""DO"",""SC"",""CC""]","[""AM03"",""WF11"",""BM04"",""AM09""]","[10,3,7,1]","[8,4,6,2]","","",""
"show-reward","148","1084612","0.0-148.0","p898823","ASCS0QEE54PUI","3RZS0FBRWLGDTA9TUPH81F59AWHPC0","3PWWM24LHU4ICKG41HVSS0WMS7Z82C","emotion","mismatch","uniform","","","","","","","","1087264","1089266","","","","","","","","","","","","3","","stimuli/stars_3.png","185.5","","","","","stimuli/WF11_DO.jpg","",""
"explore-choice","149","1086006","0.0-149.0","p898823","ASCS0QEE54PUI","3RZS0FBRWLGDTA9TUPH81F59AWHPC0","3PWWM24LHU4ICKG41HVSS0WMS7Z82C","emotion","mismatch","uniform","","","","","","","887","1089268","1090155","[""stimuli/AM09_SC.jpg"",""stimuli/AM03_DO.jpg"",""stimuli/BM04_CC.jpg"",""stimuli/WF11_HE.jpg""]","stimuli/AM09_SC.jpg","stimuli/AM03_DO.jpg","stimuli/BM04_CC.jpg","stimuli/WF11_HE.jpg","pos2","stimuli/AM03_DO.jpg","DO","AM03","1","4","8","8","stimuli/stars_8.png","189.5","[""SC"",""DO"",""CC"",""HE""]","[""AM09"",""AM03"",""BM04"",""WF11""]","[2,8,8,5]","[2,8,6,4]","","",""
"show-reward","150","1088025","0.0-150.0","p898823","ASCS0QEE54PUI","3RZS0FBRWLGDTA9TUPH81F59AWHPC0","3PWWM24LHU4ICKG41HVSS0WMS7Z82C","emotion","mismatch","uniform","","","","","","","","1090662","1092680","","","","","","","","","","","","8","","stimuli/stars_8.png","189.5","","","","","stimuli/AM03_DO.jpg","",""
"explore-choice","151","1089634","0.0-151.0","p898823","ASCS0QEE54PUI","3RZS0FBRWLGDTA9TUPH81F59AWHPC0","3PWWM24LHU4ICKG41HVSS0WMS7Z82C","emotion","mismatch","uniform","","","","","","","1089","1092681","1093770","[""stimuli/BM04_CC.jpg"",""stimuli/AM09_SC.jpg"",""stimuli/AM03_HE.jpg"",""stimuli/WF11_DO.jpg""]","stimuli/BM04_CC.jpg","stimuli/AM09_SC.jpg","stimuli/AM03_HE.jpg","stimuli/WF11_DO.jpg","pos2","stimuli/AM09_SC.jpg","SC","AM09","1","2","4","2","stimuli/stars_4.png","191.5","[""CC"",""SC"",""HE"",""DO""]","[""BM04"",""AM09"",""AM03"",""WF11""]","[8,4,7,4]","[6,2,8,4]","","",""
"show-reward","152","1091639","0.0-152.0","p898823","ASCS0QEE54PUI","3RZS0FBRWLGDTA9TUPH81F59AWHPC0","3PWWM24LHU4ICKG41HVSS0WMS7Z82C","emotion","mismatch","uniform","","","","","","","","1094291","1096293","","","","","","","","","","","","4","","stimuli/stars_4.png","191.5","","","","","stimuli/AM09_SC.jpg","",""
"explore-choice","153","1092862","0.0-153.0","p898823","ASCS0QEE54PUI","3RZS0FBRWLGDTA9TUPH81F59AWHPC0","3PWWM24LHU4ICKG41HVSS0WMS7Z82C","emotion","mismatch","uniform","","","","","","","709","1096294","1097003","[""stimuli/AM03_DO.jpg"",""stimuli/WF11_HE.jpg"",""stimuli/BM04_SC.jpg"",""stimuli/AM09_CC.jpg""]","stimuli/AM03_DO.jpg","stimuli/WF11_HE.jpg","stimuli/BM04_SC.jpg","stimuli/AM09_CC.jpg","pos2","stimuli/WF11_HE.jpg","HE","WF11","1","1","2","4","stimuli/stars_2.png","192.5","[""DO"",""HE"",""SC"",""CC""]","[""AM03"",""WF11"",""BM04"",""AM09""]","[6,2,7,4]","[8,4,6,2]","","",""
"show-reward","154","1094872","0.0-154.0","p898823","ASCS0QEE54PUI","3RZS0FBRWLGDTA9TUPH81F59AWHPC0","3PWWM24LHU4ICKG41HVSS0WMS7Z82C","emotion","mismatch","uniform","","","","","","","","1097518","1099527","","","","","","","","","","","","2","","stimuli/stars_2.png","192.5","","","","","stimuli/WF11_HE.jpg","",""
"explore-choice","155","1096497","0.0-155.0","p898823","ASCS0QEE54PUI","3RZS0FBRWLGDTA9TUPH81F59AWHPC0","3PWWM24LHU4ICKG41HVSS0WMS7Z82C","emotion","mismatch","uniform","","","","","","","1115","1099529","1100644","[""stimuli/AM03_CC.jpg"",""stimuli/WF11_SC.jpg"",""stimuli/AM09_DO.jpg"",""stimuli/BM04_HE.jpg""]","stimuli/AM03_CC.jpg","stimuli/WF11_SC.jpg","stimuli/AM09_DO.jpg","stimuli/BM04_HE.jpg","pos2","stimuli/WF11_SC.jpg","SC","WF11","1","3","6","4","stimuli/stars_6.png","195.5","[""CC"",""SC"",""DO"",""HE""]","[""AM03"",""WF11"",""AM09"",""BM04""]","[10,6,0,7]","[8,4,2,6]","","",""
"show-reward","156","1098518","0.0-156.0","p898823","ASCS0QEE54PUI","3RZS0FBRWLGDTA9TUPH81F59AWHPC0","3PWWM24LHU4ICKG41HVSS0WMS7Z82C","emotion","mismatch","uniform","","","","","","","","1101154","1103172","","","","","","","","","","","","6","","stimuli/stars_6.png","195.5","","","","","stimuli/WF11_SC.jpg","",""
"explore-choice","157","1102109","0.0-157.0","p898823","ASCS0QEE54PUI","3RZS0FBRWLGDTA9TUPH81F59AWHPC0","3PWWM24LHU4ICKG41HVSS0WMS7Z82C","emotion","mismatch","uniform","","","","","","","3081","1103174","1106255","[""stimuli/AM03_HE.jpg"",""stimuli/WF11_SC.jpg"",""stimuli/BM04_DO.jpg"",""stimuli/AM09_CC.jpg""]","stimuli/AM03_HE.jpg","stimuli/WF11_SC.jpg","stimuli/BM04_DO.jpg","stimuli/AM09_CC.jpg","pos2","stimuli/WF11_SC.jpg","SC","WF11","1","1.5","3","4","stimuli/stars_3.png","197","[""HE"",""SC"",""DO"",""CC""]","[""AM03"",""WF11"",""BM04"",""AM09""]","[8,3,8,1]","[8,4,6,2]","","",""
"show-reward","158","1104130","0.0-158.0","p898823","ASCS0QEE54PUI","3RZS0FBRWLGDTA9TUPH81F59AWHPC0","3PWWM24LHU4ICKG41HVSS0WMS7Z82C","emotion","mismatch","uniform","","","","","","","","1106765","1108784","","","","","","","","","","","","3","","stimuli/stars_3.png","197","","","","","stimuli/WF11_SC.jpg","",""
"explore-choice","159","1107834","0.0-159.0","p898823","ASCS0QEE54PUI","3RZS0FBRWLGDTA9TUPH81F59AWHPC0","3PWWM24LHU4ICKG41HVSS0WMS7Z82C","emotion","mismatch","uniform","","","","","","","3193","1108785","1111978","[""stimuli/BM04_DO.jpg"",""stimuli/AM09_HE.jpg"",""stimuli/AM03_SC.jpg"",""stimuli/WF11_CC.jpg""]","stimuli/BM04_DO.jpg","stimuli/AM09_HE.jpg","stimuli/AM03_SC.jpg","stimuli/WF11_CC.jpg","pos2","stimuli/AM09_HE.jpg","HE","AM09","1","1","2","2","stimuli/stars_2.png","198","[""DO"",""HE"",""SC"",""CC""]","[""BM04"",""AM09"",""AM03"",""WF11""]","[6,2,9,5]","[6,2,8,4]","","",""
"show-reward","160","1109845","0.0-160.0","p898823","ASCS0QEE54PUI","3RZS0FBRWLGDTA9TUPH81F59AWHPC0","3PWWM24LHU4ICKG41HVSS0WMS7Z82C","emotion","mismatch","uniform","","","","","","","","1112490","1114500","","","","","","","","","","","","2","","stimuli/stars_2.png","198","","","","","stimuli/AM09_HE.jpg","",""
"explore-choice","161","1113178","0.0-161.0","p898823","ASCS0QEE54PUI","3RZS0FBRWLGDTA9TUPH81F59AWHPC0","3PWWM24LHU4ICKG41HVSS0WMS7Z82C","emotion","mismatch","uniform","","","","","","","2817","1114501","1117318","[""stimuli/AM03_DO.jpg"",""stimuli/BM04_CC.jpg"",""stimuli/AM09_HE.jpg"",""stimuli/WF11_SC.jpg""]","stimuli/AM03_DO.jpg","stimuli/BM04_CC.jpg","stimuli/AM09_HE.jpg","stimuli/WF11_SC.jpg","pos2","stimuli/BM04_CC.jpg","CC","BM04","1","3.5","7","6","stimuli/stars_7.png","201.5","[""DO"",""CC"",""HE"",""SC""]","[""AM03"",""BM04"",""AM09"",""WF11""]","[6,7,1,6]","[8,6,2,4]","","",""
"show-reward","162","1115196","0.0-162.0","p898823","ASCS0QEE54PUI","3RZS0FBRWLGDTA9TUPH81F59AWHPC0","3PWWM24LHU4ICKG41HVSS0WMS7Z82C","emotion","mismatch","uniform","","","","","","","","1117834","1119850","","","","","","","","","","","","7","","stimuli/stars_7.png","201.5","","","","","stimuli/BM04_CC.jpg","",""
"explore-choice","163","1116384","0.0-163.0","p898823","ASCS0QEE54PUI","3RZS0FBRWLGDTA9TUPH81F59AWHPC0","3PWWM24LHU4ICKG41HVSS0WMS7Z82C","emotion","mismatch","uniform","","","","","","","678","1119852","1120530","[""stimuli/WF11_HE.jpg"",""stimuli/AM03_SC.jpg"",""stimuli/BM04_DO.jpg"",""stimuli/AM09_CC.jpg""]","stimuli/WF11_HE.jpg","stimuli/AM03_SC.jpg","stimuli/BM04_DO.jpg","stimuli/AM09_CC.jpg","pos2","stimuli/AM03_SC.jpg","SC","AM03","1","5","10","8","stimuli/stars_10.png","206.5","[""HE"",""SC"",""DO"",""CC""]","[""WF11"",""AM03"",""BM04"",""AM09""]","[3,10,5,4]","[4,8,6,2]","","",""
"show-reward","164","1118400","0.0-164.0","p898823","ASCS0QEE54PUI","3RZS0FBRWLGDTA9TUPH81F59AWHPC0","3PWWM24LHU4ICKG41HVSS0WMS7Z82C","emotion","mismatch","uniform","","","","","","","","1121040","1123054","","","","","","","","","","","","10","","stimuli/stars_10.png","206.5","","","","","stimuli/AM03_SC.jpg","",""
"explore-choice","165","1120004","0.0-165.0","p898823","ASCS0QEE54PUI","3RZS0FBRWLGDTA9TUPH81F59AWHPC0","3PWWM24LHU4ICKG41HVSS0WMS7Z82C","emotion","mismatch","uniform","","","","","","","1085","1123056","1124141","[""stimuli/WF11_DO.jpg"",""stimuli/AM09_CC.jpg"",""stimuli/BM04_HE.jpg"",""stimuli/AM03_SC.jpg""]","stimuli/WF11_DO.jpg","stimuli/AM09_CC.jpg","stimuli/BM04_HE.jpg","stimuli/AM03_SC.jpg","pos2","stimuli/AM09_CC.jpg","CC","AM09","1","0","0","2","stimuli/stars_0.png","206.5","[""DO"",""CC"",""HE"",""SC""]","[""WF11"",""AM09"",""BM04"",""AM03""]","[2,0,5,10]","[4,2,6,8]","","",""
"show-reward","166","1122020","0.0-166.0","p898823","ASCS0QEE54PUI","3RZS0FBRWLGDTA9TUPH81F59AWHPC0","3PWWM24LHU4ICKG41HVSS0WMS7Z82C","emotion","mismatch","uniform","","","","","","","","1124659","1126675","","","","","","","","","","","","0","","stimuli/stars_0.png","206.5","","","","","stimuli/AM09_CC.jpg","",""
"explore-choice","167","1124511","0.0-167.0","p898823","ASCS0QEE54PUI","3RZS0FBRWLGDTA9TUPH81F59AWHPC0","3PWWM24LHU4ICKG41HVSS0WMS7Z82C","emotion","mismatch","uniform","","","","","","","1986","1126676","1128662","[""stimuli/BM04_CC.jpg"",""stimuli/AM03_DO.jpg"",""stimuli/WF11_HE.jpg"",""stimuli/AM09_SC.jpg""]","stimuli/BM04_CC.jpg","stimuli/AM03_DO.jpg","stimuli/WF11_HE.jpg","stimuli/AM09_SC.jpg","pos2","stimuli/AM03_DO.jpg","DO","AM03","1","4","8","8","stimuli/stars_8.png","210.5","[""CC"",""DO"",""HE"",""SC""]","[""BM04"",""AM03"",""WF11"",""AM09""]","[8,8,5,2]","[6,8,4,2]","","",""
"show-reward","168","1126521","0.0-168.0","p898823","ASCS0QEE54PUI","3RZS0FBRWLGDTA9TUPH81F59AWHPC0","3PWWM24LHU4ICKG41HVSS0WMS7Z82C","emotion","mismatch","uniform","","","","","","","","1129167","1131175","","","","","","","","","","","","8","","stimuli/stars_8.png","210.5","","","","","stimuli/AM03_DO.jpg","",""
"explore-choice","169","1127847","0.0-169.0","p898823","ASCS0QEE54PUI","3RZS0FBRWLGDTA9TUPH81F59AWHPC0","3PWWM24LHU4ICKG41HVSS0WMS7Z82C","emotion","mismatch","uniform","","","","","","","810","1131177","1131987","[""stimuli/AM03_CC.jpg"",""stimuli/AM09_HE.jpg"",""stimuli/BM04_DO.jpg"",""stimuli/WF11_SC.jpg""]","stimuli/AM03_CC.jpg","stimuli/AM09_HE.jpg","stimuli/BM04_DO.jpg","stimuli/WF11_SC.jpg","pos2","stimuli/AM09_HE.jpg","HE","AM09","1","1.5","3","2","stimuli/stars_3.png","212","[""CC"",""HE"",""DO"",""SC""]","[""AM03"",""AM09"",""BM04"",""WF11""]","[10,3,4,4]","[8,2,6,4]","","",""
"show-reward","170","1129863","0.0-170.0","p898823","ASCS0QEE54PUI","3RZS0FBRWLGDTA9TUPH81F59AWHPC0","3PWWM24LHU4ICKG41HVSS0WMS7Z82C","emotion","mismatch","uniform","","","","","","","","1132503","1134518","","","","","","","","","","","","3","","stimuli/stars_3.png","212","","","","","stimuli/AM09_HE.jpg","",""
"explore-choice","171","1134379","0.0-171.0","p898823","ASCS0QEE54PUI","3RZS0FBRWLGDTA9TUPH81F59AWHPC0","3PWWM24LHU4ICKG41HVSS0WMS7Z82C","emotion","mismatch","uniform","","","","","","","4012","1134519","1138531","[""stimuli/BM04_SC.jpg"",""stimuli/AM03_DO.jpg"",""stimuli/AM09_HE.jpg"",""stimuli/WF11_CC.jpg""]","stimuli/BM04_SC.jpg","stimuli/AM03_DO.jpg","stimuli/AM09_HE.jpg","stimuli/WF11_CC.jpg","pos2","stimuli/AM03_DO.jpg","DO","AM03","1","4","8","8","stimuli/stars_8.png","216","[""SC"",""DO"",""HE"",""CC""]","[""BM04"",""AM03"",""AM09"",""WF11""]","[7,8,1,5]","[6,8,2,4]","","",""
"show-reward","172","1136386","0.0-172.0","p898823","ASCS0QEE54PUI","3RZS0FBRWLGDTA9TUPH81F59AWHPC0","3PWWM24LHU4ICKG41HVSS0WMS7Z82C","emotion","mismatch","uniform","","","","","","","","1139035","1141041","","","","","","","","","","","","8","","stimuli/stars_8.png","216","","","","","stimuli/AM03_DO.jpg","",""
"explore-choice","173","1144544","0.0-173.0","p898823","ASCS0QEE54PUI","3RZS0FBRWLGDTA9TUPH81F59AWHPC0","3PWWM24LHU4ICKG41HVSS0WMS7Z82C","emotion","mismatch","uniform","","","","","","","7648","1141043","1148691","[""stimuli/WF11_SC.jpg"",""stimuli/AM03_DO.jpg"",""stimuli/AM09_CC.jpg"",""stimuli/BM04_HE.jpg""]","stimuli/WF11_SC.jpg","stimuli/AM03_DO.jpg","stimuli/AM09_CC.jpg","stimuli/BM04_HE.jpg","pos2","stimuli/AM03_DO.jpg","DO","AM03","1","4.5","9","8","stimuli/stars_9.png","220.5","[""SC"",""DO"",""CC"",""HE""]","[""WF11"",""AM03"",""AM09"",""BM04""]","[3,9,0,4]","[4,8,2,6]","","",""
"show-reward","174","1146561","0.0-174.0","p898823","ASCS0QEE54PUI","3RZS0FBRWLGDTA9TUPH81F59AWHPC0","3PWWM24LHU4ICKG41HVSS0WMS7Z82C","emotion","mismatch","uniform","","","","","","","","1149200","1151216","","","","","","","","","","","","9","","stimuli/stars_9.png","220.5","","","","","stimuli/AM03_DO.jpg","",""
"explore-choice","175","1157244","0.0-175.0","p898823","ASCS0QEE54PUI","3RZS0FBRWLGDTA9TUPH81F59AWHPC0","3PWWM24LHU4ICKG41HVSS0WMS7Z82C","emotion","mismatch","uniform","","","","","","","10181","1151217","1161398","[""stimuli/BM04_SC.jpg"",""stimuli/AM03_CC.jpg"",""stimuli/WF11_HE.jpg"",""stimuli/AM09_DO.jpg""]","stimuli/BM04_SC.jpg","stimuli/AM03_CC.jpg","stimuli/WF11_HE.jpg","stimuli/AM09_DO.jpg","pos2","stimuli/AM03_CC.jpg","CC","AM03","1","4","8","8","stimuli/stars_8.png","224.5","[""SC"",""CC"",""HE"",""DO""]","[""BM04"",""AM03"",""WF11"",""AM09""]","[5,8,2,2]","[6,8,4,2]","","",""
"show-reward","176","1159260","0.0-176.0","p898823","ASCS0QEE54PUI","3RZS0FBRWLGDTA9TUPH81F59AWHPC0","3PWWM24LHU4ICKG41HVSS0WMS7Z82C","emotion","mismatch","uniform","","","","","","","","1161900","1163915","","","","","","","","","","","","8","","stimuli/stars_8.png","224.5","","","","","stimuli/AM03_CC.jpg","",""
"explore-choice","177","1160343","0.0-177.0","p898823","ASCS0QEE54PUI","3RZS0FBRWLGDTA9TUPH81F59AWHPC0","3PWWM24LHU4ICKG41HVSS0WMS7Z82C","emotion","mismatch","uniform","","","","","","","573","1163916","1164489","[""stimuli/WF11_DO.jpg"",""stimuli/BM04_CC.jpg"",""stimuli/AM03_SC.jpg"",""stimuli/AM09_HE.jpg""]","stimuli/WF11_DO.jpg","stimuli/BM04_CC.jpg","stimuli/AM03_SC.jpg","stimuli/AM09_HE.jpg","pos1","stimuli/WF11_DO.jpg","DO","WF11","0","1","2","4","stimuli/stars_2.png","225.5","[""DO"",""CC"",""SC"",""HE""]","[""WF11"",""BM04"",""AM03"",""AM09""]","[2,7,8,2]","[4,6,8,2]","","",""
"show-reward","178","1162360","0.0-178.0","p898823","ASCS0QEE54PUI","3RZS0FBRWLGDTA9TUPH81F59AWHPC0","3PWWM24LHU4ICKG41HVSS0WMS7Z82C","emotion","mismatch","uniform","","","","","","","","1165000","1167015","","","","","","","","","","","","2","","stimuli/stars_2.png","225.5","","","","","stimuli/WF11_DO.jpg","",""
"explore-choice","179","1165066","0.0-179.0","p898823","ASCS0QEE54PUI","3RZS0FBRWLGDTA9TUPH81F59AWHPC0","3PWWM24LHU4ICKG41HVSS0WMS7Z82C","emotion","mismatch","uniform","","","","","","","2181","1167017","1169198","[""stimuli/BM04_DO.jpg"",""stimuli/AM09_SC.jpg"",""stimuli/AM03_HE.jpg"",""stimuli/WF11_CC.jpg""]","stimuli/BM04_DO.jpg","stimuli/AM09_SC.jpg","stimuli/AM03_HE.jpg","stimuli/WF11_CC.jpg","pos4","stimuli/WF11_CC.jpg","CC","WF11","3","1","2","4","stimuli/stars_2.png","226.5","[""DO"",""SC"",""HE"",""CC""]","[""BM04"",""AM09"",""AM03"",""WF11""]","[7,1,10,2]","[6,2,8,4]","","",""
"show-reward","180","1167089","0.0-180.0","p898823","ASCS0QEE54PUI","3RZS0FBRWLGDTA9TUPH81F59AWHPC0","3PWWM24LHU4ICKG41HVSS0WMS7Z82C","emotion","mismatch","uniform","","","","","","","","1169722","1171743","","","","","","","","","","","","2","","stimuli/stars_2.png","226.5","","","","","stimuli/WF11_CC.jpg","",""
"explore-choice","181","1168793","0.0-181.0","p898823","ASCS0QEE54PUI","3RZS0FBRWLGDTA9TUPH81F59AWHPC0","3PWWM24LHU4ICKG41HVSS0WMS7Z82C","emotion","mismatch","uniform","","","","","","","1192","1171745","1172937","[""stimuli/AM09_HE.jpg"",""stimuli/BM04_SC.jpg"",""stimuli/AM03_CC.jpg"",""stimuli/WF11_DO.jpg""]","stimuli/AM09_HE.jpg","stimuli/BM04_SC.jpg","stimuli/AM03_CC.jpg","stimuli/WF11_DO.jpg","pos3","stimuli/AM03_CC.jpg","CC","AM03","2","4.5","9","8","stimuli/stars_9.png","231","[""HE"",""SC"",""CC"",""DO""]","[""AM09"",""BM04"",""AM03"",""WF11""]","[2,8,9,5]","[2,6,8,4]","","",""
"show-reward","182","1170809","0.0-182.0","p898823","ASCS0QEE54PUI","3RZS0FBRWLGDTA9TUPH81F59AWHPC0","3PWWM24LHU4ICKG41HVSS0WMS7Z82C","emotion","mismatch","uniform","","","","","","","","1173449","1175464","","","","","","","","","","","","9","","stimuli/stars_9.png","231","","","","","stimuli/AM03_CC.jpg","",""
"explore-choice","183","1172250","0.0-183.0","p898823","ASCS0QEE54PUI","3RZS0FBRWLGDTA9TUPH81F59AWHPC0","3PWWM24LHU4ICKG41HVSS0WMS7Z82C","emotion","mismatch","uniform","","","","","","","925","1175465","1176390","[""stimuli/AM09_DO.jpg"",""stimuli/AM03_HE.jpg"",""stimuli/WF11_CC.jpg"",""stimuli/BM04_SC.jpg""]","stimuli/AM09_DO.jpg","stimuli/AM03_HE.jpg","stimuli/WF11_CC.jpg","stimuli/BM04_SC.jpg","pos1","stimuli/AM09_DO.jpg","DO","AM09","0","1","2","2","stimuli/stars_2.png","232","[""DO"",""HE"",""CC"",""SC""]","[""AM09"",""AM03"",""WF11"",""BM04""]","[2,10,3,6]","[2,8,4,6]","","",""
"show-reward","184","1174258","0.0-184.0","p898823","ASCS0QEE54PUI","3RZS0FBRWLGDTA9TUPH81F59AWHPC0","3PWWM24LHU4ICKG41HVSS0WMS7Z82C","emotion","mismatch","uniform","","","","","","","","1176907","1178914","","","","","","","","","","","","2","","stimuli/stars_2.png","232","","","","","stimuli/AM09_DO.jpg","",""
"explore-choice","185","1175595","0.0-185.0","p898823","ASCS0QEE54PUI","3RZS0FBRWLGDTA9TUPH81F59AWHPC0","3PWWM24LHU4ICKG41HVSS0WMS7Z82C","emotion","mismatch","uniform","","","","","","","829","1178915","1179744","[""stimuli/AM03_SC.jpg"",""stimuli/BM04_CC.jpg"",""stimuli/WF11_HE.jpg"",""stimuli/AM09_DO.jpg""]","stimuli/AM03_SC.jpg","stimuli/BM04_CC.jpg","stimuli/WF11_HE.jpg","stimuli/AM09_DO.jpg","pos2","stimuli/BM04_CC.jpg","CC","BM04","1","4","8","6","stimuli/stars_8.png","236","[""SC"",""CC"",""HE"",""DO""]","[""AM03"",""BM04"",""WF11"",""AM09""]","[8,8,6,2]","[8,6,4,2]","","",""
"show-reward","186","1177604","0.0-186.0","p898823","ASCS0QEE54PUI","3RZS0FBRWLGDTA9TUPH81F59AWHPC0","3PWWM24LHU4ICKG41HVSS0WMS7Z82C","emotion","mismatch","uniform","","","","","","","","1180250","1182259","","","","","","","","","","","","8","","stimuli/stars_8.png","236","","","","","stimuli/BM04_CC.jpg","",""
"explore-choice","187","1178826","0.0-187.0","p898823","ASCS0QEE54PUI","3RZS0FBRWLGDTA9TUPH81F59AWHPC0","3PWWM24LHU4ICKG41HVSS0WMS7Z82C","emotion","mismatch","uniform","","","","","","","712","1182261","1182973","[""stimuli/AM03_DO.jpg"",""stimuli/BM04_HE.jpg"",""stimuli/WF11_CC.jpg"",""stimuli/AM09_SC.jpg""]","stimuli/AM03_DO.jpg","stimuli/BM04_HE.jpg","stimuli/WF11_CC.jpg","stimuli/AM09_SC.jpg","pos2","stimuli/BM04_HE.jpg","HE","BM04","1","3","6","6","stimuli/stars_6.png","239","[""DO"",""HE"",""CC"",""SC""]","[""AM03"",""BM04"",""WF11"",""AM09""]","[8,6,2,0]","[8,6,4,2]","","",""
"show-reward","188","1180841","0.0-188.0","p898823","ASCS0QEE54PUI","3RZS0FBRWLGDTA9TUPH81F59AWHPC0","3PWWM24LHU4ICKG41HVSS0WMS7Z82C","emotion","mismatch","uniform","","","","","","","","1183482","1185496","","","","","","","","","","","","6","","stimuli/stars_6.png","239","","","","","stimuli/BM04_HE.jpg","",""
"explore-choice","189","1182204","0.0-189.0","p898823","ASCS0QEE54PUI","3RZS0FBRWLGDTA9TUPH81F59AWHPC0","3PWWM24LHU4ICKG41HVSS0WMS7Z82C","emotion","mismatch","uniform","","","","","","","840","1185498","1186338","[""stimuli/WF11_HE.jpg"",""stimuli/AM09_SC.jpg"",""stimuli/AM03_CC.jpg"",""stimuli/BM04_DO.jpg""]","stimuli/WF11_HE.jpg","stimuli/AM09_SC.jpg","stimuli/AM03_CC.jpg","stimuli/BM04_DO.jpg","pos1","stimuli/WF11_HE.jpg","HE","WF11","0","1.5","3","4","stimuli/stars_3.png","240.5","[""HE"",""SC"",""CC"",""DO""]","[""WF11"",""AM09"",""AM03"",""BM04""]","[3,0,9,5]","[4,2,8,6]","","",""
"show-reward","190","1184214","0.0-190.0","p898823","ASCS0QEE54PUI","3RZS0FBRWLGDTA9TUPH81F59AWHPC0","3PWWM24LHU4ICKG41HVSS0WMS7Z82C","emotion","mismatch","uniform","","","","","","","","1186860","1188868","","","","","","","","","","","","3","","stimuli/stars_3.png","240.5","","","","","stimuli/WF11_HE.jpg","",""
"explore-choice","191","1185455","0.0-191.0","p898823","ASCS0QEE54PUI","3RZS0FBRWLGDTA9TUPH81F59AWHPC0","3PWWM24LHU4ICKG41HVSS0WMS7Z82C","emotion","mismatch","uniform","","","","","","","730","1188870","1189600","[""stimuli/AM09_SC.jpg"",""stimuli/BM04_HE.jpg"",""stimuli/AM03_CC.jpg"",""stimuli/WF11_DO.jpg""]","stimuli/AM09_SC.jpg","stimuli/BM04_HE.jpg","stimuli/AM03_CC.jpg","stimuli/WF11_DO.jpg","pos2","stimuli/BM04_HE.jpg","HE","BM04","1","3.5","7","6","stimuli/stars_7.png","244","[""SC"",""HE"",""CC"",""DO""]","[""AM09"",""BM04"",""AM03"",""WF11""]","[1,7,10,6]","[2,6,8,4]","","",""
"show-reward","192","1187475","0.0-192.0","p898823","ASCS0QEE54PUI","3RZS0FBRWLGDTA9TUPH81F59AWHPC0","3PWWM24LHU4ICKG41HVSS0WMS7Z82C","emotion","mismatch","uniform","","","","","","","","1190111","1192129","","","","","","","","","","","","7","","stimuli/stars_7.png","244","","","","","stimuli/BM04_HE.jpg","",""
"explore-choice","193","1189350","0.0-193.0","p898823","ASCS0QEE54PUI","3RZS0FBRWLGDTA9TUPH81F59AWHPC0","3PWWM24LHU4ICKG41HVSS0WMS7Z82C","emotion","mismatch","uniform","","","","","","","1363","1192131","1193494","[""stimuli/AM09_CC.jpg"",""stimuli/WF11_DO.jpg"",""stimuli/BM04_SC.jpg"",""stimuli/AM03_HE.jpg""]","stimuli/AM09_CC.jpg","stimuli/WF11_DO.jpg","stimuli/BM04_SC.jpg","stimuli/AM03_HE.jpg","pos2","stimuli/WF11_DO.jpg","DO","WF11","1","1.5","3","4","stimuli/stars_3.png","245.5","[""CC"",""DO"",""SC"",""HE""]","[""AM09"",""WF11"",""BM04"",""AM03""]","[1,3,7,10]","[2,4,6,8]","","",""
"show-reward","194","1191363","0.0-194.0","p898823","ASCS0QEE54PUI","3RZS0FBRWLGDTA9TUPH81F59AWHPC0","3PWWM24LHU4ICKG41HVSS0WMS7Z82C","emotion","mismatch","uniform","","","","","","","","1194006","1196017","","","","","","","","","","","","3","","stimuli/stars_3.png","245.5","","","","","stimuli/WF11_DO.jpg","",""
"explore-choice","195","1192869","0.0-195.0","p898823","ASCS0QEE54PUI","3RZS0FBRWLGDTA9TUPH81F59AWHPC0","3PWWM24LHU4ICKG41HVSS0WMS7Z82C","emotion","mismatch","uniform","","","","","","","998","1196018","1197016","[""stimuli/AM09_DO.jpg"",""stimuli/AM03_SC.jpg"",""stimuli/WF11_CC.jpg"",""stimuli/BM04_HE.jpg""]","stimuli/AM09_DO.jpg","stimuli/AM03_SC.jpg","stimuli/WF11_CC.jpg","stimuli/BM04_HE.jpg","pos4","stimuli/BM04_HE.jpg","HE","BM04","3","3","6","6","stimuli/stars_6.png","248.5","[""DO"",""SC"",""CC"",""HE""]","[""AM09"",""AM03"",""WF11"",""BM04""]","[0,10,6,6]","[2,8,4,6]","","",""
"show-reward","196","1194874","0.0-196.0","p898823","ASCS0QEE54PUI","3RZS0FBRWLGDTA9TUPH81F59AWHPC0","3PWWM24LHU4ICKG41HVSS0WMS7Z82C","emotion","mismatch","uniform","","","","","","","","1197525","1199529","","","","","","","","","","","","6","","stimuli/stars_6.png","248.5","","","","","stimuli/BM04_HE.jpg","",""
"explore-choice","197","1196455","0.0-197.0","p898823","ASCS0QEE54PUI","3RZS0FBRWLGDTA9TUPH81F59AWHPC0","3PWWM24LHU4ICKG41HVSS0WMS7Z82C","emotion","mismatch","uniform","","","","","","","1065","1199529","1200594","[""stimuli/WF11_SC.jpg"",""stimuli/AM03_HE.jpg"",""stimuli/AM09_DO.jpg"",""stimuli/BM04_CC.jpg""]","stimuli/WF11_SC.jpg","stimuli/AM03_HE.jpg","stimuli/AM09_DO.jpg","stimuli/BM04_CC.jpg","pos4","stimuli/BM04_CC.jpg","CC","BM04","3","2.5","5","6","stimuli/stars_5.png","251","[""SC"",""HE"",""DO"",""CC""]","[""WF11"",""AM03"",""AM09"",""BM04""]","[2,7,4,5]","[4,8,2,6]","","",""
"show-reward","198","1198475","0.0-198.0","p898823","ASCS0QEE54PUI","3RZS0FBRWLGDTA9TUPH81F59AWHPC0","3PWWM24LHU4ICKG41HVSS0WMS7Z82C","emotion","mismatch","uniform","","","","","","","","1201111","1203129","","","","","","","","","","","","5","","stimuli/stars_5.png","251","","","","","stimuli/BM04_CC.jpg","",""
"instructions","199","1201310","0.0-199.0","p898823","ASCS0QEE54PUI","3RZS0FBRWLGDTA9TUPH81F59AWHPC0","3PWWM24LHU4ICKG41HVSS0WMS7Z82C","emotion","mismatch","uniform","","","","","","[{""page_index"":0,""viewing_time"":2832}]","2833","","","","","","","","","","","","","","","","","","","","","","","",""
"survey-text","200","1203707","0.0-200.0-0.0","p898823","ASCS0QEE54PUI","3RZS0FBRWLGDTA9TUPH81F59AWHPC0","3PWWM24LHU4ICKG41HVSS0WMS7Z82C","emotion","mismatch","uniform","","","","","","","2388","","","","","","","","","","","","","","","","","","","","","","","{""age"":""24""}",""
"survey-text","201","1208761","0.0-200.0-1.0","p898823","ASCS0QEE54PUI","3RZS0FBRWLGDTA9TUPH81F59AWHPC0","3PWWM24LHU4ICKG41HVSS0WMS7Z82C","emotion","mismatch","uniform","","","","","","","5049","","","","","","","","","","","","","","","","","","","","","","","{""gender"":""female""}",""
"survey-text","202","1211784","0.0-200.0-2.0","p898823","ASCS0QEE54PUI","3RZS0FBRWLGDTA9TUPH81F59AWHPC0","3PWWM24LHU4ICKG41HVSS0WMS7Z82C","emotion","mismatch","uniform","","","","","","","3017","","","","","","","","","","","","","","","","","","","","","","","{""country"":""usa""}",""
"survey-text","203","1217466","0.0-200.0-3.0","p898823","ASCS0QEE54PUI","3RZS0FBRWLGDTA9TUPH81F59AWHPC0","3PWWM24LHU4ICKG41HVSS0WMS7Z82C","emotion","mismatch","uniform","","","","","","","5678","","","","","","","","","","","","","","","","","","","","","","","{""language"":""englishj"",""other_languages"":""""}",""
"survey-multi-select","204","1219659","0.0-201.0","p898823","ASCS0QEE54PUI","3RZS0FBRWLGDTA9TUPH81F59AWHPC0","3PWWM24LHU4ICKG41HVSS0WMS7Z82C","emotion","mismatch","uniform","","","","","","","2188","","","","","","","","","","","","","","","","","","","","","","","{""race"":[""Black or African American""]}","[0]"
"survey-multi-choice","205","1221344","0.0-202.0","p898823","ASCS0QEE54PUI","3RZS0FBRWLGDTA9TUPH81F59AWHPC0","3PWWM24LHU4ICKG41HVSS0WMS7Z82C","emotion","mismatch","uniform","","","","","","","1682","","","","","","","","","","","","","","","","","","","","","","","{""education"":""High school""}","[0]"
"survey-text","206","1225971","0.0-203.0","p898823","ASCS0QEE54PUI","3RZS0FBRWLGDTA9TUPH81F59AWHPC0","3PWWM24LHU4ICKG41HVSS0WMS7Z82C","emotion","mismatch","uniform","","","","","","","4617","","","","","","","","","","","","","","","","","","","","","","","{""patterns"":""no"",""strategy"":""no"",""comments"":""""}",""
