"trial_type","trial_index","time_elapsed","internal_node_id","subject","workerId","hitId","assignmentId","structure_condition","match_condition","noise_type","success","timeout","failed_images","failed_audio","failed_video","view_history","rt","start_time","end_time","stimuli","image1","image2","image3","image4","choiceLocation","choiceImage","choiceEmotion","choiceModel","choice_index","reward_score","reward","reward_score_unadjusted","reward_image","score_after_trial","emotions","models","rewards","rewards_unadjusted","stimulus","response","question_order"
"pavlovia","0","87","0.0-0.0","p238655","pilot_test","emogo","test_session","model","mismatch","uniform","","","","","","","","","","","","","","","","","","","","","","","","","","","","","","",""
"preload","1","6863","0.0-1.0","p238655","pilot_test","emogo","test_session","model","mismatch","uniform","true","false","[]","[]","[]","","","","","","","","","","","","","","","","","","","","","","","","","",""
"fullscreen","2","9091","0.0-2.0","p238655","pilot_test","emogo","test_session","model","mismatch","uniform","true","","","","","","","","","","","","","","","","","","","","","","","","","","","","","",""
"instructions","3","12610","0.0-3.0","p238655","pilot_test","emogo","test_session","model","mismatch","uniform","","","","","","[{""page_index"":0,""viewing_time"":3517.5999999940395}]","3518.2000000178814","","","","","","","","","","","","","","","","","","","","","","","",""
"explore-choice","4","14807","0.0-4.0","p238655","pilot_test","emogo","test_session","model","mismatch","uniform","","","","","","","1695.699999988079","14211.5","15907.199999988079","[""stimuli/sheep.jpg"",""stimuli/hammer.jpg"",""stimuli/basketball.jpg"",""stimuli/horse.jpg""]","stimuli/sheep.jpg","stimuli/hammer.jpg","stimuli/basketball.jpg","stimuli/horse.jpg","pos4","stimuli/horse.jpg","","","3","64","64","64","stimuli/stars_8.png","65","","","","","","",""
"explore-choice","5","16394","0.0-5.0","p238655","pilot_test","emogo","test_session","model","mismatch","uniform","","","","","","","1085.9000000059605","16409","17494.90000000596","[""stimuli/hammer.jpg"",""stimuli/basketball.jpg"",""stimuli/horse.jpg"",""stimuli/sheep.jpg""]","stimuli/hammer.jpg","stimuli/basketball.jpg","stimuli/horse.jpg","stimuli/sheep.jpg","pos1","stimuli/hammer.jpg","","","0","8","8","8","stimuli/stars_2.png","9","","","","","","",""
"instructions","6","34411","0.0-6.0","p238655","pilot_test","emogo","test_session","model","mismatch","uniform","","","","","","[{""page_index"":0,""viewing_time"":18016.69999998808}]","18017.09999999404","","","","","","","","","","","","","","","","","","","","","","","",""
"explore-choice","7","37500","0.0-7.0","p238655","pilot_test","emogo","test_session","model","mismatch","uniform","","","","","","","2586.300000011921","36014.5","38600.80000001192","[""stimuli/HM09_SC.jpg"",""stimuli/WF06_DO.jpg"",""stimuli/WM09_FO.jpg"",""stimuli/WF14_HO.jpg""]","stimuli/HM09_SC.jpg","stimuli/WF06_DO.jpg","stimuli/WM09_FO.jpg","stimuli/WF14_HO.jpg","pos4","stimuli/WF14_HO.jpg","HO","WF14","3","3.5","7","6","stimuli/stars_7.png","4.5","[""SC"",""DO"",""FO"",""HO""]","[""HM09"",""WF06"",""WM09"",""WF14""]","[7,5,2,7]","[8,4,2,6]","","",""
"show-reward","8","39504","0.0-8.0","p238655","pilot_test","emogo","test_session","model","mismatch","uniform","","","","","","","","39103.40000000596","41106","","","","","","","","","","","","7","","stimuli/stars_7.png","4.5","","","","","stimuli/WF14_HO.jpg","",""
"explore-choice","9","41777","0.0-9.0","p238655","pilot_test","emogo","test_session","model","mismatch","uniform","","","","","","","1771.5","41107.09999999404","42878.59999999404","[""stimuli/WF06_DO.jpg"",""stimuli/HM09_FO.jpg"",""stimuli/WF14_SC.jpg"",""stimuli/WM09_HO.jpg""]","stimuli/WF06_DO.jpg","stimuli/HM09_FO.jpg","stimuli/WF14_SC.jpg","stimuli/WM09_HO.jpg","pos3","stimuli/WF14_SC.jpg","SC","WF14","2","3.5","7","6","stimuli/stars_7.png","8","[""DO"",""FO"",""SC"",""HO""]","[""WF06"",""HM09"",""WF14"",""WM09""]","[4,10,7,2]","[4,8,6,2]","","",""
"show-reward","10","43781","0.0-10.0","p238655","pilot_test","emogo","test_session","model","mismatch","uniform","","","","","","","","43379.90000000596","45382.5","","","","","","","","","","","","7","","stimuli/stars_7.png","8","","","","","stimuli/WF14_SC.jpg","",""
"explore-choice","11","45256","0.0-11.0","p238655","pilot_test","emogo","test_session","model","mismatch","uniform","","","","","","","969.2999999821186","45383.40000000596","46352.69999998808","[""stimuli/WF06_SC.jpg"",""stimuli/WF14_FO.jpg"",""stimuli/WM09_HO.jpg"",""stimuli/HM09_DO.jpg""]","stimuli/WF06_SC.jpg","stimuli/WF14_FO.jpg","stimuli/WM09_HO.jpg","stimuli/HM09_DO.jpg","pos4","stimuli/HM09_DO.jpg","DO","HM09","3","3","6","8","stimuli/stars_6.png","11","[""SC"",""FO"",""HO"",""DO""]","[""WF06"",""WF14"",""WM09"",""HM09""]","[5,5,4,6]","[4,6,2,8]","","",""
"show-reward","12","47258","0.0-12.0","p238655","pilot_test","emogo","test_session","model","mismatch","uniform","","","","","","","","46858.40000000596","48860.40000000596","","","","","","","","","","","","6","","stimuli/stars_6.png","11","","","","","stimuli/HM09_DO.jpg","",""
"explore-choice","13","50313","0.0-13.0","p238655","pilot_test","emogo","test_session","model","mismatch","uniform","","","","","","","2553.5999999940395","48861.30000001192","51414.90000000596","[""stimuli/HM09_DO.jpg"",""stimuli/WM09_FO.jpg"",""stimuli/WF14_HO.jpg"",""stimuli/WF06_SC.jpg""]","stimuli/HM09_DO.jpg","stimuli/WM09_FO.jpg","stimuli/WF14_HO.jpg","stimuli/WF06_SC.jpg","pos2","stimuli/WM09_FO.jpg","FO","WM09","1","2","4","2","stimuli/stars_4.png","13","[""DO"",""FO"",""HO"",""SC""]","[""HM09"",""WM09"",""WF14"",""WF06""]","[6,4,7,2]","[8,2,6,4]","","",""
"show-reward","14","52319","0.0-14.0","p238655","pilot_test","emogo","test_session","model","mismatch","uniform","","","","","","","","51916.09999999404","53920.59999999404","","","","","","","","","","","","4","","stimuli/stars_4.png","13","","","","","stimuli/WM09_FO.jpg","",""
"explore-choice","15","53722","0.0-15.0","p238655","pilot_test","emogo","test_session","model","mismatch","uniform","","","","","","","899.1999999880791","53921.80000001192","54821","[""stimuli/WF14_DO.jpg"",""stimuli/WM09_HO.jpg"",""stimuli/WF06_SC.jpg"",""stimuli/HM09_FO.jpg""]","stimuli/WF14_DO.jpg","stimuli/WM09_HO.jpg","stimuli/WF06_SC.jpg","stimuli/HM09_FO.jpg","pos4","stimuli/HM09_FO.jpg","FO","HM09","3","3","6","8","stimuli/stars_6.png","16","[""DO"",""HO"",""SC"",""FO""]","[""WF14"",""WM09"",""WF06"",""HM09""]","[4,2,3,6]","[6,2,4,8]","","",""
"show-reward","16","55727","0.0-16.0","p238655","pilot_test","emogo","test_session","model","mismatch","uniform","","","","","","","","55325.30000001192","57329","","","","","","","","","","","","6","","stimuli/stars_6.png","16","","","","","stimuli/HM09_FO.jpg","",""
"explore-choice","17","58342","0.0-17.0","p238655","pilot_test","emogo","test_session","model","mismatch","uniform","","","","","","","2114.5999999940395","57329.80000001192","59444.40000000596","[""stimuli/HM09_SC.jpg"",""stimuli/WF06_FO.jpg"",""stimuli/WF14_HO.jpg"",""stimuli/WM09_DO.jpg""]","stimuli/HM09_SC.jpg","stimuli/WF06_FO.jpg","stimuli/WF14_HO.jpg","stimuli/WM09_DO.jpg","pos3","stimuli/WF14_HO.jpg","HO","WF14","2","3.5","7","6","stimuli/stars_7.png","19.5","[""SC"",""FO"",""HO"",""DO""]","[""HM09"",""WF06"",""WF14"",""WM09""]","[7,4,7,0]","[8,4,6,2]","","",""
"show-reward","18","60347","0.0-18.0","p238655","pilot_test","emogo","test_session","model","mismatch","uniform","","","","","","","","59945.59999999404","61949.19999998808","","","","","","","","","","","","7","","stimuli/stars_7.png","19.5","","","","","stimuli/WF14_HO.jpg","",""
"explore-choice","19","62022","0.0-19.0","p238655","pilot_test","emogo","test_session","model","mismatch","uniform","","","","","","","1170.699999988079","61950.30000001192","63121","[""stimuli/HM09_FO.jpg"",""stimuli/WF06_SC.jpg"",""stimuli/WF14_HO.jpg"",""stimuli/WM09_DO.jpg""]","stimuli/HM09_FO.jpg","stimuli/WF06_SC.jpg","stimuli/WF14_HO.jpg","stimuli/WM09_DO.jpg","pos3","stimuli/WF14_HO.jpg","HO","WF14","2","3.5","7","6","stimuli/stars_7.png","23","[""FO"",""SC"",""HO"",""DO""]","[""HM09"",""WF06"",""WF14"",""WM09""]","[6,5,7,3]","[8,4,6,2]","","",""
"show-reward","20","64025","0.0-20.0","p238655","pilot_test","emogo","test_session","model","mismatch","uniform","","","","","","","","63625.09999999404","65627.19999998808","","","","","","","","","","","","7","","stimuli/stars_7.png","23","","","","","stimuli/WF14_HO.jpg","",""
"explore-choice","21","65882","0.0-21.0","p238655","pilot_test","emogo","test_session","model","mismatch","uniform","","","","","","","1355.0999999940395","65628","66983.09999999404","[""stimuli/WF14_FO.jpg"",""stimuli/WM09_DO.jpg"",""stimuli/WF06_HO.jpg"",""stimuli/HM09_SC.jpg""]","stimuli/WF14_FO.jpg","stimuli/WM09_DO.jpg","stimuli/WF06_HO.jpg","stimuli/HM09_SC.jpg","pos3","stimuli/WF06_HO.jpg","HO","WF06","2","3","6","4","stimuli/stars_6.png","26","[""FO"",""DO"",""HO"",""SC""]","[""WF14"",""WM09"",""WF06"",""HM09""]","[6,0,6,7]","[6,2,4,8]","","",""
"show-reward","22","67887","0.0-22.0","p238655","pilot_test","emogo","test_session","model","mismatch","uniform","","","","","","","","67485.5","69490","","","","","","","","","","","","6","","stimuli/stars_6.png","26","","","","","stimuli/WF06_HO.jpg","",""
"explore-choice","23","70741","0.0-23.0","p238655","pilot_test","emogo","test_session","model","mismatch","uniform","","","","","","","2347.800000011921","69491","71838.80000001192","[""stimuli/WF06_FO.jpg"",""stimuli/HM09_HO.jpg"",""stimuli/WF14_DO.jpg"",""stimuli/WM09_SC.jpg""]","stimuli/WF06_FO.jpg","stimuli/HM09_HO.jpg","stimuli/WF14_DO.jpg","stimuli/WM09_SC.jpg","pos2","stimuli/HM09_HO.jpg","HO","HM09","1","5","10","8","stimuli/stars_10.png","31","[""FO"",""HO"",""DO"",""SC""]","[""WF06"",""HM09"",""WF14"",""WM09""]","[3,10,6,4]","[4,8,6,2]","","",""
"show-reward","24","72747","0.0-24.0","p238655","pilot_test","emogo","test_session","model","mismatch","uniform","","","","","","","","72344.5","74350","","","","","","","","","","","","10","","stimuli/stars_10.png","31","","","","","stimuli/HM09_HO.jpg","",""
"explore-choice","25","74877","0.0-25.0","p238655","pilot_test","emogo","test_session","model","mismatch","uniform","","","","","","","1628.2999999821186","74350.90000000596","75979.19999998808","[""stimuli/WF14_FO.jpg"",""stimuli/HM09_DO.jpg"",""stimuli/WM09_SC.jpg"",""stimuli/WF06_HO.jpg""]","stimuli/WF14_FO.jpg","stimuli/HM09_DO.jpg","stimuli/WM09_SC.jpg","stimuli/WF06_HO.jpg","pos4","stimuli/WF06_HO.jpg","HO","WF06","3","1","2","4","stimuli/stars_2.png","32","[""FO"",""DO"",""SC"",""HO""]","[""WF14"",""HM09"",""WM09"",""WF06""]","[8,9,2,2]","[6,8,2,4]","","",""
"show-reward","26","76880","0.0-26.0","p238655","pilot_test","emogo","test_session","model","mismatch","uniform","","","","","","","","76480.59999999404","78482.59999999404","","","","","","","","","","","","2","","stimuli/stars_2.png","32","","","","","stimuli/WF06_HO.jpg","",""
"explore-choice","27","79877","0.0-27.0","p238655","pilot_test","emogo","test_session","model","mismatch","uniform","","","","","","","2493.7999999821186","78483.40000000596","80977.19999998808","[""stimuli/WF14_FO.jpg"",""stimuli/WF06_DO.jpg"",""stimuli/HM09_SC.jpg"",""stimuli/WM09_HO.jpg""]","stimuli/WF14_FO.jpg","stimuli/WF06_DO.jpg","stimuli/HM09_SC.jpg","stimuli/WM09_HO.jpg","pos4","stimuli/WM09_HO.jpg","HO","WM09","3","0","0","2","stimuli/stars_0.png","32","[""FO"",""DO"",""SC"",""HO""]","[""WF14"",""WF06"",""HM09"",""WM09""]","[5,5,9,0]","[6,4,8,2]","","",""
"show-reward","28","81879","0.0-28.0","p238655","pilot_test","emogo","test_session","model","mismatch","uniform","","","","","","","","81480.5","83482.19999998808","","","","","","","","","","","","0","","stimuli/stars_0.png","32","","","","","stimuli/WM09_HO.jpg","",""
"explore-choice","29","86009","0.0-29.0","p238655","pilot_test","emogo","test_session","model","mismatch","uniform","","","","","","","3628.199999988079","83483","87111.19999998808","[""stimuli/WF06_FO.jpg"",""stimuli/WF14_HO.jpg"",""stimuli/HM09_DO.jpg"",""stimuli/WM09_SC.jpg""]","stimuli/WF06_FO.jpg","stimuli/WF14_HO.jpg","stimuli/HM09_DO.jpg","stimuli/WM09_SC.jpg","pos1","stimuli/WF06_FO.jpg","FO","WF06","0","1.5","3","4","stimuli/stars_3.png","33.5","[""FO"",""HO"",""DO"",""SC""]","[""WF06"",""WF14"",""HM09"",""WM09""]","[3,4,8,4]","[4,6,8,2]","","",""
"show-reward","30","88013","0.0-30.0","p238655","pilot_test","emogo","test_session","model","mismatch","uniform","","","","","","","","87613.09999999404","89616.80000001192","","","","","","","","","","","","3","","stimuli/stars_3.png","33.5","","","","","stimuli/WF06_FO.jpg","",""
"explore-choice","31","91426","0.0-31.0","p238655","pilot_test","emogo","test_session","model","mismatch","uniform","","","","","","","2911.5999999940395","89617.5","92529.09999999404","[""stimuli/WM09_SC.jpg"",""stimuli/WF14_FO.jpg"",""stimuli/HM09_HO.jpg"",""stimuli/WF06_DO.jpg""]","stimuli/WM09_SC.jpg","stimuli/WF14_FO.jpg","stimuli/HM09_HO.jpg","stimuli/WF06_DO.jpg","pos3","stimuli/HM09_HO.jpg","HO","HM09","2","5","10","8","stimuli/stars_10.png","38.5","[""SC"",""FO"",""HO"",""DO""]","[""WM09"",""WF14"",""HM09"",""WF06""]","[4,7,10,2]","[2,6,8,4]","","",""
"show-reward","32","93435","0.0-32.0","p238655","pilot_test","emogo","test_session","model","mismatch","uniform","","","","","","","","93030.5","95038.19999998808","","","","","","","","","","","","10","","stimuli/stars_10.png","38.5","","","","","stimuli/HM09_HO.jpg","",""
"explore-choice","33","95625","0.0-33.0","p238655","pilot_test","emogo","test_session","model","mismatch","uniform","","","","","","","1688.0999999940395","95039","96727.09999999404","[""stimuli/WM09_FO.jpg"",""stimuli/HM09_HO.jpg"",""stimuli/WF14_DO.jpg"",""stimuli/WF06_SC.jpg""]","stimuli/WM09_FO.jpg","stimuli/HM09_HO.jpg","stimuli/WF14_DO.jpg","stimuli/WF06_SC.jpg","pos3","stimuli/WF14_DO.jpg","DO","WF14","2","2","4","6","stimuli/stars_4.png","40.5","[""FO"",""HO"",""DO"",""SC""]","[""WM09"",""HM09"",""WF14"",""WF06""]","[0,9,4,3]","[2,8,6,4]","","",""
"show-reward","34","97631","0.0-34.0","p238655","pilot_test","emogo","test_session","model","mismatch","uniform","","","","","","","","97229.40000000596","99234.59999999404","","","","","","","","","","","","4","","stimuli/stars_4.png","40.5","","","","","stimuli/WF14_DO.jpg","",""
"explore-choice","35","98873","0.0-35.0","p238655","pilot_test","emogo","test_session","model","mismatch","uniform","","","","","","","735.8000000119209","99235.5","99971.30000001192","[""stimuli/WF14_FO.jpg"",""stimuli/HM09_HO.jpg"",""stimuli/WF06_SC.jpg"",""stimuli/WM09_DO.jpg""]","stimuli/WF14_FO.jpg","stimuli/HM09_HO.jpg","stimuli/WF06_SC.jpg","stimuli/WM09_DO.jpg","pos4","stimuli/WM09_DO.jpg","DO","WM09","3","1","2","2","stimuli/stars_2.png","41.5","[""FO"",""HO"",""SC"",""DO""]","[""WF14"",""HM09"",""WF06"",""WM09""]","[7,8,3,2]","[6,8,4,2]","","",""
"show-reward","36","100877","0.0-36.0","p238655","pilot_test","emogo","test_session","model","mismatch","uniform","","","","","","","","100477.09999999404","102481.09999999404","","","","","","","","","","","","2","","stimuli/stars_2.png","41.5","","","","","stimuli/WM09_DO.jpg","",""
"explore-choice","37","103348","0.0-37.0","p238655","pilot_test","emogo","test_session","model","mismatch","uniform","","","","","","","1969","102482.09999999404","104451.09999999404","[""stimuli/WF06_FO.jpg"",""stimuli/WF14_SC.jpg"",""stimuli/WM09_HO.jpg"",""stimuli/HM09_DO.jpg""]","stimuli/WF06_FO.jpg","stimuli/WF14_SC.jpg","stimuli/WM09_HO.jpg","stimuli/HM09_DO.jpg","pos1","stimuli/WF06_FO.jpg","FO","WF06","0","2.5","5","4","stimuli/stars_5.png","44","[""FO"",""SC"",""HO"",""DO""]","[""WF06"",""WF14"",""WM09"",""HM09""]","[5,5,1,8]","[4,6,2,8]","","",""
"show-reward","38","105356","0.0-38.0","p238655","pilot_test","emogo","test_session","model","mismatch","uniform","","","","","","","","104953","106960","","","","","","","","","","","","5","","stimuli/stars_5.png","44","","","","","stimuli/WF06_FO.jpg","",""
"explore-choice","39","111254","0.0-39.0","p238655","pilot_test","emogo","test_session","model","mismatch","uniform","","","","","","","5394.299999982119","106960.80000001192","112355.09999999404","[""stimuli/WF06_HO.jpg"",""stimuli/WM09_DO.jpg"",""stimuli/WF14_SC.jpg"",""stimuli/HM09_FO.jpg""]","stimuli/WF06_HO.jpg","stimuli/WM09_DO.jpg","stimuli/WF14_SC.jpg","stimuli/HM09_FO.jpg","pos1","stimuli/WF06_HO.jpg","HO","WF06","0","2","4","4","stimuli/stars_4.png","46","[""HO"",""DO"",""SC"",""FO""]","[""WF06"",""WM09"",""WF14"",""HM09""]","[4,3,4,8]","[4,2,6,8]","","",""
"show-reward","40","113259","0.0-40.0","p238655","pilot_test","emogo","test_session","model","mismatch","uniform","","","","","","","","112859.09999999404","114863.30000001192","","","","","","","","","","","","4","","stimuli/stars_4.png","46","","","","","stimuli/WF06_HO.jpg","",""
"explore-choice","41","115385","0.0-41.0","p238655","pilot_test","emogo","test_session","model","mismatch","uniform","","","","","","","1624.9000000059605","114864.19999998808","116489.09999999404","[""stimuli/WF14_HO.jpg"",""stimuli/WF06_DO.jpg"",""stimuli/HM09_FO.jpg"",""stimuli/WM09_SC.jpg""]","stimuli/WF14_HO.jpg","stimuli/WF06_DO.jpg","stimuli/HM09_FO.jpg","stimuli/WM09_SC.jpg","pos4","stimuli/WM09_SC.jpg","SC","WM09","3","0","0","2","stimuli/stars_0.png","46","[""HO"",""DO"",""FO"",""SC""]","[""WF14"",""WF06"",""HM09"",""WM09""]","[7,3,9,0]","[6,4,8,2]","","",""
"show-reward","42","117388","0.0-42.0","p238655","pilot_test","emogo","test_session","model","mismatch","uniform","","","","","","","","116990.19999998808","118992.80000001192","","","","","","","","","","","","0","","stimuli/stars_0.png","46","","","","","stimuli/WM09_SC.jpg","",""
"explore-choice","43","118820","0.0-43.0","p238655","pilot_test","emogo","test_session","model","mismatch","uniform","","","","","","","930.8000000119209","118993.59999999404","119924.40000000596","[""stimuli/HM09_DO.jpg"",""stimuli/WF14_SC.jpg"",""stimuli/WF06_HO.jpg"",""stimuli/WM09_FO.jpg""]","stimuli/HM09_DO.jpg","stimuli/WF14_SC.jpg","stimuli/WF06_HO.jpg","stimuli/WM09_FO.jpg","pos3","stimuli/WF06_HO.jpg","HO","WF06","2","2","4","4","stimuli/stars_4.png","48","[""DO"",""SC"",""HO"",""FO""]","[""HM09"",""WF14"",""WF06"",""WM09""]","[8,6,4,4]","[8,6,4,2]","","",""
"show-reward","44","120826","0.0-44.0","p238655","pilot_test","emogo","test_session","model","mismatch","uniform","","","","","","","","120425.40000000596","122430.40000000596","","","","","","","","","","","","4","","stimuli/stars_4.png","48","","","","","stimuli/WF06_HO.jpg","",""
"explore-choice","45","122713","0.0-45.0","p238655","pilot_test","emogo","test_session","model","mismatch","uniform","","","","","","","1385.4000000059605","122431.19999998808","123816.59999999404","[""stimuli/HM09_FO.jpg"",""stimuli/WM09_SC.jpg"",""stimuli/WF14_DO.jpg"",""stimuli/WF06_HO.jpg""]","stimuli/HM09_FO.jpg","stimuli/WM09_SC.jpg","stimuli/WF14_DO.jpg","stimuli/WF06_HO.jpg","pos1","stimuli/HM09_FO.jpg","FO","HM09","0","5","10","8","stimuli/stars_10.png","53","[""FO"",""SC"",""DO"",""HO""]","[""HM09"",""WM09"",""WF14"",""WF06""]","[10,4,4,4]","[8,2,6,4]","","",""
"show-reward","46","124719","0.0-46.0","p238655","pilot_test","emogo","test_session","model","mismatch","uniform","","","","","","","","124318.09999999404","126324.09999999404","","","","","","","","","","","","10","","stimuli/stars_10.png","53","","","","","stimuli/HM09_FO.jpg","",""
"explore-choice","47","126121","0.0-47.0","p238655","pilot_test","emogo","test_session","model","mismatch","uniform","","","","","","","896.1999999880791","126324.80000001192","127221","[""stimuli/WF06_DO.jpg"",""stimuli/WM09_FO.jpg"",""stimuli/HM09_HO.jpg"",""stimuli/WF14_SC.jpg""]","stimuli/WF06_DO.jpg","stimuli/WM09_FO.jpg","stimuli/HM09_HO.jpg","stimuli/WF14_SC.jpg","pos3","stimuli/HM09_HO.jpg","HO","HM09","2","4.5","9","8","stimuli/stars_9.png","57.5","[""DO"",""FO"",""HO"",""SC""]","[""WF06"",""WM09"",""HM09"",""WF14""]","[3,0,9,5]","[4,2,8,6]","","",""
"show-reward","48","128123","0.0-48.0","p238655","pilot_test","emogo","test_session","model","mismatch","uniform","","","","","","","","127726","129727.90000000596","","","","","","","","","","","","9","","stimuli/stars_9.png","57.5","","","","","stimuli/HM09_HO.jpg","",""
"explore-choice","49","129693","0.0-49.0","p238655","pilot_test","emogo","test_session","model","mismatch","uniform","","","","","","","1064.3999999761581","129728.80000001192","130793.19999998808","[""stimuli/WF14_DO.jpg"",""stimuli/HM09_SC.jpg"",""stimuli/WM09_FO.jpg"",""stimuli/WF06_HO.jpg""]","stimuli/WF14_DO.jpg","stimuli/HM09_SC.jpg","stimuli/WM09_FO.jpg","stimuli/WF06_HO.jpg","pos2","stimuli/HM09_SC.jpg","SC","HM09","1","5","10","8","stimuli/stars_10.png","62.5","[""DO"",""SC"",""FO"",""HO""]","[""WF14"",""HM09"",""WM09"",""WF06""]","[7,10,3,6]","[6,8,2,4]","","",""
"show-reward","50","131700","0.0-50.0","p238655","pilot_test","emogo","test_session","model","mismatch","uniform","","","","","","","","131298.69999998808","133304.69999998808","","","","","","","","","","","","10","","stimuli/stars_10.png","62.5","","","","","stimuli/HM09_SC.jpg","",""
"explore-choice","51","133159","0.0-51.0","p238655","pilot_test","emogo","test_session","model","mismatch","uniform","","","","","","","953.5999999940395","133305.5","134259.09999999404","[""stimuli/WF06_FO.jpg"",""stimuli/WF14_DO.jpg"",""stimuli/HM09_SC.jpg"",""stimuli/WM09_HO.jpg""]","stimuli/WF06_FO.jpg","stimuli/WF14_DO.jpg","stimuli/HM09_SC.jpg","stimuli/WM09_HO.jpg","pos3","stimuli/HM09_SC.jpg","SC","HM09","2","5","10","8","stimuli/stars_10.png","67.5","[""FO"",""DO"",""SC"",""HO""]","[""WF06"",""WF14"",""HM09"",""WM09""]","[6,5,10,0]","[4,6,8,2]","","",""
"show-reward","52","135167","0.0-52.0","p238655","pilot_test","emogo","test_session","model","mismatch","uniform","","","","","","","","134765","136772","","","","","","","","","","","","10","","stimuli/stars_10.png","67.5","","","","","stimuli/HM09_SC.jpg","",""
"explore-choice","53","137099","0.0-53.0","p238655","pilot_test","emogo","test_session","model","mismatch","uniform","","","","","","","1428.0999999940395","136772.80000001192","138200.90000000596","[""stimuli/WM09_DO.jpg"",""stimuli/WF06_FO.jpg"",""stimuli/WF14_SC.jpg"",""stimuli/HM09_HO.jpg""]","stimuli/WM09_DO.jpg","stimuli/WF06_FO.jpg","stimuli/WF14_SC.jpg","stimuli/HM09_HO.jpg","pos4","stimuli/HM09_HO.jpg","HO","HM09","3","3","6","8","stimuli/stars_6.png","70.5","[""DO"",""FO"",""SC"",""HO""]","[""WM09"",""WF06"",""WF14"",""HM09""]","[1,4,4,6]","[2,4,6,8]","","",""
"show-reward","54","139107","0.0-54.0","p238655","pilot_test","emogo","test_session","model","mismatch","uniform","","","","","","","","138705.09999999404","140711.90000000596","","","","","","","","","","","","6","","stimuli/stars_6.png","70.5","","","","","stimuli/HM09_HO.jpg","",""
"explore-choice","55","140666","0.0-55.0","p238655","pilot_test","emogo","test_session","model","mismatch","uniform","","","","","","","1056.300000011921","140712.69999998808","141769","[""stimuli/WF14_FO.jpg"",""stimuli/WM09_SC.jpg"",""stimuli/HM09_HO.jpg"",""stimuli/WF06_DO.jpg""]","stimuli/WF14_FO.jpg","stimuli/WM09_SC.jpg","stimuli/HM09_HO.jpg","stimuli/WF06_DO.jpg","pos3","stimuli/HM09_HO.jpg","HO","HM09","2","5","10","8","stimuli/stars_10.png","75.5","[""FO"",""SC"",""HO"",""DO""]","[""WF14"",""WM09"",""HM09"",""WF06""]","[7,4,10,2]","[6,2,8,4]","","",""
"show-reward","56","142673","0.0-56.0","p238655","pilot_test","emogo","test_session","model","mismatch","uniform","","","","","","","","142271.90000000596","144278.59999999404","","","","","","","","","","","","10","","stimuli/stars_10.png","75.5","","","","","stimuli/HM09_HO.jpg","",""
"explore-choice","57","144327","0.0-57.0","p238655","pilot_test","emogo","test_session","model","mismatch","uniform","","","","","","","1149.4000000059605","144279.40000000596","145428.80000001192","[""stimuli/HM09_FO.jpg"",""stimuli/WM09_DO.jpg"",""stimuli/WF14_SC.jpg"",""stimuli/WF06_HO.jpg""]","stimuli/HM09_FO.jpg","stimuli/WM09_DO.jpg","stimuli/WF14_SC.jpg","stimuli/WF06_HO.jpg","pos1","stimuli/HM09_FO.jpg","FO","HM09","0","4","8","8","stimuli/stars_8.png","79.5","[""FO"",""DO"",""SC"",""HO""]","[""HM09"",""WM09"",""WF14"",""WF06""]","[8,3,4,4]","[8,2,6,4]","","",""
"show-reward","58","146330","0.0-58.0","p238655","pilot_test","emogo","test_session","model","mismatch","uniform","","","","","","","","145932.90000000596","147934.90000000596","","","","","","","","","","","","8","","stimuli/stars_8.png","79.5","","","","","stimuli/HM09_FO.jpg","",""
"explore-choice","59","147915","0.0-59.0","p238655","pilot_test","emogo","test_session","model","mismatch","uniform","","","","","","","1083.2999999821186","147935.80000001192","149019.09999999404","[""stimuli/HM09_HO.jpg"",""stimuli/WM09_FO.jpg"",""stimuli/WF14_SC.jpg"",""stimuli/WF06_DO.jpg""]","stimuli/HM09_HO.jpg","stimuli/WM09_FO.jpg","stimuli/WF14_SC.jpg","stimuli/WF06_DO.jpg","pos1","stimuli/HM09_HO.jpg","HO","HM09","0","4.5","9","8","stimuli/stars_9.png","84","[""HO"",""FO"",""SC"",""DO""]","[""HM09"",""WM09"",""WF14"",""WF06""]","[9,0,5,3]","[8,2,6,4]","","",""
"show-reward","60","149920","0.0-60.0","p238655","pilot_test","emogo","test_session","model","mismatch","uniform","","","","","","","","149521.09999999404","151525.09999999404","","","","","","","","","","","","9","","stimuli/stars_9.png","84","","","","","stimuli/HM09_HO.jpg","",""
"explore-choice","61","151372","0.0-61.0","p238655","pilot_test","emogo","test_session","model","mismatch","uniform","","","","","","","950.5999999940395","151526","152476.59999999404","[""stimuli/WM09_DO.jpg"",""stimuli/HM09_HO.jpg"",""stimuli/WF14_SC.jpg"",""stimuli/WF06_FO.jpg""]","stimuli/WM09_DO.jpg","stimuli/HM09_HO.jpg","stimuli/WF14_SC.jpg","stimuli/WF06_FO.jpg","pos2","stimuli/HM09_HO.jpg","HO","HM09","1","3","6","8","stimuli/stars_6.png","87","[""DO"",""HO"",""SC"",""FO""]","[""WM09"",""HM09"",""WF14"",""WF06""]","[1,6,4,4]","[2,8,6,4]","","",""
"show-reward","62","153379","0.0-62.0","p238655","pilot_test","emogo","test_session","model","mismatch","uniform","","","","","","","","152977.80000001192","154984.5","","","","","","","","","","","","6","","stimuli/stars_6.png","87","","","","","stimuli/HM09_HO.jpg","",""
"explore-choice","63","155595","0.0-63.0","p238655","pilot_test","emogo","test_session","model","mismatch","uniform","","","","","","","1713.699999988079","154985.40000000596","156699.09999999404","[""stimuli/WF06_SC.jpg"",""stimuli/WF14_HO.jpg"",""stimuli/HM09_DO.jpg"",""stimuli/WM09_FO.jpg""]","stimuli/WF06_SC.jpg","stimuli/WF14_HO.jpg","stimuli/HM09_DO.jpg","stimuli/WM09_FO.jpg","pos3","stimuli/HM09_DO.jpg","DO","HM09","2","3","6","8","stimuli/stars_6.png","90","[""SC"",""HO"",""DO"",""FO""]","[""WF06"",""WF14"",""HM09"",""WM09""]","[2,7,6,4]","[4,6,8,2]","","",""
"show-reward","64","157598","0.0-64.0","p238655","pilot_test","emogo","test_session","model","mismatch","uniform","","","","","","","","157201.30000001192","159203.30000001192","","","","","","","","","","","","6","","stimuli/stars_6.png","90","","","","","stimuli/HM09_DO.jpg","",""
"explore-choice","65","159470","0.0-65.0","p238655","pilot_test","emogo","test_session","model","mismatch","uniform","","","","","","","1369.0999999940395","159204","160573.09999999404","[""stimuli/WF06_SC.jpg"",""stimuli/WM09_DO.jpg"",""stimuli/HM09_FO.jpg"",""stimuli/WF14_HO.jpg""]","stimuli/WF06_SC.jpg","stimuli/WM09_DO.jpg","stimuli/HM09_FO.jpg","stimuli/WF14_HO.jpg","pos3","stimuli/HM09_FO.jpg","FO","HM09","2","3","6","8","stimuli/stars_6.png","93","[""SC"",""DO"",""FO"",""HO""]","[""WF06"",""WM09"",""HM09"",""WF14""]","[5,3,6,7]","[4,2,8,6]","","",""
"show-reward","66","161478","0.0-66.0","p238655","pilot_test","emogo","test_session","model","mismatch","uniform","","","","","","","","161076.80000001192","163083.80000001192","","","","","","","","","","","","6","","stimuli/stars_6.png","93","","","","","stimuli/HM09_FO.jpg","",""
"explore-choice","67","163158","0.0-67.0","p238655","pilot_test","emogo","test_session","model","mismatch","uniform","","","","","","","1174.4000000059605","163084.69999998808","164259.09999999404","[""stimuli/WM09_SC.jpg"",""stimuli/WF06_FO.jpg"",""stimuli/WF14_DO.jpg"",""stimuli/HM09_HO.jpg""]","stimuli/WM09_SC.jpg","stimuli/WF06_FO.jpg","stimuli/WF14_DO.jpg","stimuli/HM09_HO.jpg","pos4","stimuli/HM09_HO.jpg","HO","HM09","3","5","10","8","stimuli/stars_10.png","98","[""SC"",""FO"",""DO"",""HO""]","[""WM09"",""WF06"",""WF14"",""HM09""]","[4,3,6,10]","[2,4,6,8]","","",""
"show-reward","68","165163","0.0-68.0","p238655","pilot_test","emogo","test_session","model","mismatch","uniform","","","","","","","","164765.09999999404","166769.30000001192","","","","","","","","","","","","10","","stimuli/stars_10.png","98","","","","","stimuli/HM09_HO.jpg","",""
"explore-choice","69","168256","0.0-69.0","p238655","pilot_test","emogo","test_session","model","mismatch","uniform","","","","","","","2591","166770.19999998808","169361.19999998808","[""stimuli/WF06_FO.jpg"",""stimuli/HM09_DO.jpg"",""stimuli/WM09_SC.jpg"",""stimuli/WF14_HO.jpg""]","stimuli/WF06_FO.jpg","stimuli/HM09_DO.jpg","stimuli/WM09_SC.jpg","stimuli/WF14_HO.jpg","pos4","stimuli/WF14_HO.jpg","HO","WF14","3","2","4","6","stimuli/stars_4.png","100","[""FO"",""DO"",""SC"",""HO""]","[""WF06"",""HM09"",""WM09"",""WF14""]","[3,8,4,4]","[4,8,2,6]","","",""
"show-reward","70","170258","0.0-70.0","p238655","pilot_test","emogo","test_session","model","mismatch","uniform","","","","","","","","169862.40000000596","171863.80000001192","","","","","","","","","","","","4","","stimuli/stars_4.png","100","","","","","stimuli/WF14_HO.jpg","",""
"explore-choice","71","176744","0.0-71.0","p238655","pilot_test","emogo","test_session","model","mismatch","uniform","","","","","","","5984.300000011921","171864.69999998808","177849","[""stimuli/HM09_SC.jpg"",""stimuli/WM09_DO.jpg"",""stimuli/WF14_HO.jpg"",""stimuli/WF06_FO.jpg""]","stimuli/HM09_SC.jpg","stimuli/WM09_DO.jpg","stimuli/WF14_HO.jpg","stimuli/WF06_FO.jpg","pos2","stimuli/WM09_DO.jpg","DO","WM09","1","0","0","2","stimuli/stars_0.png","100","[""SC"",""DO"",""HO"",""FO""]","[""HM09"",""WM09"",""WF14"",""WF06""]","[7,0,7,4]","[8,2,6,4]","","",""
"show-reward","72","178750","0.0-72.0","p238655","pilot_test","emogo","test_session","model","mismatch","uniform","","","","","","","","178351.30000001192","180356.30000001192","","","","","","","","","","","","0","","stimuli/stars_0.png","100","","","","","stimuli/WM09_DO.jpg","",""
"explore-choice","73","182761","0.0-73.0","p238655","pilot_test","emogo","test_session","model","mismatch","uniform","","","","","","","3509.800000011921","180357.19999998808","183867","[""stimuli/WF06_SC.jpg"",""stimuli/WM09_HO.jpg"",""stimuli/HM09_DO.jpg"",""stimuli/WF14_FO.jpg""]","stimuli/WF06_SC.jpg","stimuli/WM09_HO.jpg","stimuli/HM09_DO.jpg","stimuli/WF14_FO.jpg","pos1","stimuli/WF06_SC.jpg","SC","WF06","0","2.5","5","4","stimuli/stars_5.png","102.5","[""SC"",""HO"",""DO"",""FO""]","[""WF06"",""WM09"",""HM09"",""WF14""]","[5,4,6,5]","[4,2,8,6]","","",""
"show-reward","74","184765","0.0-74.0","p238655","pilot_test","emogo","test_session","model","mismatch","uniform","","","","","","","","184368","186371.5","","","","","","","","","","","","5","","stimuli/stars_5.png","102.5","","","","","stimuli/WF06_SC.jpg","",""
"explore-choice","75","186769","0.0-75.0","p238655","pilot_test","emogo","test_session","model","mismatch","uniform","","","","","","","1502.7999999821186","186372.30000001192","187875.09999999404","[""stimuli/WM09_SC.jpg"",""stimuli/HM09_FO.jpg"",""stimuli/WF14_DO.jpg"",""stimuli/WF06_HO.jpg""]","stimuli/WM09_SC.jpg","stimuli/HM09_FO.jpg","stimuli/WF14_DO.jpg","stimuli/WF06_HO.jpg","pos2","stimuli/HM09_FO.jpg","FO","HM09","1","5","10","8","stimuli/stars_10.png","107.5","[""SC"",""FO"",""DO"",""HO""]","[""WM09"",""HM09"",""WF14"",""WF06""]","[4,10,4,4]","[2,8,6,4]","","",""
"show-reward","76","188772","0.0-76.0","p238655","pilot_test","emogo","test_session","model","mismatch","uniform","","","","","","","","188376.09999999404","190378.80000001192","","","","","","","","","","","","10","","stimuli/stars_10.png","107.5","","","","","stimuli/HM09_FO.jpg","",""
"explore-choice","77","190049","0.0-77.0","p238655","pilot_test","emogo","test_session","model","mismatch","uniform","","","","","","","771.3000000119209","190379.69999998808","191151","[""stimuli/WM09_SC.jpg"",""stimuli/WF14_HO.jpg"",""stimuli/HM09_FO.jpg"",""stimuli/WF06_DO.jpg""]","stimuli/WM09_SC.jpg","stimuli/WF14_HO.jpg","stimuli/HM09_FO.jpg","stimuli/WF06_DO.jpg","pos3","stimuli/HM09_FO.jpg","FO","HM09","2","4.5","9","8","stimuli/stars_9.png","112","[""SC"",""HO"",""FO"",""DO""]","[""WM09"",""WF14"",""HM09"",""WF06""]","[0,7,9,3]","[2,6,8,4]","","",""
"show-reward","78","192057","0.0-78.0","p238655","pilot_test","emogo","test_session","model","mismatch","uniform","","","","","","","","191656.59999999404","193663.5","","","","","","","","","","","","9","","stimuli/stars_9.png","112","","","","","stimuli/HM09_FO.jpg","",""
"explore-choice","79","193637","0.0-79.0","p238655","pilot_test","emogo","test_session","model","mismatch","uniform","","","","","","","1074.8999999761581","193664.30000001192","194739.19999998808","[""stimuli/WM09_HO.jpg"",""stimuli/WF06_SC.jpg"",""stimuli/WF14_DO.jpg"",""stimuli/HM09_FO.jpg""]","stimuli/WM09_HO.jpg","stimuli/WF06_SC.jpg","stimuli/WF14_DO.jpg","stimuli/HM09_FO.jpg","pos4","stimuli/HM09_FO.jpg","FO","HM09","3","3","6","8","stimuli/stars_6.png","115","[""HO"",""SC"",""DO"",""FO""]","[""WM09"",""WF06"",""WF14"",""HM09""]","[2,3,4,6]","[2,4,6,8]","","",""
"show-reward","80","195642","0.0-80.0","p238655","pilot_test","emogo","test_session","model","mismatch","uniform","","","","","","","","195245.09999999404","197249","","","","","","","","","","","","6","","stimuli/stars_6.png","115","","","","","stimuli/HM09_FO.jpg","",""
"explore-choice","81","197288","0.0-81.0","p238655","pilot_test","emogo","test_session","model","mismatch","uniform","","","","","","","1145.0999999940395","197249.90000000596","198395","[""stimuli/WF06_DO.jpg"",""stimuli/WF14_FO.jpg"",""stimuli/WM09_HO.jpg"",""stimuli/HM09_SC.jpg""]","stimuli/WF06_DO.jpg","stimuli/WF14_FO.jpg","stimuli/WM09_HO.jpg","stimuli/HM09_SC.jpg","pos4","stimuli/HM09_SC.jpg","SC","HM09","3","4.5","9","8","stimuli/stars_9.png","119.5","[""DO"",""FO"",""HO"",""SC""]","[""WF06"",""WF14"",""WM09"",""HM09""]","[5,5,0,9]","[4,6,2,8]","","",""
"show-reward","82","199292","0.0-82.0","p238655","pilot_test","emogo","test_session","model","mismatch","uniform","","","","","","","","198896","200898.80000001192","","","","","","","","","","","","9","","stimuli/stars_9.png","119.5","","","","","stimuli/HM09_SC.jpg","",""
"explore-choice","83","201927","0.0-83.0","p238655","pilot_test","emogo","test_session","model","mismatch","uniform","","","","","","","2131.5999999940395","200899.5","203031.09999999404","[""stimuli/WF06_HO.jpg"",""stimuli/WM09_SC.jpg"",""stimuli/HM09_DO.jpg"",""stimuli/WF14_FO.jpg""]","stimuli/WF06_HO.jpg","stimuli/WM09_SC.jpg","stimuli/HM09_DO.jpg","stimuli/WF14_FO.jpg","pos3","stimuli/HM09_DO.jpg","DO","HM09","2","4.5","9","8","stimuli/stars_9.png","124","[""HO"",""SC"",""DO"",""FO""]","[""WF06"",""WM09"",""HM09"",""WF14""]","[2,2,9,8]","[4,2,8,6]","","",""
"show-reward","84","203934","0.0-84.0","p238655","pilot_test","emogo","test_session","model","mismatch","uniform","","","","","","","","203534.40000000596","205541.30000001192","","","","","","","","","","","","9","","stimuli/stars_9.png","124","","","","","stimuli/HM09_DO.jpg","",""
"explore-choice","85","207403","0.0-85.0","p238655","pilot_test","emogo","test_session","model","mismatch","uniform","","","","","","","2963","205542.09999999404","208505.09999999404","[""stimuli/WF14_SC.jpg"",""stimuli/WM09_HO.jpg"",""stimuli/WF06_DO.jpg"",""stimuli/HM09_FO.jpg""]","stimuli/WF14_SC.jpg","stimuli/WM09_HO.jpg","stimuli/WF06_DO.jpg","stimuli/HM09_FO.jpg","pos1","stimuli/WF14_SC.jpg","SC","WF14","0","3.5","7","6","stimuli/stars_7.png","127.5","[""SC"",""HO"",""DO"",""FO""]","[""WF14"",""WM09"",""WF06"",""HM09""]","[7,2,4,10]","[6,2,4,8]","","",""
"show-reward","86","209406","0.0-86.0","p238655","pilot_test","emogo","test_session","model","mismatch","uniform","","","","","","","","209011.19999998808","211013.69999998808","","","","","","","","","","","","7","","stimuli/stars_7.png","127.5","","","","","stimuli/WF14_SC.jpg","",""
"explore-choice","87","211036","0.0-87.0","p238655","pilot_test","emogo","test_session","model","mismatch","uniform","","","","","","","1126.4000000059605","211014.59999999404","212141","[""stimuli/WM09_FO.jpg"",""stimuli/WF06_DO.jpg"",""stimuli/HM09_SC.jpg"",""stimuli/WF14_HO.jpg""]","stimuli/WM09_FO.jpg","stimuli/WF06_DO.jpg","stimuli/HM09_SC.jpg","stimuli/WF14_HO.jpg","pos3","stimuli/HM09_SC.jpg","SC","HM09","2","3.5","7","8","stimuli/stars_7.png","131","[""FO"",""DO"",""SC"",""HO""]","[""WM09"",""WF06"",""HM09"",""WF14""]","[2,5,7,7]","[2,4,8,6]","","",""
"show-reward","88","213043","0.0-88.0","p238655","pilot_test","emogo","test_session","model","mismatch","uniform","","","","","","","","212644.30000001192","214650.19999998808","","","","","","","","","","","","7","","stimuli/stars_7.png","131","","","","","stimuli/HM09_SC.jpg","",""
"explore-choice","89","216359","0.0-89.0","p238655","pilot_test","emogo","test_session","model","mismatch","uniform","","","","","","","2810","214651.09999999404","217461.09999999404","[""stimuli/WF14_DO.jpg"",""stimuli/WF06_SC.jpg"",""stimuli/WM09_FO.jpg"",""stimuli/HM09_HO.jpg""]","stimuli/WF14_DO.jpg","stimuli/WF06_SC.jpg","stimuli/WM09_FO.jpg","stimuli/HM09_HO.jpg","pos4","stimuli/HM09_HO.jpg","HO","HM09","3","4.5","9","8","stimuli/stars_9.png","135.5","[""DO"",""SC"",""FO"",""HO""]","[""WF14"",""WF06"",""WM09"",""HM09""]","[4,3,0,9]","[6,4,2,8]","","",""
"show-reward","90","218363","0.0-90.0","p238655","pilot_test","emogo","test_session","model","mismatch","uniform","","","","","","","","217967","219970.80000001192","","","","","","","","","","","","9","","stimuli/stars_9.png","135.5","","","","","stimuli/HM09_HO.jpg","",""
"explore-choice","91","219787","0.0-91.0","p238655","pilot_test","emogo","test_session","model","mismatch","uniform","","","","","","","920.8000000119209","219972","220892.80000001192","[""stimuli/WF06_HO.jpg"",""stimuli/WF14_FO.jpg"",""stimuli/HM09_SC.jpg"",""stimuli/WM09_DO.jpg""]","stimuli/WF06_HO.jpg","stimuli/WF14_FO.jpg","stimuli/HM09_SC.jpg","stimuli/WM09_DO.jpg","pos3","stimuli/HM09_SC.jpg","SC","HM09","2","3.5","7","8","stimuli/stars_7.png","139","[""HO"",""FO"",""SC"",""DO""]","[""WF06"",""WF14"",""HM09"",""WM09""]","[6,6,7,0]","[4,6,8,2]","","",""
"show-reward","92","221791","0.0-92.0","p238655","pilot_test","emogo","test_session","model","mismatch","uniform","","","","","","","","221395.30000001192","223398.19999998808","","","","","","","","","","","","7","","stimuli/stars_7.png","139","","","","","stimuli/HM09_SC.jpg","",""
"explore-choice","93","224094","0.0-93.0","p238655","pilot_test","emogo","test_session","model","mismatch","uniform","","","","","","","1801.800000011921","223399.19999998808","225201","[""stimuli/HM09_DO.jpg"",""stimuli/WF14_SC.jpg"",""stimuli/WF06_FO.jpg"",""stimuli/WM09_HO.jpg""]","stimuli/HM09_DO.jpg","stimuli/WF14_SC.jpg","stimuli/WF06_FO.jpg","stimuli/WM09_HO.jpg","pos1","stimuli/HM09_DO.jpg","DO","HM09","0","4","8","8","stimuli/stars_8.png","143","[""DO"",""SC"",""FO"",""HO""]","[""HM09"",""WF14"",""WF06"",""WM09""]","[8,5,5,1]","[8,6,4,2]","","",""
"show-reward","94","226097","0.0-94.0","p238655","pilot_test","emogo","test_session","model","mismatch","uniform","","","","","","","","225702.5","227705.19999998808","","","","","","","","","","","","8","","stimuli/stars_8.png","143","","","","","stimuli/HM09_DO.jpg","",""
"explore-choice","95","230142","0.0-95.0","p238655","pilot_test","emogo","test_session","model","mismatch","uniform","","","","","","","3542.9000000059605","227706.19999998808","231249.09999999404","[""stimuli/HM09_DO.jpg"",""stimuli/WF14_SC.jpg"",""stimuli/WM09_FO.jpg"",""stimuli/WF06_HO.jpg""]","stimuli/HM09_DO.jpg","stimuli/WF14_SC.jpg","stimuli/WM09_FO.jpg","stimuli/WF06_HO.jpg","pos1","stimuli/HM09_DO.jpg","DO","HM09","0","4","8","8","stimuli/stars_8.png","147","[""DO"",""SC"",""FO"",""HO""]","[""HM09"",""WF14"",""WM09"",""WF06""]","[8,6,4,4]","[8,6,2,4]","","",""
"show-reward","96","232151","0.0-96.0","p238655","pilot_test","emogo","test_session","model","mismatch","uniform","","","","","","","","231751.40000000596","233758.40000000596","","","","","","","","","","","","8","","stimuli/stars_8.png","147","","","","","stimuli/HM09_DO.jpg","",""
"explore-choice","97","234346","0.0-97.0","p238655","pilot_test","emogo","test_session","model","mismatch","uniform","","","","","","","1693.5999999940395","233759.5","235453.09999999404","[""stimuli/WF06_SC.jpg"",""stimuli/WM09_DO.jpg"",""stimuli/WF14_FO.jpg"",""stimuli/HM09_HO.jpg""]","stimuli/WF06_SC.jpg","stimuli/WM09_DO.jpg","stimuli/WF14_FO.jpg","stimuli/HM09_HO.jpg","pos4","stimuli/HM09_HO.jpg","HO","HM09","3","4","8","8","stimuli/stars_8.png","151","[""SC"",""DO"",""FO"",""HO""]","[""WF06"",""WM09"",""WF14"",""HM09""]","[3,2,7,8]","[4,2,6,8]","","",""
"show-reward","98","236355","0.0-98.0","p238655","pilot_test","emogo","test_session","model","mismatch","uniform","","","","","","","","235955.09999999404","237962.59999999404","","","","","","","","","","","","8","","stimuli/stars_8.png","151","","","","","stimuli/HM09_HO.jpg","",""
"explore-choice","99","238366","0.0-99.0","p238655","pilot_test","emogo","test_session","model","mismatch","uniform","","","","","","","1509.4000000059605","237963.59999999404","239473","[""stimuli/WF14_DO.jpg"",""stimuli/WM09_FO.jpg"",""stimuli/WF06_HO.jpg"",""stimuli/HM09_SC.jpg""]","stimuli/WF14_DO.jpg","stimuli/WM09_FO.jpg","stimuli/WF06_HO.jpg","stimuli/HM09_SC.jpg","pos3","stimuli/WF06_HO.jpg","HO","WF06","2","3","6","4","stimuli/stars_6.png","154","[""DO"",""FO"",""HO"",""SC""]","[""WF14"",""WM09"",""WF06"",""HM09""]","[7,3,6,10]","[6,2,4,8]","","",""
"show-reward","100","240368","0.0-100.0","p238655","pilot_test","emogo","test_session","model","mismatch","uniform","","","","","","","","239975.09999999404","241976.80000001192","","","","","","","","","","","","6","","stimuli/stars_6.png","154","","","","","stimuli/WF06_HO.jpg","",""
"explore-choice","101","242600","0.0-101.0","p238655","pilot_test","emogo","test_session","model","mismatch","uniform","","","","","","","1725.5","241977.59999999404","243703.09999999404","[""stimuli/WF14_DO.jpg"",""stimuli/WM09_HO.jpg"",""stimuli/HM09_SC.jpg"",""stimuli/WF06_FO.jpg""]","stimuli/WF14_DO.jpg","stimuli/WM09_HO.jpg","stimuli/HM09_SC.jpg","stimuli/WF06_FO.jpg","pos3","stimuli/HM09_SC.jpg","SC","HM09","2","5","10","8","stimuli/stars_10.png","159","[""DO"",""HO"",""SC"",""FO""]","[""WF14"",""WM09"",""HM09"",""WF06""]","[5,0,10,6]","[6,2,8,4]","","",""
"show-reward","102","244602","0.0-102.0","p238655","pilot_test","emogo","test_session","model","mismatch","uniform","","","","","","","","244208.80000001192","246210.59999999404","","","","","","","","","","","","10","","stimuli/stars_10.png","159","","","","","stimuli/HM09_SC.jpg","",""
"explore-choice","103","246436","0.0-103.0","p238655","pilot_test","emogo","test_session","model","mismatch","uniform","","","","","","","1327.8999999761581","246211.30000001192","247539.19999998808","[""stimuli/BF05_AO.jpg"",""stimuli/HF02_SUR.jpg"",""stimuli/HF09_HE.jpg"",""stimuli/HM10_CC.jpg""]","stimuli/BF05_AO.jpg","stimuli/HF02_SUR.jpg","stimuli/HF09_HE.jpg","stimuli/HM10_CC.jpg","pos3","stimuli/HF09_HE.jpg","HE","HF09","2","2.5","5","4","stimuli/stars_5.png","161.5","[""AO"",""SUR"",""HE"",""CC""]","[""BF05"",""HF02"",""HF09"",""HM10""]","[2,7,5,9]","[2,6,4,8]","","",""
"show-reward","104","248442","0.0-104.0","p238655","pilot_test","emogo","test_session","model","mismatch","uniform","","","","","","","","248044.90000000596","250050.09999999404","","","","","","","","","","","","5","","stimuli/stars_5.png","161.5","","","","","stimuli/HF09_HE.jpg","",""
"explore-choice","105","250642","0.0-105.0","p238655","pilot_test","emogo","test_session","model","mismatch","uniform","","","","","","","1698.0999999940395","250051","251749.09999999404","[""stimuli/HF02_AO.jpg"",""stimuli/HM10_HE.jpg"",""stimuli/HF09_SUR.jpg"",""stimuli/BF05_CC.jpg""]","stimuli/HF02_AO.jpg","stimuli/HM10_HE.jpg","stimuli/HF09_SUR.jpg","stimuli/BF05_CC.jpg","pos2","stimuli/HM10_HE.jpg","HE","HM10","1","1.5","3","4","stimuli/stars_3.png","163","[""AO"",""HE"",""SUR"",""CC""]","[""HF02"",""HM10"",""HF09"",""BF05""]","[4,3,5,7]","[2,4,6,8]","","",""
"show-reward","106","252650","0.0-106.0","p238655","pilot_test","emogo","test_session","model","mismatch","uniform","","","","","","","","252251.80000001192","254258.40000000596","","","","","","","","","","","","3","","stimuli/stars_3.png","163","","","","","stimuli/HM10_HE.jpg","",""
"explore-choice","107","255996","0.0-107.0","p238655","pilot_test","emogo","test_session","model","mismatch","uniform","","","","","","","2845.800000011921","254259.19999998808","257105","[""stimuli/HF02_AO.jpg"",""stimuli/HM10_CC.jpg"",""stimuli/BF05_SUR.jpg"",""stimuli/HF09_HE.jpg""]","stimuli/HF02_AO.jpg","stimuli/HM10_CC.jpg","stimuli/BF05_SUR.jpg","stimuli/HF09_HE.jpg","pos1","stimuli/HF02_AO.jpg","AO","HF02","0","0.5","1","2","stimuli/stars_1.png","163.5","[""AO"",""CC"",""SUR"",""HE""]","[""HF02"",""HM10"",""BF05"",""HF09""]","[1,10,5,4]","[2,8,6,4]","","",""
"show-reward","108","257998","0.0-108.0","p238655","pilot_test","emogo","test_session","model","mismatch","uniform","","","","","","","","257605.80000001192","259606.90000000596","","","","","","","","","","","","1","","stimuli/stars_1.png","163.5","","","","","stimuli/HF02_AO.jpg","",""
"explore-choice","109","261878","0.0-109.0","p238655","pilot_test","emogo","test_session","model","mismatch","uniform","","","","","","","3379.699999988079","259607.40000000596","262987.09999999404","[""stimuli/HM10_AO.jpg"",""stimuli/BF05_SUR.jpg"",""stimuli/HF02_HE.jpg"",""stimuli/HF09_CC.jpg""]","stimuli/HM10_AO.jpg","stimuli/BF05_SUR.jpg","stimuli/HF02_HE.jpg","stimuli/HF09_CC.jpg","pos2","stimuli/BF05_SUR.jpg","SUR","BF05","1","3","6","6","stimuli/stars_6.png","166.5","[""AO"",""SUR"",""HE"",""CC""]","[""HM10"",""BF05"",""HF02"",""HF09""]","[1,6,5,8]","[2,6,4,8]","","",""
"show-reward","110","263886","0.0-110.0","p238655","pilot_test","emogo","test_session","model","mismatch","uniform","","","","","","","","263488.3000000119","265495.1999999881","","","","","","","","","","","","6","","stimuli/stars_6.png","166.5","","","","","stimuli/BF05_SUR.jpg","",""
"explore-choice","111","266116","0.0-111.0","p238655","pilot_test","emogo","test_session","model","mismatch","uniform","","","","","","","1727","265496.09999999404","267223.09999999404","[""stimuli/HF09_CC.jpg"",""stimuli/HM10_HE.jpg"",""stimuli/BF05_AO.jpg"",""stimuli/HF02_SUR.jpg""]","stimuli/HF09_CC.jpg","stimuli/HM10_HE.jpg","stimuli/BF05_AO.jpg","stimuli/HF02_SUR.jpg","pos1","stimuli/HF09_CC.jpg","CC","HF09","0","5","10","8","stimuli/stars_10.png","171.5","[""CC"",""HE"",""AO"",""SUR""]","[""HF09"",""HM10"",""BF05"",""HF02""]","[10,4,3,7]","[8,4,2,6]","","",""
"show-reward","112","268124","0.0-112.0","p238655","pilot_test","emogo","test_session","model","mismatch","uniform","","","","","","","","267726","269732.90000000596","","","","","","","","","","","","10","","stimuli/stars_10.png","171.5","","","","","stimuli/HF09_CC.jpg","",""
"explore-choice","113","269382","0.0-113.0","p238655","pilot_test","emogo","test_session","model","mismatch","uniform","","","","","","","753.3000000119209","269733.6999999881","270487","[""stimuli/HF09_CC.jpg"",""stimuli/BF05_AO.jpg"",""stimuli/HM10_SUR.jpg"",""stimuli/HF02_HE.jpg""]","stimuli/HF09_CC.jpg","stimuli/BF05_AO.jpg","stimuli/HM10_SUR.jpg","stimuli/HF02_HE.jpg","pos1","stimuli/HF09_CC.jpg","CC","HF09","0","3.5","7","8","stimuli/stars_7.png","175","[""CC"",""AO"",""SUR"",""HE""]","[""HF09"",""BF05"",""HM10"",""HF02""]","[7,0,4,5]","[8,2,6,4]","","",""
"show-reward","114","271390","0.0-114.0","p238655","pilot_test","emogo","test_session","model","mismatch","uniform","","","","","","","","270992.40000000596","272999.40000000596","","","","","","","","","","","","7","","stimuli/stars_7.png","175","","","","","stimuli/HF09_CC.jpg","",""
"explore-choice","115","273470","0.0-115.0","p238655","pilot_test","emogo","test_session","model","mismatch","uniform","","","","","","","1574.8999999761581","273000.3000000119","274575.1999999881","[""stimuli/HF02_SUR.jpg"",""stimuli/HM10_AO.jpg"",""stimuli/BF05_HE.jpg"",""stimuli/HF09_CC.jpg""]","stimuli/HF02_SUR.jpg","stimuli/HM10_AO.jpg","stimuli/BF05_HE.jpg","stimuli/HF09_CC.jpg","pos4","stimuli/HF09_CC.jpg","CC","HF09","3","4.5","9","8","stimuli/stars_9.png","179.5","[""SUR"",""AO"",""HE"",""CC""]","[""HF02"",""HM10"",""BF05"",""HF09""]","[6,0,5,9]","[6,2,4,8]","","",""
"show-reward","116","275475","0.0-116.0","p238655","pilot_test","emogo","test_session","model","mismatch","uniform","","","","","","","","275079.6999999881","277084.5","","","","","","","","","","","","9","","stimuli/stars_9.png","179.5","","","","","stimuli/HF09_CC.jpg","",""
"explore-choice","117","277692","0.0-117.0","p238655","pilot_test","emogo","test_session","model","mismatch","uniform","","","","","","","1711.699999988079","277085.40000000596","278797.09999999404","[""stimuli/HM10_HE.jpg"",""stimuli/BF05_SUR.jpg"",""stimuli/HF02_CC.jpg"",""stimuli/HF09_AO.jpg""]","stimuli/HM10_HE.jpg","stimuli/BF05_SUR.jpg","stimuli/HF02_CC.jpg","stimuli/HF09_AO.jpg","pos4","stimuli/HF09_AO.jpg","AO","HF09","3","1","2","2","stimuli/stars_2.png","180.5","[""HE"",""SUR"",""CC"",""AO""]","[""HM10"",""BF05"",""HF02"",""HF09""]","[2,5,10,2]","[4,6,8,2]","","",""
"show-reward","118","279696","0.0-118.0","p238655","pilot_test","emogo","test_session","model","mismatch","uniform","","","","","","","","279302.5","281305.1999999881","","","","","","","","","","","","2","","stimuli/stars_2.png","180.5","","","","","stimuli/HF09_AO.jpg","",""
"explore-choice","119","281405","0.0-119.0","p238655","pilot_test","emogo","test_session","model","mismatch","uniform","","","","","","","1206.800000011921","281306.1999999881","282513","[""stimuli/BF05_HE.jpg"",""stimuli/HF02_AO.jpg"",""stimuli/HM10_CC.jpg"",""stimuli/HF09_SUR.jpg""]","stimuli/BF05_HE.jpg","stimuli/HF02_AO.jpg","stimuli/HM10_CC.jpg","stimuli/HF09_SUR.jpg","pos4","stimuli/HF09_SUR.jpg","SUR","HF09","3","2.5","5","6","stimuli/stars_5.png","183","[""HE"",""AO"",""CC"",""SUR""]","[""BF05"",""HF02"",""HM10"",""HF09""]","[4,1,9,5]","[4,2,8,6]","","",""
"show-reward","120","283408","0.0-120.0","p238655","pilot_test","emogo","test_session","model","mismatch","uniform","","","","","","","","283015.59999999404","285017.90000000596","","","","","","","","","","","","5","","stimuli/stars_5.png","183","","","","","stimuli/HF09_SUR.jpg","",""
"explore-choice","121","286071","0.0-121.0","p238655","pilot_test","emogo","test_session","model","mismatch","uniform","","","","","","","2156.199999988079","285018.90000000596","287175.09999999404","[""stimuli/HF02_SUR.jpg"",""stimuli/BF05_CC.jpg"",""stimuli/HF09_AO.jpg"",""stimuli/HM10_HE.jpg""]","stimuli/HF02_SUR.jpg","stimuli/BF05_CC.jpg","stimuli/HF09_AO.jpg","stimuli/HM10_HE.jpg","pos4","stimuli/HM10_HE.jpg","HE","HM10","3","1.5","3","4","stimuli/stars_3.png","184.5","[""SUR"",""CC"",""AO"",""HE""]","[""HF02"",""BF05"",""HF09"",""HM10""]","[6,7,1,3]","[6,8,2,4]","","",""
"show-reward","122","288075","0.0-122.0","p238655","pilot_test","emogo","test_session","model","mismatch","uniform","","","","","","","","287681.1999999881","289684.40000000596","","","","","","","","","","","","3","","stimuli/stars_3.png","184.5","","","","","stimuli/HM10_HE.jpg","",""
"explore-choice","123","291484","0.0-123.0","p238655","pilot_test","emogo","test_session","model","mismatch","uniform","","","","","","","2903.7999999821186","289685.3000000119","292589.09999999404","[""stimuli/HM10_HE.jpg"",""stimuli/HF02_AO.jpg"",""stimuli/HF09_CC.jpg"",""stimuli/BF05_SUR.jpg""]","stimuli/HM10_HE.jpg","stimuli/HF02_AO.jpg","stimuli/HF09_CC.jpg","stimuli/BF05_SUR.jpg","pos3","stimuli/HF09_CC.jpg","CC","HF09","2","4","8","8","stimuli/stars_8.png","188.5","[""HE"",""AO"",""CC"",""SUR""]","[""HM10"",""HF02"",""HF09"",""BF05""]","[4,3,8,7]","[4,2,8,6]","","",""
"show-reward","124","293490","0.0-124.0","p238655","pilot_test","emogo","test_session","model","mismatch","uniform","","","","","","","","293095.1999999881","295100.1999999881","","","","","","","","","","","","8","","stimuli/stars_8.png","188.5","","","","","stimuli/HF09_CC.jpg","",""
"explore-choice","125","296425","0.0-125.0","p238655","pilot_test","emogo","test_session","model","mismatch","uniform","","","","","","","2432","295101.09999999404","297533.09999999404","[""stimuli/HF02_SUR.jpg"",""stimuli/BF05_CC.jpg"",""stimuli/HF09_HE.jpg"",""stimuli/HM10_AO.jpg""]","stimuli/HF02_SUR.jpg","stimuli/BF05_CC.jpg","stimuli/HF09_HE.jpg","stimuli/HM10_AO.jpg","pos1","stimuli/HF02_SUR.jpg","SUR","HF02","0","3","6","6","stimuli/stars_6.png","191.5","[""SUR"",""CC"",""HE"",""AO""]","[""HF02"",""BF05"",""HF09"",""HM10""]","[6,7,4,1]","[6,8,4,2]","","",""
"show-reward","126","298428","0.0-126.0","p238655","pilot_test","emogo","test_session","model","mismatch","uniform","","","","","","","","298036","300038.5","","","","","","","","","","","","6","","stimuli/stars_6.png","191.5","","","","","stimuli/HF02_SUR.jpg","",""
"explore-choice","127","300202","0.0-127.0","p238655","pilot_test","emogo","test_session","model","mismatch","uniform","","","","","","","1267.5","300039.5","301307","[""stimuli/BF05_HE.jpg"",""stimuli/HF02_SUR.jpg"",""stimuli/HF09_AO.jpg"",""stimuli/HM10_CC.jpg""]","stimuli/BF05_HE.jpg","stimuli/HF02_SUR.jpg","stimuli/HF09_AO.jpg","stimuli/HM10_CC.jpg","pos1","stimuli/BF05_HE.jpg","HE","BF05","0","2.5","5","4","stimuli/stars_5.png","194","[""HE"",""SUR"",""AO"",""CC""]","[""BF05"",""HF02"",""HF09"",""HM10""]","[5,8,2,10]","[4,6,2,8]","","",""
"show-reward","128","302207","0.0-128.0","p238655","pilot_test","emogo","test_session","model","mismatch","uniform","","","","","","","","301813.09999999404","303816.6999999881","","","","","","","","","","","","5","","stimuli/stars_5.png","194","","","","","stimuli/BF05_HE.jpg","",""
"explore-choice","129","303497","0.0-129.0","p238655","pilot_test","emogo","test_session","model","mismatch","uniform","","","","","","","788.3000000119209","303817.6999999881","304606","[""stimuli/BF05_AO.jpg"",""stimuli/HM10_SUR.jpg"",""stimuli/HF09_HE.jpg"",""stimuli/HF02_CC.jpg""]","stimuli/BF05_AO.jpg","stimuli/HM10_SUR.jpg","stimuli/HF09_HE.jpg","stimuli/HF02_CC.jpg","pos1","stimuli/BF05_AO.jpg","AO","BF05","0","0","0","2","stimuli/stars_0.png","194","[""AO"",""SUR"",""HE"",""CC""]","[""BF05"",""HM10"",""HF09"",""HF02""]","[0,6,3,9]","[2,6,4,8]","","",""
"show-reward","130","305499","0.0-130.0","p238655","pilot_test","emogo","test_session","model","mismatch","uniform","","","","","","","","305107.6999999881","307110","","","","","","","","","","","","0","","stimuli/stars_0.png","194","","","","","stimuli/BF05_AO.jpg","",""
"explore-choice","131","308151","0.0-131.0","p238655","pilot_test","emogo","test_session","model","mismatch","uniform","","","","","","","2146.2000000178814","307110.6999999881","309256.90000000596","[""stimuli/HF02_AO.jpg"",""stimuli/HM10_SUR.jpg"",""stimuli/BF05_CC.jpg"",""stimuli/HF09_HE.jpg""]","stimuli/HF02_AO.jpg","stimuli/HM10_SUR.jpg","stimuli/BF05_CC.jpg","stimuli/HF09_HE.jpg","pos3","stimuli/BF05_CC.jpg","CC","BF05","2","4","8","8","stimuli/stars_8.png","198","[""AO"",""SUR"",""CC"",""HE""]","[""HF02"",""HM10"",""BF05"",""HF09""]","[4,6,8,5]","[2,6,8,4]","","",""
"show-reward","132","310156","0.0-132.0","p238655","pilot_test","emogo","test_session","model","mismatch","uniform","","","","","","","","309762.8000000119","311766.1999999881","","","","","","","","","","","","8","","stimuli/stars_8.png","198","","","","","stimuli/BF05_CC.jpg","",""
"explore-choice","133","312204","0.0-133.0","p238655","pilot_test","emogo","test_session","model","mismatch","uniform","","","","","","","1542.0999999940395","311767","313309.09999999404","[""stimuli/BF05_AO.jpg"",""stimuli/HM10_CC.jpg"",""stimuli/HF09_SUR.jpg"",""stimuli/HF02_HE.jpg""]","stimuli/BF05_AO.jpg","stimuli/HM10_CC.jpg","stimuli/HF09_SUR.jpg","stimuli/HF02_HE.jpg","pos2","stimuli/HM10_CC.jpg","CC","HM10","1","4","8","8","stimuli/stars_8.png","202","[""AO"",""CC"",""SUR"",""HE""]","[""BF05"",""HM10"",""HF09"",""HF02""]","[2,8,7,2]","[2,8,6,4]","","",""
"show-reward","134","314207","0.0-134.0","p238655","pilot_test","emogo","test_session","model","mismatch","uniform","","","","","","","","313814.90000000596","315817.40000000596","","","","","","","","","","","","8","","stimuli/stars_8.png","202","","","","","stimuli/HM10_CC.jpg","",""
"explore-choice","135","315652","0.0-135.0","p238655","pilot_test","emogo","test_session","model","mismatch","uniform","","","","","","","942.8000000119209","315818.1999999881","316761","[""stimuli/HF09_AO.jpg"",""stimuli/BF05_SUR.jpg"",""stimuli/HM10_CC.jpg"",""stimuli/HF02_HE.jpg""]","stimuli/HF09_AO.jpg","stimuli/BF05_SUR.jpg","stimuli/HM10_CC.jpg","stimuli/HF02_HE.jpg","pos3","stimuli/HM10_CC.jpg","CC","HM10","2","3.5","7","8","stimuli/stars_7.png","205.5","[""AO"",""SUR"",""CC"",""HE""]","[""HF09"",""BF05"",""HM10"",""HF02""]","[2,5,7,5]","[2,6,8,4]","","",""
"show-reward","136","317657","0.0-136.0","p238655","pilot_test","emogo","test_session","model","mismatch","uniform","","","","","","","","317263.09999999404","319268.1999999881","","","","","","","","","","","","7","","stimuli/stars_7.png","205.5","","","","","stimuli/HM10_CC.jpg","",""
"explore-choice","137","319248","0.0-137.0","p238655","pilot_test","emogo","test_session","model","mismatch","uniform","","","","","","","1088","319269","320357","[""stimuli/HF02_AO.jpg"",""stimuli/BF05_HE.jpg"",""stimuli/HF09_CC.jpg"",""stimuli/HM10_SUR.jpg""]","stimuli/HF02_AO.jpg","stimuli/BF05_HE.jpg","stimuli/HF09_CC.jpg","stimuli/HM10_SUR.jpg","pos3","stimuli/HF09_CC.jpg","CC","HF09","2","4.5","9","8","stimuli/stars_9.png","210","[""AO"",""HE"",""CC"",""SUR""]","[""HF02"",""BF05"",""HF09"",""HM10""]","[2,4,9,8]","[2,4,8,6]","","",""
"show-reward","138","321255","0.0-138.0","p238655","pilot_test","emogo","test_session","model","mismatch","uniform","","","","","","","","320859.5","322866.3000000119","","","","","","","","","","","","9","","stimuli/stars_9.png","210","","","","","stimuli/HF09_CC.jpg","",""
"explore-choice","139","324020","0.0-139.0","p238655","pilot_test","emogo","test_session","model","mismatch","uniform","","","","","","","2264","322867.09999999404","325131.09999999404","[""stimuli/BF05_CC.jpg"",""stimuli/HM10_AO.jpg"",""stimuli/HF02_HE.jpg"",""stimuli/HF09_SUR.jpg""]","stimuli/BF05_CC.jpg","stimuli/HM10_AO.jpg","stimuli/HF02_HE.jpg","stimuli/HF09_SUR.jpg","pos1","stimuli/BF05_CC.jpg","CC","BF05","0","3","6","8","stimuli/stars_6.png","213","[""CC"",""AO"",""HE"",""SUR""]","[""BF05"",""HM10"",""HF02"",""HF09""]","[6,0,4,5]","[8,2,4,6]","","",""
"show-reward","140","326026","0.0-140.0","p238655","pilot_test","emogo","test_session","model","mismatch","uniform","","","","","","","","325632","327637.09999999404","","","","","","","","","","","","6","","stimuli/stars_6.png","213","","","","","stimuli/BF05_CC.jpg","",""
"explore-choice","141","328284","0.0-141.0","p238655","pilot_test","emogo","test_session","model","mismatch","uniform","","","","","","","1755.300000011921","327638","329393.3000000119","[""stimuli/HM10_AO.jpg"",""stimuli/HF09_HE.jpg"",""stimuli/HF02_CC.jpg"",""stimuli/BF05_SUR.jpg""]","stimuli/HM10_AO.jpg","stimuli/HF09_HE.jpg","stimuli/HF02_CC.jpg","stimuli/BF05_SUR.jpg","pos2","stimuli/HF09_HE.jpg","HE","HF09","1","2.5","5","4","stimuli/stars_5.png","215.5","[""AO"",""HE"",""CC"",""SUR""]","[""HM10"",""HF09"",""HF02"",""BF05""]","[1,5,8,7]","[2,4,8,6]","","",""
"show-reward","142","330287","0.0-142.0","p238655","pilot_test","emogo","test_session","model","mismatch","uniform","","","","","","","","329896.1999999881","331898","","","","","","","","","","","","5","","stimuli/stars_5.png","215.5","","","","","stimuli/HF09_HE.jpg","",""
"explore-choice","143","333070","0.0-143.0","p238655","pilot_test","emogo","test_session","model","mismatch","uniform","","","","","","","2279.899999976158","331898.8000000119","334178.6999999881","[""stimuli/HM10_HE.jpg"",""stimuli/HF09_SUR.jpg"",""stimuli/HF02_CC.jpg"",""stimuli/BF05_AO.jpg""]","stimuli/HM10_HE.jpg","stimuli/HF09_SUR.jpg","stimuli/HF02_CC.jpg","stimuli/BF05_AO.jpg","pos3","stimuli/HF02_CC.jpg","CC","HF02","2","3.5","7","8","stimuli/stars_7.png","219","[""HE"",""SUR"",""CC"",""AO""]","[""HM10"",""HF09"",""HF02"",""BF05""]","[6,6,7,0]","[4,6,8,2]","","",""
"show-reward","144","335077","0.0-144.0","p238655","pilot_test","emogo","test_session","model","mismatch","uniform","","","","","","","","334682.40000000596","336688.8000000119","","","","","","","","","","","","7","","stimuli/stars_7.png","219","","","","","stimuli/HF02_CC.jpg","",""
"explore-choice","145","337120","0.0-145.0","p238655","pilot_test","emogo","test_session","model","mismatch","uniform","","","","","","","1541.4000000059605","336689.6999999881","338231.09999999404","[""stimuli/HF02_HE.jpg"",""stimuli/HF09_AO.jpg"",""stimuli/BF05_CC.jpg"",""stimuli/HM10_SUR.jpg""]","stimuli/HF02_HE.jpg","stimuli/HF09_AO.jpg","stimuli/BF05_CC.jpg","stimuli/HM10_SUR.jpg","pos3","stimuli/BF05_CC.jpg","CC","BF05","2","4","8","8","stimuli/stars_8.png","223","[""HE"",""AO"",""CC"",""SUR""]","[""HF02"",""HF09"",""BF05"",""HM10""]","[5,2,8,7]","[4,2,8,6]","","",""
"show-reward","146","339128","0.0-146.0","p238655","pilot_test","emogo","test_session","model","mismatch","uniform","","","","","","","","338732.40000000596","340739","","","","","","","","","","","","8","","stimuli/stars_8.png","223","","","","","stimuli/BF05_CC.jpg","",""
"explore-choice","147","342339","0.0-147.0","p238655","pilot_test","emogo","test_session","model","mismatch","uniform","","","","","","","2707.699999988079","340739.90000000596","343447.59999999404","[""stimuli/BF05_HE.jpg"",""stimuli/HM10_AO.jpg"",""stimuli/HF02_CC.jpg"",""stimuli/HF09_SUR.jpg""]","stimuli/BF05_HE.jpg","stimuli/HM10_AO.jpg","stimuli/HF02_CC.jpg","stimuli/HF09_SUR.jpg","pos3","stimuli/HF02_CC.jpg","CC","HF02","2","3","6","8","stimuli/stars_6.png","226","[""HE"",""AO"",""CC"",""SUR""]","[""BF05"",""HM10"",""HF02"",""HF09""]","[6,0,6,5]","[4,2,8,6]","","",""
"show-reward","148","344342","0.0-148.0","p238655","pilot_test","emogo","test_session","model","mismatch","uniform","","","","","","","","343951.1999999881","345953.40000000596","","","","","","","","","","","","6","","stimuli/stars_6.png","226","","","","","stimuli/HF02_CC.jpg","",""
"explore-choice","149","347450","0.0-149.0","p238655","pilot_test","emogo","test_session","model","mismatch","uniform","","","","","","","2603.0999999940395","345954.3000000119","348557.40000000596","[""stimuli/BF05_HE.jpg"",""stimuli/HF02_CC.jpg"",""stimuli/HF09_AO.jpg"",""stimuli/HM10_SUR.jpg""]","stimuli/BF05_HE.jpg","stimuli/HF02_CC.jpg","stimuli/HF09_AO.jpg","stimuli/HM10_SUR.jpg","pos2","stimuli/HF02_CC.jpg","CC","HF02","1","3","6","8","stimuli/stars_6.png","229","[""HE"",""CC"",""AO"",""SUR""]","[""BF05"",""HF02"",""HF09"",""HM10""]","[5,6,0,8]","[4,8,2,6]","","",""
"show-reward","150","349456","0.0-150.0","p238655","pilot_test","emogo","test_session","model","mismatch","uniform","","","","","","","","349063.09999999404","351067.59999999404","","","","","","","","","","","","6","","stimuli/stars_6.png","229","","","","","stimuli/HF02_CC.jpg","",""
"explore-choice","151","351361","0.0-151.0","p238655","pilot_test","emogo","test_session","model","mismatch","uniform","","","","","","","1400.9000000059605","351068.5","352469.40000000596","[""stimuli/HM10_AO.jpg"",""stimuli/HF09_SUR.jpg"",""stimuli/HF02_CC.jpg"",""stimuli/BF05_HE.jpg""]","stimuli/HM10_AO.jpg","stimuli/HF09_SUR.jpg","stimuli/HF02_CC.jpg","stimuli/BF05_HE.jpg","pos3","stimuli/HF02_CC.jpg","CC","HF02","2","3","6","8","stimuli/stars_6.png","232","[""AO"",""SUR"",""CC"",""HE""]","[""HM10"",""HF09"",""HF02"",""BF05""]","[0,5,6,6]","[2,6,8,4]","","",""
"show-reward","152","353369","0.0-152.0","p238655","pilot_test","emogo","test_session","model","mismatch","uniform","","","","","","","","352973.90000000596","354980.6999999881","","","","","","","","","","","","6","","stimuli/stars_6.png","232","","","","","stimuli/HF02_CC.jpg","",""
"explore-choice","153","357176","0.0-153.0","p238655","pilot_test","emogo","test_session","model","mismatch","uniform","","","","","","","3303.800000011921","354981.59999999404","358285.40000000596","[""stimuli/HF09_SUR.jpg"",""stimuli/HF02_HE.jpg"",""stimuli/BF05_CC.jpg"",""stimuli/HM10_AO.jpg""]","stimuli/HF09_SUR.jpg","stimuli/HF02_HE.jpg","stimuli/BF05_CC.jpg","stimuli/HM10_AO.jpg","pos1","stimuli/HF09_SUR.jpg","SUR","HF09","0","2.5","5","6","stimuli/stars_5.png","234.5","[""SUR"",""HE"",""CC"",""AO""]","[""HF09"",""HF02"",""BF05"",""HM10""]","[5,4,6,0]","[6,4,8,2]","","",""
"show-reward","154","359181","0.0-154.0","p238655","pilot_test","emogo","test_session","model","mismatch","uniform","","","","","","","","358788.6999999881","360793.09999999404","","","","","","","","","","","","5","","stimuli/stars_5.png","234.5","","","","","stimuli/HF09_SUR.jpg","",""
"explore-choice","155","362622","0.0-155.0","p238655","pilot_test","emogo","test_session","model","mismatch","uniform","","","","","","","2939.5999999940395","360794","363733.59999999404","[""stimuli/HF02_SUR.jpg"",""stimuli/HF09_CC.jpg"",""stimuli/HM10_AO.jpg"",""stimuli/BF05_HE.jpg""]","stimuli/HF02_SUR.jpg","stimuli/HF09_CC.jpg","stimuli/HM10_AO.jpg","stimuli/BF05_HE.jpg","pos3","stimuli/HM10_AO.jpg","AO","HM10","2","0","0","2","stimuli/stars_0.png","234.5","[""SUR"",""CC"",""AO"",""HE""]","[""HF02"",""HF09"",""HM10"",""BF05""]","[6,9,0,5]","[6,8,2,4]","","",""
"show-reward","156","364627","0.0-156.0","p238655","pilot_test","emogo","test_session","model","mismatch","uniform","","","","","","","","364235.3000000119","366239.6999999881","","","","","","","","","","","","0","","stimuli/stars_0.png","234.5","","","","","stimuli/HM10_AO.jpg","",""
"explore-choice","157","367184","0.0-157.0","p238655","pilot_test","emogo","test_session","model","mismatch","uniform","","","","","","","2051","366240.59999999404","368291.59999999404","[""stimuli/BF05_CC.jpg"",""stimuli/HF02_AO.jpg"",""stimuli/HM10_SUR.jpg"",""stimuli/HF09_HE.jpg""]","stimuli/BF05_CC.jpg","stimuli/HF02_AO.jpg","stimuli/HM10_SUR.jpg","stimuli/HF09_HE.jpg","pos1","stimuli/BF05_CC.jpg","CC","BF05","0","4","8","8","stimuli/stars_8.png","238.5","[""CC"",""AO"",""SUR"",""HE""]","[""BF05"",""HF02"",""HM10"",""HF09""]","[8,4,6,5]","[8,2,6,4]","","",""
"show-reward","158","369187","0.0-158.0","p238655","pilot_test","emogo","test_session","model","mismatch","uniform","","","","","","","","368797.6999999881","370799.6999999881","","","","","","","","","","","","8","","stimuli/stars_8.png","238.5","","","","","stimuli/BF05_CC.jpg","",""
"explore-choice","159","371078","0.0-159.0","p238655","pilot_test","emogo","test_session","model","mismatch","uniform","","","","","","","1385.6000000238419","370800.6999999881","372186.3000000119","[""stimuli/BF05_SUR.jpg"",""stimuli/HM10_AO.jpg"",""stimuli/HF02_HE.jpg"",""stimuli/HF09_CC.jpg""]","stimuli/BF05_SUR.jpg","stimuli/HM10_AO.jpg","stimuli/HF02_HE.jpg","stimuli/HF09_CC.jpg","pos4","stimuli/HF09_CC.jpg","CC","HF09","3","4","8","8","stimuli/stars_8.png","242.5","[""SUR"",""AO"",""HE"",""CC""]","[""BF05"",""HM10"",""HF02"",""HF09""]","[6,1,5,8]","[6,2,4,8]","","",""
"show-reward","160","373086","0.0-160.0","p238655","pilot_test","emogo","test_session","model","mismatch","uniform","","","","","","","","372691.59999999404","374698.59999999404","","","","","","","","","","","","8","","stimuli/stars_8.png","242.5","","","","","stimuli/HF09_CC.jpg","",""
"explore-choice","161","375221","0.0-161.0","p238655","pilot_test","emogo","test_session","model","mismatch","uniform","","","","","","","1634.199999988079","374699.40000000596","376333.59999999404","[""stimuli/BF05_HE.jpg"",""stimuli/HF09_AO.jpg"",""stimuli/HM10_CC.jpg"",""stimuli/HF02_SUR.jpg""]","stimuli/BF05_HE.jpg","stimuli/HF09_AO.jpg","stimuli/HM10_CC.jpg","stimuli/HF02_SUR.jpg","pos3","stimuli/HM10_CC.jpg","CC","HM10","2","5","10","8","stimuli/stars_10.png","247.5","[""HE"",""AO"",""CC"",""SUR""]","[""BF05"",""HF09"",""HM10"",""HF02""]","[5,2,10,8]","[4,2,8,6]","","",""
"show-reward","162","377226","0.0-162.0","p238655","pilot_test","emogo","test_session","model","mismatch","uniform","","","","","","","","376834.5","378838.40000000596","","","","","","","","","","","","10","","stimuli/stars_10.png","247.5","","","","","stimuli/HM10_CC.jpg","",""
"explore-choice","163","379668","0.0-163.0","p238655","pilot_test","emogo","test_session","model","mismatch","uniform","","","","","","","1938.199999988079","378839.3000000119","380777.5","[""stimuli/HF09_AO.jpg"",""stimuli/HF02_HE.jpg"",""stimuli/BF05_CC.jpg"",""stimuli/HM10_SUR.jpg""]","stimuli/HF09_AO.jpg","stimuli/HF02_HE.jpg","stimuli/BF05_CC.jpg","stimuli/HM10_SUR.jpg","pos3","stimuli/BF05_CC.jpg","CC","BF05","2","4","8","8","stimuli/stars_8.png","251.5","[""AO"",""HE"",""CC"",""SUR""]","[""HF09"",""HF02"",""BF05"",""HM10""]","[2,5,8,7]","[2,4,8,6]","","",""
"show-reward","164","381671","0.0-164.0","p238655","pilot_test","emogo","test_session","model","mismatch","uniform","","","","","","","","381282","383283.8000000119","","","","","","","","","","","","8","","stimuli/stars_8.png","251.5","","","","","stimuli/BF05_CC.jpg","",""
"explore-choice","165","384592","0.0-165.0","p238655","pilot_test","emogo","test_session","model","mismatch","uniform","","","","","","","2416.9000000059605","383284.59999999404","385701.5","[""stimuli/HF09_HE.jpg"",""stimuli/HF02_CC.jpg"",""stimuli/BF05_AO.jpg"",""stimuli/HM10_SUR.jpg""]","stimuli/HF09_HE.jpg","stimuli/HF02_CC.jpg","stimuli/BF05_AO.jpg","stimuli/HM10_SUR.jpg","pos2","stimuli/HF02_CC.jpg","CC","HF02","1","4.5","9","8","stimuli/stars_9.png","256","[""HE"",""CC"",""AO"",""SUR""]","[""HF09"",""HF02"",""BF05"",""HM10""]","[3,9,0,6]","[4,8,2,6]","","",""
"show-reward","166","386599","0.0-166.0","p238655","pilot_test","emogo","test_session","model","mismatch","uniform","","","","","","","","386205.6999999881","388212.40000000596","","","","","","","","","","","","9","","stimuli/stars_9.png","256","","","","","stimuli/HF02_CC.jpg","",""
"explore-choice","167","389212","0.0-167.0","p238655","pilot_test","emogo","test_session","model","mismatch","uniform","","","","","","","2110.2000000178814","388213.1999999881","390323.40000000596","[""stimuli/BF05_CC.jpg"",""stimuli/HF09_SUR.jpg"",""stimuli/HF02_AO.jpg"",""stimuli/HM10_HE.jpg""]","stimuli/BF05_CC.jpg","stimuli/HF09_SUR.jpg","stimuli/HF02_AO.jpg","stimuli/HM10_HE.jpg","pos1","stimuli/BF05_CC.jpg","CC","BF05","0","3.5","7","8","stimuli/stars_7.png","259.5","[""CC"",""SUR"",""AO"",""HE""]","[""BF05"",""HF09"",""HF02"",""HM10""]","[7,5,4,3]","[8,6,2,4]","","",""
"show-reward","168","391220","0.0-168.0","p238655","pilot_test","emogo","test_session","model","mismatch","uniform","","","","","","","","390826.09999999404","392832.8000000119","","","","","","","","","","","","7","","stimuli/stars_7.png","259.5","","","","","stimuli/BF05_CC.jpg","",""
"explore-choice","169","394312","0.0-169.0","p238655","pilot_test","emogo","test_session","model","mismatch","uniform","","","","","","","2587.800000011921","392833.6999999881","395421.5","[""stimuli/HF02_AO.jpg"",""stimuli/HF09_HE.jpg"",""stimuli/HM10_CC.jpg"",""stimuli/BF05_SUR.jpg""]","stimuli/HF02_AO.jpg","stimuli/HF09_HE.jpg","stimuli/HM10_CC.jpg","stimuli/BF05_SUR.jpg","pos3","stimuli/HM10_CC.jpg","CC","HM10","2","5","10","8","stimuli/stars_10.png","264.5","[""AO"",""HE"",""CC"",""SUR""]","[""HF02"",""HF09"",""HM10"",""BF05""]","[1,4,10,5]","[2,4,8,6]","","",""
"show-reward","170","396316","0.0-170.0","p238655","pilot_test","emogo","test_session","model","mismatch","uniform","","","","","","","","395926.1999999881","397929.5","","","","","","","","","","","","10","","stimuli/stars_10.png","264.5","","","","","stimuli/HM10_CC.jpg","",""
"explore-choice","171","397861","0.0-171.0","p238655","pilot_test","emogo","test_session","model","mismatch","uniform","","","","","","","1039.199999988079","397930.3000000119","398969.5","[""stimuli/HF09_HE.jpg"",""stimuli/HM10_CC.jpg"",""stimuli/BF05_AO.jpg"",""stimuli/HF02_SUR.jpg""]","stimuli/HF09_HE.jpg","stimuli/HM10_CC.jpg","stimuli/BF05_AO.jpg","stimuli/HF02_SUR.jpg","pos2","stimuli/HM10_CC.jpg","CC","HM10","1","4.5","9","8","stimuli/stars_9.png","269","[""HE"",""CC"",""AO"",""SUR""]","[""HF09"",""HM10"",""BF05"",""HF02""]","[5,9,2,7]","[4,8,2,6]","","",""
"show-reward","172","399869","0.0-172.0","p238655","pilot_test","emogo","test_session","model","mismatch","uniform","","","","","","","","399475.5","401482","","","","","","","","","","","","9","","stimuli/stars_9.png","269","","","","","stimuli/HM10_CC.jpg","",""
"explore-choice","173","402112","0.0-173.0","p238655","pilot_test","emogo","test_session","model","mismatch","uniform","","","","","","","1738.699999988079","401482.8000000119","403221.5","[""stimuli/HF02_CC.jpg"",""stimuli/HF09_AO.jpg"",""stimuli/BF05_SUR.jpg"",""stimuli/HM10_HE.jpg""]","stimuli/HF02_CC.jpg","stimuli/HF09_AO.jpg","stimuli/BF05_SUR.jpg","stimuli/HM10_HE.jpg","pos1","stimuli/HF02_CC.jpg","CC","HF02","0","5","10","8","stimuli/stars_10.png","274","[""CC"",""AO"",""SUR"",""HE""]","[""HF02"",""HF09"",""BF05"",""HM10""]","[10,2,5,2]","[8,2,6,4]","","",""
"show-reward","174","404117","0.0-174.0","p238655","pilot_test","emogo","test_session","model","mismatch","uniform","","","","","","","","403726","405730.3000000119","","","","","","","","","","","","10","","stimuli/stars_10.png","274","","","","","stimuli/HF02_CC.jpg","",""
"explore-choice","175","405705","0.0-175.0","p238655","pilot_test","emogo","test_session","model","mismatch","uniform","","","","","","","1082.4000000059605","405731.09999999404","406813.5","[""stimuli/HM10_HE.jpg"",""stimuli/HF02_SUR.jpg"",""stimuli/HF09_CC.jpg"",""stimuli/BF05_AO.jpg""]","stimuli/HM10_HE.jpg","stimuli/HF02_SUR.jpg","stimuli/HF09_CC.jpg","stimuli/BF05_AO.jpg","pos3","stimuli/HF09_CC.jpg","CC","HF09","2","5","10","8","stimuli/stars_10.png","279","[""HE"",""SUR"",""CC"",""AO""]","[""HM10"",""HF02"",""HF09"",""BF05""]","[4,7,10,3]","[4,6,8,2]","","",""
"show-reward","176","407712","0.0-176.0","p238655","pilot_test","emogo","test_session","model","mismatch","uniform","","","","","","","","407319.5","409325.1999999881","","","","","","","","","","","","10","","stimuli/stars_10.png","279","","","","","stimuli/HF09_CC.jpg","",""
"explore-choice","177","409667","0.0-177.0","p238655","pilot_test","emogo","test_session","model","mismatch","uniform","","","","","","","1453.300000011921","409326.09999999404","410779.40000000596","[""stimuli/BF05_AO.jpg"",""stimuli/HF09_SUR.jpg"",""stimuli/HF02_CC.jpg"",""stimuli/HM10_HE.jpg""]","stimuli/BF05_AO.jpg","stimuli/HF09_SUR.jpg","stimuli/HF02_CC.jpg","stimuli/HM10_HE.jpg","pos3","stimuli/HF02_CC.jpg","CC","HF02","2","3.5","7","8","stimuli/stars_7.png","282.5","[""AO"",""SUR"",""CC"",""HE""]","[""BF05"",""HF09"",""HF02"",""HM10""]","[0,6,7,6]","[2,6,8,4]","","",""
"show-reward","178","411674","0.0-178.0","p238655","pilot_test","emogo","test_session","model","mismatch","uniform","","","","","","","","411281.5","413288.1999999881","","","","","","","","","","","","7","","stimuli/stars_7.png","282.5","","","","","stimuli/HF02_CC.jpg","",""
"explore-choice","179","413770","0.0-179.0","p238655","pilot_test","emogo","test_session","model","mismatch","uniform","","","","","","","1594.5","413289.09999999404","414883.59999999404","[""stimuli/BF05_AO.jpg"",""stimuli/HF09_SUR.jpg"",""stimuli/HF02_HE.jpg"",""stimuli/HM10_CC.jpg""]","stimuli/BF05_AO.jpg","stimuli/HF09_SUR.jpg","stimuli/HF02_HE.jpg","stimuli/HM10_CC.jpg","pos4","stimuli/HM10_CC.jpg","CC","HM10","3","4","8","8","stimuli/stars_8.png","286.5","[""AO"",""SUR"",""HE"",""CC""]","[""BF05"",""HF09"",""HF02"",""HM10""]","[2,7,2,8]","[2,6,4,8]","","",""
"show-reward","180","415776","0.0-180.0","p238655","pilot_test","emogo","test_session","model","mismatch","uniform","","","","","","","","415384.8000000119","417389.6999999881","","","","","","","","","","","","8","","stimuli/stars_8.png","286.5","","","","","stimuli/HM10_CC.jpg","",""
"explore-choice","181","419322","0.0-181.0","p238655","pilot_test","emogo","test_session","model","mismatch","uniform","","","","","","","3044.5999999940395","417390.59999999404","420435.1999999881","[""stimuli/BF05_CC.jpg"",""stimuli/HF09_AO.jpg"",""stimuli/HM10_HE.jpg"",""stimuli/HF02_SUR.jpg""]","stimuli/BF05_CC.jpg","stimuli/HF09_AO.jpg","stimuli/HM10_HE.jpg","stimuli/HF02_SUR.jpg","pos1","stimuli/BF05_CC.jpg","CC","BF05","0","3.5","7","8","stimuli/stars_7.png","290","[""CC"",""AO"",""HE"",""SUR""]","[""BF05"",""HF09"",""HM10"",""HF02""]","[7,1,3,6]","[8,2,4,6]","","",""
"show-reward","182","421327","0.0-182.0","p238655","pilot_test","emogo","test_session","model","mismatch","uniform","","","","","","","","420936.59999999404","422940.90000000596","","","","","","","","","","","","7","","stimuli/stars_7.png","290","","","","","stimuli/BF05_CC.jpg","",""
"explore-choice","183","423676","0.0-183.0","p238655","pilot_test","emogo","test_session","model","mismatch","uniform","","","","","","","1843.5999999940395","422941.90000000596","424785.5","[""stimuli/HF09_HE.jpg"",""stimuli/HM10_AO.jpg"",""stimuli/BF05_SUR.jpg"",""stimuli/HF02_CC.jpg""]","stimuli/HF09_HE.jpg","stimuli/HM10_AO.jpg","stimuli/BF05_SUR.jpg","stimuli/HF02_CC.jpg","pos4","stimuli/HF02_CC.jpg","CC","HF02","3","4","8","8","stimuli/stars_8.png","294","[""HE"",""AO"",""SUR"",""CC""]","[""HF09"",""HM10"",""BF05"",""HF02""]","[5,1,7,8]","[4,2,6,8]","","",""
"show-reward","184","425679","0.0-184.0","p238655","pilot_test","emogo","test_session","model","mismatch","uniform","","","","","","","","425291.5","427293.3000000119","","","","","","","","","","","","8","","stimuli/stars_8.png","294","","","","","stimuli/HF02_CC.jpg","",""
"explore-choice","185","427303","0.0-185.0","p238655","pilot_test","emogo","test_session","model","mismatch","uniform","","","","","","","1119.300000011921","427294.1999999881","428413.5","[""stimuli/HF09_HE.jpg"",""stimuli/HF02_SUR.jpg"",""stimuli/HM10_AO.jpg"",""stimuli/BF05_CC.jpg""]","stimuli/HF09_HE.jpg","stimuli/HF02_SUR.jpg","stimuli/HM10_AO.jpg","stimuli/BF05_CC.jpg","pos4","stimuli/BF05_CC.jpg","CC","BF05","3","3.5","7","8","stimuli/stars_7.png","297.5","[""HE"",""SUR"",""AO"",""CC""]","[""HF09"",""HF02"",""HM10"",""BF05""]","[4,6,1,7]","[4,6,2,8]","","",""
"show-reward","186","429311","0.0-186.0","p238655","pilot_test","emogo","test_session","model","mismatch","uniform","","","","","","","","428918.59999999404","430925.09999999404","","","","","","","","","","","","7","","stimuli/stars_7.png","297.5","","","","","stimuli/BF05_CC.jpg","",""
"explore-choice","187","431117","0.0-187.0","p238655","pilot_test","emogo","test_session","model","mismatch","uniform","","","","","","","1305.4000000059605","430926.09999999404","432231.5","[""stimuli/HM10_SUR.jpg"",""stimuli/BF05_AO.jpg"",""stimuli/HF09_CC.jpg"",""stimuli/HF02_HE.jpg""]","stimuli/HM10_SUR.jpg","stimuli/BF05_AO.jpg","stimuli/HF09_CC.jpg","stimuli/HF02_HE.jpg","pos3","stimuli/HF09_CC.jpg","CC","HF09","2","3.5","7","8","stimuli/stars_7.png","301","[""SUR"",""AO"",""CC"",""HE""]","[""HM10"",""BF05"",""HF09"",""HF02""]","[4,0,7,5]","[6,2,8,4]","","",""
"show-reward","188","433125","0.0-188.0","p238655","pilot_test","emogo","test_session","model","mismatch","uniform","","","","","","","","432732.59999999404","434739.40000000596","","","","","","","","","","","","7","","stimuli/stars_7.png","301","","","","","stimuli/HF09_CC.jpg","",""
"explore-choice","189","434865","0.0-189.0","p238655","pilot_test","emogo","test_session","model","mismatch","uniform","","","","","","","1239.0999999940395","434740.40000000596","435979.5","[""stimuli/HM10_SUR.jpg"",""stimuli/HF09_CC.jpg"",""stimuli/BF05_HE.jpg"",""stimuli/HF02_AO.jpg""]","stimuli/HM10_SUR.jpg","stimuli/HF09_CC.jpg","stimuli/BF05_HE.jpg","stimuli/HF02_AO.jpg","pos2","stimuli/HF09_CC.jpg","CC","HF09","1","4.5","9","8","stimuli/stars_9.png","305.5","[""SUR"",""CC"",""HE"",""AO""]","[""HM10"",""HF09"",""BF05"",""HF02""]","[8,9,4,2]","[6,8,4,2]","","",""
"show-reward","190","436869","0.0-190.0","p238655","pilot_test","emogo","test_session","model","mismatch","uniform","","","","","","","","436480.6999999881","438483.40000000596","","","","","","","","","","","","9","","stimuli/stars_9.png","305.5","","","","","stimuli/HF09_CC.jpg","",""
"explore-choice","191","439437","0.0-191.0","p238655","pilot_test","emogo","test_session","model","mismatch","uniform","","","","","","","2065.199999988079","438484.3000000119","440549.5","[""stimuli/HF02_CC.jpg"",""stimuli/BF05_HE.jpg"",""stimuli/HF09_AO.jpg"",""stimuli/HM10_SUR.jpg""]","stimuli/HF02_CC.jpg","stimuli/BF05_HE.jpg","stimuli/HF09_AO.jpg","stimuli/HM10_SUR.jpg","pos1","stimuli/HF02_CC.jpg","CC","HF02","0","3","6","8","stimuli/stars_6.png","308.5","[""CC"",""HE"",""AO"",""SUR""]","[""HF02"",""BF05"",""HF09"",""HM10""]","[6,5,0,8]","[8,4,2,6]","","",""
"show-reward","192","441445","0.0-192.0","p238655","pilot_test","emogo","test_session","model","mismatch","uniform","","","","","","","","441052.90000000596","443059.6999999881","","","","","","","","","","","","6","","stimuli/stars_6.png","308.5","","","","","stimuli/HF02_CC.jpg","",""
"explore-choice","193","443326","0.0-193.0","p238655","pilot_test","emogo","test_session","model","mismatch","uniform","","","","","","","1376.9000000059605","443060.59999999404","444437.5","[""stimuli/HM10_HE.jpg"",""stimuli/HF02_AO.jpg"",""stimuli/BF05_SUR.jpg"",""stimuli/HF09_CC.jpg""]","stimuli/HM10_HE.jpg","stimuli/HF02_AO.jpg","stimuli/BF05_SUR.jpg","stimuli/HF09_CC.jpg","pos4","stimuli/HF09_CC.jpg","CC","HF09","3","4","8","8","stimuli/stars_8.png","312.5","[""HE"",""AO"",""SUR"",""CC""]","[""HM10"",""HF02"",""BF05"",""HF09""]","[4,3,7,8]","[4,2,6,8]","","",""
"show-reward","194","445329","0.0-194.0","p238655","pilot_test","emogo","test_session","model","mismatch","uniform","","","","","","","","444941.3000000119","446943.59999999404","","","","","","","","","","","","8","","stimuli/stars_8.png","312.5","","","","","stimuli/HF09_CC.jpg","",""
"explore-choice","195","447395","0.0-195.0","p238655","pilot_test","emogo","test_session","model","mismatch","uniform","","","","","","","1561.199999988079","446944.40000000596","448505.59999999404","[""stimuli/BF05_HE.jpg"",""stimuli/HM10_CC.jpg"",""stimuli/HF09_SUR.jpg"",""stimuli/HF02_AO.jpg""]","stimuli/BF05_HE.jpg","stimuli/HM10_CC.jpg","stimuli/HF09_SUR.jpg","stimuli/HF02_AO.jpg","pos2","stimuli/HM10_CC.jpg","CC","HM10","1","4.5","9","8","stimuli/stars_9.png","317","[""HE"",""CC"",""SUR"",""AO""]","[""BF05"",""HM10"",""HF09"",""HF02""]","[4,9,5,1]","[4,8,6,2]","","",""
"show-reward","196","449397","0.0-196.0","p238655","pilot_test","emogo","test_session","model","mismatch","uniform","","","","","","","","449010.6999999881","451012.40000000596","","","","","","","","","","","","9","","stimuli/stars_9.png","317","","","","","stimuli/HM10_CC.jpg","",""
"explore-choice","197","450883","0.0-197.0","p238655","pilot_test","emogo","test_session","model","mismatch","uniform","","","","","","","980.4000000059605","451013.09999999404","451993.5","[""stimuli/HF02_HE.jpg"",""stimuli/HM10_CC.jpg"",""stimuli/HF09_AO.jpg"",""stimuli/BF05_SUR.jpg""]","stimuli/HF02_HE.jpg","stimuli/HM10_CC.jpg","stimuli/HF09_AO.jpg","stimuli/BF05_SUR.jpg","pos2","stimuli/HM10_CC.jpg","CC","HM10","1","3.5","7","8","stimuli/stars_7.png","320.5","[""HE"",""CC"",""AO"",""SUR""]","[""HF02"",""HM10"",""HF09"",""BF05""]","[5,7,2,5]","[4,8,2,6]","","",""
"show-reward","198","452886","0.0-198.0","p238655","pilot_test","emogo","test_session","model","mismatch","uniform","","","","","","","","452499.40000000596","454501.3000000119","","","","","","","","","","","","7","","stimuli/stars_7.png","320.5","","","","","stimuli/HM10_CC.jpg","",""
"instructions","199","457827","0.0-199.0","p238655","pilot_test","emogo","test_session","model","mismatch","uniform","","","","","","[{""page_index"":0,""viewing_time"":4939.0999999940395}]","4939.899999976158","","","","","","","","","","","","","","","","","","","","","","","",""
"survey-text","200","462159","0.0-200.0-0.0","p238655","pilot_test","emogo","test_session","model","mismatch","uniform","","","","","","","4328.9000000059605","","","","","","","","","","","","","","","","","","","","","","","{""age"":""29""}",""
"survey-text","201","464717","0.0-200.0-1.0","p238655","pilot_test","emogo","test_session","model","mismatch","uniform","","","","","","","2556.0999999940395","","","","","","","","","","","","","","","","","","","","","","","{""gender"":""Female""}",""
"survey-text","202","466349","0.0-200.0-2.0","p238655","pilot_test","emogo","test_session","model","mismatch","uniform","","","","","","","1629.5","","","","","","","","","","","","","","","","","","","","","","","{""country"":""Yes""}",""
"survey-text","203","469077","0.0-200.0-3.0","p238655","pilot_test","emogo","test_session","model","mismatch","uniform","","","","","","","2725.0999999940395","","","","","","","","","","","","","","","","","","","","","","","{""language"":""English"",""other_languages"":""""}",""
"survey-multi-select","204","472508","0.0-201.0","p238655","pilot_test","emogo","test_session","model","mismatch","uniform","","","","","","","3426.2999999821186","","","","","","","","","","","","","","","","","","","","","","","{""race"":[""White""]}","[0]"
"survey-multi-choice","205","483082","0.0-202.0","p238655","pilot_test","emogo","test_session","model","mismatch","uniform","","","","","","","10567.299999982119","","","","","","","","","","","","","","","","","","","","","","","{""education"":""Bachelor's degree""}","[0]"
"survey-text","206","719522","0.0-203.0","p238655","pilot_test","emogo","test_session","model","mismatch","uniform","","","","","","","236434.39999997616","","","","","","","","","","","","","","","","","","","","","","","{""patterns"":""One person's face in the first set of images seemed to give more stars. The neutral faces in the second set of images seemed to give more stars. If you used the pattern too many times though, it would decrease in value."",""strategy"":""I clicked on the face I thought would give the most stars in the pattern, but since it would decrease after picking it too often, I'd re-set the pattern by clicking through the other faces to make sure I was not missing something. "",""comments"":""I think the faces vary a bit in attractiveness, but I'm not sure if that's going to be an issue for your study. I think the attractiveness is a subtle form of bias that could draw participants to some faces over others. Also, the smiles have varying levels of positivity, especially in the second set.""}",""
