"trial_type","trial_index","time_elapsed","internal_node_id","subject","workerId","hitId","assignmentId","structure_condition","match_condition","noise_type","success","timeout","failed_images","failed_audio","failed_video","view_history","rt","start_time","end_time","stimuli","image1","image2","image3","image4","choiceLocation","choiceImage","choiceEmotion","choiceModel","choice_index","reward_score","reward","reward_score_unadjusted","reward_image","score_after_trial","emotions","models","rewards","rewards_unadjusted","stimulus"
"pavlovia","0","22","0.0-0.0","p839591","pilot_test","emogo","test_session","emotion","match","uniform","","","","","","","","","","","","","","","","","","","","","","","","","","","","",""
"preload","1","2569","0.0-1.0","p839591","pilot_test","emogo","test_session","emotion","match","uniform","true","false","[]","[]","[]","","","","","","","","","","","","","","","","","","","","","","","",""
"fullscreen","2","9468","0.0-2.0","p839591","pilot_test","emogo","test_session","emotion","match","uniform","true","","","","","","","","","","","","","","","","","","","","","","","","","","","",""
"instructions","3","44920","0.0-3.0","p839591","pilot_test","emogo","test_session","emotion","match","uniform","","","","","","[{""page_index"":0,""viewing_time"":35451.20000000298}]","35452.70000000298","","","","","","","","","","","","","","","","","","","","","",""
"explore-choice","4","48621","0.0-4.0","p839591","pilot_test","emogo","test_session","emotion","match","uniform","","","","","","","3197.10000000149","46453.69999999553","49650.79999999702","[""stimuli/sheep.jpg"",""stimuli/hammer.jpg"",""stimuli/basketball.jpg"",""stimuli/horse.jpg""]","stimuli/sheep.jpg","stimuli/hammer.jpg","stimuli/basketball.jpg","stimuli/horse.jpg","pos4","stimuli/horse.jpg","","","3","64","64","64","stimuli/stars_8.png","65","","","","",""
"explore-choice","5","50351","0.0-5.0","p839591","pilot_test","emogo","test_session","emotion","match","uniform","","","","","","","1221.3000000044703","50155.09999999404","51376.39999999851","[""stimuli/hammer.jpg"",""stimuli/basketball.jpg"",""stimuli/horse.jpg"",""stimuli/sheep.jpg""]","stimuli/hammer.jpg","stimuli/basketball.jpg","stimuli/horse.jpg","stimuli/sheep.jpg","pos1","stimuli/hammer.jpg","","","0","8","8","8","stimuli/stars_2.png","9","","","","",""
"instructions","6","59102","0.0-6.0","p839591","pilot_test","emogo","test_session","emotion","match","uniform","","","","","","[{""page_index"":0,""viewing_time"":8749.5}]","8749.79999999702","","","","","","","","","","","","","","","","","","","","","",""
"explore-choice","7","64744","0.0-7.0","p839591","pilot_test","emogo","test_session","emotion","match","uniform","","","","","","","5138.20000000298","60636.59999999404","65774.79999999702","[""stimuli/HF09_CC.jpg"",""stimuli/HM07_SC.jpg"",""stimuli/AM06_SUR.jpg"",""stimuli/BM16_HO.jpg""]","stimuli/HF09_CC.jpg","stimuli/HM07_SC.jpg","stimuli/AM06_SUR.jpg","stimuli/BM16_HO.jpg","pos4","stimuli/BM16_HO.jpg","HO","BM16","3","1.5","3","2","stimuli/stars_3.png","2.5","[""CC"",""SC"",""SUR"",""HO""]","[""HF09"",""HM07"",""AM06"",""BM16""]","[4,7,4,3]","[4,8,6,2]",""
"show-reward","8","66756","0.0-8.0","p839591","pilot_test","emogo","test_session","emotion","match","uniform","","","","","","","","66280.39999999851","68288.39999999851","","","","","","","","","","","","3","","stimuli/stars_3.png","2.5","","","","","stimuli/BM16_HO.jpg"
"explore-choice","9","70258","0.0-9.0","p839591","pilot_test","emogo","test_session","emotion","match","uniform","","","","","","","2996","68290.59999999404","71286.59999999404","[""stimuli/AM06_HO.jpg"",""stimuli/HM07_SC.jpg"",""stimuli/BM16_SUR.jpg"",""stimuli/HF09_CC.jpg""]","stimuli/AM06_HO.jpg","stimuli/HM07_SC.jpg","stimuli/BM16_SUR.jpg","stimuli/HF09_CC.jpg","pos1","stimuli/AM06_HO.jpg","HO","AM06","0","2","4","2","stimuli/stars_4.png","4.5","[""HO"",""SC"",""SUR"",""CC""]","[""AM06"",""HM07"",""BM16"",""HF09""]","[4,10,7,2]","[2,8,6,4]",""
"show-reward","10","72265","0.0-10.0","p839591","pilot_test","emogo","test_session","emotion","match","uniform","","","","","","","","71793.29999999702","73797.69999999553","","","","","","","","","","","","4","","stimuli/stars_4.png","4.5","","","","","stimuli/AM06_HO.jpg"
"explore-choice","11","75965","0.0-11.0","p839591","pilot_test","emogo","test_session","emotion","match","uniform","","","","","","","3197.5","73799.39999999851","76996.89999999851","[""stimuli/HM07_SUR.jpg"",""stimuli/BM16_SC.jpg"",""stimuli/AM06_HO.jpg"",""stimuli/HF09_CC.jpg""]","stimuli/HM07_SUR.jpg","stimuli/BM16_SC.jpg","stimuli/AM06_HO.jpg","stimuli/HF09_CC.jpg","pos3","stimuli/AM06_HO.jpg","HO","AM06","2","0","0","2","stimuli/stars_0.png","4.5","[""SUR"",""SC"",""HO"",""CC""]","[""HM07"",""BM16"",""AM06"",""HF09""]","[6,6,0,2]","[6,8,2,4]",""
"show-reward","12","77970","0.0-12.0","p839591","pilot_test","emogo","test_session","emotion","match","uniform","","","","","","","","77499.79999999702","79503","","","","","","","","","","","","0","","stimuli/stars_0.png","4.5","","","","","stimuli/AM06_HO.jpg"
"explore-choice","13","79274","0.0-13.0","p839591","pilot_test","emogo","test_session","emotion","match","uniform","","","","","","","802.3000000044703","79504.69999999553","80307","[""stimuli/HF09_SC.jpg"",""stimuli/HM07_HO.jpg"",""stimuli/BM16_CC.jpg"",""stimuli/AM06_SUR.jpg""]","stimuli/HF09_SC.jpg","stimuli/HM07_HO.jpg","stimuli/BM16_CC.jpg","stimuli/AM06_SUR.jpg","pos2","stimuli/HM07_HO.jpg","HO","HM07","1","1","2","2","stimuli/stars_2.png","5.5","[""SC"",""HO"",""CC"",""SUR""]","[""HF09"",""HM07"",""BM16"",""AM06""]","[7,2,2,5]","[8,2,4,6]",""
"show-reward","14","81280","0.0-14.0","p839591","pilot_test","emogo","test_session","emotion","match","uniform","","","","","","","","80808.89999999851","82813.5","","","","","","","","","","","","2","","stimuli/stars_2.png","5.5","","","","","stimuli/HM07_HO.jpg"
"explore-choice","15","102877","0.0-15.0","p839591","pilot_test","emogo","test_session","emotion","match","uniform","","","","","","","21092.29999999702","82815.39999999851","103907.69999999553","[""stimuli/AM06_SC.jpg"",""stimuli/BM16_HO.jpg"",""stimuli/HM07_SUR.jpg"",""stimuli/HF09_CC.jpg""]","stimuli/AM06_SC.jpg","stimuli/BM16_HO.jpg","stimuli/HM07_SUR.jpg","stimuli/HF09_CC.jpg","pos4","stimuli/HF09_CC.jpg","CC","HF09","3","3","6","4","stimuli/stars_6.png","8.5","[""SC"",""HO"",""SUR"",""CC""]","[""AM06"",""BM16"",""HM07"",""HF09""]","[8,0,4,6]","[8,2,6,4]",""
"show-reward","16","104882","0.0-16.0","p839591","pilot_test","emogo","test_session","emotion","match","uniform","","","","","","","","104413.5","106416.69999999553","","","","","","","","","","","","6","","stimuli/stars_6.png","8.5","","","","","stimuli/HF09_CC.jpg"
"explore-choice","17","108894","0.0-17.0","p839591","pilot_test","emogo","test_session","emotion","match","uniform","","","","","","","3508.89999999851","106418.29999999702","109927.19999999553","[""stimuli/HF09_HO.jpg"",""stimuli/AM06_SC.jpg"",""stimuli/HM07_CC.jpg"",""stimuli/BM16_SUR.jpg""]","stimuli/HF09_HO.jpg","stimuli/AM06_SC.jpg","stimuli/HM07_CC.jpg","stimuli/BM16_SUR.jpg","pos1","stimuli/HF09_HO.jpg","HO","HF09","0","0.5","1","2","stimuli/stars_1.png","9","[""HO"",""SC"",""CC"",""SUR""]","[""HF09"",""AM06"",""HM07"",""BM16""]","[1,6,5,6]","[2,8,4,6]",""
"show-reward","18","110901","0.0-18.0","p839591","pilot_test","emogo","test_session","emotion","match","uniform","","","","","","","","110430.59999999404","112436.09999999404","","","","","","","","","","","","1","","stimuli/stars_1.png","9","","","","","stimuli/HF09_HO.jpg"
"explore-choice","19","115694","0.0-19.0","p839591","pilot_test","emogo","test_session","emotion","match","uniform","","","","","","","4288.5","112437.89999999851","116726.39999999851","[""stimuli/HF09_SUR.jpg"",""stimuli/HM07_CC.jpg"",""stimuli/AM06_HO.jpg"",""stimuli/BM16_SC.jpg""]","stimuli/HF09_SUR.jpg","stimuli/HM07_CC.jpg","stimuli/AM06_HO.jpg","stimuli/BM16_SC.jpg","pos4","stimuli/BM16_SC.jpg","SC","BM16","3","5","10","8","stimuli/stars_10.png","14","[""SUR"",""CC"",""HO"",""SC""]","[""HF09"",""HM07"",""AM06"",""BM16""]","[7,2,2,10]","[6,4,2,8]",""
"show-reward","20","117701","0.0-20.0","p839591","pilot_test","emogo","test_session","emotion","match","uniform","","","","","","","","117231.59999999404","119237","","","","","","","","","","","","10","","stimuli/stars_10.png","14","","","","","stimuli/BM16_SC.jpg"
"explore-choice","21","120994","0.0-21.0","p839591","pilot_test","emogo","test_session","emotion","match","uniform","","","","","","","2787.5","119238.5","122026","[""stimuli/HM07_HO.jpg"",""stimuli/BM16_SC.jpg"",""stimuli/AM06_SUR.jpg"",""stimuli/HF09_CC.jpg""]","stimuli/HM07_HO.jpg","stimuli/BM16_SC.jpg","stimuli/AM06_SUR.jpg","stimuli/HF09_CC.jpg","pos2","stimuli/BM16_SC.jpg","SC","BM16","1","5","10","8","stimuli/stars_10.png","19","[""HO"",""SC"",""SUR"",""CC""]","[""HM07"",""BM16"",""AM06"",""HF09""]","[3,10,8,6]","[2,8,6,4]",""
"show-reward","22","123001","0.0-22.0","p839591","pilot_test","emogo","test_session","emotion","match","uniform","","","","","","","","122531.89999999851","124536.59999999404","","","","","","","","","","","","10","","stimuli/stars_10.png","19","","","","","stimuli/BM16_SC.jpg"
"explore-choice","23","125640","0.0-23.0","p839591","pilot_test","emogo","test_session","emotion","match","uniform","","","","","","","2135.89999999851","124538","126673.89999999851","[""stimuli/BM16_CC.jpg"",""stimuli/HM07_SC.jpg"",""stimuli/AM06_SUR.jpg"",""stimuli/HF09_HO.jpg""]","stimuli/BM16_CC.jpg","stimuli/HM07_SC.jpg","stimuli/AM06_SUR.jpg","stimuli/HF09_HO.jpg","pos2","stimuli/HM07_SC.jpg","SC","HM07","1","4","8","8","stimuli/stars_8.png","23","[""CC"",""SC"",""SUR"",""HO""]","[""BM16"",""HM07"",""AM06"",""HF09""]","[3,8,8,2]","[4,8,6,2]",""
"show-reward","24","127651","0.0-24.0","p839591","pilot_test","emogo","test_session","emotion","match","uniform","","","","","","","","127177.79999999702","129187.59999999404","","","","","","","","","","","","8","","stimuli/stars_8.png","23","","","","","stimuli/HM07_SC.jpg"
"explore-choice","25","130360","0.0-25.0","p839591","pilot_test","emogo","test_session","emotion","match","uniform","","","","","","","2202.5","129189.29999999702","131391.79999999702","[""stimuli/BM16_HO.jpg"",""stimuli/HM07_CC.jpg"",""stimuli/AM06_SC.jpg"",""stimuli/HF09_SUR.jpg""]","stimuli/BM16_HO.jpg","stimuli/HM07_CC.jpg","stimuli/AM06_SC.jpg","stimuli/HF09_SUR.jpg","pos3","stimuli/AM06_SC.jpg","SC","AM06","2","3.5","7","8","stimuli/stars_7.png","26.5","[""HO"",""CC"",""SC"",""SUR""]","[""BM16"",""HM07"",""AM06"",""HF09""]","[0,2,7,5]","[2,4,8,6]",""
"show-reward","26","132371","0.0-26.0","p839591","pilot_test","emogo","test_session","emotion","match","uniform","","","","","","","","131897.8999999985","133907.8999999985","","","","","","","","","","","","7","","stimuli/stars_7.png","26.5","","","","","stimuli/AM06_SC.jpg"
"explore-choice","27","134850","0.0-27.0","p839591","pilot_test","emogo","test_session","emotion","match","uniform","","","","","","","1971.0999999940395","133909.5","135880.59999999404","[""stimuli/AM06_SUR.jpg"",""stimuli/BM16_SC.jpg"",""stimuli/HF09_HO.jpg"",""stimuli/HM07_CC.jpg""]","stimuli/AM06_SUR.jpg","stimuli/BM16_SC.jpg","stimuli/HF09_HO.jpg","stimuli/HM07_CC.jpg","pos2","stimuli/BM16_SC.jpg","SC","BM16","1","4.5","9","8","stimuli/stars_9.png","31","[""SUR"",""SC"",""HO"",""CC""]","[""AM06"",""BM16"",""HF09"",""HM07""]","[8,9,3,6]","[6,8,2,4]",""
"show-reward","28","136854","0.0-28.0","p839591","pilot_test","emogo","test_session","emotion","match","uniform","","","","","","","","136387.8999999985","138391.09999999404","","","","","","","","","","","","9","","stimuli/stars_9.png","31","","","","","stimuli/BM16_SC.jpg"
"explore-choice","29","139761","0.0-29.0","p839591","pilot_test","emogo","test_session","emotion","match","uniform","","","","","","","2402.39999999851","138392.5","140794.8999999985","[""stimuli/HF09_SUR.jpg"",""stimuli/HM07_HO.jpg"",""stimuli/AM06_SC.jpg"",""stimuli/BM16_CC.jpg""]","stimuli/HF09_SUR.jpg","stimuli/HM07_HO.jpg","stimuli/AM06_SC.jpg","stimuli/BM16_CC.jpg","pos3","stimuli/AM06_SC.jpg","SC","AM06","2","3.5","7","8","stimuli/stars_7.png","34.5","[""SUR"",""HO"",""SC"",""CC""]","[""HF09"",""HM07"",""AM06"",""BM16""]","[4,1,7,4]","[6,2,8,4]",""
"show-reward","30","141772","0.0-30.0","p839591","pilot_test","emogo","test_session","emotion","match","uniform","","","","","","","","141299.5","143309.5","","","","","","","","","","","","7","","stimuli/stars_7.png","34.5","","","","","stimuli/AM06_SC.jpg"
"explore-choice","31","152042","0.0-31.0","p839591","pilot_test","emogo","test_session","emotion","match","uniform","","","","","","","9767.20000000298","143311.09999999404","153078.29999999702","[""stimuli/HM07_SC.jpg"",""stimuli/BM16_SUR.jpg"",""stimuli/AM06_CC.jpg"",""stimuli/HF09_HO.jpg""]","stimuli/HM07_SC.jpg","stimuli/BM16_SUR.jpg","stimuli/AM06_CC.jpg","stimuli/HF09_HO.jpg","pos1","stimuli/HM07_SC.jpg","SC","HM07","0","3","6","8","stimuli/stars_6.png","37.5","[""SC"",""SUR"",""CC"",""HO""]","[""HM07"",""BM16"",""AM06"",""HF09""]","[6,8,5,1]","[8,6,4,2]",""
"show-reward","32","154050","0.0-32.0","p839591","pilot_test","emogo","test_session","emotion","match","uniform","","","","","","","","153580.79999999702","155587.69999999553","","","","","","","","","","","","6","","stimuli/stars_6.png","37.5","","","","","stimuli/HM07_SC.jpg"
"explore-choice","33","200003","0.0-33.0","p839591","pilot_test","emogo","test_session","emotion","match","uniform","","","","","","","45451.29999999702","155589.29999999702","201040.59999999404","[""stimuli/BM16_HO.jpg"",""stimuli/AM06_SUR.jpg"",""stimuli/HM07_CC.jpg"",""stimuli/HF09_SC.jpg""]","stimuli/BM16_HO.jpg","stimuli/AM06_SUR.jpg","stimuli/HM07_CC.jpg","stimuli/HF09_SC.jpg","pos4","stimuli/HF09_SC.jpg","SC","HF09","3","4","8","8","stimuli/stars_8.png","41.5","[""HO"",""SUR"",""CC"",""SC""]","[""BM16"",""AM06"",""HM07"",""HF09""]","[2,5,6,8]","[2,6,4,8]",""
"show-reward","34","202008","0.0-34.0","p839591","pilot_test","emogo","test_session","emotion","match","uniform","","","","","","","","201545.3999999985","203548.3999999985","","","","","","","","","","","","8","","stimuli/stars_8.png","41.5","","","","","stimuli/HF09_SC.jpg"
"explore-choice","35","204097","0.0-35.0","p839591","pilot_test","emogo","test_session","emotion","match","uniform","","","","","","","1583.3000000044703","203550.19999999553","205133.5","[""stimuli/AM06_CC.jpg"",""stimuli/HF09_SUR.jpg"",""stimuli/HM07_HO.jpg"",""stimuli/BM16_SC.jpg""]","stimuli/AM06_CC.jpg","stimuli/HF09_SUR.jpg","stimuli/HM07_HO.jpg","stimuli/BM16_SC.jpg","pos4","stimuli/BM16_SC.jpg","SC","BM16","3","5","10","8","stimuli/stars_10.png","46.5","[""CC"",""SUR"",""HO"",""SC""]","[""AM06"",""HF09"",""HM07"",""BM16""]","[5,6,4,10]","[4,6,2,8]",""
"show-reward","36","206108","0.0-36.0","p839591","pilot_test","emogo","test_session","emotion","match","uniform","","","","","","","","205638.69999999553","207648.69999999553","","","","","","","","","","","","10","","stimuli/stars_10.png","46.5","","","","","stimuli/BM16_SC.jpg"
"explore-choice","37","208466","0.0-37.0","p839591","pilot_test","emogo","test_session","emotion","match","uniform","","","","","","","1853.3999999985099","207650.29999999702","209503.69999999553","[""stimuli/AM06_HO.jpg"",""stimuli/BM16_SUR.jpg"",""stimuli/HF09_SC.jpg"",""stimuli/HM07_CC.jpg""]","stimuli/AM06_HO.jpg","stimuli/BM16_SUR.jpg","stimuli/HF09_SC.jpg","stimuli/HM07_CC.jpg","pos3","stimuli/HF09_SC.jpg","SC","HF09","2","3.5","7","8","stimuli/stars_7.png","50","[""HO"",""SUR"",""SC"",""CC""]","[""AM06"",""BM16"",""HF09"",""HM07""]","[3,6,7,3]","[2,6,8,4]",""
"show-reward","38","210477","0.0-38.0","p839591","pilot_test","emogo","test_session","emotion","match","uniform","","","","","","","","210008.5","212018.09999999404","","","","","","","","","","","","7","","stimuli/stars_7.png","50","","","","","stimuli/HF09_SC.jpg"
"explore-choice","39","212124","0.0-39.0","p839591","pilot_test","emogo","test_session","emotion","match","uniform","","","","","","","1141.2000000029802","212019.69999999553","213160.8999999985","[""stimuli/HM07_HO.jpg"",""stimuli/HF09_SC.jpg"",""stimuli/BM16_SUR.jpg"",""stimuli/AM06_CC.jpg""]","stimuli/HM07_HO.jpg","stimuli/HF09_SC.jpg","stimuli/BM16_SUR.jpg","stimuli/AM06_CC.jpg","pos2","stimuli/HF09_SC.jpg","SC","HF09","1","3","6","8","stimuli/stars_6.png","53","[""HO"",""SC"",""SUR"",""CC""]","[""HM07"",""HF09"",""BM16"",""AM06""]","[2,6,7,3]","[2,8,6,4]",""
"show-reward","40","214135","0.0-40.0","p839591","pilot_test","emogo","test_session","emotion","match","uniform","","","","","","","","213666.19999999553","215676","","","","","","","","","","","","6","","stimuli/stars_6.png","53","","","","","stimuli/HF09_SC.jpg"
"explore-choice","41","216065","0.0-41.0","p839591","pilot_test","emogo","test_session","emotion","match","uniform","","","","","","","1421.8000000044703","215677.59999999404","217099.3999999985","[""stimuli/HM07_SUR.jpg"",""stimuli/HF09_SC.jpg"",""stimuli/BM16_HO.jpg"",""stimuli/AM06_CC.jpg""]","stimuli/HM07_SUR.jpg","stimuli/HF09_SC.jpg","stimuli/BM16_HO.jpg","stimuli/AM06_CC.jpg","pos2","stimuli/HF09_SC.jpg","SC","HF09","1","3.5","7","8","stimuli/stars_7.png","56.5","[""SUR"",""SC"",""HO"",""CC""]","[""HM07"",""HF09"",""BM16"",""AM06""]","[4,7,2,4]","[6,8,2,4]",""
"show-reward","42","218074","0.0-42.0","p839591","pilot_test","emogo","test_session","emotion","match","uniform","","","","","","","","217607.5","219615.29999999702","","","","","","","","","","","","7","","stimuli/stars_7.png","56.5","","","","","stimuli/HF09_SC.jpg"
"explore-choice","43","221596","0.0-43.0","p839591","pilot_test","emogo","test_session","emotion","match","uniform","","","","","","","3016.7000000029802","219616.69999999553","222633.3999999985","[""stimuli/BM16_SC.jpg"",""stimuli/AM06_CC.jpg"",""stimuli/HM07_SUR.jpg"",""stimuli/HF09_HO.jpg""]","stimuli/BM16_SC.jpg","stimuli/AM06_CC.jpg","stimuli/HM07_SUR.jpg","stimuli/HF09_HO.jpg","pos1","stimuli/BM16_SC.jpg","SC","BM16","0","4","8","8","stimuli/stars_8.png","60.5","[""SC"",""CC"",""SUR"",""HO""]","[""BM16"",""AM06"",""HM07"",""HF09""]","[8,2,5,1]","[8,4,6,2]",""
"show-reward","44","223602","0.0-44.0","p839591","pilot_test","emogo","test_session","emotion","match","uniform","","","","","","","","223138.59999999404","225144","","","","","","","","","","","","8","","stimuli/stars_8.png","60.5","","","","","stimuli/BM16_SC.jpg"
"explore-choice","45","236272","0.0-45.0","p839591","pilot_test","emogo","test_session","emotion","match","uniform","","","","","","","12164.19999999553","225145.3999999985","237309.59999999404","[""stimuli/HM07_HO.jpg"",""stimuli/BM16_SUR.jpg"",""stimuli/AM06_SC.jpg"",""stimuli/HF09_CC.jpg""]","stimuli/HM07_HO.jpg","stimuli/BM16_SUR.jpg","stimuli/AM06_SC.jpg","stimuli/HF09_CC.jpg","pos3","stimuli/AM06_SC.jpg","SC","AM06","2","3.5","7","8","stimuli/stars_7.png","64","[""HO"",""SUR"",""SC"",""CC""]","[""HM07"",""BM16"",""AM06"",""HF09""]","[1,5,7,5]","[2,6,8,4]",""
"show-reward","46","238280","0.0-46.0","p839591","pilot_test","emogo","test_session","emotion","match","uniform","","","","","","","","237816","239822.3999999985","","","","","","","","","","","","7","","stimuli/stars_7.png","64","","","","","stimuli/AM06_SC.jpg"
"explore-choice","47","260906","0.0-47.0","p839591","pilot_test","emogo","test_session","emotion","match","uniform","","","","","","","22123.60000000149","239823.79999999702","261947.3999999985","[""stimuli/HM07_SC.jpg"",""stimuli/BM16_CC.jpg"",""stimuli/AM06_HO.jpg"",""stimuli/HF09_SUR.jpg""]","stimuli/HM07_SC.jpg","stimuli/BM16_CC.jpg","stimuli/AM06_HO.jpg","stimuli/HF09_SUR.jpg","pos1","stimuli/HM07_SC.jpg","SC","HM07","0","3","6","8","stimuli/stars_6.png","67","[""SC"",""CC"",""HO"",""SUR""]","[""HM07"",""BM16"",""AM06"",""HF09""]","[6,5,1,4]","[8,4,2,6]",""
"show-reward","48","262912","0.0-48.0","p839591","pilot_test","emogo","test_session","emotion","match","uniform","","","","","","","","262450.8999999985","264455.8999999985","","","","","","","","","","","","6","","stimuli/stars_6.png","67","","","","","stimuli/HM07_SC.jpg"
"explore-choice","49","265301","0.0-49.0","p839591","pilot_test","emogo","test_session","emotion","match","uniform","","","","","","","1886.3999999985099","264457.3999999985","266343.799999997","[""stimuli/HM07_SUR.jpg"",""stimuli/BM16_CC.jpg"",""stimuli/HF09_SC.jpg"",""stimuli/AM06_HO.jpg""]","stimuli/HM07_SUR.jpg","stimuli/BM16_CC.jpg","stimuli/HF09_SC.jpg","stimuli/AM06_HO.jpg","pos3","stimuli/HF09_SC.jpg","SC","HF09","2","4","8","8","stimuli/stars_8.png","71","[""SUR"",""CC"",""SC"",""HO""]","[""HM07"",""BM16"",""HF09"",""AM06""]","[7,6,8,2]","[6,4,8,2]",""
"show-reward","50","267312","0.0-50.0","p839591","pilot_test","emogo","test_session","emotion","match","uniform","","","","","","","","266846.19999999553","268856.19999999553","","","","","","","","","","","","8","","stimuli/stars_8.png","71","","","","","stimuli/HF09_SC.jpg"
"explore-choice","51","270121","0.0-51.0","p839591","pilot_test","emogo","test_session","emotion","match","uniform","","","","","","","2304.3000000044703","268857.69999999553","271162","[""stimuli/BM16_HO.jpg"",""stimuli/AM06_CC.jpg"",""stimuli/HM07_SC.jpg"",""stimuli/HF09_SUR.jpg""]","stimuli/BM16_HO.jpg","stimuli/AM06_CC.jpg","stimuli/HM07_SC.jpg","stimuli/HF09_SUR.jpg","pos3","stimuli/HM07_SC.jpg","SC","HM07","2","4.5","9","8","stimuli/stars_9.png","75.5","[""HO"",""CC"",""SC"",""SUR""]","[""BM16"",""AM06"",""HM07"",""HF09""]","[3,3,9,6]","[2,4,8,6]",""
"show-reward","52","272133","0.0-52.0","p839591","pilot_test","emogo","test_session","emotion","match","uniform","","","","","","","","271667","273677","","","","","","","","","","","","9","","stimuli/stars_9.png","75.5","","","","","stimuli/HM07_SC.jpg"
"explore-choice","53","279725","0.0-53.0","p839591","pilot_test","emogo","test_session","emotion","match","uniform","","","","","","","7085.89999999851","273678.5","280764.3999999985","[""stimuli/AM06_SC.jpg"",""stimuli/BM16_CC.jpg"",""stimuli/HF09_HO.jpg"",""stimuli/HM07_SUR.jpg""]","stimuli/AM06_SC.jpg","stimuli/BM16_CC.jpg","stimuli/HF09_HO.jpg","stimuli/HM07_SUR.jpg","pos1","stimuli/AM06_SC.jpg","SC","AM06","0","3.5","7","8","stimuli/stars_7.png","79","[""SC"",""CC"",""HO"",""SUR""]","[""AM06"",""BM16"",""HF09"",""HM07""]","[7,2,2,4]","[8,4,2,6]",""
"show-reward","54","281736","0.0-54.0","p839591","pilot_test","emogo","test_session","emotion","match","uniform","","","","","","","","281271.19999999553","283280.8999999985","","","","","","","","","","","","7","","stimuli/stars_7.png","79","","","","","stimuli/AM06_SC.jpg"
"explore-choice","55","284342","0.0-55.0","p839591","pilot_test","emogo","test_session","emotion","match","uniform","","","","","","","2104.0999999940395","283282.5","285386.59999999404","[""stimuli/BM16_SC.jpg"",""stimuli/AM06_CC.jpg"",""stimuli/HM07_SUR.jpg"",""stimuli/HF09_HO.jpg""]","stimuli/BM16_SC.jpg","stimuli/AM06_CC.jpg","stimuli/HM07_SUR.jpg","stimuli/HF09_HO.jpg","pos1","stimuli/BM16_SC.jpg","SC","BM16","0","4","8","8","stimuli/stars_8.png","83","[""SC"",""CC"",""SUR"",""HO""]","[""BM16"",""AM06"",""HM07"",""HF09""]","[8,2,5,1]","[8,4,6,2]",""
"show-reward","56","286347","0.0-56.0","p839591","pilot_test","emogo","test_session","emotion","match","uniform","","","","","","","","285888.5","287892.3999999985","","","","","","","","","","","","8","","stimuli/stars_8.png","83","","","","","stimuli/BM16_SC.jpg"
"explore-choice","57","1008305","0.0-57.0","p839591","pilot_test","emogo","test_session","emotion","match","uniform","","","","","","","721427.799999997","287894.299999997","1009322.099999994","[""stimuli/AM06_HO.jpg"",""stimuli/HM07_SC.jpg"",""stimuli/HF09_SUR.jpg"",""stimuli/BM16_CC.jpg""]","stimuli/AM06_HO.jpg","stimuli/HM07_SC.jpg","stimuli/HF09_SUR.jpg","stimuli/BM16_CC.jpg","pos2","stimuli/HM07_SC.jpg","SC","HM07","1","3","6","8","stimuli/stars_6.png","86","[""HO"",""SC"",""SUR"",""CC""]","[""AM06"",""HM07"",""HF09"",""BM16""]","[1,6,4,5]","[2,8,6,4]",""
"show-reward","58","1010317","0.0-58.0","p839591","pilot_test","emogo","test_session","emotion","match","uniform","","","","","","","","1009824.6999999955","1011834.599999994","","","","","","","","","","","","6","","stimuli/stars_6.png","86","","","","","stimuli/HM07_SC.jpg"
"explore-choice","59","1013488","0.0-59.0","p839591","pilot_test","emogo","test_session","emotion","match","uniform","","","","","","","2667.2999999970198","1011836.299999997","1014503.599999994","[""stimuli/HF09_SUR.jpg"",""stimuli/AM06_SC.jpg"",""stimuli/HM07_CC.jpg"",""stimuli/BM16_HO.jpg""]","stimuli/HF09_SUR.jpg","stimuli/AM06_SC.jpg","stimuli/HM07_CC.jpg","stimuli/BM16_HO.jpg","pos2","stimuli/AM06_SC.jpg","SC","AM06","1","3.5","7","8","stimuli/stars_7.png","89.5","[""SUR"",""SC"",""CC"",""HO""]","[""HF09"",""AM06"",""HM07"",""BM16""]","[5,7,2,0]","[6,8,4,2]",""
"show-reward","60","1015498","0.0-60.0","p839591","pilot_test","emogo","test_session","emotion","match","uniform","","","","","","","","1015007.6999999955","1017016.5","","","","","","","","","","","","7","","stimuli/stars_7.png","89.5","","","","","stimuli/AM06_SC.jpg"
"explore-choice","61","1017989","0.0-61.0","p839591","pilot_test","emogo","test_session","emotion","match","uniform","","","","","","","1982.5","1017018.1999999955","1019000.6999999955","[""stimuli/HF09_CC.jpg"",""stimuli/BM16_SUR.jpg"",""stimuli/HM07_HO.jpg"",""stimuli/AM06_SC.jpg""]","stimuli/HF09_CC.jpg","stimuli/BM16_SUR.jpg","stimuli/HM07_HO.jpg","stimuli/AM06_SC.jpg","pos4","stimuli/AM06_SC.jpg","SC","AM06","3","3.5","7","8","stimuli/stars_7.png","93","[""CC"",""SUR"",""HO"",""SC""]","[""HF09"",""BM16"",""HM07"",""AM06""]","[5,5,1,7]","[4,6,2,8]",""
"show-reward","62","1019993","0.0-62.0","p839591","pilot_test","emogo","test_session","emotion","match","uniform","","","","","","","","1019508.3999999985","1021511.299999997","","","","","","","","","","","","7","","stimuli/stars_7.png","93","","","","","stimuli/AM06_SC.jpg"
"explore-choice","63","1056194","0.0-63.0","p839591","pilot_test","emogo","test_session","emotion","match","uniform","","","","","","","35696.59999999404","1021513","1057209.599999994","[""stimuli/AM06_HO.jpg"",""stimuli/HM07_SUR.jpg"",""stimuli/BM16_SC.jpg"",""stimuli/HF09_CC.jpg""]","stimuli/AM06_HO.jpg","stimuli/HM07_SUR.jpg","stimuli/BM16_SC.jpg","stimuli/HF09_CC.jpg","pos3","stimuli/BM16_SC.jpg","SC","BM16","2","3","6","8","stimuli/stars_6.png","96","[""HO"",""SUR"",""SC"",""CC""]","[""AM06"",""HM07"",""BM16"",""HF09""]","[0,6,6,2]","[2,6,8,4]",""
"show-reward","64","1058199","0.0-64.0","p839591","pilot_test","emogo","test_session","emotion","match","uniform","","","","","","","","1057716.099999994","1059719.3999999985","","","","","","","","","","","","6","","stimuli/stars_6.png","96","","","","","stimuli/BM16_SC.jpg"
"explore-choice","65","1061048","0.0-65.0","p839591","pilot_test","emogo","test_session","emotion","match","uniform","","","","","","","2341.1999999955297","1059720.8999999985","1062062.099999994","[""stimuli/BM16_SC.jpg"",""stimuli/AM06_SUR.jpg"",""stimuli/HF09_HO.jpg"",""stimuli/HM07_CC.jpg""]","stimuli/BM16_SC.jpg","stimuli/AM06_SUR.jpg","stimuli/HF09_HO.jpg","stimuli/HM07_CC.jpg","pos1","stimuli/BM16_SC.jpg","SC","BM16","0","4.5","9","8","stimuli/stars_9.png","100.5","[""SC"",""SUR"",""HO"",""CC""]","[""BM16"",""AM06"",""HF09"",""HM07""]","[9,8,3,6]","[8,6,2,4]",""
"show-reward","66","1063054","0.0-66.0","p839591","pilot_test","emogo","test_session","emotion","match","uniform","","","","","","","","1062570.3999999985","1064575.099999994","","","","","","","","","","","","9","","stimuli/stars_9.png","100.5","","","","","stimuli/BM16_SC.jpg"
"explore-choice","67","1065073","0.0-67.0","p839591","pilot_test","emogo","test_session","emotion","match","uniform","","","","","","","1515.7000000029802","1064576.6999999955","1066092.3999999985","[""stimuli/HM07_CC.jpg"",""stimuli/HF09_SUR.jpg"",""stimuli/BM16_SC.jpg"",""stimuli/AM06_HO.jpg""]","stimuli/HM07_CC.jpg","stimuli/HF09_SUR.jpg","stimuli/BM16_SC.jpg","stimuli/AM06_HO.jpg","pos3","stimuli/BM16_SC.jpg","SC","BM16","2","5","10","8","stimuli/stars_10.png","105.5","[""CC"",""SUR"",""SC"",""HO""]","[""HM07"",""HF09"",""BM16"",""AM06""]","[2,7,10,2]","[4,6,8,2]",""
"show-reward","68","1067079","0.0-68.0","p839591","pilot_test","emogo","test_session","emotion","match","uniform","","","","","","","","1066595.299999997","1068600.3999999985","","","","","","","","","","","","10","","stimuli/stars_10.png","105.5","","","","","stimuli/BM16_SC.jpg"
"explore-choice","69","1069869","0.0-69.0","p839591","pilot_test","emogo","test_session","emotion","match","uniform","","","","","","","2287.89999999851","1068602","1070889.8999999985","[""stimuli/BM16_CC.jpg"",""stimuli/HM07_SC.jpg"",""stimuli/AM06_SUR.jpg"",""stimuli/HF09_HO.jpg""]","stimuli/BM16_CC.jpg","stimuli/HM07_SC.jpg","stimuli/AM06_SUR.jpg","stimuli/HF09_HO.jpg","pos2","stimuli/HM07_SC.jpg","SC","HM07","1","4","8","8","stimuli/stars_8.png","109.5","[""CC"",""SC"",""SUR"",""HO""]","[""BM16"",""HM07"",""AM06"",""HF09""]","[3,8,8,2]","[4,8,6,2]",""
"show-reward","70","1071876","0.0-70.0","p839591","pilot_test","emogo","test_session","emotion","match","uniform","","","","","","","","1071392.299999997","1073397.299999997","","","","","","","","","","","","8","","stimuli/stars_8.png","109.5","","","","","stimuli/HM07_SC.jpg"
"explore-choice","71","1076733","0.0-71.0","p839591","pilot_test","emogo","test_session","emotion","match","uniform","","","","","","","4354.29999999702","1073399","1077753.299999997","[""stimuli/HM07_CC.jpg"",""stimuli/AM06_HO.jpg"",""stimuli/BM16_SUR.jpg"",""stimuli/HF09_SC.jpg""]","stimuli/HM07_CC.jpg","stimuli/AM06_HO.jpg","stimuli/BM16_SUR.jpg","stimuli/HF09_SC.jpg","pos4","stimuli/HF09_SC.jpg","SC","HF09","3","3.5","7","8","stimuli/stars_7.png","113","[""CC"",""HO"",""SUR"",""SC""]","[""HM07"",""AM06"",""BM16"",""HF09""]","[3,3,6,7]","[4,2,6,8]",""
"show-reward","72","1078739","0.0-72.0","p839591","pilot_test","emogo","test_session","emotion","match","uniform","","","","","","","","1078257","1080260.6999999955","","","","","","","","","","","","7","","stimuli/stars_7.png","113","","","","","stimuli/HF09_SC.jpg"
"explore-choice","73","1082160","0.0-73.0","p839591","pilot_test","emogo","test_session","emotion","match","uniform","","","","","","","2919.10000000149","1080262.3999999985","1083181.5","[""stimuli/BM16_SUR.jpg"",""stimuli/AM06_HO.jpg"",""stimuli/HM07_SC.jpg"",""stimuli/HF09_CC.jpg""]","stimuli/BM16_SUR.jpg","stimuli/AM06_HO.jpg","stimuli/HM07_SC.jpg","stimuli/HF09_CC.jpg","pos3","stimuli/HM07_SC.jpg","SC","HM07","2","5","10","8","stimuli/stars_10.png","118","[""SUR"",""HO"",""SC"",""CC""]","[""BM16"",""AM06"",""HM07"",""HF09""]","[7,4,10,2]","[6,2,8,4]",""
"show-reward","74","1084172","0.0-74.0","p839591","pilot_test","emogo","test_session","emotion","match","uniform","","","","","","","","1083683.6999999955","1085693.599999994","","","","","","","","","","","","10","","stimuli/stars_10.png","118","","","","","stimuli/HM07_SC.jpg"
"explore-choice","75","1226267","0.0-75.0","p839591","pilot_test","emogo","test_session","emotion","match","uniform","","","","","","","141600.3999999985","1085695.3999999985","1227295.799999997","[""stimuli/HM07_SC.jpg"",""stimuli/HF09_HO.jpg"",""stimuli/AM06_CC.jpg"",""stimuli/BM16_SUR.jpg""]","stimuli/HM07_SC.jpg","stimuli/HF09_HO.jpg","stimuli/AM06_CC.jpg","stimuli/BM16_SUR.jpg","pos1","stimuli/HM07_SC.jpg","SC","HM07","0","3","6","8","stimuli/stars_6.png","121","[""SC"",""HO"",""CC"",""SUR""]","[""HM07"",""HF09"",""AM06"",""BM16""]","[6,1,5,8]","[8,2,4,6]",""
"show-reward","76","1228273","0.0-76.0","p839591","pilot_test","emogo","test_session","emotion","match","uniform","","","","","","","","1227799.1999999955","1229803.3999999985","","","","","","","","","","","","6","","stimuli/stars_6.png","121","","","","","stimuli/HM07_SC.jpg"
"explore-choice","77","1356947","0.0-77.0","p839591","pilot_test","emogo","test_session","emotion","match","uniform","","","","","","","128177.60000000149","1229804.799999997","1357982.3999999985","[""stimuli/BM16_SC.jpg"",""stimuli/AM06_CC.jpg"",""stimuli/HM07_HO.jpg"",""stimuli/HF09_SUR.jpg""]","stimuli/BM16_SC.jpg","stimuli/AM06_CC.jpg","stimuli/HM07_HO.jpg","stimuli/HF09_SUR.jpg","pos1","stimuli/BM16_SC.jpg","SC","BM16","0","5","10","8","stimuli/stars_10.png","126","[""SC"",""CC"",""HO"",""SUR""]","[""BM16"",""AM06"",""HM07"",""HF09""]","[10,5,4,6]","[8,4,2,6]",""
"show-reward","78","1358951","0.0-78.0","p839591","pilot_test","emogo","test_session","emotion","match","uniform","","","","","","","","1358486.599999994","1360489.1999999955","","","","","","","","","","","","10","","stimuli/stars_10.png","126","","","","","stimuli/BM16_SC.jpg"
"explore-choice","79","1361769","0.0-79.0","p839591","pilot_test","emogo","test_session","emotion","match","uniform","","","","","","","2309.6999999955297","1360490.8999999985","1362800.599999994","[""stimuli/HM07_HO.jpg"",""stimuli/HF09_SC.jpg"",""stimuli/BM16_CC.jpg"",""stimuli/AM06_SUR.jpg""]","stimuli/HM07_HO.jpg","stimuli/HF09_SC.jpg","stimuli/BM16_CC.jpg","stimuli/AM06_SUR.jpg","pos2","stimuli/HF09_SC.jpg","SC","HF09","1","3.5","7","8","stimuli/stars_7.png","129.5","[""HO"",""SC"",""CC"",""SUR""]","[""HM07"",""HF09"",""BM16"",""AM06""]","[2,7,2,5]","[2,8,4,6]",""
"show-reward","80","1363775","0.0-80.0","p839591","pilot_test","emogo","test_session","emotion","match","uniform","","","","","","","","1363309","1365313","","","","","","","","","","","","7","","stimuli/stars_7.png","129.5","","","","","stimuli/HF09_SC.jpg"
"explore-choice","81","1366921","0.0-81.0","p839591","pilot_test","emogo","test_session","emotion","match","uniform","","","","","","","2640.10000000149","1365317.599999994","1367957.6999999955","[""stimuli/AM06_SC.jpg"",""stimuli/HM07_CC.jpg"",""stimuli/HF09_HO.jpg"",""stimuli/BM16_SUR.jpg""]","stimuli/AM06_SC.jpg","stimuli/HM07_CC.jpg","stimuli/HF09_HO.jpg","stimuli/BM16_SUR.jpg","pos1","stimuli/AM06_SC.jpg","SC","AM06","0","3","6","8","stimuli/stars_6.png","132.5","[""SC"",""CC"",""HO"",""SUR""]","[""AM06"",""HM07"",""HF09"",""BM16""]","[6,5,1,6]","[8,4,2,6]",""
"show-reward","82","1368927","0.0-82.0","p839591","pilot_test","emogo","test_session","emotion","match","uniform","","","","","","","","1368460.6999999955","1370465.6999999955","","","","","","","","","","","","6","","stimuli/stars_6.png","132.5","","","","","stimuli/AM06_SC.jpg"
"explore-choice","83","1373384","0.0-83.0","p839591","pilot_test","emogo","test_session","emotion","match","uniform","","","","","","","3951.10000000149","1370467.1999999955","1374418.299999997","[""stimuli/BM16_HO.jpg"",""stimuli/HM07_SC.jpg"",""stimuli/AM06_CC.jpg"",""stimuli/HF09_SUR.jpg""]","stimuli/BM16_HO.jpg","stimuli/HM07_SC.jpg","stimuli/AM06_CC.jpg","stimuli/HF09_SUR.jpg","pos2","stimuli/HM07_SC.jpg","SC","HM07","1","4.5","9","8","stimuli/stars_9.png","137","[""HO"",""SC"",""CC"",""SUR""]","[""BM16"",""HM07"",""AM06"",""HF09""]","[3,9,3,6]","[2,8,4,6]",""
"show-reward","84","1375393","0.0-84.0","p839591","pilot_test","emogo","test_session","emotion","match","uniform","","","","","","","","1374924.5","1376931.799999997","","","","","","","","","","","","9","","stimuli/stars_9.png","137","","","","","stimuli/HM07_SC.jpg"
"explore-choice","85","1385799","0.0-85.0","p839591","pilot_test","emogo","test_session","emotion","match","uniform","","","","","","","9902.89999999851","1376933.5","1386836.3999999985","[""stimuli/HF09_CC.jpg"",""stimuli/HM07_SUR.jpg"",""stimuli/AM06_SC.jpg"",""stimuli/BM16_HO.jpg""]","stimuli/HF09_CC.jpg","stimuli/HM07_SUR.jpg","stimuli/AM06_SC.jpg","stimuli/BM16_HO.jpg","pos3","stimuli/AM06_SC.jpg","SC","AM06","2","4","8","8","stimuli/stars_8.png","141","[""CC"",""SUR"",""SC"",""HO""]","[""HF09"",""HM07"",""AM06"",""BM16""]","[6,4,8,0]","[4,6,8,2]",""
"show-reward","86","1387807","0.0-86.0","p839591","pilot_test","emogo","test_session","emotion","match","uniform","","","","","","","","1387340.8999999985","1389346.799999997","","","","","","","","","","","","8","","stimuli/stars_8.png","141","","","","","stimuli/AM06_SC.jpg"
"explore-choice","87","1394835","0.0-87.0","p839591","pilot_test","emogo","test_session","emotion","match","uniform","","","","","","","6525.39999999851","1389348.3999999985","1395873.799999997","[""stimuli/AM06_SUR.jpg"",""stimuli/HM07_SC.jpg"",""stimuli/BM16_HO.jpg"",""stimuli/HF09_CC.jpg""]","stimuli/AM06_SUR.jpg","stimuli/HM07_SC.jpg","stimuli/BM16_HO.jpg","stimuli/HF09_CC.jpg","pos2","stimuli/HM07_SC.jpg","SC","HM07","1","3.5","7","8","stimuli/stars_7.png","144.5","[""SUR"",""SC"",""HO"",""CC""]","[""AM06"",""HM07"",""BM16"",""HF09""]","[4,7,3,4]","[6,8,2,4]",""
"show-reward","88","1396847","0.0-88.0","p839591","pilot_test","emogo","test_session","emotion","match","uniform","","","","","","","","1396380.1999999955","1398386.5","","","","","","","","","","","","7","","stimuli/stars_7.png","144.5","","","","","stimuli/HM07_SC.jpg"
"explore-choice","89","1399983","0.0-89.0","p839591","pilot_test","emogo","test_session","emotion","match","uniform","","","","","","","2631.60000000149","1398388.1999999955","1401019.799999997","[""stimuli/AM06_SUR.jpg"",""stimuli/HM07_HO.jpg"",""stimuli/HF09_CC.jpg"",""stimuli/BM16_SC.jpg""]","stimuli/AM06_SUR.jpg","stimuli/HM07_HO.jpg","stimuli/HF09_CC.jpg","stimuli/BM16_SC.jpg","pos4","stimuli/BM16_SC.jpg","SC","BM16","3","5","10","8","stimuli/stars_10.png","149.5","[""SUR"",""HO"",""CC"",""SC""]","[""AM06"",""HM07"",""HF09"",""BM16""]","[8,3,6,10]","[6,2,4,8]",""
"show-reward","90","1401988","0.0-90.0","p839591","pilot_test","emogo","test_session","emotion","match","uniform","","","","","","","","1401525","1403527.8999999985","","","","","","","","","","","","10","","stimuli/stars_10.png","149.5","","","","","stimuli/BM16_SC.jpg"
"explore-choice","91","1406268","0.0-91.0","p839591","pilot_test","emogo","test_session","emotion","match","uniform","","","","","","","3775.5","1403529.3999999985","1407304.8999999985","[""stimuli/HF09_SC.jpg"",""stimuli/AM06_HO.jpg"",""stimuli/HM07_SUR.jpg"",""stimuli/BM16_CC.jpg""]","stimuli/HF09_SC.jpg","stimuli/AM06_HO.jpg","stimuli/HM07_SUR.jpg","stimuli/BM16_CC.jpg","pos1","stimuli/HF09_SC.jpg","SC","HF09","0","4","8","8","stimuli/stars_8.png","153.5","[""SC"",""HO"",""SUR"",""CC""]","[""HF09"",""AM06"",""HM07"",""BM16""]","[8,2,7,6]","[8,2,6,4]",""
"show-reward","92","1408276","0.0-92.0","p839591","pilot_test","emogo","test_session","emotion","match","uniform","","","","","","","","1407811.1999999955","1409816.299999997","","","","","","","","","","","","8","","stimuli/stars_8.png","153.5","","","","","stimuli/HF09_SC.jpg"
"explore-choice","93","1410859","0.0-93.0","p839591","pilot_test","emogo","test_session","emotion","match","uniform","","","","","","","2077.10000000149","1409817.8999999985","1411895","[""stimuli/BM16_SUR.jpg"",""stimuli/HM07_HO.jpg"",""stimuli/AM06_CC.jpg"",""stimuli/HF09_SC.jpg""]","stimuli/BM16_SUR.jpg","stimuli/HM07_HO.jpg","stimuli/AM06_CC.jpg","stimuli/HF09_SC.jpg","pos4","stimuli/HF09_SC.jpg","SC","HF09","3","3","6","8","stimuli/stars_6.png","156.5","[""SUR"",""HO"",""CC"",""SC""]","[""BM16"",""HM07"",""AM06"",""HF09""]","[7,2,3,6]","[6,2,4,8]",""
"show-reward","94","1412867","0.0-94.0","p839591","pilot_test","emogo","test_session","emotion","match","uniform","","","","","","","","1412401.599999994","1414407.6999999955","","","","","","","","","","","","6","","stimuli/stars_6.png","156.5","","","","","stimuli/HF09_SC.jpg"
"explore-choice","95","1417848","0.0-95.0","p839591","pilot_test","emogo","test_session","emotion","match","uniform","","","","","","","4476.39999999851","1414409.3999999985","1418885.799999997","[""stimuli/AM06_SC.jpg"",""stimuli/HF09_SUR.jpg"",""stimuli/HM07_HO.jpg"",""stimuli/BM16_CC.jpg""]","stimuli/AM06_SC.jpg","stimuli/HF09_SUR.jpg","stimuli/HM07_HO.jpg","stimuli/BM16_CC.jpg","pos1","stimuli/AM06_SC.jpg","SC","AM06","0","3.5","7","8","stimuli/stars_7.png","160","[""SC"",""SUR"",""HO"",""CC""]","[""AM06"",""HF09"",""HM07"",""BM16""]","[7,4,1,4]","[8,6,2,4]",""
"show-reward","96","1419856","0.0-96.0","p839591","pilot_test","emogo","test_session","emotion","match","uniform","","","","","","","","1419390.8999999985","1421397.099999994","","","","","","","","","","","","7","","stimuli/stars_7.png","160","","","","","stimuli/AM06_SC.jpg"
