"trial_type","trial_index","time_elapsed","internal_node_id","subject","workerId","hitId","assignmentId","structure_condition","match_condition","noise_type","success","timeout","failed_images","failed_audio","failed_video","view_history","rt","start_time","end_time","stimuli","image1","image2","image3","image4","choiceLocation","choiceImage","choiceEmotion","choiceModel","choice_index","reward_score","reward","reward_score_unadjusted","reward_image","score_after_trial","emotions","models","rewards","rewards_unadjusted","stimulus","response","question_order"
"pavlovia","0","10","0.0-0.0","p934043","pilot_test","emogo","test_session","emotion","mismatch","uniform","","","","","","","","","","","","","","","","","","","","","","","","","","","","","","",""
"preload","1","11735","0.0-1.0","p934043","pilot_test","emogo","test_session","emotion","mismatch","uniform","true","false","[]","[]","[]","","","","","","","","","","","","","","","","","","","","","","","","","",""
"fullscreen","2","16172","0.0-2.0","p934043","pilot_test","emogo","test_session","emotion","mismatch","uniform","true","","","","","","","","","","","","","","","","","","","","","","","","","","","","","",""
"instructions","3","105703","0.0-3.0","p934043","pilot_test","emogo","test_session","emotion","mismatch","uniform","","","","","","[{""page_index"":0,""viewing_time"":89529}]","89530","","","","","","","","","","","","","","","","","","","","","","","",""
"explore-choice","4","107854","0.0-4.0","p934043","pilot_test","emogo","test_session","emotion","mismatch","uniform","","","","","","","1646","107400","109046","[""stimuli/sheep.jpg"",""stimuli/hammer.jpg"",""stimuli/basketball.jpg"",""stimuli/horse.jpg""]","stimuli/sheep.jpg","stimuli/hammer.jpg","stimuli/basketball.jpg","stimuli/horse.jpg","pos4","stimuli/horse.jpg","","","3","64","64","64","stimuli/stars_8.png","65","","","","","","",""
"explore-choice","5","109569","0.0-5.0","p934043","pilot_test","emogo","test_session","emotion","mismatch","uniform","","","","","","","1212","109549","110761","[""stimuli/hammer.jpg"",""stimuli/basketball.jpg"",""stimuli/horse.jpg"",""stimuli/sheep.jpg""]","stimuli/hammer.jpg","stimuli/basketball.jpg","stimuli/horse.jpg","stimuli/sheep.jpg","pos1","stimuli/hammer.jpg","","","0","8","8","8","stimuli/stars_2.png","9","","","","","","",""
"instructions","6","127823","0.0-6.0","p934043","pilot_test","emogo","test_session","emotion","mismatch","uniform","","","","","","[{""page_index"":0,""viewing_time"":18254}]","18254","","","","","","","","","","","","","","","","","","","","","","","",""
"explore-choice","7","134220","0.0-7.0","p934043","pilot_test","emogo","test_session","emotion","mismatch","uniform","","","","","","","5894","129518","135412","[""stimuli/HM10_HE.jpg"",""stimuli/HM09_AO.jpg"",""stimuli/BF04_HO.jpg"",""stimuli/HF09_DO.jpg""]","stimuli/HM10_HE.jpg","stimuli/HM09_AO.jpg","stimuli/BF04_HO.jpg","stimuli/HF09_DO.jpg","pos1","stimuli/HM10_HE.jpg","HE","HM10","0","1.5","3","4","stimuli/stars_3.png","2.5","[""HE"",""AO"",""HO"",""DO""]","[""HM10"",""HM09"",""BF04"",""HF09""]","[3,10,6,2]","[4,8,6,2]","","",""
"show-reward","8","136251","0.0-8.0","p934043","pilot_test","emogo","test_session","emotion","mismatch","uniform","","","","","","","","135918","137944.00000000003","","","","","","","","","","","","3","","stimuli/stars_3.png","2.5","","","","","stimuli/HM10_HE.jpg","",""
"explore-choice","9","147737","0.0-9.0","p934043","pilot_test","emogo","test_session","emotion","mismatch","uniform","","","","","","","10982","137947","148929","[""stimuli/BF04_DO.jpg"",""stimuli/HM10_AO.jpg"",""stimuli/HM09_HE.jpg"",""stimuli/HF09_HO.jpg""]","stimuli/BF04_DO.jpg","stimuli/HM10_AO.jpg","stimuli/HM09_HE.jpg","stimuli/HF09_HO.jpg","pos4","stimuli/HF09_HO.jpg","HO","HF09","3","2.5","5","6","stimuli/stars_5.png","5","[""DO"",""AO"",""HE"",""HO""]","[""BF04"",""HM10"",""HM09"",""HF09""]","[4,7,5,5]","[2,8,4,6]","","",""
"show-reward","10","149766","0.0-10.0","p934043","pilot_test","emogo","test_session","emotion","mismatch","uniform","","","","","","","","149433","151459","","","","","","","","","","","","5","","stimuli/stars_5.png","5","","","","","stimuli/HF09_HO.jpg","",""
"explore-choice","11","156936","0.0-11.0","p934043","pilot_test","emogo","test_session","emotion","mismatch","uniform","","","","","","","6666","151462","158128","[""stimuli/HM10_HE.jpg"",""stimuli/HF09_AO.jpg"",""stimuli/BF04_DO.jpg"",""stimuli/HM09_HO.jpg""]","stimuli/HM10_HE.jpg","stimuli/HF09_AO.jpg","stimuli/BF04_DO.jpg","stimuli/HM09_HO.jpg","pos3","stimuli/BF04_DO.jpg","DO","BF04","2","0","0","2","stimuli/stars_0.png","5","[""HE"",""AO"",""DO"",""HO""]","[""HM10"",""HF09"",""BF04"",""HM09""]","[2,6,0,4]","[4,8,2,6]","","",""
"show-reward","12","158965","0.0-12.0","p934043","pilot_test","emogo","test_session","emotion","mismatch","uniform","","","","","","","","158632","160659","","","","","","","","","","","","0","","stimuli/stars_0.png","5","","","","","stimuli/BF04_DO.jpg","",""
"explore-choice","13","164935","0.0-13.0","p934043","pilot_test","emogo","test_session","emotion","mismatch","uniform","","","","","","","5467","160661","166128","[""stimuli/HF09_HE.jpg"",""stimuli/HM09_HO.jpg"",""stimuli/BF04_AO.jpg"",""stimuli/HM10_DO.jpg""]","stimuli/HF09_HE.jpg","stimuli/HM09_HO.jpg","stimuli/BF04_AO.jpg","stimuli/HM10_DO.jpg","pos1","stimuli/HF09_HE.jpg","HE","HF09","0","2","4","4","stimuli/stars_4.png","7","[""HE"",""HO"",""AO"",""DO""]","[""HF09"",""HM09"",""BF04"",""HM10""]","[4,7,6,4]","[4,6,8,2]","","",""
"show-reward","14","166963","0.0-14.0","p934043","pilot_test","emogo","test_session","emotion","mismatch","uniform","","","","","","","","166632","168657","","","","","","","","","","","","4","","stimuli/stars_4.png","7","","","","","stimuli/HF09_HE.jpg","",""
"explore-choice","15","172453","0.0-15.0","p934043","pilot_test","emogo","test_session","emotion","mismatch","uniform","","","","","","","4983.000000000029","168663","173646.00000000003","[""stimuli/BF04_HO.jpg"",""stimuli/HM09_DO.jpg"",""stimuli/HF09_AO.jpg"",""stimuli/HM10_HE.jpg""]","stimuli/BF04_HO.jpg","stimuli/HM09_DO.jpg","stimuli/HF09_AO.jpg","stimuli/HM10_HE.jpg","pos3","stimuli/HF09_AO.jpg","AO","HF09","2","4.5","9","8","stimuli/stars_9.png","11.5","[""HO"",""DO"",""AO"",""HE""]","[""BF04"",""HM09"",""HF09"",""HM10""]","[7,1,9,6]","[6,2,8,4]","","",""
"show-reward","16","174484","0.0-16.0","p934043","pilot_test","emogo","test_session","emotion","mismatch","uniform","","","","","","","","174153","176178","","","","","","","","","","","","9","","stimuli/stars_9.png","11.5","","","","","stimuli/HF09_AO.jpg","",""
"explore-choice","17","341252","0.0-17.0","p934043","pilot_test","emogo","test_session","emotion","mismatch","uniform","","","","","","","160811","176180","336991","[""stimuli/HF09_AO.jpg"",""stimuli/HM10_HO.jpg"",""stimuli/HM09_DO.jpg"",""stimuli/BF04_HE.jpg""]","stimuli/HF09_AO.jpg","stimuli/HM10_HO.jpg","stimuli/HM09_DO.jpg","stimuli/BF04_HE.jpg","pos1","stimuli/HF09_AO.jpg","AO","HF09","0","5","10","8","stimuli/stars_10.png","16.5","[""AO"",""HO"",""DO"",""HE""]","[""HF09"",""HM10"",""HM09"",""BF04""]","[10,4,1,6]","[8,6,2,4]","","",""
"show-reward","18","343280","0.0-18.0","p934043","pilot_test","emogo","test_session","emotion","mismatch","uniform","","","","","","","","337497","339523","","","","","","","","","","","","10","","stimuli/stars_10.png","16.5","","","","","stimuli/HF09_AO.jpg","",""
"explore-choice","19","355362","0.0-19.0","p934043","pilot_test","emogo","test_session","emotion","mismatch","uniform","","","","","","","11581.999999999942","339525.00000000006","351107","[""stimuli/HM10_DO.jpg"",""stimuli/HF09_HO.jpg"",""stimuli/BF04_AO.jpg"",""stimuli/HM09_HE.jpg""]","stimuli/HM10_DO.jpg","stimuli/HF09_HO.jpg","stimuli/BF04_AO.jpg","stimuli/HM09_HE.jpg","pos2","stimuli/HF09_HO.jpg","HO","HF09","1","3","6","6","stimuli/stars_6.png","19.5","[""DO"",""HO"",""AO"",""HE""]","[""HM10"",""HF09"",""BF04"",""HM09""]","[2,6,10,2]","[2,6,8,4]","","",""
"show-reward","20","357394","0.0-20.0","p934043","pilot_test","emogo","test_session","emotion","mismatch","uniform","","","","","","","","351612","353641","","","","","","","","","","","","6","","stimuli/stars_6.png","19.5","","","","","stimuli/HF09_HO.jpg","",""
"explore-choice","21","363308","0.0-21.0","p934043","pilot_test","emogo","test_session","emotion","mismatch","uniform","","","","","","","5413","353643","359056","[""stimuli/HM09_DO.jpg"",""stimuli/HF09_HE.jpg"",""stimuli/BF04_HO.jpg"",""stimuli/HM10_AO.jpg""]","stimuli/HM09_DO.jpg","stimuli/HF09_HE.jpg","stimuli/BF04_HO.jpg","stimuli/HM10_AO.jpg","pos4","stimuli/HM10_AO.jpg","AO","HM10","3","5","10","8","stimuli/stars_10.png","24.5","[""DO"",""HE"",""HO"",""AO""]","[""HM09"",""HF09"",""BF04"",""HM10""]","[3,2,7,10]","[2,4,6,8]","","",""
"show-reward","22","365323","0.0-22.0","p934043","pilot_test","emogo","test_session","emotion","mismatch","uniform","","","","","","","","359558","361571","","","","","","","","","","","","10","","stimuli/stars_10.png","24.5","","","","","stimuli/HM10_AO.jpg","",""
"explore-choice","23","367880","0.0-23.0","p934043","pilot_test","emogo","test_session","emotion","mismatch","uniform","","","","","","","2053","361574","363627","[""stimuli/HF09_AO.jpg"",""stimuli/BF04_DO.jpg"",""stimuli/HM10_HO.jpg"",""stimuli/HM09_HE.jpg""]","stimuli/HF09_AO.jpg","stimuli/BF04_DO.jpg","stimuli/HM10_HO.jpg","stimuli/HM09_HE.jpg","pos1","stimuli/HF09_AO.jpg","AO","HF09","0","4.5","9","8","stimuli/stars_9.png","29","[""AO"",""DO"",""HO"",""HE""]","[""HF09"",""BF04"",""HM10"",""HM09""]","[9,0,8,5]","[8,2,6,4]","","",""
"show-reward","24","369908","0.0-24.0","p934043","pilot_test","emogo","test_session","emotion","mismatch","uniform","","","","","","","","364132","366157","","","","","","","","","","","","9","","stimuli/stars_9.png","29","","","","","stimuli/HF09_AO.jpg","",""
"explore-choice","25","382742","0.0-25.0","p934043","pilot_test","emogo","test_session","emotion","mismatch","uniform","","","","","","","12331","366159","378490","[""stimuli/HM10_HE.jpg"",""stimuli/BF04_DO.jpg"",""stimuli/HF09_HO.jpg"",""stimuli/HM09_AO.jpg""]","stimuli/HM10_HE.jpg","stimuli/BF04_DO.jpg","stimuli/HF09_HO.jpg","stimuli/HM09_AO.jpg","pos4","stimuli/HM09_AO.jpg","AO","HM09","3","3.5","7","8","stimuli/stars_7.png","32.5","[""HE"",""DO"",""HO"",""AO""]","[""HM10"",""BF04"",""HF09"",""HM09""]","[6,0,7,7]","[4,2,6,8]","","",""
"show-reward","26","384770","0.0-26.0","p934043","pilot_test","emogo","test_session","emotion","mismatch","uniform","","","","","","","","378994","381020","","","","","","","","","","","","7","","stimuli/stars_7.png","32.5","","","","","stimuli/HM09_AO.jpg","",""
"explore-choice","27","392324","0.0-27.0","p934043","pilot_test","emogo","test_session","emotion","mismatch","uniform","","","","","","","7051.000000000058","381022","388073.00000000006","[""stimuli/HM10_AO.jpg"",""stimuli/HM09_HO.jpg"",""stimuli/HF09_HE.jpg"",""stimuli/BF04_DO.jpg""]","stimuli/HM10_AO.jpg","stimuli/HM09_HO.jpg","stimuli/HF09_HE.jpg","stimuli/BF04_DO.jpg","pos1","stimuli/HM10_AO.jpg","AO","HM10","0","3.5","7","8","stimuli/stars_7.png","36","[""AO"",""HO"",""HE"",""DO""]","[""HM10"",""HM09"",""HF09"",""BF04""]","[7,6,5,1]","[8,6,4,2]","","",""
"show-reward","28","394353","0.0-28.0","p934043","pilot_test","emogo","test_session","emotion","mismatch","uniform","","","","","","","","388577","390603","","","","","","","","","","","","7","","stimuli/stars_7.png","36","","","","","stimuli/HM10_AO.jpg","",""
"explore-choice","29","406557","0.0-29.0","p934043","pilot_test","emogo","test_session","emotion","mismatch","uniform","","","","","","","11701","390605","402306","[""stimuli/HF09_DO.jpg"",""stimuli/BF04_AO.jpg"",""stimuli/HM09_HE.jpg"",""stimuli/HM10_HO.jpg""]","stimuli/HF09_DO.jpg","stimuli/BF04_AO.jpg","stimuli/HM09_HE.jpg","stimuli/HM10_HO.jpg","pos4","stimuli/HM10_HO.jpg","HO","HM10","3","3.5","7","6","stimuli/stars_7.png","39.5","[""DO"",""AO"",""HE"",""HO""]","[""HF09"",""BF04"",""HM09"",""HM10""]","[4,7,3,7]","[2,8,4,6]","","",""
"show-reward","30","408584","0.0-30.0","p934043","pilot_test","emogo","test_session","emotion","mismatch","uniform","","","","","","","","402809","404835.00000000006","","","","","","","","","","","","7","","stimuli/stars_7.png","39.5","","","","","stimuli/HM10_HO.jpg","",""
"explore-choice","31","413191","0.0-31.0","p934043","pilot_test","emogo","test_session","emotion","mismatch","uniform","","","","","","","4103","404837","408940","[""stimuli/HF09_DO.jpg"",""stimuli/BF04_HE.jpg"",""stimuli/HM10_AO.jpg"",""stimuli/HM09_HO.jpg""]","stimuli/HF09_DO.jpg","stimuli/BF04_HE.jpg","stimuli/HM10_AO.jpg","stimuli/HM09_HO.jpg","pos2","stimuli/BF04_HE.jpg","HE","BF04","1","2","4","4","stimuli/stars_4.png","41.5","[""DO"",""HE"",""AO"",""HO""]","[""HF09"",""BF04"",""HM10"",""HM09""]","[1,4,10,7]","[2,4,8,6]","","",""
"show-reward","32","415220","0.0-32.0","p934043","pilot_test","emogo","test_session","emotion","mismatch","uniform","","","","","","","","409444","411471","","","","","","","","","","","","4","","stimuli/stars_4.png","41.5","","","","","stimuli/BF04_HE.jpg","",""
"explore-choice","33","425739","0.0-33.0","p934043","pilot_test","emogo","test_session","emotion","mismatch","uniform","","","","","","","10016.000000000058","411473","421489.00000000006","[""stimuli/BF04_HO.jpg"",""stimuli/HF09_AO.jpg"",""stimuli/HM09_HE.jpg"",""stimuli/HM10_DO.jpg""]","stimuli/BF04_HO.jpg","stimuli/HF09_AO.jpg","stimuli/HM09_HE.jpg","stimuli/HM10_DO.jpg","pos4","stimuli/HM10_DO.jpg","DO","HM10","3","2","4","2","stimuli/stars_4.png","43.5","[""HO"",""AO"",""HE"",""DO""]","[""BF04"",""HF09"",""HM09"",""HM10""]","[4,7,2,4]","[6,8,4,2]","","",""
"show-reward","34","427769","0.0-34.0","p934043","pilot_test","emogo","test_session","emotion","mismatch","uniform","","","","","","","","421993","424020","","","","","","","","","","","","4","","stimuli/stars_4.png","43.5","","","","","stimuli/HM10_DO.jpg","",""
"explore-choice","35","438841","0.0-35.0","p934043","pilot_test","emogo","test_session","emotion","mismatch","uniform","","","","","","","10568.000000000058","424022","434590.00000000006","[""stimuli/HF09_HO.jpg"",""stimuli/HM10_DO.jpg"",""stimuli/HM09_AO.jpg"",""stimuli/BF04_HE.jpg""]","stimuli/HF09_HO.jpg","stimuli/HM10_DO.jpg","stimuli/HM09_AO.jpg","stimuli/BF04_HE.jpg","pos1","stimuli/HF09_HO.jpg","HO","HF09","0","3.5","7","6","stimuli/stars_7.png","47","[""HO"",""DO"",""AO"",""HE""]","[""HF09"",""HM10"",""HM09"",""BF04""]","[7,4,10,6]","[6,2,8,4]","","",""
"show-reward","36","440868","0.0-36.0","p934043","pilot_test","emogo","test_session","emotion","mismatch","uniform","","","","","","","","435094","437119","","","","","","","","","","","","7","","stimuli/stars_7.png","47","","","","","stimuli/HF09_HO.jpg","",""
"explore-choice","37","448256","0.0-37.0","p934043","pilot_test","emogo","test_session","emotion","mismatch","uniform","","","","","","","6886","437121","444007","[""stimuli/HF09_DO.jpg"",""stimuli/BF04_HO.jpg"",""stimuli/HM09_HE.jpg"",""stimuli/HM10_AO.jpg""]","stimuli/HF09_DO.jpg","stimuli/BF04_HO.jpg","stimuli/HM09_HE.jpg","stimuli/HM10_AO.jpg","pos2","stimuli/BF04_HO.jpg","HO","BF04","1","2","4","6","stimuli/stars_4.png","49","[""DO"",""HO"",""HE"",""AO""]","[""HF09"",""BF04"",""HM09"",""HM10""]","[0,4,4,8]","[2,6,4,8]","","",""
"show-reward","38","450285","0.0-38.0","p934043","pilot_test","emogo","test_session","emotion","mismatch","uniform","","","","","","","","444510","446536","","","","","","","","","","","","4","","stimuli/stars_4.png","49","","","","","stimuli/BF04_HO.jpg","",""
"explore-choice","39","457357","0.0-39.0","p934043","pilot_test","emogo","test_session","emotion","mismatch","uniform","","","","","","","6569","446538","453107","[""stimuli/HM09_AO.jpg"",""stimuli/BF04_HE.jpg"",""stimuli/HM10_HO.jpg"",""stimuli/HF09_DO.jpg""]","stimuli/HM09_AO.jpg","stimuli/BF04_HE.jpg","stimuli/HM10_HO.jpg","stimuli/HF09_DO.jpg","pos1","stimuli/HM09_AO.jpg","AO","HM09","0","3","6","8","stimuli/stars_6.png","52","[""AO"",""HE"",""HO"",""DO""]","[""HM09"",""BF04"",""HM10"",""HF09""]","[6,4,4,4]","[8,4,6,2]","","",""
"show-reward","40","459389","0.0-40.0","p934043","pilot_test","emogo","test_session","emotion","mismatch","uniform","","","","","","","","453610","455640","","","","","","","","","","","","6","","stimuli/stars_6.png","52","","","","","stimuli/HM09_AO.jpg","",""
"explore-choice","41","479207","0.0-41.0","p934043","pilot_test","emogo","test_session","emotion","mismatch","uniform","","","","","","","19315","455642","474957","[""stimuli/BF04_HE.jpg"",""stimuli/HM09_HO.jpg"",""stimuli/HF09_AO.jpg"",""stimuli/HM10_DO.jpg""]","stimuli/BF04_HE.jpg","stimuli/HM09_HO.jpg","stimuli/HF09_AO.jpg","stimuli/HM10_DO.jpg","pos3","stimuli/HF09_AO.jpg","AO","HF09","2","3.5","7","8","stimuli/stars_7.png","55.5","[""HE"",""HO"",""AO"",""DO""]","[""BF04"",""HM09"",""HF09"",""HM10""]","[6,5,7,4]","[4,6,8,2]","","",""
"show-reward","42","481236","0.0-42.0","p934043","pilot_test","emogo","test_session","emotion","mismatch","uniform","","","","","","","","475461","477487","","","","","","","","","","","","7","","stimuli/stars_7.png","55.5","","","","","stimuli/HF09_AO.jpg","",""
"explore-choice","43","487291","0.0-43.0","p934043","pilot_test","emogo","test_session","emotion","mismatch","uniform","","","","","","","5550.999999999942","477489.00000000006","483040","[""stimuli/HM10_HE.jpg"",""stimuli/HM09_DO.jpg"",""stimuli/BF04_AO.jpg"",""stimuli/HF09_HO.jpg""]","stimuli/HM10_HE.jpg","stimuli/HM09_DO.jpg","stimuli/BF04_AO.jpg","stimuli/HF09_HO.jpg","pos3","stimuli/BF04_AO.jpg","AO","BF04","2","3.5","7","8","stimuli/stars_7.png","59","[""HE"",""DO"",""AO"",""HO""]","[""HM10"",""HM09"",""BF04"",""HF09""]","[5,3,7,6]","[4,2,8,6]","","",""
"show-reward","44","489320","0.0-44.0","p934043","pilot_test","emogo","test_session","emotion","mismatch","uniform","","","","","","","","483545","485572","","","","","","","","","","","","7","","stimuli/stars_7.png","59","","","","","stimuli/BF04_AO.jpg","",""
"explore-choice","45","496641","0.0-45.0","p934043","pilot_test","emogo","test_session","emotion","mismatch","uniform","","","","","","","6817","485574","492391","[""stimuli/HM10_AO.jpg"",""stimuli/BF04_HE.jpg"",""stimuli/HF09_HO.jpg"",""stimuli/HM09_DO.jpg""]","stimuli/HM10_AO.jpg","stimuli/BF04_HE.jpg","stimuli/HF09_HO.jpg","stimuli/HM09_DO.jpg","pos1","stimuli/HM10_AO.jpg","AO","HM10","0","3.5","7","8","stimuli/stars_7.png","62.5","[""AO"",""HE"",""HO"",""DO""]","[""HM10"",""BF04"",""HF09"",""HM09""]","[7,5,7,3]","[8,4,6,2]","","",""
"show-reward","46","498670","0.0-46.0","p934043","pilot_test","emogo","test_session","emotion","mismatch","uniform","","","","","","","","492895.00000000006","494921","","","","","","","","","","","","7","","stimuli/stars_7.png","62.5","","","","","stimuli/HM10_AO.jpg","",""
"explore-choice","47","508506","0.0-47.0","p934043","pilot_test","emogo","test_session","emotion","mismatch","uniform","","","","","","","9334","494923","504257","[""stimuli/HM10_DO.jpg"",""stimuli/HM09_AO.jpg"",""stimuli/BF04_HO.jpg"",""stimuli/HF09_HE.jpg""]","stimuli/HM10_DO.jpg","stimuli/HM09_AO.jpg","stimuli/BF04_HO.jpg","stimuli/HF09_HE.jpg","pos2","stimuli/HM09_AO.jpg","AO","HM09","1","5","10","8","stimuli/stars_10.png","67.5","[""DO"",""AO"",""HO"",""HE""]","[""HM10"",""HM09"",""BF04"",""HF09""]","[3,10,5,5]","[2,8,6,4]","","",""
"show-reward","48","510527","0.0-48.0","p934043","pilot_test","emogo","test_session","emotion","mismatch","uniform","","","","","","","","504759","506778","","","","","","","","","","","","10","","stimuli/stars_10.png","67.5","","","","","stimuli/HM09_AO.jpg","",""
"explore-choice","49","514490","0.0-49.0","p934043","pilot_test","emogo","test_session","emotion","mismatch","uniform","","","","","","","3459.999999999942","506780.00000000006","510240","[""stimuli/HM10_HO.jpg"",""stimuli/HF09_HE.jpg"",""stimuli/HM09_DO.jpg"",""stimuli/BF04_AO.jpg""]","stimuli/HM10_HO.jpg","stimuli/HF09_HE.jpg","stimuli/HM09_DO.jpg","stimuli/BF04_AO.jpg","pos2","stimuli/HF09_HE.jpg","HE","HF09","1","3","6","4","stimuli/stars_6.png","70.5","[""HO"",""HE"",""DO"",""AO""]","[""HM10"",""HF09"",""HM09"",""BF04""]","[6,6,0,10]","[6,4,2,8]","","",""
"show-reward","50","516518","0.0-50.0","p934043","pilot_test","emogo","test_session","emotion","mismatch","uniform","","","","","","","","510744","512770","","","","","","","","","","","","6","","stimuli/stars_6.png","70.5","","","","","stimuli/HF09_HE.jpg","",""
"explore-choice","51","549157","0.0-51.0","p934043","pilot_test","emogo","test_session","emotion","mismatch","uniform","","","","","","","32134.99999999994","512772.00000000006","544907","[""stimuli/BF04_AO.jpg"",""stimuli/HM10_HE.jpg"",""stimuli/HF09_DO.jpg"",""stimuli/HM09_HO.jpg""]","stimuli/BF04_AO.jpg","stimuli/HM10_HE.jpg","stimuli/HF09_DO.jpg","stimuli/HM09_HO.jpg","pos4","stimuli/HM09_HO.jpg","HO","HM09","3","2.5","5","6","stimuli/stars_5.png","73","[""AO"",""HE"",""DO"",""HO""]","[""BF04"",""HM10"",""HF09"",""HM09""]","[9,5,0,5]","[8,4,2,6]","","",""
"show-reward","52","551191","0.0-52.0","p934043","pilot_test","emogo","test_session","emotion","mismatch","uniform","","","","","","","","545413","547440","","","","","","","","","","","","5","","stimuli/stars_5.png","73","","","","","stimuli/HM09_HO.jpg","",""
"explore-choice","53","564106","0.0-53.0","p934043","pilot_test","emogo","test_session","emotion","mismatch","uniform","","","","","","","12412","547445","559857","[""stimuli/HM10_HO.jpg"",""stimuli/HF09_HE.jpg"",""stimuli/HM09_AO.jpg"",""stimuli/BF04_DO.jpg""]","stimuli/HM10_HO.jpg","stimuli/HF09_HE.jpg","stimuli/HM09_AO.jpg","stimuli/BF04_DO.jpg","pos3","stimuli/HM09_AO.jpg","AO","HM09","2","4.5","9","8","stimuli/stars_9.png","77.5","[""HO"",""HE"",""AO"",""DO""]","[""HM10"",""HF09"",""HM09"",""BF04""]","[5,5,9,3]","[6,4,8,2]","","",""
"show-reward","54","566133","0.0-54.0","p934043","pilot_test","emogo","test_session","emotion","mismatch","uniform","","","","","","","","560361","562385","","","","","","","","","","","","9","","stimuli/stars_9.png","77.5","","","","","stimuli/HM09_AO.jpg","",""
"explore-choice","55","611585","0.0-55.0","p934043","pilot_test","emogo","test_session","emotion","mismatch","uniform","","","","","","","44949","562387","607336","[""stimuli/HM10_DO.jpg"",""stimuli/HM09_HO.jpg"",""stimuli/BF04_AO.jpg"",""stimuli/HF09_HE.jpg""]","stimuli/HM10_DO.jpg","stimuli/HM09_HO.jpg","stimuli/BF04_AO.jpg","stimuli/HF09_HE.jpg","pos4","stimuli/HF09_HE.jpg","HE","HF09","3","2","4","4","stimuli/stars_4.png","79.5","[""DO"",""HO"",""AO"",""HE""]","[""HM10"",""HM09"",""BF04"",""HF09""]","[4,7,6,4]","[2,6,8,4]","","",""
"show-reward","56","613614","0.0-56.0","p934043","pilot_test","emogo","test_session","emotion","mismatch","uniform","","","","","","","","607841","609867","","","","","","","","","","","","4","","stimuli/stars_4.png","79.5","","","","","stimuli/HF09_HE.jpg","",""
"explore-choice","57","632789","0.0-57.0","p934043","pilot_test","emogo","test_session","emotion","mismatch","uniform","","","","","","","18672","609869","628541","[""stimuli/HF09_DO.jpg"",""stimuli/BF04_HO.jpg"",""stimuli/HM09_HE.jpg"",""stimuli/HM10_AO.jpg""]","stimuli/HF09_DO.jpg","stimuli/BF04_HO.jpg","stimuli/HM09_HE.jpg","stimuli/HM10_AO.jpg","pos4","stimuli/HM10_AO.jpg","AO","HM10","3","4","8","8","stimuli/stars_8.png","83.5","[""DO"",""HO"",""HE"",""AO""]","[""HF09"",""BF04"",""HM09"",""HM10""]","[0,4,4,8]","[2,6,4,8]","","",""
"show-reward","58","634816","0.0-58.0","p934043","pilot_test","emogo","test_session","emotion","mismatch","uniform","","","","","","","","629045","631069","","","","","","","","","","","","8","","stimuli/stars_8.png","83.5","","","","","stimuli/HM10_AO.jpg","",""
"explore-choice","59","640172","0.0-59.0","p934043","pilot_test","emogo","test_session","emotion","mismatch","uniform","","","","","","","4853","631071","635924","[""stimuli/HM10_DO.jpg"",""stimuli/HM09_HO.jpg"",""stimuli/HF09_AO.jpg"",""stimuli/BF04_HE.jpg""]","stimuli/HM10_DO.jpg","stimuli/HM09_HO.jpg","stimuli/HF09_AO.jpg","stimuli/BF04_HE.jpg","pos3","stimuli/HF09_AO.jpg","AO","HF09","2","3.5","7","8","stimuli/stars_7.png","87","[""DO"",""HO"",""AO"",""HE""]","[""HM10"",""HM09"",""HF09"",""BF04""]","[4,5,7,6]","[2,6,8,4]","","",""
"show-reward","60","642199","0.0-60.0","p934043","pilot_test","emogo","test_session","emotion","mismatch","uniform","","","","","","","","636428","638452","","","","","","","","","","","","7","","stimuli/stars_7.png","87","","","","","stimuli/HF09_AO.jpg","",""
"explore-choice","61","655223","0.0-61.0","p934043","pilot_test","emogo","test_session","emotion","mismatch","uniform","","","","","","","12520","638455","650975","[""stimuli/HM10_HO.jpg"",""stimuli/HM09_HE.jpg"",""stimuli/BF04_DO.jpg"",""stimuli/HF09_AO.jpg""]","stimuli/HM10_HO.jpg","stimuli/HM09_HE.jpg","stimuli/BF04_DO.jpg","stimuli/HF09_AO.jpg","pos4","stimuli/HF09_AO.jpg","AO","HF09","3","4.5","9","8","stimuli/stars_9.png","91.5","[""HO"",""HE"",""DO"",""AO""]","[""HM10"",""HM09"",""BF04"",""HF09""]","[8,5,0,9]","[6,4,2,8]","","",""
"show-reward","62","657251","0.0-62.0","p934043","pilot_test","emogo","test_session","emotion","mismatch","uniform","","","","","","","","651479","653504","","","","","","","","","","","","9","","stimuli/stars_9.png","91.5","","","","","stimuli/HF09_AO.jpg","",""
"explore-choice","63","659823","0.0-63.0","p934043","pilot_test","emogo","test_session","emotion","mismatch","uniform","","","","","","","2069","653506","655575","[""stimuli/BF04_DO.jpg"",""stimuli/HM10_HE.jpg"",""stimuli/HM09_AO.jpg"",""stimuli/HF09_HO.jpg""]","stimuli/BF04_DO.jpg","stimuli/HM10_HE.jpg","stimuli/HM09_AO.jpg","stimuli/HF09_HO.jpg","pos3","stimuli/HM09_AO.jpg","AO","HM09","2","3.5","7","8","stimuli/stars_7.png","95","[""DO"",""HE"",""AO"",""HO""]","[""BF04"",""HM10"",""HM09"",""HF09""]","[0,6,7,7]","[2,4,8,6]","","",""
"show-reward","64","661851","0.0-64.0","p934043","pilot_test","emogo","test_session","emotion","mismatch","uniform","","","","","","","","656079.0000000001","658104","","","","","","","","","","","","7","","stimuli/stars_7.png","95","","","","","stimuli/HM09_AO.jpg","",""
"explore-choice","65","671106","0.0-65.0","p934043","pilot_test","emogo","test_session","emotion","mismatch","uniform","","","","","","","8752.000000000116","658106","666858.0000000001","[""stimuli/BF04_AO.jpg"",""stimuli/HM10_HO.jpg"",""stimuli/HF09_HE.jpg"",""stimuli/HM09_DO.jpg""]","stimuli/BF04_AO.jpg","stimuli/HM10_HO.jpg","stimuli/HF09_HE.jpg","stimuli/HM09_DO.jpg","pos1","stimuli/BF04_AO.jpg","AO","BF04","0","5","10","8","stimuli/stars_10.png","100","[""AO"",""HO"",""HE"",""DO""]","[""BF04"",""HM10"",""HF09"",""HM09""]","[10,6,6,0]","[8,6,4,2]","","",""
"show-reward","66","673134","0.0-66.0","p934043","pilot_test","emogo","test_session","emotion","mismatch","uniform","","","","","","","","667362","669388","","","","","","","","","","","","10","","stimuli/stars_10.png","100","","","","","stimuli/BF04_AO.jpg","",""
"explore-choice","67","677956","0.0-67.0","p934043","pilot_test","emogo","test_session","emotion","mismatch","uniform","","","","","","","4318","669390","673708","[""stimuli/HM10_HE.jpg"",""stimuli/BF04_AO.jpg"",""stimuli/HF09_HO.jpg"",""stimuli/HM09_DO.jpg""]","stimuli/HM10_HE.jpg","stimuli/BF04_AO.jpg","stimuli/HF09_HO.jpg","stimuli/HM09_DO.jpg","pos3","stimuli/HF09_HO.jpg","HO","HF09","2","3","6","6","stimuli/stars_6.png","103","[""HE"",""AO"",""HO"",""DO""]","[""HM10"",""BF04"",""HF09"",""HM09""]","[5,7,6,3]","[4,8,6,2]","","",""
"show-reward","68","679986","0.0-68.0","p934043","pilot_test","emogo","test_session","emotion","mismatch","uniform","","","","","","","","674212","676239","","","","","","","","","","","","6","","stimuli/stars_6.png","103","","","","","stimuli/HF09_HO.jpg","",""
"explore-choice","69","697773","0.0-69.0","p934043","pilot_test","emogo","test_session","emotion","mismatch","uniform","","","","","","","17283","676242","693525","[""stimuli/HF09_AO.jpg"",""stimuli/HM09_HE.jpg"",""stimuli/HM10_DO.jpg"",""stimuli/BF04_HO.jpg""]","stimuli/HF09_AO.jpg","stimuli/HM09_HE.jpg","stimuli/HM10_DO.jpg","stimuli/BF04_HO.jpg","pos1","stimuli/HF09_AO.jpg","AO","HF09","0","3.5","7","8","stimuli/stars_7.png","106.5","[""AO"",""HE"",""DO"",""HO""]","[""HF09"",""HM09"",""HM10"",""BF04""]","[7,2,4,4]","[8,4,2,6]","","",""
"show-reward","70","699802","0.0-70.0","p934043","pilot_test","emogo","test_session","emotion","mismatch","uniform","","","","","","","","694029","696056","","","","","","","","","","","","7","","stimuli/stars_7.png","106.5","","","","","stimuli/HF09_AO.jpg","",""
"explore-choice","71","702056","0.0-71.0","p934043","pilot_test","emogo","test_session","emotion","mismatch","uniform","","","","","","","1750","696058","697808","[""stimuli/HM09_AO.jpg"",""stimuli/HF09_HE.jpg"",""stimuli/BF04_DO.jpg"",""stimuli/HM10_HO.jpg""]","stimuli/HM09_AO.jpg","stimuli/HF09_HE.jpg","stimuli/BF04_DO.jpg","stimuli/HM10_HO.jpg","pos1","stimuli/HM09_AO.jpg","AO","HM09","0","4.5","9","8","stimuli/stars_9.png","111","[""AO"",""HE"",""DO"",""HO""]","[""HM09"",""HF09"",""BF04"",""HM10""]","[9,5,3,5]","[8,4,2,6]","","",""
"show-reward","72","704084","0.0-72.0","p934043","pilot_test","emogo","test_session","emotion","mismatch","uniform","","","","","","","","698313","700338","","","","","","","","","","","","9","","stimuli/stars_9.png","111","","","","","stimuli/HM09_AO.jpg","",""
"explore-choice","73","708223","0.0-73.0","p934043","pilot_test","emogo","test_session","emotion","mismatch","uniform","","","","","","","3635","700340","703975","[""stimuli/HM10_HO.jpg"",""stimuli/HM09_DO.jpg"",""stimuli/BF04_HE.jpg"",""stimuli/HF09_AO.jpg""]","stimuli/HM10_HO.jpg","stimuli/HM09_DO.jpg","stimuli/BF04_HE.jpg","stimuli/HF09_AO.jpg","pos4","stimuli/HF09_AO.jpg","AO","HF09","3","5","10","8","stimuli/stars_10.png","116","[""HO"",""DO"",""HE"",""AO""]","[""HM10"",""HM09"",""BF04"",""HF09""]","[4,1,6,10]","[6,2,4,8]","","",""
"show-reward","74","710251","0.0-74.0","p934043","pilot_test","emogo","test_session","emotion","mismatch","uniform","","","","","","","","704479","706505","","","","","","","","","","","","10","","stimuli/stars_10.png","116","","","","","stimuli/HF09_AO.jpg","",""
"explore-choice","75","712822","0.0-75.0","p934043","pilot_test","emogo","test_session","emotion","mismatch","uniform","","","","","","","2067.9999999998836","706507.0000000001","708575","[""stimuli/HM09_DO.jpg"",""stimuli/HF09_HO.jpg"",""stimuli/HM10_AO.jpg"",""stimuli/BF04_HE.jpg""]","stimuli/HM09_DO.jpg","stimuli/HF09_HO.jpg","stimuli/HM10_AO.jpg","stimuli/BF04_HE.jpg","pos3","stimuli/HM10_AO.jpg","AO","HM10","2","3.5","7","8","stimuli/stars_7.png","119.5","[""DO"",""HO"",""AO"",""HE""]","[""HM09"",""HF09"",""HM10"",""BF04""]","[3,7,7,5]","[2,6,8,4]","","",""
"show-reward","76","714852","0.0-76.0","p934043","pilot_test","emogo","test_session","emotion","mismatch","uniform","","","","","","","","709081","711106","","","","","","","","","","","","7","","stimuli/stars_7.png","119.5","","","","","stimuli/HM10_AO.jpg","",""
"explore-choice","77","726422","0.0-77.0","p934043","pilot_test","emogo","test_session","emotion","mismatch","uniform","","","","","","","11067","711108.0000000001","722175.0000000001","[""stimuli/HM10_AO.jpg"",""stimuli/HF09_HE.jpg"",""stimuli/BF04_HO.jpg"",""stimuli/HM09_DO.jpg""]","stimuli/HM10_AO.jpg","stimuli/HF09_HE.jpg","stimuli/BF04_HO.jpg","stimuli/HM09_DO.jpg","pos1","stimuli/HM10_AO.jpg","AO","HM10","0","5","10","8","stimuli/stars_10.png","124.5","[""AO"",""HE"",""HO"",""DO""]","[""HM10"",""HF09"",""BF04"",""HM09""]","[10,2,7,3]","[8,4,6,2]","","",""
"show-reward","78","728450","0.0-78.0","p934043","pilot_test","emogo","test_session","emotion","mismatch","uniform","","","","","","","","722679","724704.0000000001","","","","","","","","","","","","10","","stimuli/stars_10.png","124.5","","","","","stimuli/HM10_AO.jpg","",""
"explore-choice","79","730493","0.0-79.0","p934043","pilot_test","emogo","test_session","emotion","mismatch","uniform","","","","","","","1540","724706","726246","[""stimuli/BF04_HO.jpg"",""stimuli/HF09_AO.jpg"",""stimuli/HM09_DO.jpg"",""stimuli/HM10_HE.jpg""]","stimuli/BF04_HO.jpg","stimuli/HF09_AO.jpg","stimuli/HM09_DO.jpg","stimuli/HM10_HE.jpg","pos2","stimuli/HF09_AO.jpg","AO","HF09","1","4.5","9","8","stimuli/stars_9.png","129","[""HO"",""AO"",""DO"",""HE""]","[""BF04"",""HF09"",""HM09"",""HM10""]","[7,9,1,6]","[6,8,2,4]","","",""
"show-reward","80","732521","0.0-80.0","p934043","pilot_test","emogo","test_session","emotion","mismatch","uniform","","","","","","","","726750","728775","","","","","","","","","","","","9","","stimuli/stars_9.png","129","","","","","stimuli/HF09_AO.jpg","",""
"explore-choice","81","734591","0.0-81.0","p934043","pilot_test","emogo","test_session","emotion","mismatch","uniform","","","","","","","1567","728777","730344","[""stimuli/BF04_HE.jpg"",""stimuli/HF09_DO.jpg"",""stimuli/HM10_HO.jpg"",""stimuli/HM09_AO.jpg""]","stimuli/BF04_HE.jpg","stimuli/HF09_DO.jpg","stimuli/HM10_HO.jpg","stimuli/HM09_AO.jpg","pos4","stimuli/HM09_AO.jpg","AO","HM09","3","3","6","8","stimuli/stars_6.png","132","[""HE"",""DO"",""HO"",""AO""]","[""BF04"",""HF09"",""HM10"",""HM09""]","[4,4,4,6]","[4,2,6,8]","","",""
"show-reward","82","736620","0.0-82.0","p934043","pilot_test","emogo","test_session","emotion","mismatch","uniform","","","","","","","","730847","732875","","","","","","","","","","","","6","","stimuli/stars_6.png","132","","","","","stimuli/HM09_AO.jpg","",""
"explore-choice","83","740172","0.0-83.0","p934043","pilot_test","emogo","test_session","emotion","mismatch","uniform","","","","","","","3048","732877.0000000001","735925.0000000001","[""stimuli/HM10_HO.jpg"",""stimuli/BF04_AO.jpg"",""stimuli/HF09_DO.jpg"",""stimuli/HM09_HE.jpg""]","stimuli/HM10_HO.jpg","stimuli/BF04_AO.jpg","stimuli/HF09_DO.jpg","stimuli/HM09_HE.jpg","pos2","stimuli/BF04_AO.jpg","AO","BF04","1","3.5","7","8","stimuli/stars_7.png","135.5","[""HO"",""AO"",""DO"",""HE""]","[""HM10"",""BF04"",""HF09"",""HM09""]","[7,7,4,3]","[6,8,2,4]","","",""
"show-reward","84","742199","0.0-84.0","p934043","pilot_test","emogo","test_session","emotion","mismatch","uniform","","","","","","","","736428","738453","","","","","","","","","","","","7","","stimuli/stars_7.png","135.5","","","","","stimuli/BF04_AO.jpg","",""
"explore-choice","85","749955","0.0-85.0","p934043","pilot_test","emogo","test_session","emotion","mismatch","uniform","","","","","","","7253","738455","745708","[""stimuli/HM09_HO.jpg"",""stimuli/HF09_AO.jpg"",""stimuli/HM10_HE.jpg"",""stimuli/BF04_DO.jpg""]","stimuli/HM09_HO.jpg","stimuli/HF09_AO.jpg","stimuli/HM10_HE.jpg","stimuli/BF04_DO.jpg","pos2","stimuli/HF09_AO.jpg","AO","HF09","1","3","6","8","stimuli/stars_6.png","138.5","[""HO"",""AO"",""HE"",""DO""]","[""HM09"",""HF09"",""HM10"",""BF04""]","[4,6,2,0]","[6,8,4,2]","","",""
"show-reward","86","751983","0.0-86.0","p934043","pilot_test","emogo","test_session","emotion","mismatch","uniform","","","","","","","","746212","748238","","","","","","","","","","","","6","","stimuli/stars_6.png","138.5","","","","","stimuli/HF09_AO.jpg","",""
"explore-choice","87","755305","0.0-87.0","p934043","pilot_test","emogo","test_session","emotion","mismatch","uniform","","","","","","","2815","748243","751058","[""stimuli/HF09_HO.jpg"",""stimuli/BF04_HE.jpg"",""stimuli/HM10_DO.jpg"",""stimuli/HM09_AO.jpg""]","stimuli/HF09_HO.jpg","stimuli/BF04_HE.jpg","stimuli/HM10_DO.jpg","stimuli/HM09_AO.jpg","pos4","stimuli/HM09_AO.jpg","AO","HM09","3","5","10","8","stimuli/stars_10.png","143.5","[""HO"",""HE"",""DO"",""AO""]","[""HF09"",""BF04"",""HM10"",""HM09""]","[7,6,4,10]","[6,4,2,8]","","",""
"show-reward","88","757333","0.0-88.0","p934043","pilot_test","emogo","test_session","emotion","mismatch","uniform","","","","","","","","751562","753587","","","","","","","","","","","","10","","stimuli/stars_10.png","143.5","","","","","stimuli/HM09_AO.jpg","",""
"explore-choice","89","765506","0.0-89.0","p934043","pilot_test","emogo","test_session","emotion","mismatch","uniform","","","","","","","7669","753589","761258","[""stimuli/HF09_HO.jpg"",""stimuli/HM09_HE.jpg"",""stimuli/HM10_AO.jpg"",""stimuli/BF04_DO.jpg""]","stimuli/HF09_HO.jpg","stimuli/HM09_HE.jpg","stimuli/HM10_AO.jpg","stimuli/BF04_DO.jpg","pos3","stimuli/HM10_AO.jpg","AO","HM10","2","3.5","7","8","stimuli/stars_7.png","147","[""HO"",""HE"",""AO"",""DO""]","[""HF09"",""HM09"",""HM10"",""BF04""]","[5,5,7,4]","[6,4,8,2]","","",""
"show-reward","90","767533","0.0-90.0","p934043","pilot_test","emogo","test_session","emotion","mismatch","uniform","","","","","","","","761762","763787","","","","","","","","","","","","7","","stimuli/stars_7.png","147","","","","","stimuli/HM10_AO.jpg","",""
"explore-choice","91","778455","0.0-91.0","p934043","pilot_test","emogo","test_session","emotion","mismatch","uniform","","","","","","","10419","763789","774208","[""stimuli/HF09_HE.jpg"",""stimuli/HM10_AO.jpg"",""stimuli/BF04_DO.jpg"",""stimuli/HM09_HO.jpg""]","stimuli/HF09_HE.jpg","stimuli/HM10_AO.jpg","stimuli/BF04_DO.jpg","stimuli/HM09_HO.jpg","pos2","stimuli/HM10_AO.jpg","AO","HM10","1","3.5","7","8","stimuli/stars_7.png","150.5","[""HE"",""AO"",""DO"",""HO""]","[""HF09"",""HM10"",""BF04"",""HM09""]","[5,7,1,6]","[4,8,2,6]","","",""
"show-reward","92","780485","0.0-92.0","p934043","pilot_test","emogo","test_session","emotion","mismatch","uniform","","","","","","","","774715","776740","","","","","","","","","","","","7","","stimuli/stars_7.png","150.5","","","","","stimuli/HM10_AO.jpg","",""
"explore-choice","93","787039","0.0-93.0","p934043","pilot_test","emogo","test_session","emotion","mismatch","uniform","","","","","","","6050","776742","782792","[""stimuli/HM10_DO.jpg"",""stimuli/BF04_HO.jpg"",""stimuli/HM09_AO.jpg"",""stimuli/HF09_HE.jpg""]","stimuli/HM10_DO.jpg","stimuli/BF04_HO.jpg","stimuli/HM09_AO.jpg","stimuli/HF09_HE.jpg","pos3","stimuli/HM09_AO.jpg","AO","HM09","2","5","10","8","stimuli/stars_10.png","155.5","[""DO"",""HO"",""AO"",""HE""]","[""HM10"",""BF04"",""HM09"",""HF09""]","[3,5,10,5]","[2,6,8,4]","","",""
"show-reward","94","789068","0.0-94.0","p934043","pilot_test","emogo","test_session","emotion","mismatch","uniform","","","","","","","","783296","785322","","","","","","","","","","","","10","","stimuli/stars_10.png","155.5","","","","","stimuli/HM09_AO.jpg","",""
"explore-choice","95","799338","0.0-95.0","p934043","pilot_test","emogo","test_session","emotion","mismatch","uniform","","","","","","","9766.999999999884","785324.0000000001","795091","[""stimuli/HF09_DO.jpg"",""stimuli/BF04_AO.jpg"",""stimuli/HM10_HE.jpg"",""stimuli/HM09_HO.jpg""]","stimuli/HF09_DO.jpg","stimuli/BF04_AO.jpg","stimuli/HM10_HE.jpg","stimuli/HM09_HO.jpg","pos2","stimuli/BF04_AO.jpg","AO","BF04","1","4.5","9","8","stimuli/stars_9.png","160","[""DO"",""AO"",""HE"",""HO""]","[""HF09"",""BF04"",""HM10"",""HM09""]","[0,9,5,5]","[2,8,4,6]","","",""
"show-reward","96","801365","0.0-96.0","p934043","pilot_test","emogo","test_session","emotion","mismatch","uniform","","","","","","","","795595","797620","","","","","","","","","","","","9","","stimuli/stars_9.png","160","","","","","stimuli/BF04_AO.jpg","",""
"explore-choice","97","810222","0.0-97.0","p934043","pilot_test","emogo","test_session","emotion","mismatch","uniform","","","","","","","8355","797621","805976","[""stimuli/HF09_DO.jpg"",""stimuli/BF04_HO.jpg"",""stimuli/HM09_AO.jpg"",""stimuli/HM10_HE.jpg""]","stimuli/HF09_DO.jpg","stimuli/BF04_HO.jpg","stimuli/HM09_AO.jpg","stimuli/HM10_HE.jpg","pos3","stimuli/HM09_AO.jpg","AO","HM09","2","5","10","8","stimuli/stars_10.png","165","[""DO"",""HO"",""AO"",""HE""]","[""HF09"",""BF04"",""HM09"",""HM10""]","[2,6,10,3]","[2,6,8,4]","","",""
"show-reward","98","812250","0.0-98.0","p934043","pilot_test","emogo","test_session","emotion","mismatch","uniform","","","","","","","","806479","808505","","","","","","","","","","","","10","","stimuli/stars_10.png","165","","","","","stimuli/HM09_AO.jpg","",""
"explore-choice","99","822038","0.0-99.0","p934043","pilot_test","emogo","test_session","emotion","mismatch","uniform","","","","","","","9284.999999999884","808507.0000000001","817792","[""stimuli/HF09_HO.jpg"",""stimuli/HM10_DO.jpg"",""stimuli/BF04_AO.jpg"",""stimuli/HM09_HE.jpg""]","stimuli/HF09_HO.jpg","stimuli/HM10_DO.jpg","stimuli/BF04_AO.jpg","stimuli/HM09_HE.jpg","pos3","stimuli/BF04_AO.jpg","AO","BF04","2","5","10","8","stimuli/stars_10.png","170","[""HO"",""DO"",""AO"",""HE""]","[""HF09"",""HM10"",""BF04"",""HM09""]","[6,2,10,2]","[6,2,8,4]","","",""
"show-reward","100","824067","0.0-100.0","p934043","pilot_test","emogo","test_session","emotion","mismatch","uniform","","","","","","","","818296","820322","","","","","","","","","","","","10","","stimuli/stars_10.png","170","","","","","stimuli/BF04_AO.jpg","",""
"explore-choice","101","834022","0.0-101.0","p934043","pilot_test","emogo","test_session","emotion","mismatch","uniform","","","","","","","9452","820324.0000000001","829776.0000000001","[""stimuli/HM09_HO.jpg"",""stimuli/BF04_HE.jpg"",""stimuli/HF09_DO.jpg"",""stimuli/HM10_AO.jpg""]","stimuli/HM09_HO.jpg","stimuli/BF04_HE.jpg","stimuli/HF09_DO.jpg","stimuli/HM10_AO.jpg","pos4","stimuli/HM10_AO.jpg","AO","HM10","3","5","10","8","stimuli/stars_10.png","175","[""HO"",""HE"",""DO"",""AO""]","[""HM09"",""BF04"",""HF09"",""HM10""]","[7,4,1,10]","[6,4,2,8]","","",""
"show-reward","102","836051","0.0-102.0","p934043","pilot_test","emogo","test_session","emotion","mismatch","uniform","","","","","","","","830280","832307","","","","","","","","","","","","10","","stimuli/stars_10.png","175","","","","","stimuli/HM10_AO.jpg","",""
"explore-choice","103","848272","0.0-103.0","p934043","pilot_test","emogo","test_session","emotion","mismatch","uniform","","","","","","","11717.000000000116","832309","844026.0000000001","[""stimuli/WM13_CC.jpg"",""stimuli/WF06_FO.jpg"",""stimuli/BF08_SUR.jpg"",""stimuli/BM16_SC.jpg""]","stimuli/WM13_CC.jpg","stimuli/WF06_FO.jpg","stimuli/BF08_SUR.jpg","stimuli/BM16_SC.jpg","pos3","stimuli/BF08_SUR.jpg","SUR","BF08","2","2","4","2","stimuli/stars_4.png","177","[""CC"",""FO"",""SUR"",""SC""]","[""WM13"",""WF06"",""BF08"",""BM16""]","[10,4,4,5]","[8,4,2,6]","","",""
"show-reward","104","850300","0.0-104.0","p934043","pilot_test","emogo","test_session","emotion","mismatch","uniform","","","","","","","","844530","846555.0000000001","","","","","","","","","","","","4","","stimuli/stars_4.png","177","","","","","stimuli/BF08_SUR.jpg","",""
"explore-choice","105","863272","0.0-105.0","p934043","pilot_test","emogo","test_session","emotion","mismatch","uniform","","","","","","","12469.000000000116","846557","859026.0000000001","[""stimuli/BM16_SC.jpg"",""stimuli/WF06_SUR.jpg"",""stimuli/BF08_CC.jpg"",""stimuli/WM13_FO.jpg""]","stimuli/BM16_SC.jpg","stimuli/WF06_SUR.jpg","stimuli/BF08_CC.jpg","stimuli/WM13_FO.jpg","pos3","stimuli/BF08_CC.jpg","CC","BF08","2","0","0","2","stimuli/stars_0.png","177","[""SC"",""SUR"",""CC"",""FO""]","[""BM16"",""WF06"",""BF08"",""WM13""]","[5,6,0,9]","[6,4,2,8]","","",""
"show-reward","106","865299","0.0-106.0","p934043","pilot_test","emogo","test_session","emotion","mismatch","uniform","","","","","","","","859530","861555.0000000001","","","","","","","","","","","","0","","stimuli/stars_0.png","177","","","","","stimuli/BF08_CC.jpg","",""
"explore-choice","107","868905","0.0-107.0","p934043","pilot_test","emogo","test_session","emotion","mismatch","uniform","","","","","","","3102","861557","864659","[""stimuli/BF08_FO.jpg"",""stimuli/BM16_SC.jpg"",""stimuli/WM13_CC.jpg"",""stimuli/WF06_SUR.jpg""]","stimuli/BF08_FO.jpg","stimuli/BM16_SC.jpg","stimuli/WM13_CC.jpg","stimuli/WF06_SUR.jpg","pos1","stimuli/BF08_FO.jpg","FO","BF08","0","1","2","2","stimuli/stars_2.png","178","[""FO"",""SC"",""CC"",""SUR""]","[""BF08"",""BM16"",""WM13"",""WF06""]","[2,6,8,4]","[2,6,8,4]","","",""
"show-reward","108","870933","0.0-108.0","p934043","pilot_test","emogo","test_session","emotion","mismatch","uniform","","","","","","","","865163","867188","","","","","","","","","","","","2","","stimuli/stars_2.png","178","","","","","stimuli/BF08_FO.jpg","",""
"explore-choice","109","877421","0.0-109.0","p934043","pilot_test","emogo","test_session","emotion","mismatch","uniform","","","","","","","5982.000000000116","867193","873175.0000000001","[""stimuli/BF08_SUR.jpg"",""stimuli/BM16_CC.jpg"",""stimuli/WM13_SC.jpg"",""stimuli/WF06_FO.jpg""]","stimuli/BF08_SUR.jpg","stimuli/BM16_CC.jpg","stimuli/WM13_SC.jpg","stimuli/WF06_FO.jpg","pos3","stimuli/WM13_SC.jpg","SC","WM13","2","4.5","9","8","stimuli/stars_9.png","182.5","[""SUR"",""CC"",""SC"",""FO""]","[""BF08"",""BM16"",""WM13"",""WF06""]","[2,8,9,3]","[2,6,8,4]","","",""
"show-reward","110","879452","0.0-110.0","p934043","pilot_test","emogo","test_session","emotion","mismatch","uniform","","","","","","","","873679","875707","","","","","","","","","","","","9","","stimuli/stars_9.png","182.5","","","","","stimuli/WM13_SC.jpg","",""
"explore-choice","111","894221","0.0-111.0","p934043","pilot_test","emogo","test_session","emotion","mismatch","uniform","","","","","","","14265","875710","889975","[""stimuli/BF08_SC.jpg"",""stimuli/WM13_CC.jpg"",""stimuli/WF06_FO.jpg"",""stimuli/BM16_SUR.jpg""]","stimuli/BF08_SC.jpg","stimuli/WM13_CC.jpg","stimuli/WF06_FO.jpg","stimuli/BM16_SUR.jpg","pos1","stimuli/BF08_SC.jpg","SC","BF08","0","2","4","2","stimuli/stars_4.png","184.5","[""SC"",""CC"",""FO"",""SUR""]","[""BF08"",""WM13"",""WF06"",""BM16""]","[4,7,4,7]","[2,8,4,6]","","",""
"show-reward","112","896250","0.0-112.0","p934043","pilot_test","emogo","test_session","emotion","mismatch","uniform","","","","","","","","890479","892505","","","","","","","","","","","","4","","stimuli/stars_4.png","184.5","","","","","stimuli/BF08_SC.jpg","",""
"explore-choice","113","899038","0.0-113.0","p934043","pilot_test","emogo","test_session","emotion","mismatch","uniform","","","","","","","2285","892508","894793","[""stimuli/BM16_SC.jpg"",""stimuli/WF06_FO.jpg"",""stimuli/BF08_CC.jpg"",""stimuli/WM13_SUR.jpg""]","stimuli/BM16_SC.jpg","stimuli/WF06_FO.jpg","stimuli/BF08_CC.jpg","stimuli/WM13_SUR.jpg","pos1","stimuli/BM16_SC.jpg","SC","BM16","0","2","4","6","stimuli/stars_4.png","186.5","[""SC"",""FO"",""CC"",""SUR""]","[""BM16"",""WF06"",""BF08"",""WM13""]","[4,2,1,10]","[6,4,2,8]","","",""
"show-reward","114","901070","0.0-114.0","p934043","pilot_test","emogo","test_session","emotion","mismatch","uniform","","","","","","","","895296","897326","","","","","","","","","","","","4","","stimuli/stars_4.png","186.5","","","","","stimuli/BM16_SC.jpg","",""
"explore-choice","115","905305","0.0-115.0","p934043","pilot_test","emogo","test_session","emotion","mismatch","uniform","","","","","","","3731","897328","901059","[""stimuli/BF08_SUR.jpg"",""stimuli/WF06_CC.jpg"",""stimuli/WM13_SC.jpg"",""stimuli/BM16_FO.jpg""]","stimuli/BF08_SUR.jpg","stimuli/WF06_CC.jpg","stimuli/WM13_SC.jpg","stimuli/BM16_FO.jpg","pos3","stimuli/WM13_SC.jpg","SC","WM13","2","3.5","7","8","stimuli/stars_7.png","190","[""SUR"",""CC"",""SC"",""FO""]","[""BF08"",""WF06"",""WM13"",""BM16""]","[3,3,7,5]","[2,4,8,6]","","",""
"show-reward","116","907332","0.0-116.0","p934043","pilot_test","emogo","test_session","emotion","mismatch","uniform","","","","","","","","901563","903588","","","","","","","","","","","","7","","stimuli/stars_7.png","190","","","","","stimuli/WM13_SC.jpg","",""
"explore-choice","117","911338","0.0-117.0","p934043","pilot_test","emogo","test_session","emotion","mismatch","uniform","","","","","","","3503.0000000001164","903590","907093.0000000001","[""stimuli/WF06_SUR.jpg"",""stimuli/BM16_FO.jpg"",""stimuli/BF08_SC.jpg"",""stimuli/WM13_CC.jpg""]","stimuli/WF06_SUR.jpg","stimuli/BM16_FO.jpg","stimuli/BF08_SC.jpg","stimuli/WM13_CC.jpg","pos3","stimuli/BF08_SC.jpg","SC","BF08","2","0.5","1","2","stimuli/stars_1.png","190.5","[""SUR"",""FO"",""SC"",""CC""]","[""WF06"",""BM16"",""BF08"",""WM13""]","[6,8,1,10]","[4,6,2,8]","","",""
"show-reward","118","913367","0.0-118.0","p934043","pilot_test","emogo","test_session","emotion","mismatch","uniform","","","","","","","","907597","909622.0000000001","","","","","","","","","","","","1","","stimuli/stars_1.png","190.5","","","","","stimuli/BF08_SC.jpg","",""
"explore-choice","119","916854","0.0-119.0","p934043","pilot_test","emogo","test_session","emotion","mismatch","uniform","","","","","","","2985","909624","912609","[""stimuli/BM16_CC.jpg"",""stimuli/WF06_SUR.jpg"",""stimuli/WM13_SC.jpg"",""stimuli/BF08_FO.jpg""]","stimuli/BM16_CC.jpg","stimuli/WF06_SUR.jpg","stimuli/WM13_SC.jpg","stimuli/BF08_FO.jpg","pos3","stimuli/WM13_SC.jpg","SC","WM13","2","5","10","8","stimuli/stars_10.png","195.5","[""CC"",""SUR"",""SC"",""FO""]","[""BM16"",""WF06"",""WM13"",""BF08""]","[7,2,10,4]","[6,4,8,2]","","",""
"show-reward","120","918882","0.0-120.0","p934043","pilot_test","emogo","test_session","emotion","mismatch","uniform","","","","","","","","913113","915138","","","","","","","","","","","","10","","stimuli/stars_10.png","195.5","","","","","stimuli/WM13_SC.jpg","",""
"explore-choice","121","933188","0.0-121.0","p934043","pilot_test","emogo","test_session","emotion","mismatch","uniform","","","","","","","13803","915140","928943","[""stimuli/WM13_FO.jpg"",""stimuli/WF06_SUR.jpg"",""stimuli/BF08_SC.jpg"",""stimuli/BM16_CC.jpg""]","stimuli/WM13_FO.jpg","stimuli/WF06_SUR.jpg","stimuli/BF08_SC.jpg","stimuli/BM16_CC.jpg","pos3","stimuli/BF08_SC.jpg","SC","BF08","2","1","2","2","stimuli/stars_2.png","196.5","[""FO"",""SUR"",""SC"",""CC""]","[""WM13"",""WF06"",""BF08"",""BM16""]","[9,3,2,4]","[8,4,2,6]","","",""
"show-reward","122","935217","0.0-122.0","p934043","pilot_test","emogo","test_session","emotion","mismatch","uniform","","","","","","","","929447","931473.0000000001","","","","","","","","","","","","2","","stimuli/stars_2.png","196.5","","","","","stimuli/BF08_SC.jpg","",""
"explore-choice","123","941854","0.0-123.0","p934043","pilot_test","emogo","test_session","emotion","mismatch","uniform","","","","","","","6132","931477","937609","[""stimuli/WF06_SUR.jpg"",""stimuli/BF08_CC.jpg"",""stimuli/WM13_SC.jpg"",""stimuli/BM16_FO.jpg""]","stimuli/WF06_SUR.jpg","stimuli/BF08_CC.jpg","stimuli/WM13_SC.jpg","stimuli/BM16_FO.jpg","pos3","stimuli/WM13_SC.jpg","SC","WM13","2","3","6","8","stimuli/stars_6.png","199.5","[""SUR"",""CC"",""SC"",""FO""]","[""WF06"",""BF08"",""WM13"",""BM16""]","[6,3,6,4]","[4,2,8,6]","","",""
"show-reward","124","943885","0.0-124.0","p934043","pilot_test","emogo","test_session","emotion","mismatch","uniform","","","","","","","","938113","940141.0000000001","","","","","","","","","","","","6","","stimuli/stars_6.png","199.5","","","","","stimuli/WM13_SC.jpg","",""
"explore-choice","125","955538","0.0-125.0","p934043","pilot_test","emogo","test_session","emotion","mismatch","uniform","","","","","","","11150","940143","951293","[""stimuli/WM13_SC.jpg"",""stimuli/BF08_FO.jpg"",""stimuli/WF06_CC.jpg"",""stimuli/BM16_SUR.jpg""]","stimuli/WM13_SC.jpg","stimuli/BF08_FO.jpg","stimuli/WF06_CC.jpg","stimuli/BM16_SUR.jpg","pos1","stimuli/WM13_SC.jpg","SC","WM13","0","4","8","8","stimuli/stars_8.png","203.5","[""SC"",""FO"",""CC"",""SUR""]","[""WM13"",""BF08"",""WF06"",""BM16""]","[8,3,3,6]","[8,2,4,6]","","",""
"show-reward","126","957565","0.0-126.0","p934043","pilot_test","emogo","test_session","emotion","mismatch","uniform","","","","","","","","951797","953822","","","","","","","","","","","","8","","stimuli/stars_8.png","203.5","","","","","stimuli/WM13_SC.jpg","",""
"explore-choice","127","959672","0.0-127.0","p934043","pilot_test","emogo","test_session","emotion","mismatch","uniform","","","","","","","1602.9999999998836","953824.0000000001","955427","[""stimuli/BF08_CC.jpg"",""stimuli/WM13_SC.jpg"",""stimuli/BM16_SUR.jpg"",""stimuli/WF06_FO.jpg""]","stimuli/BF08_CC.jpg","stimuli/WM13_SC.jpg","stimuli/BM16_SUR.jpg","stimuli/WF06_FO.jpg","pos2","stimuli/WM13_SC.jpg","SC","WM13","1","3.5","7","8","stimuli/stars_7.png","207","[""CC"",""SC"",""SUR"",""FO""]","[""BF08"",""WM13"",""BM16"",""WF06""]","[3,7,7,6]","[2,8,6,4]","","",""
"show-reward","128","961700","0.0-128.0","p934043","pilot_test","emogo","test_session","emotion","mismatch","uniform","","","","","","","","955931","957957","","","","","","","","","","","","7","","stimuli/stars_7.png","207","","","","","stimuli/WM13_SC.jpg","",""
"explore-choice","129","964854","0.0-129.0","p934043","pilot_test","emogo","test_session","emotion","mismatch","uniform","","","","","","","2651","957958","960609","[""stimuli/BM16_SUR.jpg"",""stimuli/WM13_FO.jpg"",""stimuli/BF08_SC.jpg"",""stimuli/WF06_CC.jpg""]","stimuli/BM16_SUR.jpg","stimuli/WM13_FO.jpg","stimuli/BF08_SC.jpg","stimuli/WF06_CC.jpg","pos2","stimuli/WM13_FO.jpg","FO","WM13","1","3","6","8","stimuli/stars_6.png","210","[""SUR"",""FO"",""SC"",""CC""]","[""BM16"",""WM13"",""BF08"",""WF06""]","[6,6,3,4]","[6,8,2,4]","","",""
"show-reward","130","966882","0.0-130.0","p934043","pilot_test","emogo","test_session","emotion","mismatch","uniform","","","","","","","","961113","963138","","","","","","","","","","","","6","","stimuli/stars_6.png","210","","","","","stimuli/WM13_FO.jpg","",""
"explore-choice","131","973220","0.0-131.0","p934043","pilot_test","emogo","test_session","emotion","mismatch","uniform","","","","","","","5836","963140","968976","[""stimuli/WM13_CC.jpg"",""stimuli/BM16_SUR.jpg"",""stimuli/WF06_SC.jpg"",""stimuli/BF08_FO.jpg""]","stimuli/WM13_CC.jpg","stimuli/BM16_SUR.jpg","stimuli/WF06_SC.jpg","stimuli/BF08_FO.jpg","pos1","stimuli/WM13_CC.jpg","CC","WM13","0","5","10","8","stimuli/stars_10.png","215","[""CC"",""SUR"",""SC"",""FO""]","[""WM13"",""BM16"",""WF06"",""BF08""]","[10,8,5,2]","[8,6,4,2]","","",""
"show-reward","132","975250","0.0-132.0","p934043","pilot_test","emogo","test_session","emotion","mismatch","uniform","","","","","","","","969480","971506","","","","","","","","","","","","10","","stimuli/stars_10.png","215","","","","","stimuli/WM13_CC.jpg","",""
"explore-choice","133","976821","0.0-133.0","p934043","pilot_test","emogo","test_session","emotion","mismatch","uniform","","","","","","","1068","971508","972576","[""stimuli/WM13_FO.jpg"",""stimuli/WF06_CC.jpg"",""stimuli/BF08_SUR.jpg"",""stimuli/BM16_SC.jpg""]","stimuli/WM13_FO.jpg","stimuli/WF06_CC.jpg","stimuli/BF08_SUR.jpg","stimuli/BM16_SC.jpg","pos1","stimuli/WM13_FO.jpg","FO","WM13","0","4","8","8","stimuli/stars_8.png","219","[""FO"",""CC"",""SUR"",""SC""]","[""WM13"",""WF06"",""BF08"",""BM16""]","[8,3,0,8]","[8,4,2,6]","","",""
"show-reward","134","978849","0.0-134.0","p934043","pilot_test","emogo","test_session","emotion","mismatch","uniform","","","","","","","","973080","975105","","","","","","","","","","","","8","","stimuli/stars_8.png","219","","","","","stimuli/WM13_FO.jpg","",""
"explore-choice","135","980321","0.0-135.0","p934043","pilot_test","emogo","test_session","emotion","mismatch","uniform","","","","","","","968.9999999998836","975108.0000000001","976077","[""stimuli/BM16_FO.jpg"",""stimuli/WM13_SUR.jpg"",""stimuli/BF08_CC.jpg"",""stimuli/WF06_SC.jpg""]","stimuli/BM16_FO.jpg","stimuli/WM13_SUR.jpg","stimuli/BF08_CC.jpg","stimuli/WF06_SC.jpg","pos2","stimuli/WM13_SUR.jpg","SUR","WM13","1","4","8","8","stimuli/stars_8.png","223","[""FO"",""SUR"",""CC"",""SC""]","[""BM16"",""WM13"",""BF08"",""WF06""]","[5,8,1,4]","[6,8,2,4]","","",""
"show-reward","136","982350","0.0-136.0","p934043","pilot_test","emogo","test_session","emotion","mismatch","uniform","","","","","","","","976580","978607","","","","","","","","","","","","8","","stimuli/stars_8.png","223","","","","","stimuli/WM13_SUR.jpg","",""
"explore-choice","137","984054","0.0-137.0","p934043","pilot_test","emogo","test_session","emotion","mismatch","uniform","","","","","","","1200.9999999998836","978608.0000000001","979809","[""stimuli/WF06_CC.jpg"",""stimuli/BF08_SC.jpg"",""stimuli/BM16_FO.jpg"",""stimuli/WM13_SUR.jpg""]","stimuli/WF06_CC.jpg","stimuli/BF08_SC.jpg","stimuli/BM16_FO.jpg","stimuli/WM13_SUR.jpg","pos4","stimuli/WM13_SUR.jpg","SUR","WM13","3","3.5","7","8","stimuli/stars_7.png","226.5","[""CC"",""SC"",""FO"",""SUR""]","[""WF06"",""BF08"",""BM16"",""WM13""]","[6,2,5,7]","[4,2,6,8]","","",""
"show-reward","138","986082","0.0-138.0","p934043","pilot_test","emogo","test_session","emotion","mismatch","uniform","","","","","","","","980313","982339","","","","","","","","","","","","7","","stimuli/stars_7.png","226.5","","","","","stimuli/WM13_SUR.jpg","",""
"explore-choice","139","987587","0.0-139.0","p934043","pilot_test","emogo","test_session","emotion","mismatch","uniform","","","","","","","1002.0000000001164","982341","983343.0000000001","[""stimuli/BM16_CC.jpg"",""stimuli/BF08_FO.jpg"",""stimuli/WM13_SUR.jpg"",""stimuli/WF06_SC.jpg""]","stimuli/BM16_CC.jpg","stimuli/BF08_FO.jpg","stimuli/WM13_SUR.jpg","stimuli/WF06_SC.jpg","pos3","stimuli/WM13_SUR.jpg","SUR","WM13","2","4","8","8","stimuli/stars_8.png","230.5","[""CC"",""FO"",""SUR"",""SC""]","[""BM16"",""BF08"",""WM13"",""WF06""]","[7,1,8,4]","[6,2,8,4]","","",""
"show-reward","140","989611","0.0-140.0","p934043","pilot_test","emogo","test_session","emotion","mismatch","uniform","","","","","","","","983845","985868","","","","","","","","","","","","8","","stimuli/stars_8.png","230.5","","","","","stimuli/WM13_SUR.jpg","",""
"explore-choice","141","991271","0.0-141.0","p934043","pilot_test","emogo","test_session","emotion","mismatch","uniform","","","","","","","1158","985869","987027","[""stimuli/BM16_SC.jpg"",""stimuli/WF06_CC.jpg"",""stimuli/BF08_FO.jpg"",""stimuli/WM13_SUR.jpg""]","stimuli/BM16_SC.jpg","stimuli/WF06_CC.jpg","stimuli/BF08_FO.jpg","stimuli/WM13_SUR.jpg","pos4","stimuli/WM13_SUR.jpg","SUR","WM13","3","4","8","8","stimuli/stars_8.png","234.5","[""SC"",""CC"",""FO"",""SUR""]","[""BM16"",""WF06"",""BF08"",""WM13""]","[5,6,4,8]","[6,4,2,8]","","",""
"show-reward","142","993302","0.0-142.0","p934043","pilot_test","emogo","test_session","emotion","mismatch","uniform","","","","","","","","987530","989558","","","","","","","","","","","","8","","stimuli/stars_8.png","234.5","","","","","stimuli/WM13_SUR.jpg","",""
"explore-choice","143","996105","0.0-143.0","p934043","pilot_test","emogo","test_session","emotion","mismatch","uniform","","","","","","","2299","989561","991860","[""stimuli/BM16_CC.jpg"",""stimuli/BF08_SC.jpg"",""stimuli/WM13_SUR.jpg"",""stimuli/WF06_FO.jpg""]","stimuli/BM16_CC.jpg","stimuli/BF08_SC.jpg","stimuli/WM13_SUR.jpg","stimuli/WF06_FO.jpg","pos3","stimuli/WM13_SUR.jpg","SUR","WM13","2","4.5","9","8","stimuli/stars_9.png","239","[""CC"",""SC"",""SUR"",""FO""]","[""BM16"",""BF08"",""WM13"",""WF06""]","[4,2,9,6]","[6,2,8,4]","","",""
"show-reward","144","998130","0.0-144.0","p934043","pilot_test","emogo","test_session","emotion","mismatch","uniform","","","","","","","","992365","994387","","","","","","","","","","","","9","","stimuli/stars_9.png","239","","","","","stimuli/WM13_SUR.jpg","",""
"explore-choice","145","1000974","0.0-145.0","p934043","pilot_test","emogo","test_session","emotion","mismatch","uniform","","","","","","","2340","994389","996729","[""stimuli/WF06_SC.jpg"",""stimuli/WM13_FO.jpg"",""stimuli/BM16_SUR.jpg"",""stimuli/BF08_CC.jpg""]","stimuli/WF06_SC.jpg","stimuli/WM13_FO.jpg","stimuli/BM16_SUR.jpg","stimuli/BF08_CC.jpg","pos2","stimuli/WM13_FO.jpg","FO","WM13","1","4.5","9","8","stimuli/stars_9.png","243.5","[""SC"",""FO"",""SUR"",""CC""]","[""WF06"",""WM13"",""BM16"",""BF08""]","[3,9,8,4]","[4,8,6,2]","","",""
"show-reward","146","1003004","0.0-146.0","p934043","pilot_test","emogo","test_session","emotion","mismatch","uniform","","","","","","","","997234","999261","","","","","","","","","","","","9","","stimuli/stars_9.png","243.5","","","","","stimuli/WM13_FO.jpg","",""
"explore-choice","147","1004855","0.0-147.0","p934043","pilot_test","emogo","test_session","emotion","mismatch","uniform","","","","","","","1347","999263","1000610","[""stimuli/BF08_SUR.jpg"",""stimuli/BM16_CC.jpg"",""stimuli/WF06_SC.jpg"",""stimuli/WM13_FO.jpg""]","stimuli/BF08_SUR.jpg","stimuli/BM16_CC.jpg","stimuli/WF06_SC.jpg","stimuli/WM13_FO.jpg","pos4","stimuli/WM13_FO.jpg","FO","WM13","3","3","6","8","stimuli/stars_6.png","246.5","[""SUR"",""CC"",""SC"",""FO""]","[""BF08"",""BM16"",""WF06"",""WM13""]","[2,8,3,6]","[2,6,4,8]","","",""
"show-reward","148","1006882","0.0-148.0","p934043","pilot_test","emogo","test_session","emotion","mismatch","uniform","","","","","","","","1001114","1003140","","","","","","","","","","","","6","","stimuli/stars_6.png","246.5","","","","","stimuli/WM13_FO.jpg","",""
"explore-choice","149","1008354","0.0-149.0","p934043","pilot_test","emogo","test_session","emotion","mismatch","uniform","","","","","","","970","1003140","1004110","[""stimuli/BM16_FO.jpg"",""stimuli/WF06_SC.jpg"",""stimuli/WM13_CC.jpg"",""stimuli/BF08_SUR.jpg""]","stimuli/BM16_FO.jpg","stimuli/WF06_SC.jpg","stimuli/WM13_CC.jpg","stimuli/BF08_SUR.jpg","pos3","stimuli/WM13_CC.jpg","CC","WM13","2","4.5","9","8","stimuli/stars_9.png","251","[""FO"",""SC"",""CC"",""SUR""]","[""BM16"",""WF06"",""WM13"",""BF08""]","[5,6,9,0]","[6,4,8,2]","","",""
"show-reward","150","1010379","0.0-150.0","p934043","pilot_test","emogo","test_session","emotion","mismatch","uniform","","","","","","","","1004614","1006636","","","","","","","","","","","","9","","stimuli/stars_9.png","251","","","","","stimuli/WM13_CC.jpg","",""
"explore-choice","151","1011754","0.0-151.0","p934043","pilot_test","emogo","test_session","emotion","mismatch","uniform","","","","","","","872","1006638","1007510","[""stimuli/BF08_CC.jpg"",""stimuli/WM13_FO.jpg"",""stimuli/BM16_SUR.jpg"",""stimuli/WF06_SC.jpg""]","stimuli/BF08_CC.jpg","stimuli/WM13_FO.jpg","stimuli/BM16_SUR.jpg","stimuli/WF06_SC.jpg","pos2","stimuli/WM13_FO.jpg","FO","WM13","1","4.5","9","8","stimuli/stars_9.png","255.5","[""CC"",""FO"",""SUR"",""SC""]","[""BF08"",""WM13"",""BM16"",""WF06""]","[4,9,8,3]","[2,8,6,4]","","",""
"show-reward","152","1013782","0.0-152.0","p934043","pilot_test","emogo","test_session","emotion","mismatch","uniform","","","","","","","","1008014","1010039","","","","","","","","","","","","9","","stimuli/stars_9.png","255.5","","","","","stimuli/WM13_FO.jpg","",""
"explore-choice","153","1018524","0.0-153.0","p934043","pilot_test","emogo","test_session","emotion","mismatch","uniform","","","","","","","4238","1010041","1014279","[""stimuli/BM16_SC.jpg"",""stimuli/WF06_CC.jpg"",""stimuli/WM13_SUR.jpg"",""stimuli/BF08_FO.jpg""]","stimuli/BM16_SC.jpg","stimuli/WF06_CC.jpg","stimuli/WM13_SUR.jpg","stimuli/BF08_FO.jpg","pos3","stimuli/WM13_SUR.jpg","SUR","WM13","2","4","8","8","stimuli/stars_8.png","259.5","[""SC"",""CC"",""SUR"",""FO""]","[""BM16"",""WF06"",""WM13"",""BF08""]","[5,6,8,4]","[6,4,8,2]","","",""
"show-reward","154","1020552","0.0-154.0","p934043","pilot_test","emogo","test_session","emotion","mismatch","uniform","","","","","","","","1014783","1016810.0000000001","","","","","","","","","","","","8","","stimuli/stars_8.png","259.5","","","","","stimuli/WM13_SUR.jpg","",""
"explore-choice","155","1023987","0.0-155.0","p934043","pilot_test","emogo","test_session","emotion","mismatch","uniform","","","","","","","2931","1016812","1019743","[""stimuli/BM16_CC.jpg"",""stimuli/WM13_SC.jpg"",""stimuli/WF06_FO.jpg"",""stimuli/BF08_SUR.jpg""]","stimuli/BM16_CC.jpg","stimuli/WM13_SC.jpg","stimuli/WF06_FO.jpg","stimuli/BF08_SUR.jpg","pos2","stimuli/WM13_SC.jpg","SC","WM13","1","4.5","9","8","stimuli/stars_9.png","264","[""CC"",""SC"",""FO"",""SUR""]","[""BM16"",""WM13"",""WF06"",""BF08""]","[8,9,3,2]","[6,8,4,2]","","",""
"show-reward","156","1026019","0.0-156.0","p934043","pilot_test","emogo","test_session","emotion","mismatch","uniform","","","","","","","","1020247.0000000001","1022276.0000000001","","","","","","","","","","","","9","","stimuli/stars_9.png","264","","","","","stimuli/WM13_SC.jpg","",""
"explore-choice","157","1027754","0.0-157.0","p934043","pilot_test","emogo","test_session","emotion","mismatch","uniform","","","","","","","1232","1022278","1023510","[""stimuli/WF06_SUR.jpg"",""stimuli/BF08_SC.jpg"",""stimuli/BM16_CC.jpg"",""stimuli/WM13_FO.jpg""]","stimuli/WF06_SUR.jpg","stimuli/BF08_SC.jpg","stimuli/BM16_CC.jpg","stimuli/WM13_FO.jpg","pos4","stimuli/WM13_FO.jpg","FO","WM13","3","4.5","9","8","stimuli/stars_9.png","268.5","[""SUR"",""SC"",""CC"",""FO""]","[""WF06"",""BF08"",""BM16"",""WM13""]","[3,2,4,9]","[4,2,6,8]","","",""
"show-reward","158","1029781","0.0-158.0","p934043","pilot_test","emogo","test_session","emotion","mismatch","uniform","","","","","","","","1024012.9999999999","1026039","","","","","","","","","","","","9","","stimuli/stars_9.png","268.5","","","","","stimuli/WM13_FO.jpg","",""
"explore-choice","159","1031237","0.0-159.0","p934043","pilot_test","emogo","test_session","emotion","mismatch","uniform","","","","","","","952","1026040.9999999999","1026992.9999999999","[""stimuli/BF08_SUR.jpg"",""stimuli/BM16_FO.jpg"",""stimuli/WF06_SC.jpg"",""stimuli/WM13_CC.jpg""]","stimuli/BF08_SUR.jpg","stimuli/BM16_FO.jpg","stimuli/WF06_SC.jpg","stimuli/WM13_CC.jpg","pos4","stimuli/WM13_CC.jpg","CC","WM13","3","4.5","9","8","stimuli/stars_9.png","273","[""SUR"",""FO"",""SC"",""CC""]","[""BF08"",""BM16"",""WF06"",""WM13""]","[0,5,6,9]","[2,6,4,8]","","",""
"show-reward","160","1033261","0.0-160.0","p934043","pilot_test","emogo","test_session","emotion","mismatch","uniform","","","","","","","","1027496.0000000001","1029518","","","","","","","","","","","","9","","stimuli/stars_9.png","273","","","","","stimuli/WM13_CC.jpg","",""
"explore-choice","161","1035104","0.0-161.0","p934043","pilot_test","emogo","test_session","emotion","mismatch","uniform","","","","","","","1337.0000000002328","1029522.9999999999","1030860.0000000001","[""stimuli/BM16_FO.jpg"",""stimuli/WF06_SUR.jpg"",""stimuli/BF08_SC.jpg"",""stimuli/WM13_CC.jpg""]","stimuli/BM16_FO.jpg","stimuli/WF06_SUR.jpg","stimuli/BF08_SC.jpg","stimuli/WM13_CC.jpg","pos4","stimuli/WM13_CC.jpg","CC","WM13","3","5","10","8","stimuli/stars_10.png","278","[""FO"",""SUR"",""SC"",""CC""]","[""BM16"",""WF06"",""BF08"",""WM13""]","[8,6,1,10]","[6,4,2,8]","","",""
"show-reward","162","1037132","0.0-162.0","p934043","pilot_test","emogo","test_session","emotion","mismatch","uniform","","","","","","","","1031364","1033389.0000000001","","","","","","","","","","","","10","","stimuli/stars_10.png","278","","","","","stimuli/WM13_CC.jpg","",""
"explore-choice","163","1038954","0.0-163.0","p934043","pilot_test","emogo","test_session","emotion","mismatch","uniform","","","","","","","1319.9999999998836","1033390.0000000001","1034710","[""stimuli/WM13_CC.jpg"",""stimuli/WF06_SUR.jpg"",""stimuli/BM16_SC.jpg"",""stimuli/BF08_FO.jpg""]","stimuli/WM13_CC.jpg","stimuli/WF06_SUR.jpg","stimuli/BM16_SC.jpg","stimuli/BF08_FO.jpg","pos1","stimuli/WM13_CC.jpg","CC","WM13","0","4","8","8","stimuli/stars_8.png","282","[""CC"",""SUR"",""SC"",""FO""]","[""WM13"",""WF06"",""BM16"",""BF08""]","[8,4,6,2]","[8,4,6,2]","","",""
"show-reward","164","1040982","0.0-164.0","p934043","pilot_test","emogo","test_session","emotion","mismatch","uniform","","","","","","","","1035214","1037239","","","","","","","","","","","","8","","stimuli/stars_8.png","282","","","","","stimuli/WM13_CC.jpg","",""
"explore-choice","165","1042621","0.0-165.0","p934043","pilot_test","emogo","test_session","emotion","mismatch","uniform","","","","","","","1136","1037241","1038377","[""stimuli/WM13_CC.jpg"",""stimuli/WF06_SC.jpg"",""stimuli/BF08_FO.jpg"",""stimuli/BM16_SUR.jpg""]","stimuli/WM13_CC.jpg","stimuli/WF06_SC.jpg","stimuli/BF08_FO.jpg","stimuli/BM16_SUR.jpg","pos1","stimuli/WM13_CC.jpg","CC","WM13","0","5","10","8","stimuli/stars_10.png","287","[""CC"",""SC"",""FO"",""SUR""]","[""WM13"",""WF06"",""BF08"",""BM16""]","[10,5,2,8]","[8,4,2,6]","","",""
"show-reward","166","1044649","0.0-166.0","p934043","pilot_test","emogo","test_session","emotion","mismatch","uniform","","","","","","","","1038881.0000000001","1040906","","","","","","","","","","","","10","","stimuli/stars_10.png","287","","","","","stimuli/WM13_CC.jpg","",""
"explore-choice","167","1046770","0.0-167.0","p934043","pilot_test","emogo","test_session","emotion","mismatch","uniform","","","","","","","1618","1040908.0000000001","1042526.0000000001","[""stimuli/BM16_SUR.jpg"",""stimuli/WM13_FO.jpg"",""stimuli/BF08_SC.jpg"",""stimuli/WF06_CC.jpg""]","stimuli/BM16_SUR.jpg","stimuli/WM13_FO.jpg","stimuli/BF08_SC.jpg","stimuli/WF06_CC.jpg","pos2","stimuli/WM13_FO.jpg","FO","WM13","1","3","6","8","stimuli/stars_6.png","290","[""SUR"",""FO"",""SC"",""CC""]","[""BM16"",""WM13"",""BF08"",""WF06""]","[6,6,3,4]","[6,8,2,4]","","",""
"show-reward","168","1048798","0.0-168.0","p934043","pilot_test","emogo","test_session","emotion","mismatch","uniform","","","","","","","","1043030","1045055.0000000001","","","","","","","","","","","","6","","stimuli/stars_6.png","290","","","","","stimuli/WM13_FO.jpg","",""
"explore-choice","169","1050388","0.0-169.0","p934043","pilot_test","emogo","test_session","emotion","mismatch","uniform","","","","","","","1087","1045057","1046144","[""stimuli/WM13_CC.jpg"",""stimuli/BM16_SUR.jpg"",""stimuli/WF06_FO.jpg"",""stimuli/BF08_SC.jpg""]","stimuli/WM13_CC.jpg","stimuli/BM16_SUR.jpg","stimuli/WF06_FO.jpg","stimuli/BF08_SC.jpg","pos1","stimuli/WM13_CC.jpg","CC","WM13","0","3.5","7","8","stimuli/stars_7.png","293.5","[""CC"",""SUR"",""FO"",""SC""]","[""WM13"",""BM16"",""WF06"",""BF08""]","[7,7,4,4]","[8,6,4,2]","","",""
"show-reward","170","1052415","0.0-170.0","p934043","pilot_test","emogo","test_session","emotion","mismatch","uniform","","","","","","","","1046647.9999999999","1048673","","","","","","","","","","","","7","","stimuli/stars_7.png","293.5","","","","","stimuli/WM13_CC.jpg","",""
"explore-choice","171","1054357","0.0-171.0","p934043","pilot_test","emogo","test_session","emotion","mismatch","uniform","","","","","","","1438","1048675","1050113","[""stimuli/WM13_FO.jpg"",""stimuli/BM16_SC.jpg"",""stimuli/WF06_CC.jpg"",""stimuli/BF08_SUR.jpg""]","stimuli/WM13_FO.jpg","stimuli/BM16_SC.jpg","stimuli/WF06_CC.jpg","stimuli/BF08_SUR.jpg","pos1","stimuli/WM13_FO.jpg","FO","WM13","0","4","8","8","stimuli/stars_8.png","297.5","[""FO"",""SC"",""CC"",""SUR""]","[""WM13"",""BM16"",""WF06"",""BF08""]","[8,8,3,0]","[8,6,4,2]","","",""
"show-reward","172","1056386","0.0-172.0","p934043","pilot_test","emogo","test_session","emotion","mismatch","uniform","","","","","","","","1050617","1052643","","","","","","","","","","","","8","","stimuli/stars_8.png","297.5","","","","","stimuli/WM13_FO.jpg","",""
"explore-choice","173","1059720","0.0-173.0","p934043","pilot_test","emogo","test_session","emotion","mismatch","uniform","","","","","","","2831","1052645","1055476","[""stimuli/BM16_FO.jpg"",""stimuli/BF08_CC.jpg"",""stimuli/WM13_SUR.jpg"",""stimuli/WF06_SC.jpg""]","stimuli/BM16_FO.jpg","stimuli/BF08_CC.jpg","stimuli/WM13_SUR.jpg","stimuli/WF06_SC.jpg","pos3","stimuli/WM13_SUR.jpg","SUR","WM13","2","4","8","8","stimuli/stars_8.png","301.5","[""FO"",""CC"",""SUR"",""SC""]","[""BM16"",""BF08"",""WM13"",""WF06""]","[5,1,8,4]","[6,2,8,4]","","",""
"show-reward","174","1061748","0.0-174.0","p934043","pilot_test","emogo","test_session","emotion","mismatch","uniform","","","","","","","","1055980","1058005","","","","","","","","","","","","8","","stimuli/stars_8.png","301.5","","","","","stimuli/WM13_SUR.jpg","",""
"explore-choice","175","1063337","0.0-175.0","p934043","pilot_test","emogo","test_session","emotion","mismatch","uniform","","","","","","","1087","1058007","1059094","[""stimuli/WF06_SUR.jpg"",""stimuli/BM16_FO.jpg"",""stimuli/WM13_SC.jpg"",""stimuli/BF08_CC.jpg""]","stimuli/WF06_SUR.jpg","stimuli/BM16_FO.jpg","stimuli/WM13_SC.jpg","stimuli/BF08_CC.jpg","pos3","stimuli/WM13_SC.jpg","SC","WM13","2","3","6","8","stimuli/stars_6.png","304.5","[""SUR"",""FO"",""SC"",""CC""]","[""WF06"",""BM16"",""WM13"",""BF08""]","[6,4,6,3]","[4,6,8,2]","","",""
"show-reward","176","1065367","0.0-176.0","p934043","pilot_test","emogo","test_session","emotion","mismatch","uniform","","","","","","","","1059597","1061624","","","","","","","","","","","","6","","stimuli/stars_6.png","304.5","","","","","stimuli/WM13_SC.jpg","",""
"explore-choice","177","1068537","0.0-177.0","p934043","pilot_test","emogo","test_session","emotion","mismatch","uniform","","","","","","","2667","1061627","1064294","[""stimuli/WF06_FO.jpg"",""stimuli/BF08_CC.jpg"",""stimuli/WM13_SUR.jpg"",""stimuli/BM16_SC.jpg""]","stimuli/WF06_FO.jpg","stimuli/BF08_CC.jpg","stimuli/WM13_SUR.jpg","stimuli/BM16_SC.jpg","pos3","stimuli/WM13_SUR.jpg","SUR","WM13","2","5","10","8","stimuli/stars_10.png","309.5","[""FO"",""CC"",""SUR"",""SC""]","[""WF06"",""BF08"",""WM13"",""BM16""]","[2,1,10,4]","[4,2,8,6]","","",""
"show-reward","178","1070564","0.0-178.0","p934043","pilot_test","emogo","test_session","emotion","mismatch","uniform","","","","","","","","1064797","1066822","","","","","","","","","","","","10","","stimuli/stars_10.png","309.5","","","","","stimuli/WM13_SUR.jpg","",""
"explore-choice","179","1073587","0.0-179.0","p934043","pilot_test","emogo","test_session","emotion","mismatch","uniform","","","","","","","2516","1066827","1069343","[""stimuli/BF08_SUR.jpg"",""stimuli/WM13_SC.jpg"",""stimuli/WF06_CC.jpg"",""stimuli/BM16_FO.jpg""]","stimuli/BF08_SUR.jpg","stimuli/WM13_SC.jpg","stimuli/WF06_CC.jpg","stimuli/BM16_FO.jpg","pos2","stimuli/WM13_SC.jpg","SC","WM13","1","3.5","7","8","stimuli/stars_7.png","313","[""SUR"",""SC"",""CC"",""FO""]","[""BF08"",""WM13"",""WF06"",""BM16""]","[3,7,3,5]","[2,8,4,6]","","",""
"show-reward","180","1075614","0.0-180.0","p934043","pilot_test","emogo","test_session","emotion","mismatch","uniform","","","","","","","","1069847","1071872","","","","","","","","","","","","7","","stimuli/stars_7.png","313","","","","","stimuli/WM13_SC.jpg","",""
"explore-choice","181","1086336","0.0-181.0","p934043","pilot_test","emogo","test_session","emotion","mismatch","uniform","","","","","","","10219","1071874","1082093","[""stimuli/BF08_SUR.jpg"",""stimuli/WM13_FO.jpg"",""stimuli/BM16_CC.jpg"",""stimuli/WF06_SC.jpg""]","stimuli/BF08_SUR.jpg","stimuli/WM13_FO.jpg","stimuli/BM16_CC.jpg","stimuli/WF06_SC.jpg","pos2","stimuli/WM13_FO.jpg","FO","WM13","1","3","6","8","stimuli/stars_6.png","316","[""SUR"",""FO"",""CC"",""SC""]","[""BF08"",""WM13"",""BM16"",""WF06""]","[2,6,8,3]","[2,8,6,4]","","",""
"show-reward","182","1088364","0.0-182.0","p934043","pilot_test","emogo","test_session","emotion","mismatch","uniform","","","","","","","","1082597","1084622","","","","","","","","","","","","6","","stimuli/stars_6.png","316","","","","","stimuli/WM13_FO.jpg","",""
"explore-choice","183","1091857","0.0-183.0","p934043","pilot_test","emogo","test_session","emotion","mismatch","uniform","","","","","","","2989","1084624","1087613","[""stimuli/WM13_SUR.jpg"",""stimuli/WF06_CC.jpg"",""stimuli/BM16_FO.jpg"",""stimuli/BF08_SC.jpg""]","stimuli/WM13_SUR.jpg","stimuli/WF06_CC.jpg","stimuli/BM16_FO.jpg","stimuli/BF08_SC.jpg","pos1","stimuli/WM13_SUR.jpg","SUR","WM13","0","3.5","7","8","stimuli/stars_7.png","319.5","[""SUR"",""CC"",""FO"",""SC""]","[""WM13"",""WF06"",""BM16"",""BF08""]","[7,6,5,2]","[8,4,6,2]","","",""
"show-reward","184","1093884","0.0-184.0","p934043","pilot_test","emogo","test_session","emotion","mismatch","uniform","","","","","","","","1088117","1090142","","","","","","","","","","","","7","","stimuli/stars_7.png","319.5","","","","","stimuli/WM13_SUR.jpg","",""
"explore-choice","185","1095838","0.0-185.0","p934043","pilot_test","emogo","test_session","emotion","mismatch","uniform","","","","","","","1450","1090144","1091594","[""stimuli/WF06_FO.jpg"",""stimuli/BM16_SC.jpg"",""stimuli/WM13_CC.jpg"",""stimuli/BF08_SUR.jpg""]","stimuli/WF06_FO.jpg","stimuli/BM16_SC.jpg","stimuli/WM13_CC.jpg","stimuli/BF08_SUR.jpg","pos3","stimuli/WM13_CC.jpg","CC","WM13","2","5","10","8","stimuli/stars_10.png","324.5","[""FO"",""SC"",""CC"",""SUR""]","[""WF06"",""BM16"",""WM13"",""BF08""]","[4,5,10,4]","[4,6,8,2]","","",""
"show-reward","186","1097866","0.0-186.0","p934043","pilot_test","emogo","test_session","emotion","mismatch","uniform","","","","","","","","1092098","1094124","","","","","","","","","","","","10","","stimuli/stars_10.png","324.5","","","","","stimuli/WM13_CC.jpg","",""
"explore-choice","187","1100088","0.0-187.0","p934043","pilot_test","emogo","test_session","emotion","mismatch","uniform","","","","","","","1718","1094126","1095844","[""stimuli/BF08_FO.jpg"",""stimuli/BM16_CC.jpg"",""stimuli/WF06_SUR.jpg"",""stimuli/WM13_SC.jpg""]","stimuli/BF08_FO.jpg","stimuli/BM16_CC.jpg","stimuli/WF06_SUR.jpg","stimuli/WM13_SC.jpg","pos4","stimuli/WM13_SC.jpg","SC","WM13","3","5","10","8","stimuli/stars_10.png","329.5","[""FO"",""CC"",""SUR"",""SC""]","[""BF08"",""BM16"",""WF06"",""WM13""]","[4,7,2,10]","[2,6,4,8]","","",""
"show-reward","188","1102116","0.0-188.0","p934043","pilot_test","emogo","test_session","emotion","mismatch","uniform","","","","","","","","1096349","1098374","","","","","","","","","","","","10","","stimuli/stars_10.png","329.5","","","","","stimuli/WM13_SC.jpg","",""
"explore-choice","189","1103653","0.0-189.0","p934043","pilot_test","emogo","test_session","emotion","mismatch","uniform","","","","","","","1034","1098376","1099410","[""stimuli/WF06_SC.jpg"",""stimuli/BM16_CC.jpg"",""stimuli/WM13_SUR.jpg"",""stimuli/BF08_FO.jpg""]","stimuli/WF06_SC.jpg","stimuli/BM16_CC.jpg","stimuli/WM13_SUR.jpg","stimuli/BF08_FO.jpg","pos3","stimuli/WM13_SUR.jpg","SUR","WM13","2","4","8","8","stimuli/stars_8.png","333.5","[""SC"",""CC"",""SUR"",""FO""]","[""WF06"",""BM16"",""WM13"",""BF08""]","[4,7,8,1]","[4,6,8,2]","","",""
"show-reward","190","1105680","0.0-190.0","p934043","pilot_test","emogo","test_session","emotion","mismatch","uniform","","","","","","","","1099913","1101938","","","","","","","","","","","","8","","stimuli/stars_8.png","333.5","","","","","stimuli/WM13_SUR.jpg","",""
"explore-choice","191","1107573","0.0-191.0","p934043","pilot_test","emogo","test_session","emotion","mismatch","uniform","","","","","","","1389","1101940","1103329","[""stimuli/WF06_SUR.jpg"",""stimuli/WM13_FO.jpg"",""stimuli/BF08_CC.jpg"",""stimuli/BM16_SC.jpg""]","stimuli/WF06_SUR.jpg","stimuli/WM13_FO.jpg","stimuli/BF08_CC.jpg","stimuli/BM16_SC.jpg","pos2","stimuli/WM13_FO.jpg","FO","WM13","1","4.5","9","8","stimuli/stars_9.png","338","[""SUR"",""FO"",""CC"",""SC""]","[""WF06"",""WM13"",""BF08"",""BM16""]","[6,9,0,5]","[4,8,2,6]","","",""
"show-reward","192","1109600","0.0-192.0","p934043","pilot_test","emogo","test_session","emotion","mismatch","uniform","","","","","","","","1103833","1105858","","","","","","","","","","","","9","","stimuli/stars_9.png","338","","","","","stimuli/WM13_FO.jpg","",""
"explore-choice","193","1111021","0.0-193.0","p934043","pilot_test","emogo","test_session","emotion","mismatch","uniform","","","","","","","916.9999999997672","1105860.0000000002","1106777","[""stimuli/WF06_FO.jpg"",""stimuli/WM13_SC.jpg"",""stimuli/BM16_SUR.jpg"",""stimuli/BF08_CC.jpg""]","stimuli/WF06_FO.jpg","stimuli/WM13_SC.jpg","stimuli/BM16_SUR.jpg","stimuli/BF08_CC.jpg","pos2","stimuli/WM13_SC.jpg","SC","WM13","1","3.5","7","8","stimuli/stars_7.png","341.5","[""FO"",""SC"",""SUR"",""CC""]","[""WF06"",""WM13"",""BM16"",""BF08""]","[6,7,7,3]","[4,8,6,2]","","",""
"show-reward","194","1113050","0.0-194.0","p934043","pilot_test","emogo","test_session","emotion","mismatch","uniform","","","","","","","","1107281","1109308","","","","","","","","","","","","7","","stimuli/stars_7.png","341.5","","","","","stimuli/WM13_SC.jpg","",""
"explore-choice","195","1114304","0.0-195.0","p934043","pilot_test","emogo","test_session","emotion","mismatch","uniform","","","","","","","751","1109310","1110061","[""stimuli/BM16_SUR.jpg"",""stimuli/WM13_SC.jpg"",""stimuli/BF08_FO.jpg"",""stimuli/WF06_CC.jpg""]","stimuli/BM16_SUR.jpg","stimuli/WM13_SC.jpg","stimuli/BF08_FO.jpg","stimuli/WF06_CC.jpg","pos2","stimuli/WM13_SC.jpg","SC","WM13","1","4","8","8","stimuli/stars_8.png","345.5","[""SUR"",""SC"",""FO"",""CC""]","[""BM16"",""WM13"",""BF08"",""WF06""]","[6,8,3,3]","[6,8,2,4]","","",""
"show-reward","196","1116332","0.0-196.0","p934043","pilot_test","emogo","test_session","emotion","mismatch","uniform","","","","","","","","1110565","1112590","","","","","","","","","","","","8","","stimuli/stars_8.png","345.5","","","","","stimuli/WM13_SC.jpg","",""
"explore-choice","197","1117937","0.0-197.0","p934043","pilot_test","emogo","test_session","emotion","mismatch","uniform","","","","","","","1102","1112592","1113694","[""stimuli/WM13_SUR.jpg"",""stimuli/BM16_CC.jpg"",""stimuli/BF08_SC.jpg"",""stimuli/WF06_FO.jpg""]","stimuli/WM13_SUR.jpg","stimuli/BM16_CC.jpg","stimuli/BF08_SC.jpg","stimuli/WF06_FO.jpg","pos1","stimuli/WM13_SUR.jpg","SUR","WM13","0","4.5","9","8","stimuli/stars_9.png","350","[""SUR"",""CC"",""SC"",""FO""]","[""WM13"",""BM16"",""BF08"",""WF06""]","[9,4,2,6]","[8,6,2,4]","","",""
"show-reward","198","1119966","0.0-198.0","p934043","pilot_test","emogo","test_session","emotion","mismatch","uniform","","","","","","","","1114197","1116224","","","","","","","","","","","","9","","stimuli/stars_9.png","350","","","","","stimuli/WM13_SUR.jpg","",""
"instructions","199","1125635","0.0-199.0","p934043","pilot_test","emogo","test_session","emotion","mismatch","uniform","","","","","","[{""page_index"":0,""viewing_time"":5664}]","5664","","","","","","","","","","","","","","","","","","","","","","","",""
"survey-text","200","1128802","0.0-200.0-0.0","p934043","pilot_test","emogo","test_session","emotion","mismatch","uniform","","","","","","","3113","","","","","","","","","","","","","","","","","","","","","","","{""age"":""22""}",""
"survey-text","201","1136935","0.0-200.0-1.0","p934043","pilot_test","emogo","test_session","emotion","mismatch","uniform","","","","","","","8127","","","","","","","","","","","","","","","","","","","","","","","{""gender"":""female""}",""
"survey-text","202","1141352","0.0-200.0-2.0","p934043","pilot_test","emogo","test_session","emotion","mismatch","uniform","","","","","","","4409.000000000233","","","","","","","","","","","","","","","","","","","","","","","{""country"":""US""}",""
"survey-text","203","1147218","0.0-200.0-3.0","p934043","pilot_test","emogo","test_session","emotion","mismatch","uniform","","","","","","","5859","","","","","","","","","","","","","","","","","","","","","","","{""language"":""English"",""other_languages"":""""}",""
"survey-multi-select","204","1150774","0.0-201.0","p934043","pilot_test","emogo","test_session","emotion","mismatch","uniform","","","","","","","3549","","","","","","","","","","","","","","","","","","","","","","","{""race"":[""Black or African American"",""Hispanic or Latino""]}","[0]"
"survey-multi-choice","205","1154473","0.0-202.0","p934043","pilot_test","emogo","test_session","emotion","mismatch","uniform","","","","","","","3685","","","","","","","","","","","","","","","","","","","","","","","{""education"":""Some college/ university""}","[0]"
"survey-text","206","2012156","0.0-203.0","p934043","pilot_test","emogo","test_session","emotion","mismatch","uniform","","","","","","","857679","","","","","","","","","","","","","","","","","","","","","","","{""patterns"":""For the first half, there seemed to be one of four expressions in each photo, randomized between four faces: happiness, excitedness or extreme happiness, disgust, and anger. I believe the angry expression on any face yielded the most points each round. During the second half, there was also one of four expressions in each photo, cycled through the different faces: mild surprise, extreme surprise, neutrality, and sadness. This time, I believe one face, rather than one expression, yielded the most points (the white male). Also, throughout the game, I believe that the photo that yielded the most amount of stars yielded a different amount per round, such that the most stars possible one round could be 10, when the next round it could be only 6."",""strategy"":""In the first half, I tried to test the different expressions on each face, seeing if perhaps certain expressions on certain individual's faces were worth more than others (i.e. if the man's angry face was worth more than the same man's disgusted, but the same wasn't true for the woman). It took some time to recognize that one expression was worth more than the others (regardless of source) because the max pot per round seemed to change; I thought perhaps 10 stars could only be achieved through a certain combination of expression and individual. Eventually, I saw that all non-angry expressions never yielded 7-10 coins, so I gave up on them. In the second half, I tested each of the facial expressions on one individual; when they all came back low-scoring, I tried another individual, and realized every time I selected him I got six stars or more, so I just continued to select him."",""comments"":""""}",""
