"trial_type","trial_index","time_elapsed","internal_node_id","subject","workerId","hitId","assignmentId","structure_condition","match_condition","noise_type","success","timeout","failed_images","failed_audio","failed_video","view_history","rt","start_time","end_time","stimuli","image1","image2","image3","image4","choiceLocation","choiceImage","choiceEmotion","choiceModel","choice_index","reward_score","reward","reward_score_unadjusted","reward_image","score_after_trial","emotions","models","rewards","rewards_unadjusted","stimulus","response","question_order"
"pavlovia","0","6","0.0-0.0","p64209","pilot_test","emogo","test_session","model","match","uniform","","","","","","","","","","","","","","","","","","","","","","","","","","","","","","",""
"preload","1","2909","0.0-1.0","p64209","pilot_test","emogo","test_session","model","match","uniform","true","false","[]","[]","[]","","","","","","","","","","","","","","","","","","","","","","","","","",""
"fullscreen","2","5440","0.0-2.0","p64209","pilot_test","emogo","test_session","model","match","uniform","true","","","","","","","","","","","","","","","","","","","","","","","","","","","","","",""
"instructions","3","7951","0.0-3.0","p64209","pilot_test","emogo","test_session","model","match","uniform","","","","","","[{""page_index"":0,""viewing_time"":2508}]","2508","","","","","","","","","","","","","","","","","","","","","","","",""
"explore-choice","4","10303","0.0-4.0","p64209","pilot_test","emogo","test_session","model","match","uniform","","","","","","","1849","9558","11407","[""stimuli/sheep.jpg"",""stimuli/hammer.jpg"",""stimuli/basketball.jpg"",""stimuli/horse.jpg""]","stimuli/sheep.jpg","stimuli/hammer.jpg","stimuli/basketball.jpg","stimuli/horse.jpg","pos4","stimuli/horse.jpg","","","3","64","64","64","stimuli/stars_8.png","65","","","","","","",""
"explore-choice","5","12235","0.0-5.0","p64209","pilot_test","emogo","test_session","model","match","uniform","","","","","","","1429","11911","13340","[""stimuli/hammer.jpg"",""stimuli/basketball.jpg"",""stimuli/horse.jpg"",""stimuli/sheep.jpg""]","stimuli/hammer.jpg","stimuli/basketball.jpg","stimuli/horse.jpg","stimuli/sheep.jpg","pos1","stimuli/hammer.jpg","","","0","8","8","8","stimuli/stars_2.png","9","","","","","","",""
"instructions","6","29186","0.0-6.0","p64209","pilot_test","emogo","test_session","model","match","uniform","","","","","","[{""page_index"":0,""viewing_time"":16949}]","16949","","","","","","","","","","","","","","","","","","","","","","","",""
"explore-choice","7","32835","0.0-7.0","p64209","pilot_test","emogo","test_session","model","match","uniform","","","","","","","3147","30793","33940","[""stimuli/BM16_SC.jpg"",""stimuli/HF10_FO.jpg"",""stimuli/BM04_HO.jpg"",""stimuli/HM10_SUR.jpg""]","stimuli/BM16_SC.jpg","stimuli/HF10_FO.jpg","stimuli/BM04_HO.jpg","stimuli/HM10_SUR.jpg","pos3","stimuli/BM04_HO.jpg","HO","BM04","2","3","6","6","stimuli/stars_6.png","4","[""SC"",""FO"",""HO"",""SUR""]","[""BM16"",""HF10"",""BM04"",""HM10""]","[3,2,6,6]","[2,4,6,8]","","",""
"show-reward","8","34842","0.0-8.0","p64209","pilot_test","emogo","test_session","model","match","uniform","","","","","","","","34445","36448","","","","","","","","","","","","6","","stimuli/stars_6.png","4","","","","","stimuli/BM04_HO.jpg","",""
"explore-choice","9","37068","0.0-9.0","p64209","pilot_test","emogo","test_session","model","match","uniform","","","","","","","1723","36450","38173","[""stimuli/BM16_HO.jpg"",""stimuli/HF10_FO.jpg"",""stimuli/BM04_SUR.jpg"",""stimuli/HM10_SC.jpg""]","stimuli/BM16_HO.jpg","stimuli/HF10_FO.jpg","stimuli/BM04_SUR.jpg","stimuli/HM10_SC.jpg","pos1","stimuli/BM16_HO.jpg","HO","BM16","0","0","0","2","stimuli/stars_0.png","4","[""HO"",""FO"",""SUR"",""SC""]","[""BM16"",""HF10"",""BM04"",""HM10""]","[0,2,6,10]","[2,4,6,8]","","",""
"show-reward","10","39074","0.0-10.0","p64209","pilot_test","emogo","test_session","model","match","uniform","","","","","","","","38676","40680","","","","","","","","","","","","0","","stimuli/stars_0.png","4","","","","","stimuli/BM16_HO.jpg","",""
"explore-choice","11","41067","0.0-11.0","p64209","pilot_test","emogo","test_session","model","match","uniform","","","","","","","1491","40682","42173","[""stimuli/BM16_HO.jpg"",""stimuli/HM10_FO.jpg"",""stimuli/BM04_SC.jpg"",""stimuli/HF10_SUR.jpg""]","stimuli/BM16_HO.jpg","stimuli/HM10_FO.jpg","stimuli/BM04_SC.jpg","stimuli/HF10_SUR.jpg","pos3","stimuli/BM04_SC.jpg","SC","BM04","2","2","4","6","stimuli/stars_4.png","6","[""HO"",""FO"",""SC"",""SUR""]","[""BM16"",""HM10"",""BM04"",""HF10""]","[1,8,4,6]","[2,8,6,4]","","",""
"show-reward","12","43073","0.0-12.0","p64209","pilot_test","emogo","test_session","model","match","uniform","","","","","","","","42675.00000000001","44679","","","","","","","","","","","","4","","stimuli/stars_4.png","6","","","","","stimuli/BM04_SC.jpg","",""
"explore-choice","13","44469","0.0-13.0","p64209","pilot_test","emogo","test_session","model","match","uniform","","","","","","","894","44680","45574","[""stimuli/BM16_FO.jpg"",""stimuli/HM10_HO.jpg"",""stimuli/BM04_SC.jpg"",""stimuli/HF10_SUR.jpg""]","stimuli/BM16_FO.jpg","stimuli/HM10_HO.jpg","stimuli/BM04_SC.jpg","stimuli/HF10_SUR.jpg","pos4","stimuli/HF10_SUR.jpg","SUR","HF10","3","2.5","5","4","stimuli/stars_5.png","8.5","[""FO"",""HO"",""SC"",""SUR""]","[""BM16"",""HM10"",""BM04"",""HF10""]","[0,8,4,5]","[2,8,6,4]","","",""
"show-reward","14","46474","0.0-14.0","p64209","pilot_test","emogo","test_session","model","match","uniform","","","","","","","","46078","48080","","","","","","","","","","","","5","","stimuli/stars_5.png","8.5","","","","","stimuli/HF10_SUR.jpg","",""
"explore-choice","15","48485","0.0-15.0","p64209","pilot_test","emogo","test_session","model","match","uniform","","","","","","","1508","48082","49590","[""stimuli/HM10_HO.jpg"",""stimuli/BM16_SC.jpg"",""stimuli/BM04_SUR.jpg"",""stimuli/HF10_FO.jpg""]","stimuli/HM10_HO.jpg","stimuli/BM16_SC.jpg","stimuli/BM04_SUR.jpg","stimuli/HF10_FO.jpg","pos1","stimuli/HM10_HO.jpg","HO","HM10","0","3","6","8","stimuli/stars_6.png","11.5","[""HO"",""SC"",""SUR"",""FO""]","[""HM10"",""BM16"",""BM04"",""HF10""]","[6,3,7,6]","[8,2,6,4]","","",""
"show-reward","16","50490","0.0-16.0","p64209","pilot_test","emogo","test_session","model","match","uniform","","","","","","","","50094","52096","","","","","","","","","","","","6","","stimuli/stars_6.png","11.5","","","","","stimuli/HM10_HO.jpg","",""
"explore-choice","17","52419","0.0-17.0","p64209","pilot_test","emogo","test_session","model","match","uniform","","","","","","","1427","52098","53525","[""stimuli/HM10_HO.jpg"",""stimuli/BM16_SUR.jpg"",""stimuli/BM04_SC.jpg"",""stimuli/HF10_FO.jpg""]","stimuli/HM10_HO.jpg","stimuli/BM16_SUR.jpg","stimuli/BM04_SC.jpg","stimuli/HF10_FO.jpg","pos1","stimuli/HM10_HO.jpg","HO","HM10","0","4.5","9","8","stimuli/stars_9.png","16","[""HO"",""SUR"",""SC"",""FO""]","[""HM10"",""BM16"",""BM04"",""HF10""]","[9,0,8,2]","[8,2,6,4]","","",""
"show-reward","18","54424","0.0-18.0","p64209","pilot_test","emogo","test_session","model","match","uniform","","","","","","","","54028","56030","","","","","","","","","","","","9","","stimuli/stars_9.png","16","","","","","stimuli/HM10_HO.jpg","",""
"explore-choice","19","56417","0.0-19.0","p64209","pilot_test","emogo","test_session","model","match","uniform","","","","","","","1491","56032","57523","[""stimuli/HF10_SC.jpg"",""stimuli/BM16_FO.jpg"",""stimuli/BM04_SUR.jpg"",""stimuli/HM10_HO.jpg""]","stimuli/HF10_SC.jpg","stimuli/BM16_FO.jpg","stimuli/BM04_SUR.jpg","stimuli/HM10_HO.jpg","pos4","stimuli/HM10_HO.jpg","HO","HM10","3","3.5","7","8","stimuli/stars_7.png","19.5","[""SC"",""FO"",""SUR"",""HO""]","[""HF10"",""BM16"",""BM04"",""HM10""]","[4,2,8,7]","[4,2,6,8]","","",""
"show-reward","20","58423","0.0-20.0","p64209","pilot_test","emogo","test_session","model","match","uniform","","","","","","","","58026","60029","","","","","","","","","","","","7","","stimuli/stars_7.png","19.5","","","","","stimuli/HM10_HO.jpg","",""
"explore-choice","21","60100","0.0-21.0","p64209","pilot_test","emogo","test_session","model","match","uniform","","","","","","","1176","60030","61206","[""stimuli/BM16_FO.jpg"",""stimuli/BM04_HO.jpg"",""stimuli/HF10_SC.jpg"",""stimuli/HM10_SUR.jpg""]","stimuli/BM16_FO.jpg","stimuli/BM04_HO.jpg","stimuli/HF10_SC.jpg","stimuli/HM10_SUR.jpg","pos2","stimuli/BM04_HO.jpg","HO","BM04","1","4","8","6","stimuli/stars_8.png","23.5","[""FO"",""HO"",""SC"",""SUR""]","[""BM16"",""BM04"",""HF10"",""HM10""]","[0,8,3,10]","[2,6,4,8]","","",""
"show-reward","22","62105","0.0-22.0","p64209","pilot_test","emogo","test_session","model","match","uniform","","","","","","","","61709","63711","","","","","","","","","","","","8","","stimuli/stars_8.png","23.5","","","","","stimuli/BM04_HO.jpg","",""
"explore-choice","23","63802","0.0-23.0","p64209","pilot_test","emogo","test_session","model","match","uniform","","","","","","","1194","63713","64907","[""stimuli/HM10_HO.jpg"",""stimuli/HF10_SC.jpg"",""stimuli/BM04_FO.jpg"",""stimuli/BM16_SUR.jpg""]","stimuli/HM10_HO.jpg","stimuli/HF10_SC.jpg","stimuli/BM04_FO.jpg","stimuli/BM16_SUR.jpg","pos1","stimuli/HM10_HO.jpg","HO","HM10","0","4.5","9","8","stimuli/stars_9.png","28","[""HO"",""SC"",""FO"",""SUR""]","[""HM10"",""HF10"",""BM04"",""BM16""]","[9,5,8,3]","[8,4,6,2]","","",""
"show-reward","24","65807","0.0-24.0","p64209","pilot_test","emogo","test_session","model","match","uniform","","","","","","","","65411","67413","","","","","","","","","","","","9","","stimuli/stars_9.png","28","","","","","stimuli/HM10_HO.jpg","",""
"explore-choice","25","67202","0.0-25.0","p64209","pilot_test","emogo","test_session","model","match","uniform","","","","","","","892","67415","68307","[""stimuli/BM16_SC.jpg"",""stimuli/HF10_HO.jpg"",""stimuli/BM04_FO.jpg"",""stimuli/HM10_SUR.jpg""]","stimuli/BM16_SC.jpg","stimuli/HF10_HO.jpg","stimuli/BM04_FO.jpg","stimuli/HM10_SUR.jpg","pos2","stimuli/HF10_HO.jpg","HO","HF10","1","3","6","4","stimuli/stars_6.png","31","[""SC"",""HO"",""FO"",""SUR""]","[""BM16"",""HF10"",""BM04"",""HM10""]","[2,6,6,9]","[2,4,6,8]","","",""
"show-reward","26","69206","0.0-26.0","p64209","pilot_test","emogo","test_session","model","match","uniform","","","","","","","","68810","70812","","","","","","","","","","","","6","","stimuli/stars_6.png","31","","","","","stimuli/HF10_HO.jpg","",""
"explore-choice","27","71168","0.0-27.0","p64209","pilot_test","emogo","test_session","model","match","uniform","","","","","","","1460","70814","72274","[""stimuli/BM16_HO.jpg"",""stimuli/BM04_FO.jpg"",""stimuli/HM10_SUR.jpg"",""stimuli/HF10_SC.jpg""]","stimuli/BM16_HO.jpg","stimuli/BM04_FO.jpg","stimuli/HM10_SUR.jpg","stimuli/HF10_SC.jpg","pos1","stimuli/BM16_HO.jpg","HO","BM16","0","2","4","2","stimuli/stars_4.png","33","[""HO"",""FO"",""SUR"",""SC""]","[""BM16"",""BM04"",""HM10"",""HF10""]","[4,7,8,2]","[2,6,8,4]","","",""
"show-reward","28","73173","0.0-28.0","p64209","pilot_test","emogo","test_session","model","match","uniform","","","","","","","","72777","74780","","","","","","","","","","","","4","","stimuli/stars_4.png","33","","","","","stimuli/BM16_HO.jpg","",""
"explore-choice","29","74850","0.0-29.0","p64209","pilot_test","emogo","test_session","model","match","uniform","","","","","","","1174","74781","75955","[""stimuli/BM04_SUR.jpg"",""stimuli/BM16_HO.jpg"",""stimuli/HM10_FO.jpg"",""stimuli/HF10_SC.jpg""]","stimuli/BM04_SUR.jpg","stimuli/BM16_HO.jpg","stimuli/HM10_FO.jpg","stimuli/HF10_SC.jpg","pos3","stimuli/HM10_FO.jpg","FO","HM10","2","3","6","8","stimuli/stars_6.png","36","[""SUR"",""HO"",""FO"",""SC""]","[""BM04"",""BM16"",""HM10"",""HF10""]","[7,0,6,3]","[6,2,8,4]","","",""
"show-reward","30","76854","0.0-30.0","p64209","pilot_test","emogo","test_session","model","match","uniform","","","","","","","","76458","78461","","","","","","","","","","","","6","","stimuli/stars_6.png","36","","","","","stimuli/HM10_FO.jpg","",""
"explore-choice","31","79168","0.0-31.0","p64209","pilot_test","emogo","test_session","model","match","uniform","","","","","","","1811","78462","80273","[""stimuli/HF10_HO.jpg"",""stimuli/BM04_SUR.jpg"",""stimuli/HM10_FO.jpg"",""stimuli/BM16_SC.jpg""]","stimuli/HF10_HO.jpg","stimuli/BM04_SUR.jpg","stimuli/HM10_FO.jpg","stimuli/BM16_SC.jpg","pos1","stimuli/HF10_HO.jpg","HO","HF10","0","1","2","4","stimuli/stars_2.png","37","[""HO"",""SUR"",""FO"",""SC""]","[""HF10"",""BM04"",""HM10"",""BM16""]","[2,4,10,0]","[4,6,8,2]","","",""
"show-reward","32","81173","0.0-32.0","p64209","pilot_test","emogo","test_session","model","match","uniform","","","","","","","","80777","82780","","","","","","","","","","","","2","","stimuli/stars_2.png","37","","","","","stimuli/HF10_HO.jpg","",""
"explore-choice","33","83067","0.0-33.0","p64209","pilot_test","emogo","test_session","model","match","uniform","","","","","","","1390","82782","84172","[""stimuli/BM16_HO.jpg"",""stimuli/HF10_FO.jpg"",""stimuli/HM10_SUR.jpg"",""stimuli/BM04_SC.jpg""]","stimuli/BM16_HO.jpg","stimuli/HF10_FO.jpg","stimuli/HM10_SUR.jpg","stimuli/BM04_SC.jpg","pos4","stimuli/BM04_SC.jpg","SC","BM04","3","3","6","6","stimuli/stars_6.png","40","[""HO"",""FO"",""SUR"",""SC""]","[""BM16"",""HF10"",""HM10"",""BM04""]","[4,3,10,6]","[2,4,8,6]","","",""
"show-reward","34","85071","0.0-34.0","p64209","pilot_test","emogo","test_session","model","match","uniform","","","","","","","","84675","86677","","","","","","","","","","","","6","","stimuli/stars_6.png","40","","","","","stimuli/BM04_SC.jpg","",""
"explore-choice","35","87450","0.0-35.0","p64209","pilot_test","emogo","test_session","model","match","uniform","","","","","","","1877","86679","88556","[""stimuli/BM16_FO.jpg"",""stimuli/HM10_SUR.jpg"",""stimuli/BM04_SC.jpg"",""stimuli/HF10_HO.jpg""]","stimuli/BM16_FO.jpg","stimuli/HM10_SUR.jpg","stimuli/BM04_SC.jpg","stimuli/HF10_HO.jpg","pos3","stimuli/BM04_SC.jpg","SC","BM04","2","2.5","5","6","stimuli/stars_5.png","42.5","[""FO"",""SUR"",""SC"",""HO""]","[""BM16"",""HM10"",""BM04"",""HF10""]","[3,7,5,3]","[2,8,6,4]","","",""
"show-reward","36","89455","0.0-36.0","p64209","pilot_test","emogo","test_session","model","match","uniform","","","","","","","","89059","91061","","","","","","","","","","","","5","","stimuli/stars_5.png","42.5","","","","","stimuli/BM04_SC.jpg","",""
"explore-choice","37","91949","0.0-37.0","p64209","pilot_test","emogo","test_session","model","match","uniform","","","","","","","1992","91063","93055","[""stimuli/BM04_HO.jpg"",""stimuli/BM16_SUR.jpg"",""stimuli/HF10_SC.jpg"",""stimuli/HM10_FO.jpg""]","stimuli/BM04_HO.jpg","stimuli/BM16_SUR.jpg","stimuli/HF10_SC.jpg","stimuli/HM10_FO.jpg","pos3","stimuli/HF10_SC.jpg","SC","HF10","2","2","4","4","stimuli/stars_4.png","44.5","[""HO"",""SUR"",""SC"",""FO""]","[""BM04"",""BM16"",""HF10"",""HM10""]","[7,2,4,9]","[6,2,4,8]","","",""
"show-reward","38","93952","0.0-38.0","p64209","pilot_test","emogo","test_session","model","match","uniform","","","","","","","","93557","95559","","","","","","","","","","","","4","","stimuli/stars_4.png","44.5","","","","","stimuli/HF10_SC.jpg","",""
"explore-choice","39","95650","0.0-39.0","p64209","pilot_test","emogo","test_session","model","match","uniform","","","","","","","1195","95560","96755","[""stimuli/HM10_SC.jpg"",""stimuli/BM16_FO.jpg"",""stimuli/BM04_HO.jpg"",""stimuli/HF10_SUR.jpg""]","stimuli/HM10_SC.jpg","stimuli/BM16_FO.jpg","stimuli/BM04_HO.jpg","stimuli/HF10_SUR.jpg","pos1","stimuli/HM10_SC.jpg","SC","HM10","0","3.5","7","8","stimuli/stars_7.png","48","[""SC"",""FO"",""HO"",""SUR""]","[""HM10"",""BM16"",""BM04"",""HF10""]","[7,4,4,2]","[8,2,6,4]","","",""
"show-reward","40","97655","0.0-40.0","p64209","pilot_test","emogo","test_session","model","match","uniform","","","","","","","","97259","99261","","","","","","","","","","","","7","","stimuli/stars_7.png","48","","","","","stimuli/HM10_SC.jpg","",""
"explore-choice","41","100100","0.0-41.0","p64209","pilot_test","emogo","test_session","model","match","uniform","","","","","","","1943","99263","101206","[""stimuli/HF10_FO.jpg"",""stimuli/BM04_HO.jpg"",""stimuli/BM16_SUR.jpg"",""stimuli/HM10_SC.jpg""]","stimuli/HF10_FO.jpg","stimuli/BM04_HO.jpg","stimuli/BM16_SUR.jpg","stimuli/HM10_SC.jpg","pos3","stimuli/BM16_SUR.jpg","SUR","BM16","2","1.5","3","2","stimuli/stars_3.png","49.5","[""FO"",""HO"",""SUR"",""SC""]","[""HF10"",""BM04"",""BM16"",""HM10""]","[3,6,3,6]","[4,6,2,8]","","",""
"show-reward","42","102106","0.0-42.0","p64209","pilot_test","emogo","test_session","model","match","uniform","","","","","","","","101709","103712","","","","","","","","","","","","3","","stimuli/stars_3.png","49.5","","","","","stimuli/BM16_SUR.jpg","",""
"explore-choice","43","103750","0.0-43.0","p64209","pilot_test","emogo","test_session","model","match","uniform","","","","","","","1142.0000000000146","103714","104856.00000000001","[""stimuli/BM16_SUR.jpg"",""stimuli/HF10_HO.jpg"",""stimuli/HM10_FO.jpg"",""stimuli/BM04_SC.jpg""]","stimuli/BM16_SUR.jpg","stimuli/HF10_HO.jpg","stimuli/HM10_FO.jpg","stimuli/BM04_SC.jpg","pos2","stimuli/HF10_HO.jpg","HO","HF10","1","2.5","5","4","stimuli/stars_5.png","52","[""SUR"",""HO"",""FO"",""SC""]","[""BM16"",""HF10"",""HM10"",""BM04""]","[1,5,7,5]","[2,4,8,6]","","",""
"show-reward","44","105753","0.0-44.0","p64209","pilot_test","emogo","test_session","model","match","uniform","","","","","","","","105358","107360","","","","","","","","","","","","5","","stimuli/stars_5.png","52","","","","","stimuli/HF10_HO.jpg","",""
"explore-choice","45","109267","0.0-45.0","p64209","pilot_test","emogo","test_session","model","match","uniform","","","","","","","3012","107361","110373","[""stimuli/HF10_HO.jpg"",""stimuli/BM16_FO.jpg"",""stimuli/BM04_SUR.jpg"",""stimuli/HM10_SC.jpg""]","stimuli/HF10_HO.jpg","stimuli/BM16_FO.jpg","stimuli/BM04_SUR.jpg","stimuli/HM10_SC.jpg","pos4","stimuli/HM10_SC.jpg","SC","HM10","3","5","10","8","stimuli/stars_10.png","57","[""HO"",""FO"",""SUR"",""SC""]","[""HF10"",""BM16"",""BM04"",""HM10""]","[5,3,6,10]","[4,2,6,8]","","",""
"show-reward","46","111270","0.0-46.0","p64209","pilot_test","emogo","test_session","model","match","uniform","","","","","","","","110875","112877","","","","","","","","","","","","10","","stimuli/stars_10.png","57","","","","","stimuli/HM10_SC.jpg","",""
"explore-choice","47","118550","0.0-47.0","p64209","pilot_test","emogo","test_session","model","match","uniform","","","","","","","6776","112879","119655","[""stimuli/BM16_SC.jpg"",""stimuli/HM10_FO.jpg"",""stimuli/HF10_SUR.jpg"",""stimuli/BM04_HO.jpg""]","stimuli/BM16_SC.jpg","stimuli/HM10_FO.jpg","stimuli/HF10_SUR.jpg","stimuli/BM04_HO.jpg","pos3","stimuli/HF10_SUR.jpg","SUR","HF10","2","2","4","4","stimuli/stars_4.png","59","[""SC"",""FO"",""SUR"",""HO""]","[""BM16"",""HM10"",""HF10"",""BM04""]","[2,7,4,5]","[2,8,4,6]","","",""
"show-reward","48","120554","0.0-48.0","p64209","pilot_test","emogo","test_session","model","match","uniform","","","","","","","","120159","122161","","","","","","","","","","","","4","","stimuli/stars_4.png","59","","","","","stimuli/HF10_SUR.jpg","",""
"explore-choice","49","121615","0.0-49.0","p64209","pilot_test","emogo","test_session","model","match","uniform","","","","","","","558","122163","122721","[""stimuli/HF10_SUR.jpg"",""stimuli/HM10_HO.jpg"",""stimuli/BM16_SC.jpg"",""stimuli/BM04_FO.jpg""]","stimuli/HF10_SUR.jpg","stimuli/HM10_HO.jpg","stimuli/BM16_SC.jpg","stimuli/BM04_FO.jpg","pos1","stimuli/HF10_SUR.jpg","SUR","HF10","0","2","4","4","stimuli/stars_4.png","61","[""SUR"",""HO"",""SC"",""FO""]","[""HF10"",""HM10"",""BM16"",""BM04""]","[4,8,4,8]","[4,8,2,6]","","",""
"show-reward","50","123619","0.0-50.0","p64209","pilot_test","emogo","test_session","model","match","uniform","","","","","","","","123224","125226","","","","","","","","","","","","4","","stimuli/stars_4.png","61","","","","","stimuli/HF10_SUR.jpg","",""
"explore-choice","51","124950","0.0-51.0","p64209","pilot_test","emogo","test_session","model","match","uniform","","","","","","","830","125226","126056","[""stimuli/HF10_HO.jpg"",""stimuli/BM16_SUR.jpg"",""stimuli/HM10_SC.jpg"",""stimuli/BM04_FO.jpg""]","stimuli/HF10_HO.jpg","stimuli/BM16_SUR.jpg","stimuli/HM10_SC.jpg","stimuli/BM04_FO.jpg","pos4","stimuli/BM04_FO.jpg","FO","BM04","3","2","4","6","stimuli/stars_4.png","63","[""HO"",""SUR"",""SC"",""FO""]","[""HF10"",""BM16"",""HM10"",""BM04""]","[6,3,10,4]","[4,2,8,6]","","",""
"show-reward","52","126955","0.0-52.0","p64209","pilot_test","emogo","test_session","model","match","uniform","","","","","","","","126559","128561","","","","","","","","","","","","4","","stimuli/stars_4.png","63","","","","","stimuli/BM04_FO.jpg","",""
"explore-choice","53","128565","0.0-53.0","p64209","pilot_test","emogo","test_session","model","match","uniform","","","","","","","1107.999999999971","128563.00000000001","129670.99999999999","[""stimuli/HM10_SC.jpg"",""stimuli/BM04_FO.jpg"",""stimuli/BM16_HO.jpg"",""stimuli/HF10_SUR.jpg""]","stimuli/HM10_SC.jpg","stimuli/BM04_FO.jpg","stimuli/BM16_HO.jpg","stimuli/HF10_SUR.jpg","pos2","stimuli/BM04_FO.jpg","FO","BM04","1","3.5","7","6","stimuli/stars_7.png","66.5","[""SC"",""FO"",""HO"",""SUR""]","[""HM10"",""BM04"",""BM16"",""HF10""]","[10,7,4,6]","[8,6,2,4]","","",""
"show-reward","54","130570","0.0-54.0","p64209","pilot_test","emogo","test_session","model","match","uniform","","","","","","","","130174","132176.00000000003","","","","","","","","","","","","7","","stimuli/stars_7.png","66.5","","","","","stimuli/BM04_FO.jpg","",""
"explore-choice","55","132216","0.0-55.0","p64209","pilot_test","emogo","test_session","model","match","uniform","","","","","","","1144","132178","133322","[""stimuli/BM16_FO.jpg"",""stimuli/HF10_HO.jpg"",""stimuli/HM10_SC.jpg"",""stimuli/BM04_SUR.jpg""]","stimuli/BM16_FO.jpg","stimuli/HF10_HO.jpg","stimuli/HM10_SC.jpg","stimuli/BM04_SUR.jpg","pos2","stimuli/HF10_HO.jpg","HO","HF10","1","2.5","5","4","stimuli/stars_5.png","69","[""FO"",""HO"",""SC"",""SUR""]","[""BM16"",""HF10"",""HM10"",""BM04""]","[3,5,10,6]","[2,4,8,6]","","",""
"show-reward","56","134220","0.0-56.0","p64209","pilot_test","emogo","test_session","model","match","uniform","","","","","","","","133825","135827","","","","","","","","","","","","5","","stimuli/stars_5.png","69","","","","","stimuli/HF10_HO.jpg","",""
"explore-choice","57","136083","0.0-57.0","p64209","pilot_test","emogo","test_session","model","match","uniform","","","","","","","1361","135828","137189","[""stimuli/BM16_SC.jpg"",""stimuli/HM10_SUR.jpg"",""stimuli/BM04_FO.jpg"",""stimuli/HF10_HO.jpg""]","stimuli/BM16_SC.jpg","stimuli/HM10_SUR.jpg","stimuli/BM04_FO.jpg","stimuli/HF10_HO.jpg","pos3","stimuli/BM04_FO.jpg","FO","BM04","2","3","6","6","stimuli/stars_6.png","72","[""SC"",""SUR"",""FO"",""HO""]","[""BM16"",""HM10"",""BM04"",""HF10""]","[2,9,6,6]","[2,8,6,4]","","",""
"show-reward","58","138088","0.0-58.0","p64209","pilot_test","emogo","test_session","model","match","uniform","","","","","","","","137692","139695","","","","","","","","","","","","6","","stimuli/stars_6.png","72","","","","","stimuli/BM04_FO.jpg","",""
"explore-choice","59","140433","0.0-59.0","p64209","pilot_test","emogo","test_session","model","match","uniform","","","","","","","1842.000000000029","139697","141539.00000000003","[""stimuli/HM10_HO.jpg"",""stimuli/BM16_FO.jpg"",""stimuli/BM04_SUR.jpg"",""stimuli/HF10_SC.jpg""]","stimuli/HM10_HO.jpg","stimuli/BM16_FO.jpg","stimuli/BM04_SUR.jpg","stimuli/HF10_SC.jpg","pos1","stimuli/HM10_HO.jpg","HO","HM10","0","3.5","7","8","stimuli/stars_7.png","75.5","[""HO"",""FO"",""SUR"",""SC""]","[""HM10"",""BM16"",""BM04"",""HF10""]","[7,2,8,4]","[8,2,6,4]","","",""
"show-reward","60","142438","0.0-60.0","p64209","pilot_test","emogo","test_session","model","match","uniform","","","","","","","","142042","144044","","","","","","","","","","","","7","","stimuli/stars_7.png","75.5","","","","","stimuli/HM10_HO.jpg","",""
"explore-choice","61","144481","0.0-61.0","p64209","pilot_test","emogo","test_session","model","match","uniform","","","","","","","1541","144046","145587","[""stimuli/BM04_SUR.jpg"",""stimuli/BM16_SC.jpg"",""stimuli/HM10_HO.jpg"",""stimuli/HF10_FO.jpg""]","stimuli/BM04_SUR.jpg","stimuli/BM16_SC.jpg","stimuli/HM10_HO.jpg","stimuli/HF10_FO.jpg","pos1","stimuli/BM04_SUR.jpg","SUR","BM04","0","3.5","7","6","stimuli/stars_7.png","79","[""SUR"",""SC"",""HO"",""FO""]","[""BM04"",""BM16"",""HM10"",""HF10""]","[7,3,6,6]","[6,2,8,4]","","",""
"show-reward","62","146485","0.0-62.0","p64209","pilot_test","emogo","test_session","model","match","uniform","","","","","","","","146090","148092","","","","","","","","","","","","7","","stimuli/stars_7.png","79","","","","","stimuli/BM04_SUR.jpg","",""
"explore-choice","63","148514","0.0-63.0","p64209","pilot_test","emogo","test_session","model","match","uniform","","","","","","","1527","148094","149621","[""stimuli/HM10_FO.jpg"",""stimuli/BM04_HO.jpg"",""stimuli/HF10_SC.jpg"",""stimuli/BM16_SUR.jpg""]","stimuli/HM10_FO.jpg","stimuli/BM04_HO.jpg","stimuli/HF10_SC.jpg","stimuli/BM16_SUR.jpg","pos4","stimuli/BM16_SUR.jpg","SUR","BM16","3","1","2","2","stimuli/stars_2.png","80","[""FO"",""HO"",""SC"",""SUR""]","[""HM10"",""BM04"",""HF10"",""BM16""]","[9,7,4,2]","[8,6,4,2]","","",""
"show-reward","64","150518","0.0-64.0","p64209","pilot_test","emogo","test_session","model","match","uniform","","","","","","","","150123","152126","","","","","","","","","","","","2","","stimuli/stars_2.png","80","","","","","stimuli/BM16_SUR.jpg","",""
"explore-choice","65","152399","0.0-65.0","p64209","pilot_test","emogo","test_session","model","match","uniform","","","","","","","1379","152126","153505","[""stimuli/HM10_SC.jpg"",""stimuli/HF10_FO.jpg"",""stimuli/BM16_SUR.jpg"",""stimuli/BM04_HO.jpg""]","stimuli/HM10_SC.jpg","stimuli/HF10_FO.jpg","stimuli/BM16_SUR.jpg","stimuli/BM04_HO.jpg","pos1","stimuli/HM10_SC.jpg","SC","HM10","0","3","6","8","stimuli/stars_6.png","83","[""SC"",""FO"",""SUR"",""HO""]","[""HM10"",""HF10"",""BM16"",""BM04""]","[6,3,3,6]","[8,4,2,6]","","",""
"show-reward","66","154403","0.0-66.0","p64209","pilot_test","emogo","test_session","model","match","uniform","","","","","","","","154008","156010","","","","","","","","","","","","6","","stimuli/stars_6.png","83","","","","","stimuli/HM10_SC.jpg","",""
"explore-choice","67","156215","0.0-67.0","p64209","pilot_test","emogo","test_session","model","match","uniform","","","","","","","1309","156012","157321","[""stimuli/BM04_SUR.jpg"",""stimuli/HM10_SC.jpg"",""stimuli/BM16_HO.jpg"",""stimuli/HF10_FO.jpg""]","stimuli/BM04_SUR.jpg","stimuli/HM10_SC.jpg","stimuli/BM16_HO.jpg","stimuli/HF10_FO.jpg","pos2","stimuli/HM10_SC.jpg","SC","HM10","1","5","10","8","stimuli/stars_10.png","88","[""SUR"",""SC"",""HO"",""FO""]","[""BM04"",""HM10"",""BM16"",""HF10""]","[6,10,0,2]","[6,8,2,4]","","",""
"show-reward","68","158220","0.0-68.0","p64209","pilot_test","emogo","test_session","model","match","uniform","","","","","","","","157824","159827","","","","","","","","","","","","10","","stimuli/stars_10.png","88","","","","","stimuli/HM10_SC.jpg","",""
"explore-choice","69","160167","0.0-69.0","p64209","pilot_test","emogo","test_session","model","match","uniform","","","","","","","1444","159829","161273","[""stimuli/BM04_SC.jpg"",""stimuli/BM16_HO.jpg"",""stimuli/HF10_SUR.jpg"",""stimuli/HM10_FO.jpg""]","stimuli/BM04_SC.jpg","stimuli/BM16_HO.jpg","stimuli/HF10_SUR.jpg","stimuli/HM10_FO.jpg","pos2","stimuli/BM16_HO.jpg","HO","BM16","1","0.5","1","2","stimuli/stars_1.png","88.5","[""SC"",""HO"",""SUR"",""FO""]","[""BM04"",""BM16"",""HF10"",""HM10""]","[4,1,6,8]","[6,2,4,8]","","",""
"show-reward","70","162172","0.0-70.0","p64209","pilot_test","emogo","test_session","model","match","uniform","","","","","","","","161777.00000000003","163779","","","","","","","","","","","","1","","stimuli/stars_1.png","88.5","","","","","stimuli/BM16_HO.jpg","",""
"explore-choice","71","163697","0.0-71.0","p64209","pilot_test","emogo","test_session","model","match","uniform","","","","","","","1022","163781","164803","[""stimuli/BM04_SC.jpg"",""stimuli/HF10_SUR.jpg"",""stimuli/HM10_HO.jpg"",""stimuli/BM16_FO.jpg""]","stimuli/BM04_SC.jpg","stimuli/HF10_SUR.jpg","stimuli/HM10_HO.jpg","stimuli/BM16_FO.jpg","pos4","stimuli/BM16_FO.jpg","FO","BM16","3","0","0","2","stimuli/stars_0.png","88.5","[""SC"",""SUR"",""HO"",""FO""]","[""BM04"",""HF10"",""HM10"",""BM16""]","[4,5,8,0]","[6,4,8,2]","","",""
"show-reward","72","165702","0.0-72.0","p64209","pilot_test","emogo","test_session","model","match","uniform","","","","","","","","165306","167309","","","","","","","","","","","","0","","stimuli/stars_0.png","88.5","","","","","stimuli/BM16_FO.jpg","",""
"explore-choice","73","167216","0.0-73.0","p64209","pilot_test","emogo","test_session","model","match","uniform","","","","","","","1010","167311","168321","[""stimuli/BM16_SUR.jpg"",""stimuli/HF10_SC.jpg"",""stimuli/HM10_HO.jpg"",""stimuli/BM04_FO.jpg""]","stimuli/BM16_SUR.jpg","stimuli/HF10_SC.jpg","stimuli/HM10_HO.jpg","stimuli/BM04_FO.jpg","pos1","stimuli/BM16_SUR.jpg","SUR","BM16","0","1.5","3","2","stimuli/stars_3.png","90","[""SUR"",""SC"",""HO"",""FO""]","[""BM16"",""HF10"",""HM10"",""BM04""]","[3,5,9,8]","[2,4,8,6]","","",""
"show-reward","74","169220","0.0-74.0","p64209","pilot_test","emogo","test_session","model","match","uniform","","","","","","","","168825.00000000003","170827","","","","","","","","","","","","3","","stimuli/stars_3.png","90","","","","","stimuli/BM16_SUR.jpg","",""
"explore-choice","75","170846","0.0-75.0","p64209","pilot_test","emogo","test_session","model","match","uniform","","","","","","","1124","170829","171953","[""stimuli/BM16_HO.jpg"",""stimuli/BM04_SUR.jpg"",""stimuli/HF10_SC.jpg"",""stimuli/HM10_FO.jpg""]","stimuli/BM16_HO.jpg","stimuli/BM04_SUR.jpg","stimuli/HF10_SC.jpg","stimuli/HM10_FO.jpg","pos3","stimuli/HF10_SC.jpg","SC","HF10","2","1.5","3","4","stimuli/stars_3.png","91.5","[""HO"",""SUR"",""SC"",""FO""]","[""BM16"",""BM04"",""HF10"",""HM10""]","[0,7,3,6]","[2,6,4,8]","","",""
"show-reward","76","172851","0.0-76.0","p64209","pilot_test","emogo","test_session","model","match","uniform","","","","","","","","172455","174458","","","","","","","","","","","","3","","stimuli/stars_3.png","91.5","","","","","stimuli/HF10_SC.jpg","",""
"explore-choice","77","174080","0.0-77.0","p64209","pilot_test","emogo","test_session","model","match","uniform","","","","","","","726","174460","175186","[""stimuli/HM10_SC.jpg"",""stimuli/BM04_FO.jpg"",""stimuli/BM16_SUR.jpg"",""stimuli/HF10_HO.jpg""]","stimuli/HM10_SC.jpg","stimuli/BM04_FO.jpg","stimuli/BM16_SUR.jpg","stimuli/HF10_HO.jpg","pos2","stimuli/BM04_FO.jpg","FO","BM04","1","2","4","6","stimuli/stars_4.png","93.5","[""SC"",""FO"",""SUR"",""HO""]","[""HM10"",""BM04"",""BM16"",""HF10""]","[10,4,3,6]","[8,6,2,4]","","",""
"show-reward","78","176086","0.0-78.0","p64209","pilot_test","emogo","test_session","model","match","uniform","","","","","","","","175690","177693","","","","","","","","","","","","4","","stimuli/stars_4.png","93.5","","","","","stimuli/BM04_FO.jpg","",""
"explore-choice","79","178964","0.0-79.0","p64209","pilot_test","emogo","test_session","model","match","uniform","","","","","","","2375.999999999971","177694.00000000003","180070","[""stimuli/HM10_FO.jpg"",""stimuli/HF10_HO.jpg"",""stimuli/BM04_SC.jpg"",""stimuli/BM16_SUR.jpg""]","stimuli/HM10_FO.jpg","stimuli/HF10_HO.jpg","stimuli/BM04_SC.jpg","stimuli/BM16_SUR.jpg","pos4","stimuli/BM16_SUR.jpg","SUR","BM16","3","0.5","1","2","stimuli/stars_1.png","94","[""FO"",""HO"",""SC"",""SUR""]","[""HM10"",""HF10"",""BM04"",""BM16""]","[7,5,5,1]","[8,4,6,2]","","",""
"show-reward","80","180969","0.0-80.0","p64209","pilot_test","emogo","test_session","model","match","uniform","","","","","","","","180574","182576","","","","","","","","","","","","1","","stimuli/stars_1.png","94","","","","","stimuli/BM16_SUR.jpg","",""
"explore-choice","81","182363","0.0-81.0","p64209","pilot_test","emogo","test_session","model","match","uniform","","","","","","","892","182578","183470","[""stimuli/BM16_FO.jpg"",""stimuli/HF10_SUR.jpg"",""stimuli/HM10_SC.jpg"",""stimuli/BM04_HO.jpg""]","stimuli/BM16_FO.jpg","stimuli/HF10_SUR.jpg","stimuli/HM10_SC.jpg","stimuli/BM04_HO.jpg","pos1","stimuli/BM16_FO.jpg","FO","BM16","0","2","4","2","stimuli/stars_4.png","96","[""FO"",""SUR"",""SC"",""HO""]","[""BM16"",""HF10"",""HM10"",""BM04""]","[4,2,7,4]","[2,4,8,6]","","",""
"show-reward","82","184368","0.0-82.0","p64209","pilot_test","emogo","test_session","model","match","uniform","","","","","","","","183973","185975","","","","","","","","","","","","4","","stimuli/stars_4.png","96","","","","","stimuli/BM16_FO.jpg","",""
"explore-choice","83","185880","0.0-83.0","p64209","pilot_test","emogo","test_session","model","match","uniform","","","","","","","1010","185977","186987","[""stimuli/HM10_SC.jpg"",""stimuli/HF10_SUR.jpg"",""stimuli/BM16_HO.jpg"",""stimuli/BM04_FO.jpg""]","stimuli/HM10_SC.jpg","stimuli/HF10_SUR.jpg","stimuli/BM16_HO.jpg","stimuli/BM04_FO.jpg","pos3","stimuli/BM16_HO.jpg","HO","BM16","2","2","4","2","stimuli/stars_4.png","98","[""SC"",""SUR"",""HO"",""FO""]","[""HM10"",""HF10"",""BM16"",""BM04""]","[10,6,4,7]","[8,4,2,6]","","",""
"show-reward","84","187884","0.0-84.0","p64209","pilot_test","emogo","test_session","model","match","uniform","","","","","","","","187489","189491","","","","","","","","","","","","4","","stimuli/stars_4.png","98","","","","","stimuli/BM16_HO.jpg","",""
"explore-choice","85","189729","0.0-85.0","p64209","pilot_test","emogo","test_session","model","match","uniform","","","","","","","1343","189493","190836","[""stimuli/BM04_FO.jpg"",""stimuli/BM16_HO.jpg"",""stimuli/HM10_SUR.jpg"",""stimuli/HF10_SC.jpg""]","stimuli/BM04_FO.jpg","stimuli/BM16_HO.jpg","stimuli/HM10_SUR.jpg","stimuli/HF10_SC.jpg","pos2","stimuli/BM16_HO.jpg","HO","BM16","1","2","4","2","stimuli/stars_4.png","100","[""FO"",""HO"",""SUR"",""SC""]","[""BM04"",""BM16"",""HM10"",""HF10""]","[7,4,8,2]","[6,2,8,4]","","",""
"show-reward","86","191733","0.0-86.0","p64209","pilot_test","emogo","test_session","model","match","uniform","","","","","","","","191338","193340","","","","","","","","","","","","4","","stimuli/stars_4.png","100","","","","","stimuli/BM16_HO.jpg","",""
"explore-choice","87","193546","0.0-87.0","p64209","pilot_test","emogo","test_session","model","match","uniform","","","","","","","1310.000000000029","193342","194652.00000000003","[""stimuli/HM10_SUR.jpg"",""stimuli/BM04_HO.jpg"",""stimuli/HF10_FO.jpg"",""stimuli/BM16_SC.jpg""]","stimuli/HM10_SUR.jpg","stimuli/BM04_HO.jpg","stimuli/HF10_FO.jpg","stimuli/BM16_SC.jpg","pos3","stimuli/HF10_FO.jpg","FO","HF10","2","1","2","4","stimuli/stars_2.png","101","[""SUR"",""HO"",""FO"",""SC""]","[""HM10"",""BM04"",""HF10"",""BM16""]","[6,6,2,3]","[8,6,4,2]","","",""
"show-reward","88","195550","0.0-88.0","p64209","pilot_test","emogo","test_session","model","match","uniform","","","","","","","","195156","197158.00000000003","","","","","","","","","","","","2","","stimuli/stars_2.png","101","","","","","stimuli/HF10_FO.jpg","",""
"explore-choice","89","196988","0.0-89.0","p64209","pilot_test","emogo","test_session","model","match","uniform","","","","","","","926.0000000000291","197161","198087.00000000003","[""stimuli/BM16_FO.jpg"",""stimuli/BM04_SC.jpg"",""stimuli/HF10_HO.jpg"",""stimuli/HM10_SUR.jpg""]","stimuli/BM16_FO.jpg","stimuli/BM04_SC.jpg","stimuli/HF10_HO.jpg","stimuli/HM10_SUR.jpg","pos1","stimuli/BM16_FO.jpg","FO","BM16","0","1.5","3","2","stimuli/stars_3.png","102.5","[""FO"",""SC"",""HO"",""SUR""]","[""BM16"",""BM04"",""HF10"",""HM10""]","[3,5,3,7]","[2,6,4,8]","","",""
"show-reward","90","198996","0.0-90.0","p64209","pilot_test","emogo","test_session","model","match","uniform","","","","","","","","198601","200602","","","","","","","","","","","","3","","stimuli/stars_3.png","102.5","","","","","stimuli/BM16_FO.jpg","",""
"explore-choice","91","200504","0.0-91.0","p64209","pilot_test","emogo","test_session","model","match","uniform","","","","","","","1002","200606","201608","[""stimuli/BM16_SC.jpg"",""stimuli/HF10_SUR.jpg"",""stimuli/HM10_FO.jpg"",""stimuli/BM04_HO.jpg""]","stimuli/BM16_SC.jpg","stimuli/HF10_SUR.jpg","stimuli/HM10_FO.jpg","stimuli/BM04_HO.jpg","pos4","stimuli/BM04_HO.jpg","HO","BM04","3","2.5","5","6","stimuli/stars_5.png","105","[""SC"",""SUR"",""FO"",""HO""]","[""BM16"",""HF10"",""HM10"",""BM04""]","[2,4,7,5]","[2,4,8,6]","","",""
"show-reward","92","202509","0.0-92.0","p64209","pilot_test","emogo","test_session","model","match","uniform","","","","","","","","202114","204117","","","","","","","","","","","","5","","stimuli/stars_5.png","105","","","","","stimuli/BM04_HO.jpg","",""
"explore-choice","93","204964","0.0-93.0","p64209","pilot_test","emogo","test_session","model","match","uniform","","","","","","","1952","204118","206070","[""stimuli/HM10_HO.jpg"",""stimuli/HF10_FO.jpg"",""stimuli/BM04_SC.jpg"",""stimuli/BM16_SUR.jpg""]","stimuli/HM10_HO.jpg","stimuli/HF10_FO.jpg","stimuli/BM04_SC.jpg","stimuli/BM16_SUR.jpg","pos3","stimuli/BM04_SC.jpg","SC","BM04","2","4","8","6","stimuli/stars_8.png","109","[""HO"",""FO"",""SC"",""SUR""]","[""HM10"",""HF10"",""BM04"",""BM16""]","[9,2,8,0]","[8,4,6,2]","","",""
"show-reward","94","206968","0.0-94.0","p64209","pilot_test","emogo","test_session","model","match","uniform","","","","","","","","206574","208576","","","","","","","","","","","","8","","stimuli/stars_8.png","109","","","","","stimuli/BM04_SC.jpg","",""
"explore-choice","95","208514","0.0-95.0","p64209","pilot_test","emogo","test_session","model","match","uniform","","","","","","","1044","208577","209621","[""stimuli/BM04_SUR.jpg"",""stimuli/HF10_HO.jpg"",""stimuli/BM16_SC.jpg"",""stimuli/HM10_FO.jpg""]","stimuli/BM04_SUR.jpg","stimuli/HF10_HO.jpg","stimuli/BM16_SC.jpg","stimuli/HM10_FO.jpg","pos1","stimuli/BM04_SUR.jpg","SUR","BM04","0","2","4","6","stimuli/stars_4.png","111","[""SUR"",""HO"",""SC"",""FO""]","[""BM04"",""HF10"",""BM16"",""HM10""]","[4,2,0,10]","[6,4,2,8]","","",""
"show-reward","96","210518","0.0-96.0","p64209","pilot_test","emogo","test_session","model","match","uniform","","","","","","","","210123","212125","","","","","","","","","","","","4","","stimuli/stars_4.png","111","","","","","stimuli/BM04_SUR.jpg","",""
"explore-choice","97","211696","0.0-97.0","p64209","pilot_test","emogo","test_session","model","match","uniform","","","","","","","676","212126","212802","[""stimuli/BM16_FO.jpg"",""stimuli/HF10_SC.jpg"",""stimuli/HM10_SUR.jpg"",""stimuli/BM04_HO.jpg""]","stimuli/BM16_FO.jpg","stimuli/HF10_SC.jpg","stimuli/HM10_SUR.jpg","stimuli/BM04_HO.jpg","pos3","stimuli/HM10_SUR.jpg","SUR","HM10","2","5","10","8","stimuli/stars_10.png","116","[""FO"",""SC"",""SUR"",""HO""]","[""BM16"",""HF10"",""HM10"",""BM04""]","[0,3,10,8]","[2,4,8,6]","","",""
"show-reward","98","213700","0.0-98.0","p64209","pilot_test","emogo","test_session","model","match","uniform","","","","","","","","213305","215307.00000000003","","","","","","","","","","","","10","","stimuli/stars_10.png","116","","","","","stimuli/HM10_SUR.jpg","",""
"explore-choice","99","215312","0.0-99.0","p64209","pilot_test","emogo","test_session","model","match","uniform","","","","","","","1111","215308","216419","[""stimuli/HM10_SUR.jpg"",""stimuli/BM04_SC.jpg"",""stimuli/BM16_HO.jpg"",""stimuli/HF10_FO.jpg""]","stimuli/HM10_SUR.jpg","stimuli/BM04_SC.jpg","stimuli/BM16_HO.jpg","stimuli/HF10_FO.jpg","pos2","stimuli/BM04_SC.jpg","SC","BM04","1","3","6","6","stimuli/stars_6.png","119","[""SUR"",""SC"",""HO"",""FO""]","[""HM10"",""BM04"",""BM16"",""HF10""]","[10,6,4,3]","[8,6,2,4]","","",""
"show-reward","100","217318","0.0-100.0","p64209","pilot_test","emogo","test_session","model","match","uniform","","","","","","","","216923","218925","","","","","","","","","","","","6","","stimuli/stars_6.png","119","","","","","stimuli/BM04_SC.jpg","",""
"explore-choice","101","218745","0.0-101.0","p64209","pilot_test","emogo","test_session","model","match","uniform","","","","","","","925","218927","219852","[""stimuli/HF10_SUR.jpg"",""stimuli/BM04_FO.jpg"",""stimuli/BM16_SC.jpg"",""stimuli/HM10_HO.jpg""]","stimuli/HF10_SUR.jpg","stimuli/BM04_FO.jpg","stimuli/BM16_SC.jpg","stimuli/HM10_HO.jpg","pos4","stimuli/HM10_HO.jpg","HO","HM10","3","4","8","8","stimuli/stars_8.png","123","[""SUR"",""FO"",""SC"",""HO""]","[""HF10"",""BM04"",""BM16"",""HM10""]","[4,8,4,8]","[4,6,2,8]","","",""
"show-reward","102","220750","0.0-102.0","p64209","pilot_test","emogo","test_session","model","match","uniform","","","","","","","","220354","222357","","","","","","","","","","","","8","","stimuli/stars_8.png","123","","","","","stimuli/HM10_HO.jpg","",""
"explore-choice","103","222479","0.0-103.0","p64209","pilot_test","emogo","test_session","model","match","uniform","","","","","","","1227","222359","223586","[""stimuli/BM03_AO.jpg"",""stimuli/AM05_HE.jpg"",""stimuli/AM09_CC.jpg"",""stimuli/WF04_DO.jpg""]","stimuli/BM03_AO.jpg","stimuli/AM05_HE.jpg","stimuli/AM09_CC.jpg","stimuli/WF04_DO.jpg","pos1","stimuli/BM03_AO.jpg","AO","BM03","0","1.5","3","4","stimuli/stars_3.png","124.5","[""AO"",""HE"",""CC"",""DO""]","[""BM03"",""AM05"",""AM09"",""WF04""]","[3,7,1,7]","[4,8,2,6]","","",""
"show-reward","104","224484","0.0-104.0","p64209","pilot_test","emogo","test_session","model","match","uniform","","","","","","","","224089","226091","","","","","","","","","","","","3","","stimuli/stars_3.png","124.5","","","","","stimuli/BM03_AO.jpg","",""
"explore-choice","105","226362","0.0-105.0","p64209","pilot_test","emogo","test_session","model","match","uniform","","","","","","","1375","226093.00000000003","227468.00000000003","[""stimuli/AM05_AO.jpg"",""stimuli/BM03_HE.jpg"",""stimuli/WF04_CC.jpg"",""stimuli/AM09_DO.jpg""]","stimuli/AM05_AO.jpg","stimuli/BM03_HE.jpg","stimuli/WF04_CC.jpg","stimuli/AM09_DO.jpg","pos1","stimuli/AM05_AO.jpg","AO","AM05","0","4.5","9","8","stimuli/stars_9.png","129","[""AO"",""HE"",""CC"",""DO""]","[""AM05"",""BM03"",""WF04"",""AM09""]","[9,3,4,0]","[8,4,6,2]","","",""
"show-reward","106","228366","0.0-106.0","p64209","pilot_test","emogo","test_session","model","match","uniform","","","","","","","","227972","229974.00000000003","","","","","","","","","","","","9","","stimuli/stars_9.png","129","","","","","stimuli/AM05_AO.jpg","",""
"explore-choice","107","230130","0.0-107.0","p64209","pilot_test","emogo","test_session","model","match","uniform","","","","","","","1262","229975","231237","[""stimuli/BM03_CC.jpg"",""stimuli/WF04_HE.jpg"",""stimuli/AM05_DO.jpg"",""stimuli/AM09_AO.jpg""]","stimuli/BM03_CC.jpg","stimuli/WF04_HE.jpg","stimuli/AM05_DO.jpg","stimuli/AM09_AO.jpg","pos4","stimuli/AM09_AO.jpg","AO","AM09","3","1","2","2","stimuli/stars_2.png","130","[""CC"",""HE"",""DO"",""AO""]","[""BM03"",""WF04"",""AM05"",""AM09""]","[5,4,9,2]","[4,6,8,2]","","",""
"show-reward","108","232133","0.0-108.0","p64209","pilot_test","emogo","test_session","model","match","uniform","","","","","","","","231739","233740","","","","","","","","","","","","2","","stimuli/stars_2.png","130","","","","","stimuli/AM09_AO.jpg","",""
"explore-choice","109","235663","0.0-109.0","p64209","pilot_test","emogo","test_session","model","match","uniform","","","","","","","3028","233741","236769","[""stimuli/BM03_DO.jpg"",""stimuli/AM09_CC.jpg"",""stimuli/WF04_AO.jpg"",""stimuli/AM05_HE.jpg""]","stimuli/BM03_DO.jpg","stimuli/AM09_CC.jpg","stimuli/WF04_AO.jpg","stimuli/AM05_HE.jpg","pos4","stimuli/AM05_HE.jpg","HE","AM05","3","5","10","8","stimuli/stars_10.png","135","[""DO"",""CC"",""AO"",""HE""]","[""BM03"",""AM09"",""WF04"",""AM05""]","[3,1,7,10]","[4,2,6,8]","","",""
"show-reward","110","237667","0.0-110.0","p64209","pilot_test","emogo","test_session","model","match","uniform","","","","","","","","237272","239275","","","","","","","","","","","","10","","stimuli/stars_10.png","135","","","","","stimuli/AM05_HE.jpg","",""
"explore-choice","111","239345","0.0-111.0","p64209","pilot_test","emogo","test_session","model","match","uniform","","","","","","","1175","239276","240451","[""stimuli/WF04_HE.jpg"",""stimuli/AM09_CC.jpg"",""stimuli/BM03_DO.jpg"",""stimuli/AM05_AO.jpg""]","stimuli/WF04_HE.jpg","stimuli/AM09_CC.jpg","stimuli/BM03_DO.jpg","stimuli/AM05_AO.jpg","pos1","stimuli/WF04_HE.jpg","HE","WF04","0","3.5","7","6","stimuli/stars_7.png","138.5","[""HE"",""CC"",""DO"",""AO""]","[""WF04"",""AM09"",""BM03"",""AM05""]","[7,0,6,10]","[6,2,4,8]","","",""
"show-reward","112","241350","0.0-112.0","p64209","pilot_test","emogo","test_session","model","match","uniform","","","","","","","","240955","242957","","","","","","","","","","","","7","","stimuli/stars_7.png","138.5","","","","","stimuli/WF04_HE.jpg","",""
"explore-choice","113","242844","0.0-113.0","p64209","pilot_test","emogo","test_session","model","match","uniform","","","","","","","992","242959","243951","[""stimuli/BM03_DO.jpg"",""stimuli/AM05_CC.jpg"",""stimuli/WF04_AO.jpg"",""stimuli/AM09_HE.jpg""]","stimuli/BM03_DO.jpg","stimuli/AM05_CC.jpg","stimuli/WF04_AO.jpg","stimuli/AM09_HE.jpg","pos1","stimuli/BM03_DO.jpg","DO","BM03","0","1","2","4","stimuli/stars_2.png","139.5","[""DO"",""CC"",""AO"",""HE""]","[""BM03"",""AM05"",""WF04"",""AM09""]","[2,6,8,3]","[4,8,6,2]","","",""
"show-reward","114","244846","0.0-114.0","p64209","pilot_test","emogo","test_session","model","match","uniform","","","","","","","","244453","246454","","","","","","","","","","","","2","","stimuli/stars_2.png","139.5","","","","","stimuli/BM03_DO.jpg","",""
"explore-choice","115","246528","0.0-115.0","p64209","pilot_test","emogo","test_session","model","match","uniform","","","","","","","1179","246455","247634","[""stimuli/AM09_AO.jpg"",""stimuli/WF04_CC.jpg"",""stimuli/AM05_DO.jpg"",""stimuli/BM03_HE.jpg""]","stimuli/AM09_AO.jpg","stimuli/WF04_CC.jpg","stimuli/AM05_DO.jpg","stimuli/BM03_HE.jpg","pos1","stimuli/AM09_AO.jpg","AO","AM09","0","0","0","2","stimuli/stars_0.png","139.5","[""AO"",""CC"",""DO"",""HE""]","[""AM09"",""WF04"",""AM05"",""BM03""]","[0,4,6,2]","[2,6,8,4]","","",""
"show-reward","116","248531","0.0-116.0","p64209","pilot_test","emogo","test_session","model","match","uniform","","","","","","","","248137","250139","","","","","","","","","","","","0","","stimuli/stars_0.png","139.5","","","","","stimuli/AM09_AO.jpg","",""
"explore-choice","117","250911","0.0-117.0","p64209","pilot_test","emogo","test_session","model","match","uniform","","","","","","","1877.999999999971","250140.00000000003","252018","[""stimuli/AM05_DO.jpg"",""stimuli/WF04_AO.jpg"",""stimuli/BM03_HE.jpg"",""stimuli/AM09_CC.jpg""]","stimuli/AM05_DO.jpg","stimuli/WF04_AO.jpg","stimuli/BM03_HE.jpg","stimuli/AM09_CC.jpg","pos2","stimuli/WF04_AO.jpg","AO","WF04","1","4","8","6","stimuli/stars_8.png","143.5","[""DO"",""AO"",""HE"",""CC""]","[""AM05"",""WF04"",""BM03"",""AM09""]","[6,8,5,1]","[8,6,4,2]","","",""
"show-reward","118","252915","0.0-118.0","p64209","pilot_test","emogo","test_session","model","match","uniform","","","","","","","","252521.00000000003","254523","","","","","","","","","","","","8","","stimuli/stars_8.png","143.5","","","","","stimuli/WF04_AO.jpg","",""
"explore-choice","119","254479","0.0-119.0","p64209","pilot_test","emogo","test_session","model","match","uniform","","","","","","","1061","254524","255585","[""stimuli/WF04_HE.jpg"",""stimuli/AM05_DO.jpg"",""stimuli/AM09_CC.jpg"",""stimuli/BM03_AO.jpg""]","stimuli/WF04_HE.jpg","stimuli/AM05_DO.jpg","stimuli/AM09_CC.jpg","stimuli/BM03_AO.jpg","pos2","stimuli/AM05_DO.jpg","DO","AM05","1","5","10","8","stimuli/stars_10.png","148.5","[""HE"",""DO"",""CC"",""AO""]","[""WF04"",""AM05"",""AM09"",""BM03""]","[4,10,3,5]","[6,8,2,4]","","",""
"show-reward","120","256483","0.0-120.0","p64209","pilot_test","emogo","test_session","model","match","uniform","","","","","","","","256088.00000000003","258090.00000000003","","","","","","","","","","","","10","","stimuli/stars_10.png","148.5","","","","","stimuli/AM05_DO.jpg","",""
"explore-choice","121","258195","0.0-121.0","p64209","pilot_test","emogo","test_session","model","match","uniform","","","","","","","1209.000000000029","258091.99999999997","259301","[""stimuli/AM09_HE.jpg"",""stimuli/AM05_CC.jpg"",""stimuli/BM03_AO.jpg"",""stimuli/WF04_DO.jpg""]","stimuli/AM09_HE.jpg","stimuli/AM05_CC.jpg","stimuli/BM03_AO.jpg","stimuli/WF04_DO.jpg","pos3","stimuli/BM03_AO.jpg","AO","BM03","2","2.5","5","4","stimuli/stars_5.png","151","[""HE"",""CC"",""AO"",""DO""]","[""AM09"",""AM05"",""BM03"",""WF04""]","[1,7,5,8]","[2,8,4,6]","","",""
"show-reward","122","260199","0.0-122.0","p64209","pilot_test","emogo","test_session","model","match","uniform","","","","","","","","259805","261807.00000000003","","","","","","","","","","","","5","","stimuli/stars_5.png","151","","","","","stimuli/BM03_AO.jpg","",""
"explore-choice","123","261761","0.0-123.0","p64209","pilot_test","emogo","test_session","model","match","uniform","","","","","","","1059","261808","262867","[""stimuli/AM05_HE.jpg"",""stimuli/BM03_CC.jpg"",""stimuli/WF04_DO.jpg"",""stimuli/AM09_AO.jpg""]","stimuli/AM05_HE.jpg","stimuli/BM03_CC.jpg","stimuli/WF04_DO.jpg","stimuli/AM09_AO.jpg","pos3","stimuli/WF04_DO.jpg","DO","WF04","2","3.5","7","6","stimuli/stars_7.png","154.5","[""HE"",""CC"",""DO"",""AO""]","[""AM05"",""BM03"",""WF04"",""AM09""]","[7,4,7,1]","[8,4,6,2]","","",""
"show-reward","124","263766","0.0-124.0","p64209","pilot_test","emogo","test_session","model","match","uniform","","","","","","","","263370","265373","","","","","","","","","","","","7","","stimuli/stars_7.png","154.5","","","","","stimuli/WF04_DO.jpg","",""
"explore-choice","125","265095","0.0-125.0","p64209","pilot_test","emogo","test_session","model","match","uniform","","","","","","","827","265375","266202","[""stimuli/AM09_HE.jpg"",""stimuli/WF04_AO.jpg"",""stimuli/AM05_DO.jpg"",""stimuli/BM03_CC.jpg""]","stimuli/AM09_HE.jpg","stimuli/WF04_AO.jpg","stimuli/AM05_DO.jpg","stimuli/BM03_CC.jpg","pos1","stimuli/AM09_HE.jpg","HE","AM09","0","1.5","3","2","stimuli/stars_3.png","156","[""HE"",""AO"",""DO"",""CC""]","[""AM09"",""WF04"",""AM05"",""BM03""]","[3,8,8,5]","[2,6,8,4]","","",""
"show-reward","126","267099","0.0-126.0","p64209","pilot_test","emogo","test_session","model","match","uniform","","","","","","","","266705","268707","","","","","","","","","","","","3","","stimuli/stars_3.png","156","","","","","stimuli/AM09_HE.jpg","",""
"explore-choice","127","268979","0.0-127.0","p64209","pilot_test","emogo","test_session","model","match","uniform","","","","","","","1376","268709","270085","[""stimuli/AM09_AO.jpg"",""stimuli/BM03_DO.jpg"",""stimuli/AM05_CC.jpg"",""stimuli/WF04_HE.jpg""]","stimuli/AM09_AO.jpg","stimuli/BM03_DO.jpg","stimuli/AM05_CC.jpg","stimuli/WF04_HE.jpg","pos4","stimuli/WF04_HE.jpg","HE","WF04","3","2.5","5","6","stimuli/stars_5.png","158.5","[""AO"",""DO"",""CC"",""HE""]","[""AM09"",""BM03"",""AM05"",""WF04""]","[4,3,8,5]","[2,4,8,6]","","",""
"show-reward","128","270984","0.0-128.0","p64209","pilot_test","emogo","test_session","model","match","uniform","","","","","","","","270589","272591","","","","","","","","","","","","5","","stimuli/stars_5.png","158.5","","","","","stimuli/WF04_HE.jpg","",""
"explore-choice","129","272593","0.0-129.0","p64209","pilot_test","emogo","test_session","model","match","uniform","","","","","","","1107","272593","273700","[""stimuli/AM05_AO.jpg"",""stimuli/BM03_CC.jpg"",""stimuli/WF04_HE.jpg"",""stimuli/AM09_DO.jpg""]","stimuli/AM05_AO.jpg","stimuli/BM03_CC.jpg","stimuli/WF04_HE.jpg","stimuli/AM09_DO.jpg","pos1","stimuli/AM05_AO.jpg","AO","AM05","0","3.5","7","8","stimuli/stars_7.png","162","[""AO"",""CC"",""HE"",""DO""]","[""AM05"",""BM03"",""WF04"",""AM09""]","[7,3,4,1]","[8,4,6,2]","","",""
"show-reward","130","274598","0.0-130.0","p64209","pilot_test","emogo","test_session","model","match","uniform","","","","","","","","274203.00000000006","276206","","","","","","","","","","","","7","","stimuli/stars_7.png","162","","","","","stimuli/AM05_AO.jpg","",""
"explore-choice","131","276243","0.0-131.0","p64209","pilot_test","emogo","test_session","model","match","uniform","","","","","","","1143","276208","277351","[""stimuli/AM09_DO.jpg"",""stimuli/AM05_HE.jpg"",""stimuli/WF04_CC.jpg"",""stimuli/BM03_AO.jpg""]","stimuli/AM09_DO.jpg","stimuli/AM05_HE.jpg","stimuli/WF04_CC.jpg","stimuli/BM03_AO.jpg","pos2","stimuli/AM05_HE.jpg","HE","AM05","1","3","6","8","stimuli/stars_6.png","165","[""DO"",""HE"",""CC"",""AO""]","[""AM09"",""AM05"",""WF04"",""BM03""]","[0,6,6,6]","[2,8,6,4]","","",""
"show-reward","132","278248","0.0-132.0","p64209","pilot_test","emogo","test_session","model","match","uniform","","","","","","","","277853","279856","","","","","","","","","","","","6","","stimuli/stars_6.png","165","","","","","stimuli/AM05_HE.jpg","",""
"explore-choice","133","280394","0.0-133.0","p64209","pilot_test","emogo","test_session","model","match","uniform","","","","","","","1642","279858","281500","[""stimuli/WF04_DO.jpg"",""stimuli/BM03_HE.jpg"",""stimuli/AM09_AO.jpg"",""stimuli/AM05_CC.jpg""]","stimuli/WF04_DO.jpg","stimuli/BM03_HE.jpg","stimuli/AM09_AO.jpg","stimuli/AM05_CC.jpg","pos3","stimuli/AM09_AO.jpg","AO","AM09","2","2","4","2","stimuli/stars_4.png","167","[""DO"",""HE"",""AO"",""CC""]","[""WF04"",""BM03"",""AM09"",""AM05""]","[5,4,4,8]","[6,4,2,8]","","",""
"show-reward","134","282397","0.0-134.0","p64209","pilot_test","emogo","test_session","model","match","uniform","","","","","","","","282003","284004","","","","","","","","","","","","4","","stimuli/stars_4.png","167","","","","","stimuli/AM09_AO.jpg","",""
"explore-choice","135","284327","0.0-135.0","p64209","pilot_test","emogo","test_session","model","match","uniform","","","","","","","1428","284006","285434","[""stimuli/AM09_HE.jpg"",""stimuli/AM05_AO.jpg"",""stimuli/BM03_DO.jpg"",""stimuli/WF04_CC.jpg""]","stimuli/AM09_HE.jpg","stimuli/AM05_AO.jpg","stimuli/BM03_DO.jpg","stimuli/WF04_CC.jpg","pos1","stimuli/AM09_HE.jpg","HE","AM09","0","1","2","2","stimuli/stars_2.png","168","[""HE"",""AO"",""DO"",""CC""]","[""AM09"",""AM05"",""BM03"",""WF04""]","[2,8,3,6]","[2,8,4,6]","","",""
"show-reward","136","286331","0.0-136.0","p64209","pilot_test","emogo","test_session","model","match","uniform","","","","","","","","285937","287939","","","","","","","","","","","","2","","stimuli/stars_2.png","168","","","","","stimuli/AM09_HE.jpg","",""
"explore-choice","137","288110","0.0-137.0","p64209","pilot_test","emogo","test_session","model","match","uniform","","","","","","","1275.9999999999418","287941.00000000006","289217","[""stimuli/AM09_DO.jpg"",""stimuli/BM03_HE.jpg"",""stimuli/AM05_CC.jpg"",""stimuli/WF04_AO.jpg""]","stimuli/AM09_DO.jpg","stimuli/BM03_HE.jpg","stimuli/AM05_CC.jpg","stimuli/WF04_AO.jpg","pos4","stimuli/WF04_AO.jpg","AO","WF04","3","2","4","6","stimuli/stars_4.png","170","[""DO"",""HE"",""CC"",""AO""]","[""AM09"",""BM03"",""AM05"",""WF04""]","[2,2,9,4]","[2,4,8,6]","","",""
"show-reward","138","290113","0.0-138.0","p64209","pilot_test","emogo","test_session","model","match","uniform","","","","","","","","289719","291721","","","","","","","","","","","","4","","stimuli/stars_4.png","170","","","","","stimuli/WF04_AO.jpg","",""
"explore-choice","139","291527","0.0-139.0","p64209","pilot_test","emogo","test_session","model","match","uniform","","","","","","","912","291722","292634","[""stimuli/AM05_DO.jpg"",""stimuli/AM09_HE.jpg"",""stimuli/BM03_AO.jpg"",""stimuli/WF04_CC.jpg""]","stimuli/AM05_DO.jpg","stimuli/AM09_HE.jpg","stimuli/BM03_AO.jpg","stimuli/WF04_CC.jpg","pos3","stimuli/BM03_AO.jpg","AO","BM03","2","1.5","3","4","stimuli/stars_3.png","171.5","[""DO"",""HE"",""AO"",""CC""]","[""AM05"",""AM09"",""BM03"",""WF04""]","[6,0,3,4]","[8,2,4,6]","","",""
"show-reward","140","293531","0.0-140.0","p64209","pilot_test","emogo","test_session","model","match","uniform","","","","","","","","293137","295139","","","","","","","","","","","","3","","stimuli/stars_3.png","171.5","","","","","stimuli/BM03_AO.jpg","",""
"explore-choice","141","295227","0.0-141.0","p64209","pilot_test","emogo","test_session","model","match","uniform","","","","","","","1194","295141","296335","[""stimuli/AM05_HE.jpg"",""stimuli/WF04_AO.jpg"",""stimuli/BM03_CC.jpg"",""stimuli/AM09_DO.jpg""]","stimuli/AM05_HE.jpg","stimuli/WF04_AO.jpg","stimuli/BM03_CC.jpg","stimuli/AM09_DO.jpg","pos1","stimuli/AM05_HE.jpg","HE","AM05","0","3","6","8","stimuli/stars_6.png","174.5","[""HE"",""AO"",""CC"",""DO""]","[""AM05"",""WF04"",""BM03"",""AM09""]","[6,5,2,4]","[8,6,4,2]","","",""
"show-reward","142","297231","0.0-142.0","p64209","pilot_test","emogo","test_session","model","match","uniform","","","","","","","","296837","298839","","","","","","","","","","","","6","","stimuli/stars_6.png","174.5","","","","","stimuli/AM05_HE.jpg","",""
"explore-choice","143","298827","0.0-143.0","p64209","pilot_test","emogo","test_session","model","match","uniform","","","","","","","1094","298841","299935","[""stimuli/AM05_HE.jpg"",""stimuli/AM09_AO.jpg"",""stimuli/WF04_CC.jpg"",""stimuli/BM03_DO.jpg""]","stimuli/AM05_HE.jpg","stimuli/AM09_AO.jpg","stimuli/WF04_CC.jpg","stimuli/BM03_DO.jpg","pos3","stimuli/WF04_CC.jpg","CC","WF04","2","3.5","7","6","stimuli/stars_7.png","178","[""HE"",""AO"",""CC"",""DO""]","[""AM05"",""AM09"",""WF04"",""BM03""]","[6,4,7,5]","[8,2,6,4]","","",""
"show-reward","144","300831","0.0-144.0","p64209","pilot_test","emogo","test_session","model","match","uniform","","","","","","","","300437","302439","","","","","","","","","","","","7","","stimuli/stars_7.png","178","","","","","stimuli/WF04_CC.jpg","",""
"explore-choice","145","301860","0.0-145.0","p64209","pilot_test","emogo","test_session","model","match","uniform","","","","","","","527","302440","302967","[""stimuli/AM09_HE.jpg"",""stimuli/BM03_CC.jpg"",""stimuli/AM05_AO.jpg"",""stimuli/WF04_DO.jpg""]","stimuli/AM09_HE.jpg","stimuli/BM03_CC.jpg","stimuli/AM05_AO.jpg","stimuli/WF04_DO.jpg","pos2","stimuli/BM03_CC.jpg","CC","BM03","1","2.5","5","4","stimuli/stars_5.png","180.5","[""HE"",""CC"",""AO"",""DO""]","[""AM09"",""BM03"",""AM05"",""WF04""]","[4,5,10,8]","[2,4,8,6]","","",""
"show-reward","146","303863","0.0-146.0","p64209","pilot_test","emogo","test_session","model","match","uniform","","","","","","","","303470","305472","","","","","","","","","","","","5","","stimuli/stars_5.png","180.5","","","","","stimuli/BM03_CC.jpg","",""
"explore-choice","147","305060","0.0-147.0","p64209","pilot_test","emogo","test_session","model","match","uniform","","","","","","","695.0000000000582","305472","306167.00000000006","[""stimuli/BM03_HE.jpg"",""stimuli/WF04_DO.jpg"",""stimuli/AM09_CC.jpg"",""stimuli/AM05_AO.jpg""]","stimuli/BM03_HE.jpg","stimuli/WF04_DO.jpg","stimuli/AM09_CC.jpg","stimuli/AM05_AO.jpg","pos1","stimuli/BM03_HE.jpg","HE","BM03","0","3","6","4","stimuli/stars_6.png","183.5","[""HE"",""DO"",""CC"",""AO""]","[""BM03"",""WF04"",""AM09"",""AM05""]","[6,8,2,8]","[4,6,2,8]","","",""
"show-reward","148","307064","0.0-148.0","p64209","pilot_test","emogo","test_session","model","match","uniform","","","","","","","","306670","308672","","","","","","","","","","","","6","","stimuli/stars_6.png","183.5","","","","","stimuli/BM03_HE.jpg","",""
"explore-choice","149","308492","0.0-149.0","p64209","pilot_test","emogo","test_session","model","match","uniform","","","","","","","926","308674","309600","[""stimuli/WF04_HE.jpg"",""stimuli/AM09_DO.jpg"",""stimuli/AM05_CC.jpg"",""stimuli/BM03_AO.jpg""]","stimuli/WF04_HE.jpg","stimuli/AM09_DO.jpg","stimuli/AM05_CC.jpg","stimuli/BM03_AO.jpg","pos4","stimuli/BM03_AO.jpg","AO","BM03","3","2","4","4","stimuli/stars_4.png","185.5","[""HE"",""DO"",""CC"",""AO""]","[""WF04"",""AM09"",""AM05"",""BM03""]","[6,2,10,4]","[6,2,8,4]","","",""
"show-reward","150","310497","0.0-150.0","p64209","pilot_test","emogo","test_session","model","match","uniform","","","","","","","","310102.00000000006","312105","","","","","","","","","","","","4","","stimuli/stars_4.png","185.5","","","","","stimuli/BM03_AO.jpg","",""
"explore-choice","151","312076","0.0-151.0","p64209","pilot_test","emogo","test_session","model","match","uniform","","","","","","","1076","312107","313183","[""stimuli/WF04_HE.jpg"",""stimuli/AM09_AO.jpg"",""stimuli/BM03_DO.jpg"",""stimuli/AM05_CC.jpg""]","stimuli/WF04_HE.jpg","stimuli/AM09_AO.jpg","stimuli/BM03_DO.jpg","stimuli/AM05_CC.jpg","pos3","stimuli/BM03_DO.jpg","DO","BM03","2","1.5","3","4","stimuli/stars_3.png","187","[""HE"",""AO"",""DO"",""CC""]","[""WF04"",""AM09"",""BM03"",""AM05""]","[5,4,3,8]","[6,2,4,8]","","",""
"show-reward","152","314081","0.0-152.0","p64209","pilot_test","emogo","test_session","model","match","uniform","","","","","","","","313686","315689","","","","","","","","","","","","3","","stimuli/stars_3.png","187","","","","","stimuli/BM03_DO.jpg","",""
"explore-choice","153","315795","0.0-153.0","p64209","pilot_test","emogo","test_session","model","match","uniform","","","","","","","1212","315690","316902","[""stimuli/BM03_CC.jpg"",""stimuli/WF04_DO.jpg"",""stimuli/AM05_AO.jpg"",""stimuli/AM09_HE.jpg""]","stimuli/BM03_CC.jpg","stimuli/WF04_DO.jpg","stimuli/AM05_AO.jpg","stimuli/AM09_HE.jpg","pos3","stimuli/AM05_AO.jpg","AO","AM05","2","5","10","8","stimuli/stars_10.png","192","[""CC"",""DO"",""AO"",""HE""]","[""BM03"",""WF04"",""AM05"",""AM09""]","[5,8,10,4]","[4,6,8,2]","","",""
"show-reward","154","317799","0.0-154.0","p64209","pilot_test","emogo","test_session","model","match","uniform","","","","","","","","317405.00000000006","319407","","","","","","","","","","","","10","","stimuli/stars_10.png","192","","","","","stimuli/AM05_AO.jpg","",""
"explore-choice","155","318994","0.0-155.0","p64209","pilot_test","emogo","test_session","model","match","uniform","","","","","","","693","319408","320101","[""stimuli/AM05_AO.jpg"",""stimuli/BM03_DO.jpg"",""stimuli/WF04_CC.jpg"",""stimuli/AM09_HE.jpg""]","stimuli/AM05_AO.jpg","stimuli/BM03_DO.jpg","stimuli/WF04_CC.jpg","stimuli/AM09_HE.jpg","pos2","stimuli/BM03_DO.jpg","DO","BM03","1","1.5","3","4","stimuli/stars_3.png","193.5","[""AO"",""DO"",""CC"",""HE""]","[""AM05"",""BM03"",""WF04"",""AM09""]","[8,3,6,2]","[8,4,6,2]","","",""
"show-reward","156","320997","0.0-156.0","p64209","pilot_test","emogo","test_session","model","match","uniform","","","","","","","","320604","322605","","","","","","","","","","","","3","","stimuli/stars_3.png","193.5","","","","","stimuli/BM03_DO.jpg","",""
"explore-choice","157","322192","0.0-157.0","p64209","pilot_test","emogo","test_session","model","match","uniform","","","","","","","694","322606","323300","[""stimuli/WF04_CC.jpg"",""stimuli/AM05_AO.jpg"",""stimuli/AM09_DO.jpg"",""stimuli/BM03_HE.jpg""]","stimuli/WF04_CC.jpg","stimuli/AM05_AO.jpg","stimuli/AM09_DO.jpg","stimuli/BM03_HE.jpg","pos2","stimuli/AM05_AO.jpg","AO","AM05","1","4.5","9","8","stimuli/stars_9.png","198","[""CC"",""AO"",""DO"",""HE""]","[""WF04"",""AM05"",""AM09"",""BM03""]","[4,9,0,3]","[6,8,2,4]","","",""
"show-reward","158","324195","0.0-158.0","p64209","pilot_test","emogo","test_session","model","match","uniform","","","","","","","","323801","325803","","","","","","","","","","","","9","","stimuli/stars_9.png","198","","","","","stimuli/AM05_AO.jpg","",""
"explore-choice","159","325292","0.0-159.0","p64209","pilot_test","emogo","test_session","model","match","uniform","","","","","","","597.0000000000582","325803","326400.00000000006","[""stimuli/AM05_HE.jpg"",""stimuli/AM09_DO.jpg"",""stimuli/BM03_AO.jpg"",""stimuli/WF04_CC.jpg""]","stimuli/AM05_HE.jpg","stimuli/AM09_DO.jpg","stimuli/BM03_AO.jpg","stimuli/WF04_CC.jpg","pos1","stimuli/AM05_HE.jpg","HE","AM05","0","3","6","8","stimuli/stars_6.png","201","[""HE"",""DO"",""AO"",""CC""]","[""AM05"",""AM09"",""BM03"",""WF04""]","[6,0,6,6]","[8,2,4,6]","","",""
"show-reward","160","327297","0.0-160.0","p64209","pilot_test","emogo","test_session","model","match","uniform","","","","","","","","326902","328905.00000000006","","","","","","","","","","","","6","","stimuli/stars_6.png","201","","","","","stimuli/AM05_HE.jpg","",""
"explore-choice","161","328408","0.0-161.0","p64209","pilot_test","emogo","test_session","model","match","uniform","","","","","","","610","328906","329516","[""stimuli/BM03_HE.jpg"",""stimuli/AM05_CC.jpg"",""stimuli/WF04_AO.jpg"",""stimuli/AM09_DO.jpg""]","stimuli/BM03_HE.jpg","stimuli/AM05_CC.jpg","stimuli/WF04_AO.jpg","stimuli/AM09_DO.jpg","pos3","stimuli/WF04_AO.jpg","AO","WF04","2","2","4","6","stimuli/stars_4.png","203","[""HE"",""CC"",""AO"",""DO""]","[""BM03"",""AM05"",""WF04"",""AM09""]","[2,9,4,2]","[4,8,6,2]","","",""
"show-reward","162","330412","0.0-162.0","p64209","pilot_test","emogo","test_session","model","match","uniform","","","","","","","","330019","332021","","","","","","","","","","","","4","","stimuli/stars_4.png","203","","","","","stimuli/WF04_AO.jpg","",""
"explore-choice","163","331794","0.0-163.0","p64209","pilot_test","emogo","test_session","model","match","uniform","","","","","","","879","332022","332901","[""stimuli/AM05_CC.jpg"",""stimuli/WF04_AO.jpg"",""stimuli/BM03_DO.jpg"",""stimuli/AM09_HE.jpg""]","stimuli/AM05_CC.jpg","stimuli/WF04_AO.jpg","stimuli/BM03_DO.jpg","stimuli/AM09_HE.jpg","pos1","stimuli/AM05_CC.jpg","CC","AM05","0","3","6","8","stimuli/stars_6.png","206","[""CC"",""AO"",""DO"",""HE""]","[""AM05"",""WF04"",""BM03"",""AM09""]","[6,8,2,3]","[8,6,4,2]","","",""
"show-reward","164","333799","0.0-164.0","p64209","pilot_test","emogo","test_session","model","match","uniform","","","","","","","","333405.00000000006","335407","","","","","","","","","","","","6","","stimuli/stars_6.png","206","","","","","stimuli/AM05_CC.jpg","",""
"explore-choice","165","335275","0.0-165.0","p64209","pilot_test","emogo","test_session","model","match","uniform","","","","","","","974","335408","336382","[""stimuli/WF04_HE.jpg"",""stimuli/BM03_CC.jpg"",""stimuli/AM05_DO.jpg"",""stimuli/AM09_AO.jpg""]","stimuli/WF04_HE.jpg","stimuli/BM03_CC.jpg","stimuli/AM05_DO.jpg","stimuli/AM09_AO.jpg","pos4","stimuli/AM09_AO.jpg","AO","AM09","3","1","2","2","stimuli/stars_2.png","207","[""HE"",""CC"",""DO"",""AO""]","[""WF04"",""BM03"",""AM05"",""AM09""]","[4,5,9,2]","[6,4,8,2]","","",""
"show-reward","166","337278","0.0-166.0","p64209","pilot_test","emogo","test_session","model","match","uniform","","","","","","","","336885","338886","","","","","","","","","","","","2","","stimuli/stars_2.png","207","","","","","stimuli/AM09_AO.jpg","",""
"explore-choice","167","338427","0.0-167.0","p64209","pilot_test","emogo","test_session","model","match","uniform","","","","","","","648","338887","339535","[""stimuli/BM03_CC.jpg"",""stimuli/AM09_HE.jpg"",""stimuli/WF04_AO.jpg"",""stimuli/AM05_DO.jpg""]","stimuli/BM03_CC.jpg","stimuli/AM09_HE.jpg","stimuli/WF04_AO.jpg","stimuli/AM05_DO.jpg","pos2","stimuli/AM09_HE.jpg","HE","AM09","1","1.5","3","2","stimuli/stars_3.png","208.5","[""CC"",""HE"",""AO"",""DO""]","[""BM03"",""AM09"",""WF04"",""AM05""]","[5,3,8,8]","[4,2,6,8]","","",""
"show-reward","168","340431","0.0-168.0","p64209","pilot_test","emogo","test_session","model","match","uniform","","","","","","","","340037.00000000006","342039","","","","","","","","","","","","3","","stimuli/stars_3.png","208.5","","","","","stimuli/AM09_HE.jpg","",""
"explore-choice","169","341859","0.0-169.0","p64209","pilot_test","emogo","test_session","model","match","uniform","","","","","","","926","342040","342966","[""stimuli/AM05_DO.jpg"",""stimuli/BM03_HE.jpg"",""stimuli/WF04_CC.jpg"",""stimuli/AM09_AO.jpg""]","stimuli/AM05_DO.jpg","stimuli/BM03_HE.jpg","stimuli/WF04_CC.jpg","stimuli/AM09_AO.jpg","pos3","stimuli/WF04_CC.jpg","CC","WF04","2","2","4","6","stimuli/stars_4.png","210.5","[""DO"",""HE"",""CC"",""AO""]","[""AM05"",""BM03"",""WF04"",""AM09""]","[6,2,4,0]","[8,4,6,2]","","",""
"show-reward","170","343863","0.0-170.0","p64209","pilot_test","emogo","test_session","model","match","uniform","","","","","","","","343469","345472","","","","","","","","","","","","4","","stimuli/stars_4.png","210.5","","","","","stimuli/WF04_CC.jpg","",""
"explore-choice","171","346426","0.0-171.0","p64209","pilot_test","emogo","test_session","model","match","uniform","","","","","","","2060","345473","347533","[""stimuli/AM09_DO.jpg"",""stimuli/WF04_AO.jpg"",""stimuli/AM05_HE.jpg"",""stimuli/BM03_CC.jpg""]","stimuli/AM09_DO.jpg","stimuli/WF04_AO.jpg","stimuli/AM05_HE.jpg","stimuli/BM03_CC.jpg","pos1","stimuli/AM09_DO.jpg","DO","AM09","0","2","4","2","stimuli/stars_4.png","212.5","[""DO"",""AO"",""HE"",""CC""]","[""AM09"",""WF04"",""AM05"",""BM03""]","[4,5,6,2]","[2,6,8,4]","","",""
"show-reward","172","348430","0.0-172.0","p64209","pilot_test","emogo","test_session","model","match","uniform","","","","","","","","348036","350038","","","","","","","","","","","","4","","stimuli/stars_4.png","212.5","","","","","stimuli/AM09_DO.jpg","",""
"explore-choice","173","350426","0.0-173.0","p64209","pilot_test","emogo","test_session","model","match","uniform","","","","","","","1493","350040","351533","[""stimuli/WF04_AO.jpg"",""stimuli/AM05_DO.jpg"",""stimuli/AM09_CC.jpg"",""stimuli/BM03_HE.jpg""]","stimuli/WF04_AO.jpg","stimuli/AM05_DO.jpg","stimuli/AM09_CC.jpg","stimuli/BM03_HE.jpg","pos3","stimuli/AM09_CC.jpg","CC","AM09","2","0.5","1","2","stimuli/stars_1.png","213","[""AO"",""DO"",""CC"",""HE""]","[""WF04"",""AM05"",""AM09"",""BM03""]","[8,6,1,5]","[6,8,2,4]","","",""
"show-reward","174","352430","0.0-174.0","p64209","pilot_test","emogo","test_session","model","match","uniform","","","","","","","","352036","354038","","","","","","","","","","","","1","","stimuli/stars_1.png","213","","","","","stimuli/AM09_CC.jpg","",""
"explore-choice","175","354443","0.0-175.0","p64209","pilot_test","emogo","test_session","model","match","uniform","","","","","","","1511","354039","355550","[""stimuli/AM09_AO.jpg"",""stimuli/BM03_DO.jpg"",""stimuli/AM05_HE.jpg"",""stimuli/WF04_CC.jpg""]","stimuli/AM09_AO.jpg","stimuli/BM03_DO.jpg","stimuli/AM05_HE.jpg","stimuli/WF04_CC.jpg","pos3","stimuli/AM05_HE.jpg","HE","AM05","2","3","6","8","stimuli/stars_6.png","216","[""AO"",""DO"",""HE"",""CC""]","[""AM09"",""BM03"",""AM05"",""WF04""]","[4,5,6,7]","[2,4,8,6]","","",""
"show-reward","176","356447","0.0-176.0","p64209","pilot_test","emogo","test_session","model","match","uniform","","","","","","","","356053","358055","","","","","","","","","","","","6","","stimuli/stars_6.png","216","","","","","stimuli/AM05_HE.jpg","",""
"explore-choice","177","359375","0.0-177.0","p64209","pilot_test","emogo","test_session","model","match","uniform","","","","","","","2426","358056","360482","[""stimuli/AM09_CC.jpg"",""stimuli/BM03_HE.jpg"",""stimuli/AM05_AO.jpg"",""stimuli/WF04_DO.jpg""]","stimuli/AM09_CC.jpg","stimuli/BM03_HE.jpg","stimuli/AM05_AO.jpg","stimuli/WF04_DO.jpg","pos3","stimuli/AM05_AO.jpg","AO","AM05","2","4","8","8","stimuli/stars_8.png","220","[""CC"",""HE"",""AO"",""DO""]","[""AM09"",""BM03"",""AM05"",""WF04""]","[2,6,8,8]","[2,4,8,6]","","",""
"show-reward","178","361379","0.0-178.0","p64209","pilot_test","emogo","test_session","model","match","uniform","","","","","","","","360985","362987","","","","","","","","","","","","8","","stimuli/stars_8.png","220","","","","","stimuli/AM05_AO.jpg","",""
"explore-choice","179","363493","0.0-179.0","p64209","pilot_test","emogo","test_session","model","match","uniform","","","","","","","1610.9999999999418","362989.00000000006","364600","[""stimuli/WF04_DO.jpg"",""stimuli/AM09_CC.jpg"",""stimuli/BM03_AO.jpg"",""stimuli/AM05_HE.jpg""]","stimuli/WF04_DO.jpg","stimuli/AM09_CC.jpg","stimuli/BM03_AO.jpg","stimuli/AM05_HE.jpg","pos2","stimuli/AM09_CC.jpg","CC","AM09","1","0.5","1","2","stimuli/stars_1.png","220.5","[""DO"",""CC"",""AO"",""HE""]","[""WF04"",""AM09"",""BM03"",""AM05""]","[7,1,3,7]","[6,2,4,8]","","",""
"show-reward","180","365498","0.0-180.0","p64209","pilot_test","emogo","test_session","model","match","uniform","","","","","","","","365103","367106","","","","","","","","","","","","1","","stimuli/stars_1.png","220.5","","","","","stimuli/AM09_CC.jpg","",""
"explore-choice","181","367492","0.0-181.0","p64209","pilot_test","emogo","test_session","model","match","uniform","","","","","","","1492","367108","368600","[""stimuli/AM05_AO.jpg"",""stimuli/WF04_HE.jpg"",""stimuli/BM03_DO.jpg"",""stimuli/AM09_CC.jpg""]","stimuli/AM05_AO.jpg","stimuli/WF04_HE.jpg","stimuli/BM03_DO.jpg","stimuli/AM09_CC.jpg","pos3","stimuli/BM03_DO.jpg","DO","BM03","2","3","6","4","stimuli/stars_6.png","223.5","[""AO"",""HE"",""DO"",""CC""]","[""AM05"",""WF04"",""BM03"",""AM09""]","[10,7,6,0]","[8,6,4,2]","","",""
"show-reward","182","369496","0.0-182.0","p64209","pilot_test","emogo","test_session","model","match","uniform","","","","","","","","369103","371105","","","","","","","","","","","","6","","stimuli/stars_6.png","223.5","","","","","stimuli/BM03_DO.jpg","",""
"explore-choice","183","374093","0.0-183.0","p64209","pilot_test","emogo","test_session","model","match","uniform","","","","","","","4095","371106","375201","[""stimuli/AM09_AO.jpg"",""stimuli/WF04_DO.jpg"",""stimuli/BM03_HE.jpg"",""stimuli/AM05_CC.jpg""]","stimuli/AM09_AO.jpg","stimuli/WF04_DO.jpg","stimuli/BM03_HE.jpg","stimuli/AM05_CC.jpg","pos1","stimuli/AM09_AO.jpg","AO","AM09","0","2","4","2","stimuli/stars_4.png","225.5","[""AO"",""DO"",""HE"",""CC""]","[""AM09"",""WF04"",""BM03"",""AM05""]","[4,5,4,8]","[2,6,4,8]","","",""
"show-reward","184","376097","0.0-184.0","p64209","pilot_test","emogo","test_session","model","match","uniform","","","","","","","","375704","377706","","","","","","","","","","","","4","","stimuli/stars_4.png","225.5","","","","","stimuli/AM09_AO.jpg","",""
"explore-choice","185","377575","0.0-185.0","p64209","pilot_test","emogo","test_session","model","match","uniform","","","","","","","976","377707","378683","[""stimuli/WF04_HE.jpg"",""stimuli/AM05_CC.jpg"",""stimuli/BM03_AO.jpg"",""stimuli/AM09_DO.jpg""]","stimuli/WF04_HE.jpg","stimuli/AM05_CC.jpg","stimuli/BM03_AO.jpg","stimuli/AM09_DO.jpg","pos4","stimuli/AM09_DO.jpg","DO","AM09","3","1","2","2","stimuli/stars_2.png","226.5","[""HE"",""CC"",""AO"",""DO""]","[""WF04"",""AM05"",""BM03"",""AM09""]","[6,10,4,2]","[6,8,4,2]","","",""
"show-reward","186","379614","0.0-186.0","p64209","pilot_test","emogo","test_session","model","match","uniform","","","","","","","","379221","381222","","","","","","","","","","","","2","","stimuli/stars_2.png","226.5","","","","","stimuli/AM09_DO.jpg","",""
"explore-choice","187","380609","0.0-187.0","p64209","pilot_test","emogo","test_session","model","match","uniform","","","","","","","493","381223","381716","[""stimuli/AM05_AO.jpg"",""stimuli/AM09_DO.jpg"",""stimuli/WF04_HE.jpg"",""stimuli/BM03_CC.jpg""]","stimuli/AM05_AO.jpg","stimuli/AM09_DO.jpg","stimuli/WF04_HE.jpg","stimuli/BM03_CC.jpg","pos3","stimuli/WF04_HE.jpg","HE","WF04","2","2","4","6","stimuli/stars_4.png","228.5","[""AO"",""DO"",""HE"",""CC""]","[""AM05"",""AM09"",""WF04"",""BM03""]","[7,1,4,3]","[8,2,6,4]","","",""
"show-reward","188","382613","0.0-188.0","p64209","pilot_test","emogo","test_session","model","match","uniform","","","","","","","","382219","384221","","","","","","","","","","","","4","","stimuli/stars_4.png","228.5","","","","","stimuli/WF04_HE.jpg","",""
"explore-choice","189","395176","0.0-189.0","p64209","pilot_test","emogo","test_session","model","match","uniform","","","","","","","12061","384223","396284","[""stimuli/AM09_AO.jpg"",""stimuli/BM03_CC.jpg"",""stimuli/WF04_DO.jpg"",""stimuli/AM05_HE.jpg""]","stimuli/AM09_AO.jpg","stimuli/BM03_CC.jpg","stimuli/WF04_DO.jpg","stimuli/AM05_HE.jpg","pos4","stimuli/AM05_HE.jpg","HE","AM05","3","3.5","7","8","stimuli/stars_7.png","232","[""AO"",""CC"",""DO"",""HE""]","[""AM09"",""BM03"",""WF04"",""AM05""]","[1,4,7,7]","[2,4,6,8]","","",""
"show-reward","190","397180","0.0-190.0","p64209","pilot_test","emogo","test_session","model","match","uniform","","","","","","","","396786","398789","","","","","","","","","","","","7","","stimuli/stars_7.png","232","","","","","stimuli/AM05_HE.jpg","",""
"explore-choice","191","398390","0.0-191.0","p64209","pilot_test","emogo","test_session","model","match","uniform","","","","","","","707","398791","399498","[""stimuli/WF04_AO.jpg"",""stimuli/AM05_HE.jpg"",""stimuli/AM09_CC.jpg"",""stimuli/BM03_DO.jpg""]","stimuli/WF04_AO.jpg","stimuli/AM05_HE.jpg","stimuli/AM09_CC.jpg","stimuli/BM03_DO.jpg","pos2","stimuli/AM05_HE.jpg","HE","AM05","1","5","10","8","stimuli/stars_10.png","237","[""AO"",""HE"",""CC"",""DO""]","[""WF04"",""AM05"",""AM09"",""BM03""]","[7,10,1,3]","[6,8,2,4]","","",""
"show-reward","192","400394","0.0-192.0","p64209","pilot_test","emogo","test_session","model","match","uniform","","","","","","","","400001.00000000006","402003","","","","","","","","","","","","10","","stimuli/stars_10.png","237","","","","","stimuli/AM05_HE.jpg","",""
"explore-choice","193","401540","0.0-193.0","p64209","pilot_test","emogo","test_session","model","match","uniform","","","","","","","645","402003","402648","[""stimuli/WF04_HE.jpg"",""stimuli/AM05_DO.jpg"",""stimuli/BM03_AO.jpg"",""stimuli/AM09_CC.jpg""]","stimuli/WF04_HE.jpg","stimuli/AM05_DO.jpg","stimuli/BM03_AO.jpg","stimuli/AM09_CC.jpg","pos2","stimuli/AM05_DO.jpg","DO","AM05","1","5","10","8","stimuli/stars_10.png","242","[""HE"",""DO"",""AO"",""CC""]","[""WF04"",""AM05"",""BM03"",""AM09""]","[4,10,5,3]","[6,8,4,2]","","",""
"show-reward","194","403545","0.0-194.0","p64209","pilot_test","emogo","test_session","model","match","uniform","","","","","","","","403151","405153","","","","","","","","","","","","10","","stimuli/stars_10.png","242","","","","","stimuli/AM05_DO.jpg","",""
"explore-choice","195","405608","0.0-195.0","p64209","pilot_test","emogo","test_session","model","match","uniform","","","","","","","1560.9999999999418","405155.00000000006","406716","[""stimuli/AM05_CC.jpg"",""stimuli/BM03_AO.jpg"",""stimuli/WF04_DO.jpg"",""stimuli/AM09_HE.jpg""]","stimuli/AM05_CC.jpg","stimuli/BM03_AO.jpg","stimuli/WF04_DO.jpg","stimuli/AM09_HE.jpg","pos2","stimuli/BM03_AO.jpg","AO","BM03","1","2.5","5","4","stimuli/stars_5.png","244.5","[""CC"",""AO"",""DO"",""HE""]","[""AM05"",""BM03"",""WF04"",""AM09""]","[7,5,8,1]","[8,4,6,2]","","",""
"show-reward","196","407615","0.0-196.0","p64209","pilot_test","emogo","test_session","model","match","uniform","","","","","","","","407219","409223","","","","","","","","","","","","5","","stimuli/stars_5.png","244.5","","","","","stimuli/BM03_AO.jpg","",""
"explore-choice","197","409091","0.0-197.0","p64209","pilot_test","emogo","test_session","model","match","uniform","","","","","","","974","409225","410199","[""stimuli/AM05_DO.jpg"",""stimuli/WF04_CC.jpg"",""stimuli/AM09_HE.jpg"",""stimuli/BM03_AO.jpg""]","stimuli/AM05_DO.jpg","stimuli/WF04_CC.jpg","stimuli/AM09_HE.jpg","stimuli/BM03_AO.jpg","pos2","stimuli/WF04_CC.jpg","CC","WF04","1","2","4","6","stimuli/stars_4.png","246.5","[""DO"",""CC"",""HE"",""AO""]","[""AM05"",""WF04"",""AM09"",""BM03""]","[6,4,0,3]","[8,6,2,4]","","",""
"show-reward","198","411096","0.0-198.0","p64209","pilot_test","emogo","test_session","model","match","uniform","","","","","","","","410702","412704","","","","","","","","","","","","4","","stimuli/stars_4.png","246.5","","","","","stimuli/WF04_CC.jpg","",""
"instructions","199","414958","0.0-199.0","p64209","pilot_test","emogo","test_session","model","match","uniform","","","","","","[{""page_index"":0,""viewing_time"":3856.999999999942}]","3856.999999999942","","","","","","","","","","","","","","","","","","","","","","","",""
"survey-text","200","419507","0.0-200.0-0.0","p64209","pilot_test","emogo","test_session","model","match","uniform","","","","","","","4522","","","","","","","","","","","","","","","","","","","","","","","{""age"":""21""}",""
"survey-text","201","422025","0.0-200.0-1.0","p64209","pilot_test","emogo","test_session","model","match","uniform","","","","","","","2516","","","","","","","","","","","","","","","","","","","","","","","{""gender"":""female""}",""
"survey-text","202","424812","0.0-200.0-2.0","p64209","pilot_test","emogo","test_session","model","match","uniform","","","","","","","2779","","","","","","","","","","","","","","","","","","","","","","","{""country"":""united states""}",""
"survey-text","203","431688","0.0-200.0-3.0","p64209","pilot_test","emogo","test_session","model","match","uniform","","","","","","","6867","","","","","","","","","","","","","","","","","","","","","","","{""language"":""English"",""other_languages"":""Greek""}",""
"survey-multi-select","204","435028","0.0-201.0","p64209","pilot_test","emogo","test_session","model","match","uniform","","","","","","","3335","","","","","","","","","","","","","","","","","","","","","","","{""race"":[""White""]}","[0]"
"survey-multi-choice","205","441815","0.0-202.0","p64209","pilot_test","emogo","test_session","model","match","uniform","","","","","","","6784.000000000058","","","","","","","","","","","","","","","","","","","","","","","{""education"":""Bachelor's degree""}","[0]"
"survey-text","206","486424","0.0-203.0","p64209","pilot_test","emogo","test_session","model","match","uniform","","","","","","","44606","","","","","","","","","","","","","","","","","","","","","","","{""patterns"":"""",""strategy"":""I think the only real strategy I used was that if I remembered something previously gave me 10 stars, then I always chose it in subsequent rounds "",""comments"":""""}",""
